"success","trial_type","trial_index","time_elapsed","internal_node_id","assignmentID","mturkID","hitID","view_history","rt","stimulus","key_press","reactionTime","a","r","warning","s","cond","reward_cond","reward_cond_actual","reward_matrix_idx","responses"
"true","fullscreen","0","202936","0.0-0.0","3EWIJTFFVPTA5HW56M3XAHRFWH0E0N","A16ENVVHDK1LQQ","3S1L4CQSFXRWQOWP2XFUSMS4AZDFAL","","","","","","","","","","","","","",""
"","instructions","1","249378","0.0-1.0","3EWIJTFFVPTA5HW56M3XAHRFWH0E0N","A16ENVVHDK1LQQ","3S1L4CQSFXRWQOWP2XFUSMS4AZDFAL","[{""page_index"":0,""viewing_time"":31084},{""page_index"":1,""viewing_time"":1782},{""page_index"":2,""viewing_time"":230},{""page_index"":3,""viewing_time"":3866},{""page_index"":4,""viewing_time"":2729},{""page_index"":5,""viewing_time"":4590},{""page_index"":6,""viewing_time"":2155}]","46436","","","","","","","","","","","",""
"","instructions","2","254388","0.0-2.0","3EWIJTFFVPTA5HW56M3XAHRFWH0E0N","A16ENVVHDK1LQQ","3S1L4CQSFXRWQOWP2XFUSMS4AZDFAL","[{""page_index"":0,""viewing_time"":1961},{""page_index"":1,""viewing_time"":3046}]","5008","","","","","","","","","","","",""
"","image-keyboard-response","3","255395","0.0-3.0","3EWIJTFFVPTA5HW56M3XAHRFWH0E0N","A16ENVVHDK1LQQ","3S1L4CQSFXRWQOWP2XFUSMS4AZDFAL","","","img/food5.png","","1005","-1","0","true","1","2","1,0.7,0,1,0.7,0,0.7,0,1","0.7,0,1,0.7,0,1,0,1,0.7","2",""
"","html-keyboard-response","4","255701","0.0-4.0","3EWIJTFFVPTA5HW56M3XAHRFWH0E0N","A16ENVVHDK1LQQ","3S1L4CQSFXRWQOWP2XFUSMS4AZDFAL","","null","<img src=""img/food5.png"" style=""width:200px;border:14px solid red;"">","null","","","","","","","","","",""
"","html-keyboard-response","5","258032","0.0-5.0-0.0","3EWIJTFFVPTA5HW56M3XAHRFWH0E0N","A16ENVVHDK1LQQ","3S1L4CQSFXRWQOWP2XFUSMS4AZDFAL","","","","","","","","","","","","","",""
"","image-keyboard-response","6","258271","0.0-6.0","3EWIJTFFVPTA5HW56M3XAHRFWH0E0N","A16ENVVHDK1LQQ","3S1L4CQSFXRWQOWP2XFUSMS4AZDFAL","","239","img/food2.png","76","240","3","1","false","3","2","1,0.7,0,1,0.7,0,0.7,0,1","0.7,0,1,0.7,0,1,0,1,0.7","2",""
"","html-keyboard-response","7","258575","0.0-7.0","3EWIJTFFVPTA5HW56M3XAHRFWH0E0N","A16ENVVHDK1LQQ","3S1L4CQSFXRWQOWP2XFUSMS4AZDFAL","","null","<img src=""img/food2.png"" style=""width:200px; border:14px solid green;"">","null","","","","","","","","","",""
"","image-keyboard-response","8","258665","0.0-9.0","3EWIJTFFVPTA5HW56M3XAHRFWH0E0N","A16ENVVHDK1LQQ","3S1L4CQSFXRWQOWP2XFUSMS4AZDFAL","","86","img/food2.png","74","88","1","0","false","3","2","1,0.7,0,1,0.7,0,0.7,0,1","0.7,0,1,0.7,0,1,0,1,0.7","2",""
"","html-keyboard-response","9","258969","0.0-10.0","3EWIJTFFVPTA5HW56M3XAHRFWH0E0N","A16ENVVHDK1LQQ","3S1L4CQSFXRWQOWP2XFUSMS4AZDFAL","","null","<img src=""img/food2.png"" style=""width:200px;border:14px solid red;"">","null","","","","","","","","","",""
"","image-keyboard-response","10","259356","0.0-12.0","3EWIJTFFVPTA5HW56M3XAHRFWH0E0N","A16ENVVHDK1LQQ","3S1L4CQSFXRWQOWP2XFUSMS4AZDFAL","","383","img/food5.png","76","385","3","1","false","1","2","1,0.7,0,1,0.7,0,0.7,0,1","0.7,0,1,0.7,0,1,0,1,0.7","2",""
"","html-keyboard-response","11","259658","0.0-13.0","3EWIJTFFVPTA5HW56M3XAHRFWH0E0N","A16ENVVHDK1LQQ","3S1L4CQSFXRWQOWP2XFUSMS4AZDFAL","","null","<img src=""img/food5.png"" style=""width:200px; border:14px solid green;"">","null","","","","","","","","","",""
"","image-keyboard-response","12","259721","0.0-15.0","3EWIJTFFVPTA5HW56M3XAHRFWH0E0N","A16ENVVHDK1LQQ","3S1L4CQSFXRWQOWP2XFUSMS4AZDFAL","","61","img/food5.png","76","62","3","1","false","1","2","1,0.7,0,1,0.7,0,0.7,0,1","0.7,0,1,0.7,0,1,0,1,0.7","2",""
"","html-keyboard-response","13","260026","0.0-16.0","3EWIJTFFVPTA5HW56M3XAHRFWH0E0N","A16ENVVHDK1LQQ","3S1L4CQSFXRWQOWP2XFUSMS4AZDFAL","","null","<img src=""img/food5.png"" style=""width:200px; border:14px solid green;"">","null","","","","","","","","","",""
"","image-keyboard-response","14","260171","0.0-18.0","3EWIJTFFVPTA5HW56M3XAHRFWH0E0N","A16ENVVHDK1LQQ","3S1L4CQSFXRWQOWP2XFUSMS4AZDFAL","","141","img/food5.png","74","143","1","1","false","1","2","1,0.7,0,1,0.7,0,0.7,0,1","0.7,0,1,0.7,0,1,0,1,0.7","2",""
"","html-keyboard-response","15","260473","0.0-19.0","3EWIJTFFVPTA5HW56M3XAHRFWH0E0N","A16ENVVHDK1LQQ","3S1L4CQSFXRWQOWP2XFUSMS4AZDFAL","","null","<img src=""img/food5.png"" style=""width:200px; border:14px solid green;"">","null","","","","","","","","","",""
"","image-keyboard-response","16","260488","0.0-21.0","3EWIJTFFVPTA5HW56M3XAHRFWH0E0N","A16ENVVHDK1LQQ","3S1L4CQSFXRWQOWP2XFUSMS4AZDFAL","","8","img/food4.png","75","9","2","0","false","2","2","1,0.7,0,1,0.7,0,0.7,0,1","0.7,0,1,0.7,0,1,0,1,0.7","2",""
"","html-keyboard-response","17","260792","0.0-22.0","3EWIJTFFVPTA5HW56M3XAHRFWH0E0N","A16ENVVHDK1LQQ","3S1L4CQSFXRWQOWP2XFUSMS4AZDFAL","","null","<img src=""img/food4.png"" style=""width:200px;border:14px solid red;"">","null","","","","","","","","","",""
"","image-keyboard-response","18","260880","0.0-24.0","3EWIJTFFVPTA5HW56M3XAHRFWH0E0N","A16ENVVHDK1LQQ","3S1L4CQSFXRWQOWP2XFUSMS4AZDFAL","","84","img/food2.png","74","86","1","0","false","3","2","1,0.7,0,1,0.7,0,0.7,0,1","0.7,0,1,0.7,0,1,0,1,0.7","2",""
"","html-keyboard-response","19","261182","0.0-25.0","3EWIJTFFVPTA5HW56M3XAHRFWH0E0N","A16ENVVHDK1LQQ","3S1L4CQSFXRWQOWP2XFUSMS4AZDFAL","","null","<img src=""img/food2.png"" style=""width:200px;border:14px solid red;"">","null","","","","","","","","","",""
"","image-keyboard-response","20","261465","0.0-27.0","3EWIJTFFVPTA5HW56M3XAHRFWH0E0N","A16ENVVHDK1LQQ","3S1L4CQSFXRWQOWP2XFUSMS4AZDFAL","","280","img/food4.png","74","282","1","1","false","2","2","1,0.7,0,1,0.7,0,0.7,0,1","0.7,0,1,0.7,0,1,0,1,0.7","2",""
"","html-keyboard-response","21","261768","0.0-28.0","3EWIJTFFVPTA5HW56M3XAHRFWH0E0N","A16ENVVHDK1LQQ","3S1L4CQSFXRWQOWP2XFUSMS4AZDFAL","","null","<img src=""img/food4.png"" style=""width:200px; border:14px solid green;"">","null","","","","","","","","","",""
"","image-keyboard-response","22","261858","0.0-30.0","3EWIJTFFVPTA5HW56M3XAHRFWH0E0N","A16ENVVHDK1LQQ","3S1L4CQSFXRWQOWP2XFUSMS4AZDFAL","","88","img/food4.png","74","90","1","1","false","2","2","1,0.7,0,1,0.7,0,0.7,0,1","0.7,0,1,0.7,0,1,0,1,0.7","2",""
"","html-keyboard-response","23","262162","0.0-31.0","3EWIJTFFVPTA5HW56M3XAHRFWH0E0N","A16ENVVHDK1LQQ","3S1L4CQSFXRWQOWP2XFUSMS4AZDFAL","","null","<img src=""img/food4.png"" style=""width:200px; border:14px solid green;"">","null","","","","","","","","","",""
"","image-keyboard-response","24","262250","0.0-33.0","3EWIJTFFVPTA5HW56M3XAHRFWH0E0N","A16ENVVHDK1LQQ","3S1L4CQSFXRWQOWP2XFUSMS4AZDFAL","","85","img/food4.png","74","87","1","1","false","2","2","1,0.7,0,1,0.7,0,0.7,0,1","0.7,0,1,0.7,0,1,0,1,0.7","2",""
"","html-keyboard-response","25","262553","0.0-34.0","3EWIJTFFVPTA5HW56M3XAHRFWH0E0N","A16ENVVHDK1LQQ","3S1L4CQSFXRWQOWP2XFUSMS4AZDFAL","","null","<img src=""img/food4.png"" style=""width:200px; border:14px solid green;"">","null","","","","","","","","","",""
"","image-keyboard-response","26","262675","0.0-36.0","3EWIJTFFVPTA5HW56M3XAHRFWH0E0N","A16ENVVHDK1LQQ","3S1L4CQSFXRWQOWP2XFUSMS4AZDFAL","","119","img/food5.png","76","121","3","1","false","1","2","1,0.7,0,1,0.7,0,0.7,0,1","0.7,0,1,0.7,0,1,0,1,0.7","2",""
"","html-keyboard-response","27","262976","0.0-37.0","3EWIJTFFVPTA5HW56M3XAHRFWH0E0N","A16ENVVHDK1LQQ","3S1L4CQSFXRWQOWP2XFUSMS4AZDFAL","","null","<img src=""img/food5.png"" style=""width:200px; border:14px solid green;"">","null","","","","","","","","","",""
"","image-keyboard-response","28","263040","0.0-39.0","3EWIJTFFVPTA5HW56M3XAHRFWH0E0N","A16ENVVHDK1LQQ","3S1L4CQSFXRWQOWP2XFUSMS4AZDFAL","","61","img/food5.png","76","62","3","1","false","1","2","1,0.7,0,1,0.7,0,0.7,0,1","0.7,0,1,0.7,0,1,0,1,0.7","2",""
"","html-keyboard-response","29","263341","0.0-40.0","3EWIJTFFVPTA5HW56M3XAHRFWH0E0N","A16ENVVHDK1LQQ","3S1L4CQSFXRWQOWP2XFUSMS4AZDFAL","","null","<img src=""img/food5.png"" style=""width:200px; border:14px solid green;"">","null","","","","","","","","","",""
"","image-keyboard-response","30","263429","0.0-42.0","3EWIJTFFVPTA5HW56M3XAHRFWH0E0N","A16ENVVHDK1LQQ","3S1L4CQSFXRWQOWP2XFUSMS4AZDFAL","","85","img/food4.png","74","87","1","1","false","2","2","1,0.7,0,1,0.7,0,0.7,0,1","0.7,0,1,0.7,0,1,0,1,0.7","2",""
"","html-keyboard-response","31","263731","0.0-43.0","3EWIJTFFVPTA5HW56M3XAHRFWH0E0N","A16ENVVHDK1LQQ","3S1L4CQSFXRWQOWP2XFUSMS4AZDFAL","","null","<img src=""img/food4.png"" style=""width:200px; border:14px solid green;"">","null","","","","","","","","","",""
"","image-keyboard-response","32","263834","0.0-45.0","3EWIJTFFVPTA5HW56M3XAHRFWH0E0N","A16ENVVHDK1LQQ","3S1L4CQSFXRWQOWP2XFUSMS4AZDFAL","","101","img/food2.png","74","102","1","0","false","3","2","1,0.7,0,1,0.7,0,0.7,0,1","0.7,0,1,0.7,0,1,0,1,0.7","2",""
"","html-keyboard-response","33","264136","0.0-46.0","3EWIJTFFVPTA5HW56M3XAHRFWH0E0N","A16ENVVHDK1LQQ","3S1L4CQSFXRWQOWP2XFUSMS4AZDFAL","","null","<img src=""img/food2.png"" style=""width:200px;border:14px solid red;"">","null","","","","","","","","","",""
"","image-keyboard-response","34","264399","0.0-48.0","3EWIJTFFVPTA5HW56M3XAHRFWH0E0N","A16ENVVHDK1LQQ","3S1L4CQSFXRWQOWP2XFUSMS4AZDFAL","","260","img/food5.png","76","261","3","1","false","1","2","1,0.7,0,1,0.7,0,0.7,0,1","0.7,0,1,0.7,0,1,0,1,0.7","2",""
"","html-keyboard-response","35","264701","0.0-49.0","3EWIJTFFVPTA5HW56M3XAHRFWH0E0N","A16ENVVHDK1LQQ","3S1L4CQSFXRWQOWP2XFUSMS4AZDFAL","","null","<img src=""img/food5.png"" style=""width:200px; border:14px solid green;"">","null","","","","","","","","","",""
"","image-keyboard-response","36","264941","0.0-51.0","3EWIJTFFVPTA5HW56M3XAHRFWH0E0N","A16ENVVHDK1LQQ","3S1L4CQSFXRWQOWP2XFUSMS4AZDFAL","","236","img/food5.png","74","238","1","1","false","1","2","1,0.7,0,1,0.7,0,0.7,0,1","0.7,0,1,0.7,0,1,0,1,0.7","2",""
"","html-keyboard-response","37","265244","0.0-52.0","3EWIJTFFVPTA5HW56M3XAHRFWH0E0N","A16ENVVHDK1LQQ","3S1L4CQSFXRWQOWP2XFUSMS4AZDFAL","","null","<img src=""img/food5.png"" style=""width:200px; border:14px solid green;"">","null","","","","","","","","","",""
"","image-keyboard-response","38","265378","0.0-54.0","3EWIJTFFVPTA5HW56M3XAHRFWH0E0N","A16ENVVHDK1LQQ","3S1L4CQSFXRWQOWP2XFUSMS4AZDFAL","","132","img/food4.png","74","134","1","1","false","2","2","1,0.7,0,1,0.7,0,0.7,0,1","0.7,0,1,0.7,0,1,0,1,0.7","2",""
"","html-keyboard-response","39","265681","0.0-55.0","3EWIJTFFVPTA5HW56M3XAHRFWH0E0N","A16ENVVHDK1LQQ","3S1L4CQSFXRWQOWP2XFUSMS4AZDFAL","","null","<img src=""img/food4.png"" style=""width:200px; border:14px solid green;"">","null","","","","","","","","","",""
"","image-keyboard-response","40","265795","0.0-57.0","3EWIJTFFVPTA5HW56M3XAHRFWH0E0N","A16ENVVHDK1LQQ","3S1L4CQSFXRWQOWP2XFUSMS4AZDFAL","","111","img/food5.png","74","113","1","0","false","1","2","1,0.7,0,1,0.7,0,0.7,0,1","0.7,0,1,0.7,0,1,0,1,0.7","2",""
"","html-keyboard-response","41","266099","0.0-58.0","3EWIJTFFVPTA5HW56M3XAHRFWH0E0N","A16ENVVHDK1LQQ","3S1L4CQSFXRWQOWP2XFUSMS4AZDFAL","","null","<img src=""img/food5.png"" style=""width:200px;border:14px solid red;"">","null","","","","","","","","","",""
"","image-keyboard-response","42","266239","0.0-60.0","3EWIJTFFVPTA5HW56M3XAHRFWH0E0N","A16ENVVHDK1LQQ","3S1L4CQSFXRWQOWP2XFUSMS4AZDFAL","","137","img/food4.png","74","139","1","1","false","2","2","1,0.7,0,1,0.7,0,0.7,0,1","0.7,0,1,0.7,0,1,0,1,0.7","2",""
"","html-keyboard-response","43","266540","0.0-61.0","3EWIJTFFVPTA5HW56M3XAHRFWH0E0N","A16ENVVHDK1LQQ","3S1L4CQSFXRWQOWP2XFUSMS4AZDFAL","","null","<img src=""img/food4.png"" style=""width:200px; border:14px solid green;"">","null","","","","","","","","","",""
"","image-keyboard-response","44","266579","0.0-63.0","3EWIJTFFVPTA5HW56M3XAHRFWH0E0N","A16ENVVHDK1LQQ","3S1L4CQSFXRWQOWP2XFUSMS4AZDFAL","","36","img/food4.png","76","37","3","1","false","2","2","1,0.7,0,1,0.7,0,0.7,0,1","0.7,0,1,0.7,0,1,0,1,0.7","2",""
"","html-keyboard-response","45","266882","0.0-64.0","3EWIJTFFVPTA5HW56M3XAHRFWH0E0N","A16ENVVHDK1LQQ","3S1L4CQSFXRWQOWP2XFUSMS4AZDFAL","","null","<img src=""img/food4.png"" style=""width:200px; border:14px solid green;"">","null","","","","","","","","","",""
"","image-keyboard-response","46","266919","0.0-66.0","3EWIJTFFVPTA5HW56M3XAHRFWH0E0N","A16ENVVHDK1LQQ","3S1L4CQSFXRWQOWP2XFUSMS4AZDFAL","","34","img/food2.png","76","36","3","1","false","3","2","1,0.7,0,1,0.7,0,0.7,0,1","0.7,0,1,0.7,0,1,0,1,0.7","2",""
"","html-keyboard-response","47","267221","0.0-67.0","3EWIJTFFVPTA5HW56M3XAHRFWH0E0N","A16ENVVHDK1LQQ","3S1L4CQSFXRWQOWP2XFUSMS4AZDFAL","","null","<img src=""img/food2.png"" style=""width:200px; border:14px solid green;"">","null","","","","","","","","","",""
"","image-keyboard-response","48","267483","0.0-69.0","3EWIJTFFVPTA5HW56M3XAHRFWH0E0N","A16ENVVHDK1LQQ","3S1L4CQSFXRWQOWP2XFUSMS4AZDFAL","","259","img/food2.png","74","260","1","0","false","3","2","1,0.7,0,1,0.7,0,0.7,0,1","0.7,0,1,0.7,0,1,0,1,0.7","2",""
"","html-keyboard-response","49","267786","0.0-70.0","3EWIJTFFVPTA5HW56M3XAHRFWH0E0N","A16ENVVHDK1LQQ","3S1L4CQSFXRWQOWP2XFUSMS4AZDFAL","","null","<img src=""img/food2.png"" style=""width:200px;border:14px solid red;"">","null","","","","","","","","","",""
"","image-keyboard-response","50","267829","0.0-72.0","3EWIJTFFVPTA5HW56M3XAHRFWH0E0N","A16ENVVHDK1LQQ","3S1L4CQSFXRWQOWP2XFUSMS4AZDFAL","","40","img/food2.png","74","42","1","0","false","3","2","1,0.7,0,1,0.7,0,0.7,0,1","0.7,0,1,0.7,0,1,0,1,0.7","2",""
"","html-keyboard-response","51","268132","0.0-73.0","3EWIJTFFVPTA5HW56M3XAHRFWH0E0N","A16ENVVHDK1LQQ","3S1L4CQSFXRWQOWP2XFUSMS4AZDFAL","","null","<img src=""img/food2.png"" style=""width:200px;border:14px solid red;"">","null","","","","","","","","","",""
"","image-keyboard-response","52","268279","0.0-75.0","3EWIJTFFVPTA5HW56M3XAHRFWH0E0N","A16ENVVHDK1LQQ","3S1L4CQSFXRWQOWP2XFUSMS4AZDFAL","","146","img/food4.png","74","147","1","1","false","2","2","1,0.7,0,1,0.7,0,0.7,0,1","0.7,0,1,0.7,0,1,0,1,0.7","2",""
"","html-keyboard-response","53","268582","0.0-76.0","3EWIJTFFVPTA5HW56M3XAHRFWH0E0N","A16ENVVHDK1LQQ","3S1L4CQSFXRWQOWP2XFUSMS4AZDFAL","","null","<img src=""img/food4.png"" style=""width:200px; border:14px solid green;"">","null","","","","","","","","","",""
"","image-keyboard-response","54","268707","0.0-78.0","3EWIJTFFVPTA5HW56M3XAHRFWH0E0N","A16ENVVHDK1LQQ","3S1L4CQSFXRWQOWP2XFUSMS4AZDFAL","","123","img/food2.png","74","125","1","0","false","3","2","1,0.7,0,1,0.7,0,0.7,0,1","0.7,0,1,0.7,0,1,0,1,0.7","2",""
"","html-keyboard-response","55","269010","0.0-79.0","3EWIJTFFVPTA5HW56M3XAHRFWH0E0N","A16ENVVHDK1LQQ","3S1L4CQSFXRWQOWP2XFUSMS4AZDFAL","","null","<img src=""img/food2.png"" style=""width:200px;border:14px solid red;"">","null","","","","","","","","","",""
"","image-keyboard-response","56","269060","0.0-81.0","3EWIJTFFVPTA5HW56M3XAHRFWH0E0N","A16ENVVHDK1LQQ","3S1L4CQSFXRWQOWP2XFUSMS4AZDFAL","","48","img/food5.png","74","49","1","0","false","1","2","1,0.7,0,1,0.7,0,0.7,0,1","0.7,0,1,0.7,0,1,0,1,0.7","2",""
"","html-keyboard-response","57","269363","0.0-82.0","3EWIJTFFVPTA5HW56M3XAHRFWH0E0N","A16ENVVHDK1LQQ","3S1L4CQSFXRWQOWP2XFUSMS4AZDFAL","","null","<img src=""img/food5.png"" style=""width:200px;border:14px solid red;"">","null","","","","","","","","","",""
"","image-keyboard-response","58","269373","0.0-84.0","3EWIJTFFVPTA5HW56M3XAHRFWH0E0N","A16ENVVHDK1LQQ","3S1L4CQSFXRWQOWP2XFUSMS4AZDFAL","","6","img/food2.png","74","7","1","0","false","3","2","1,0.7,0,1,0.7,0,0.7,0,1","0.7,0,1,0.7,0,1,0,1,0.7","2",""
"","html-keyboard-response","59","269674","0.0-85.0","3EWIJTFFVPTA5HW56M3XAHRFWH0E0N","A16ENVVHDK1LQQ","3S1L4CQSFXRWQOWP2XFUSMS4AZDFAL","","null","<img src=""img/food2.png"" style=""width:200px;border:14px solid red;"">","null","","","","","","","","","",""
"","image-keyboard-response","60","269688","0.0-87.0","3EWIJTFFVPTA5HW56M3XAHRFWH0E0N","A16ENVVHDK1LQQ","3S1L4CQSFXRWQOWP2XFUSMS4AZDFAL","","11","img/food4.png","74","12","1","1","false","2","2","1,0.7,0,1,0.7,0,0.7,0,1","0.7,0,1,0.7,0,1,0,1,0.7","2",""
"","html-keyboard-response","61","269991","0.0-88.0","3EWIJTFFVPTA5HW56M3XAHRFWH0E0N","A16ENVVHDK1LQQ","3S1L4CQSFXRWQOWP2XFUSMS4AZDFAL","","null","<img src=""img/food4.png"" style=""width:200px; border:14px solid green;"">","null","","","","","","","","","",""
"","image-keyboard-response","62","270031","0.0-90.0","3EWIJTFFVPTA5HW56M3XAHRFWH0E0N","A16ENVVHDK1LQQ","3S1L4CQSFXRWQOWP2XFUSMS4AZDFAL","","38","img/food5.png","76","39","3","1","false","1","2","1,0.7,0,1,0.7,0,0.7,0,1","0.7,0,1,0.7,0,1,0,1,0.7","2",""
"","html-keyboard-response","63","270332","0.0-91.0","3EWIJTFFVPTA5HW56M3XAHRFWH0E0N","A16ENVVHDK1LQQ","3S1L4CQSFXRWQOWP2XFUSMS4AZDFAL","","null","<img src=""img/food5.png"" style=""width:200px; border:14px solid green;"">","null","","","","","","","","","",""
"","image-keyboard-response","64","270375","0.0-93.0","3EWIJTFFVPTA5HW56M3XAHRFWH0E0N","A16ENVVHDK1LQQ","3S1L4CQSFXRWQOWP2XFUSMS4AZDFAL","","41","img/food4.png","76","42","3","1","false","2","2","1,0.7,0,1,0.7,0,0.7,0,1","0.7,0,1,0.7,0,1,0,1,0.7","2",""
"","html-keyboard-response","65","270677","0.0-94.0","3EWIJTFFVPTA5HW56M3XAHRFWH0E0N","A16ENVVHDK1LQQ","3S1L4CQSFXRWQOWP2XFUSMS4AZDFAL","","null","<img src=""img/food4.png"" style=""width:200px; border:14px solid green;"">","null","","","","","","","","","",""
"","image-keyboard-response","66","270718","0.0-96.0","3EWIJTFFVPTA5HW56M3XAHRFWH0E0N","A16ENVVHDK1LQQ","3S1L4CQSFXRWQOWP2XFUSMS4AZDFAL","","40","img/food5.png","76","40","3","1","false","1","2","1,0.7,0,1,0.7,0,0.7,0,1","0.7,0,1,0.7,0,1,0,1,0.7","2",""
"","html-keyboard-response","67","271021","0.0-97.0","3EWIJTFFVPTA5HW56M3XAHRFWH0E0N","A16ENVVHDK1LQQ","3S1L4CQSFXRWQOWP2XFUSMS4AZDFAL","","null","<img src=""img/food5.png"" style=""width:200px; border:14px solid green;"">","null","","","","","","","","","",""
"","image-keyboard-response","68","271068","0.0-99.0","3EWIJTFFVPTA5HW56M3XAHRFWH0E0N","A16ENVVHDK1LQQ","3S1L4CQSFXRWQOWP2XFUSMS4AZDFAL","","43","img/food5.png","76","44","3","1","false","1","2","1,0.7,0,1,0.7,0,0.7,0,1","0.7,0,1,0.7,0,1,0,1,0.7","2",""
"","html-keyboard-response","69","271372","0.0-100.0","3EWIJTFFVPTA5HW56M3XAHRFWH0E0N","A16ENVVHDK1LQQ","3S1L4CQSFXRWQOWP2XFUSMS4AZDFAL","","null","<img src=""img/food5.png"" style=""width:200px; border:14px solid green;"">","null","","","","","","","","","",""
"","image-keyboard-response","70","271435","0.0-102.0","3EWIJTFFVPTA5HW56M3XAHRFWH0E0N","A16ENVVHDK1LQQ","3S1L4CQSFXRWQOWP2XFUSMS4AZDFAL","","61","img/food2.png","74","62","1","0","false","3","2","1,0.7,0,1,0.7,0,0.7,0,1","0.7,0,1,0.7,0,1,0,1,0.7","2",""
"","html-keyboard-response","71","271738","0.0-103.0","3EWIJTFFVPTA5HW56M3XAHRFWH0E0N","A16ENVVHDK1LQQ","3S1L4CQSFXRWQOWP2XFUSMS4AZDFAL","","null","<img src=""img/food2.png"" style=""width:200px;border:14px solid red;"">","null","","","","","","","","","",""
"","image-keyboard-response","72","271870","0.0-105.0","3EWIJTFFVPTA5HW56M3XAHRFWH0E0N","A16ENVVHDK1LQQ","3S1L4CQSFXRWQOWP2XFUSMS4AZDFAL","","129","img/food5.png","74","131","1","1","false","1","2","1,0.7,0,1,0.7,0,0.7,0,1","0.7,0,1,0.7,0,1,0,1,0.7","2",""
"","html-keyboard-response","73","272172","0.0-106.0","3EWIJTFFVPTA5HW56M3XAHRFWH0E0N","A16ENVVHDK1LQQ","3S1L4CQSFXRWQOWP2XFUSMS4AZDFAL","","null","<img src=""img/food5.png"" style=""width:200px; border:14px solid green;"">","null","","","","","","","","","",""
"","image-keyboard-response","74","272259","0.0-108.0","3EWIJTFFVPTA5HW56M3XAHRFWH0E0N","A16ENVVHDK1LQQ","3S1L4CQSFXRWQOWP2XFUSMS4AZDFAL","","85","img/food5.png","76","86","3","1","false","1","2","1,0.7,0,1,0.7,0,0.7,0,1","0.7,0,1,0.7,0,1,0,1,0.7","2",""
"","html-keyboard-response","75","272563","0.0-109.0","3EWIJTFFVPTA5HW56M3XAHRFWH0E0N","A16ENVVHDK1LQQ","3S1L4CQSFXRWQOWP2XFUSMS4AZDFAL","","null","<img src=""img/food5.png"" style=""width:200px; border:14px solid green;"">","null","","","","","","","","","",""
"","image-keyboard-response","76","272630","0.0-111.0","3EWIJTFFVPTA5HW56M3XAHRFWH0E0N","A16ENVVHDK1LQQ","3S1L4CQSFXRWQOWP2XFUSMS4AZDFAL","","64","img/food4.png","76","66","3","1","false","2","2","1,0.7,0,1,0.7,0,0.7,0,1","0.7,0,1,0.7,0,1,0,1,0.7","2",""
"","html-keyboard-response","77","272932","0.0-112.0","3EWIJTFFVPTA5HW56M3XAHRFWH0E0N","A16ENVVHDK1LQQ","3S1L4CQSFXRWQOWP2XFUSMS4AZDFAL","","null","<img src=""img/food4.png"" style=""width:200px; border:14px solid green;"">","null","","","","","","","","","",""
"","image-keyboard-response","78","272985","0.0-114.0","3EWIJTFFVPTA5HW56M3XAHRFWH0E0N","A16ENVVHDK1LQQ","3S1L4CQSFXRWQOWP2XFUSMS4AZDFAL","","48","img/food4.png","76","50","3","1","false","2","2","1,0.7,0,1,0.7,0,0.7,0,1","0.7,0,1,0.7,0,1,0,1,0.7","2",""
"","html-keyboard-response","79","273286","0.0-115.0","3EWIJTFFVPTA5HW56M3XAHRFWH0E0N","A16ENVVHDK1LQQ","3S1L4CQSFXRWQOWP2XFUSMS4AZDFAL","","null","<img src=""img/food4.png"" style=""width:200px; border:14px solid green;"">","null","","","","","","","","","",""
"","image-keyboard-response","80","273334","0.0-117.0","3EWIJTFFVPTA5HW56M3XAHRFWH0E0N","A16ENVVHDK1LQQ","3S1L4CQSFXRWQOWP2XFUSMS4AZDFAL","","46","img/food5.png","74","47","1","0","false","1","2","1,0.7,0,1,0.7,0,0.7,0,1","0.7,0,1,0.7,0,1,0,1,0.7","2",""
"","html-keyboard-response","81","273637","0.0-118.0","3EWIJTFFVPTA5HW56M3XAHRFWH0E0N","A16ENVVHDK1LQQ","3S1L4CQSFXRWQOWP2XFUSMS4AZDFAL","","null","<img src=""img/food5.png"" style=""width:200px;border:14px solid red;"">","null","","","","","","","","","",""
"","image-keyboard-response","82","273763","0.0-120.0","3EWIJTFFVPTA5HW56M3XAHRFWH0E0N","A16ENVVHDK1LQQ","3S1L4CQSFXRWQOWP2XFUSMS4AZDFAL","","122","img/food4.png","74","124","1","1","false","2","2","1,0.7,0,1,0.7,0,0.7,0,1","0.7,0,1,0.7,0,1,0,1,0.7","2",""
"","html-keyboard-response","83","274065","0.0-121.0","3EWIJTFFVPTA5HW56M3XAHRFWH0E0N","A16ENVVHDK1LQQ","3S1L4CQSFXRWQOWP2XFUSMS4AZDFAL","","null","<img src=""img/food4.png"" style=""width:200px; border:14px solid green;"">","null","","","","","","","","","",""
"","image-keyboard-response","84","274078","0.0-123.0","3EWIJTFFVPTA5HW56M3XAHRFWH0E0N","A16ENVVHDK1LQQ","3S1L4CQSFXRWQOWP2XFUSMS4AZDFAL","","10","img/food2.png","76","11","3","1","false","3","2","1,0.7,0,1,0.7,0,0.7,0,1","0.7,0,1,0.7,0,1,0,1,0.7","2",""
"","html-keyboard-response","85","274380","0.0-124.0","3EWIJTFFVPTA5HW56M3XAHRFWH0E0N","A16ENVVHDK1LQQ","3S1L4CQSFXRWQOWP2XFUSMS4AZDFAL","","null","<img src=""img/food2.png"" style=""width:200px; border:14px solid green;"">","null","","","","","","","","","",""
"","image-keyboard-response","86","274431","0.0-126.0","3EWIJTFFVPTA5HW56M3XAHRFWH0E0N","A16ENVVHDK1LQQ","3S1L4CQSFXRWQOWP2XFUSMS4AZDFAL","","47","img/food5.png","76","49","3","1","false","1","2","1,0.7,0,1,0.7,0,0.7,0,1","0.7,0,1,0.7,0,1,0,1,0.7","2",""
"","html-keyboard-response","87","274734","0.0-127.0","3EWIJTFFVPTA5HW56M3XAHRFWH0E0N","A16ENVVHDK1LQQ","3S1L4CQSFXRWQOWP2XFUSMS4AZDFAL","","null","<img src=""img/food5.png"" style=""width:200px; border:14px solid green;"">","null","","","","","","","","","",""
"","image-keyboard-response","88","274759","0.0-129.0","3EWIJTFFVPTA5HW56M3XAHRFWH0E0N","A16ENVVHDK1LQQ","3S1L4CQSFXRWQOWP2XFUSMS4AZDFAL","","22","img/food4.png","74","24","1","0","false","2","2","1,0.7,0,1,0.7,0,0.7,0,1","0.7,0,1,0.7,0,1,0,1,0.7","2",""
"","html-keyboard-response","89","275060","0.0-130.0","3EWIJTFFVPTA5HW56M3XAHRFWH0E0N","A16ENVVHDK1LQQ","3S1L4CQSFXRWQOWP2XFUSMS4AZDFAL","","null","<img src=""img/food4.png"" style=""width:200px;border:14px solid red;"">","null","","","","","","","","","",""
"","image-keyboard-response","90","275109","0.0-132.0","3EWIJTFFVPTA5HW56M3XAHRFWH0E0N","A16ENVVHDK1LQQ","3S1L4CQSFXRWQOWP2XFUSMS4AZDFAL","","46","img/food2.png","74","48","1","0","false","3","2","1,0.7,0,1,0.7,0,0.7,0,1","0.7,0,1,0.7,0,1,0,1,0.7","2",""
"","html-keyboard-response","91","275411","0.0-133.0","3EWIJTFFVPTA5HW56M3XAHRFWH0E0N","A16ENVVHDK1LQQ","3S1L4CQSFXRWQOWP2XFUSMS4AZDFAL","","null","<img src=""img/food2.png"" style=""width:200px;border:14px solid red;"">","null","","","","","","","","","",""
"","image-keyboard-response","92","275579","0.0-135.0","3EWIJTFFVPTA5HW56M3XAHRFWH0E0N","A16ENVVHDK1LQQ","3S1L4CQSFXRWQOWP2XFUSMS4AZDFAL","","165","img/food5.png","74","167","1","1","false","1","2","1,0.7,0,1,0.7,0,0.7,0,1","0.7,0,1,0.7,0,1,0,1,0.7","2",""
"","html-keyboard-response","93","275881","0.0-136.0","3EWIJTFFVPTA5HW56M3XAHRFWH0E0N","A16ENVVHDK1LQQ","3S1L4CQSFXRWQOWP2XFUSMS4AZDFAL","","null","<img src=""img/food5.png"" style=""width:200px; border:14px solid green;"">","null","","","","","","","","","",""
"","image-keyboard-response","94","275959","0.0-138.0","3EWIJTFFVPTA5HW56M3XAHRFWH0E0N","A16ENVVHDK1LQQ","3S1L4CQSFXRWQOWP2XFUSMS4AZDFAL","","74","img/food2.png","74","76","1","0","false","3","2","1,0.7,0,1,0.7,0,0.7,0,1","0.7,0,1,0.7,0,1,0,1,0.7","2",""
"","html-keyboard-response","95","276263","0.0-139.0","3EWIJTFFVPTA5HW56M3XAHRFWH0E0N","A16ENVVHDK1LQQ","3S1L4CQSFXRWQOWP2XFUSMS4AZDFAL","","null","<img src=""img/food2.png"" style=""width:200px;border:14px solid red;"">","null","","","","","","","","","",""
"","image-keyboard-response","96","276282","0.0-141.0","3EWIJTFFVPTA5HW56M3XAHRFWH0E0N","A16ENVVHDK1LQQ","3S1L4CQSFXRWQOWP2XFUSMS4AZDFAL","","16","img/food4.png","74","18","1","1","false","2","2","1,0.7,0,1,0.7,0,0.7,0,1","0.7,0,1,0.7,0,1,0,1,0.7","2",""
"","html-keyboard-response","97","276583","0.0-142.0","3EWIJTFFVPTA5HW56M3XAHRFWH0E0N","A16ENVVHDK1LQQ","3S1L4CQSFXRWQOWP2XFUSMS4AZDFAL","","null","<img src=""img/food4.png"" style=""width:200px; border:14px solid green;"">","null","","","","","","","","","",""
"","image-keyboard-response","98","276619","0.0-144.0","3EWIJTFFVPTA5HW56M3XAHRFWH0E0N","A16ENVVHDK1LQQ","3S1L4CQSFXRWQOWP2XFUSMS4AZDFAL","","33","img/food2.png","74","34","1","0","false","3","2","1,0.7,0,1,0.7,0,0.7,0,1","0.7,0,1,0.7,0,1,0,1,0.7","2",""
"","html-keyboard-response","99","276922","0.0-145.0","3EWIJTFFVPTA5HW56M3XAHRFWH0E0N","A16ENVVHDK1LQQ","3S1L4CQSFXRWQOWP2XFUSMS4AZDFAL","","null","<img src=""img/food2.png"" style=""width:200px;border:14px solid red;"">","null","","","","","","","","","",""
"","image-keyboard-response","100","276989","0.0-147.0","3EWIJTFFVPTA5HW56M3XAHRFWH0E0N","A16ENVVHDK1LQQ","3S1L4CQSFXRWQOWP2XFUSMS4AZDFAL","","63","img/food4.png","74","64","1","1","false","2","2","1,0.7,0,1,0.7,0,0.7,0,1","0.7,0,1,0.7,0,1,0,1,0.7","2",""
"","html-keyboard-response","101","277292","0.0-148.0","3EWIJTFFVPTA5HW56M3XAHRFWH0E0N","A16ENVVHDK1LQQ","3S1L4CQSFXRWQOWP2XFUSMS4AZDFAL","","null","<img src=""img/food4.png"" style=""width:200px; border:14px solid green;"">","null","","","","","","","","","",""
"","image-keyboard-response","102","277303","0.0-150.0","3EWIJTFFVPTA5HW56M3XAHRFWH0E0N","A16ENVVHDK1LQQ","3S1L4CQSFXRWQOWP2XFUSMS4AZDFAL","","2","img/food2.png","74","7","1","0","false","3","2","1,0.7,0,1,0.7,0,0.7,0,1","0.7,0,1,0.7,0,1,0,1,0.7","2",""
"","html-keyboard-response","103","277606","0.0-151.0","3EWIJTFFVPTA5HW56M3XAHRFWH0E0N","A16ENVVHDK1LQQ","3S1L4CQSFXRWQOWP2XFUSMS4AZDFAL","","null","<img src=""img/food2.png"" style=""width:200px;border:14px solid red;"">","null","","","","","","","","","",""
"","image-keyboard-response","104","277644","0.0-153.0","3EWIJTFFVPTA5HW56M3XAHRFWH0E0N","A16ENVVHDK1LQQ","3S1L4CQSFXRWQOWP2XFUSMS4AZDFAL","","35","img/food5.png","74","37","1","1","false","1","2","1,0.7,0,1,0.7,0,0.7,0,1","0.7,0,1,0.7,0,1,0,1,0.7","2",""
"","html-keyboard-response","105","277947","0.0-154.0","3EWIJTFFVPTA5HW56M3XAHRFWH0E0N","A16ENVVHDK1LQQ","3S1L4CQSFXRWQOWP2XFUSMS4AZDFAL","","null","<img src=""img/food5.png"" style=""width:200px; border:14px solid green;"">","null","","","","","","","","","",""
"","image-keyboard-response","106","278008","0.0-156.0","3EWIJTFFVPTA5HW56M3XAHRFWH0E0N","A16ENVVHDK1LQQ","3S1L4CQSFXRWQOWP2XFUSMS4AZDFAL","","59","img/food2.png","74","61","1","0","false","3","2","1,0.7,0,1,0.7,0,0.7,0,1","0.7,0,1,0.7,0,1,0,1,0.7","2",""
"","html-keyboard-response","107","278312","0.0-157.0","3EWIJTFFVPTA5HW56M3XAHRFWH0E0N","A16ENVVHDK1LQQ","3S1L4CQSFXRWQOWP2XFUSMS4AZDFAL","","null","<img src=""img/food2.png"" style=""width:200px;border:14px solid red;"">","null","","","","","","","","","",""
"","image-keyboard-response","108","278410","0.0-159.0","3EWIJTFFVPTA5HW56M3XAHRFWH0E0N","A16ENVVHDK1LQQ","3S1L4CQSFXRWQOWP2XFUSMS4AZDFAL","","95","img/food5.png","76","97","3","1","false","1","2","1,0.7,0,1,0.7,0,0.7,0,1","0.7,0,1,0.7,0,1,0,1,0.7","2",""
"","html-keyboard-response","109","278712","0.0-160.0","3EWIJTFFVPTA5HW56M3XAHRFWH0E0N","A16ENVVHDK1LQQ","3S1L4CQSFXRWQOWP2XFUSMS4AZDFAL","","null","<img src=""img/food5.png"" style=""width:200px; border:14px solid green;"">","null","","","","","","","","","",""
"","image-keyboard-response","110","278769","0.0-162.0","3EWIJTFFVPTA5HW56M3XAHRFWH0E0N","A16ENVVHDK1LQQ","3S1L4CQSFXRWQOWP2XFUSMS4AZDFAL","","53","img/food5.png","76","54","3","1","false","1","2","1,0.7,0,1,0.7,0,0.7,0,1","0.7,0,1,0.7,0,1,0,1,0.7","2",""
"","html-keyboard-response","111","279071","0.0-163.0","3EWIJTFFVPTA5HW56M3XAHRFWH0E0N","A16ENVVHDK1LQQ","3S1L4CQSFXRWQOWP2XFUSMS4AZDFAL","","null","<img src=""img/food5.png"" style=""width:200px; border:14px solid green;"">","null","","","","","","","","","",""
"","image-keyboard-response","112","279210","0.0-165.0","3EWIJTFFVPTA5HW56M3XAHRFWH0E0N","A16ENVVHDK1LQQ","3S1L4CQSFXRWQOWP2XFUSMS4AZDFAL","","135","img/food5.png","74","137","1","1","false","1","2","1,0.7,0,1,0.7,0,0.7,0,1","0.7,0,1,0.7,0,1,0,1,0.7","2",""
"","html-keyboard-response","113","279513","0.0-166.0","3EWIJTFFVPTA5HW56M3XAHRFWH0E0N","A16ENVVHDK1LQQ","3S1L4CQSFXRWQOWP2XFUSMS4AZDFAL","","null","<img src=""img/food5.png"" style=""width:200px; border:14px solid green;"">","null","","","","","","","","","",""
"","image-keyboard-response","114","279563","0.0-168.0","3EWIJTFFVPTA5HW56M3XAHRFWH0E0N","A16ENVVHDK1LQQ","3S1L4CQSFXRWQOWP2XFUSMS4AZDFAL","","46","img/food2.png","74","48","1","0","false","3","2","1,0.7,0,1,0.7,0,0.7,0,1","0.7,0,1,0.7,0,1,0,1,0.7","2",""
"","html-keyboard-response","115","279864","0.0-169.0","3EWIJTFFVPTA5HW56M3XAHRFWH0E0N","A16ENVVHDK1LQQ","3S1L4CQSFXRWQOWP2XFUSMS4AZDFAL","","null","<img src=""img/food2.png"" style=""width:200px;border:14px solid red;"">","null","","","","","","","","","",""
"","image-keyboard-response","116","279909","0.0-171.0","3EWIJTFFVPTA5HW56M3XAHRFWH0E0N","A16ENVVHDK1LQQ","3S1L4CQSFXRWQOWP2XFUSMS4AZDFAL","","40","img/food2.png","74","43","1","0","false","3","2","1,0.7,0,1,0.7,0,0.7,0,1","0.7,0,1,0.7,0,1,0,1,0.7","2",""
"","html-keyboard-response","117","280212","0.0-172.0","3EWIJTFFVPTA5HW56M3XAHRFWH0E0N","A16ENVVHDK1LQQ","3S1L4CQSFXRWQOWP2XFUSMS4AZDFAL","","null","<img src=""img/food2.png"" style=""width:200px;border:14px solid red;"">","null","","","","","","","","","",""
"","image-keyboard-response","118","280300","0.0-174.0","3EWIJTFFVPTA5HW56M3XAHRFWH0E0N","A16ENVVHDK1LQQ","3S1L4CQSFXRWQOWP2XFUSMS4AZDFAL","","85","img/food4.png","74","87","1","1","false","2","2","1,0.7,0,1,0.7,0,0.7,0,1","0.7,0,1,0.7,0,1,0,1,0.7","2",""
"","html-keyboard-response","119","280602","0.0-175.0","3EWIJTFFVPTA5HW56M3XAHRFWH0E0N","A16ENVVHDK1LQQ","3S1L4CQSFXRWQOWP2XFUSMS4AZDFAL","","null","<img src=""img/food4.png"" style=""width:200px; border:14px solid green;"">","null","","","","","","","","","",""
"","image-keyboard-response","120","280679","0.0-177.0","3EWIJTFFVPTA5HW56M3XAHRFWH0E0N","A16ENVVHDK1LQQ","3S1L4CQSFXRWQOWP2XFUSMS4AZDFAL","","73","img/food4.png","74","75","1","1","false","2","2","1,0.7,0,1,0.7,0,0.7,0,1","0.7,0,1,0.7,0,1,0,1,0.7","2",""
"","html-keyboard-response","121","280981","0.0-178.0","3EWIJTFFVPTA5HW56M3XAHRFWH0E0N","A16ENVVHDK1LQQ","3S1L4CQSFXRWQOWP2XFUSMS4AZDFAL","","null","<img src=""img/food4.png"" style=""width:200px; border:14px solid green;"">","null","","","","","","","","","",""
"","image-keyboard-response","122","281040","0.0-180.0","3EWIJTFFVPTA5HW56M3XAHRFWH0E0N","A16ENVVHDK1LQQ","3S1L4CQSFXRWQOWP2XFUSMS4AZDFAL","","55","img/food2.png","74","57","1","0","false","3","2","1,0.7,0,1,0.7,0,0.7,0,1","0.7,0,1,0.7,0,1,0,1,0.7","2",""
"","html-keyboard-response","123","281343","0.0-181.0","3EWIJTFFVPTA5HW56M3XAHRFWH0E0N","A16ENVVHDK1LQQ","3S1L4CQSFXRWQOWP2XFUSMS4AZDFAL","","null","<img src=""img/food2.png"" style=""width:200px;border:14px solid red;"">","null","","","","","","","","","",""
"","image-keyboard-response","124","281466","0.0-183.0","3EWIJTFFVPTA5HW56M3XAHRFWH0E0N","A16ENVVHDK1LQQ","3S1L4CQSFXRWQOWP2XFUSMS4AZDFAL","","119","img/food2.png","74","121","1","0","false","3","2","1,0.7,0,1,0.7,0,0.7,0,1","0.7,0,1,0.7,0,1,0,1,0.7","2",""
"","html-keyboard-response","125","281770","0.0-184.0","3EWIJTFFVPTA5HW56M3XAHRFWH0E0N","A16ENVVHDK1LQQ","3S1L4CQSFXRWQOWP2XFUSMS4AZDFAL","","null","<img src=""img/food2.png"" style=""width:200px;border:14px solid red;"">","null","","","","","","","","","",""
"","image-keyboard-response","126","281954","0.0-186.0","3EWIJTFFVPTA5HW56M3XAHRFWH0E0N","A16ENVVHDK1LQQ","3S1L4CQSFXRWQOWP2XFUSMS4AZDFAL","","182","img/food5.png","74","183","1","1","false","1","2","1,0.7,0,1,0.7,0,0.7,0,1","0.7,0,1,0.7,0,1,0,1,0.7","2",""
"","html-keyboard-response","127","282256","0.0-187.0","3EWIJTFFVPTA5HW56M3XAHRFWH0E0N","A16ENVVHDK1LQQ","3S1L4CQSFXRWQOWP2XFUSMS4AZDFAL","","null","<img src=""img/food5.png"" style=""width:200px; border:14px solid green;"">","null","","","","","","","","","",""
"","image-keyboard-response","128","282319","0.0-189.0","3EWIJTFFVPTA5HW56M3XAHRFWH0E0N","A16ENVVHDK1LQQ","3S1L4CQSFXRWQOWP2XFUSMS4AZDFAL","","59","img/food4.png","74","62","1","1","false","2","2","1,0.7,0,1,0.7,0,0.7,0,1","0.7,0,1,0.7,0,1,0,1,0.7","2",""
"","html-keyboard-response","129","282620","0.0-190.0","3EWIJTFFVPTA5HW56M3XAHRFWH0E0N","A16ENVVHDK1LQQ","3S1L4CQSFXRWQOWP2XFUSMS4AZDFAL","","null","<img src=""img/food4.png"" style=""width:200px; border:14px solid green;"">","null","","","","","","","","","",""
"","image-keyboard-response","130","282680","0.0-192.0","3EWIJTFFVPTA5HW56M3XAHRFWH0E0N","A16ENVVHDK1LQQ","3S1L4CQSFXRWQOWP2XFUSMS4AZDFAL","","57","img/food4.png","74","58","1","1","false","2","2","1,0.7,0,1,0.7,0,0.7,0,1","0.7,0,1,0.7,0,1,0,1,0.7","2",""
"","html-keyboard-response","131","282983","0.0-193.0","3EWIJTFFVPTA5HW56M3XAHRFWH0E0N","A16ENVVHDK1LQQ","3S1L4CQSFXRWQOWP2XFUSMS4AZDFAL","","null","<img src=""img/food4.png"" style=""width:200px; border:14px solid green;"">","null","","","","","","","","","",""
"","image-keyboard-response","132","283021","0.0-195.0","3EWIJTFFVPTA5HW56M3XAHRFWH0E0N","A16ENVVHDK1LQQ","3S1L4CQSFXRWQOWP2XFUSMS4AZDFAL","","36","img/food5.png","74","38","1","0","false","1","2","1,0.7,0,1,0.7,0,0.7,0,1","0.7,0,1,0.7,0,1,0,1,0.7","2",""
"","html-keyboard-response","133","283324","0.0-196.0","3EWIJTFFVPTA5HW56M3XAHRFWH0E0N","A16ENVVHDK1LQQ","3S1L4CQSFXRWQOWP2XFUSMS4AZDFAL","","null","<img src=""img/food5.png"" style=""width:200px;border:14px solid red;"">","null","","","","","","","","","",""
"","image-keyboard-response","134","283419","0.0-198.0","3EWIJTFFVPTA5HW56M3XAHRFWH0E0N","A16ENVVHDK1LQQ","3S1L4CQSFXRWQOWP2XFUSMS4AZDFAL","","91","img/food5.png","76","93","3","1","false","1","2","1,0.7,0,1,0.7,0,0.7,0,1","0.7,0,1,0.7,0,1,0,1,0.7","2",""
"","html-keyboard-response","135","283722","0.0-199.0","3EWIJTFFVPTA5HW56M3XAHRFWH0E0N","A16ENVVHDK1LQQ","3S1L4CQSFXRWQOWP2XFUSMS4AZDFAL","","null","<img src=""img/food5.png"" style=""width:200px; border:14px solid green;"">","null","","","","","","","","","",""
"","image-keyboard-response","136","283871","0.0-201.0","3EWIJTFFVPTA5HW56M3XAHRFWH0E0N","A16ENVVHDK1LQQ","3S1L4CQSFXRWQOWP2XFUSMS4AZDFAL","","146","img/food4.png","76","148","3","1","false","2","2","1,0.7,0,1,0.7,0,0.7,0,1","0.7,0,1,0.7,0,1,0,1,0.7","2",""
"","html-keyboard-response","137","284174","0.0-202.0","3EWIJTFFVPTA5HW56M3XAHRFWH0E0N","A16ENVVHDK1LQQ","3S1L4CQSFXRWQOWP2XFUSMS4AZDFAL","","null","<img src=""img/food4.png"" style=""width:200px; border:14px solid green;"">","null","","","","","","","","","",""
"","image-keyboard-response","138","284220","0.0-204.0","3EWIJTFFVPTA5HW56M3XAHRFWH0E0N","A16ENVVHDK1LQQ","3S1L4CQSFXRWQOWP2XFUSMS4AZDFAL","","43","img/food4.png","74","45","1","0","false","2","2","1,0.7,0,1,0.7,0,0.7,0,1","0.7,0,1,0.7,0,1,0,1,0.7","2",""
"","html-keyboard-response","139","284523","0.0-205.0","3EWIJTFFVPTA5HW56M3XAHRFWH0E0N","A16ENVVHDK1LQQ","3S1L4CQSFXRWQOWP2XFUSMS4AZDFAL","","null","<img src=""img/food4.png"" style=""width:200px;border:14px solid red;"">","null","","","","","","","","","",""
"","image-keyboard-response","140","284689","0.0-207.0","3EWIJTFFVPTA5HW56M3XAHRFWH0E0N","A16ENVVHDK1LQQ","3S1L4CQSFXRWQOWP2XFUSMS4AZDFAL","","163","img/food2.png","74","165","1","0","false","3","2","1,0.7,0,1,0.7,0,0.7,0,1","0.7,0,1,0.7,0,1,0,1,0.7","2",""
"","html-keyboard-response","141","284991","0.0-208.0","3EWIJTFFVPTA5HW56M3XAHRFWH0E0N","A16ENVVHDK1LQQ","3S1L4CQSFXRWQOWP2XFUSMS4AZDFAL","","null","<img src=""img/food2.png"" style=""width:200px;border:14px solid red;"">","null","","","","","","","","","",""
"","image-keyboard-response","142","285110","0.0-210.0","3EWIJTFFVPTA5HW56M3XAHRFWH0E0N","A16ENVVHDK1LQQ","3S1L4CQSFXRWQOWP2XFUSMS4AZDFAL","","117","img/food2.png","76","119","3","1","false","3","2","1,0.7,0,1,0.7,0,0.7,0,1","0.7,0,1,0.7,0,1,0,1,0.7","2",""
"","html-keyboard-response","143","285412","0.0-211.0","3EWIJTFFVPTA5HW56M3XAHRFWH0E0N","A16ENVVHDK1LQQ","3S1L4CQSFXRWQOWP2XFUSMS4AZDFAL","","null","<img src=""img/food2.png"" style=""width:200px; border:14px solid green;"">","null","","","","","","","","","",""
"","image-keyboard-response","144","285498","0.0-213.0","3EWIJTFFVPTA5HW56M3XAHRFWH0E0N","A16ENVVHDK1LQQ","3S1L4CQSFXRWQOWP2XFUSMS4AZDFAL","","84","img/food2.png","74","86","1","0","false","3","2","1,0.7,0,1,0.7,0,0.7,0,1","0.7,0,1,0.7,0,1,0,1,0.7","2",""
"","html-keyboard-response","145","285801","0.0-214.0","3EWIJTFFVPTA5HW56M3XAHRFWH0E0N","A16ENVVHDK1LQQ","3S1L4CQSFXRWQOWP2XFUSMS4AZDFAL","","null","<img src=""img/food2.png"" style=""width:200px;border:14px solid red;"">","null","","","","","","","","","",""
"","image-keyboard-response","146","285805","0.0-216.0","3EWIJTFFVPTA5HW56M3XAHRFWH0E0N","A16ENVVHDK1LQQ","3S1L4CQSFXRWQOWP2XFUSMS4AZDFAL","","1","img/food4.png","76","2","3","1","false","2","2","1,0.7,0,1,0.7,0,0.7,0,1","0.7,0,1,0.7,0,1,0,1,0.7","2",""
"","html-keyboard-response","147","286107","0.0-217.0","3EWIJTFFVPTA5HW56M3XAHRFWH0E0N","A16ENVVHDK1LQQ","3S1L4CQSFXRWQOWP2XFUSMS4AZDFAL","","null","<img src=""img/food4.png"" style=""width:200px; border:14px solid green;"">","null","","","","","","","","","",""
"","image-keyboard-response","148","286139","0.0-219.0","3EWIJTFFVPTA5HW56M3XAHRFWH0E0N","A16ENVVHDK1LQQ","3S1L4CQSFXRWQOWP2XFUSMS4AZDFAL","","30","img/food2.png","76","31","3","0","false","3","2","1,0.7,0,1,0.7,0,0.7,0,1","0.7,0,1,0.7,0,1,0,1,0.7","2",""
"","html-keyboard-response","149","286442","0.0-220.0","3EWIJTFFVPTA5HW56M3XAHRFWH0E0N","A16ENVVHDK1LQQ","3S1L4CQSFXRWQOWP2XFUSMS4AZDFAL","","null","<img src=""img/food2.png"" style=""width:200px;border:14px solid red;"">","null","","","","","","","","","",""
"","image-keyboard-response","150","286450","0.0-222.0","3EWIJTFFVPTA5HW56M3XAHRFWH0E0N","A16ENVVHDK1LQQ","3S1L4CQSFXRWQOWP2XFUSMS4AZDFAL","","6","img/food2.png","75","7","2","1","false","3","2","1,0.7,0,1,0.7,0,0.7,0,1","0.7,0,1,0.7,0,1,0,1,0.7","2",""
"","html-keyboard-response","151","286752","0.0-223.0","3EWIJTFFVPTA5HW56M3XAHRFWH0E0N","A16ENVVHDK1LQQ","3S1L4CQSFXRWQOWP2XFUSMS4AZDFAL","","null","<img src=""img/food2.png"" style=""width:200px; border:14px solid green;"">","null","","","","","","","","","",""
"","image-keyboard-response","152","286839","0.0-225.0","3EWIJTFFVPTA5HW56M3XAHRFWH0E0N","A16ENVVHDK1LQQ","3S1L4CQSFXRWQOWP2XFUSMS4AZDFAL","","84","img/food5.png","76","85","3","1","false","1","2","1,0.7,0,1,0.7,0,0.7,0,1","0.7,0,1,0.7,0,1,0,1,0.7","2",""
"","html-keyboard-response","153","287143","0.0-226.0","3EWIJTFFVPTA5HW56M3XAHRFWH0E0N","A16ENVVHDK1LQQ","3S1L4CQSFXRWQOWP2XFUSMS4AZDFAL","","null","<img src=""img/food5.png"" style=""width:200px; border:14px solid green;"">","null","","","","","","","","","",""
"","image-keyboard-response","154","287230","0.0-228.0","3EWIJTFFVPTA5HW56M3XAHRFWH0E0N","A16ENVVHDK1LQQ","3S1L4CQSFXRWQOWP2XFUSMS4AZDFAL","","85","img/food4.png","76","87","3","1","false","2","2","1,0.7,0,1,0.7,0,0.7,0,1","0.7,0,1,0.7,0,1,0,1,0.7","2",""
"","html-keyboard-response","155","287535","0.0-229.0","3EWIJTFFVPTA5HW56M3XAHRFWH0E0N","A16ENVVHDK1LQQ","3S1L4CQSFXRWQOWP2XFUSMS4AZDFAL","","null","<img src=""img/food4.png"" style=""width:200px; border:14px solid green;"">","null","","","","","","","","","",""
"","image-keyboard-response","156","287679","0.0-231.0","3EWIJTFFVPTA5HW56M3XAHRFWH0E0N","A16ENVVHDK1LQQ","3S1L4CQSFXRWQOWP2XFUSMS4AZDFAL","","136","img/food5.png","76","142","3","1","false","1","2","1,0.7,0,1,0.7,0,0.7,0,1","0.7,0,1,0.7,0,1,0,1,0.7","2",""
"","html-keyboard-response","157","287983","0.0-232.0","3EWIJTFFVPTA5HW56M3XAHRFWH0E0N","A16ENVVHDK1LQQ","3S1L4CQSFXRWQOWP2XFUSMS4AZDFAL","","null","<img src=""img/food5.png"" style=""width:200px; border:14px solid green;"">","null","","","","","","","","","",""
"","image-keyboard-response","158","288038","0.0-234.0","3EWIJTFFVPTA5HW56M3XAHRFWH0E0N","A16ENVVHDK1LQQ","3S1L4CQSFXRWQOWP2XFUSMS4AZDFAL","","52","img/food4.png","76","55","3","1","false","2","2","1,0.7,0,1,0.7,0,0.7,0,1","0.7,0,1,0.7,0,1,0,1,0.7","2",""
"","html-keyboard-response","159","288341","0.0-235.0","3EWIJTFFVPTA5HW56M3XAHRFWH0E0N","A16ENVVHDK1LQQ","3S1L4CQSFXRWQOWP2XFUSMS4AZDFAL","","null","<img src=""img/food4.png"" style=""width:200px; border:14px solid green;"">","null","","","","","","","","","",""
"","image-keyboard-response","160","288530","0.0-237.0","3EWIJTFFVPTA5HW56M3XAHRFWH0E0N","A16ENVVHDK1LQQ","3S1L4CQSFXRWQOWP2XFUSMS4AZDFAL","","186","img/food5.png","76","188","3","1","false","1","2","1,0.7,0,1,0.7,0,0.7,0,1","0.7,0,1,0.7,0,1,0,1,0.7","2",""
"","html-keyboard-response","161","288832","0.0-238.0","3EWIJTFFVPTA5HW56M3XAHRFWH0E0N","A16ENVVHDK1LQQ","3S1L4CQSFXRWQOWP2XFUSMS4AZDFAL","","null","<img src=""img/food5.png"" style=""width:200px; border:14px solid green;"">","null","","","","","","","","","",""
"","image-keyboard-response","162","288928","0.0-240.0","3EWIJTFFVPTA5HW56M3XAHRFWH0E0N","A16ENVVHDK1LQQ","3S1L4CQSFXRWQOWP2XFUSMS4AZDFAL","","94","img/food4.png","76","96","3","1","false","2","2","1,0.7,0,1,0.7,0,0.7,0,1","0.7,0,1,0.7,0,1,0,1,0.7","2",""
"","html-keyboard-response","163","289230","0.0-241.0","3EWIJTFFVPTA5HW56M3XAHRFWH0E0N","A16ENVVHDK1LQQ","3S1L4CQSFXRWQOWP2XFUSMS4AZDFAL","","null","<img src=""img/food4.png"" style=""width:200px; border:14px solid green;"">","null","","","","","","","","","",""
"","image-keyboard-response","164","289380","0.0-243.0","3EWIJTFFVPTA5HW56M3XAHRFWH0E0N","A16ENVVHDK1LQQ","3S1L4CQSFXRWQOWP2XFUSMS4AZDFAL","","146","img/food2.png","76","148","3","0","false","3","2","1,0.7,0,1,0.7,0,0.7,0,1","0.7,0,1,0.7,0,1,0,1,0.7","2",""
"","html-keyboard-response","165","289683","0.0-244.0","3EWIJTFFVPTA5HW56M3XAHRFWH0E0N","A16ENVVHDK1LQQ","3S1L4CQSFXRWQOWP2XFUSMS4AZDFAL","","null","<img src=""img/food2.png"" style=""width:200px;border:14px solid red;"">","null","","","","","","","","","",""
"","image-keyboard-response","166","289811","0.0-246.0","3EWIJTFFVPTA5HW56M3XAHRFWH0E0N","A16ENVVHDK1LQQ","3S1L4CQSFXRWQOWP2XFUSMS4AZDFAL","","125","img/food4.png","76","127","3","1","false","2","2","1,0.7,0,1,0.7,0,0.7,0,1","0.7,0,1,0.7,0,1,0,1,0.7","2",""
"","html-keyboard-response","167","290113","0.0-247.0","3EWIJTFFVPTA5HW56M3XAHRFWH0E0N","A16ENVVHDK1LQQ","3S1L4CQSFXRWQOWP2XFUSMS4AZDFAL","","null","<img src=""img/food4.png"" style=""width:200px; border:14px solid green;"">","null","","","","","","","","","",""
"","image-keyboard-response","168","290251","0.0-249.0","3EWIJTFFVPTA5HW56M3XAHRFWH0E0N","A16ENVVHDK1LQQ","3S1L4CQSFXRWQOWP2XFUSMS4AZDFAL","","135","img/food2.png","76","137","3","0","false","3","2","1,0.7,0,1,0.7,0,0.7,0,1","0.7,0,1,0.7,0,1,0,1,0.7","2",""
"","html-keyboard-response","169","290553","0.0-250.0","3EWIJTFFVPTA5HW56M3XAHRFWH0E0N","A16ENVVHDK1LQQ","3S1L4CQSFXRWQOWP2XFUSMS4AZDFAL","","null","<img src=""img/food2.png"" style=""width:200px;border:14px solid red;"">","null","","","","","","","","","",""
"","image-keyboard-response","170","290620","0.0-252.0","3EWIJTFFVPTA5HW56M3XAHRFWH0E0N","A16ENVVHDK1LQQ","3S1L4CQSFXRWQOWP2XFUSMS4AZDFAL","","65","img/food2.png","76","66","3","0","false","3","2","1,0.7,0,1,0.7,0,0.7,0,1","0.7,0,1,0.7,0,1,0,1,0.7","2",""
"","html-keyboard-response","171","290922","0.0-253.0","3EWIJTFFVPTA5HW56M3XAHRFWH0E0N","A16ENVVHDK1LQQ","3S1L4CQSFXRWQOWP2XFUSMS4AZDFAL","","null","<img src=""img/food2.png"" style=""width:200px;border:14px solid red;"">","null","","","","","","","","","",""
"","image-keyboard-response","172","291094","0.0-255.0","3EWIJTFFVPTA5HW56M3XAHRFWH0E0N","A16ENVVHDK1LQQ","3S1L4CQSFXRWQOWP2XFUSMS4AZDFAL","","169","img/food4.png","76","171","3","1","false","2","2","1,0.7,0,1,0.7,0,0.7,0,1","0.7,0,1,0.7,0,1,0,1,0.7","2",""
"","html-keyboard-response","173","291398","0.0-256.0","3EWIJTFFVPTA5HW56M3XAHRFWH0E0N","A16ENVVHDK1LQQ","3S1L4CQSFXRWQOWP2XFUSMS4AZDFAL","","null","<img src=""img/food4.png"" style=""width:200px; border:14px solid green;"">","null","","","","","","","","","",""
"","image-keyboard-response","174","291476","0.0-258.0","3EWIJTFFVPTA5HW56M3XAHRFWH0E0N","A16ENVVHDK1LQQ","3S1L4CQSFXRWQOWP2XFUSMS4AZDFAL","","75","img/food4.png","76","76","3","1","false","2","2","1,0.7,0,1,0.7,0,0.7,0,1","0.7,0,1,0.7,0,1,0,1,0.7","2",""
"","html-keyboard-response","175","291778","0.0-259.0","3EWIJTFFVPTA5HW56M3XAHRFWH0E0N","A16ENVVHDK1LQQ","3S1L4CQSFXRWQOWP2XFUSMS4AZDFAL","","null","<img src=""img/food4.png"" style=""width:200px; border:14px solid green;"">","null","","","","","","","","","",""
"","image-keyboard-response","176","291831","0.0-261.0","3EWIJTFFVPTA5HW56M3XAHRFWH0E0N","A16ENVVHDK1LQQ","3S1L4CQSFXRWQOWP2XFUSMS4AZDFAL","","50","img/food2.png","74","52","1","0","false","3","2","1,0.7,0,1,0.7,0,0.7,0,1","0.7,0,1,0.7,0,1,0,1,0.7","2",""
"","html-keyboard-response","177","292135","0.0-262.0","3EWIJTFFVPTA5HW56M3XAHRFWH0E0N","A16ENVVHDK1LQQ","3S1L4CQSFXRWQOWP2XFUSMS4AZDFAL","","null","<img src=""img/food2.png"" style=""width:200px;border:14px solid red;"">","null","","","","","","","","","",""
"","image-keyboard-response","178","292220","0.0-264.0","3EWIJTFFVPTA5HW56M3XAHRFWH0E0N","A16ENVVHDK1LQQ","3S1L4CQSFXRWQOWP2XFUSMS4AZDFAL","","82","img/food5.png","76","84","3","1","false","1","2","1,0.7,0,1,0.7,0,0.7,0,1","0.7,0,1,0.7,0,1,0,1,0.7","2",""
"","html-keyboard-response","179","292523","0.0-265.0","3EWIJTFFVPTA5HW56M3XAHRFWH0E0N","A16ENVVHDK1LQQ","3S1L4CQSFXRWQOWP2XFUSMS4AZDFAL","","null","<img src=""img/food5.png"" style=""width:200px; border:14px solid green;"">","null","","","","","","","","","",""
"","image-keyboard-response","180","292659","0.0-267.0","3EWIJTFFVPTA5HW56M3XAHRFWH0E0N","A16ENVVHDK1LQQ","3S1L4CQSFXRWQOWP2XFUSMS4AZDFAL","","133","img/food2.png","74","134","1","0","false","3","2","1,0.7,0,1,0.7,0,0.7,0,1","0.7,0,1,0.7,0,1,0,1,0.7","2",""
"","html-keyboard-response","181","292961","0.0-268.0","3EWIJTFFVPTA5HW56M3XAHRFWH0E0N","A16ENVVHDK1LQQ","3S1L4CQSFXRWQOWP2XFUSMS4AZDFAL","","null","<img src=""img/food2.png"" style=""width:200px;border:14px solid red;"">","null","","","","","","","","","",""
"","image-keyboard-response","182","293071","0.0-270.0","3EWIJTFFVPTA5HW56M3XAHRFWH0E0N","A16ENVVHDK1LQQ","3S1L4CQSFXRWQOWP2XFUSMS4AZDFAL","","108","img/food5.png","76","110","3","1","false","1","2","1,0.7,0,1,0.7,0,0.7,0,1","0.7,0,1,0.7,0,1,0,1,0.7","2",""
"","html-keyboard-response","183","293374","0.0-271.0","3EWIJTFFVPTA5HW56M3XAHRFWH0E0N","A16ENVVHDK1LQQ","3S1L4CQSFXRWQOWP2XFUSMS4AZDFAL","","null","<img src=""img/food5.png"" style=""width:200px; border:14px solid green;"">","null","","","","","","","","","",""
"","instructions","184","301861","0.0-273.0","3EWIJTFFVPTA5HW56M3XAHRFWH0E0N","A16ENVVHDK1LQQ","3S1L4CQSFXRWQOWP2XFUSMS4AZDFAL","[{""page_index"":0,""viewing_time"":4534},{""page_index"":1,""viewing_time"":3950}]","8485","","","","","","","","","","","",""
"","image-keyboard-response","185","302449","0.0-274.0","3EWIJTFFVPTA5HW56M3XAHRFWH0E0N","A16ENVVHDK1LQQ","3S1L4CQSFXRWQOWP2XFUSMS4AZDFAL","","583","img/food6.png","75","587","2","1","","3","1","1,0.7,0,1,0.7,0,0.7,0,1","0,1,0.7,0,1,0.7,1,0.7,0","3",""
"","html-keyboard-response","186","302753","0.0-275.0","3EWIJTFFVPTA5HW56M3XAHRFWH0E0N","A16ENVVHDK1LQQ","3S1L4CQSFXRWQOWP2XFUSMS4AZDFAL","","null","<img src=""img/food6.png"" style=""width:200px; border:14px solid green;"">","null","","","","","","","","","",""
"","image-keyboard-response","187","302788","0.0-276.0","3EWIJTFFVPTA5HW56M3XAHRFWH0E0N","A16ENVVHDK1LQQ","3S1L4CQSFXRWQOWP2XFUSMS4AZDFAL","","34","img/food6.png","74","35","1","1","","3","1","1,0.7,0,1,0.7,0,0.7,0,1","0,1,0.7,0,1,0.7,1,0.7,0","3",""
"","html-keyboard-response","188","303091","0.0-277.0","3EWIJTFFVPTA5HW56M3XAHRFWH0E0N","A16ENVVHDK1LQQ","3S1L4CQSFXRWQOWP2XFUSMS4AZDFAL","","null","<img src=""img/food6.png"" style=""width:200px; border:14px solid green;"">","null","","","","","","","","","",""
"","image-keyboard-response","189","303108","0.0-278.0","3EWIJTFFVPTA5HW56M3XAHRFWH0E0N","A16ENVVHDK1LQQ","3S1L4CQSFXRWQOWP2XFUSMS4AZDFAL","","14","img/food1.png","76","16","3","1","","1","1","1,0.7,0,1,0.7,0,0.7,0,1","0,1,0.7,0,1,0.7,1,0.7,0","3",""
"","html-keyboard-response","190","303409","0.0-279.0","3EWIJTFFVPTA5HW56M3XAHRFWH0E0N","A16ENVVHDK1LQQ","3S1L4CQSFXRWQOWP2XFUSMS4AZDFAL","","null","<img src=""img/food1.png"" style=""width:200px; border:14px solid green;"">","null","","","","","","","","","",""
"","image-keyboard-response","191","303519","0.0-280.0","3EWIJTFFVPTA5HW56M3XAHRFWH0E0N","A16ENVVHDK1LQQ","3S1L4CQSFXRWQOWP2XFUSMS4AZDFAL","","107","img/food3.png","76","109","3","1","","2","1","1,0.7,0,1,0.7,0,0.7,0,1","0,1,0.7,0,1,0.7,1,0.7,0","3",""
"","html-keyboard-response","192","303822","0.0-281.0","3EWIJTFFVPTA5HW56M3XAHRFWH0E0N","A16ENVVHDK1LQQ","3S1L4CQSFXRWQOWP2XFUSMS4AZDFAL","","null","<img src=""img/food3.png"" style=""width:200px; border:14px solid green;"">","null","","","","","","","","","",""
"","image-keyboard-response","193","303967","0.0-282.0","3EWIJTFFVPTA5HW56M3XAHRFWH0E0N","A16ENVVHDK1LQQ","3S1L4CQSFXRWQOWP2XFUSMS4AZDFAL","","143","img/food3.png","74","144","1","0","","2","1","1,0.7,0,1,0.7,0,0.7,0,1","0,1,0.7,0,1,0.7,1,0.7,0","3",""
"","html-keyboard-response","194","304270","0.0-283.0","3EWIJTFFVPTA5HW56M3XAHRFWH0E0N","A16ENVVHDK1LQQ","3S1L4CQSFXRWQOWP2XFUSMS4AZDFAL","","null","<img src=""img/food3.png"" style=""width:200px;border:14px solid red;"">","null","","","","","","","","","",""
"","image-keyboard-response","195","304289","0.0-284.0","3EWIJTFFVPTA5HW56M3XAHRFWH0E0N","A16ENVVHDK1LQQ","3S1L4CQSFXRWQOWP2XFUSMS4AZDFAL","","16","img/food6.png","76","18","3","0","","3","1","1,0.7,0,1,0.7,0,0.7,0,1","0,1,0.7,0,1,0.7,1,0.7,0","3",""
"","html-keyboard-response","196","304590","0.0-285.0","3EWIJTFFVPTA5HW56M3XAHRFWH0E0N","A16ENVVHDK1LQQ","3S1L4CQSFXRWQOWP2XFUSMS4AZDFAL","","null","<img src=""img/food6.png"" style=""width:200px;border:14px solid red;"">","null","","","","","","","","","",""
"","image-keyboard-response","197","304609","0.0-286.0","3EWIJTFFVPTA5HW56M3XAHRFWH0E0N","A16ENVVHDK1LQQ","3S1L4CQSFXRWQOWP2XFUSMS4AZDFAL","","16","img/food1.png","74","18","1","0","","1","1","1,0.7,0,1,0.7,0,0.7,0,1","0,1,0.7,0,1,0.7,1,0.7,0","3",""
"","html-keyboard-response","198","304910","0.0-287.0","3EWIJTFFVPTA5HW56M3XAHRFWH0E0N","A16ENVVHDK1LQQ","3S1L4CQSFXRWQOWP2XFUSMS4AZDFAL","","null","<img src=""img/food1.png"" style=""width:200px;border:14px solid red;"">","null","","","","","","","","","",""
"","image-keyboard-response","199","304929","0.0-288.0","3EWIJTFFVPTA5HW56M3XAHRFWH0E0N","A16ENVVHDK1LQQ","3S1L4CQSFXRWQOWP2XFUSMS4AZDFAL","","14","img/food6.png","74","17","1","1","","3","1","1,0.7,0,1,0.7,0,0.7,0,1","0,1,0.7,0,1,0.7,1,0.7,0","3",""
"","html-keyboard-response","200","305230","0.0-289.0","3EWIJTFFVPTA5HW56M3XAHRFWH0E0N","A16ENVVHDK1LQQ","3S1L4CQSFXRWQOWP2XFUSMS4AZDFAL","","null","<img src=""img/food6.png"" style=""width:200px; border:14px solid green;"">","null","","","","","","","","","",""
"","image-keyboard-response","201","305416","0.0-290.0","3EWIJTFFVPTA5HW56M3XAHRFWH0E0N","A16ENVVHDK1LQQ","3S1L4CQSFXRWQOWP2XFUSMS4AZDFAL","","184","img/food3.png","74","185","1","0","","2","1","1,0.7,0,1,0.7,0,0.7,0,1","0,1,0.7,0,1,0.7,1,0.7,0","3",""
"","html-keyboard-response","202","305719","0.0-291.0","3EWIJTFFVPTA5HW56M3XAHRFWH0E0N","A16ENVVHDK1LQQ","3S1L4CQSFXRWQOWP2XFUSMS4AZDFAL","","null","<img src=""img/food3.png"" style=""width:200px;border:14px solid red;"">","null","","","","","","","","","",""
"","image-keyboard-response","203","305759","0.0-292.0","3EWIJTFFVPTA5HW56M3XAHRFWH0E0N","A16ENVVHDK1LQQ","3S1L4CQSFXRWQOWP2XFUSMS4AZDFAL","","40","img/food6.png","74","40","1","1","","3","1","1,0.7,0,1,0.7,0,0.7,0,1","0,1,0.7,0,1,0.7,1,0.7,0","3",""
"","html-keyboard-response","204","306061","0.0-293.0","3EWIJTFFVPTA5HW56M3XAHRFWH0E0N","A16ENVVHDK1LQQ","3S1L4CQSFXRWQOWP2XFUSMS4AZDFAL","","null","<img src=""img/food6.png"" style=""width:200px; border:14px solid green;"">","null","","","","","","","","","",""
"","image-keyboard-response","205","306113","0.0-294.0","3EWIJTFFVPTA5HW56M3XAHRFWH0E0N","A16ENVVHDK1LQQ","3S1L4CQSFXRWQOWP2XFUSMS4AZDFAL","","50","img/food1.png","76","51","3","1","","1","1","1,0.7,0,1,0.7,0,0.7,0,1","0,1,0.7,0,1,0.7,1,0.7,0","3",""
"","html-keyboard-response","206","306414","0.0-295.0","3EWIJTFFVPTA5HW56M3XAHRFWH0E0N","A16ENVVHDK1LQQ","3S1L4CQSFXRWQOWP2XFUSMS4AZDFAL","","null","<img src=""img/food1.png"" style=""width:200px; border:14px solid green;"">","null","","","","","","","","","",""
"","image-keyboard-response","207","306478","0.0-296.0","3EWIJTFFVPTA5HW56M3XAHRFWH0E0N","A16ENVVHDK1LQQ","3S1L4CQSFXRWQOWP2XFUSMS4AZDFAL","","62","img/food6.png","76","64","3","0","","3","1","1,0.7,0,1,0.7,0,0.7,0,1","0,1,0.7,0,1,0.7,1,0.7,0","3",""
"","html-keyboard-response","208","306780","0.0-297.0","3EWIJTFFVPTA5HW56M3XAHRFWH0E0N","A16ENVVHDK1LQQ","3S1L4CQSFXRWQOWP2XFUSMS4AZDFAL","","null","<img src=""img/food6.png"" style=""width:200px;border:14px solid red;"">","null","","","","","","","","","",""
"","image-keyboard-response","209","306819","0.0-298.0","3EWIJTFFVPTA5HW56M3XAHRFWH0E0N","A16ENVVHDK1LQQ","3S1L4CQSFXRWQOWP2XFUSMS4AZDFAL","","37","img/food3.png","76","38","3","1","","2","1","1,0.7,0,1,0.7,0,0.7,0,1","0,1,0.7,0,1,0.7,1,0.7,0","3",""
"","html-keyboard-response","210","307123","0.0-299.0","3EWIJTFFVPTA5HW56M3XAHRFWH0E0N","A16ENVVHDK1LQQ","3S1L4CQSFXRWQOWP2XFUSMS4AZDFAL","","null","<img src=""img/food3.png"" style=""width:200px; border:14px solid green;"">","null","","","","","","","","","",""
"","image-keyboard-response","211","307170","0.0-300.0","3EWIJTFFVPTA5HW56M3XAHRFWH0E0N","A16ENVVHDK1LQQ","3S1L4CQSFXRWQOWP2XFUSMS4AZDFAL","","44","img/food3.png","76","46","3","0","","2","1","1,0.7,0,1,0.7,0,0.7,0,1","0,1,0.7,0,1,0.7,1,0.7,0","3",""
"","html-keyboard-response","212","307473","0.0-301.0","3EWIJTFFVPTA5HW56M3XAHRFWH0E0N","A16ENVVHDK1LQQ","3S1L4CQSFXRWQOWP2XFUSMS4AZDFAL","","null","<img src=""img/food3.png"" style=""width:200px;border:14px solid red;"">","null","","","","","","","","","",""
"","image-keyboard-response","213","307571","0.0-302.0","3EWIJTFFVPTA5HW56M3XAHRFWH0E0N","A16ENVVHDK1LQQ","3S1L4CQSFXRWQOWP2XFUSMS4AZDFAL","","95","img/food6.png","76","96","3","0","","3","1","1,0.7,0,1,0.7,0,0.7,0,1","0,1,0.7,0,1,0.7,1,0.7,0","3",""
"","html-keyboard-response","214","307875","0.0-303.0","3EWIJTFFVPTA5HW56M3XAHRFWH0E0N","A16ENVVHDK1LQQ","3S1L4CQSFXRWQOWP2XFUSMS4AZDFAL","","null","<img src=""img/food6.png"" style=""width:200px;border:14px solid red;"">","null","","","","","","","","","",""
"","image-keyboard-response","215","307878","0.0-304.0","3EWIJTFFVPTA5HW56M3XAHRFWH0E0N","A16ENVVHDK1LQQ","3S1L4CQSFXRWQOWP2XFUSMS4AZDFAL","","0","img/food1.png","74","1","1","0","","1","1","1,0.7,0,1,0.7,0,0.7,0,1","0,1,0.7,0,1,0.7,1,0.7,0","3",""
"","html-keyboard-response","216","308180","0.0-305.0","3EWIJTFFVPTA5HW56M3XAHRFWH0E0N","A16ENVVHDK1LQQ","3S1L4CQSFXRWQOWP2XFUSMS4AZDFAL","","null","<img src=""img/food1.png"" style=""width:200px;border:14px solid red;"">","null","","","","","","","","","",""
"","image-keyboard-response","217","308214","0.0-306.0","3EWIJTFFVPTA5HW56M3XAHRFWH0E0N","A16ENVVHDK1LQQ","3S1L4CQSFXRWQOWP2XFUSMS4AZDFAL","","32","img/food6.png","74","33","1","1","","3","1","1,0.7,0,1,0.7,0,0.7,0,1","0,1,0.7,0,1,0.7,1,0.7,0","3",""
"","html-keyboard-response","218","308517","0.0-307.0","3EWIJTFFVPTA5HW56M3XAHRFWH0E0N","A16ENVVHDK1LQQ","3S1L4CQSFXRWQOWP2XFUSMS4AZDFAL","","null","<img src=""img/food6.png"" style=""width:200px; border:14px solid green;"">","null","","","","","","","","","",""
"","image-keyboard-response","219","308598","0.0-308.0","3EWIJTFFVPTA5HW56M3XAHRFWH0E0N","A16ENVVHDK1LQQ","3S1L4CQSFXRWQOWP2XFUSMS4AZDFAL","","79","img/food3.png","74","81","1","0","","2","1","1,0.7,0,1,0.7,0,0.7,0,1","0,1,0.7,0,1,0.7,1,0.7,0","3",""
"","html-keyboard-response","220","308901","0.0-309.0","3EWIJTFFVPTA5HW56M3XAHRFWH0E0N","A16ENVVHDK1LQQ","3S1L4CQSFXRWQOWP2XFUSMS4AZDFAL","","null","<img src=""img/food3.png"" style=""width:200px;border:14px solid red;"">","null","","","","","","","","","",""
"","image-keyboard-response","221","308979","0.0-310.0","3EWIJTFFVPTA5HW56M3XAHRFWH0E0N","A16ENVVHDK1LQQ","3S1L4CQSFXRWQOWP2XFUSMS4AZDFAL","","73","img/food6.png","74","77","1","1","","3","1","1,0.7,0,1,0.7,0,0.7,0,1","0,1,0.7,0,1,0.7,1,0.7,0","3",""
"","html-keyboard-response","222","309282","0.0-311.0","3EWIJTFFVPTA5HW56M3XAHRFWH0E0N","A16ENVVHDK1LQQ","3S1L4CQSFXRWQOWP2XFUSMS4AZDFAL","","null","<img src=""img/food6.png"" style=""width:200px; border:14px solid green;"">","null","","","","","","","","","",""
"","image-keyboard-response","223","309305","0.0-312.0","3EWIJTFFVPTA5HW56M3XAHRFWH0E0N","A16ENVVHDK1LQQ","3S1L4CQSFXRWQOWP2XFUSMS4AZDFAL","","18","img/food6.png","76","21","3","0","","3","1","1,0.7,0,1,0.7,0,0.7,0,1","0,1,0.7,0,1,0.7,1,0.7,0","3",""
"","html-keyboard-response","224","309608","0.0-313.0","3EWIJTFFVPTA5HW56M3XAHRFWH0E0N","A16ENVVHDK1LQQ","3S1L4CQSFXRWQOWP2XFUSMS4AZDFAL","","null","<img src=""img/food6.png"" style=""width:200px;border:14px solid red;"">","null","","","","","","","","","",""
"","image-keyboard-response","225","309615","0.0-314.0","3EWIJTFFVPTA5HW56M3XAHRFWH0E0N","A16ENVVHDK1LQQ","3S1L4CQSFXRWQOWP2XFUSMS4AZDFAL","","5","img/food6.png","76","6","3","0","","3","1","1,0.7,0,1,0.7,0,0.7,0,1","0,1,0.7,0,1,0.7,1,0.7,0","3",""
"","html-keyboard-response","226","309916","0.0-315.0","3EWIJTFFVPTA5HW56M3XAHRFWH0E0N","A16ENVVHDK1LQQ","3S1L4CQSFXRWQOWP2XFUSMS4AZDFAL","","null","<img src=""img/food6.png"" style=""width:200px;border:14px solid red;"">","null","","","","","","","","","",""
"","image-keyboard-response","227","309971","0.0-316.0","3EWIJTFFVPTA5HW56M3XAHRFWH0E0N","A16ENVVHDK1LQQ","3S1L4CQSFXRWQOWP2XFUSMS4AZDFAL","","51","img/food3.png","74","53","1","0","","2","1","1,0.7,0,1,0.7,0,0.7,0,1","0,1,0.7,0,1,0.7,1,0.7,0","3",""
"","html-keyboard-response","228","310273","0.0-317.0","3EWIJTFFVPTA5HW56M3XAHRFWH0E0N","A16ENVVHDK1LQQ","3S1L4CQSFXRWQOWP2XFUSMS4AZDFAL","","null","<img src=""img/food3.png"" style=""width:200px;border:14px solid red;"">","null","","","","","","","","","",""
"","image-keyboard-response","229","310373","0.0-318.0","3EWIJTFFVPTA5HW56M3XAHRFWH0E0N","A16ENVVHDK1LQQ","3S1L4CQSFXRWQOWP2XFUSMS4AZDFAL","","97","img/food3.png","74","99","1","0","","2","1","1,0.7,0,1,0.7,0,0.7,0,1","0,1,0.7,0,1,0.7,1,0.7,0","3",""
"","html-keyboard-response","230","310675","0.0-319.0","3EWIJTFFVPTA5HW56M3XAHRFWH0E0N","A16ENVVHDK1LQQ","3S1L4CQSFXRWQOWP2XFUSMS4AZDFAL","","null","<img src=""img/food3.png"" style=""width:200px;border:14px solid red;"">","null","","","","","","","","","",""
"","image-keyboard-response","231","310738","0.0-320.0","3EWIJTFFVPTA5HW56M3XAHRFWH0E0N","A16ENVVHDK1LQQ","3S1L4CQSFXRWQOWP2XFUSMS4AZDFAL","","61","img/food6.png","74","62","1","1","","3","1","1,0.7,0,1,0.7,0,0.7,0,1","0,1,0.7,0,1,0.7,1,0.7,0","3",""
"","html-keyboard-response","232","311040","0.0-321.0","3EWIJTFFVPTA5HW56M3XAHRFWH0E0N","A16ENVVHDK1LQQ","3S1L4CQSFXRWQOWP2XFUSMS4AZDFAL","","null","<img src=""img/food6.png"" style=""width:200px; border:14px solid green;"">","null","","","","","","","","","",""
"","image-keyboard-response","233","311105","0.0-322.0","3EWIJTFFVPTA5HW56M3XAHRFWH0E0N","A16ENVVHDK1LQQ","3S1L4CQSFXRWQOWP2XFUSMS4AZDFAL","","64","img/food1.png","76","64","3","0","","1","1","1,0.7,0,1,0.7,0,0.7,0,1","0,1,0.7,0,1,0.7,1,0.7,0","3",""
"","html-keyboard-response","234","311408","0.0-323.0","3EWIJTFFVPTA5HW56M3XAHRFWH0E0N","A16ENVVHDK1LQQ","3S1L4CQSFXRWQOWP2XFUSMS4AZDFAL","","null","<img src=""img/food1.png"" style=""width:200px;border:14px solid red;"">","null","","","","","","","","","",""
"","image-keyboard-response","235","311779","0.0-324.0","3EWIJTFFVPTA5HW56M3XAHRFWH0E0N","A16ENVVHDK1LQQ","3S1L4CQSFXRWQOWP2XFUSMS4AZDFAL","","368","img/food6.png","76","370","3","0","","3","1","1,0.7,0,1,0.7,0,0.7,0,1","0,1,0.7,0,1,0.7,1,0.7,0","3",""
"","html-keyboard-response","236","312082","0.0-325.0","3EWIJTFFVPTA5HW56M3XAHRFWH0E0N","A16ENVVHDK1LQQ","3S1L4CQSFXRWQOWP2XFUSMS4AZDFAL","","null","<img src=""img/food6.png"" style=""width:200px;border:14px solid red;"">","null","","","","","","","","","",""
"","image-keyboard-response","237","312279","0.0-326.0","3EWIJTFFVPTA5HW56M3XAHRFWH0E0N","A16ENVVHDK1LQQ","3S1L4CQSFXRWQOWP2XFUSMS4AZDFAL","","195","img/food6.png","76","196","3","0","","3","1","1,0.7,0,1,0.7,0,0.7,0,1","0,1,0.7,0,1,0.7,1,0.7,0","3",""
"","html-keyboard-response","238","312581","0.0-327.0","3EWIJTFFVPTA5HW56M3XAHRFWH0E0N","A16ENVVHDK1LQQ","3S1L4CQSFXRWQOWP2XFUSMS4AZDFAL","","null","<img src=""img/food6.png"" style=""width:200px;border:14px solid red;"">","null","","","","","","","","","",""
"","image-keyboard-response","239","312696","0.0-328.0","3EWIJTFFVPTA5HW56M3XAHRFWH0E0N","A16ENVVHDK1LQQ","3S1L4CQSFXRWQOWP2XFUSMS4AZDFAL","","112","img/food6.png","75","114","2","1","","3","1","1,0.7,0,1,0.7,0,0.7,0,1","0,1,0.7,0,1,0.7,1,0.7,0","3",""
"","html-keyboard-response","240","313000","0.0-329.0","3EWIJTFFVPTA5HW56M3XAHRFWH0E0N","A16ENVVHDK1LQQ","3S1L4CQSFXRWQOWP2XFUSMS4AZDFAL","","null","<img src=""img/food6.png"" style=""width:200px; border:14px solid green;"">","null","","","","","","","","","",""
"","image-keyboard-response","241","313089","0.0-330.0","3EWIJTFFVPTA5HW56M3XAHRFWH0E0N","A16ENVVHDK1LQQ","3S1L4CQSFXRWQOWP2XFUSMS4AZDFAL","","87","img/food1.png","74","89","1","0","","1","1","1,0.7,0,1,0.7,0,0.7,0,1","0,1,0.7,0,1,0.7,1,0.7,0","3",""
"","html-keyboard-response","242","313392","0.0-331.0","3EWIJTFFVPTA5HW56M3XAHRFWH0E0N","A16ENVVHDK1LQQ","3S1L4CQSFXRWQOWP2XFUSMS4AZDFAL","","null","<img src=""img/food1.png"" style=""width:200px;border:14px solid red;"">","null","","","","","","","","","",""
"","image-keyboard-response","243","313501","0.0-332.0","3EWIJTFFVPTA5HW56M3XAHRFWH0E0N","A16ENVVHDK1LQQ","3S1L4CQSFXRWQOWP2XFUSMS4AZDFAL","","106","img/food1.png","76","108","3","0","","1","1","1,0.7,0,1,0.7,0,0.7,0,1","0,1,0.7,0,1,0.7,1,0.7,0","3",""
"","html-keyboard-response","244","313805","0.0-333.0","3EWIJTFFVPTA5HW56M3XAHRFWH0E0N","A16ENVVHDK1LQQ","3S1L4CQSFXRWQOWP2XFUSMS4AZDFAL","","null","<img src=""img/food1.png"" style=""width:200px;border:14px solid red;"">","null","","","","","","","","","",""
"","image-keyboard-response","245","313833","0.0-334.0","3EWIJTFFVPTA5HW56M3XAHRFWH0E0N","A16ENVVHDK1LQQ","3S1L4CQSFXRWQOWP2XFUSMS4AZDFAL","","26","img/food3.png","74","27","1","0","","2","1","1,0.7,0,1,0.7,0,0.7,0,1","0,1,0.7,0,1,0.7,1,0.7,0","3",""
"","html-keyboard-response","246","314135","0.0-335.0","3EWIJTFFVPTA5HW56M3XAHRFWH0E0N","A16ENVVHDK1LQQ","3S1L4CQSFXRWQOWP2XFUSMS4AZDFAL","","null","<img src=""img/food3.png"" style=""width:200px;border:14px solid red;"">","null","","","","","","","","","",""
"","image-keyboard-response","247","314220","0.0-336.0","3EWIJTFFVPTA5HW56M3XAHRFWH0E0N","A16ENVVHDK1LQQ","3S1L4CQSFXRWQOWP2XFUSMS4AZDFAL","","81","img/food3.png","75","84","2","1","","2","1","1,0.7,0,1,0.7,0,0.7,0,1","0,1,0.7,0,1,0.7,1,0.7,0","3",""
"","html-keyboard-response","248","314522","0.0-337.0","3EWIJTFFVPTA5HW56M3XAHRFWH0E0N","A16ENVVHDK1LQQ","3S1L4CQSFXRWQOWP2XFUSMS4AZDFAL","","null","<img src=""img/food3.png"" style=""width:200px; border:14px solid green;"">","null","","","","","","","","","",""
"","image-keyboard-response","249","314603","0.0-338.0","3EWIJTFFVPTA5HW56M3XAHRFWH0E0N","A16ENVVHDK1LQQ","3S1L4CQSFXRWQOWP2XFUSMS4AZDFAL","","79","img/food6.png","76","80","3","0","","3","1","1,0.7,0,1,0.7,0,0.7,0,1","0,1,0.7,0,1,0.7,1,0.7,0","3",""
"","html-keyboard-response","250","314904","0.0-339.0","3EWIJTFFVPTA5HW56M3XAHRFWH0E0N","A16ENVVHDK1LQQ","3S1L4CQSFXRWQOWP2XFUSMS4AZDFAL","","null","<img src=""img/food6.png"" style=""width:200px;border:14px solid red;"">","null","","","","","","","","","",""
"","image-keyboard-response","251","314989","0.0-340.0","3EWIJTFFVPTA5HW56M3XAHRFWH0E0N","A16ENVVHDK1LQQ","3S1L4CQSFXRWQOWP2XFUSMS4AZDFAL","","82","img/food6.png","75","84","2","1","","3","1","1,0.7,0,1,0.7,0,0.7,0,1","0,1,0.7,0,1,0.7,1,0.7,0","3",""
"","html-keyboard-response","252","315292","0.0-341.0","3EWIJTFFVPTA5HW56M3XAHRFWH0E0N","A16ENVVHDK1LQQ","3S1L4CQSFXRWQOWP2XFUSMS4AZDFAL","","null","<img src=""img/food6.png"" style=""width:200px; border:14px solid green;"">","null","","","","","","","","","",""
"","image-keyboard-response","253","315516","0.0-342.0","3EWIJTFFVPTA5HW56M3XAHRFWH0E0N","A16ENVVHDK1LQQ","3S1L4CQSFXRWQOWP2XFUSMS4AZDFAL","","222","img/food6.png","75","223","2","1","","3","1","1,0.7,0,1,0.7,0,0.7,0,1","0,1,0.7,0,1,0.7,1,0.7,0","3",""
"","html-keyboard-response","254","315819","0.0-343.0","3EWIJTFFVPTA5HW56M3XAHRFWH0E0N","A16ENVVHDK1LQQ","3S1L4CQSFXRWQOWP2XFUSMS4AZDFAL","","null","<img src=""img/food6.png"" style=""width:200px; border:14px solid green;"">","null","","","","","","","","","",""
"","image-keyboard-response","255","315934","0.0-344.0","3EWIJTFFVPTA5HW56M3XAHRFWH0E0N","A16ENVVHDK1LQQ","3S1L4CQSFXRWQOWP2XFUSMS4AZDFAL","","112","img/food3.png","75","114","2","1","","2","1","1,0.7,0,1,0.7,0,0.7,0,1","0,1,0.7,0,1,0.7,1,0.7,0","3",""
"","html-keyboard-response","256","316237","0.0-345.0","3EWIJTFFVPTA5HW56M3XAHRFWH0E0N","A16ENVVHDK1LQQ","3S1L4CQSFXRWQOWP2XFUSMS4AZDFAL","","null","<img src=""img/food3.png"" style=""width:200px; border:14px solid green;"">","null","","","","","","","","","",""
"","image-keyboard-response","257","316338","0.0-346.0","3EWIJTFFVPTA5HW56M3XAHRFWH0E0N","A16ENVVHDK1LQQ","3S1L4CQSFXRWQOWP2XFUSMS4AZDFAL","","98","img/food3.png","75","100","2","1","","2","1","1,0.7,0,1,0.7,0,0.7,0,1","0,1,0.7,0,1,0.7,1,0.7,0","3",""
"","html-keyboard-response","258","316639","0.0-347.0","3EWIJTFFVPTA5HW56M3XAHRFWH0E0N","A16ENVVHDK1LQQ","3S1L4CQSFXRWQOWP2XFUSMS4AZDFAL","","null","<img src=""img/food3.png"" style=""width:200px; border:14px solid green;"">","null","","","","","","","","","",""
"","image-keyboard-response","259","316721","0.0-348.0","3EWIJTFFVPTA5HW56M3XAHRFWH0E0N","A16ENVVHDK1LQQ","3S1L4CQSFXRWQOWP2XFUSMS4AZDFAL","","78","img/food3.png","75","80","2","1","","2","1","1,0.7,0,1,0.7,0,0.7,0,1","0,1,0.7,0,1,0.7,1,0.7,0","3",""
"","html-keyboard-response","260","317024","0.0-349.0","3EWIJTFFVPTA5HW56M3XAHRFWH0E0N","A16ENVVHDK1LQQ","3S1L4CQSFXRWQOWP2XFUSMS4AZDFAL","","null","<img src=""img/food3.png"" style=""width:200px; border:14px solid green;"">","null","","","","","","","","","",""
"","image-keyboard-response","261","317109","0.0-350.0","3EWIJTFFVPTA5HW56M3XAHRFWH0E0N","A16ENVVHDK1LQQ","3S1L4CQSFXRWQOWP2XFUSMS4AZDFAL","","83","img/food1.png","75","85","2","1","","1","1","1,0.7,0,1,0.7,0,0.7,0,1","0,1,0.7,0,1,0.7,1,0.7,0","3",""
"","html-keyboard-response","262","317411","0.0-351.0","3EWIJTFFVPTA5HW56M3XAHRFWH0E0N","A16ENVVHDK1LQQ","3S1L4CQSFXRWQOWP2XFUSMS4AZDFAL","","null","<img src=""img/food1.png"" style=""width:200px; border:14px solid green;"">","null","","","","","","","","","",""
"","image-keyboard-response","263","317478","0.0-352.0","3EWIJTFFVPTA5HW56M3XAHRFWH0E0N","A16ENVVHDK1LQQ","3S1L4CQSFXRWQOWP2XFUSMS4AZDFAL","","64","img/food3.png","76","65","3","0","","2","1","1,0.7,0,1,0.7,0,0.7,0,1","0,1,0.7,0,1,0.7,1,0.7,0","3",""
"","html-keyboard-response","264","317779","0.0-353.0","3EWIJTFFVPTA5HW56M3XAHRFWH0E0N","A16ENVVHDK1LQQ","3S1L4CQSFXRWQOWP2XFUSMS4AZDFAL","","null","<img src=""img/food3.png"" style=""width:200px;border:14px solid red;"">","null","","","","","","","","","",""
"","image-keyboard-response","265","317899","0.0-354.0","3EWIJTFFVPTA5HW56M3XAHRFWH0E0N","A16ENVVHDK1LQQ","3S1L4CQSFXRWQOWP2XFUSMS4AZDFAL","","118","img/food3.png","74","119","1","0","","2","1","1,0.7,0,1,0.7,0,0.7,0,1","0,1,0.7,0,1,0.7,1,0.7,0","3",""
"","html-keyboard-response","266","318200","0.0-355.0","3EWIJTFFVPTA5HW56M3XAHRFWH0E0N","A16ENVVHDK1LQQ","3S1L4CQSFXRWQOWP2XFUSMS4AZDFAL","","null","<img src=""img/food3.png"" style=""width:200px;border:14px solid red;"">","null","","","","","","","","","",""
"","image-keyboard-response","267","318270","0.0-356.0","3EWIJTFFVPTA5HW56M3XAHRFWH0E0N","A16ENVVHDK1LQQ","3S1L4CQSFXRWQOWP2XFUSMS4AZDFAL","","66","img/food3.png","74","67","1","0","","2","1","1,0.7,0,1,0.7,0,0.7,0,1","0,1,0.7,0,1,0.7,1,0.7,0","3",""
"","html-keyboard-response","268","318573","0.0-357.0","3EWIJTFFVPTA5HW56M3XAHRFWH0E0N","A16ENVVHDK1LQQ","3S1L4CQSFXRWQOWP2XFUSMS4AZDFAL","","null","<img src=""img/food3.png"" style=""width:200px;border:14px solid red;"">","null","","","","","","","","","",""
"","image-keyboard-response","269","318656","0.0-358.0","3EWIJTFFVPTA5HW56M3XAHRFWH0E0N","A16ENVVHDK1LQQ","3S1L4CQSFXRWQOWP2XFUSMS4AZDFAL","","80","img/food3.png","74","82","1","0","","2","1","1,0.7,0,1,0.7,0,0.7,0,1","0,1,0.7,0,1,0.7,1,0.7,0","3",""
"","html-keyboard-response","270","318959","0.0-359.0","3EWIJTFFVPTA5HW56M3XAHRFWH0E0N","A16ENVVHDK1LQQ","3S1L4CQSFXRWQOWP2XFUSMS4AZDFAL","","null","<img src=""img/food3.png"" style=""width:200px;border:14px solid red;"">","null","","","","","","","","","",""
"","image-keyboard-response","271","319020","0.0-360.0","3EWIJTFFVPTA5HW56M3XAHRFWH0E0N","A16ENVVHDK1LQQ","3S1L4CQSFXRWQOWP2XFUSMS4AZDFAL","","58","img/food6.png","74","60","1","1","","3","1","1,0.7,0,1,0.7,0,0.7,0,1","0,1,0.7,0,1,0.7,1,0.7,0","3",""
"","html-keyboard-response","272","319322","0.0-361.0","3EWIJTFFVPTA5HW56M3XAHRFWH0E0N","A16ENVVHDK1LQQ","3S1L4CQSFXRWQOWP2XFUSMS4AZDFAL","","null","<img src=""img/food6.png"" style=""width:200px; border:14px solid green;"">","null","","","","","","","","","",""
"","image-keyboard-response","273","319575","0.0-362.0","3EWIJTFFVPTA5HW56M3XAHRFWH0E0N","A16ENVVHDK1LQQ","3S1L4CQSFXRWQOWP2XFUSMS4AZDFAL","","252","img/food3.png","74","252","1","0","","2","1","1,0.7,0,1,0.7,0,0.7,0,1","0,1,0.7,0,1,0.7,1,0.7,0","3",""
"","html-keyboard-response","274","319878","0.0-363.0","3EWIJTFFVPTA5HW56M3XAHRFWH0E0N","A16ENVVHDK1LQQ","3S1L4CQSFXRWQOWP2XFUSMS4AZDFAL","","null","<img src=""img/food3.png"" style=""width:200px;border:14px solid red;"">","null","","","","","","","","","",""
"","image-keyboard-response","275","320023","0.0-364.0","3EWIJTFFVPTA5HW56M3XAHRFWH0E0N","A16ENVVHDK1LQQ","3S1L4CQSFXRWQOWP2XFUSMS4AZDFAL","","140","img/food3.png","74","144","1","0","","2","1","1,0.7,0,1,0.7,0,0.7,0,1","0,1,0.7,0,1,0.7,1,0.7,0","3",""
"","html-keyboard-response","276","320327","0.0-365.0","3EWIJTFFVPTA5HW56M3XAHRFWH0E0N","A16ENVVHDK1LQQ","3S1L4CQSFXRWQOWP2XFUSMS4AZDFAL","","null","<img src=""img/food3.png"" style=""width:200px;border:14px solid red;"">","null","","","","","","","","","",""
"","image-keyboard-response","277","320400","0.0-366.0","3EWIJTFFVPTA5HW56M3XAHRFWH0E0N","A16ENVVHDK1LQQ","3S1L4CQSFXRWQOWP2XFUSMS4AZDFAL","","71","img/food1.png","74","73","1","0","","1","1","1,0.7,0,1,0.7,0,0.7,0,1","0,1,0.7,0,1,0.7,1,0.7,0","3",""
"","html-keyboard-response","278","320701","0.0-367.0","3EWIJTFFVPTA5HW56M3XAHRFWH0E0N","A16ENVVHDK1LQQ","3S1L4CQSFXRWQOWP2XFUSMS4AZDFAL","","null","<img src=""img/food1.png"" style=""width:200px;border:14px solid red;"">","null","","","","","","","","","",""
"","image-keyboard-response","279","320862","0.0-368.0","3EWIJTFFVPTA5HW56M3XAHRFWH0E0N","A16ENVVHDK1LQQ","3S1L4CQSFXRWQOWP2XFUSMS4AZDFAL","","157","img/food3.png","75","159","2","1","","2","1","1,0.7,0,1,0.7,0,0.7,0,1","0,1,0.7,0,1,0.7,1,0.7,0","3",""
"","html-keyboard-response","280","321164","0.0-369.0","3EWIJTFFVPTA5HW56M3XAHRFWH0E0N","A16ENVVHDK1LQQ","3S1L4CQSFXRWQOWP2XFUSMS4AZDFAL","","null","<img src=""img/food3.png"" style=""width:200px; border:14px solid green;"">","null","","","","","","","","","",""
"","image-keyboard-response","281","321265","0.0-370.0","3EWIJTFFVPTA5HW56M3XAHRFWH0E0N","A16ENVVHDK1LQQ","3S1L4CQSFXRWQOWP2XFUSMS4AZDFAL","","97","img/food6.png","75","100","2","1","","3","1","1,0.7,0,1,0.7,0,0.7,0,1","0,1,0.7,0,1,0.7,1,0.7,0","3",""
"","html-keyboard-response","282","321569","0.0-371.0","3EWIJTFFVPTA5HW56M3XAHRFWH0E0N","A16ENVVHDK1LQQ","3S1L4CQSFXRWQOWP2XFUSMS4AZDFAL","","null","<img src=""img/food6.png"" style=""width:200px; border:14px solid green;"">","null","","","","","","","","","",""
"","image-keyboard-response","283","321620","0.0-372.0","3EWIJTFFVPTA5HW56M3XAHRFWH0E0N","A16ENVVHDK1LQQ","3S1L4CQSFXRWQOWP2XFUSMS4AZDFAL","","49","img/food6.png","75","51","2","1","","3","1","1,0.7,0,1,0.7,0,0.7,0,1","0,1,0.7,0,1,0.7,1,0.7,0","3",""
"","html-keyboard-response","284","321923","0.0-373.0","3EWIJTFFVPTA5HW56M3XAHRFWH0E0N","A16ENVVHDK1LQQ","3S1L4CQSFXRWQOWP2XFUSMS4AZDFAL","","null","<img src=""img/food6.png"" style=""width:200px; border:14px solid green;"">","null","","","","","","","","","",""
"","image-keyboard-response","285","321989","0.0-374.0","3EWIJTFFVPTA5HW56M3XAHRFWH0E0N","A16ENVVHDK1LQQ","3S1L4CQSFXRWQOWP2XFUSMS4AZDFAL","","63","img/food1.png","75","64","2","1","","1","1","1,0.7,0,1,0.7,0,0.7,0,1","0,1,0.7,0,1,0.7,1,0.7,0","3",""
"","html-keyboard-response","286","322290","0.0-375.0","3EWIJTFFVPTA5HW56M3XAHRFWH0E0N","A16ENVVHDK1LQQ","3S1L4CQSFXRWQOWP2XFUSMS4AZDFAL","","null","<img src=""img/food1.png"" style=""width:200px; border:14px solid green;"">","null","","","","","","","","","",""
"","image-keyboard-response","287","322360","0.0-376.0","3EWIJTFFVPTA5HW56M3XAHRFWH0E0N","A16ENVVHDK1LQQ","3S1L4CQSFXRWQOWP2XFUSMS4AZDFAL","","67","img/food3.png","75","68","2","1","","2","1","1,0.7,0,1,0.7,0,0.7,0,1","0,1,0.7,0,1,0.7,1,0.7,0","3",""
"","html-keyboard-response","288","322662","0.0-377.0","3EWIJTFFVPTA5HW56M3XAHRFWH0E0N","A16ENVVHDK1LQQ","3S1L4CQSFXRWQOWP2XFUSMS4AZDFAL","","null","<img src=""img/food3.png"" style=""width:200px; border:14px solid green;"">","null","","","","","","","","","",""
"","image-keyboard-response","289","322729","0.0-378.0","3EWIJTFFVPTA5HW56M3XAHRFWH0E0N","A16ENVVHDK1LQQ","3S1L4CQSFXRWQOWP2XFUSMS4AZDFAL","","65","img/food3.png","75","67","2","1","","2","1","1,0.7,0,1,0.7,0,0.7,0,1","0,1,0.7,0,1,0.7,1,0.7,0","3",""
"","html-keyboard-response","290","323032","0.0-379.0","3EWIJTFFVPTA5HW56M3XAHRFWH0E0N","A16ENVVHDK1LQQ","3S1L4CQSFXRWQOWP2XFUSMS4AZDFAL","","null","<img src=""img/food3.png"" style=""width:200px; border:14px solid green;"">","null","","","","","","","","","",""
"","image-keyboard-response","291","323109","0.0-380.0","3EWIJTFFVPTA5HW56M3XAHRFWH0E0N","A16ENVVHDK1LQQ","3S1L4CQSFXRWQOWP2XFUSMS4AZDFAL","","75","img/food1.png","75","76","2","1","","1","1","1,0.7,0,1,0.7,0,0.7,0,1","0,1,0.7,0,1,0.7,1,0.7,0","3",""
"","html-keyboard-response","292","323411","0.0-381.0","3EWIJTFFVPTA5HW56M3XAHRFWH0E0N","A16ENVVHDK1LQQ","3S1L4CQSFXRWQOWP2XFUSMS4AZDFAL","","null","<img src=""img/food1.png"" style=""width:200px; border:14px solid green;"">","null","","","","","","","","","",""
"","image-keyboard-response","293","323596","0.0-382.0","3EWIJTFFVPTA5HW56M3XAHRFWH0E0N","A16ENVVHDK1LQQ","3S1L4CQSFXRWQOWP2XFUSMS4AZDFAL","","182","img/food1.png","75","185","2","1","","1","1","1,0.7,0,1,0.7,0,0.7,0,1","0,1,0.7,0,1,0.7,1,0.7,0","3",""
"","html-keyboard-response","294","323899","0.0-383.0","3EWIJTFFVPTA5HW56M3XAHRFWH0E0N","A16ENVVHDK1LQQ","3S1L4CQSFXRWQOWP2XFUSMS4AZDFAL","","null","<img src=""img/food1.png"" style=""width:200px; border:14px solid green;"">","null","","","","","","","","","",""
"","image-keyboard-response","295","323903","0.0-384.0","3EWIJTFFVPTA5HW56M3XAHRFWH0E0N","A16ENVVHDK1LQQ","3S1L4CQSFXRWQOWP2XFUSMS4AZDFAL","","1","img/food1.png","76","3","3","1","","1","1","1,0.7,0,1,0.7,0,0.7,0,1","0,1,0.7,0,1,0.7,1,0.7,0","3",""
"","html-keyboard-response","296","324205","0.0-385.0","3EWIJTFFVPTA5HW56M3XAHRFWH0E0N","A16ENVVHDK1LQQ","3S1L4CQSFXRWQOWP2XFUSMS4AZDFAL","","null","<img src=""img/food1.png"" style=""width:200px; border:14px solid green;"">","null","","","","","","","","","",""
"","image-keyboard-response","297","324289","0.0-386.0","3EWIJTFFVPTA5HW56M3XAHRFWH0E0N","A16ENVVHDK1LQQ","3S1L4CQSFXRWQOWP2XFUSMS4AZDFAL","","82","img/food3.png","74","83","1","0","","2","1","1,0.7,0,1,0.7,0,0.7,0,1","0,1,0.7,0,1,0.7,1,0.7,0","3",""
"","html-keyboard-response","298","324591","0.0-387.0","3EWIJTFFVPTA5HW56M3XAHRFWH0E0N","A16ENVVHDK1LQQ","3S1L4CQSFXRWQOWP2XFUSMS4AZDFAL","","null","<img src=""img/food3.png"" style=""width:200px;border:14px solid red;"">","null","","","","","","","","","",""
"","image-keyboard-response","299","324714","0.0-388.0","3EWIJTFFVPTA5HW56M3XAHRFWH0E0N","A16ENVVHDK1LQQ","3S1L4CQSFXRWQOWP2XFUSMS4AZDFAL","","121","img/food3.png","74","122","1","0","","2","1","1,0.7,0,1,0.7,0,0.7,0,1","0,1,0.7,0,1,0.7,1,0.7,0","3",""
"","html-keyboard-response","300","325016","0.0-389.0","3EWIJTFFVPTA5HW56M3XAHRFWH0E0N","A16ENVVHDK1LQQ","3S1L4CQSFXRWQOWP2XFUSMS4AZDFAL","","null","<img src=""img/food3.png"" style=""width:200px;border:14px solid red;"">","null","","","","","","","","","",""
"","image-keyboard-response","301","325061","0.0-390.0","3EWIJTFFVPTA5HW56M3XAHRFWH0E0N","A16ENVVHDK1LQQ","3S1L4CQSFXRWQOWP2XFUSMS4AZDFAL","","42","img/food1.png","74","43","1","0","","1","1","1,0.7,0,1,0.7,0,0.7,0,1","0,1,0.7,0,1,0.7,1,0.7,0","3",""
"","html-keyboard-response","302","325363","0.0-391.0","3EWIJTFFVPTA5HW56M3XAHRFWH0E0N","A16ENVVHDK1LQQ","3S1L4CQSFXRWQOWP2XFUSMS4AZDFAL","","null","<img src=""img/food1.png"" style=""width:200px;border:14px solid red;"">","null","","","","","","","","","",""
"","image-keyboard-response","303","325434","0.0-392.0","3EWIJTFFVPTA5HW56M3XAHRFWH0E0N","A16ENVVHDK1LQQ","3S1L4CQSFXRWQOWP2XFUSMS4AZDFAL","","67","img/food6.png","74","70","1","1","","3","1","1,0.7,0,1,0.7,0,0.7,0,1","0,1,0.7,0,1,0.7,1,0.7,0","3",""
"","html-keyboard-response","304","325735","0.0-393.0","3EWIJTFFVPTA5HW56M3XAHRFWH0E0N","A16ENVVHDK1LQQ","3S1L4CQSFXRWQOWP2XFUSMS4AZDFAL","","null","<img src=""img/food6.png"" style=""width:200px; border:14px solid green;"">","null","","","","","","","","","",""
"","image-keyboard-response","305","325840","0.0-394.0","3EWIJTFFVPTA5HW56M3XAHRFWH0E0N","A16ENVVHDK1LQQ","3S1L4CQSFXRWQOWP2XFUSMS4AZDFAL","","100","img/food3.png","74","104","1","0","","2","1","1,0.7,0,1,0.7,0,0.7,0,1","0,1,0.7,0,1,0.7,1,0.7,0","3",""
"","html-keyboard-response","306","326140","0.0-395.0","3EWIJTFFVPTA5HW56M3XAHRFWH0E0N","A16ENVVHDK1LQQ","3S1L4CQSFXRWQOWP2XFUSMS4AZDFAL","","null","<img src=""img/food3.png"" style=""width:200px;border:14px solid red;"">","null","","","","","","","","","",""
"","image-keyboard-response","307","326244","0.0-396.0","3EWIJTFFVPTA5HW56M3XAHRFWH0E0N","A16ENVVHDK1LQQ","3S1L4CQSFXRWQOWP2XFUSMS4AZDFAL","","102","img/food3.png","74","103","1","0","","2","1","1,0.7,0,1,0.7,0,0.7,0,1","0,1,0.7,0,1,0.7,1,0.7,0","3",""
"","html-keyboard-response","308","326547","0.0-397.0","3EWIJTFFVPTA5HW56M3XAHRFWH0E0N","A16ENVVHDK1LQQ","3S1L4CQSFXRWQOWP2XFUSMS4AZDFAL","","null","<img src=""img/food3.png"" style=""width:200px;border:14px solid red;"">","null","","","","","","","","","",""
"","image-keyboard-response","309","326640","0.0-398.0","3EWIJTFFVPTA5HW56M3XAHRFWH0E0N","A16ENVVHDK1LQQ","3S1L4CQSFXRWQOWP2XFUSMS4AZDFAL","","92","img/food1.png","74","92","1","0","","1","1","1,0.7,0,1,0.7,0,0.7,0,1","0,1,0.7,0,1,0.7,1,0.7,0","3",""
"","html-keyboard-response","310","326943","0.0-399.0","3EWIJTFFVPTA5HW56M3XAHRFWH0E0N","A16ENVVHDK1LQQ","3S1L4CQSFXRWQOWP2XFUSMS4AZDFAL","","null","<img src=""img/food1.png"" style=""width:200px;border:14px solid red;"">","null","","","","","","","","","",""
"","image-keyboard-response","311","327037","0.0-400.0","3EWIJTFFVPTA5HW56M3XAHRFWH0E0N","A16ENVVHDK1LQQ","3S1L4CQSFXRWQOWP2XFUSMS4AZDFAL","","92","img/food3.png","75","94","2","1","","2","1","1,0.7,0,1,0.7,0,0.7,0,1","0,1,0.7,0,1,0.7,1,0.7,0","3",""
"","html-keyboard-response","312","327339","0.0-401.0","3EWIJTFFVPTA5HW56M3XAHRFWH0E0N","A16ENVVHDK1LQQ","3S1L4CQSFXRWQOWP2XFUSMS4AZDFAL","","null","<img src=""img/food3.png"" style=""width:200px; border:14px solid green;"">","null","","","","","","","","","",""
"","image-keyboard-response","313","327870","0.0-402.0","3EWIJTFFVPTA5HW56M3XAHRFWH0E0N","A16ENVVHDK1LQQ","3S1L4CQSFXRWQOWP2XFUSMS4AZDFAL","","527","img/food6.png","76","530","3","0","","3","1","1,0.7,0,1,0.7,0,0.7,0,1","0,1,0.7,0,1,0.7,1,0.7,0","3",""
"","html-keyboard-response","314","328172","0.0-403.0","3EWIJTFFVPTA5HW56M3XAHRFWH0E0N","A16ENVVHDK1LQQ","3S1L4CQSFXRWQOWP2XFUSMS4AZDFAL","","null","<img src=""img/food6.png"" style=""width:200px;border:14px solid red;"">","null","","","","","","","","","",""
"","image-keyboard-response","315","328219","0.0-404.0","3EWIJTFFVPTA5HW56M3XAHRFWH0E0N","A16ENVVHDK1LQQ","3S1L4CQSFXRWQOWP2XFUSMS4AZDFAL","","44","img/food3.png","75","47","2","1","","2","1","1,0.7,0,1,0.7,0,0.7,0,1","0,1,0.7,0,1,0.7,1,0.7,0","3",""
"","html-keyboard-response","316","328520","0.0-405.0","3EWIJTFFVPTA5HW56M3XAHRFWH0E0N","A16ENVVHDK1LQQ","3S1L4CQSFXRWQOWP2XFUSMS4AZDFAL","","null","<img src=""img/food3.png"" style=""width:200px; border:14px solid green;"">","null","","","","","","","","","",""
"","image-keyboard-response","317","328539","0.0-406.0","3EWIJTFFVPTA5HW56M3XAHRFWH0E0N","A16ENVVHDK1LQQ","3S1L4CQSFXRWQOWP2XFUSMS4AZDFAL","","17","img/food1.png","75","18","2","1","","1","1","1,0.7,0,1,0.7,0,0.7,0,1","0,1,0.7,0,1,0.7,1,0.7,0","3",""
"","html-keyboard-response","318","328840","0.0-407.0","3EWIJTFFVPTA5HW56M3XAHRFWH0E0N","A16ENVVHDK1LQQ","3S1L4CQSFXRWQOWP2XFUSMS4AZDFAL","","null","<img src=""img/food1.png"" style=""width:200px; border:14px solid green;"">","null","","","","","","","","","",""
"","image-keyboard-response","319","328920","0.0-408.0","3EWIJTFFVPTA5HW56M3XAHRFWH0E0N","A16ENVVHDK1LQQ","3S1L4CQSFXRWQOWP2XFUSMS4AZDFAL","","77","img/food1.png","76","78","3","1","","1","1","1,0.7,0,1,0.7,0,0.7,0,1","0,1,0.7,0,1,0.7,1,0.7,0","3",""
"","html-keyboard-response","320","329222","0.0-409.0","3EWIJTFFVPTA5HW56M3XAHRFWH0E0N","A16ENVVHDK1LQQ","3S1L4CQSFXRWQOWP2XFUSMS4AZDFAL","","null","<img src=""img/food1.png"" style=""width:200px; border:14px solid green;"">","null","","","","","","","","","",""
"","image-keyboard-response","321","329319","0.0-410.0","3EWIJTFFVPTA5HW56M3XAHRFWH0E0N","A16ENVVHDK1LQQ","3S1L4CQSFXRWQOWP2XFUSMS4AZDFAL","","95","img/food6.png","75","96","2","0","","3","1","1,0.7,0,1,0.7,0,0.7,0,1","0,1,0.7,0,1,0.7,1,0.7,0","3",""
"","html-keyboard-response","322","329620","0.0-411.0","3EWIJTFFVPTA5HW56M3XAHRFWH0E0N","A16ENVVHDK1LQQ","3S1L4CQSFXRWQOWP2XFUSMS4AZDFAL","","null","<img src=""img/food6.png"" style=""width:200px;border:14px solid red;"">","null","","","","","","","","","",""
"","image-keyboard-response","323","329660","0.0-412.0","3EWIJTFFVPTA5HW56M3XAHRFWH0E0N","A16ENVVHDK1LQQ","3S1L4CQSFXRWQOWP2XFUSMS4AZDFAL","","37","img/food1.png","75","38","2","1","","1","1","1,0.7,0,1,0.7,0,0.7,0,1","0,1,0.7,0,1,0.7,1,0.7,0","3",""
"","html-keyboard-response","324","329963","0.0-413.0","3EWIJTFFVPTA5HW56M3XAHRFWH0E0N","A16ENVVHDK1LQQ","3S1L4CQSFXRWQOWP2XFUSMS4AZDFAL","","null","<img src=""img/food1.png"" style=""width:200px; border:14px solid green;"">","null","","","","","","","","","",""
"","image-keyboard-response","325","330006","0.0-414.0","3EWIJTFFVPTA5HW56M3XAHRFWH0E0N","A16ENVVHDK1LQQ","3S1L4CQSFXRWQOWP2XFUSMS4AZDFAL","","41","img/food6.png","75","42","2","1","","3","1","1,0.7,0,1,0.7,0,0.7,0,1","0,1,0.7,0,1,0.7,1,0.7,0","3",""
"","html-keyboard-response","326","330307","0.0-415.0","3EWIJTFFVPTA5HW56M3XAHRFWH0E0N","A16ENVVHDK1LQQ","3S1L4CQSFXRWQOWP2XFUSMS4AZDFAL","","null","<img src=""img/food6.png"" style=""width:200px; border:14px solid green;"">","null","","","","","","","","","",""
"","image-keyboard-response","327","330358","0.0-416.0","3EWIJTFFVPTA5HW56M3XAHRFWH0E0N","A16ENVVHDK1LQQ","3S1L4CQSFXRWQOWP2XFUSMS4AZDFAL","","49","img/food1.png","75","50","2","1","","1","1","1,0.7,0,1,0.7,0,0.7,0,1","0,1,0.7,0,1,0.7,1,0.7,0","3",""
"","html-keyboard-response","328","330660","0.0-417.0","3EWIJTFFVPTA5HW56M3XAHRFWH0E0N","A16ENVVHDK1LQQ","3S1L4CQSFXRWQOWP2XFUSMS4AZDFAL","","null","<img src=""img/food1.png"" style=""width:200px; border:14px solid green;"">","null","","","","","","","","","",""
"","image-keyboard-response","329","330781","0.0-418.0","3EWIJTFFVPTA5HW56M3XAHRFWH0E0N","A16ENVVHDK1LQQ","3S1L4CQSFXRWQOWP2XFUSMS4AZDFAL","","118","img/food1.png","75","120","2","1","","1","1","1,0.7,0,1,0.7,0,0.7,0,1","0,1,0.7,0,1,0.7,1,0.7,0","3",""
"","html-keyboard-response","330","331083","0.0-419.0","3EWIJTFFVPTA5HW56M3XAHRFWH0E0N","A16ENVVHDK1LQQ","3S1L4CQSFXRWQOWP2XFUSMS4AZDFAL","","null","<img src=""img/food1.png"" style=""width:200px; border:14px solid green;"">","null","","","","","","","","","",""
"","image-keyboard-response","331","331201","0.0-420.0","3EWIJTFFVPTA5HW56M3XAHRFWH0E0N","A16ENVVHDK1LQQ","3S1L4CQSFXRWQOWP2XFUSMS4AZDFAL","","115","img/food1.png","76","117","3","1","","1","1","1,0.7,0,1,0.7,0,0.7,0,1","0,1,0.7,0,1,0.7,1,0.7,0","3",""
"","html-keyboard-response","332","331505","0.0-421.0","3EWIJTFFVPTA5HW56M3XAHRFWH0E0N","A16ENVVHDK1LQQ","3S1L4CQSFXRWQOWP2XFUSMS4AZDFAL","","null","<img src=""img/food1.png"" style=""width:200px; border:14px solid green;"">","null","","","","","","","","","",""
"","image-keyboard-response","333","331593","0.0-422.0","3EWIJTFFVPTA5HW56M3XAHRFWH0E0N","A16ENVVHDK1LQQ","3S1L4CQSFXRWQOWP2XFUSMS4AZDFAL","","86","img/food6.png","75","89","2","1","","3","1","1,0.7,0,1,0.7,0,0.7,0,1","0,1,0.7,0,1,0.7,1,0.7,0","3",""
"","html-keyboard-response","334","331897","0.0-423.0","3EWIJTFFVPTA5HW56M3XAHRFWH0E0N","A16ENVVHDK1LQQ","3S1L4CQSFXRWQOWP2XFUSMS4AZDFAL","","null","<img src=""img/food6.png"" style=""width:200px; border:14px solid green;"">","null","","","","","","","","","",""
"","image-keyboard-response","335","331981","0.0-424.0","3EWIJTFFVPTA5HW56M3XAHRFWH0E0N","A16ENVVHDK1LQQ","3S1L4CQSFXRWQOWP2XFUSMS4AZDFAL","","81","img/food1.png","76","84","3","1","","1","1","1,0.7,0,1,0.7,0,0.7,0,1","0,1,0.7,0,1,0.7,1,0.7,0","3",""
"","html-keyboard-response","336","332285","0.0-425.0","3EWIJTFFVPTA5HW56M3XAHRFWH0E0N","A16ENVVHDK1LQQ","3S1L4CQSFXRWQOWP2XFUSMS4AZDFAL","","null","<img src=""img/food1.png"" style=""width:200px; border:14px solid green;"">","null","","","","","","","","","",""
"","image-keyboard-response","337","332440","0.0-426.0","3EWIJTFFVPTA5HW56M3XAHRFWH0E0N","A16ENVVHDK1LQQ","3S1L4CQSFXRWQOWP2XFUSMS4AZDFAL","","152","img/food6.png","74","154","1","1","","3","1","1,0.7,0,1,0.7,0,0.7,0,1","0,1,0.7,0,1,0.7,1,0.7,0","3",""
"","html-keyboard-response","338","332742","0.0-427.0","3EWIJTFFVPTA5HW56M3XAHRFWH0E0N","A16ENVVHDK1LQQ","3S1L4CQSFXRWQOWP2XFUSMS4AZDFAL","","null","<img src=""img/food6.png"" style=""width:200px; border:14px solid green;"">","null","","","","","","","","","",""
"","image-keyboard-response","339","332829","0.0-428.0","3EWIJTFFVPTA5HW56M3XAHRFWH0E0N","A16ENVVHDK1LQQ","3S1L4CQSFXRWQOWP2XFUSMS4AZDFAL","","82","img/food6.png","74","85","1","1","","3","1","1,0.7,0,1,0.7,0,0.7,0,1","0,1,0.7,0,1,0.7,1,0.7,0","3",""
"","html-keyboard-response","340","333133","0.0-429.0","3EWIJTFFVPTA5HW56M3XAHRFWH0E0N","A16ENVVHDK1LQQ","3S1L4CQSFXRWQOWP2XFUSMS4AZDFAL","","null","<img src=""img/food6.png"" style=""width:200px; border:14px solid green;"">","null","","","","","","","","","",""
"","image-keyboard-response","341","333225","0.0-430.0","3EWIJTFFVPTA5HW56M3XAHRFWH0E0N","A16ENVVHDK1LQQ","3S1L4CQSFXRWQOWP2XFUSMS4AZDFAL","","89","img/food1.png","76","91","3","1","","1","1","1,0.7,0,1,0.7,0,0.7,0,1","0,1,0.7,0,1,0.7,1,0.7,0","3",""
"","html-keyboard-response","342","333527","0.0-431.0","3EWIJTFFVPTA5HW56M3XAHRFWH0E0N","A16ENVVHDK1LQQ","3S1L4CQSFXRWQOWP2XFUSMS4AZDFAL","","null","<img src=""img/food1.png"" style=""width:200px; border:14px solid green;"">","null","","","","","","","","","",""
"","image-keyboard-response","343","333590","0.0-432.0","3EWIJTFFVPTA5HW56M3XAHRFWH0E0N","A16ENVVHDK1LQQ","3S1L4CQSFXRWQOWP2XFUSMS4AZDFAL","","62","img/food6.png","75","62","2","1","","3","1","1,0.7,0,1,0.7,0,0.7,0,1","0,1,0.7,0,1,0.7,1,0.7,0","3",""
"","html-keyboard-response","344","333894","0.0-433.0","3EWIJTFFVPTA5HW56M3XAHRFWH0E0N","A16ENVVHDK1LQQ","3S1L4CQSFXRWQOWP2XFUSMS4AZDFAL","","null","<img src=""img/food6.png"" style=""width:200px; border:14px solid green;"">","null","","","","","","","","","",""
"","image-keyboard-response","345","333960","0.0-434.0","3EWIJTFFVPTA5HW56M3XAHRFWH0E0N","A16ENVVHDK1LQQ","3S1L4CQSFXRWQOWP2XFUSMS4AZDFAL","","64","img/food1.png","74","65","1","0","","1","1","1,0.7,0,1,0.7,0,0.7,0,1","0,1,0.7,0,1,0.7,1,0.7,0","3",""
"","html-keyboard-response","346","334262","0.0-435.0","3EWIJTFFVPTA5HW56M3XAHRFWH0E0N","A16ENVVHDK1LQQ","3S1L4CQSFXRWQOWP2XFUSMS4AZDFAL","","null","<img src=""img/food1.png"" style=""width:200px;border:14px solid red;"">","null","","","","","","","","","",""
"","image-keyboard-response","347","334339","0.0-436.0","3EWIJTFFVPTA5HW56M3XAHRFWH0E0N","A16ENVVHDK1LQQ","3S1L4CQSFXRWQOWP2XFUSMS4AZDFAL","","75","img/food6.png","74","76","1","1","","3","1","1,0.7,0,1,0.7,0,0.7,0,1","0,1,0.7,0,1,0.7,1,0.7,0","3",""
"","html-keyboard-response","348","334640","0.0-437.0","3EWIJTFFVPTA5HW56M3XAHRFWH0E0N","A16ENVVHDK1LQQ","3S1L4CQSFXRWQOWP2XFUSMS4AZDFAL","","null","<img src=""img/food6.png"" style=""width:200px; border:14px solid green;"">","null","","","","","","","","","",""
"","image-keyboard-response","349","334705","0.0-438.0","3EWIJTFFVPTA5HW56M3XAHRFWH0E0N","A16ENVVHDK1LQQ","3S1L4CQSFXRWQOWP2XFUSMS4AZDFAL","","63","img/food3.png","74","65","1","0","","2","1","1,0.7,0,1,0.7,0,0.7,0,1","0,1,0.7,0,1,0.7,1,0.7,0","3",""
"","html-keyboard-response","350","335007","0.0-439.0","3EWIJTFFVPTA5HW56M3XAHRFWH0E0N","A16ENVVHDK1LQQ","3S1L4CQSFXRWQOWP2XFUSMS4AZDFAL","","null","<img src=""img/food3.png"" style=""width:200px;border:14px solid red;"">","null","","","","","","","","","",""
"","image-keyboard-response","351","335090","0.0-440.0","3EWIJTFFVPTA5HW56M3XAHRFWH0E0N","A16ENVVHDK1LQQ","3S1L4CQSFXRWQOWP2XFUSMS4AZDFAL","","80","img/food1.png","75","82","2","1","","1","1","1,0.7,0,1,0.7,0,0.7,0,1","0,1,0.7,0,1,0.7,1,0.7,0","3",""
"","html-keyboard-response","352","335394","0.0-441.0","3EWIJTFFVPTA5HW56M3XAHRFWH0E0N","A16ENVVHDK1LQQ","3S1L4CQSFXRWQOWP2XFUSMS4AZDFAL","","null","<img src=""img/food1.png"" style=""width:200px; border:14px solid green;"">","null","","","","","","","","","",""
"","image-keyboard-response","353","335571","0.0-442.0","3EWIJTFFVPTA5HW56M3XAHRFWH0E0N","A16ENVVHDK1LQQ","3S1L4CQSFXRWQOWP2XFUSMS4AZDFAL","","175","img/food1.png","76","177","3","0","","1","1","1,0.7,0,1,0.7,0,0.7,0,1","0,1,0.7,0,1,0.7,1,0.7,0","3",""
"","html-keyboard-response","354","335873","0.0-443.0","3EWIJTFFVPTA5HW56M3XAHRFWH0E0N","A16ENVVHDK1LQQ","3S1L4CQSFXRWQOWP2XFUSMS4AZDFAL","","null","<img src=""img/food1.png"" style=""width:200px;border:14px solid red;"">","null","","","","","","","","","",""
"","image-keyboard-response","355","335890","0.0-444.0","3EWIJTFFVPTA5HW56M3XAHRFWH0E0N","A16ENVVHDK1LQQ","3S1L4CQSFXRWQOWP2XFUSMS4AZDFAL","","15","img/food1.png","75","17","2","1","","1","1","1,0.7,0,1,0.7,0,0.7,0,1","0,1,0.7,0,1,0.7,1,0.7,0","3",""
"","html-keyboard-response","356","336192","0.0-445.0","3EWIJTFFVPTA5HW56M3XAHRFWH0E0N","A16ENVVHDK1LQQ","3S1L4CQSFXRWQOWP2XFUSMS4AZDFAL","","null","<img src=""img/food1.png"" style=""width:200px; border:14px solid green;"">","null","","","","","","","","","",""
"","image-keyboard-response","357","336341","0.0-446.0","3EWIJTFFVPTA5HW56M3XAHRFWH0E0N","A16ENVVHDK1LQQ","3S1L4CQSFXRWQOWP2XFUSMS4AZDFAL","","146","img/food3.png","76","148","3","1","","2","1","1,0.7,0,1,0.7,0,0.7,0,1","0,1,0.7,0,1,0.7,1,0.7,0","3",""
"","html-keyboard-response","358","336646","0.0-447.0","3EWIJTFFVPTA5HW56M3XAHRFWH0E0N","A16ENVVHDK1LQQ","3S1L4CQSFXRWQOWP2XFUSMS4AZDFAL","","null","<img src=""img/food3.png"" style=""width:200px; border:14px solid green;"">","null","","","","","","","","","",""
"","image-keyboard-response","359","336700","0.0-448.0","3EWIJTFFVPTA5HW56M3XAHRFWH0E0N","A16ENVVHDK1LQQ","3S1L4CQSFXRWQOWP2XFUSMS4AZDFAL","","52","img/food1.png","75","53","2","1","","1","1","1,0.7,0,1,0.7,0,0.7,0,1","0,1,0.7,0,1,0.7,1,0.7,0","3",""
"","html-keyboard-response","360","337003","0.0-449.0","3EWIJTFFVPTA5HW56M3XAHRFWH0E0N","A16ENVVHDK1LQQ","3S1L4CQSFXRWQOWP2XFUSMS4AZDFAL","","null","<img src=""img/food1.png"" style=""width:200px; border:14px solid green;"">","null","","","","","","","","","",""
"","image-keyboard-response","361","337197","0.0-450.0","3EWIJTFFVPTA5HW56M3XAHRFWH0E0N","A16ENVVHDK1LQQ","3S1L4CQSFXRWQOWP2XFUSMS4AZDFAL","","191","img/food1.png","76","193","3","0","","1","1","1,0.7,0,1,0.7,0,0.7,0,1","0,1,0.7,0,1,0.7,1,0.7,0","3",""
"","html-keyboard-response","362","337499","0.0-451.0","3EWIJTFFVPTA5HW56M3XAHRFWH0E0N","A16ENVVHDK1LQQ","3S1L4CQSFXRWQOWP2XFUSMS4AZDFAL","","null","<img src=""img/food1.png"" style=""width:200px;border:14px solid red;"">","null","","","","","","","","","",""
"","image-keyboard-response","363","337524","0.0-452.0","3EWIJTFFVPTA5HW56M3XAHRFWH0E0N","A16ENVVHDK1LQQ","3S1L4CQSFXRWQOWP2XFUSMS4AZDFAL","","23","img/food1.png","74","25","1","0","","1","1","1,0.7,0,1,0.7,0,0.7,0,1","0,1,0.7,0,1,0.7,1,0.7,0","3",""
"","html-keyboard-response","364","337830","0.0-453.0","3EWIJTFFVPTA5HW56M3XAHRFWH0E0N","A16ENVVHDK1LQQ","3S1L4CQSFXRWQOWP2XFUSMS4AZDFAL","","null","<img src=""img/food1.png"" style=""width:200px;border:14px solid red;"">","null","","","","","","","","","",""
"","html-keyboard-response","365","340507","0.0-454.0","3EWIJTFFVPTA5HW56M3XAHRFWH0E0N","A16ENVVHDK1LQQ","3S1L4CQSFXRWQOWP2XFUSMS4AZDFAL","","","","","","","","","","","","","",""
"","instructions","366","341341","0.0-455.0","3EWIJTFFVPTA5HW56M3XAHRFWH0E0N","A16ENVVHDK1LQQ","3S1L4CQSFXRWQOWP2XFUSMS4AZDFAL","[{""page_index"":0,""viewing_time"":830}]","831","","","","","","","","","","","",""
"","survey-text","367","352022","0.0-456.0","3EWIJTFFVPTA5HW56M3XAHRFWH0E0N","A16ENVVHDK1LQQ","3S1L4CQSFXRWQOWP2XFUSMS4AZDFAL","","10665","","","","","","","","","","","","{""Q0"":""A16ENVVHDK1LQQ""}"
