"success","trial_type","trial_index","time_elapsed","internal_node_id","assignmentID","mturkID","hitID","view_history","rt","stimulus","key_press","reactionTime","a","r","warning","s","cond","reward_cond","reward_cond_actual","reward_matrix_idx","responses"
"true","fullscreen","0","3969","0.0-0.0","","","","","","","","","","","","","","","","",""
"","instructions","1","119219","0.0-1.0","","","","[{""page_index"":0,""viewing_time"":84392},{""page_index"":1,""viewing_time"":1798},{""page_index"":2,""viewing_time"":1172},{""page_index"":3,""viewing_time"":2710},{""page_index"":4,""viewing_time"":15339},{""page_index"":5,""viewing_time"":7968},{""page_index"":6,""viewing_time"":1867}]","115248","","","","","","","","","","","",""
"","instructions","2","144895","0.0-2.0","","","","[{""page_index"":0,""viewing_time"":21239},{""page_index"":1,""viewing_time"":4434}]","25673","","","","","","","","","","","",""
"","image-keyboard-response","3","145901","0.0-3.0","","","","","","img/food6.png","","1004","-1","0","true","3","2","1,0.7,0,1,0.7,0,0.7,0,1","1,0.7,0,1,0.7,0,0.7,0,1","1",""
"","html-keyboard-response","4","146205","0.0-4.0","","","","","null","<img src=""img/food6.png"" style=""width:200px;border:14px solid red;"">","null","","","","","","","","","",""
"","html-keyboard-response","5","159823","0.0-5.0-0.0","","","","","","","","","","","","","","","","",""
"","image-keyboard-response","6","160437","0.0-6.0","","","","","608","img/food4.png","74","613","1","1","false","2","2","1,0.7,0,1,0.7,0,0.7,0,1","1,0.7,0,1,0.7,0,0.7,0,1","1",""
"","html-keyboard-response","7","160742","0.0-7.0","","","","","null","<img src=""img/food4.png"" style=""width:200px; border:14px solid green;"">","null","","","","","","","","","",""
"","image-keyboard-response","8","160886","0.0-9.0","","","","","142","img/food6.png","75","143","2","0","false","3","2","1,0.7,0,1,0.7,0,0.7,0,1","1,0.7,0,1,0.7,0,0.7,0,1","1",""
"","html-keyboard-response","9","161190","0.0-10.0","","","","","null","<img src=""img/food6.png"" style=""width:200px;border:14px solid red;"">","null","","","","","","","","","",""
"","image-keyboard-response","10","161418","0.0-12.0","","","","","220","img/food6.png","75","225","2","0","false","3","2","1,0.7,0,1,0.7,0,0.7,0,1","1,0.7,0,1,0.7,0,0.7,0,1","1",""
"","html-keyboard-response","11","161725","0.0-13.0","","","","","null","<img src=""img/food6.png"" style=""width:200px;border:14px solid red;"">","null","","","","","","","","","",""
"","image-keyboard-response","12","161757","0.0-15.0","","","","","27","img/food4.png","74","29","1","1","false","2","2","1,0.7,0,1,0.7,0,0.7,0,1","1,0.7,0,1,0.7,0,0.7,0,1","1",""
"","html-keyboard-response","13","162059","0.0-16.0","","","","","null","<img src=""img/food4.png"" style=""width:200px; border:14px solid green;"">","null","","","","","","","","","",""
"","image-keyboard-response","14","162162","0.0-18.0","","","","","101","img/food2.png","74","102","1","1","false","1","2","1,0.7,0,1,0.7,0,0.7,0,1","1,0.7,0,1,0.7,0,0.7,0,1","1",""
"","html-keyboard-response","15","162466","0.0-19.0","","","","","null","<img src=""img/food2.png"" style=""width:200px; border:14px solid green;"">","null","","","","","","","","","",""
"","image-keyboard-response","16","162619","0.0-21.0","","","","","149","img/food6.png","74","152","1","1","false","3","2","1,0.7,0,1,0.7,0,0.7,0,1","1,0.7,0,1,0.7,0,0.7,0,1","1",""
"","html-keyboard-response","17","162920","0.0-22.0","","","","","null","<img src=""img/food6.png"" style=""width:200px; border:14px solid green;"">","null","","","","","","","","","",""
"","image-keyboard-response","18","163085","0.0-24.0","","","","","162","img/food2.png","74","164","1","1","false","1","2","1,0.7,0,1,0.7,0,0.7,0,1","1,0.7,0,1,0.7,0,0.7,0,1","1",""
"","html-keyboard-response","19","163388","0.0-25.0","","","","","null","<img src=""img/food2.png"" style=""width:200px; border:14px solid green;"">","null","","","","","","","","","",""
"","image-keyboard-response","20","163466","0.0-27.0","","","","","77","img/food4.png","75","79","2","1","false","2","2","1,0.7,0,1,0.7,0,0.7,0,1","1,0.7,0,1,0.7,0,0.7,0,1","1",""
"","html-keyboard-response","21","163769","0.0-28.0","","","","","null","<img src=""img/food4.png"" style=""width:200px; border:14px solid green;"">","null","","","","","","","","","",""
"","image-keyboard-response","22","163941","0.0-30.0","","","","","169","img/food6.png","74","171","1","1","false","3","2","1,0.7,0,1,0.7,0,0.7,0,1","1,0.7,0,1,0.7,0,0.7,0,1","1",""
"","html-keyboard-response","23","164245","0.0-31.0","","","","","null","<img src=""img/food6.png"" style=""width:200px; border:14px solid green;"">","null","","","","","","","","","",""
"","image-keyboard-response","24","164388","0.0-33.0","","","","","140","img/food2.png","74","141","1","1","false","1","2","1,0.7,0,1,0.7,0,0.7,0,1","1,0.7,0,1,0.7,0,0.7,0,1","1",""
"","html-keyboard-response","25","164690","0.0-34.0","","","","","null","<img src=""img/food2.png"" style=""width:200px; border:14px solid green;"">","null","","","","","","","","","",""
"","image-keyboard-response","26","164813","0.0-36.0","","","","","118","img/food4.png","74","120","1","1","false","2","2","1,0.7,0,1,0.7,0,0.7,0,1","1,0.7,0,1,0.7,0,0.7,0,1","1",""
"","html-keyboard-response","27","165116","0.0-37.0","","","","","null","<img src=""img/food4.png"" style=""width:200px; border:14px solid green;"">","null","","","","","","","","","",""
"","image-keyboard-response","28","165216","0.0-39.0","","","","","97","img/food6.png","74","99","1","0","false","3","2","1,0.7,0,1,0.7,0,0.7,0,1","1,0.7,0,1,0.7,0,0.7,0,1","1",""
"","html-keyboard-response","29","165521","0.0-40.0","","","","","null","<img src=""img/food6.png"" style=""width:200px;border:14px solid red;"">","null","","","","","","","","","",""
"","image-keyboard-response","30","165595","0.0-42.0","","","","","71","img/food4.png","75","72","2","1","false","2","2","1,0.7,0,1,0.7,0,0.7,0,1","1,0.7,0,1,0.7,0,0.7,0,1","1",""
"","html-keyboard-response","31","165895","0.0-43.0","","","","","null","<img src=""img/food4.png"" style=""width:200px; border:14px solid green;"">","null","","","","","","","","","",""
"","image-keyboard-response","32","165981","0.0-45.0","","","","","81","img/food2.png","74","82","1","1","false","1","2","1,0.7,0,1,0.7,0,0.7,0,1","1,0.7,0,1,0.7,0,0.7,0,1","1",""
"","html-keyboard-response","33","166284","0.0-46.0","","","","","null","<img src=""img/food2.png"" style=""width:200px; border:14px solid green;"">","null","","","","","","","","","",""
"","image-keyboard-response","34","166419","0.0-48.0","","","","","133","img/food6.png","74","134","1","1","false","3","2","1,0.7,0,1,0.7,0,0.7,0,1","1,0.7,0,1,0.7,0,0.7,0,1","1",""
"","html-keyboard-response","35","166721","0.0-49.0","","","","","null","<img src=""img/food6.png"" style=""width:200px; border:14px solid green;"">","null","","","","","","","","","",""
"","image-keyboard-response","36","166812","0.0-51.0","","","","","89","img/food4.png","75","91","2","1","false","2","2","1,0.7,0,1,0.7,0,0.7,0,1","1,0.7,0,1,0.7,0,0.7,0,1","1",""
"","html-keyboard-response","37","167116","0.0-52.0","","","","","null","<img src=""img/food4.png"" style=""width:200px; border:14px solid green;"">","null","","","","","","","","","",""
"","image-keyboard-response","38","167251","0.0-54.0","","","","","133","img/food6.png","75","134","2","0","false","3","2","1,0.7,0,1,0.7,0,0.7,0,1","1,0.7,0,1,0.7,0,0.7,0,1","1",""
"","html-keyboard-response","39","167555","0.0-55.0","","","","","null","<img src=""img/food6.png"" style=""width:200px;border:14px solid red;"">","null","","","","","","","","","",""
"","image-keyboard-response","40","167662","0.0-57.0","","","","","102","img/food6.png","75","104","2","0","false","3","2","1,0.7,0,1,0.7,0,0.7,0,1","1,0.7,0,1,0.7,0,0.7,0,1","1",""
"","html-keyboard-response","41","167966","0.0-58.0","","","","","null","<img src=""img/food6.png"" style=""width:200px;border:14px solid red;"">","null","","","","","","","","","",""
"","image-keyboard-response","42","168115","0.0-60.0","","","","","143","img/food2.png","75","146","2","1","false","1","2","1,0.7,0,1,0.7,0,0.7,0,1","1,0.7,0,1,0.7,0,0.7,0,1","1",""
"","html-keyboard-response","43","168420","0.0-61.0","","","","","null","<img src=""img/food2.png"" style=""width:200px; border:14px solid green;"">","null","","","","","","","","","",""
"","image-keyboard-response","44","168423","0.0-63.0","","","","","0","img/food4.png","74","2","1","1","false","2","2","1,0.7,0,1,0.7,0,0.7,0,1","1,0.7,0,1,0.7,0,0.7,0,1","1",""
"","html-keyboard-response","45","168726","0.0-64.0","","","","","null","<img src=""img/food4.png"" style=""width:200px; border:14px solid green;"">","null","","","","","","","","","",""
"","image-keyboard-response","46","168878","0.0-66.0","","","","","150","img/food2.png","74","151","1","1","false","1","2","1,0.7,0,1,0.7,0,0.7,0,1","1,0.7,0,1,0.7,0,0.7,0,1","1",""
"","html-keyboard-response","47","169183","0.0-67.0","","","","","null","<img src=""img/food2.png"" style=""width:200px; border:14px solid green;"">","null","","","","","","","","","",""
"","image-keyboard-response","48","169349","0.0-69.0","","","","","160","img/food2.png","74","163","1","1","false","1","2","1,0.7,0,1,0.7,0,0.7,0,1","1,0.7,0,1,0.7,0,0.7,0,1","1",""
"","html-keyboard-response","49","169656","0.0-70.0","","","","","null","<img src=""img/food2.png"" style=""width:200px; border:14px solid green;"">","null","","","","","","","","","",""
"","image-keyboard-response","50","169795","0.0-72.0","","","","","135","img/food4.png","74","137","1","1","false","2","2","1,0.7,0,1,0.7,0,0.7,0,1","1,0.7,0,1,0.7,0,0.7,0,1","1",""
"","html-keyboard-response","51","170096","0.0-73.0","","","","","null","<img src=""img/food4.png"" style=""width:200px; border:14px solid green;"">","null","","","","","","","","","",""
"","image-keyboard-response","52","170354","0.0-75.0","","","","","249","img/food6.png","74","252","1","1","false","3","2","1,0.7,0,1,0.7,0,0.7,0,1","1,0.7,0,1,0.7,0,0.7,0,1","1",""
"","html-keyboard-response","53","170660","0.0-76.0","","","","","null","<img src=""img/food6.png"" style=""width:200px; border:14px solid green;"">","null","","","","","","","","","",""
"","image-keyboard-response","54","170758","0.0-78.0","","","","","96","img/food2.png","74","97","1","1","false","1","2","1,0.7,0,1,0.7,0,0.7,0,1","1,0.7,0,1,0.7,0,0.7,0,1","1",""
"","html-keyboard-response","55","171058","0.0-79.0","","","","","null","<img src=""img/food2.png"" style=""width:200px; border:14px solid green;"">","null","","","","","","","","","",""
"","image-keyboard-response","56","171457","0.0-81.0","","","","","395","img/food4.png","74","396","1","1","false","2","2","1,0.7,0,1,0.7,0,0.7,0,1","1,0.7,0,1,0.7,0,0.7,0,1","1",""
"","html-keyboard-response","57","171761","0.0-82.0","","","","","null","<img src=""img/food4.png"" style=""width:200px; border:14px solid green;"">","null","","","","","","","","","",""
"","image-keyboard-response","58","171887","0.0-84.0","","","","","121","img/food6.png","74","124","1","1","false","3","2","1,0.7,0,1,0.7,0,0.7,0,1","1,0.7,0,1,0.7,0,0.7,0,1","1",""
"","html-keyboard-response","59","172190","0.0-85.0","","","","","null","<img src=""img/food6.png"" style=""width:200px; border:14px solid green;"">","null","","","","","","","","","",""
"","image-keyboard-response","60","172388","0.0-87.0","","","","","195","img/food6.png","74","197","1","1","false","3","2","1,0.7,0,1,0.7,0,0.7,0,1","1,0.7,0,1,0.7,0,0.7,0,1","1",""
"","html-keyboard-response","61","172691","0.0-88.0","","","","","null","<img src=""img/food6.png"" style=""width:200px; border:14px solid green;"">","null","","","","","","","","","",""
"","image-keyboard-response","62","173255","0.0-90.0","","","","","560","img/food4.png","74","562","1","1","false","2","2","1,0.7,0,1,0.7,0,0.7,0,1","1,0.7,0,1,0.7,0,0.7,0,1","1",""
"","html-keyboard-response","63","173560","0.0-91.0","","","","","null","<img src=""img/food4.png"" style=""width:200px; border:14px solid green;"">","null","","","","","","","","","",""
"","image-keyboard-response","64","173691","0.0-93.0","","","","","126","img/food6.png","74","130","1","1","false","3","2","1,0.7,0,1,0.7,0,0.7,0,1","1,0.7,0,1,0.7,0,0.7,0,1","1",""
"","html-keyboard-response","65","174035","0.0-94.0","","","","","null","<img src=""img/food6.png"" style=""width:200px; border:14px solid green;"">","null","","","","","","","","","",""
"","image-keyboard-response","66","174123","0.0-96.0","","","","","88","img/food2.png","75","89","2","0","false","1","2","1,0.7,0,1,0.7,0,0.7,0,1","1,0.7,0,1,0.7,0,0.7,0,1","1",""
"","html-keyboard-response","67","174425","0.0-97.0","","","","","null","<img src=""img/food2.png"" style=""width:200px;border:14px solid red;"">","null","","","","","","","","","",""
"","image-keyboard-response","68","174582","0.0-99.0","","","","","153","img/food2.png","75","155","2","0","false","1","2","1,0.7,0,1,0.7,0,0.7,0,1","1,0.7,0,1,0.7,0,0.7,0,1","1",""
"","html-keyboard-response","69","174884","0.0-100.0","","","","","null","<img src=""img/food2.png"" style=""width:200px;border:14px solid red;"">","null","","","","","","","","","",""
"","image-keyboard-response","70","175105","0.0-102.0","","","","","218","img/food6.png","74","219","1","0","false","3","2","1,0.7,0,1,0.7,0,0.7,0,1","1,0.7,0,1,0.7,0,0.7,0,1","1",""
"","html-keyboard-response","71","175409","0.0-103.0","","","","","null","<img src=""img/food6.png"" style=""width:200px;border:14px solid red;"">","null","","","","","","","","","",""
"","image-keyboard-response","72","175454","0.0-105.0","","","","","43","img/food2.png","75","44","2","1","false","1","2","1,0.7,0,1,0.7,0,0.7,0,1","1,0.7,0,1,0.7,0,0.7,0,1","1",""
"","html-keyboard-response","73","175759","0.0-106.0","","","","","null","<img src=""img/food2.png"" style=""width:200px; border:14px solid green;"">","null","","","","","","","","","",""
"","image-keyboard-response","74","175947","0.0-108.0","","","","","181","img/food6.png","74","184","1","0","false","3","2","1,0.7,0,1,0.7,0,0.7,0,1","1,0.7,0,1,0.7,0,0.7,0,1","1",""
"","html-keyboard-response","75","176251","0.0-109.0","","","","","null","<img src=""img/food6.png"" style=""width:200px;border:14px solid red;"">","null","","","","","","","","","",""
"","image-keyboard-response","76","176422","0.0-111.0","","","","","169","img/food4.png","74","170","1","1","false","2","2","1,0.7,0,1,0.7,0,0.7,0,1","1,0.7,0,1,0.7,0,0.7,0,1","1",""
"","html-keyboard-response","77","176724","0.0-112.0","","","","","null","<img src=""img/food4.png"" style=""width:200px; border:14px solid green;"">","null","","","","","","","","","",""
"","image-keyboard-response","78","176895","0.0-114.0","","","","","167","img/food2.png","74","169","1","1","false","1","2","1,0.7,0,1,0.7,0,0.7,0,1","1,0.7,0,1,0.7,0,0.7,0,1","1",""
"","html-keyboard-response","79","177198","0.0-115.0","","","","","null","<img src=""img/food2.png"" style=""width:200px; border:14px solid green;"">","null","","","","","","","","","",""
"","image-keyboard-response","80","177201","0.0-117.0","","","","","0","img/food4.png","74","1","1","1","false","2","2","1,0.7,0,1,0.7,0,0.7,0,1","1,0.7,0,1,0.7,0,0.7,0,1","1",""
"","html-keyboard-response","81","177505","0.0-118.0","","","","","null","<img src=""img/food4.png"" style=""width:200px; border:14px solid green;"">","null","","","","","","","","","",""
"","image-keyboard-response","82","177705","0.0-120.0","","","","","195","img/food4.png","75","197","2","1","false","2","2","1,0.7,0,1,0.7,0,0.7,0,1","1,0.7,0,1,0.7,0,0.7,0,1","1",""
"","html-keyboard-response","83","178009","0.0-121.0","","","","","null","<img src=""img/food4.png"" style=""width:200px; border:14px solid green;"">","null","","","","","","","","","",""
"","image-keyboard-response","84","178271","0.0-123.0","","","","","258","img/food4.png","74","260","1","1","false","2","2","1,0.7,0,1,0.7,0,0.7,0,1","1,0.7,0,1,0.7,0,0.7,0,1","1",""
"","html-keyboard-response","85","178574","0.0-124.0","","","","","null","<img src=""img/food4.png"" style=""width:200px; border:14px solid green;"">","null","","","","","","","","","",""
"","image-keyboard-response","86","178845","0.0-126.0","","","","","267","img/food4.png","74","270","1","1","false","2","2","1,0.7,0,1,0.7,0,0.7,0,1","1,0.7,0,1,0.7,0,0.7,0,1","1",""
"","html-keyboard-response","87","179146","0.0-127.0","","","","","null","<img src=""img/food4.png"" style=""width:200px; border:14px solid green;"">","null","","","","","","","","","",""
"","image-keyboard-response","88","179342","0.0-129.0","","","","","192","img/food2.png","74","195","1","1","false","1","2","1,0.7,0,1,0.7,0,0.7,0,1","1,0.7,0,1,0.7,0,0.7,0,1","1",""
"","html-keyboard-response","89","179644","0.0-130.0","","","","","null","<img src=""img/food2.png"" style=""width:200px; border:14px solid green;"">","null","","","","","","","","","",""
"","image-keyboard-response","90","179855","0.0-132.0","","","","","206","img/food6.png","74","208","1","0","false","3","2","1,0.7,0,1,0.7,0,0.7,0,1","1,0.7,0,1,0.7,0,0.7,0,1","1",""
"","html-keyboard-response","91","180158","0.0-133.0","","","","","null","<img src=""img/food6.png"" style=""width:200px;border:14px solid red;"">","null","","","","","","","","","",""
"","image-keyboard-response","92","180380","0.0-135.0","","","","","219","img/food2.png","75","220","2","0","false","1","2","1,0.7,0,1,0.7,0,0.7,0,1","1,0.7,0,1,0.7,0,0.7,0,1","1",""
"","html-keyboard-response","93","180682","0.0-136.0","","","","","null","<img src=""img/food2.png"" style=""width:200px;border:14px solid red;"">","null","","","","","","","","","",""
"","image-keyboard-response","94","180829","0.0-138.0","","","","","145","img/food6.png","75","146","2","0","false","3","2","1,0.7,0,1,0.7,0,0.7,0,1","1,0.7,0,1,0.7,0,0.7,0,1","1",""
"","html-keyboard-response","95","181132","0.0-139.0","","","","","null","<img src=""img/food6.png"" style=""width:200px;border:14px solid red;"">","null","","","","","","","","","",""
"","image-keyboard-response","96","181246","0.0-141.0","","","","","110","img/food6.png","74","112","1","0","false","3","2","1,0.7,0,1,0.7,0,0.7,0,1","1,0.7,0,1,0.7,0,0.7,0,1","1",""
"","html-keyboard-response","97","181548","0.0-142.0","","","","","null","<img src=""img/food6.png"" style=""width:200px;border:14px solid red;"">","null","","","","","","","","","",""
"","image-keyboard-response","98","181563","0.0-144.0","","","","","13","img/food6.png","75","14","2","0","false","3","2","1,0.7,0,1,0.7,0,0.7,0,1","1,0.7,0,1,0.7,0,0.7,0,1","1",""
"","html-keyboard-response","99","181866","0.0-145.0","","","","","null","<img src=""img/food6.png"" style=""width:200px;border:14px solid red;"">","null","","","","","","","","","",""
"","image-keyboard-response","100","182150","0.0-147.0","","","","","282","img/food4.png","74","284","1","1","false","2","2","1,0.7,0,1,0.7,0,0.7,0,1","1,0.7,0,1,0.7,0,0.7,0,1","1",""
"","html-keyboard-response","101","182452","0.0-148.0","","","","","null","<img src=""img/food4.png"" style=""width:200px; border:14px solid green;"">","null","","","","","","","","","",""
"","image-keyboard-response","102","182685","0.0-150.0","","","","","228","img/food2.png","75","231","2","0","false","1","2","1,0.7,0,1,0.7,0,0.7,0,1","1,0.7,0,1,0.7,0,0.7,0,1","1",""
"","html-keyboard-response","103","182988","0.0-151.0","","","","","null","<img src=""img/food2.png"" style=""width:200px;border:14px solid red;"">","null","","","","","","","","","",""
"","image-keyboard-response","104","183166","0.0-153.0","","","","","177","img/food6.png","74","178","1","1","false","3","2","1,0.7,0,1,0.7,0,0.7,0,1","1,0.7,0,1,0.7,0,0.7,0,1","1",""
"","html-keyboard-response","105","183471","0.0-154.0","","","","","null","<img src=""img/food6.png"" style=""width:200px; border:14px solid green;"">","null","","","","","","","","","",""
"","image-keyboard-response","106","183734","0.0-156.0","","","","","257","img/food2.png","75","260","2","0","false","1","2","1,0.7,0,1,0.7,0,0.7,0,1","1,0.7,0,1,0.7,0,0.7,0,1","1",""
"","html-keyboard-response","107","184037","0.0-157.0","","","","","null","<img src=""img/food2.png"" style=""width:200px;border:14px solid red;"">","null","","","","","","","","","",""
"","image-keyboard-response","108","184253","0.0-159.0","","","","","214","img/food4.png","74","215","1","1","false","2","2","1,0.7,0,1,0.7,0,0.7,0,1","1,0.7,0,1,0.7,0,0.7,0,1","1",""
"","html-keyboard-response","109","184556","0.0-160.0","","","","","null","<img src=""img/food4.png"" style=""width:200px; border:14px solid green;"">","null","","","","","","","","","",""
"","image-keyboard-response","110","184562","0.0-162.0","","","","","0","img/food4.png","74","3","1","1","false","2","2","1,0.7,0,1,0.7,0,0.7,0,1","1,0.7,0,1,0.7,0,0.7,0,1","1",""
"","html-keyboard-response","111","184866","0.0-163.0","","","","","null","<img src=""img/food4.png"" style=""width:200px; border:14px solid green;"">","null","","","","","","","","","",""
"","image-keyboard-response","112","185100","0.0-165.0","","","","","233","img/food2.png","75","233","2","1","false","1","2","1,0.7,0,1,0.7,0,0.7,0,1","1,0.7,0,1,0.7,0,0.7,0,1","1",""
"","html-keyboard-response","113","185403","0.0-166.0","","","","","null","<img src=""img/food2.png"" style=""width:200px; border:14px solid green;"">","null","","","","","","","","","",""
"","image-keyboard-response","114","185685","0.0-168.0","","","","","278","img/food2.png","75","281","2","0","false","1","2","1,0.7,0,1,0.7,0,0.7,0,1","1,0.7,0,1,0.7,0,0.7,0,1","1",""
"","html-keyboard-response","115","185994","0.0-169.0","","","","","null","<img src=""img/food2.png"" style=""width:200px;border:14px solid red;"">","null","","","","","","","","","",""
"","image-keyboard-response","116","186348","0.0-171.0","","","","","351","img/food2.png","75","353","2","1","false","1","2","1,0.7,0,1,0.7,0,0.7,0,1","1,0.7,0,1,0.7,0,0.7,0,1","1",""
"","html-keyboard-response","117","186650","0.0-172.0","","","","","null","<img src=""img/food2.png"" style=""width:200px; border:14px solid green;"">","null","","","","","","","","","",""
"","image-keyboard-response","118","186778","0.0-174.0","","","","","126","img/food6.png","74","127","1","1","false","3","2","1,0.7,0,1,0.7,0,0.7,0,1","1,0.7,0,1,0.7,0,0.7,0,1","1",""
"","html-keyboard-response","119","187079","0.0-175.0","","","","","null","<img src=""img/food6.png"" style=""width:200px; border:14px solid green;"">","null","","","","","","","","","",""
"","image-keyboard-response","120","187318","0.0-177.0","","","","","232","img/food4.png","75","235","2","1","false","2","2","1,0.7,0,1,0.7,0,0.7,0,1","1,0.7,0,1,0.7,0,0.7,0,1","1",""
"","html-keyboard-response","121","187622","0.0-178.0","","","","","null","<img src=""img/food4.png"" style=""width:200px; border:14px solid green;"">","null","","","","","","","","","",""
"","image-keyboard-response","122","187823","0.0-180.0","","","","","197","img/food6.png","74","198","1","1","false","3","2","1,0.7,0,1,0.7,0,0.7,0,1","1,0.7,0,1,0.7,0,0.7,0,1","1",""
"","html-keyboard-response","123","188130","0.0-181.0","","","","","null","<img src=""img/food6.png"" style=""width:200px; border:14px solid green;"">","null","","","","","","","","","",""
"","image-keyboard-response","124","188276","0.0-183.0","","","","","140","img/food2.png","74","143","1","1","false","1","2","1,0.7,0,1,0.7,0,0.7,0,1","1,0.7,0,1,0.7,0,0.7,0,1","1",""
"","html-keyboard-response","125","188578","0.0-184.0","","","","","null","<img src=""img/food2.png"" style=""width:200px; border:14px solid green;"">","null","","","","","","","","","",""
"","image-keyboard-response","126","188614","0.0-186.0","","","","","33","img/food6.png","74","35","1","1","false","3","2","1,0.7,0,1,0.7,0,0.7,0,1","1,0.7,0,1,0.7,0,0.7,0,1","1",""
"","html-keyboard-response","127","188916","0.0-187.0","","","","","null","<img src=""img/food6.png"" style=""width:200px; border:14px solid green;"">","null","","","","","","","","","",""
"","image-keyboard-response","128","189206","0.0-189.0","","","","","289","img/food4.png","75","291","2","1","false","2","2","1,0.7,0,1,0.7,0,0.7,0,1","1,0.7,0,1,0.7,0,0.7,0,1","1",""
"","html-keyboard-response","129","189508","0.0-190.0","","","","","null","<img src=""img/food4.png"" style=""width:200px; border:14px solid green;"">","null","","","","","","","","","",""
"","image-keyboard-response","130","189808","0.0-192.0","","","","","296","img/food2.png","74","298","1","1","false","1","2","1,0.7,0,1,0.7,0,0.7,0,1","1,0.7,0,1,0.7,0,0.7,0,1","1",""
"","html-keyboard-response","131","190112","0.0-193.0","","","","","null","<img src=""img/food2.png"" style=""width:200px; border:14px solid green;"">","null","","","","","","","","","",""
"","image-keyboard-response","132","190241","0.0-195.0","","","","","126","img/food4.png","75","127","2","1","false","2","2","1,0.7,0,1,0.7,0,0.7,0,1","1,0.7,0,1,0.7,0,0.7,0,1","1",""
"","html-keyboard-response","133","190546","0.0-196.0","","","","","null","<img src=""img/food4.png"" style=""width:200px; border:14px solid green;"">","null","","","","","","","","","",""
"","image-keyboard-response","134","190875","0.0-198.0","","","","","325","img/food4.png","75","326","2","1","false","2","2","1,0.7,0,1,0.7,0,0.7,0,1","1,0.7,0,1,0.7,0,0.7,0,1","1",""
"","html-keyboard-response","135","191180","0.0-199.0","","","","","null","<img src=""img/food4.png"" style=""width:200px; border:14px solid green;"">","null","","","","","","","","","",""
"","image-keyboard-response","136","191238","0.0-201.0","","","","","55","img/food4.png","74","57","1","1","false","2","2","1,0.7,0,1,0.7,0,0.7,0,1","1,0.7,0,1,0.7,0,0.7,0,1","1",""
"","html-keyboard-response","137","191540","0.0-202.0","","","","","null","<img src=""img/food4.png"" style=""width:200px; border:14px solid green;"">","null","","","","","","","","","",""
"","image-keyboard-response","138","191698","0.0-204.0","","","","","155","img/food2.png","75","157","2","0","false","1","2","1,0.7,0,1,0.7,0,0.7,0,1","1,0.7,0,1,0.7,0,0.7,0,1","1",""
"","html-keyboard-response","139","192002","0.0-205.0","","","","","null","<img src=""img/food2.png"" style=""width:200px;border:14px solid red;"">","null","","","","","","","","","",""
"","image-keyboard-response","140","192013","0.0-207.0","","","","","7","img/food2.png","75","8","2","1","false","1","2","1,0.7,0,1,0.7,0,0.7,0,1","1,0.7,0,1,0.7,0,0.7,0,1","1",""
"","html-keyboard-response","141","192314","0.0-208.0","","","","","null","<img src=""img/food2.png"" style=""width:200px; border:14px solid green;"">","null","","","","","","","","","",""
"","image-keyboard-response","142","192553","0.0-210.0","","","","","234","img/food4.png","74","237","1","1","false","2","2","1,0.7,0,1,0.7,0,0.7,0,1","1,0.7,0,1,0.7,0,0.7,0,1","1",""
"","html-keyboard-response","143","192858","0.0-211.0","","","","","null","<img src=""img/food4.png"" style=""width:200px; border:14px solid green;"">","null","","","","","","","","","",""
"","image-keyboard-response","144","192870","0.0-213.0","","","","","9","img/food2.png","75","11","2","1","false","1","2","1,0.7,0,1,0.7,0,0.7,0,1","1,0.7,0,1,0.7,0,0.7,0,1","1",""
"","html-keyboard-response","145","193173","0.0-214.0","","","","","null","<img src=""img/food2.png"" style=""width:200px; border:14px solid green;"">","null","","","","","","","","","",""
"","image-keyboard-response","146","193177","0.0-216.0","","","","","1","img/food6.png","74","2","1","1","false","3","2","1,0.7,0,1,0.7,0,0.7,0,1","1,0.7,0,1,0.7,0,0.7,0,1","1",""
"","html-keyboard-response","147","193481","0.0-217.0","","","","","null","<img src=""img/food6.png"" style=""width:200px; border:14px solid green;"">","null","","","","","","","","","",""
"","image-keyboard-response","148","193509","0.0-219.0","","","","","25","img/food6.png","75","27","2","0","false","3","2","1,0.7,0,1,0.7,0,0.7,0,1","1,0.7,0,1,0.7,0,0.7,0,1","1",""
"","html-keyboard-response","149","193812","0.0-220.0","","","","","null","<img src=""img/food6.png"" style=""width:200px;border:14px solid red;"">","null","","","","","","","","","",""
"","image-keyboard-response","150","194045","0.0-222.0","","","","","229","img/food4.png","74","231","1","1","false","2","2","1,0.7,0,1,0.7,0,0.7,0,1","1,0.7,0,1,0.7,0,0.7,0,1","1",""
"","html-keyboard-response","151","194348","0.0-223.0","","","","","null","<img src=""img/food4.png"" style=""width:200px; border:14px solid green;"">","null","","","","","","","","","",""
"","image-keyboard-response","152","194575","0.0-225.0","","","","","216","img/food6.png","75","221","2","0","false","3","2","1,0.7,0,1,0.7,0,0.7,0,1","1,0.7,0,1,0.7,0,0.7,0,1","1",""
"","html-keyboard-response","153","194879","0.0-226.0","","","","","null","<img src=""img/food6.png"" style=""width:200px;border:14px solid red;"">","null","","","","","","","","","",""
"","image-keyboard-response","154","194953","0.0-228.0","","","","","71","img/food4.png","75","73","2","0","false","2","2","1,0.7,0,1,0.7,0,0.7,0,1","1,0.7,0,1,0.7,0,0.7,0,1","1",""
"","html-keyboard-response","155","195255","0.0-229.0","","","","","null","<img src=""img/food4.png"" style=""width:200px;border:14px solid red;"">","null","","","","","","","","","",""
"","image-keyboard-response","156","195323","0.0-231.0","","","","","66","img/food2.png","75","68","2","1","false","1","2","1,0.7,0,1,0.7,0,0.7,0,1","1,0.7,0,1,0.7,0,0.7,0,1","1",""
"","html-keyboard-response","157","195626","0.0-232.0","","","","","null","<img src=""img/food2.png"" style=""width:200px; border:14px solid green;"">","null","","","","","","","","","",""
"","image-keyboard-response","158","195878","0.0-234.0","","","","","248","img/food4.png","74","250","1","1","false","2","2","1,0.7,0,1,0.7,0,0.7,0,1","1,0.7,0,1,0.7,0,0.7,0,1","1",""
"","html-keyboard-response","159","196180","0.0-235.0","","","","","null","<img src=""img/food4.png"" style=""width:200px; border:14px solid green;"">","null","","","","","","","","","",""
"","image-keyboard-response","160","196392","0.0-237.0","","","","","209","img/food6.png","74","211","1","0","false","3","2","1,0.7,0,1,0.7,0,0.7,0,1","1,0.7,0,1,0.7,0,0.7,0,1","1",""
"","html-keyboard-response","161","196695","0.0-238.0","","","","","null","<img src=""img/food6.png"" style=""width:200px;border:14px solid red;"">","null","","","","","","","","","",""
"","image-keyboard-response","162","196916","0.0-240.0","","","","","218","img/food2.png","74","220","1","1","false","1","2","1,0.7,0,1,0.7,0,0.7,0,1","1,0.7,0,1,0.7,0,0.7,0,1","1",""
"","html-keyboard-response","163","197218","0.0-241.0","","","","","null","<img src=""img/food2.png"" style=""width:200px; border:14px solid green;"">","null","","","","","","","","","",""
"","image-keyboard-response","164","197428","0.0-243.0","","","","","206","img/food2.png","75","207","2","1","false","1","2","1,0.7,0,1,0.7,0,0.7,0,1","1,0.7,0,1,0.7,0,0.7,0,1","1",""
"","html-keyboard-response","165","197731","0.0-244.0","","","","","null","<img src=""img/food2.png"" style=""width:200px; border:14px solid green;"">","null","","","","","","","","","",""
"","image-keyboard-response","166","197908","0.0-246.0","","","","","174","img/food6.png","75","176","2","0","false","3","2","1,0.7,0,1,0.7,0,0.7,0,1","1,0.7,0,1,0.7,0,0.7,0,1","1",""
"","html-keyboard-response","167","198225","0.0-247.0","","","","","null","<img src=""img/food6.png"" style=""width:200px;border:14px solid red;"">","null","","","","","","","","","",""
"","image-keyboard-response","168","198240","0.0-249.0","","","","","14","img/food4.png","74","14","1","1","false","2","2","1,0.7,0,1,0.7,0,0.7,0,1","1,0.7,0,1,0.7,0,0.7,0,1","1",""
"","html-keyboard-response","169","198542","0.0-250.0","","","","","null","<img src=""img/food4.png"" style=""width:200px; border:14px solid green;"">","null","","","","","","","","","",""
"","image-keyboard-response","170","198672","0.0-252.0","","","","","128","img/food4.png","74","129","1","1","false","2","2","1,0.7,0,1,0.7,0,0.7,0,1","1,0.7,0,1,0.7,0,0.7,0,1","1",""
"","html-keyboard-response","171","198975","0.0-253.0","","","","","null","<img src=""img/food4.png"" style=""width:200px; border:14px solid green;"">","null","","","","","","","","","",""
"","image-keyboard-response","172","199182","0.0-255.0","","","","","205","img/food4.png","74","206","1","1","false","2","2","1,0.7,0,1,0.7,0,0.7,0,1","1,0.7,0,1,0.7,0,0.7,0,1","1",""
"","html-keyboard-response","173","199486","0.0-256.0","","","","","null","<img src=""img/food4.png"" style=""width:200px; border:14px solid green;"">","null","","","","","","","","","",""
"","image-keyboard-response","174","199662","0.0-258.0","","","","","174","img/food6.png","74","175","1","1","false","3","2","1,0.7,0,1,0.7,0,0.7,0,1","1,0.7,0,1,0.7,0,0.7,0,1","1",""
"","html-keyboard-response","175","199967","0.0-259.0","","","","","null","<img src=""img/food6.png"" style=""width:200px; border:14px solid green;"">","null","","","","","","","","","",""
"","image-keyboard-response","176","200117","0.0-261.0","","","","","142","img/food6.png","74","144","1","1","false","3","2","1,0.7,0,1,0.7,0,0.7,0,1","1,0.7,0,1,0.7,0,0.7,0,1","1",""
"","html-keyboard-response","177","200419","0.0-262.0","","","","","null","<img src=""img/food6.png"" style=""width:200px; border:14px solid green;"">","null","","","","","","","","","",""
"","image-keyboard-response","178","200639","0.0-264.0","","","","","213","img/food2.png","74","216","1","1","false","1","2","1,0.7,0,1,0.7,0,0.7,0,1","1,0.7,0,1,0.7,0,0.7,0,1","1",""
"","html-keyboard-response","179","200941","0.0-265.0","","","","","null","<img src=""img/food2.png"" style=""width:200px; border:14px solid green;"">","null","","","","","","","","","",""
"","image-keyboard-response","180","201134","0.0-267.0","","","","","191","img/food2.png","75","192","2","1","false","1","2","1,0.7,0,1,0.7,0,0.7,0,1","1,0.7,0,1,0.7,0,0.7,0,1","1",""
"","html-keyboard-response","181","201435","0.0-268.0","","","","","null","<img src=""img/food2.png"" style=""width:200px; border:14px solid green;"">","null","","","","","","","","","",""
"","image-keyboard-response","182","201638","0.0-270.0","","","","","201","img/food2.png","74","202","1","1","false","1","2","1,0.7,0,1,0.7,0,0.7,0,1","1,0.7,0,1,0.7,0,0.7,0,1","1",""
"","html-keyboard-response","183","201940","0.0-271.0","","","","","null","<img src=""img/food2.png"" style=""width:200px; border:14px solid green;"">","null","","","","","","","","","",""
"","instructions","184","223043","0.0-273.0","","","","[{""page_index"":0,""viewing_time"":18612},{""page_index"":1,""viewing_time"":2490}]","21103","","","","","","","","","","","",""
"","image-keyboard-response","185","224093","0.0-274.0","","","","","1047","img/food5.png","75","1049","2","0","","2","1","1,0.7,0,1,0.7,0,0.7,0,1","0.7,0,1,0.7,0,1,0,1,0.7","2",""
"","html-keyboard-response","186","224397","0.0-275.0","","","","","null","<img src=""img/food5.png"" style=""width:200px;border:14px solid red;"">","null","","","","","","","","","",""
"","image-keyboard-response","187","224452","0.0-276.0","","","","","53","img/food1.png","75","54","2","1","","3","1","1,0.7,0,1,0.7,0,0.7,0,1","0.7,0,1,0.7,0,1,0,1,0.7","2",""
"","html-keyboard-response","188","224756","0.0-277.0","","","","","null","<img src=""img/food1.png"" style=""width:200px; border:14px solid green;"">","null","","","","","","","","","",""
"","image-keyboard-response","189","224861","0.0-278.0","","","","","101","img/food1.png","74","103","1","0","","3","1","1,0.7,0,1,0.7,0,0.7,0,1","0.7,0,1,0.7,0,1,0,1,0.7","2",""
"","html-keyboard-response","190","225163","0.0-279.0","","","","","null","<img src=""img/food1.png"" style=""width:200px;border:14px solid red;"">","null","","","","","","","","","",""
"","image-keyboard-response","191","225181","0.0-280.0","","","","","16","img/food3.png","75","17","2","0","","1","1","1,0.7,0,1,0.7,0,0.7,0,1","0.7,0,1,0.7,0,1,0,1,0.7","2",""
"","html-keyboard-response","192","225483","0.0-281.0","","","","","null","<img src=""img/food3.png"" style=""width:200px;border:14px solid red;"">","null","","","","","","","","","",""
"","image-keyboard-response","193","225564","0.0-282.0","","","","","78","img/food1.png","76","80","3","1","","3","1","1,0.7,0,1,0.7,0,0.7,0,1","0.7,0,1,0.7,0,1,0,1,0.7","2",""
"","html-keyboard-response","194","225867","0.0-283.0","","","","","null","<img src=""img/food1.png"" style=""width:200px; border:14px solid green;"">","null","","","","","","","","","",""
"","image-keyboard-response","195","225971","0.0-284.0","","","","","101","img/food5.png","75","104","2","0","","2","1","1,0.7,0,1,0.7,0,0.7,0,1","0.7,0,1,0.7,0,1,0,1,0.7","2",""
"","html-keyboard-response","196","226274","0.0-285.0","","","","","null","<img src=""img/food5.png"" style=""width:200px;border:14px solid red;"">","null","","","","","","","","","",""
"","image-keyboard-response","197","226356","0.0-286.0","","","","","73","img/food3.png","74","75","1","1","","1","1","1,0.7,0,1,0.7,0,0.7,0,1","0.7,0,1,0.7,0,1,0,1,0.7","2",""
"","html-keyboard-response","198","226659","0.0-287.0","","","","","null","<img src=""img/food3.png"" style=""width:200px; border:14px solid green;"">","null","","","","","","","","","",""
"","image-keyboard-response","199","226757","0.0-288.0","","","","","95","img/food5.png","74","97","1","1","","2","1","1,0.7,0,1,0.7,0,0.7,0,1","0.7,0,1,0.7,0,1,0,1,0.7","2",""
"","html-keyboard-response","200","227060","0.0-289.0","","","","","null","<img src=""img/food5.png"" style=""width:200px; border:14px solid green;"">","null","","","","","","","","","",""
"","image-keyboard-response","201","227117","0.0-290.0","","","","","53","img/food1.png","74","56","1","0","","3","1","1,0.7,0,1,0.7,0,0.7,0,1","0.7,0,1,0.7,0,1,0,1,0.7","2",""
"","html-keyboard-response","202","227419","0.0-291.0","","","","","null","<img src=""img/food1.png"" style=""width:200px;border:14px solid red;"">","null","","","","","","","","","",""
"","image-keyboard-response","203","227496","0.0-292.0","","","","","74","img/food3.png","74","76","1","0","","1","1","1,0.7,0,1,0.7,0,0.7,0,1","0.7,0,1,0.7,0,1,0,1,0.7","2",""
"","html-keyboard-response","204","227802","0.0-293.0","","","","","null","<img src=""img/food3.png"" style=""width:200px;border:14px solid red;"">","null","","","","","","","","","",""
"","image-keyboard-response","205","227866","0.0-294.0","","","","","59","img/food3.png","75","63","2","0","","1","1","1,0.7,0,1,0.7,0,0.7,0,1","0.7,0,1,0.7,0,1,0,1,0.7","2",""
"","html-keyboard-response","206","228171","0.0-295.0","","","","","null","<img src=""img/food3.png"" style=""width:200px;border:14px solid red;"">","null","","","","","","","","","",""
"","image-keyboard-response","207","228244","0.0-296.0","","","","","70","img/food5.png","76","72","3","1","","2","1","1,0.7,0,1,0.7,0,0.7,0,1","0.7,0,1,0.7,0,1,0,1,0.7","2",""
"","html-keyboard-response","208","228546","0.0-297.0","","","","","null","<img src=""img/food5.png"" style=""width:200px; border:14px solid green;"">","null","","","","","","","","","",""
"","image-keyboard-response","209","228647","0.0-298.0","","","","","99","img/food5.png","75","100","2","0","","2","1","1,0.7,0,1,0.7,0,0.7,0,1","0.7,0,1,0.7,0,1,0,1,0.7","2",""
"","html-keyboard-response","210","228949","0.0-299.0","","","","","null","<img src=""img/food5.png"" style=""width:200px;border:14px solid red;"">","null","","","","","","","","","",""
"","image-keyboard-response","211","229036","0.0-300.0","","","","","85","img/food3.png","76","86","3","1","","1","1","1,0.7,0,1,0.7,0,0.7,0,1","0.7,0,1,0.7,0,1,0,1,0.7","2",""
"","html-keyboard-response","212","229339","0.0-301.0","","","","","null","<img src=""img/food3.png"" style=""width:200px; border:14px solid green;"">","null","","","","","","","","","",""
"","image-keyboard-response","213","229437","0.0-302.0","","","","","97","img/food1.png","75","98","2","1","","3","1","1,0.7,0,1,0.7,0,0.7,0,1","0.7,0,1,0.7,0,1,0,1,0.7","2",""
"","html-keyboard-response","214","229740","0.0-303.0","","","","","null","<img src=""img/food1.png"" style=""width:200px; border:14px solid green;"">","null","","","","","","","","","",""
"","image-keyboard-response","215","229861","0.0-304.0","","","","","117","img/food5.png","76","119","3","1","","2","1","1,0.7,0,1,0.7,0,0.7,0,1","0.7,0,1,0.7,0,1,0,1,0.7","2",""
"","html-keyboard-response","216","230165","0.0-305.0","","","","","null","<img src=""img/food5.png"" style=""width:200px; border:14px solid green;"">","null","","","","","","","","","",""
"","image-keyboard-response","217","230212","0.0-306.0","","","","","45","img/food5.png","75","46","2","0","","2","1","1,0.7,0,1,0.7,0,0.7,0,1","0.7,0,1,0.7,0,1,0,1,0.7","2",""
"","html-keyboard-response","218","230513","0.0-307.0","","","","","null","<img src=""img/food5.png"" style=""width:200px;border:14px solid red;"">","null","","","","","","","","","",""
"","image-keyboard-response","219","230530","0.0-308.0","","","","","14","img/food5.png","74","16","1","1","","2","1","1,0.7,0,1,0.7,0,0.7,0,1","0.7,0,1,0.7,0,1,0,1,0.7","2",""
"","html-keyboard-response","220","230831","0.0-309.0","","","","","null","<img src=""img/food5.png"" style=""width:200px; border:14px solid green;"">","null","","","","","","","","","",""
"","image-keyboard-response","221","230868","0.0-310.0","","","","","35","img/food3.png","76","36","3","1","","1","1","1,0.7,0,1,0.7,0,0.7,0,1","0.7,0,1,0.7,0,1,0,1,0.7","2",""
"","html-keyboard-response","222","231170","0.0-311.0","","","","","null","<img src=""img/food3.png"" style=""width:200px; border:14px solid green;"">","null","","","","","","","","","",""
"","image-keyboard-response","223","231286","0.0-312.0","","","","","114","img/food5.png","75","115","2","0","","2","1","1,0.7,0,1,0.7,0,0.7,0,1","0.7,0,1,0.7,0,1,0,1,0.7","2",""
"","html-keyboard-response","224","231588","0.0-313.0","","","","","null","<img src=""img/food5.png"" style=""width:200px;border:14px solid red;"">","null","","","","","","","","","",""
"","image-keyboard-response","225","231614","0.0-314.0","","","","","23","img/food3.png","75","25","2","0","","1","1","1,0.7,0,1,0.7,0,0.7,0,1","0.7,0,1,0.7,0,1,0,1,0.7","2",""
"","html-keyboard-response","226","231917","0.0-315.0","","","","","null","<img src=""img/food3.png"" style=""width:200px;border:14px solid red;"">","null","","","","","","","","","",""
"","image-keyboard-response","227","231956","0.0-316.0","","","","","35","img/food1.png","75","37","2","1","","3","1","1,0.7,0,1,0.7,0,0.7,0,1","0.7,0,1,0.7,0,1,0,1,0.7","2",""
"","html-keyboard-response","228","232260","0.0-317.0","","","","","null","<img src=""img/food1.png"" style=""width:200px; border:14px solid green;"">","null","","","","","","","","","",""
"","image-keyboard-response","229","232283","0.0-318.0","","","","","21","img/food1.png","76","23","3","1","","3","1","1,0.7,0,1,0.7,0,0.7,0,1","0.7,0,1,0.7,0,1,0,1,0.7","2",""
"","html-keyboard-response","230","232589","0.0-319.0","","","","","null","<img src=""img/food1.png"" style=""width:200px; border:14px solid green;"">","null","","","","","","","","","",""
"","image-keyboard-response","231","232593","0.0-320.0","","","","","1","img/food1.png","76","3","3","0","","3","1","1,0.7,0,1,0.7,0,0.7,0,1","0.7,0,1,0.7,0,1,0,1,0.7","2",""
"","html-keyboard-response","232","232897","0.0-321.0","","","","","null","<img src=""img/food1.png"" style=""width:200px;border:14px solid red;"">","null","","","","","","","","","",""
"","image-keyboard-response","233","232901","0.0-322.0","","","","","0","img/food5.png","76","3","3","1","","2","1","1,0.7,0,1,0.7,0,0.7,0,1","0.7,0,1,0.7,0,1,0,1,0.7","2",""
"","html-keyboard-response","234","233204","0.0-323.0","","","","","null","<img src=""img/food5.png"" style=""width:200px; border:14px solid green;"">","null","","","","","","","","","",""
"","image-keyboard-response","235","233223","0.0-324.0","","","","","15","img/food3.png","75","18","2","0","","1","1","1,0.7,0,1,0.7,0,0.7,0,1","0.7,0,1,0.7,0,1,0,1,0.7","2",""
"","html-keyboard-response","236","233525","0.0-325.0","","","","","null","<img src=""img/food3.png"" style=""width:200px;border:14px solid red;"">","null","","","","","","","","","",""
"","image-keyboard-response","237","233549","0.0-326.0","","","","","19","img/food1.png","75","21","2","1","","3","1","1,0.7,0,1,0.7,0,0.7,0,1","0.7,0,1,0.7,0,1,0,1,0.7","2",""
"","html-keyboard-response","238","233851","0.0-327.0","","","","","null","<img src=""img/food1.png"" style=""width:200px; border:14px solid green;"">","null","","","","","","","","","",""
"","image-keyboard-response","239","233908","0.0-328.0","","","","","56","img/food3.png","75","56","2","0","","1","1","1,0.7,0,1,0.7,0,0.7,0,1","0.7,0,1,0.7,0,1,0,1,0.7","2",""
"","html-keyboard-response","240","234214","0.0-329.0","","","","","null","<img src=""img/food3.png"" style=""width:200px;border:14px solid red;"">","null","","","","","","","","","",""
"","image-keyboard-response","241","234248","0.0-330.0","","","","","30","img/food3.png","75","33","2","0","","1","1","1,0.7,0,1,0.7,0,0.7,0,1","0.7,0,1,0.7,0,1,0,1,0.7","2",""
"","html-keyboard-response","242","234550","0.0-331.0","","","","","null","<img src=""img/food3.png"" style=""width:200px;border:14px solid red;"">","null","","","","","","","","","",""
"","image-keyboard-response","243","234625","0.0-332.0","","","","","71","img/food5.png","74","74","1","1","","2","1","1,0.7,0,1,0.7,0,0.7,0,1","0.7,0,1,0.7,0,1,0,1,0.7","2",""
"","html-keyboard-response","244","234928","0.0-333.0","","","","","null","<img src=""img/food5.png"" style=""width:200px; border:14px solid green;"">","null","","","","","","","","","",""
"","image-keyboard-response","245","235121","0.0-334.0","","","","","189","img/food1.png","74","191","1","0","","3","1","1,0.7,0,1,0.7,0,0.7,0,1","0.7,0,1,0.7,0,1,0,1,0.7","2",""
"","html-keyboard-response","246","235425","0.0-335.0","","","","","null","<img src=""img/food1.png"" style=""width:200px;border:14px solid red;"">","null","","","","","","","","","",""
"","image-keyboard-response","247","235454","0.0-336.0","","","","","24","img/food3.png","76","27","3","1","","1","1","1,0.7,0,1,0.7,0,0.7,0,1","0.7,0,1,0.7,0,1,0,1,0.7","2",""
"","html-keyboard-response","248","235757","0.0-337.0","","","","","null","<img src=""img/food3.png"" style=""width:200px; border:14px solid green;"">","null","","","","","","","","","",""
"","image-keyboard-response","249","235766","0.0-338.0","","","","","6","img/food1.png","74","8","1","0","","3","1","1,0.7,0,1,0.7,0,0.7,0,1","0.7,0,1,0.7,0,1,0,1,0.7","2",""
"","html-keyboard-response","250","236074","0.0-339.0","","","","","null","<img src=""img/food1.png"" style=""width:200px;border:14px solid red;"">","null","","","","","","","","","",""
"","image-keyboard-response","251","236317","0.0-340.0","","","","","236","img/food3.png","74","238","1","1","","1","1","1,0.7,0,1,0.7,0,0.7,0,1","0.7,0,1,0.7,0,1,0,1,0.7","2",""
"","html-keyboard-response","252","236620","0.0-341.0","","","","","null","<img src=""img/food3.png"" style=""width:200px; border:14px solid green;"">","null","","","","","","","","","",""
"","image-keyboard-response","253","236756","0.0-342.0","","","","","133","img/food5.png","75","135","2","0","","2","1","1,0.7,0,1,0.7,0,0.7,0,1","0.7,0,1,0.7,0,1,0,1,0.7","2",""
"","html-keyboard-response","254","237060","0.0-343.0","","","","","null","<img src=""img/food5.png"" style=""width:200px;border:14px solid red;"">","null","","","","","","","","","",""
"","image-keyboard-response","255","237088","0.0-344.0","","","","","21","img/food1.png","74","26","1","0","","3","1","1,0.7,0,1,0.7,0,0.7,0,1","0.7,0,1,0.7,0,1,0,1,0.7","2",""
"","html-keyboard-response","256","237392","0.0-345.0","","","","","null","<img src=""img/food1.png"" style=""width:200px;border:14px solid red;"">","null","","","","","","","","","",""
"","image-keyboard-response","257","237736","0.0-346.0","","","","","337","img/food1.png","74","342","1","0","","3","1","1,0.7,0,1,0.7,0,0.7,0,1","0.7,0,1,0.7,0,1,0,1,0.7","2",""
"","html-keyboard-response","258","238039","0.0-347.0","","","","","null","<img src=""img/food1.png"" style=""width:200px;border:14px solid red;"">","null","","","","","","","","","",""
"","image-keyboard-response","259","238161","0.0-348.0","","","","","120","img/food3.png","75","122","2","0","","1","1","1,0.7,0,1,0.7,0,0.7,0,1","0.7,0,1,0.7,0,1,0,1,0.7","2",""
"","html-keyboard-response","260","238466","0.0-349.0","","","","","null","<img src=""img/food3.png"" style=""width:200px;border:14px solid red;"">","null","","","","","","","","","",""
"","image-keyboard-response","261","238639","0.0-350.0","","","","","170","img/food5.png","74","172","1","1","","2","1","1,0.7,0,1,0.7,0,0.7,0,1","0.7,0,1,0.7,0,1,0,1,0.7","2",""
"","html-keyboard-response","262","238943","0.0-351.0","","","","","null","<img src=""img/food5.png"" style=""width:200px; border:14px solid green;"">","null","","","","","","","","","",""
"","image-keyboard-response","263","239006","0.0-352.0","","","","","61","img/food3.png","74","62","1","1","","1","1","1,0.7,0,1,0.7,0,0.7,0,1","0.7,0,1,0.7,0,1,0,1,0.7","2",""
"","html-keyboard-response","264","239311","0.0-353.0","","","","","null","<img src=""img/food3.png"" style=""width:200px; border:14px solid green;"">","null","","","","","","","","","",""
"","image-keyboard-response","265","239362","0.0-354.0","","","","","48","img/food5.png","74","50","1","1","","2","1","1,0.7,0,1,0.7,0,0.7,0,1","0.7,0,1,0.7,0,1,0,1,0.7","2",""
"","html-keyboard-response","266","239664","0.0-355.0","","","","","null","<img src=""img/food5.png"" style=""width:200px; border:14px solid green;"">","null","","","","","","","","","",""
"","image-keyboard-response","267","239789","0.0-356.0","","","","","122","img/food3.png","74","124","1","1","","1","1","1,0.7,0,1,0.7,0,0.7,0,1","0.7,0,1,0.7,0,1,0,1,0.7","2",""
"","html-keyboard-response","268","240094","0.0-357.0","","","","","null","<img src=""img/food3.png"" style=""width:200px; border:14px solid green;"">","null","","","","","","","","","",""
"","image-keyboard-response","269","240230","0.0-358.0","","","","","133","img/food1.png","75","135","2","1","","3","1","1,0.7,0,1,0.7,0,0.7,0,1","0.7,0,1,0.7,0,1,0,1,0.7","2",""
"","html-keyboard-response","270","240531","0.0-359.0","","","","","null","<img src=""img/food1.png"" style=""width:200px; border:14px solid green;"">","null","","","","","","","","","",""
"","image-keyboard-response","271","240655","0.0-360.0","","","","","122","img/food5.png","76","122","3","1","","2","1","1,0.7,0,1,0.7,0,0.7,0,1","0.7,0,1,0.7,0,1,0,1,0.7","2",""
"","html-keyboard-response","272","240960","0.0-361.0","","","","","null","<img src=""img/food5.png"" style=""width:200px; border:14px solid green;"">","null","","","","","","","","","",""
"","image-keyboard-response","273","241395","0.0-362.0","","","","","432","img/food3.png","76","435","3","1","","1","1","1,0.7,0,1,0.7,0,0.7,0,1","0.7,0,1,0.7,0,1,0,1,0.7","2",""
"","html-keyboard-response","274","241701","0.0-363.0","","","","","null","<img src=""img/food3.png"" style=""width:200px; border:14px solid green;"">","null","","","","","","","","","",""
"","image-keyboard-response","275","241757","0.0-364.0","","","","","52","img/food5.png","75","55","2","0","","2","1","1,0.7,0,1,0.7,0,0.7,0,1","0.7,0,1,0.7,0,1,0,1,0.7","2",""
"","html-keyboard-response","276","242061","0.0-365.0","","","","","null","<img src=""img/food5.png"" style=""width:200px;border:14px solid red;"">","null","","","","","","","","","",""
"","image-keyboard-response","277","242134","0.0-366.0","","","","","69","img/food3.png","74","71","1","1","","1","1","1,0.7,0,1,0.7,0,0.7,0,1","0.7,0,1,0.7,0,1,0,1,0.7","2",""
"","html-keyboard-response","278","242436","0.0-367.0","","","","","null","<img src=""img/food3.png"" style=""width:200px; border:14px solid green;"">","null","","","","","","","","","",""
"","image-keyboard-response","279","242558","0.0-368.0","","","","","118","img/food1.png","76","120","3","0","","3","1","1,0.7,0,1,0.7,0,0.7,0,1","0.7,0,1,0.7,0,1,0,1,0.7","2",""
"","html-keyboard-response","280","242860","0.0-369.0","","","","","null","<img src=""img/food1.png"" style=""width:200px;border:14px solid red;"">","null","","","","","","","","","",""
"","image-keyboard-response","281","242924","0.0-370.0","","","","","61","img/food1.png","76","64","3","1","","3","1","1,0.7,0,1,0.7,0,0.7,0,1","0.7,0,1,0.7,0,1,0,1,0.7","2",""
"","html-keyboard-response","282","243230","0.0-371.0","","","","","null","<img src=""img/food1.png"" style=""width:200px; border:14px solid green;"">","null","","","","","","","","","",""
"","image-keyboard-response","283","243357","0.0-372.0","","","","","124","img/food5.png","75","126","2","0","","2","1","1,0.7,0,1,0.7,0,0.7,0,1","0.7,0,1,0.7,0,1,0,1,0.7","2",""
"","html-keyboard-response","284","243659","0.0-373.0","","","","","null","<img src=""img/food5.png"" style=""width:200px;border:14px solid red;"">","null","","","","","","","","","",""
"","image-keyboard-response","285","243677","0.0-374.0","","","","","14","img/food3.png","76","16","3","1","","1","1","1,0.7,0,1,0.7,0,0.7,0,1","0.7,0,1,0.7,0,1,0,1,0.7","2",""
"","html-keyboard-response","286","243979","0.0-375.0","","","","","null","<img src=""img/food3.png"" style=""width:200px; border:14px solid green;"">","null","","","","","","","","","",""
"","image-keyboard-response","287","244045","0.0-376.0","","","","","63","img/food3.png","74","65","1","0","","1","1","1,0.7,0,1,0.7,0,0.7,0,1","0.7,0,1,0.7,0,1,0,1,0.7","2",""
"","html-keyboard-response","288","244349","0.0-377.0","","","","","null","<img src=""img/food3.png"" style=""width:200px;border:14px solid red;"">","null","","","","","","","","","",""
"","image-keyboard-response","289","244397","0.0-378.0","","","","","43","img/food5.png","74","46","1","0","","2","1","1,0.7,0,1,0.7,0,0.7,0,1","0.7,0,1,0.7,0,1,0,1,0.7","2",""
"","html-keyboard-response","290","244699","0.0-379.0","","","","","null","<img src=""img/food5.png"" style=""width:200px;border:14px solid red;"">","null","","","","","","","","","",""
"","image-keyboard-response","291","244715","0.0-380.0","","","","","15","img/food3.png","74","15","1","1","","1","1","1,0.7,0,1,0.7,0,0.7,0,1","0.7,0,1,0.7,0,1,0,1,0.7","2",""
"","html-keyboard-response","292","245021","0.0-381.0","","","","","null","<img src=""img/food3.png"" style=""width:200px; border:14px solid green;"">","null","","","","","","","","","",""
"","image-keyboard-response","293","245026","0.0-382.0","","","","","0","img/food1.png","74","3","1","0","","3","1","1,0.7,0,1,0.7,0,0.7,0,1","0.7,0,1,0.7,0,1,0,1,0.7","2",""
"","html-keyboard-response","294","245327","0.0-383.0","","","","","null","<img src=""img/food1.png"" style=""width:200px;border:14px solid red;"">","null","","","","","","","","","",""
"","image-keyboard-response","295","245374","0.0-384.0","","","","","40","img/food5.png","76","44","3","1","","2","1","1,0.7,0,1,0.7,0,0.7,0,1","0.7,0,1,0.7,0,1,0,1,0.7","2",""
"","html-keyboard-response","296","245678","0.0-385.0","","","","","null","<img src=""img/food5.png"" style=""width:200px; border:14px solid green;"">","null","","","","","","","","","",""
"","image-keyboard-response","297","245830","0.0-386.0","","","","","148","img/food3.png","74","150","1","1","","1","1","1,0.7,0,1,0.7,0,0.7,0,1","0.7,0,1,0.7,0,1,0,1,0.7","2",""
"","html-keyboard-response","298","246133","0.0-387.0","","","","","null","<img src=""img/food3.png"" style=""width:200px; border:14px solid green;"">","null","","","","","","","","","",""
"","image-keyboard-response","299","246172","0.0-388.0","","","","","33","img/food1.png","76","36","3","1","","3","1","1,0.7,0,1,0.7,0,0.7,0,1","0.7,0,1,0.7,0,1,0,1,0.7","2",""
"","html-keyboard-response","300","246474","0.0-389.0","","","","","null","<img src=""img/food1.png"" style=""width:200px; border:14px solid green;"">","null","","","","","","","","","",""
"","image-keyboard-response","301","246503","0.0-390.0","","","","","25","img/food3.png","76","27","3","1","","1","1","1,0.7,0,1,0.7,0,0.7,0,1","0.7,0,1,0.7,0,1,0,1,0.7","2",""
"","html-keyboard-response","302","246805","0.0-391.0","","","","","null","<img src=""img/food3.png"" style=""width:200px; border:14px solid green;"">","null","","","","","","","","","",""
"","image-keyboard-response","303","246862","0.0-392.0","","","","","56","img/food1.png","74","56","1","0","","3","1","1,0.7,0,1,0.7,0,0.7,0,1","0.7,0,1,0.7,0,1,0,1,0.7","2",""
"","html-keyboard-response","304","247166","0.0-393.0","","","","","null","<img src=""img/food1.png"" style=""width:200px;border:14px solid red;"">","null","","","","","","","","","",""
"","image-keyboard-response","305","247259","0.0-394.0","","","","","89","img/food3.png","75","90","2","0","","1","1","1,0.7,0,1,0.7,0,0.7,0,1","0.7,0,1,0.7,0,1,0,1,0.7","2",""
"","html-keyboard-response","306","247562","0.0-395.0","","","","","null","<img src=""img/food3.png"" style=""width:200px;border:14px solid red;"">","null","","","","","","","","","",""
"","image-keyboard-response","307","247672","0.0-396.0","","","","","107","img/food1.png","76","109","3","1","","3","1","1,0.7,0,1,0.7,0,0.7,0,1","0.7,0,1,0.7,0,1,0,1,0.7","2",""
"","html-keyboard-response","308","247977","0.0-397.0","","","","","null","<img src=""img/food1.png"" style=""width:200px; border:14px solid green;"">","null","","","","","","","","","",""
"","image-keyboard-response","309","248045","0.0-398.0","","","","","67","img/food1.png","76","69","3","1","","3","1","1,0.7,0,1,0.7,0,0.7,0,1","0.7,0,1,0.7,0,1,0,1,0.7","2",""
"","html-keyboard-response","310","248347","0.0-399.0","","","","","null","<img src=""img/food1.png"" style=""width:200px; border:14px solid green;"">","null","","","","","","","","","",""
"","image-keyboard-response","311","248408","0.0-400.0","","","","","57","img/food3.png","76","59","3","1","","1","1","1,0.7,0,1,0.7,0,0.7,0,1","0.7,0,1,0.7,0,1,0,1,0.7","2",""
"","html-keyboard-response","312","248712","0.0-401.0","","","","","null","<img src=""img/food3.png"" style=""width:200px; border:14px solid green;"">","null","","","","","","","","","",""
"","image-keyboard-response","313","248732","0.0-402.0","","","","","15","img/food5.png","74","16","1","1","","2","1","1,0.7,0,1,0.7,0,0.7,0,1","0.7,0,1,0.7,0,1,0,1,0.7","2",""
"","html-keyboard-response","314","249034","0.0-403.0","","","","","null","<img src=""img/food5.png"" style=""width:200px; border:14px solid green;"">","null","","","","","","","","","",""
"","image-keyboard-response","315","249117","0.0-404.0","","","","","80","img/food3.png","75","82","2","0","","1","1","1,0.7,0,1,0.7,0,0.7,0,1","0.7,0,1,0.7,0,1,0,1,0.7","2",""
"","html-keyboard-response","316","249421","0.0-405.0","","","","","null","<img src=""img/food3.png"" style=""width:200px;border:14px solid red;"">","null","","","","","","","","","",""
"","image-keyboard-response","317","249566","0.0-406.0","","","","","140","img/food1.png","74","142","1","0","","3","1","1,0.7,0,1,0.7,0,0.7,0,1","0.7,0,1,0.7,0,1,0,1,0.7","2",""
"","html-keyboard-response","318","249867","0.0-407.0","","","","","null","<img src=""img/food1.png"" style=""width:200px;border:14px solid red;"">","null","","","","","","","","","",""
"","image-keyboard-response","319","249983","0.0-408.0","","","","","113","img/food5.png","75","115","2","0","","2","1","1,0.7,0,1,0.7,0,0.7,0,1","0.7,0,1,0.7,0,1,0,1,0.7","2",""
"","html-keyboard-response","320","250286","0.0-409.0","","","","","null","<img src=""img/food5.png"" style=""width:200px;border:14px solid red;"">","null","","","","","","","","","",""
"","image-keyboard-response","321","250342","0.0-410.0","","","","","51","img/food3.png","75","54","2","0","","1","1","1,0.7,0,1,0.7,0,0.7,0,1","0.7,0,1,0.7,0,1,0,1,0.7","2",""
"","html-keyboard-response","322","250645","0.0-411.0","","","","","null","<img src=""img/food3.png"" style=""width:200px;border:14px solid red;"">","null","","","","","","","","","",""
"","image-keyboard-response","323","250870","0.0-412.0","","","","","221","img/food1.png","75","223","2","1","","3","1","1,0.7,0,1,0.7,0,0.7,0,1","0.7,0,1,0.7,0,1,0,1,0.7","2",""
"","html-keyboard-response","324","251175","0.0-413.0","","","","","null","<img src=""img/food1.png"" style=""width:200px; border:14px solid green;"">","null","","","","","","","","","",""
"","image-keyboard-response","325","251197","0.0-414.0","","","","","20","img/food3.png","74","21","1","1","","1","1","1,0.7,0,1,0.7,0,0.7,0,1","0.7,0,1,0.7,0,1,0,1,0.7","2",""
"","html-keyboard-response","326","251499","0.0-415.0","","","","","null","<img src=""img/food3.png"" style=""width:200px; border:14px solid green;"">","null","","","","","","","","","",""
"","image-keyboard-response","327","251675","0.0-416.0","","","","","172","img/food5.png","74","174","1","1","","2","1","1,0.7,0,1,0.7,0,0.7,0,1","0.7,0,1,0.7,0,1,0,1,0.7","2",""
"","html-keyboard-response","328","251976","0.0-417.0","","","","","null","<img src=""img/food5.png"" style=""width:200px; border:14px solid green;"">","null","","","","","","","","","",""
"","image-keyboard-response","329","252110","0.0-418.0","","","","","131","img/food3.png","76","132","3","1","","1","1","1,0.7,0,1,0.7,0,0.7,0,1","0.7,0,1,0.7,0,1,0,1,0.7","2",""
"","html-keyboard-response","330","252413","0.0-419.0","","","","","null","<img src=""img/food3.png"" style=""width:200px; border:14px solid green;"">","null","","","","","","","","","",""
"","image-keyboard-response","331","252444","0.0-420.0","","","","","28","img/food1.png","76","30","3","1","","3","1","1,0.7,0,1,0.7,0,0.7,0,1","0.7,0,1,0.7,0,1,0,1,0.7","2",""
"","html-keyboard-response","332","252746","0.0-421.0","","","","","null","<img src=""img/food1.png"" style=""width:200px; border:14px solid green;"">","null","","","","","","","","","",""
"","image-keyboard-response","333","252966","0.0-422.0","","","","","217","img/food1.png","74","219","1","0","","3","1","1,0.7,0,1,0.7,0,0.7,0,1","0.7,0,1,0.7,0,1,0,1,0.7","2",""
"","html-keyboard-response","334","253268","0.0-423.0","","","","","null","<img src=""img/food1.png"" style=""width:200px;border:14px solid red;"">","null","","","","","","","","","",""
"","image-keyboard-response","335","253302","0.0-424.0","","","","","32","img/food1.png","74","34","1","0","","3","1","1,0.7,0,1,0.7,0,0.7,0,1","0.7,0,1,0.7,0,1,0,1,0.7","2",""
"","html-keyboard-response","336","253605","0.0-425.0","","","","","null","<img src=""img/food1.png"" style=""width:200px;border:14px solid red;"">","null","","","","","","","","","",""
"","image-keyboard-response","337","253622","0.0-426.0","","","","","15","img/food5.png","75","16","2","0","","2","1","1,0.7,0,1,0.7,0,0.7,0,1","0.7,0,1,0.7,0,1,0,1,0.7","2",""
"","html-keyboard-response","338","253925","0.0-427.0","","","","","null","<img src=""img/food5.png"" style=""width:200px;border:14px solid red;"">","null","","","","","","","","","",""
"","image-keyboard-response","339","253958","0.0-428.0","","","","","31","img/food3.png","75","32","2","0","","1","1","1,0.7,0,1,0.7,0,0.7,0,1","0.7,0,1,0.7,0,1,0,1,0.7","2",""
"","html-keyboard-response","340","254261","0.0-429.0","","","","","null","<img src=""img/food3.png"" style=""width:200px;border:14px solid red;"">","null","","","","","","","","","",""
"","image-keyboard-response","341","254321","0.0-430.0","","","","","57","img/food1.png","74","59","1","0","","3","1","1,0.7,0,1,0.7,0,0.7,0,1","0.7,0,1,0.7,0,1,0,1,0.7","2",""
"","html-keyboard-response","342","254625","0.0-431.0","","","","","null","<img src=""img/food1.png"" style=""width:200px;border:14px solid red;"">","null","","","","","","","","","",""
"","image-keyboard-response","343","254714","0.0-432.0","","","","","82","img/food5.png","75","87","2","0","","2","1","1,0.7,0,1,0.7,0,0.7,0,1","0.7,0,1,0.7,0,1,0,1,0.7","2",""
"","html-keyboard-response","344","255087","0.0-433.0","","","","","null","<img src=""img/food5.png"" style=""width:200px;border:14px solid red;"">","null","","","","","","","","","",""
"","image-keyboard-response","345","255108","0.0-434.0","","","","","21","img/food5.png","75","22","2","0","","2","1","1,0.7,0,1,0.7,0,0.7,0,1","0.7,0,1,0.7,0,1,0,1,0.7","2",""
"","html-keyboard-response","346","255410","0.0-435.0","","","","","null","<img src=""img/food5.png"" style=""width:200px;border:14px solid red;"">","null","","","","","","","","","",""
"","image-keyboard-response","347","255447","0.0-436.0","","","","","33","img/food1.png","75","36","2","1","","3","1","1,0.7,0,1,0.7,0,0.7,0,1","0.7,0,1,0.7,0,1,0,1,0.7","2",""
"","html-keyboard-response","348","255752","0.0-437.0","","","","","null","<img src=""img/food1.png"" style=""width:200px; border:14px solid green;"">","null","","","","","","","","","",""
"","image-keyboard-response","349","255830","0.0-438.0","","","","","77","img/food1.png","74","78","1","0","","3","1","1,0.7,0,1,0.7,0,0.7,0,1","0.7,0,1,0.7,0,1,0,1,0.7","2",""
"","html-keyboard-response","350","256132","0.0-439.0","","","","","null","<img src=""img/food1.png"" style=""width:200px;border:14px solid red;"">","null","","","","","","","","","",""
"","image-keyboard-response","351","256343","0.0-440.0","","","","","208","img/food1.png","75","210","2","1","","3","1","1,0.7,0,1,0.7,0,0.7,0,1","0.7,0,1,0.7,0,1,0,1,0.7","2",""
"","html-keyboard-response","352","256646","0.0-441.0","","","","","null","<img src=""img/food1.png"" style=""width:200px; border:14px solid green;"">","null","","","","","","","","","",""
"","image-keyboard-response","353","256694","0.0-442.0","","","","","45","img/food5.png","74","46","1","0","","2","1","1,0.7,0,1,0.7,0,0.7,0,1","0.7,0,1,0.7,0,1,0,1,0.7","2",""
"","html-keyboard-response","354","256997","0.0-443.0","","","","","null","<img src=""img/food5.png"" style=""width:200px;border:14px solid red;"">","null","","","","","","","","","",""
"","image-keyboard-response","355","257013","0.0-444.0","","","","","8","img/food3.png","75","11","2","0","","1","1","1,0.7,0,1,0.7,0,0.7,0,1","0.7,0,1,0.7,0,1,0,1,0.7","2",""
"","html-keyboard-response","356","257314","0.0-445.0","","","","","null","<img src=""img/food3.png"" style=""width:200px;border:14px solid red;"">","null","","","","","","","","","",""
"","image-keyboard-response","357","257435","0.0-446.0","","","","","117","img/food5.png","76","119","3","1","","2","1","1,0.7,0,1,0.7,0,0.7,0,1","0.7,0,1,0.7,0,1,0,1,0.7","2",""
"","html-keyboard-response","358","257738","0.0-447.0","","","","","null","<img src=""img/food5.png"" style=""width:200px; border:14px solid green;"">","null","","","","","","","","","",""
"","image-keyboard-response","359","257785","0.0-448.0","","","","","44","img/food5.png","76","45","3","1","","2","1","1,0.7,0,1,0.7,0,0.7,0,1","0.7,0,1,0.7,0,1,0,1,0.7","2",""
"","html-keyboard-response","360","258088","0.0-449.0","","","","","null","<img src=""img/food5.png"" style=""width:200px; border:14px solid green;"">","null","","","","","","","","","",""
"","image-keyboard-response","361","258096","0.0-450.0","","","","","5","img/food5.png","76","7","3","1","","2","1","1,0.7,0,1,0.7,0,0.7,0,1","0.7,0,1,0.7,0,1,0,1,0.7","2",""
"","html-keyboard-response","362","258398","0.0-451.0","","","","","null","<img src=""img/food5.png"" style=""width:200px; border:14px solid green;"">","null","","","","","","","","","",""
"","image-keyboard-response","363","258455","0.0-452.0","","","","","54","img/food5.png","74","55","1","1","","2","1","1,0.7,0,1,0.7,0,0.7,0,1","0.7,0,1,0.7,0,1,0,1,0.7","2",""
"","html-keyboard-response","364","258760","0.0-453.0","","","","","null","<img src=""img/food5.png"" style=""width:200px; border:14px solid green;"">","null","","","","","","","","","",""
"","html-keyboard-response","365","268891","0.0-454.0","","","","","","","","","","","","","","","","",""
"","instructions","366","272616","0.0-455.0","","","","[{""page_index"":0,""viewing_time"":3721}]","3722","","","","","","","","","","","",""
"","survey-text","367","278251","0.0-456.0","","","","","5619","","","","","","","","","","","","{""Q0"":""A16LUX6COW2EBP""}"
