"success","trial_type","trial_index","time_elapsed","internal_node_id","assignmentID","mturkID","hitID","view_history","rt","stimulus","key_press","reactionTime","a","r","warning","s","cond","reward_cond","reward_cond_actual","reward_matrix_idx","responses"
"true","fullscreen","0","3428","0.0-0.0","","","","","","","","","","","","","","","","",""
"","instructions","1","31547","0.0-1.0","","","","[{""page_index"":0,""viewing_time"":2508},{""page_index"":1,""viewing_time"":1322},{""page_index"":2,""viewing_time"":1673},{""page_index"":3,""viewing_time"":12218},{""page_index"":4,""viewing_time"":6685},{""page_index"":5,""viewing_time"":2223},{""page_index"":6,""viewing_time"":1487}]","28116","","","","","","","","","","","",""
"","instructions","2","78836","0.0-2.0","","","","[{""page_index"":0,""viewing_time"":42572},{""page_index"":1,""viewing_time"":4717}]","47289","","","","","","","","","","","",""
"","image-keyboard-response","3","79787","0.0-3.0","","","","","949","img/food3.png","74","951","1","0","false","3","2","1,0.7,0,1,0.7,0,0.7,0,1","0.7,0,1,0.7,0,1,0,1,0.7","2",""
"","html-keyboard-response","4","80090","0.0-4.0","","","","","null","<img src=""img/food3.png"" style=""width:200px;border:14px solid red;"">","null","","","","","","","","","",""
"","image-keyboard-response","5","81091","0.0-6.0","","","","","","img/food4.png","","1000","-1","0","true","1","2","1,0.7,0,1,0.7,0,0.7,0,1","0.7,0,1,0.7,0,1,0,1,0.7","2",""
"","html-keyboard-response","6","81414","0.0-7.0","","","","","null","<img src=""img/food4.png"" style=""width:200px;border:14px solid red;"">","null","","","","","","","","","",""
"","html-keyboard-response","7","86839","0.0-8.0-0.0","","","","","","","","","","","","","","","","",""
"","image-keyboard-response","8","87755","0.0-9.0","","","","","914","img/food2.png","76","916","3","1","false","2","2","1,0.7,0,1,0.7,0,0.7,0,1","0.7,0,1,0.7,0,1,0,1,0.7","2",""
"","html-keyboard-response","9","88056","0.0-10.0","","","","","null","<img src=""img/food2.png"" style=""width:200px; border:14px solid green;"">","null","","","","","","","","","",""
"","image-keyboard-response","10","88898","0.0-12.0","","","","","840","img/food3.png","75","842","2","1","false","3","2","1,0.7,0,1,0.7,0,0.7,0,1","0.7,0,1,0.7,0,1,0,1,0.7","2",""
"","html-keyboard-response","11","89198","0.0-13.0","","","","","null","<img src=""img/food3.png"" style=""width:200px; border:14px solid green;"">","null","","","","","","","","","",""
"","image-keyboard-response","12","90148","0.0-15.0","","","","","949","img/food2.png","74","950","1","0","false","2","2","1,0.7,0,1,0.7,0,0.7,0,1","0.7,0,1,0.7,0,1,0,1,0.7","2",""
"","html-keyboard-response","13","90453","0.0-16.0","","","","","null","<img src=""img/food2.png"" style=""width:200px;border:14px solid red;"">","null","","","","","","","","","",""
"","image-keyboard-response","14","91455","0.0-18.0","","","","","","img/food2.png","","1002","-1","0","true","2","2","1,0.7,0,1,0.7,0,0.7,0,1","0.7,0,1,0.7,0,1,0,1,0.7","2",""
"","html-keyboard-response","15","91756","0.0-19.0","","","","","null","<img src=""img/food2.png"" style=""width:200px;border:14px solid red;"">","null","","","","","","","","","",""
"","html-keyboard-response","16","94047","0.0-20.0-0.0","","","","","","","","","","","","","","","","",""
"","image-keyboard-response","17","94765","0.0-21.0","","","","","716","img/food2.png","75","717","2","0","false","2","2","1,0.7,0,1,0.7,0,0.7,0,1","0.7,0,1,0.7,0,1,0,1,0.7","2",""
"","html-keyboard-response","18","95068","0.0-22.0","","","","","null","<img src=""img/food2.png"" style=""width:200px;border:14px solid red;"">","null","","","","","","","","","",""
"","image-keyboard-response","19","96069","0.0-24.0","","","","","","img/food3.png","","1001","-1","0","true","3","2","1,0.7,0,1,0.7,0,0.7,0,1","0.7,0,1,0.7,0,1,0,1,0.7","2",""
"","html-keyboard-response","20","96371","0.0-25.0","","","","","null","<img src=""img/food3.png"" style=""width:200px;border:14px solid red;"">","null","","","","","","","","","",""
"","html-keyboard-response","21","98394","0.0-26.0-0.0","","","","","","","","","","","","","","","","",""
"","image-keyboard-response","22","99204","0.0-27.0","","","","","808","img/food3.png","74","810","1","0","false","3","2","1,0.7,0,1,0.7,0,0.7,0,1","0.7,0,1,0.7,0,1,0,1,0.7","2",""
"","html-keyboard-response","23","99504","0.0-28.0","","","","","null","<img src=""img/food3.png"" style=""width:200px;border:14px solid red;"">","null","","","","","","","","","",""
"","image-keyboard-response","24","100188","0.0-30.0","","","","","683","img/food4.png","75","684","2","0","false","1","2","1,0.7,0,1,0.7,0,0.7,0,1","0.7,0,1,0.7,0,1,0,1,0.7","2",""
"","html-keyboard-response","25","100489","0.0-31.0","","","","","null","<img src=""img/food4.png"" style=""width:200px;border:14px solid red;"">","null","","","","","","","","","",""
"","image-keyboard-response","26","101181","0.0-33.0","","","","","690","img/food2.png","76","691","3","1","false","2","2","1,0.7,0,1,0.7,0,0.7,0,1","0.7,0,1,0.7,0,1,0,1,0.7","2",""
"","html-keyboard-response","27","101481","0.0-34.0","","","","","null","<img src=""img/food2.png"" style=""width:200px; border:14px solid green;"">","null","","","","","","","","","",""
"","image-keyboard-response","28","102216","0.0-36.0","","","","","734","img/food4.png","75","735","2","0","false","1","2","1,0.7,0,1,0.7,0,0.7,0,1","0.7,0,1,0.7,0,1,0,1,0.7","2",""
"","html-keyboard-response","29","102518","0.0-37.0","","","","","null","<img src=""img/food4.png"" style=""width:200px;border:14px solid red;"">","null","","","","","","","","","",""
"","image-keyboard-response","30","103209","0.0-39.0","","","","","690","img/food2.png","74","690","1","1","false","2","2","1,0.7,0,1,0.7,0,0.7,0,1","0.7,0,1,0.7,0,1,0,1,0.7","2",""
"","html-keyboard-response","31","103511","0.0-40.0","","","","","null","<img src=""img/food2.png"" style=""width:200px; border:14px solid green;"">","null","","","","","","","","","",""
"","image-keyboard-response","32","104512","0.0-42.0","","","","","","img/food2.png","","1001","-1","0","true","2","2","1,0.7,0,1,0.7,0,0.7,0,1","0.7,0,1,0.7,0,1,0,1,0.7","2",""
"","html-keyboard-response","33","104813","0.0-43.0","","","","","null","<img src=""img/food2.png"" style=""width:200px;border:14px solid red;"">","null","","","","","","","","","",""
"","html-keyboard-response","34","106717","0.0-44.0-0.0","","","","","","","","","","","","","","","","",""
"","image-keyboard-response","35","107718","0.0-45.0","","","","","","img/food4.png","","1001","-1","0","true","1","2","1,0.7,0,1,0.7,0,0.7,0,1","0.7,0,1,0.7,0,1,0,1,0.7","2",""
"","html-keyboard-response","36","108020","0.0-46.0","","","","","null","<img src=""img/food4.png"" style=""width:200px;border:14px solid red;"">","null","","","","","","","","","",""
"","html-keyboard-response","37","110063","0.0-47.0-0.0","","","","","","","","","","","","","","","","",""
"","image-keyboard-response","38","110859","0.0-48.0","","","","","795","img/food2.png","74","796","1","1","false","2","2","1,0.7,0,1,0.7,0,0.7,0,1","0.7,0,1,0.7,0,1,0,1,0.7","2",""
"","html-keyboard-response","39","111161","0.0-49.0","","","","","null","<img src=""img/food2.png"" style=""width:200px; border:14px solid green;"">","null","","","","","","","","","",""
"","image-keyboard-response","40","111773","0.0-51.0","","","","","611","img/food2.png","75","611","2","0","false","2","2","1,0.7,0,1,0.7,0,0.7,0,1","0.7,0,1,0.7,0,1,0,1,0.7","2",""
"","html-keyboard-response","41","112075","0.0-52.0","","","","","null","<img src=""img/food2.png"" style=""width:200px;border:14px solid red;"">","null","","","","","","","","","",""
"","image-keyboard-response","42","112864","0.0-54.0","","","","","787","img/food2.png","74","789","1","0","false","2","2","1,0.7,0,1,0.7,0,0.7,0,1","0.7,0,1,0.7,0,1,0,1,0.7","2",""
"","html-keyboard-response","43","113166","0.0-55.0","","","","","null","<img src=""img/food2.png"" style=""width:200px;border:14px solid red;"">","null","","","","","","","","","",""
"","image-keyboard-response","44","113842","0.0-57.0","","","","","675","img/food2.png","74","676","1","1","false","2","2","1,0.7,0,1,0.7,0,0.7,0,1","0.7,0,1,0.7,0,1,0,1,0.7","2",""
"","html-keyboard-response","45","114146","0.0-58.0","","","","","null","<img src=""img/food2.png"" style=""width:200px; border:14px solid green;"">","null","","","","","","","","","",""
"","image-keyboard-response","46","114895","0.0-60.0","","","","","748","img/food2.png","74","749","1","1","false","2","2","1,0.7,0,1,0.7,0,0.7,0,1","0.7,0,1,0.7,0,1,0,1,0.7","2",""
"","html-keyboard-response","47","115197","0.0-61.0","","","","","null","<img src=""img/food2.png"" style=""width:200px; border:14px solid green;"">","null","","","","","","","","","",""
"","image-keyboard-response","48","116197","0.0-63.0","","","","","999","img/food4.png","75","1000","2","0","false","1","2","1,0.7,0,1,0.7,0,0.7,0,1","0.7,0,1,0.7,0,1,0,1,0.7","2",""
"","html-keyboard-response","49","116499","0.0-64.0","","","","","null","<img src=""img/food4.png"" style=""width:200px;border:14px solid red;"">","null","","","","","","","","","",""
"","image-keyboard-response","50","117500","0.0-66.0","","","","","","img/food2.png","","1001","-1","0","true","2","2","1,0.7,0,1,0.7,0,0.7,0,1","0.7,0,1,0.7,0,1,0,1,0.7","2",""
"","html-keyboard-response","51","117802","0.0-67.0","","","","","null","<img src=""img/food2.png"" style=""width:200px;border:14px solid red;"">","null","","","","","","","","","",""
"","html-keyboard-response","52","119734","0.0-68.0-0.0","","","","","","","","","","","","","","","","",""
"","image-keyboard-response","53","120667","0.0-69.0","","","","","932","img/food2.png","76","933","3","1","false","2","2","1,0.7,0,1,0.7,0,0.7,0,1","0.7,0,1,0.7,0,1,0,1,0.7","2",""
"","html-keyboard-response","54","120969","0.0-70.0","","","","","null","<img src=""img/food2.png"" style=""width:200px; border:14px solid green;"">","null","","","","","","","","","",""
"","image-keyboard-response","55","121739","0.0-72.0","","","","","769","img/food2.png","76","769","3","1","false","2","2","1,0.7,0,1,0.7,0,0.7,0,1","0.7,0,1,0.7,0,1,0,1,0.7","2",""
"","html-keyboard-response","56","122041","0.0-73.0","","","","","null","<img src=""img/food2.png"" style=""width:200px; border:14px solid green;"">","null","","","","","","","","","",""
"","image-keyboard-response","57","123024","0.0-75.0","","","","","982","img/food4.png","75","982","2","0","false","1","2","1,0.7,0,1,0.7,0,0.7,0,1","0.7,0,1,0.7,0,1,0,1,0.7","2",""
"","html-keyboard-response","58","123325","0.0-76.0","","","","","null","<img src=""img/food4.png"" style=""width:200px;border:14px solid red;"">","null","","","","","","","","","",""
"","image-keyboard-response","59","124327","0.0-78.0","","","","","","img/food3.png","","1002","-1","0","true","3","2","1,0.7,0,1,0.7,0,0.7,0,1","0.7,0,1,0.7,0,1,0,1,0.7","2",""
"","html-keyboard-response","60","124629","0.0-79.0","","","","","null","<img src=""img/food3.png"" style=""width:200px;border:14px solid red;"">","null","","","","","","","","","",""
"","html-keyboard-response","61","126345","0.0-80.0-0.0","","","","","","","","","","","","","","","","",""
"","image-keyboard-response","62","127196","0.0-81.0","","","","","850","img/food3.png","74","851","1","0","false","3","2","1,0.7,0,1,0.7,0,0.7,0,1","0.7,0,1,0.7,0,1,0,1,0.7","2",""
"","html-keyboard-response","63","127497","0.0-82.0","","","","","null","<img src=""img/food3.png"" style=""width:200px;border:14px solid red;"">","null","","","","","","","","","",""
"","image-keyboard-response","64","128502","0.0-84.0","","","","","","img/food2.png","","1005","-1","0","true","2","2","1,0.7,0,1,0.7,0,0.7,0,1","0.7,0,1,0.7,0,1,0,1,0.7","2",""
"","html-keyboard-response","65","128803","0.0-85.0","","","","","null","<img src=""img/food2.png"" style=""width:200px;border:14px solid red;"">","null","","","","","","","","","",""
"","html-keyboard-response","66","130805","0.0-86.0-0.0","","","","","","","","","","","","","","","","",""
"","image-keyboard-response","67","131684","0.0-87.0","","","","","877","img/food3.png","75","879","2","1","false","3","2","1,0.7,0,1,0.7,0,0.7,0,1","0.7,0,1,0.7,0,1,0,1,0.7","2",""
"","html-keyboard-response","68","131985","0.0-88.0","","","","","null","<img src=""img/food3.png"" style=""width:200px; border:14px solid green;"">","null","","","","","","","","","",""
"","image-keyboard-response","69","132915","0.0-90.0","","","","","930","img/food4.png","76","930","3","1","false","1","2","1,0.7,0,1,0.7,0,0.7,0,1","0.7,0,1,0.7,0,1,0,1,0.7","2",""
"","html-keyboard-response","70","133217","0.0-91.0","","","","","null","<img src=""img/food4.png"" style=""width:200px; border:14px solid green;"">","null","","","","","","","","","",""
"","image-keyboard-response","71","134219","0.0-93.0","","","","","","img/food2.png","","1002","-1","0","true","2","2","1,0.7,0,1,0.7,0,0.7,0,1","0.7,0,1,0.7,0,1,0,1,0.7","2",""
"","html-keyboard-response","72","134521","0.0-94.0","","","","","null","<img src=""img/food2.png"" style=""width:200px;border:14px solid red;"">","null","","","","","","","","","",""
"","html-keyboard-response","73","136295","0.0-95.0-0.0","","","","","","","","","","","","","","","","",""
"","image-keyboard-response","74","137066","0.0-96.0","","","","","769","img/food2.png","76","770","3","1","false","2","2","1,0.7,0,1,0.7,0,0.7,0,1","0.7,0,1,0.7,0,1,0,1,0.7","2",""
"","html-keyboard-response","75","137531","0.0-97.0","","","","","null","<img src=""img/food2.png"" style=""width:200px; border:14px solid green;"">","null","","","","","","","","","",""
"","image-keyboard-response","76","138531","0.0-99.0","","","","","","img/food4.png","","1000","-1","0","true","1","2","1,0.7,0,1,0.7,0,0.7,0,1","0.7,0,1,0.7,0,1,0,1,0.7","2",""
"","html-keyboard-response","77","138833","0.0-100.0","","","","","null","<img src=""img/food4.png"" style=""width:200px;border:14px solid red;"">","null","","","","","","","","","",""
"","html-keyboard-response","78","140969","0.0-101.0-0.0","","","","","","","","","","","","","","","","",""
"","image-keyboard-response","79","141972","0.0-102.0","","","","","","img/food4.png","","1002","-1","0","true","1","2","1,0.7,0,1,0.7,0,0.7,0,1","0.7,0,1,0.7,0,1,0,1,0.7","2",""
"","html-keyboard-response","80","142274","0.0-103.0","","","","","null","<img src=""img/food4.png"" style=""width:200px;border:14px solid red;"">","null","","","","","","","","","",""
"","html-keyboard-response","81","143936","0.0-104.0-0.0","","","","","","","","","","","","","","","","",""
"","image-keyboard-response","82","144830","0.0-105.0","","","","","892","img/food3.png","76","894","3","1","false","3","2","1,0.7,0,1,0.7,0,0.7,0,1","0.7,0,1,0.7,0,1,0,1,0.7","2",""
"","html-keyboard-response","83","145131","0.0-106.0","","","","","null","<img src=""img/food3.png"" style=""width:200px; border:14px solid green;"">","null","","","","","","","","","",""
"","image-keyboard-response","84","146132","0.0-108.0","","","","","","img/food2.png","","1001","-1","0","true","2","2","1,0.7,0,1,0.7,0,0.7,0,1","0.7,0,1,0.7,0,1,0,1,0.7","2",""
"","html-keyboard-response","85","146434","0.0-109.0","","","","","null","<img src=""img/food2.png"" style=""width:200px;border:14px solid red;"">","null","","","","","","","","","",""
"","html-keyboard-response","86","148012","0.0-110.0-0.0","","","","","","","","","","","","","","","","",""
"","image-keyboard-response","87","148904","0.0-111.0","","","","","891","img/food4.png","74","892","1","0","false","1","2","1,0.7,0,1,0.7,0,0.7,0,1","0.7,0,1,0.7,0,1,0,1,0.7","2",""
"","html-keyboard-response","88","149205","0.0-112.0","","","","","null","<img src=""img/food4.png"" style=""width:200px;border:14px solid red;"">","null","","","","","","","","","",""
"","image-keyboard-response","89","150206","0.0-114.0","","","","","","img/food3.png","","1001","-1","0","true","3","2","1,0.7,0,1,0.7,0,0.7,0,1","0.7,0,1,0.7,0,1,0,1,0.7","2",""
"","html-keyboard-response","90","150507","0.0-115.0","","","","","null","<img src=""img/food3.png"" style=""width:200px;border:14px solid red;"">","null","","","","","","","","","",""
"","html-keyboard-response","91","152455","0.0-116.0-0.0","","","","","","","","","","","","","","","","",""
"","image-keyboard-response","92","153255","0.0-117.0","","","","","799","img/food4.png","74","799","1","1","false","1","2","1,0.7,0,1,0.7,0,0.7,0,1","0.7,0,1,0.7,0,1,0,1,0.7","2",""
"","html-keyboard-response","93","153557","0.0-118.0","","","","","null","<img src=""img/food4.png"" style=""width:200px; border:14px solid green;"">","null","","","","","","","","","",""
"","image-keyboard-response","94","154557","0.0-120.0","","","","","","img/food3.png","","1000","-1","0","true","3","2","1,0.7,0,1,0.7,0,0.7,0,1","0.7,0,1,0.7,0,1,0,1,0.7","2",""
"","html-keyboard-response","95","154858","0.0-121.0","","","","","null","<img src=""img/food3.png"" style=""width:200px;border:14px solid red;"">","null","","","","","","","","","",""
"","html-keyboard-response","96","156914","0.0-122.0-0.0","","","","","","","","","","","","","","","","",""
"","image-keyboard-response","97","157707","0.0-123.0","","","","","792","img/food2.png","76","792","3","1","false","2","2","1,0.7,0,1,0.7,0,0.7,0,1","0.7,0,1,0.7,0,1,0,1,0.7","2",""
"","html-keyboard-response","98","158010","0.0-124.0","","","","","null","<img src=""img/food2.png"" style=""width:200px; border:14px solid green;"">","null","","","","","","","","","",""
"","image-keyboard-response","99","159011","0.0-126.0","","","","","","img/food3.png","","1001","-1","0","true","3","2","1,0.7,0,1,0.7,0,0.7,0,1","0.7,0,1,0.7,0,1,0,1,0.7","2",""
"","html-keyboard-response","100","159312","0.0-127.0","","","","","null","<img src=""img/food3.png"" style=""width:200px;border:14px solid red;"">","null","","","","","","","","","",""
"","html-keyboard-response","101","161006","0.0-128.0-0.0","","","","","","","","","","","","","","","","",""
"","image-keyboard-response","102","161768","0.0-129.0","","","","","759","img/food3.png","76","761","3","1","false","3","2","1,0.7,0,1,0.7,0,0.7,0,1","0.7,0,1,0.7,0,1,0,1,0.7","2",""
"","html-keyboard-response","103","162070","0.0-130.0","","","","","null","<img src=""img/food3.png"" style=""width:200px; border:14px solid green;"">","null","","","","","","","","","",""
"","image-keyboard-response","104","162906","0.0-132.0","","","","","834","img/food2.png","75","836","2","0","false","2","2","1,0.7,0,1,0.7,0,0.7,0,1","0.7,0,1,0.7,0,1,0,1,0.7","2",""
"","html-keyboard-response","105","163207","0.0-133.0","","","","","null","<img src=""img/food2.png"" style=""width:200px;border:14px solid red;"">","null","","","","","","","","","",""
"","image-keyboard-response","106","163927","0.0-135.0","","","","","719","img/food3.png","74","720","1","0","false","3","2","1,0.7,0,1,0.7,0,0.7,0,1","0.7,0,1,0.7,0,1,0,1,0.7","2",""
"","html-keyboard-response","107","164229","0.0-136.0","","","","","null","<img src=""img/food3.png"" style=""width:200px;border:14px solid red;"">","null","","","","","","","","","",""
"","image-keyboard-response","108","164985","0.0-138.0","","","","","755","img/food4.png","75","755","2","0","false","1","2","1,0.7,0,1,0.7,0,0.7,0,1","0.7,0,1,0.7,0,1,0,1,0.7","2",""
"","html-keyboard-response","109","165287","0.0-139.0","","","","","null","<img src=""img/food4.png"" style=""width:200px;border:14px solid red;"">","null","","","","","","","","","",""
"","image-keyboard-response","110","165923","0.0-141.0","","","","","635","img/food4.png","76","636","3","1","false","1","2","1,0.7,0,1,0.7,0,0.7,0,1","0.7,0,1,0.7,0,1,0,1,0.7","2",""
"","html-keyboard-response","111","166225","0.0-142.0","","","","","null","<img src=""img/food4.png"" style=""width:200px; border:14px solid green;"">","null","","","","","","","","","",""
"","image-keyboard-response","112","167086","0.0-144.0","","","","","859","img/food3.png","75","860","2","1","false","3","2","1,0.7,0,1,0.7,0,0.7,0,1","0.7,0,1,0.7,0,1,0,1,0.7","2",""
"","html-keyboard-response","113","167389","0.0-145.0","","","","","null","<img src=""img/food3.png"" style=""width:200px; border:14px solid green;"">","null","","","","","","","","","",""
"","image-keyboard-response","114","168181","0.0-147.0","","","","","789","img/food4.png","74","790","1","1","false","1","2","1,0.7,0,1,0.7,0,0.7,0,1","0.7,0,1,0.7,0,1,0,1,0.7","2",""
"","html-keyboard-response","115","168484","0.0-148.0","","","","","null","<img src=""img/food4.png"" style=""width:200px; border:14px solid green;"">","null","","","","","","","","","",""
"","image-keyboard-response","116","169486","0.0-150.0","","","","","","img/food3.png","","1002","-1","0","true","3","2","1,0.7,0,1,0.7,0,0.7,0,1","0.7,0,1,0.7,0,1,0,1,0.7","2",""
"","html-keyboard-response","117","169788","0.0-151.0","","","","","null","<img src=""img/food3.png"" style=""width:200px;border:14px solid red;"">","null","","","","","","","","","",""
"","html-keyboard-response","118","171361","0.0-152.0-0.0","","","","","","","","","","","","","","","","",""
"","image-keyboard-response","119","172256","0.0-153.0","","","","","893","img/food4.png","74","895","1","0","false","1","2","1,0.7,0,1,0.7,0,0.7,0,1","0.7,0,1,0.7,0,1,0,1,0.7","2",""
"","html-keyboard-response","120","172556","0.0-154.0","","","","","null","<img src=""img/food4.png"" style=""width:200px;border:14px solid red;"">","null","","","","","","","","","",""
"","image-keyboard-response","121","173426","0.0-156.0","","","","","870","img/food3.png","75","870","2","1","false","3","2","1,0.7,0,1,0.7,0,0.7,0,1","0.7,0,1,0.7,0,1,0,1,0.7","2",""
"","html-keyboard-response","122","173728","0.0-157.0","","","","","null","<img src=""img/food3.png"" style=""width:200px; border:14px solid green;"">","null","","","","","","","","","",""
"","image-keyboard-response","123","174655","0.0-159.0","","","","","925","img/food4.png","76","926","3","1","false","1","2","1,0.7,0,1,0.7,0,0.7,0,1","0.7,0,1,0.7,0,1,0,1,0.7","2",""
"","html-keyboard-response","124","174957","0.0-160.0","","","","","null","<img src=""img/food4.png"" style=""width:200px; border:14px solid green;"">","null","","","","","","","","","",""
"","image-keyboard-response","125","175826","0.0-162.0","","","","","869","img/food4.png","75","869","2","0","false","1","2","1,0.7,0,1,0.7,0,0.7,0,1","0.7,0,1,0.7,0,1,0,1,0.7","2",""
"","html-keyboard-response","126","176128","0.0-163.0","","","","","null","<img src=""img/food4.png"" style=""width:200px;border:14px solid red;"">","null","","","","","","","","","",""
"","image-keyboard-response","127","177130","0.0-165.0","","","","","","img/food3.png","","1002","-1","0","true","3","2","1,0.7,0,1,0.7,0,0.7,0,1","0.7,0,1,0.7,0,1,0,1,0.7","2",""
"","html-keyboard-response","128","177432","0.0-166.0","","","","","null","<img src=""img/food3.png"" style=""width:200px;border:14px solid red;"">","null","","","","","","","","","",""
"","html-keyboard-response","129","179033","0.0-167.0-0.0","","","","","","","","","","","","","","","","",""
"","image-keyboard-response","130","179822","0.0-168.0","","","","","787","img/food2.png","75","789","2","0","false","2","2","1,0.7,0,1,0.7,0,0.7,0,1","0.7,0,1,0.7,0,1,0,1,0.7","2",""
"","html-keyboard-response","131","180123","0.0-169.0","","","","","null","<img src=""img/food2.png"" style=""width:200px;border:14px solid red;"">","null","","","","","","","","","",""
"","image-keyboard-response","132","181118","0.0-171.0","","","","","993","img/food3.png","74","995","1","0","false","3","2","1,0.7,0,1,0.7,0,0.7,0,1","0.7,0,1,0.7,0,1,0,1,0.7","2",""
"","html-keyboard-response","133","181437","0.0-172.0","","","","","null","<img src=""img/food3.png"" style=""width:200px;border:14px solid red;"">","null","","","","","","","","","",""
"","image-keyboard-response","134","182336","0.0-174.0","","","","","897","img/food3.png","76","899","3","0","false","3","2","1,0.7,0,1,0.7,0,0.7,0,1","0.7,0,1,0.7,0,1,0,1,0.7","2",""
"","html-keyboard-response","135","182637","0.0-175.0","","","","","null","<img src=""img/food3.png"" style=""width:200px;border:14px solid red;"">","null","","","","","","","","","",""
"","image-keyboard-response","136","183638","0.0-177.0","","","","","","img/food2.png","","1001","-1","0","true","2","2","1,0.7,0,1,0.7,0,0.7,0,1","0.7,0,1,0.7,0,1,0,1,0.7","2",""
"","html-keyboard-response","137","183939","0.0-178.0","","","","","null","<img src=""img/food2.png"" style=""width:200px;border:14px solid red;"">","null","","","","","","","","","",""
"","html-keyboard-response","138","185564","0.0-179.0-0.0","","","","","","","","","","","","","","","","",""
"","image-keyboard-response","139","186388","0.0-180.0","","","","","822","img/food2.png","76","824","3","1","false","2","2","1,0.7,0,1,0.7,0,0.7,0,1","0.7,0,1,0.7,0,1,0,1,0.7","2",""
"","html-keyboard-response","140","186690","0.0-181.0","","","","","null","<img src=""img/food2.png"" style=""width:200px; border:14px solid green;"">","null","","","","","","","","","",""
"","image-keyboard-response","141","187692","0.0-183.0","","","","","","img/food4.png","","1002","-1","0","true","1","2","1,0.7,0,1,0.7,0,0.7,0,1","0.7,0,1,0.7,0,1,0,1,0.7","2",""
"","html-keyboard-response","142","187994","0.0-184.0","","","","","null","<img src=""img/food4.png"" style=""width:200px;border:14px solid red;"">","null","","","","","","","","","",""
"","html-keyboard-response","143","189526","0.0-185.0-0.0","","","","","","","","","","","","","","","","",""
"","image-keyboard-response","144","190528","0.0-186.0","","","","","","img/food4.png","","1002","-1","0","true","1","2","1,0.7,0,1,0.7,0,0.7,0,1","0.7,0,1,0.7,0,1,0,1,0.7","2",""
"","html-keyboard-response","145","190830","0.0-187.0","","","","","null","<img src=""img/food4.png"" style=""width:200px;border:14px solid red;"">","null","","","","","","","","","",""
"","html-keyboard-response","146","192256","0.0-188.0-0.0","","","","","","","","","","","","","","","","",""
"","image-keyboard-response","147","193256","0.0-189.0","","","","","","img/food3.png","","1001","-1","0","true","3","2","1,0.7,0,1,0.7,0,0.7,0,1","0.7,0,1,0.7,0,1,0,1,0.7","2",""
"","html-keyboard-response","148","193558","0.0-190.0","","","","","null","<img src=""img/food3.png"" style=""width:200px;border:14px solid red;"">","null","","","","","","","","","",""
"","html-keyboard-response","149","195680","0.0-191.0-0.0","","","","","","","","","","","","","","","","",""
"","image-keyboard-response","150","196657","0.0-192.0","","","","","976","img/food2.png","76","977","3","1","false","2","2","1,0.7,0,1,0.7,0,0.7,0,1","0.7,0,1,0.7,0,1,0,1,0.7","2",""
"","html-keyboard-response","151","196959","0.0-193.0","","","","","null","<img src=""img/food2.png"" style=""width:200px; border:14px solid green;"">","null","","","","","","","","","",""
"","image-keyboard-response","152","197713","0.0-195.0","","","","","753","img/food4.png","75","754","2","0","false","1","2","1,0.7,0,1,0.7,0,0.7,0,1","0.7,0,1,0.7,0,1,0,1,0.7","2",""
"","html-keyboard-response","153","198015","0.0-196.0","","","","","null","<img src=""img/food4.png"" style=""width:200px;border:14px solid red;"">","null","","","","","","","","","",""
"","image-keyboard-response","154","199010","0.0-198.0","","","","","994","img/food4.png","74","995","1","1","false","1","2","1,0.7,0,1,0.7,0,0.7,0,1","0.7,0,1,0.7,0,1,0,1,0.7","2",""
"","html-keyboard-response","155","199312","0.0-199.0","","","","","null","<img src=""img/food4.png"" style=""width:200px; border:14px solid green;"">","null","","","","","","","","","",""
"","image-keyboard-response","156","200314","0.0-201.0","","","","","","img/food3.png","","1002","-1","0","true","3","2","1,0.7,0,1,0.7,0,0.7,0,1","0.7,0,1,0.7,0,1,0,1,0.7","2",""
"","html-keyboard-response","157","200616","0.0-202.0","","","","","null","<img src=""img/food3.png"" style=""width:200px;border:14px solid red;"">","null","","","","","","","","","",""
"","html-keyboard-response","158","202260","0.0-203.0-0.0","","","","","","","","","","","","","","","","",""
"","image-keyboard-response","159","203140","0.0-204.0","","","","","879","img/food4.png","76","879","3","1","false","1","2","1,0.7,0,1,0.7,0,0.7,0,1","0.7,0,1,0.7,0,1,0,1,0.7","2",""
"","html-keyboard-response","160","203475","0.0-205.0","","","","","null","<img src=""img/food4.png"" style=""width:200px; border:14px solid green;"">","null","","","","","","","","","",""
"","image-keyboard-response","161","204478","0.0-207.0","","","","","","img/food2.png","","1002","-1","0","true","2","2","1,0.7,0,1,0.7,0,0.7,0,1","0.7,0,1,0.7,0,1,0,1,0.7","2",""
"","html-keyboard-response","162","204780","0.0-208.0","","","","","null","<img src=""img/food2.png"" style=""width:200px;border:14px solid red;"">","null","","","","","","","","","",""
"","html-keyboard-response","163","206355","0.0-209.0-0.0","","","","","","","","","","","","","","","","",""
"","image-keyboard-response","164","207380","0.0-210.0","","","","","","img/food4.png","","1025","-1","0","true","1","2","1,0.7,0,1,0.7,0,0.7,0,1","0.7,0,1,0.7,0,1,0,1,0.7","2",""
"","html-keyboard-response","165","207681","0.0-211.0","","","","","null","<img src=""img/food4.png"" style=""width:200px;border:14px solid red;"">","null","","","","","","","","","",""
"","html-keyboard-response","166","209164","0.0-212.0-0.0","","","","","","","","","","","","","","","","",""
"","image-keyboard-response","167","209956","0.0-213.0","","","","","789","img/food4.png","75","791","2","0","false","1","2","1,0.7,0,1,0.7,0,0.7,0,1","0.7,0,1,0.7,0,1,0,1,0.7","2",""
"","html-keyboard-response","168","210258","0.0-214.0","","","","","null","<img src=""img/food4.png"" style=""width:200px;border:14px solid red;"">","null","","","","","","","","","",""
"","image-keyboard-response","169","210945","0.0-216.0","","","","","686","img/food2.png","74","686","1","1","false","2","2","1,0.7,0,1,0.7,0,0.7,0,1","0.7,0,1,0.7,0,1,0,1,0.7","2",""
"","html-keyboard-response","170","211247","0.0-217.0","","","","","null","<img src=""img/food2.png"" style=""width:200px; border:14px solid green;"">","null","","","","","","","","","",""
"","image-keyboard-response","171","212111","0.0-219.0","","","","","863","img/food3.png","75","864","2","1","false","3","2","1,0.7,0,1,0.7,0,0.7,0,1","0.7,0,1,0.7,0,1,0,1,0.7","2",""
"","html-keyboard-response","172","212413","0.0-220.0","","","","","null","<img src=""img/food3.png"" style=""width:200px; border:14px solid green;"">","null","","","","","","","","","",""
"","image-keyboard-response","173","213381","0.0-222.0","","","","","966","img/food3.png","76","968","3","0","false","3","2","1,0.7,0,1,0.7,0,0.7,0,1","0.7,0,1,0.7,0,1,0,1,0.7","2",""
"","html-keyboard-response","174","213682","0.0-223.0","","","","","null","<img src=""img/food3.png"" style=""width:200px;border:14px solid red;"">","null","","","","","","","","","",""
"","image-keyboard-response","175","214654","0.0-225.0","","","","","970","img/food3.png","75","972","2","1","false","3","2","1,0.7,0,1,0.7,0,0.7,0,1","0.7,0,1,0.7,0,1,0,1,0.7","2",""
"","html-keyboard-response","176","214956","0.0-226.0","","","","","null","<img src=""img/food3.png"" style=""width:200px; border:14px solid green;"">","null","","","","","","","","","",""
"","image-keyboard-response","177","215790","0.0-228.0","","","","","833","img/food3.png","75","834","2","1","false","3","2","1,0.7,0,1,0.7,0,0.7,0,1","0.7,0,1,0.7,0,1,0,1,0.7","2",""
"","html-keyboard-response","178","216093","0.0-229.0","","","","","null","<img src=""img/food3.png"" style=""width:200px; border:14px solid green;"">","null","","","","","","","","","",""
"","image-keyboard-response","179","217094","0.0-231.0","","","","","","img/food4.png","","1001","-1","0","true","1","2","1,0.7,0,1,0.7,0,0.7,0,1","0.7,0,1,0.7,0,1,0,1,0.7","2",""
"","html-keyboard-response","180","217395","0.0-232.0","","","","","null","<img src=""img/food4.png"" style=""width:200px;border:14px solid red;"">","null","","","","","","","","","",""
"","html-keyboard-response","181","218900","0.0-233.0-0.0","","","","","","","","","","","","","","","","",""
"","image-keyboard-response","182","219781","0.0-234.0","","","","","880","img/food4.png","74","881","1","1","false","1","2","1,0.7,0,1,0.7,0,0.7,0,1","0.7,0,1,0.7,0,1,0,1,0.7","2",""
"","html-keyboard-response","183","220083","0.0-235.0","","","","","null","<img src=""img/food4.png"" style=""width:200px; border:14px solid green;"">","null","","","","","","","","","",""
"","image-keyboard-response","184","221005","0.0-237.0","","","","","920","img/food3.png","75","921","2","1","false","3","2","1,0.7,0,1,0.7,0,0.7,0,1","0.7,0,1,0.7,0,1,0,1,0.7","2",""
"","html-keyboard-response","185","221306","0.0-238.0","","","","","null","<img src=""img/food3.png"" style=""width:200px; border:14px solid green;"">","null","","","","","","","","","",""
"","image-keyboard-response","186","222167","0.0-240.0","","","","","860","img/food4.png","76","861","3","1","false","1","2","1,0.7,0,1,0.7,0,0.7,0,1","0.7,0,1,0.7,0,1,0,1,0.7","2",""
"","html-keyboard-response","187","222468","0.0-241.0","","","","","null","<img src=""img/food4.png"" style=""width:200px; border:14px solid green;"">","null","","","","","","","","","",""
"","image-keyboard-response","188","223469","0.0-243.0","","","","","","img/food3.png","","1001","-1","0","true","3","2","1,0.7,0,1,0.7,0,0.7,0,1","0.7,0,1,0.7,0,1,0,1,0.7","2",""
"","html-keyboard-response","189","223770","0.0-244.0","","","","","null","<img src=""img/food3.png"" style=""width:200px;border:14px solid red;"">","null","","","","","","","","","",""
"","html-keyboard-response","190","225328","0.0-245.0-0.0","","","","","","","","","","","","","","","","",""
"","image-keyboard-response","191","226281","0.0-246.0","","","","","950","img/food4.png","74","953","1","1","false","1","2","1,0.7,0,1,0.7,0,0.7,0,1","0.7,0,1,0.7,0,1,0,1,0.7","2",""
"","html-keyboard-response","192","226583","0.0-247.0","","","","","null","<img src=""img/food4.png"" style=""width:200px; border:14px solid green;"">","null","","","","","","","","","",""
"","image-keyboard-response","193","227552","0.0-249.0","","","","","968","img/food4.png","74","969","1","1","false","1","2","1,0.7,0,1,0.7,0,0.7,0,1","0.7,0,1,0.7,0,1,0,1,0.7","2",""
"","html-keyboard-response","194","227854","0.0-250.0","","","","","null","<img src=""img/food4.png"" style=""width:200px; border:14px solid green;"">","null","","","","","","","","","",""
"","image-keyboard-response","195","228822","0.0-252.0","","","","","967","img/food2.png","75","968","2","0","false","2","2","1,0.7,0,1,0.7,0,0.7,0,1","0.7,0,1,0.7,0,1,0,1,0.7","2",""
"","html-keyboard-response","196","229123","0.0-253.0","","","","","null","<img src=""img/food2.png"" style=""width:200px;border:14px solid red;"">","null","","","","","","","","","",""
"","image-keyboard-response","197","230125","0.0-255.0","","","","","","img/food2.png","","1001","-1","0","true","2","2","1,0.7,0,1,0.7,0,0.7,0,1","0.7,0,1,0.7,0,1,0,1,0.7","2",""
"","html-keyboard-response","198","230426","0.0-256.0","","","","","null","<img src=""img/food2.png"" style=""width:200px;border:14px solid red;"">","null","","","","","","","","","",""
"","html-keyboard-response","199","232079","0.0-257.0-0.0","","","","","","","","","","","","","","","","",""
"","image-keyboard-response","200","232894","0.0-258.0","","","","","813","img/food2.png","76","814","3","1","false","2","2","1,0.7,0,1,0.7,0,0.7,0,1","0.7,0,1,0.7,0,1,0,1,0.7","2",""
"","html-keyboard-response","201","233196","0.0-259.0","","","","","null","<img src=""img/food2.png"" style=""width:200px; border:14px solid green;"">","null","","","","","","","","","",""
"","image-keyboard-response","202","234196","0.0-261.0","","","","","","img/food3.png","","1000","-1","0","true","3","2","1,0.7,0,1,0.7,0,0.7,0,1","0.7,0,1,0.7,0,1,0,1,0.7","2",""
"","html-keyboard-response","203","234498","0.0-262.0","","","","","null","<img src=""img/food3.png"" style=""width:200px;border:14px solid red;"">","null","","","","","","","","","",""
"","html-keyboard-response","204","236037","0.0-263.0-0.0","","","","","","","","","","","","","","","","",""
"","image-keyboard-response","205","236936","0.0-264.0","","","","","896","img/food3.png","75","898","2","1","false","3","2","1,0.7,0,1,0.7,0,0.7,0,1","0.7,0,1,0.7,0,1,0,1,0.7","2",""
"","html-keyboard-response","206","237237","0.0-265.0","","","","","null","<img src=""img/food3.png"" style=""width:200px; border:14px solid green;"">","null","","","","","","","","","",""
"","image-keyboard-response","207","238156","0.0-267.0","","","","","918","img/food4.png","74","919","1","0","false","1","2","1,0.7,0,1,0.7,0,0.7,0,1","0.7,0,1,0.7,0,1,0,1,0.7","2",""
"","html-keyboard-response","208","238458","0.0-268.0","","","","","null","<img src=""img/food4.png"" style=""width:200px;border:14px solid red;"">","null","","","","","","","","","",""
"","image-keyboard-response","209","239434","0.0-270.0","","","","","975","img/food3.png","75","976","2","1","false","3","2","1,0.7,0,1,0.7,0,0.7,0,1","0.7,0,1,0.7,0,1,0,1,0.7","2",""
"","html-keyboard-response","210","239736","0.0-271.0","","","","","null","<img src=""img/food3.png"" style=""width:200px; border:14px solid green;"">","null","","","","","","","","","",""
"","instructions","211","250143","0.0-273.0","","","","[{""page_index"":0,""viewing_time"":8653},{""page_index"":1,""viewing_time"":1754}]","10407","","","","","","","","","","","",""
"","image-keyboard-response","212","252145","0.0-274.0","","","","","","img/food6.png","","2002","-1","0","","2","1","1,0.7,0,1,0.7,0,0.7,0,1","1,0.7,0,1,0.7,0,0.7,0,1","1",""
"","html-keyboard-response","213","252446","0.0-275.0","","","","","null","<img src=""img/food6.png"" style=""width:200px;border:14px solid red;"">","null","","","","","","","","","",""
"","image-keyboard-response","214","253144","0.0-276.0","","","","","698","img/food6.png","74","698","1","1","","2","1","1,0.7,0,1,0.7,0,0.7,0,1","1,0.7,0,1,0.7,0,0.7,0,1","1",""
"","html-keyboard-response","215","253447","0.0-277.0","","","","","null","<img src=""img/food6.png"" style=""width:200px; border:14px solid green;"">","null","","","","","","","","","",""
"","image-keyboard-response","216","255326","0.0-278.0","","","","","1879","img/food1.png","75","1879","2","0","","3","1","1,0.7,0,1,0.7,0,0.7,0,1","1,0.7,0,1,0.7,0,0.7,0,1","1",""
"","html-keyboard-response","217","255627","0.0-279.0","","","","","null","<img src=""img/food1.png"" style=""width:200px;border:14px solid red;"">","null","","","","","","","","","",""
"","image-keyboard-response","218","256651","0.0-280.0","","","","","1023","img/food6.png","76","1024","3","0","","2","1","1,0.7,0,1,0.7,0,0.7,0,1","1,0.7,0,1,0.7,0,0.7,0,1","1",""
"","html-keyboard-response","219","256954","0.0-281.0","","","","","null","<img src=""img/food6.png"" style=""width:200px;border:14px solid red;"">","null","","","","","","","","","",""
"","image-keyboard-response","220","258218","0.0-282.0","","","","","1264","img/food6.png","75","1264","2","1","","2","1","1,0.7,0,1,0.7,0,0.7,0,1","1,0.7,0,1,0.7,0,0.7,0,1","1",""
"","html-keyboard-response","221","258521","0.0-283.0","","","","","null","<img src=""img/food6.png"" style=""width:200px; border:14px solid green;"">","null","","","","","","","","","",""
"","image-keyboard-response","222","259636","0.0-284.0","","","","","1114","img/food1.png","76","1116","3","1","","3","1","1,0.7,0,1,0.7,0,0.7,0,1","1,0.7,0,1,0.7,0,0.7,0,1","1",""
"","html-keyboard-response","223","259938","0.0-285.0","","","","","null","<img src=""img/food1.png"" style=""width:200px; border:14px solid green;"">","null","","","","","","","","","",""
"","image-keyboard-response","224","261082","0.0-286.0","","","","","1143","img/food1.png","76","1145","3","1","","3","1","1,0.7,0,1,0.7,0,0.7,0,1","1,0.7,0,1,0.7,0,0.7,0,1","1",""
"","html-keyboard-response","225","261385","0.0-287.0","","","","","null","<img src=""img/food1.png"" style=""width:200px; border:14px solid green;"">","null","","","","","","","","","",""
"","image-keyboard-response","226","262279","0.0-288.0","","","","","894","img/food1.png","76","894","3","1","","3","1","1,0.7,0,1,0.7,0,0.7,0,1","1,0.7,0,1,0.7,0,0.7,0,1","1",""
"","html-keyboard-response","227","262580","0.0-289.0","","","","","null","<img src=""img/food1.png"" style=""width:200px; border:14px solid green;"">","null","","","","","","","","","",""
"","image-keyboard-response","228","264582","0.0-290.0","","","","","","img/food5.png","","2001","-1","0","","1","1","1,0.7,0,1,0.7,0,0.7,0,1","1,0.7,0,1,0.7,0,0.7,0,1","1",""
"","html-keyboard-response","229","264883","0.0-291.0","","","","","null","<img src=""img/food5.png"" style=""width:200px;border:14px solid red;"">","null","","","","","","","","","",""
"","image-keyboard-response","230","265646","0.0-292.0","","","","","762","img/food6.png","76","763","3","0","","2","1","1,0.7,0,1,0.7,0,0.7,0,1","1,0.7,0,1,0.7,0,0.7,0,1","1",""
"","html-keyboard-response","231","265948","0.0-293.0","","","","","null","<img src=""img/food6.png"" style=""width:200px;border:14px solid red;"">","null","","","","","","","","","",""
"","image-keyboard-response","232","266714","0.0-294.0","","","","","765","img/food1.png","75","766","2","0","","3","1","1,0.7,0,1,0.7,0,0.7,0,1","1,0.7,0,1,0.7,0,0.7,0,1","1",""
"","html-keyboard-response","233","267015","0.0-295.0","","","","","null","<img src=""img/food1.png"" style=""width:200px;border:14px solid red;"">","null","","","","","","","","","",""
"","image-keyboard-response","234","267935","0.0-296.0","","","","","919","img/food1.png","74","919","1","1","","3","1","1,0.7,0,1,0.7,0,0.7,0,1","1,0.7,0,1,0.7,0,0.7,0,1","1",""
"","html-keyboard-response","235","268237","0.0-297.0","","","","","null","<img src=""img/food1.png"" style=""width:200px; border:14px solid green;"">","null","","","","","","","","","",""
"","image-keyboard-response","236","269338","0.0-298.0","","","","","1100","img/food6.png","75","1100","2","1","","2","1","1,0.7,0,1,0.7,0,0.7,0,1","1,0.7,0,1,0.7,0,0.7,0,1","1",""
"","html-keyboard-response","237","269639","0.0-299.0","","","","","null","<img src=""img/food6.png"" style=""width:200px; border:14px solid green;"">","null","","","","","","","","","",""
"","image-keyboard-response","238","270794","0.0-300.0","","","","","1154","img/food6.png","75","1156","2","0","","2","1","1,0.7,0,1,0.7,0,0.7,0,1","1,0.7,0,1,0.7,0,0.7,0,1","1",""
"","html-keyboard-response","239","271095","0.0-301.0","","","","","null","<img src=""img/food6.png"" style=""width:200px;border:14px solid red;"">","null","","","","","","","","","",""
"","image-keyboard-response","240","272167","0.0-302.0","","","","","1071","img/food1.png","76","1073","3","1","","3","1","1,0.7,0,1,0.7,0,0.7,0,1","1,0.7,0,1,0.7,0,0.7,0,1","1",""
"","html-keyboard-response","241","272469","0.0-303.0","","","","","null","<img src=""img/food1.png"" style=""width:200px; border:14px solid green;"">","null","","","","","","","","","",""
"","image-keyboard-response","242","273495","0.0-304.0","","","","","1026","img/food6.png","75","1026","2","1","","2","1","1,0.7,0,1,0.7,0,0.7,0,1","1,0.7,0,1,0.7,0,0.7,0,1","1",""
"","html-keyboard-response","243","273797","0.0-305.0","","","","","null","<img src=""img/food6.png"" style=""width:200px; border:14px solid green;"">","null","","","","","","","","","",""
"","image-keyboard-response","244","274815","0.0-306.0","","","","","1018","img/food6.png","75","1018","2","1","","2","1","1,0.7,0,1,0.7,0,0.7,0,1","1,0.7,0,1,0.7,0,0.7,0,1","1",""
"","html-keyboard-response","245","275116","0.0-307.0","","","","","null","<img src=""img/food6.png"" style=""width:200px; border:14px solid green;"">","null","","","","","","","","","",""
"","image-keyboard-response","246","276368","0.0-308.0","","","","","1251","img/food5.png","74","1252","1","1","","1","1","1,0.7,0,1,0.7,0,0.7,0,1","1,0.7,0,1,0.7,0,0.7,0,1","1",""
"","html-keyboard-response","247","276669","0.0-309.0","","","","","null","<img src=""img/food5.png"" style=""width:200px; border:14px solid green;"">","null","","","","","","","","","",""
"","image-keyboard-response","248","277689","0.0-310.0","","","","","1018","img/food1.png","75","1020","2","0","","3","1","1,0.7,0,1,0.7,0,0.7,0,1","1,0.7,0,1,0.7,0,0.7,0,1","1",""
"","html-keyboard-response","249","277990","0.0-311.0","","","","","null","<img src=""img/food1.png"" style=""width:200px;border:14px solid red;"">","null","","","","","","","","","",""
"","image-keyboard-response","250","278827","0.0-312.0","","","","","835","img/food1.png","76","837","3","1","","3","1","1,0.7,0,1,0.7,0,0.7,0,1","1,0.7,0,1,0.7,0,0.7,0,1","1",""
"","html-keyboard-response","251","279128","0.0-313.0","","","","","null","<img src=""img/food1.png"" style=""width:200px; border:14px solid green;"">","null","","","","","","","","","",""
"","image-keyboard-response","252","279873","0.0-314.0","","","","","744","img/food1.png","76","746","3","1","","3","1","1,0.7,0,1,0.7,0,0.7,0,1","1,0.7,0,1,0.7,0,0.7,0,1","1",""
"","html-keyboard-response","253","280175","0.0-315.0","","","","","null","<img src=""img/food1.png"" style=""width:200px; border:14px solid green;"">","null","","","","","","","","","",""
"","image-keyboard-response","254","280968","0.0-316.0","","","","","792","img/food1.png","76","793","3","1","","3","1","1,0.7,0,1,0.7,0,0.7,0,1","1,0.7,0,1,0.7,0,0.7,0,1","1",""
"","html-keyboard-response","255","281269","0.0-317.0","","","","","null","<img src=""img/food1.png"" style=""width:200px; border:14px solid green;"">","null","","","","","","","","","",""
"","image-keyboard-response","256","282245","0.0-318.0","","","","","974","img/food6.png","75","976","2","1","","2","1","1,0.7,0,1,0.7,0,0.7,0,1","1,0.7,0,1,0.7,0,0.7,0,1","1",""
"","html-keyboard-response","257","282546","0.0-319.0","","","","","null","<img src=""img/food6.png"" style=""width:200px; border:14px solid green;"">","null","","","","","","","","","",""
"","image-keyboard-response","258","283496","0.0-320.0","","","","","949","img/food1.png","74","950","1","1","","3","1","1,0.7,0,1,0.7,0,0.7,0,1","1,0.7,0,1,0.7,0,0.7,0,1","1",""
"","html-keyboard-response","259","283798","0.0-321.0","","","","","null","<img src=""img/food1.png"" style=""width:200px; border:14px solid green;"">","null","","","","","","","","","",""
"","image-keyboard-response","260","284839","0.0-322.0","","","","","1039","img/food1.png","74","1041","1","1","","3","1","1,0.7,0,1,0.7,0,0.7,0,1","1,0.7,0,1,0.7,0,0.7,0,1","1",""
"","html-keyboard-response","261","285140","0.0-323.0","","","","","null","<img src=""img/food1.png"" style=""width:200px; border:14px solid green;"">","null","","","","","","","","","",""
"","image-keyboard-response","262","286040","0.0-324.0","","","","","898","img/food1.png","74","900","1","1","","3","1","1,0.7,0,1,0.7,0,0.7,0,1","1,0.7,0,1,0.7,0,0.7,0,1","1",""
"","html-keyboard-response","263","286340","0.0-325.0","","","","","null","<img src=""img/food1.png"" style=""width:200px; border:14px solid green;"">","null","","","","","","","","","",""
"","image-keyboard-response","264","287465","0.0-326.0","","","","","1124","img/food5.png","75","1125","2","1","","1","1","1,0.7,0,1,0.7,0,0.7,0,1","1,0.7,0,1,0.7,0,0.7,0,1","1",""
"","html-keyboard-response","265","287768","0.0-327.0","","","","","null","<img src=""img/food5.png"" style=""width:200px; border:14px solid green;"">","null","","","","","","","","","",""
"","image-keyboard-response","266","288637","0.0-328.0","","","","","868","img/food5.png","75","869","2","1","","1","1","1,0.7,0,1,0.7,0,0.7,0,1","1,0.7,0,1,0.7,0,0.7,0,1","1",""
"","html-keyboard-response","267","288938","0.0-329.0","","","","","null","<img src=""img/food5.png"" style=""width:200px; border:14px solid green;"">","null","","","","","","","","","",""
"","image-keyboard-response","268","289946","0.0-330.0","","","","","1006","img/food1.png","76","1008","3","1","","3","1","1,0.7,0,1,0.7,0,0.7,0,1","1,0.7,0,1,0.7,0,0.7,0,1","1",""
"","html-keyboard-response","269","290247","0.0-331.0","","","","","null","<img src=""img/food1.png"" style=""width:200px; border:14px solid green;"">","null","","","","","","","","","",""
"","image-keyboard-response","270","291519","0.0-332.0","","","","","1271","img/food6.png","75","1272","2","0","","2","1","1,0.7,0,1,0.7,0,0.7,0,1","1,0.7,0,1,0.7,0,0.7,0,1","1",""
"","html-keyboard-response","271","291820","0.0-333.0","","","","","null","<img src=""img/food6.png"" style=""width:200px;border:14px solid red;"">","null","","","","","","","","","",""
"","image-keyboard-response","272","292999","0.0-334.0","","","","","1177","img/food6.png","76","1179","3","0","","2","1","1,0.7,0,1,0.7,0,0.7,0,1","1,0.7,0,1,0.7,0,0.7,0,1","1",""
"","html-keyboard-response","273","293300","0.0-335.0","","","","","null","<img src=""img/food6.png"" style=""width:200px;border:14px solid red;"">","null","","","","","","","","","",""
"","image-keyboard-response","274","294846","0.0-336.0","","","","","1544","img/food5.png","74","1546","1","1","","1","1","1,0.7,0,1,0.7,0,0.7,0,1","1,0.7,0,1,0.7,0,0.7,0,1","1",""
"","html-keyboard-response","275","295146","0.0-337.0","","","","","null","<img src=""img/food5.png"" style=""width:200px; border:14px solid green;"">","null","","","","","","","","","",""
"","image-keyboard-response","276","296406","0.0-338.0","","","","","1259","img/food1.png","76","1260","3","1","","3","1","1,0.7,0,1,0.7,0,0.7,0,1","1,0.7,0,1,0.7,0,0.7,0,1","1",""
"","html-keyboard-response","277","296708","0.0-339.0","","","","","null","<img src=""img/food1.png"" style=""width:200px; border:14px solid green;"">","null","","","","","","","","","",""
"","image-keyboard-response","278","297697","0.0-340.0","","","","","989","img/food6.png","75","989","2","1","","2","1","1,0.7,0,1,0.7,0,0.7,0,1","1,0.7,0,1,0.7,0,0.7,0,1","1",""
"","html-keyboard-response","279","297999","0.0-341.0","","","","","null","<img src=""img/food6.png"" style=""width:200px; border:14px solid green;"">","null","","","","","","","","","",""
"","image-keyboard-response","280","299061","0.0-342.0","","","","","1061","img/food5.png","74","1062","1","1","","1","1","1,0.7,0,1,0.7,0,0.7,0,1","1,0.7,0,1,0.7,0,0.7,0,1","1",""
"","html-keyboard-response","281","299362","0.0-343.0","","","","","null","<img src=""img/food5.png"" style=""width:200px; border:14px solid green;"">","null","","","","","","","","","",""
"","image-keyboard-response","282","300476","0.0-344.0","","","","","1111","img/food1.png","76","1112","3","1","","3","1","1,0.7,0,1,0.7,0,0.7,0,1","1,0.7,0,1,0.7,0,0.7,0,1","1",""
"","html-keyboard-response","283","300777","0.0-345.0","","","","","null","<img src=""img/food1.png"" style=""width:200px; border:14px solid green;"">","null","","","","","","","","","",""
"","image-keyboard-response","284","301745","0.0-346.0","","","","","968","img/food6.png","75","968","2","0","","2","1","1,0.7,0,1,0.7,0,0.7,0,1","1,0.7,0,1,0.7,0,0.7,0,1","1",""
"","html-keyboard-response","285","302048","0.0-347.0","","","","","null","<img src=""img/food6.png"" style=""width:200px;border:14px solid red;"">","null","","","","","","","","","",""
"","image-keyboard-response","286","303037","0.0-348.0","","","","","989","img/food6.png","75","989","2","1","","2","1","1,0.7,0,1,0.7,0,0.7,0,1","1,0.7,0,1,0.7,0,0.7,0,1","1",""
"","html-keyboard-response","287","303339","0.0-349.0","","","","","null","<img src=""img/food6.png"" style=""width:200px; border:14px solid green;"">","null","","","","","","","","","",""
"","image-keyboard-response","288","304511","0.0-350.0","","","","","1171","img/food5.png","74","1172","1","1","","1","1","1,0.7,0,1,0.7,0,0.7,0,1","1,0.7,0,1,0.7,0,0.7,0,1","1",""
"","html-keyboard-response","289","304812","0.0-351.0","","","","","null","<img src=""img/food5.png"" style=""width:200px; border:14px solid green;"">","null","","","","","","","","","",""
"","image-keyboard-response","290","306225","0.0-352.0","","","","","1412","img/food6.png","75","1414","2","1","","2","1","1,0.7,0,1,0.7,0,0.7,0,1","1,0.7,0,1,0.7,0,0.7,0,1","1",""
"","html-keyboard-response","291","306527","0.0-353.0","","","","","null","<img src=""img/food6.png"" style=""width:200px; border:14px solid green;"">","null","","","","","","","","","",""
"","image-keyboard-response","292","307546","0.0-354.0","","","","","1018","img/food6.png","75","1019","2","1","","2","1","1,0.7,0,1,0.7,0,0.7,0,1","1,0.7,0,1,0.7,0,0.7,0,1","1",""
"","html-keyboard-response","293","307846","0.0-355.0","","","","","null","<img src=""img/food6.png"" style=""width:200px; border:14px solid green;"">","null","","","","","","","","","",""
"","image-keyboard-response","294","308799","0.0-356.0","","","","","952","img/food5.png","76","953","3","0","","1","1","1,0.7,0,1,0.7,0,0.7,0,1","1,0.7,0,1,0.7,0,0.7,0,1","1",""
"","html-keyboard-response","295","309100","0.0-357.0","","","","","null","<img src=""img/food5.png"" style=""width:200px;border:14px solid red;"">","null","","","","","","","","","",""
"","image-keyboard-response","296","309896","0.0-358.0","","","","","795","img/food5.png","74","796","1","1","","1","1","1,0.7,0,1,0.7,0,0.7,0,1","1,0.7,0,1,0.7,0,0.7,0,1","1",""
"","html-keyboard-response","297","310197","0.0-359.0","","","","","null","<img src=""img/food5.png"" style=""width:200px; border:14px solid green;"">","null","","","","","","","","","",""
"","image-keyboard-response","298","311238","0.0-360.0","","","","","1039","img/food1.png","76","1041","3","1","","3","1","1,0.7,0,1,0.7,0,0.7,0,1","1,0.7,0,1,0.7,0,0.7,0,1","1",""
"","html-keyboard-response","299","311539","0.0-361.0","","","","","null","<img src=""img/food1.png"" style=""width:200px; border:14px solid green;"">","null","","","","","","","","","",""
"","image-keyboard-response","300","312608","0.0-362.0","","","","","1068","img/food6.png","75","1070","2","1","","2","1","1,0.7,0,1,0.7,0,0.7,0,1","1,0.7,0,1,0.7,0,0.7,0,1","1",""
"","html-keyboard-response","301","312911","0.0-363.0","","","","","null","<img src=""img/food6.png"" style=""width:200px; border:14px solid green;"">","null","","","","","","","","","",""
"","image-keyboard-response","302","313899","0.0-364.0","","","","","986","img/food5.png","74","988","1","1","","1","1","1,0.7,0,1,0.7,0,0.7,0,1","1,0.7,0,1,0.7,0,0.7,0,1","1",""
"","html-keyboard-response","303","314200","0.0-365.0","","","","","null","<img src=""img/food5.png"" style=""width:200px; border:14px solid green;"">","null","","","","","","","","","",""
"","image-keyboard-response","304","315103","0.0-366.0","","","","","902","img/food5.png","74","902","1","1","","1","1","1,0.7,0,1,0.7,0,0.7,0,1","1,0.7,0,1,0.7,0,0.7,0,1","1",""
"","html-keyboard-response","305","315405","0.0-367.0","","","","","null","<img src=""img/food5.png"" style=""width:200px; border:14px solid green;"">","null","","","","","","","","","",""
"","image-keyboard-response","306","316518","0.0-368.0","","","","","1112","img/food1.png","75","1112","2","0","","3","1","1,0.7,0,1,0.7,0,0.7,0,1","1,0.7,0,1,0.7,0,0.7,0,1","1",""
"","html-keyboard-response","307","316820","0.0-369.0","","","","","null","<img src=""img/food1.png"" style=""width:200px;border:14px solid red;"">","null","","","","","","","","","",""
"","image-keyboard-response","308","318085","0.0-370.0","","","","","1264","img/food6.png","75","1264","2","1","","2","1","1,0.7,0,1,0.7,0,0.7,0,1","1,0.7,0,1,0.7,0,0.7,0,1","1",""
"","html-keyboard-response","309","318386","0.0-371.0","","","","","null","<img src=""img/food6.png"" style=""width:200px; border:14px solid green;"">","null","","","","","","","","","",""
"","image-keyboard-response","310","319575","0.0-372.0","","","","","1188","img/food5.png","74","1189","1","1","","1","1","1,0.7,0,1,0.7,0,0.7,0,1","1,0.7,0,1,0.7,0,0.7,0,1","1",""
"","html-keyboard-response","311","319876","0.0-373.0","","","","","null","<img src=""img/food5.png"" style=""width:200px; border:14px solid green;"">","null","","","","","","","","","",""
"","image-keyboard-response","312","321029","0.0-374.0","","","","","1152","img/food1.png","76","1153","3","1","","3","1","1,0.7,0,1,0.7,0,0.7,0,1","1,0.7,0,1,0.7,0,0.7,0,1","1",""
"","html-keyboard-response","313","321342","0.0-375.0","","","","","null","<img src=""img/food1.png"" style=""width:200px; border:14px solid green;"">","null","","","","","","","","","",""
"","image-keyboard-response","314","322435","0.0-376.0","","","","","1093","img/food5.png","75","1093","2","1","","1","1","1,0.7,0,1,0.7,0,0.7,0,1","1,0.7,0,1,0.7,0,0.7,0,1","1",""
"","html-keyboard-response","315","322738","0.0-377.0","","","","","null","<img src=""img/food5.png"" style=""width:200px; border:14px solid green;"">","null","","","","","","","","","",""
"","image-keyboard-response","316","324249","0.0-378.0","","","","","1511","img/food1.png","75","1511","2","0","","3","1","1,0.7,0,1,0.7,0,0.7,0,1","1,0.7,0,1,0.7,0,0.7,0,1","1",""
"","html-keyboard-response","317","324553","0.0-379.0","","","","","null","<img src=""img/food1.png"" style=""width:200px;border:14px solid red;"">","null","","","","","","","","","",""
"","image-keyboard-response","318","325838","0.0-380.0","","","","","1285","img/food1.png","74","1285","1","1","","3","1","1,0.7,0,1,0.7,0,0.7,0,1","1,0.7,0,1,0.7,0,0.7,0,1","1",""
"","html-keyboard-response","319","326140","0.0-381.0","","","","","null","<img src=""img/food1.png"" style=""width:200px; border:14px solid green;"">","null","","","","","","","","","",""
"","image-keyboard-response","320","327714","0.0-382.0","","","","","1574","img/food5.png","74","1574","1","1","","1","1","1,0.7,0,1,0.7,0,0.7,0,1","1,0.7,0,1,0.7,0,0.7,0,1","1",""
"","html-keyboard-response","321","328016","0.0-383.0","","","","","null","<img src=""img/food5.png"" style=""width:200px; border:14px solid green;"">","null","","","","","","","","","",""
"","image-keyboard-response","322","329010","0.0-384.0","","","","","993","img/food6.png","76","994","3","0","","2","1","1,0.7,0,1,0.7,0,0.7,0,1","1,0.7,0,1,0.7,0,0.7,0,1","1",""
"","html-keyboard-response","323","329311","0.0-385.0","","","","","null","<img src=""img/food6.png"" style=""width:200px;border:14px solid red;"">","null","","","","","","","","","",""
"","image-keyboard-response","324","330021","0.0-386.0","","","","","709","img/food6.png","75","710","2","1","","2","1","1,0.7,0,1,0.7,0,0.7,0,1","1,0.7,0,1,0.7,0,0.7,0,1","1",""
"","html-keyboard-response","325","330322","0.0-387.0","","","","","null","<img src=""img/food6.png"" style=""width:200px; border:14px solid green;"">","null","","","","","","","","","",""
"","image-keyboard-response","326","331907","0.0-388.0","","","","","1583","img/food5.png","74","1585","1","1","","1","1","1,0.7,0,1,0.7,0,0.7,0,1","1,0.7,0,1,0.7,0,0.7,0,1","1",""
"","html-keyboard-response","327","332207","0.0-389.0","","","","","null","<img src=""img/food5.png"" style=""width:200px; border:14px solid green;"">","null","","","","","","","","","",""
"","image-keyboard-response","328","333069","0.0-390.0","","","","","860","img/food6.png","75","862","2","1","","2","1","1,0.7,0,1,0.7,0,0.7,0,1","1,0.7,0,1,0.7,0,0.7,0,1","1",""
"","html-keyboard-response","329","333370","0.0-391.0","","","","","null","<img src=""img/food6.png"" style=""width:200px; border:14px solid green;"">","null","","","","","","","","","",""
"","image-keyboard-response","330","334487","0.0-392.0","","","","","1115","img/food5.png","74","1117","1","1","","1","1","1,0.7,0,1,0.7,0,0.7,0,1","1,0.7,0,1,0.7,0,0.7,0,1","1",""
"","html-keyboard-response","331","334787","0.0-393.0","","","","","null","<img src=""img/food5.png"" style=""width:200px; border:14px solid green;"">","null","","","","","","","","","",""
"","image-keyboard-response","332","335813","0.0-394.0","","","","","1024","img/food5.png","74","1025","1","1","","1","1","1,0.7,0,1,0.7,0,0.7,0,1","1,0.7,0,1,0.7,0,0.7,0,1","1",""
"","html-keyboard-response","333","336114","0.0-395.0","","","","","null","<img src=""img/food5.png"" style=""width:200px; border:14px solid green;"">","null","","","","","","","","","",""
"","image-keyboard-response","334","337006","0.0-396.0","","","","","891","img/food5.png","74","892","1","1","","1","1","1,0.7,0,1,0.7,0,0.7,0,1","1,0.7,0,1,0.7,0,0.7,0,1","1",""
"","html-keyboard-response","335","337307","0.0-397.0","","","","","null","<img src=""img/food5.png"" style=""width:200px; border:14px solid green;"">","null","","","","","","","","","",""
"","image-keyboard-response","336","338730","0.0-398.0","","","","","1422","img/food5.png","74","1423","1","1","","1","1","1,0.7,0,1,0.7,0,0.7,0,1","1,0.7,0,1,0.7,0,0.7,0,1","1",""
"","html-keyboard-response","337","339031","0.0-399.0","","","","","null","<img src=""img/food5.png"" style=""width:200px; border:14px solid green;"">","null","","","","","","","","","",""
"","image-keyboard-response","338","340397","0.0-400.0","","","","","1365","img/food5.png","74","1366","1","1","","1","1","1,0.7,0,1,0.7,0,0.7,0,1","1,0.7,0,1,0.7,0,0.7,0,1","1",""
"","html-keyboard-response","339","340698","0.0-401.0","","","","","null","<img src=""img/food5.png"" style=""width:200px; border:14px solid green;"">","null","","","","","","","","","",""
"","image-keyboard-response","340","341895","0.0-402.0","","","","","1196","img/food1.png","76","1197","3","1","","3","1","1,0.7,0,1,0.7,0,0.7,0,1","1,0.7,0,1,0.7,0,0.7,0,1","1",""
"","html-keyboard-response","341","342198","0.0-403.0","","","","","null","<img src=""img/food1.png"" style=""width:200px; border:14px solid green;"">","null","","","","","","","","","",""
"","image-keyboard-response","342","343257","0.0-404.0","","","","","1057","img/food6.png","75","1059","2","1","","2","1","1,0.7,0,1,0.7,0,0.7,0,1","1,0.7,0,1,0.7,0,0.7,0,1","1",""
"","html-keyboard-response","343","343557","0.0-405.0","","","","","null","<img src=""img/food6.png"" style=""width:200px; border:14px solid green;"">","null","","","","","","","","","",""
"","image-keyboard-response","344","344589","0.0-406.0","","","","","1031","img/food5.png","74","1033","1","1","","1","1","1,0.7,0,1,0.7,0,0.7,0,1","1,0.7,0,1,0.7,0,0.7,0,1","1",""
"","html-keyboard-response","345","344891","0.0-407.0","","","","","null","<img src=""img/food5.png"" style=""width:200px; border:14px solid green;"">","null","","","","","","","","","",""
"","image-keyboard-response","346","346289","0.0-408.0","","","","","1397","img/food6.png","75","1398","2","1","","2","1","1,0.7,0,1,0.7,0,0.7,0,1","1,0.7,0,1,0.7,0,0.7,0,1","1",""
"","html-keyboard-response","347","346591","0.0-409.0","","","","","null","<img src=""img/food6.png"" style=""width:200px; border:14px solid green;"">","null","","","","","","","","","",""
"","image-keyboard-response","348","347732","0.0-410.0","","","","","1139","img/food5.png","74","1140","1","1","","1","1","1,0.7,0,1,0.7,0,0.7,0,1","1,0.7,0,1,0.7,0,0.7,0,1","1",""
"","html-keyboard-response","349","348033","0.0-411.0","","","","","null","<img src=""img/food5.png"" style=""width:200px; border:14px solid green;"">","null","","","","","","","","","",""
"","image-keyboard-response","350","348929","0.0-412.0","","","","","895","img/food6.png","75","896","2","1","","2","1","1,0.7,0,1,0.7,0,0.7,0,1","1,0.7,0,1,0.7,0,0.7,0,1","1",""
"","html-keyboard-response","351","349230","0.0-413.0","","","","","null","<img src=""img/food6.png"" style=""width:200px; border:14px solid green;"">","null","","","","","","","","","",""
"","image-keyboard-response","352","350277","0.0-414.0","","","","","1046","img/food1.png","76","1046","3","1","","3","1","1,0.7,0,1,0.7,0,0.7,0,1","1,0.7,0,1,0.7,0,0.7,0,1","1",""
"","html-keyboard-response","353","350579","0.0-415.0","","","","","null","<img src=""img/food1.png"" style=""width:200px; border:14px solid green;"">","null","","","","","","","","","",""
"","image-keyboard-response","354","351554","0.0-416.0","","","","","973","img/food5.png","74","974","1","1","","1","1","1,0.7,0,1,0.7,0,0.7,0,1","1,0.7,0,1,0.7,0,0.7,0,1","1",""
"","html-keyboard-response","355","351856","0.0-417.0","","","","","null","<img src=""img/food5.png"" style=""width:200px; border:14px solid green;"">","null","","","","","","","","","",""
"","image-keyboard-response","356","352965","0.0-418.0","","","","","1108","img/food5.png","74","1109","1","1","","1","1","1,0.7,0,1,0.7,0,0.7,0,1","1,0.7,0,1,0.7,0,0.7,0,1","1",""
"","html-keyboard-response","357","353267","0.0-419.0","","","","","null","<img src=""img/food5.png"" style=""width:200px; border:14px solid green;"">","null","","","","","","","","","",""
"","image-keyboard-response","358","354161","0.0-420.0","","","","","893","img/food5.png","74","894","1","1","","1","1","1,0.7,0,1,0.7,0,0.7,0,1","1,0.7,0,1,0.7,0,0.7,0,1","1",""
"","html-keyboard-response","359","354465","0.0-421.0","","","","","null","<img src=""img/food5.png"" style=""width:200px; border:14px solid green;"">","null","","","","","","","","","",""
"","image-keyboard-response","360","355399","0.0-422.0","","","","","934","img/food6.png","75","934","2","1","","2","1","1,0.7,0,1,0.7,0,0.7,0,1","1,0.7,0,1,0.7,0,0.7,0,1","1",""
"","html-keyboard-response","361","355701","0.0-423.0","","","","","null","<img src=""img/food6.png"" style=""width:200px; border:14px solid green;"">","null","","","","","","","","","",""
"","image-keyboard-response","362","356707","0.0-424.0","","","","","1005","img/food1.png","76","1005","3","1","","3","1","1,0.7,0,1,0.7,0,0.7,0,1","1,0.7,0,1,0.7,0,0.7,0,1","1",""
"","html-keyboard-response","363","357009","0.0-425.0","","","","","null","<img src=""img/food1.png"" style=""width:200px; border:14px solid green;"">","null","","","","","","","","","",""
"","image-keyboard-response","364","358035","0.0-426.0","","","","","1025","img/food5.png","75","1026","2","0","","1","1","1,0.7,0,1,0.7,0,0.7,0,1","1,0.7,0,1,0.7,0,0.7,0,1","1",""
"","html-keyboard-response","365","358340","0.0-427.0","","","","","null","<img src=""img/food5.png"" style=""width:200px;border:14px solid red;"">","null","","","","","","","","","",""
"","image-keyboard-response","366","359702","0.0-428.0","","","","","1362","img/food6.png","75","1362","2","1","","2","1","1,0.7,0,1,0.7,0,0.7,0,1","1,0.7,0,1,0.7,0,0.7,0,1","1",""
"","html-keyboard-response","367","360003","0.0-429.0","","","","","null","<img src=""img/food6.png"" style=""width:200px; border:14px solid green;"">","null","","","","","","","","","",""
"","image-keyboard-response","368","361074","0.0-430.0","","","","","1070","img/food1.png","76","1071","3","1","","3","1","1,0.7,0,1,0.7,0,0.7,0,1","1,0.7,0,1,0.7,0,0.7,0,1","1",""
"","html-keyboard-response","369","361375","0.0-431.0","","","","","null","<img src=""img/food1.png"" style=""width:200px; border:14px solid green;"">","null","","","","","","","","","",""
"","image-keyboard-response","370","362476","0.0-432.0","","","","","1100","img/food1.png","76","1101","3","1","","3","1","1,0.7,0,1,0.7,0,0.7,0,1","1,0.7,0,1,0.7,0,0.7,0,1","1",""
"","html-keyboard-response","371","362777","0.0-433.0","","","","","null","<img src=""img/food1.png"" style=""width:200px; border:14px solid green;"">","null","","","","","","","","","",""
"","image-keyboard-response","372","363746","0.0-434.0","","","","","968","img/food6.png","74","970","1","1","","2","1","1,0.7,0,1,0.7,0,0.7,0,1","1,0.7,0,1,0.7,0,0.7,0,1","1",""
"","html-keyboard-response","373","364048","0.0-435.0","","","","","null","<img src=""img/food6.png"" style=""width:200px; border:14px solid green;"">","null","","","","","","","","","",""
"","image-keyboard-response","374","365201","0.0-436.0","","","","","1152","img/food5.png","74","1153","1","1","","1","1","1,0.7,0,1,0.7,0,0.7,0,1","1,0.7,0,1,0.7,0,0.7,0,1","1",""
"","html-keyboard-response","375","365502","0.0-437.0","","","","","null","<img src=""img/food5.png"" style=""width:200px; border:14px solid green;"">","null","","","","","","","","","",""
"","image-keyboard-response","376","366566","0.0-438.0","","","","","1064","img/food5.png","74","1065","1","1","","1","1","1,0.7,0,1,0.7,0,0.7,0,1","1,0.7,0,1,0.7,0,0.7,0,1","1",""
"","html-keyboard-response","377","366868","0.0-439.0","","","","","null","<img src=""img/food5.png"" style=""width:200px; border:14px solid green;"">","null","","","","","","","","","",""
"","image-keyboard-response","378","368136","0.0-440.0","","","","","1267","img/food1.png","76","1269","3","1","","3","1","1,0.7,0,1,0.7,0,0.7,0,1","1,0.7,0,1,0.7,0,0.7,0,1","1",""
"","html-keyboard-response","379","368439","0.0-441.0","","","","","null","<img src=""img/food1.png"" style=""width:200px; border:14px solid green;"">","null","","","","","","","","","",""
"","image-keyboard-response","380","369589","0.0-442.0","","","","","1148","img/food5.png","74","1150","1","1","","1","1","1,0.7,0,1,0.7,0,0.7,0,1","1,0.7,0,1,0.7,0,0.7,0,1","1",""
"","html-keyboard-response","381","369891","0.0-443.0","","","","","null","<img src=""img/food5.png"" style=""width:200px; border:14px solid green;"">","null","","","","","","","","","",""
"","image-keyboard-response","382","370936","0.0-444.0","","","","","1043","img/food5.png","74","1044","1","1","","1","1","1,0.7,0,1,0.7,0,0.7,0,1","1,0.7,0,1,0.7,0,0.7,0,1","1",""
"","html-keyboard-response","383","371238","0.0-445.0","","","","","null","<img src=""img/food5.png"" style=""width:200px; border:14px solid green;"">","null","","","","","","","","","",""
"","image-keyboard-response","384","372305","0.0-446.0","","","","","1066","img/food1.png","75","1067","2","0","","3","1","1,0.7,0,1,0.7,0,0.7,0,1","1,0.7,0,1,0.7,0,0.7,0,1","1",""
"","html-keyboard-response","385","372607","0.0-447.0","","","","","null","<img src=""img/food1.png"" style=""width:200px;border:14px solid red;"">","null","","","","","","","","","",""
"","image-keyboard-response","386","373847","0.0-448.0","","","","","1239","img/food6.png","75","1240","2","0","","2","1","1,0.7,0,1,0.7,0,0.7,0,1","1,0.7,0,1,0.7,0,0.7,0,1","1",""
"","html-keyboard-response","387","374148","0.0-449.0","","","","","null","<img src=""img/food6.png"" style=""width:200px;border:14px solid red;"">","null","","","","","","","","","",""
"","image-keyboard-response","388","375359","0.0-450.0","","","","","1210","img/food6.png","75","1211","2","1","","2","1","1,0.7,0,1,0.7,0,0.7,0,1","1,0.7,0,1,0.7,0,0.7,0,1","1",""
"","html-keyboard-response","389","375660","0.0-451.0","","","","","null","<img src=""img/food6.png"" style=""width:200px; border:14px solid green;"">","null","","","","","","","","","",""
"","image-keyboard-response","390","376895","0.0-452.0","","","","","1233","img/food1.png","76","1234","3","1","","3","1","1,0.7,0,1,0.7,0,0.7,0,1","1,0.7,0,1,0.7,0,0.7,0,1","1",""
"","html-keyboard-response","391","377195","0.0-453.0","","","","","null","<img src=""img/food1.png"" style=""width:200px; border:14px solid green;"">","null","","","","","","","","","",""
"","html-keyboard-response","392","381937","0.0-454.0","","","","","","","","","","","","","","","","",""
"","instructions","393","384906","0.0-455.0","","","","[{""page_index"":0,""viewing_time"":2967}]","2968","","","","","","","","","","","",""
"","survey-text","394","390663","0.0-456.0","","","","","5748","","","","","","","","","","","","{""Q0"":""A16YCPFPGW95OB""}"
