"success","trial_type","trial_index","time_elapsed","internal_node_id","assignmentID","mturkID","hitID","view_history","rt","stimulus","key_press","reactionTime","a","r","warning","s","cond","reward_cond","reward_cond_actual","reward_matrix_idx","responses"
"true","fullscreen","0","3286","0.0-0.0","3G5F9DBFOQJ2ISONZKZSGDEII9MVHP","A17K1CHOI773VZ","32XN26MTXZ5MP383W6LZYTLBY7P0LI","","","","","","","","","","","","","",""
"","instructions","1","46092","0.0-1.0","3G5F9DBFOQJ2ISONZKZSGDEII9MVHP","A17K1CHOI773VZ","32XN26MTXZ5MP383W6LZYTLBY7P0LI","[{""page_index"":0,""viewing_time"":5723.199999999953},{""page_index"":1,""viewing_time"":3959.8000000000466},{""page_index"":2,""viewing_time"":1568},{""page_index"":3,""viewing_time"":4584.400000000023},{""page_index"":4,""viewing_time"":16807.79999999993},{""page_index"":5,""viewing_time"":8400.099999999977},{""page_index"":6,""viewing_time"":1760.1000000000931}]","42804.5","","","","","","","","","","","",""
"","instructions","2","58236","0.0-2.0","3G5F9DBFOQJ2ISONZKZSGDEII9MVHP","A17K1CHOI773VZ","32XN26MTXZ5MP383W6LZYTLBY7P0LI","[{""page_index"":0,""viewing_time"":8910},{""page_index"":1,""viewing_time"":3231.9000000000233}]","12142.300000000047","","","","","","","","","","","",""
"","image-keyboard-response","3","58668","0.0-3.0","3G5F9DBFOQJ2ISONZKZSGDEII9MVHP","A17K1CHOI773VZ","32XN26MTXZ5MP383W6LZYTLBY7P0LI","","430.69999999995343","img/food1.png","74","432.0999999999767","1","1","false","3","2","1,0.7,0,1,0.7,0,0.7,0,1","0,1,0.7,0,1,0.7,1,0.7,0","3",""
"","html-keyboard-response","4","58974","0.0-4.0","3G5F9DBFOQJ2ISONZKZSGDEII9MVHP","A17K1CHOI773VZ","32XN26MTXZ5MP383W6LZYTLBY7P0LI","","null","<img src=""img/food1.png"" style=""width:200px; border:14px solid green;"">","null","","","","","","","","","",""
"","image-keyboard-response","5","59355","0.0-6.0","3G5F9DBFOQJ2ISONZKZSGDEII9MVHP","A17K1CHOI773VZ","32XN26MTXZ5MP383W6LZYTLBY7P0LI","","379.5999999999767","img/food5.png","75","380.80000000004657","2","1","false","1","2","1,0.7,0,1,0.7,0,0.7,0,1","0,1,0.7,0,1,0.7,1,0.7,0","3",""
"","html-keyboard-response","6","59662","0.0-7.0","3G5F9DBFOQJ2ISONZKZSGDEII9MVHP","A17K1CHOI773VZ","32XN26MTXZ5MP383W6LZYTLBY7P0LI","","null","<img src=""img/food5.png"" style=""width:200px; border:14px solid green;"">","null","","","","","","","","","",""
"","image-keyboard-response","7","60004","0.0-9.0","3G5F9DBFOQJ2ISONZKZSGDEII9MVHP","A17K1CHOI773VZ","32XN26MTXZ5MP383W6LZYTLBY7P0LI","","340.0999999999767","img/food6.png","76","341.29999999993015","3","1","false","2","2","1,0.7,0,1,0.7,0,0.7,0,1","0,1,0.7,0,1,0.7,1,0.7,0","3",""
"","html-keyboard-response","8","60310","0.0-10.0","3G5F9DBFOQJ2ISONZKZSGDEII9MVHP","A17K1CHOI773VZ","32XN26MTXZ5MP383W6LZYTLBY7P0LI","","null","<img src=""img/food6.png"" style=""width:200px; border:14px solid green;"">","null","","","","","","","","","",""
"","image-keyboard-response","9","60827","0.0-12.0","3G5F9DBFOQJ2ISONZKZSGDEII9MVHP","A17K1CHOI773VZ","32XN26MTXZ5MP383W6LZYTLBY7P0LI","","515.9000000000233","img/food6.png","76","517.0999999999767","3","1","false","2","2","1,0.7,0,1,0.7,0,0.7,0,1","0,1,0.7,0,1,0.7,1,0.7,0","3",""
"","html-keyboard-response","10","61134","0.0-13.0","3G5F9DBFOQJ2ISONZKZSGDEII9MVHP","A17K1CHOI773VZ","32XN26MTXZ5MP383W6LZYTLBY7P0LI","","null","<img src=""img/food6.png"" style=""width:200px; border:14px solid green;"">","null","","","","","","","","","",""
"","image-keyboard-response","11","61403","0.0-15.0","3G5F9DBFOQJ2ISONZKZSGDEII9MVHP","A17K1CHOI773VZ","32XN26MTXZ5MP383W6LZYTLBY7P0LI","","268","img/food6.png","76","269","3","1","false","2","2","1,0.7,0,1,0.7,0,0.7,0,1","0,1,0.7,0,1,0.7,1,0.7,0","3",""
"","html-keyboard-response","12","61710","0.0-16.0","3G5F9DBFOQJ2ISONZKZSGDEII9MVHP","A17K1CHOI773VZ","32XN26MTXZ5MP383W6LZYTLBY7P0LI","","null","<img src=""img/food6.png"" style=""width:200px; border:14px solid green;"">","null","","","","","","","","","",""
"","image-keyboard-response","13","62315","0.0-18.0","3G5F9DBFOQJ2ISONZKZSGDEII9MVHP","A17K1CHOI773VZ","32XN26MTXZ5MP383W6LZYTLBY7P0LI","","604","img/food5.png","74","605.1999999999534","1","0","false","1","2","1,0.7,0,1,0.7,0,0.7,0,1","0,1,0.7,0,1,0.7,1,0.7,0","3",""
"","html-keyboard-response","14","62622","0.0-19.0","3G5F9DBFOQJ2ISONZKZSGDEII9MVHP","A17K1CHOI773VZ","32XN26MTXZ5MP383W6LZYTLBY7P0LI","","null","<img src=""img/food5.png"" style=""width:200px;border:14px solid red;"">","null","","","","","","","","","",""
"","image-keyboard-response","15","62707","0.0-21.0","3G5F9DBFOQJ2ISONZKZSGDEII9MVHP","A17K1CHOI773VZ","32XN26MTXZ5MP383W6LZYTLBY7P0LI","","84","img/food5.png","75","85.09999999997672","2","1","false","1","2","1,0.7,0,1,0.7,0,0.7,0,1","0,1,0.7,0,1,0.7,1,0.7,0","3",""
"","html-keyboard-response","16","63014","0.0-22.0","3G5F9DBFOQJ2ISONZKZSGDEII9MVHP","A17K1CHOI773VZ","32XN26MTXZ5MP383W6LZYTLBY7P0LI","","null","<img src=""img/food5.png"" style=""width:200px; border:14px solid green;"">","null","","","","","","","","","",""
"","image-keyboard-response","17","63787","0.0-24.0","3G5F9DBFOQJ2ISONZKZSGDEII9MVHP","A17K1CHOI773VZ","32XN26MTXZ5MP383W6LZYTLBY7P0LI","","772","img/food1.png","74","773.1999999999534","1","1","false","3","2","1,0.7,0,1,0.7,0,0.7,0,1","0,1,0.7,0,1,0.7,1,0.7,0","3",""
"","html-keyboard-response","18","64094","0.0-25.0","3G5F9DBFOQJ2ISONZKZSGDEII9MVHP","A17K1CHOI773VZ","32XN26MTXZ5MP383W6LZYTLBY7P0LI","","null","<img src=""img/food1.png"" style=""width:200px; border:14px solid green;"">","null","","","","","","","","","",""
"","image-keyboard-response","19","64715","0.0-27.0","3G5F9DBFOQJ2ISONZKZSGDEII9MVHP","A17K1CHOI773VZ","32XN26MTXZ5MP383W6LZYTLBY7P0LI","","619.9000000000233","img/food5.png","75","621","2","1","false","1","2","1,0.7,0,1,0.7,0,0.7,0,1","0,1,0.7,0,1,0.7,1,0.7,0","3",""
"","html-keyboard-response","20","65023","0.0-28.0","3G5F9DBFOQJ2ISONZKZSGDEII9MVHP","A17K1CHOI773VZ","32XN26MTXZ5MP383W6LZYTLBY7P0LI","","null","<img src=""img/food5.png"" style=""width:200px; border:14px solid green;"">","null","","","","","","","","","",""
"","image-keyboard-response","21","65732","0.0-30.0","3G5F9DBFOQJ2ISONZKZSGDEII9MVHP","A17K1CHOI773VZ","32XN26MTXZ5MP383W6LZYTLBY7P0LI","","707.5","img/food1.png","74","708.9000000000233","1","1","false","3","2","1,0.7,0,1,0.7,0,0.7,0,1","0,1,0.7,0,1,0.7,1,0.7,0","3",""
"","html-keyboard-response","22","66038","0.0-31.0","3G5F9DBFOQJ2ISONZKZSGDEII9MVHP","A17K1CHOI773VZ","32XN26MTXZ5MP383W6LZYTLBY7P0LI","","null","<img src=""img/food1.png"" style=""width:200px; border:14px solid green;"">","null","","","","","","","","","",""
"","image-keyboard-response","23","66499","0.0-33.0","3G5F9DBFOQJ2ISONZKZSGDEII9MVHP","A17K1CHOI773VZ","32XN26MTXZ5MP383W6LZYTLBY7P0LI","","460","img/food5.png","75","461.0999999999767","2","1","false","1","2","1,0.7,0,1,0.7,0,0.7,0,1","0,1,0.7,0,1,0.7,1,0.7,0","3",""
"","html-keyboard-response","24","66806","0.0-34.0","3G5F9DBFOQJ2ISONZKZSGDEII9MVHP","A17K1CHOI773VZ","32XN26MTXZ5MP383W6LZYTLBY7P0LI","","null","<img src=""img/food5.png"" style=""width:200px; border:14px solid green;"">","null","","","","","","","","","",""
"","image-keyboard-response","25","67291","0.0-36.0","3G5F9DBFOQJ2ISONZKZSGDEII9MVHP","A17K1CHOI773VZ","32XN26MTXZ5MP383W6LZYTLBY7P0LI","","483.80000000004657","img/food6.png","76","485","3","0","false","2","2","1,0.7,0,1,0.7,0,0.7,0,1","0,1,0.7,0,1,0.7,1,0.7,0","3",""
"","html-keyboard-response","26","67598","0.0-37.0","3G5F9DBFOQJ2ISONZKZSGDEII9MVHP","A17K1CHOI773VZ","32XN26MTXZ5MP383W6LZYTLBY7P0LI","","null","<img src=""img/food6.png"" style=""width:200px;border:14px solid red;"">","null","","","","","","","","","",""
"","image-keyboard-response","27","68291","0.0-39.0","3G5F9DBFOQJ2ISONZKZSGDEII9MVHP","A17K1CHOI773VZ","32XN26MTXZ5MP383W6LZYTLBY7P0LI","","691.9000000000233","img/food5.png","75","693","2","1","false","1","2","1,0.7,0,1,0.7,0,0.7,0,1","0,1,0.7,0,1,0.7,1,0.7,0","3",""
"","html-keyboard-response","28","68598","0.0-40.0","3G5F9DBFOQJ2ISONZKZSGDEII9MVHP","A17K1CHOI773VZ","32XN26MTXZ5MP383W6LZYTLBY7P0LI","","null","<img src=""img/food5.png"" style=""width:200px; border:14px solid green;"">","null","","","","","","","","","",""
"","image-keyboard-response","29","68939","0.0-42.0","3G5F9DBFOQJ2ISONZKZSGDEII9MVHP","A17K1CHOI773VZ","32XN26MTXZ5MP383W6LZYTLBY7P0LI","","339.80000000004657","img/food5.png","75","340.9000000000233","2","1","false","1","2","1,0.7,0,1,0.7,0,0.7,0,1","0,1,0.7,0,1,0.7,1,0.7,0","3",""
"","html-keyboard-response","30","69246","0.0-43.0","3G5F9DBFOQJ2ISONZKZSGDEII9MVHP","A17K1CHOI773VZ","32XN26MTXZ5MP383W6LZYTLBY7P0LI","","null","<img src=""img/food5.png"" style=""width:200px; border:14px solid green;"">","null","","","","","","","","","",""
"","image-keyboard-response","31","69563","0.0-45.0","3G5F9DBFOQJ2ISONZKZSGDEII9MVHP","A17K1CHOI773VZ","32XN26MTXZ5MP383W6LZYTLBY7P0LI","","316","img/food5.png","75","317","2","1","false","1","2","1,0.7,0,1,0.7,0,0.7,0,1","0,1,0.7,0,1,0.7,1,0.7,0","3",""
"","html-keyboard-response","32","69870","0.0-46.0","3G5F9DBFOQJ2ISONZKZSGDEII9MVHP","A17K1CHOI773VZ","32XN26MTXZ5MP383W6LZYTLBY7P0LI","","null","<img src=""img/food5.png"" style=""width:200px; border:14px solid green;"">","null","","","","","","","","","",""
"","image-keyboard-response","33","70611","0.0-48.0","3G5F9DBFOQJ2ISONZKZSGDEII9MVHP","A17K1CHOI773VZ","32XN26MTXZ5MP383W6LZYTLBY7P0LI","","739.9000000000233","img/food6.png","76","740.9000000000233","3","0","false","2","2","1,0.7,0,1,0.7,0,0.7,0,1","0,1,0.7,0,1,0.7,1,0.7,0","3",""
"","html-keyboard-response","34","70918","0.0-49.0","3G5F9DBFOQJ2ISONZKZSGDEII9MVHP","A17K1CHOI773VZ","32XN26MTXZ5MP383W6LZYTLBY7P0LI","","null","<img src=""img/food6.png"" style=""width:200px;border:14px solid red;"">","null","","","","","","","","","",""
"","image-keyboard-response","35","71171","0.0-51.0","3G5F9DBFOQJ2ISONZKZSGDEII9MVHP","A17K1CHOI773VZ","32XN26MTXZ5MP383W6LZYTLBY7P0LI","","251.69999999995343","img/food6.png","76","252.80000000004657","3","0","false","2","2","1,0.7,0,1,0.7,0,0.7,0,1","0,1,0.7,0,1,0.7,1,0.7,0","3",""
"","html-keyboard-response","36","71478","0.0-52.0","3G5F9DBFOQJ2ISONZKZSGDEII9MVHP","A17K1CHOI773VZ","32XN26MTXZ5MP383W6LZYTLBY7P0LI","","null","<img src=""img/food6.png"" style=""width:200px;border:14px solid red;"">","null","","","","","","","","","",""
"","image-keyboard-response","37","71787","0.0-54.0","3G5F9DBFOQJ2ISONZKZSGDEII9MVHP","A17K1CHOI773VZ","32XN26MTXZ5MP383W6LZYTLBY7P0LI","","307.69999999995343","img/food6.png","76","308.80000000004657","3","0","false","2","2","1,0.7,0,1,0.7,0,0.7,0,1","0,1,0.7,0,1,0.7,1,0.7,0","3",""
"","html-keyboard-response","38","72094","0.0-55.0","3G5F9DBFOQJ2ISONZKZSGDEII9MVHP","A17K1CHOI773VZ","32XN26MTXZ5MP383W6LZYTLBY7P0LI","","null","<img src=""img/food6.png"" style=""width:200px;border:14px solid red;"">","null","","","","","","","","","",""
"","image-keyboard-response","39","72755","0.0-57.0","3G5F9DBFOQJ2ISONZKZSGDEII9MVHP","A17K1CHOI773VZ","32XN26MTXZ5MP383W6LZYTLBY7P0LI","","659.5","img/food1.png","74","660.6999999999534","1","1","false","3","2","1,0.7,0,1,0.7,0,0.7,0,1","0,1,0.7,0,1,0.7,1,0.7,0","3",""
"","html-keyboard-response","40","73062","0.0-58.0","3G5F9DBFOQJ2ISONZKZSGDEII9MVHP","A17K1CHOI773VZ","32XN26MTXZ5MP383W6LZYTLBY7P0LI","","null","<img src=""img/food1.png"" style=""width:200px; border:14px solid green;"">","null","","","","","","","","","",""
"","image-keyboard-response","41","73491","0.0-60.0","3G5F9DBFOQJ2ISONZKZSGDEII9MVHP","A17K1CHOI773VZ","32XN26MTXZ5MP383W6LZYTLBY7P0LI","","427.69999999995343","img/food6.png","75","428.80000000004657","2","1","false","2","2","1,0.7,0,1,0.7,0,0.7,0,1","0,1,0.7,0,1,0.7,1,0.7,0","3",""
"","html-keyboard-response","42","73798","0.0-61.0","3G5F9DBFOQJ2ISONZKZSGDEII9MVHP","A17K1CHOI773VZ","32XN26MTXZ5MP383W6LZYTLBY7P0LI","","null","<img src=""img/food6.png"" style=""width:200px; border:14px solid green;"">","null","","","","","","","","","",""
"","image-keyboard-response","43","73811","0.0-63.0","3G5F9DBFOQJ2ISONZKZSGDEII9MVHP","A17K1CHOI773VZ","32XN26MTXZ5MP383W6LZYTLBY7P0LI","","11.699999999953434","img/food1.png","76","12.800000000046566","3","0","false","3","2","1,0.7,0,1,0.7,0,0.7,0,1","0,1,0.7,0,1,0.7,1,0.7,0","3",""
"","html-keyboard-response","44","74118","0.0-64.0","3G5F9DBFOQJ2ISONZKZSGDEII9MVHP","A17K1CHOI773VZ","32XN26MTXZ5MP383W6LZYTLBY7P0LI","","null","<img src=""img/food1.png"" style=""width:200px;border:14px solid red;"">","null","","","","","","","","","",""
"","image-keyboard-response","45","74739","0.0-66.0","3G5F9DBFOQJ2ISONZKZSGDEII9MVHP","A17K1CHOI773VZ","32XN26MTXZ5MP383W6LZYTLBY7P0LI","","620.1999999999534","img/food6.png","76","621.5","3","1","false","2","2","1,0.7,0,1,0.7,0,0.7,0,1","0,1,0.7,0,1,0.7,1,0.7,0","3",""
"","html-keyboard-response","46","75046","0.0-67.0","3G5F9DBFOQJ2ISONZKZSGDEII9MVHP","A17K1CHOI773VZ","32XN26MTXZ5MP383W6LZYTLBY7P0LI","","null","<img src=""img/food6.png"" style=""width:200px; border:14px solid green;"">","null","","","","","","","","","",""
"","image-keyboard-response","47","75691","0.0-69.0","3G5F9DBFOQJ2ISONZKZSGDEII9MVHP","A17K1CHOI773VZ","32XN26MTXZ5MP383W6LZYTLBY7P0LI","","644.6999999999534","img/food5.png","75","645.6999999999534","2","1","false","1","2","1,0.7,0,1,0.7,0,0.7,0,1","0,1,0.7,0,1,0.7,1,0.7,0","3",""
"","html-keyboard-response","48","75998","0.0-70.0","3G5F9DBFOQJ2ISONZKZSGDEII9MVHP","A17K1CHOI773VZ","32XN26MTXZ5MP383W6LZYTLBY7P0LI","","null","<img src=""img/food5.png"" style=""width:200px; border:14px solid green;"">","null","","","","","","","","","",""
"","image-keyboard-response","49","76572","0.0-72.0","3G5F9DBFOQJ2ISONZKZSGDEII9MVHP","A17K1CHOI773VZ","32XN26MTXZ5MP383W6LZYTLBY7P0LI","","573","img/food6.png","76","574","3","0","false","2","2","1,0.7,0,1,0.7,0,0.7,0,1","0,1,0.7,0,1,0.7,1,0.7,0","3",""
"","html-keyboard-response","50","76878","0.0-73.0","3G5F9DBFOQJ2ISONZKZSGDEII9MVHP","A17K1CHOI773VZ","32XN26MTXZ5MP383W6LZYTLBY7P0LI","","null","<img src=""img/food6.png"" style=""width:200px;border:14px solid red;"">","null","","","","","","","","","",""
"","image-keyboard-response","51","77508","0.0-75.0","3G5F9DBFOQJ2ISONZKZSGDEII9MVHP","A17K1CHOI773VZ","32XN26MTXZ5MP383W6LZYTLBY7P0LI","","628.6999999999534","img/food5.png","74","629.7999999999302","1","0","false","1","2","1,0.7,0,1,0.7,0,0.7,0,1","0,1,0.7,0,1,0.7,1,0.7,0","3",""
"","html-keyboard-response","52","77814","0.0-76.0","3G5F9DBFOQJ2ISONZKZSGDEII9MVHP","A17K1CHOI773VZ","32XN26MTXZ5MP383W6LZYTLBY7P0LI","","null","<img src=""img/food5.png"" style=""width:200px;border:14px solid red;"">","null","","","","","","","","","",""
"","image-keyboard-response","53","78452","0.0-78.0","3G5F9DBFOQJ2ISONZKZSGDEII9MVHP","A17K1CHOI773VZ","32XN26MTXZ5MP383W6LZYTLBY7P0LI","","636.5999999999767","img/food1.png","74","637.7999999999302","1","1","false","3","2","1,0.7,0,1,0.7,0,0.7,0,1","0,1,0.7,0,1,0.7,1,0.7,0","3",""
"","html-keyboard-response","54","78758","0.0-79.0","3G5F9DBFOQJ2ISONZKZSGDEII9MVHP","A17K1CHOI773VZ","32XN26MTXZ5MP383W6LZYTLBY7P0LI","","null","<img src=""img/food1.png"" style=""width:200px; border:14px solid green;"">","null","","","","","","","","","",""
"","image-keyboard-response","55","79516","0.0-81.0","3G5F9DBFOQJ2ISONZKZSGDEII9MVHP","A17K1CHOI773VZ","32XN26MTXZ5MP383W6LZYTLBY7P0LI","","756.5999999999767","img/food6.png","76","757.6999999999534","3","1","false","2","2","1,0.7,0,1,0.7,0,0.7,0,1","0,1,0.7,0,1,0.7,1,0.7,0","3",""
"","html-keyboard-response","56","79822","0.0-82.0","3G5F9DBFOQJ2ISONZKZSGDEII9MVHP","A17K1CHOI773VZ","32XN26MTXZ5MP383W6LZYTLBY7P0LI","","null","<img src=""img/food6.png"" style=""width:200px; border:14px solid green;"">","null","","","","","","","","","",""
"","image-keyboard-response","57","80332","0.0-84.0","3G5F9DBFOQJ2ISONZKZSGDEII9MVHP","A17K1CHOI773VZ","32XN26MTXZ5MP383W6LZYTLBY7P0LI","","509.0999999999767","img/food1.png","75","510.19999999995343","2","0","false","3","2","1,0.7,0,1,0.7,0,0.7,0,1","0,1,0.7,0,1,0.7,1,0.7,0","3",""
"","html-keyboard-response","58","80638","0.0-85.0","3G5F9DBFOQJ2ISONZKZSGDEII9MVHP","A17K1CHOI773VZ","32XN26MTXZ5MP383W6LZYTLBY7P0LI","","null","<img src=""img/food1.png"" style=""width:200px;border:14px solid red;"">","null","","","","","","","","","",""
"","image-keyboard-response","59","81379","0.0-87.0","3G5F9DBFOQJ2ISONZKZSGDEII9MVHP","A17K1CHOI773VZ","32XN26MTXZ5MP383W6LZYTLBY7P0LI","","740.6999999999534","img/food6.png","76","741.6999999999534","3","0","false","2","2","1,0.7,0,1,0.7,0,0.7,0,1","0,1,0.7,0,1,0.7,1,0.7,0","3",""
"","html-keyboard-response","60","81686","0.0-88.0","3G5F9DBFOQJ2ISONZKZSGDEII9MVHP","A17K1CHOI773VZ","32XN26MTXZ5MP383W6LZYTLBY7P0LI","","null","<img src=""img/food6.png"" style=""width:200px;border:14px solid red;"">","null","","","","","","","","","",""
"","image-keyboard-response","61","82324","0.0-90.0","3G5F9DBFOQJ2ISONZKZSGDEII9MVHP","A17K1CHOI773VZ","32XN26MTXZ5MP383W6LZYTLBY7P0LI","","636.6000000000931","img/food1.png","74","637.5999999999767","1","1","false","3","2","1,0.7,0,1,0.7,0,0.7,0,1","0,1,0.7,0,1,0.7,1,0.7,0","3",""
"","html-keyboard-response","62","82630","0.0-91.0","3G5F9DBFOQJ2ISONZKZSGDEII9MVHP","A17K1CHOI773VZ","32XN26MTXZ5MP383W6LZYTLBY7P0LI","","null","<img src=""img/food1.png"" style=""width:200px; border:14px solid green;"">","null","","","","","","","","","",""
"","image-keyboard-response","63","83259","0.0-93.0","3G5F9DBFOQJ2ISONZKZSGDEII9MVHP","A17K1CHOI773VZ","32XN26MTXZ5MP383W6LZYTLBY7P0LI","","628.6999999999534","img/food6.png","76","629.6999999999534","3","1","false","2","2","1,0.7,0,1,0.7,0,0.7,0,1","0,1,0.7,0,1,0.7,1,0.7,0","3",""
"","html-keyboard-response","64","83566","0.0-94.0","3G5F9DBFOQJ2ISONZKZSGDEII9MVHP","A17K1CHOI773VZ","32XN26MTXZ5MP383W6LZYTLBY7P0LI","","null","<img src=""img/food6.png"" style=""width:200px; border:14px solid green;"">","null","","","","","","","","","",""
"","image-keyboard-response","65","84076","0.0-96.0","3G5F9DBFOQJ2ISONZKZSGDEII9MVHP","A17K1CHOI773VZ","32XN26MTXZ5MP383W6LZYTLBY7P0LI","","508.69999999995343","img/food5.png","75","509.69999999995343","2","1","false","1","2","1,0.7,0,1,0.7,0,0.7,0,1","0,1,0.7,0,1,0.7,1,0.7,0","3",""
"","html-keyboard-response","66","84382","0.0-97.0","3G5F9DBFOQJ2ISONZKZSGDEII9MVHP","A17K1CHOI773VZ","32XN26MTXZ5MP383W6LZYTLBY7P0LI","","null","<img src=""img/food5.png"" style=""width:200px; border:14px solid green;"">","null","","","","","","","","","",""
"","image-keyboard-response","67","84716","0.0-99.0","3G5F9DBFOQJ2ISONZKZSGDEII9MVHP","A17K1CHOI773VZ","32XN26MTXZ5MP383W6LZYTLBY7P0LI","","332.80000000004657","img/food5.png","75","333.5999999999767","2","1","false","1","2","1,0.7,0,1,0.7,0,0.7,0,1","0,1,0.7,0,1,0.7,1,0.7,0","3",""
"","html-keyboard-response","68","85022","0.0-100.0","3G5F9DBFOQJ2ISONZKZSGDEII9MVHP","A17K1CHOI773VZ","32XN26MTXZ5MP383W6LZYTLBY7P0LI","","null","<img src=""img/food5.png"" style=""width:200px; border:14px solid green;"">","null","","","","","","","","","",""
"","image-keyboard-response","69","85684","0.0-102.0","3G5F9DBFOQJ2ISONZKZSGDEII9MVHP","A17K1CHOI773VZ","32XN26MTXZ5MP383W6LZYTLBY7P0LI","","659.7999999999302","img/food1.png","74","660.7999999999302","1","1","false","3","2","1,0.7,0,1,0.7,0,0.7,0,1","0,1,0.7,0,1,0.7,1,0.7,0","3",""
"","html-keyboard-response","70","85990","0.0-103.0","3G5F9DBFOQJ2ISONZKZSGDEII9MVHP","A17K1CHOI773VZ","32XN26MTXZ5MP383W6LZYTLBY7P0LI","","null","<img src=""img/food1.png"" style=""width:200px; border:14px solid green;"">","null","","","","","","","","","",""
"","image-keyboard-response","71","86748","0.0-105.0","3G5F9DBFOQJ2ISONZKZSGDEII9MVHP","A17K1CHOI773VZ","32XN26MTXZ5MP383W6LZYTLBY7P0LI","","756.9000000000233","img/food5.png","75","757.9000000000233","2","1","false","1","2","1,0.7,0,1,0.7,0,0.7,0,1","0,1,0.7,0,1,0.7,1,0.7,0","3",""
"","html-keyboard-response","72","87054","0.0-106.0","3G5F9DBFOQJ2ISONZKZSGDEII9MVHP","A17K1CHOI773VZ","32XN26MTXZ5MP383W6LZYTLBY7P0LI","","null","<img src=""img/food5.png"" style=""width:200px; border:14px solid green;"">","null","","","","","","","","","",""
"","image-keyboard-response","73","87371","0.0-108.0","3G5F9DBFOQJ2ISONZKZSGDEII9MVHP","A17K1CHOI773VZ","32XN26MTXZ5MP383W6LZYTLBY7P0LI","","316.5","img/food5.png","75","317.5","2","1","false","1","2","1,0.7,0,1,0.7,0,0.7,0,1","0,1,0.7,0,1,0.7,1,0.7,0","3",""
"","html-keyboard-response","74","87678","0.0-109.0","3G5F9DBFOQJ2ISONZKZSGDEII9MVHP","A17K1CHOI773VZ","32XN26MTXZ5MP383W6LZYTLBY7P0LI","","null","<img src=""img/food5.png"" style=""width:200px; border:14px solid green;"">","null","","","","","","","","","",""
"","image-keyboard-response","75","88116","0.0-111.0","3G5F9DBFOQJ2ISONZKZSGDEII9MVHP","A17K1CHOI773VZ","32XN26MTXZ5MP383W6LZYTLBY7P0LI","","436.69999999995343","img/food6.png","76","437.69999999995343","3","1","false","2","2","1,0.7,0,1,0.7,0,0.7,0,1","0,1,0.7,0,1,0.7,1,0.7,0","3",""
"","html-keyboard-response","76","88422","0.0-112.0","3G5F9DBFOQJ2ISONZKZSGDEII9MVHP","A17K1CHOI773VZ","32XN26MTXZ5MP383W6LZYTLBY7P0LI","","null","<img src=""img/food6.png"" style=""width:200px; border:14px solid green;"">","null","","","","","","","","","",""
"","image-keyboard-response","77","88964","0.0-114.0","3G5F9DBFOQJ2ISONZKZSGDEII9MVHP","A17K1CHOI773VZ","32XN26MTXZ5MP383W6LZYTLBY7P0LI","","540.6000000000931","img/food1.png","74","541.5","1","1","false","3","2","1,0.7,0,1,0.7,0,0.7,0,1","0,1,0.7,0,1,0.7,1,0.7,0","3",""
"","html-keyboard-response","78","89270","0.0-115.0","3G5F9DBFOQJ2ISONZKZSGDEII9MVHP","A17K1CHOI773VZ","32XN26MTXZ5MP383W6LZYTLBY7P0LI","","null","<img src=""img/food1.png"" style=""width:200px; border:14px solid green;"">","null","","","","","","","","","",""
"","image-keyboard-response","79","89588","0.0-117.0","3G5F9DBFOQJ2ISONZKZSGDEII9MVHP","A17K1CHOI773VZ","32XN26MTXZ5MP383W6LZYTLBY7P0LI","","316.5","img/food1.png","74","317.4000000001397","1","1","false","3","2","1,0.7,0,1,0.7,0,0.7,0,1","0,1,0.7,0,1,0.7,1,0.7,0","3",""
"","html-keyboard-response","80","89897","0.0-118.0","3G5F9DBFOQJ2ISONZKZSGDEII9MVHP","A17K1CHOI773VZ","32XN26MTXZ5MP383W6LZYTLBY7P0LI","","null","<img src=""img/food1.png"" style=""width:200px; border:14px solid green;"">","null","","","","","","","","","",""
"","image-keyboard-response","81","90543","0.0-120.0","3G5F9DBFOQJ2ISONZKZSGDEII9MVHP","A17K1CHOI773VZ","32XN26MTXZ5MP383W6LZYTLBY7P0LI","","644.6000000000931","img/food6.png","75","645.6000000000931","2","1","false","2","2","1,0.7,0,1,0.7,0,0.7,0,1","0,1,0.7,0,1,0.7,1,0.7,0","3",""
"","html-keyboard-response","82","90849","0.0-121.0","3G5F9DBFOQJ2ISONZKZSGDEII9MVHP","A17K1CHOI773VZ","32XN26MTXZ5MP383W6LZYTLBY7P0LI","","null","<img src=""img/food6.png"" style=""width:200px; border:14px solid green;"">","null","","","","","","","","","",""
"","image-keyboard-response","83","91687","0.0-123.0","3G5F9DBFOQJ2ISONZKZSGDEII9MVHP","A17K1CHOI773VZ","32XN26MTXZ5MP383W6LZYTLBY7P0LI","","836.6000000000931","img/food1.png","74","837.4000000001397","1","1","false","3","2","1,0.7,0,1,0.7,0,0.7,0,1","0,1,0.7,0,1,0.7,1,0.7,0","3",""
"","html-keyboard-response","84","91993","0.0-124.0","3G5F9DBFOQJ2ISONZKZSGDEII9MVHP","A17K1CHOI773VZ","32XN26MTXZ5MP383W6LZYTLBY7P0LI","","null","<img src=""img/food1.png"" style=""width:200px; border:14px solid green;"">","null","","","","","","","","","",""
"","image-keyboard-response","85","92287","0.0-126.0","3G5F9DBFOQJ2ISONZKZSGDEII9MVHP","A17K1CHOI773VZ","32XN26MTXZ5MP383W6LZYTLBY7P0LI","","292.39999999990687","img/food1.png","74","293.30000000004657","1","1","false","3","2","1,0.7,0,1,0.7,0,0.7,0,1","0,1,0.7,0,1,0.7,1,0.7,0","3",""
"","html-keyboard-response","86","92593","0.0-127.0","3G5F9DBFOQJ2ISONZKZSGDEII9MVHP","A17K1CHOI773VZ","32XN26MTXZ5MP383W6LZYTLBY7P0LI","","null","<img src=""img/food1.png"" style=""width:200px; border:14px solid green;"">","null","","","","","","","","","",""
"","image-keyboard-response","87","93207","0.0-129.0","3G5F9DBFOQJ2ISONZKZSGDEII9MVHP","A17K1CHOI773VZ","32XN26MTXZ5MP383W6LZYTLBY7P0LI","","612.5","img/food6.png","76","613.3999999999069","3","0","false","2","2","1,0.7,0,1,0.7,0,0.7,0,1","0,1,0.7,0,1,0.7,1,0.7,0","3",""
"","html-keyboard-response","88","93513","0.0-130.0","3G5F9DBFOQJ2ISONZKZSGDEII9MVHP","A17K1CHOI773VZ","32XN26MTXZ5MP383W6LZYTLBY7P0LI","","null","<img src=""img/food6.png"" style=""width:200px;border:14px solid red;"">","null","","","","","","","","","",""
"","image-keyboard-response","89","94183","0.0-132.0","3G5F9DBFOQJ2ISONZKZSGDEII9MVHP","A17K1CHOI773VZ","32XN26MTXZ5MP383W6LZYTLBY7P0LI","","668.5","img/food1.png","74","669.5","1","1","false","3","2","1,0.7,0,1,0.7,0,0.7,0,1","0,1,0.7,0,1,0.7,1,0.7,0","3",""
"","html-keyboard-response","90","94489","0.0-133.0","3G5F9DBFOQJ2ISONZKZSGDEII9MVHP","A17K1CHOI773VZ","32XN26MTXZ5MP383W6LZYTLBY7P0LI","","null","<img src=""img/food1.png"" style=""width:200px; border:14px solid green;"">","null","","","","","","","","","",""
"","image-keyboard-response","91","95183","0.0-135.0","3G5F9DBFOQJ2ISONZKZSGDEII9MVHP","A17K1CHOI773VZ","32XN26MTXZ5MP383W6LZYTLBY7P0LI","","692.5","img/food6.png","76","693.3999999999069","3","1","false","2","2","1,0.7,0,1,0.7,0,0.7,0,1","0,1,0.7,0,1,0.7,1,0.7,0","3",""
"","html-keyboard-response","92","95489","0.0-136.0","3G5F9DBFOQJ2ISONZKZSGDEII9MVHP","A17K1CHOI773VZ","32XN26MTXZ5MP383W6LZYTLBY7P0LI","","null","<img src=""img/food6.png"" style=""width:200px; border:14px solid green;"">","null","","","","","","","","","",""
"","image-keyboard-response","93","96497","0.0-138.0","3G5F9DBFOQJ2ISONZKZSGDEII9MVHP","A17K1CHOI773VZ","32XN26MTXZ5MP383W6LZYTLBY7P0LI","","","img/food1.png","","1008","-1","0","true","3","2","1,0.7,0,1,0.7,0,0.7,0,1","0,1,0.7,0,1,0.7,1,0.7,0","3",""
"","html-keyboard-response","94","96801","0.0-139.0","3G5F9DBFOQJ2ISONZKZSGDEII9MVHP","A17K1CHOI773VZ","32XN26MTXZ5MP383W6LZYTLBY7P0LI","","null","<img src=""img/food1.png"" style=""width:200px;border:14px solid red;"">","null","","","","","","","","","",""
"","html-keyboard-response","95","101375","0.0-140.0-0.0","3G5F9DBFOQJ2ISONZKZSGDEII9MVHP","A17K1CHOI773VZ","32XN26MTXZ5MP383W6LZYTLBY7P0LI","","","","","","","","","","","","","",""
"","image-keyboard-response","96","101975","0.0-141.0","3G5F9DBFOQJ2ISONZKZSGDEII9MVHP","A17K1CHOI773VZ","32XN26MTXZ5MP383W6LZYTLBY7P0LI","","598.6999999999534","img/food6.png","76","599.8999999999069","3","1","false","2","2","1,0.7,0,1,0.7,0,0.7,0,1","0,1,0.7,0,1,0.7,1,0.7,0","3",""
"","html-keyboard-response","97","102281","0.0-142.0","3G5F9DBFOQJ2ISONZKZSGDEII9MVHP","A17K1CHOI773VZ","32XN26MTXZ5MP383W6LZYTLBY7P0LI","","null","<img src=""img/food6.png"" style=""width:200px; border:14px solid green;"">","null","","","","","","","","","",""
"","image-keyboard-response","98","102807","0.0-144.0","3G5F9DBFOQJ2ISONZKZSGDEII9MVHP","A17K1CHOI773VZ","32XN26MTXZ5MP383W6LZYTLBY7P0LI","","524.3000000000466","img/food1.png","74","525.1999999999534","1","1","false","3","2","1,0.7,0,1,0.7,0,0.7,0,1","0,1,0.7,0,1,0.7,1,0.7,0","3",""
"","html-keyboard-response","99","103114","0.0-145.0","3G5F9DBFOQJ2ISONZKZSGDEII9MVHP","A17K1CHOI773VZ","32XN26MTXZ5MP383W6LZYTLBY7P0LI","","null","<img src=""img/food1.png"" style=""width:200px; border:14px solid green;"">","null","","","","","","","","","",""
"","image-keyboard-response","100","103415","0.0-147.0","3G5F9DBFOQJ2ISONZKZSGDEII9MVHP","A17K1CHOI773VZ","32XN26MTXZ5MP383W6LZYTLBY7P0LI","","299.0999999998603","img/food1.png","74","300.39999999990687","1","1","false","3","2","1,0.7,0,1,0.7,0,0.7,0,1","0,1,0.7,0,1,0.7,1,0.7,0","3",""
"","html-keyboard-response","101","103720","0.0-148.0","3G5F9DBFOQJ2ISONZKZSGDEII9MVHP","A17K1CHOI773VZ","32XN26MTXZ5MP383W6LZYTLBY7P0LI","","null","<img src=""img/food1.png"" style=""width:200px; border:14px solid green;"">","null","","","","","","","","","",""
"","image-keyboard-response","102","104015","0.0-150.0","3G5F9DBFOQJ2ISONZKZSGDEII9MVHP","A17K1CHOI773VZ","32XN26MTXZ5MP383W6LZYTLBY7P0LI","","293.19999999995343","img/food1.png","74","294.39999999990687","1","1","false","3","2","1,0.7,0,1,0.7,0,0.7,0,1","0,1,0.7,0,1,0.7,1,0.7,0","3",""
"","html-keyboard-response","103","104320","0.0-151.0","3G5F9DBFOQJ2ISONZKZSGDEII9MVHP","A17K1CHOI773VZ","32XN26MTXZ5MP383W6LZYTLBY7P0LI","","null","<img src=""img/food1.png"" style=""width:200px; border:14px solid green;"">","null","","","","","","","","","",""
"","image-keyboard-response","104","104887","0.0-153.0","3G5F9DBFOQJ2ISONZKZSGDEII9MVHP","A17K1CHOI773VZ","32XN26MTXZ5MP383W6LZYTLBY7P0LI","","565.0999999998603","img/food5.png","75","566.1000000000931","2","1","false","1","2","1,0.7,0,1,0.7,0,0.7,0,1","0,1,0.7,0,1,0.7,1,0.7,0","3",""
"","html-keyboard-response","105","105193","0.0-154.0","3G5F9DBFOQJ2ISONZKZSGDEII9MVHP","A17K1CHOI773VZ","32XN26MTXZ5MP383W6LZYTLBY7P0LI","","null","<img src=""img/food5.png"" style=""width:200px; border:14px solid green;"">","null","","","","","","","","","",""
"","image-keyboard-response","106","105503","0.0-156.0","3G5F9DBFOQJ2ISONZKZSGDEII9MVHP","A17K1CHOI773VZ","32XN26MTXZ5MP383W6LZYTLBY7P0LI","","309","img/food5.png","75","310","2","1","false","1","2","1,0.7,0,1,0.7,0,0.7,0,1","0,1,0.7,0,1,0.7,1,0.7,0","3",""
"","html-keyboard-response","107","105809","0.0-157.0","3G5F9DBFOQJ2ISONZKZSGDEII9MVHP","A17K1CHOI773VZ","32XN26MTXZ5MP383W6LZYTLBY7P0LI","","null","<img src=""img/food5.png"" style=""width:200px; border:14px solid green;"">","null","","","","","","","","","",""
"","image-keyboard-response","108","105999","0.0-159.0","3G5F9DBFOQJ2ISONZKZSGDEII9MVHP","A17K1CHOI773VZ","32XN26MTXZ5MP383W6LZYTLBY7P0LI","","189.19999999995343","img/food1.png","75","190.0999999998603","2","1","false","3","2","1,0.7,0,1,0.7,0,0.7,0,1","0,1,0.7,0,1,0.7,1,0.7,0","3",""
"","html-keyboard-response","109","106305","0.0-160.0","3G5F9DBFOQJ2ISONZKZSGDEII9MVHP","A17K1CHOI773VZ","32XN26MTXZ5MP383W6LZYTLBY7P0LI","","null","<img src=""img/food1.png"" style=""width:200px; border:14px solid green;"">","null","","","","","","","","","",""
"","image-keyboard-response","110","106927","0.0-162.0","3G5F9DBFOQJ2ISONZKZSGDEII9MVHP","A17K1CHOI773VZ","32XN26MTXZ5MP383W6LZYTLBY7P0LI","","620.8999999999069","img/food6.png","76","622","3","1","false","2","2","1,0.7,0,1,0.7,0,0.7,0,1","0,1,0.7,0,1,0.7,1,0.7,0","3",""
"","html-keyboard-response","111","107233","0.0-163.0","3G5F9DBFOQJ2ISONZKZSGDEII9MVHP","A17K1CHOI773VZ","32XN26MTXZ5MP383W6LZYTLBY7P0LI","","null","<img src=""img/food6.png"" style=""width:200px; border:14px solid green;"">","null","","","","","","","","","",""
"","image-keyboard-response","112","107535","0.0-165.0","3G5F9DBFOQJ2ISONZKZSGDEII9MVHP","A17K1CHOI773VZ","32XN26MTXZ5MP383W6LZYTLBY7P0LI","","301.10000000009313","img/food6.png","76","302","3","1","false","2","2","1,0.7,0,1,0.7,0,0.7,0,1","0,1,0.7,0,1,0.7,1,0.7,0","3",""
"","html-keyboard-response","113","107841","0.0-166.0","3G5F9DBFOQJ2ISONZKZSGDEII9MVHP","A17K1CHOI773VZ","32XN26MTXZ5MP383W6LZYTLBY7P0LI","","null","<img src=""img/food6.png"" style=""width:200px; border:14px solid green;"">","null","","","","","","","","","",""
"","image-keyboard-response","114","108103","0.0-168.0","3G5F9DBFOQJ2ISONZKZSGDEII9MVHP","A17K1CHOI773VZ","32XN26MTXZ5MP383W6LZYTLBY7P0LI","","261.10000000009313","img/food6.png","76","262.19999999995343","3","0","false","2","2","1,0.7,0,1,0.7,0,0.7,0,1","0,1,0.7,0,1,0.7,1,0.7,0","3",""
"","html-keyboard-response","115","108409","0.0-169.0","3G5F9DBFOQJ2ISONZKZSGDEII9MVHP","A17K1CHOI773VZ","32XN26MTXZ5MP383W6LZYTLBY7P0LI","","null","<img src=""img/food6.png"" style=""width:200px;border:14px solid red;"">","null","","","","","","","","","",""
"","image-keyboard-response","116","108671","0.0-171.0","3G5F9DBFOQJ2ISONZKZSGDEII9MVHP","A17K1CHOI773VZ","32XN26MTXZ5MP383W6LZYTLBY7P0LI","","261.10000000009313","img/food5.png","76","262.0999999998603","3","1","false","1","2","1,0.7,0,1,0.7,0,0.7,0,1","0,1,0.7,0,1,0.7,1,0.7,0","3",""
"","html-keyboard-response","117","108977","0.0-172.0","3G5F9DBFOQJ2ISONZKZSGDEII9MVHP","A17K1CHOI773VZ","32XN26MTXZ5MP383W6LZYTLBY7P0LI","","null","<img src=""img/food5.png"" style=""width:200px; border:14px solid green;"">","null","","","","","","","","","",""
"","image-keyboard-response","118","109495","0.0-174.0","3G5F9DBFOQJ2ISONZKZSGDEII9MVHP","A17K1CHOI773VZ","32XN26MTXZ5MP383W6LZYTLBY7P0LI","","517.1000000000931","img/food6.png","75","518.0999999998603","2","1","false","2","2","1,0.7,0,1,0.7,0,0.7,0,1","0,1,0.7,0,1,0.7,1,0.7,0","3",""
"","html-keyboard-response","119","109801","0.0-175.0","3G5F9DBFOQJ2ISONZKZSGDEII9MVHP","A17K1CHOI773VZ","32XN26MTXZ5MP383W6LZYTLBY7P0LI","","null","<img src=""img/food6.png"" style=""width:200px; border:14px solid green;"">","null","","","","","","","","","",""
"","image-keyboard-response","120","110487","0.0-177.0","3G5F9DBFOQJ2ISONZKZSGDEII9MVHP","A17K1CHOI773VZ","32XN26MTXZ5MP383W6LZYTLBY7P0LI","","685.2000000001863","img/food5.png","75","686","2","1","false","1","2","1,0.7,0,1,0.7,0,0.7,0,1","0,1,0.7,0,1,0.7,1,0.7,0","3",""
"","html-keyboard-response","121","110793","0.0-178.0","3G5F9DBFOQJ2ISONZKZSGDEII9MVHP","A17K1CHOI773VZ","32XN26MTXZ5MP383W6LZYTLBY7P0LI","","null","<img src=""img/food5.png"" style=""width:200px; border:14px solid green;"">","null","","","","","","","","","",""
"","image-keyboard-response","122","111039","0.0-180.0","3G5F9DBFOQJ2ISONZKZSGDEII9MVHP","A17K1CHOI773VZ","32XN26MTXZ5MP383W6LZYTLBY7P0LI","","245.10000000009313","img/food5.png","75","245.89999999990687","2","1","false","1","2","1,0.7,0,1,0.7,0,0.7,0,1","0,1,0.7,0,1,0.7,1,0.7,0","3",""
"","html-keyboard-response","123","111345","0.0-181.0","3G5F9DBFOQJ2ISONZKZSGDEII9MVHP","A17K1CHOI773VZ","32XN26MTXZ5MP383W6LZYTLBY7P0LI","","null","<img src=""img/food5.png"" style=""width:200px; border:14px solid green;"">","null","","","","","","","","","",""
"","image-keyboard-response","124","111663","0.0-183.0","3G5F9DBFOQJ2ISONZKZSGDEII9MVHP","A17K1CHOI773VZ","32XN26MTXZ5MP383W6LZYTLBY7P0LI","","317.39999999990687","img/food5.png","75","318.30000000004657","2","1","false","1","2","1,0.7,0,1,0.7,0,0.7,0,1","0,1,0.7,0,1,0.7,1,0.7,0","3",""
"","html-keyboard-response","125","111969","0.0-184.0","3G5F9DBFOQJ2ISONZKZSGDEII9MVHP","A17K1CHOI773VZ","32XN26MTXZ5MP383W6LZYTLBY7P0LI","","null","<img src=""img/food5.png"" style=""width:200px; border:14px solid green;"">","null","","","","","","","","","",""
"","image-keyboard-response","126","112287","0.0-186.0","3G5F9DBFOQJ2ISONZKZSGDEII9MVHP","A17K1CHOI773VZ","32XN26MTXZ5MP383W6LZYTLBY7P0LI","","317.10000000009313","img/food5.png","75","317.89999999990687","2","1","false","1","2","1,0.7,0,1,0.7,0,0.7,0,1","0,1,0.7,0,1,0.7,1,0.7,0","3",""
"","html-keyboard-response","127","112593","0.0-187.0","3G5F9DBFOQJ2ISONZKZSGDEII9MVHP","A17K1CHOI773VZ","32XN26MTXZ5MP383W6LZYTLBY7P0LI","","null","<img src=""img/food5.png"" style=""width:200px; border:14px solid green;"">","null","","","","","","","","","",""
"","image-keyboard-response","128","113031","0.0-189.0","3G5F9DBFOQJ2ISONZKZSGDEII9MVHP","A17K1CHOI773VZ","32XN26MTXZ5MP383W6LZYTLBY7P0LI","","437.20000000018626","img/food1.png","74","438","1","1","false","3","2","1,0.7,0,1,0.7,0,0.7,0,1","0,1,0.7,0,1,0.7,1,0.7,0","3",""
"","html-keyboard-response","129","113337","0.0-190.0","3G5F9DBFOQJ2ISONZKZSGDEII9MVHP","A17K1CHOI773VZ","32XN26MTXZ5MP383W6LZYTLBY7P0LI","","null","<img src=""img/food1.png"" style=""width:200px; border:14px solid green;"">","null","","","","","","","","","",""
"","image-keyboard-response","130","113599","0.0-192.0","3G5F9DBFOQJ2ISONZKZSGDEII9MVHP","A17K1CHOI773VZ","32XN26MTXZ5MP383W6LZYTLBY7P0LI","","261.10000000009313","img/food1.png","74","262","1","1","false","3","2","1,0.7,0,1,0.7,0,0.7,0,1","0,1,0.7,0,1,0.7,1,0.7,0","3",""
"","html-keyboard-response","131","113905","0.0-193.0","3G5F9DBFOQJ2ISONZKZSGDEII9MVHP","A17K1CHOI773VZ","32XN26MTXZ5MP383W6LZYTLBY7P0LI","","null","<img src=""img/food1.png"" style=""width:200px; border:14px solid green;"">","null","","","","","","","","","",""
"","image-keyboard-response","132","114527","0.0-195.0","3G5F9DBFOQJ2ISONZKZSGDEII9MVHP","A17K1CHOI773VZ","32XN26MTXZ5MP383W6LZYTLBY7P0LI","","621","img/food6.png","76","621.8999999999069","3","0","false","2","2","1,0.7,0,1,0.7,0,0.7,0,1","0,1,0.7,0,1,0.7,1,0.7,0","3",""
"","html-keyboard-response","133","114833","0.0-196.0","3G5F9DBFOQJ2ISONZKZSGDEII9MVHP","A17K1CHOI773VZ","32XN26MTXZ5MP383W6LZYTLBY7P0LI","","null","<img src=""img/food6.png"" style=""width:200px;border:14px solid red;"">","null","","","","","","","","","",""
"","image-keyboard-response","134","115095","0.0-198.0","3G5F9DBFOQJ2ISONZKZSGDEII9MVHP","A17K1CHOI773VZ","32XN26MTXZ5MP383W6LZYTLBY7P0LI","","261","img/food6.png","76","262","3","0","false","2","2","1,0.7,0,1,0.7,0,0.7,0,1","0,1,0.7,0,1,0.7,1,0.7,0","3",""
"","html-keyboard-response","135","115401","0.0-199.0","3G5F9DBFOQJ2ISONZKZSGDEII9MVHP","A17K1CHOI773VZ","32XN26MTXZ5MP383W6LZYTLBY7P0LI","","null","<img src=""img/food6.png"" style=""width:200px;border:14px solid red;"">","null","","","","","","","","","",""
"","image-keyboard-response","136","115711","0.0-201.0","3G5F9DBFOQJ2ISONZKZSGDEII9MVHP","A17K1CHOI773VZ","32XN26MTXZ5MP383W6LZYTLBY7P0LI","","309","img/food6.png","76","309.79999999981374","3","0","false","2","2","1,0.7,0,1,0.7,0,0.7,0,1","0,1,0.7,0,1,0.7,1,0.7,0","3",""
"","html-keyboard-response","137","116017","0.0-202.0","3G5F9DBFOQJ2ISONZKZSGDEII9MVHP","A17K1CHOI773VZ","32XN26MTXZ5MP383W6LZYTLBY7P0LI","","null","<img src=""img/food6.png"" style=""width:200px;border:14px solid red;"">","null","","","","","","","","","",""
"","image-keyboard-response","138","116567","0.0-204.0","3G5F9DBFOQJ2ISONZKZSGDEII9MVHP","A17K1CHOI773VZ","32XN26MTXZ5MP383W6LZYTLBY7P0LI","","548.8000000000466","img/food1.png","75","549.8000000000466","2","1","false","3","2","1,0.7,0,1,0.7,0,0.7,0,1","0,1,0.7,0,1,0.7,1,0.7,0","3",""
"","html-keyboard-response","139","116873","0.0-205.0","3G5F9DBFOQJ2ISONZKZSGDEII9MVHP","A17K1CHOI773VZ","32XN26MTXZ5MP383W6LZYTLBY7P0LI","","null","<img src=""img/food1.png"" style=""width:200px; border:14px solid green;"">","null","","","","","","","","","",""
"","image-keyboard-response","140","117567","0.0-207.0","3G5F9DBFOQJ2ISONZKZSGDEII9MVHP","A17K1CHOI773VZ","32XN26MTXZ5MP383W6LZYTLBY7P0LI","","692.9000000001397","img/food5.png","75","693.8000000000466","2","1","false","1","2","1,0.7,0,1,0.7,0,0.7,0,1","0,1,0.7,0,1,0.7,1,0.7,0","3",""
"","html-keyboard-response","141","117873","0.0-208.0","3G5F9DBFOQJ2ISONZKZSGDEII9MVHP","A17K1CHOI773VZ","32XN26MTXZ5MP383W6LZYTLBY7P0LI","","null","<img src=""img/food5.png"" style=""width:200px; border:14px solid green;"">","null","","","","","","","","","",""
"","image-keyboard-response","142","118191","0.0-210.0","3G5F9DBFOQJ2ISONZKZSGDEII9MVHP","A17K1CHOI773VZ","32XN26MTXZ5MP383W6LZYTLBY7P0LI","","316.89999999990687","img/food5.png","75","317.69999999995343","2","1","false","1","2","1,0.7,0,1,0.7,0,0.7,0,1","0,1,0.7,0,1,0.7,1,0.7,0","3",""
"","html-keyboard-response","143","118497","0.0-211.0","3G5F9DBFOQJ2ISONZKZSGDEII9MVHP","A17K1CHOI773VZ","32XN26MTXZ5MP383W6LZYTLBY7P0LI","","null","<img src=""img/food5.png"" style=""width:200px; border:14px solid green;"">","null","","","","","","","","","",""
"","image-keyboard-response","144","118999","0.0-213.0","3G5F9DBFOQJ2ISONZKZSGDEII9MVHP","A17K1CHOI773VZ","32XN26MTXZ5MP383W6LZYTLBY7P0LI","","500.9000000001397","img/food1.png","74","501.80000000004657","1","1","false","3","2","1,0.7,0,1,0.7,0,0.7,0,1","0,1,0.7,0,1,0.7,1,0.7,0","3",""
"","html-keyboard-response","145","119305","0.0-214.0","3G5F9DBFOQJ2ISONZKZSGDEII9MVHP","A17K1CHOI773VZ","32XN26MTXZ5MP383W6LZYTLBY7P0LI","","null","<img src=""img/food1.png"" style=""width:200px; border:14px solid green;"">","null","","","","","","","","","",""
"","image-keyboard-response","146","120207","0.0-216.0","3G5F9DBFOQJ2ISONZKZSGDEII9MVHP","A17K1CHOI773VZ","32XN26MTXZ5MP383W6LZYTLBY7P0LI","","900.6999999999534","img/food5.png","75","901.7000000001863","2","1","false","1","2","1,0.7,0,1,0.7,0,0.7,0,1","0,1,0.7,0,1,0.7,1,0.7,0","3",""
"","html-keyboard-response","147","120513","0.0-217.0","3G5F9DBFOQJ2ISONZKZSGDEII9MVHP","A17K1CHOI773VZ","32XN26MTXZ5MP383W6LZYTLBY7P0LI","","null","<img src=""img/food5.png"" style=""width:200px; border:14px solid green;"">","null","","","","","","","","","",""
"","image-keyboard-response","148","120775","0.0-219.0","3G5F9DBFOQJ2ISONZKZSGDEII9MVHP","A17K1CHOI773VZ","32XN26MTXZ5MP383W6LZYTLBY7P0LI","","260.80000000004657","img/food5.png","75","261.80000000004657","2","1","false","1","2","1,0.7,0,1,0.7,0,0.7,0,1","0,1,0.7,0,1,0.7,1,0.7,0","3",""
"","html-keyboard-response","149","121081","0.0-220.0","3G5F9DBFOQJ2ISONZKZSGDEII9MVHP","A17K1CHOI773VZ","32XN26MTXZ5MP383W6LZYTLBY7P0LI","","null","<img src=""img/food5.png"" style=""width:200px; border:14px solid green;"">","null","","","","","","","","","",""
"","image-keyboard-response","150","121367","0.0-222.0","3G5F9DBFOQJ2ISONZKZSGDEII9MVHP","A17K1CHOI773VZ","32XN26MTXZ5MP383W6LZYTLBY7P0LI","","284.89999999990687","img/food5.png","75","285.80000000004657","2","1","false","1","2","1,0.7,0,1,0.7,0,0.7,0,1","0,1,0.7,0,1,0.7,1,0.7,0","3",""
"","html-keyboard-response","151","121673","0.0-223.0","3G5F9DBFOQJ2ISONZKZSGDEII9MVHP","A17K1CHOI773VZ","32XN26MTXZ5MP383W6LZYTLBY7P0LI","","null","<img src=""img/food5.png"" style=""width:200px; border:14px solid green;"">","null","","","","","","","","","",""
"","image-keyboard-response","152","122199","0.0-225.0","3G5F9DBFOQJ2ISONZKZSGDEII9MVHP","A17K1CHOI773VZ","32XN26MTXZ5MP383W6LZYTLBY7P0LI","","525","img/food1.png","74","526","1","1","false","3","2","1,0.7,0,1,0.7,0,0.7,0,1","0,1,0.7,0,1,0.7,1,0.7,0","3",""
"","html-keyboard-response","153","122505","0.0-226.0","3G5F9DBFOQJ2ISONZKZSGDEII9MVHP","A17K1CHOI773VZ","32XN26MTXZ5MP383W6LZYTLBY7P0LI","","null","<img src=""img/food1.png"" style=""width:200px; border:14px solid green;"">","null","","","","","","","","","",""
"","image-keyboard-response","154","123031","0.0-228.0","3G5F9DBFOQJ2ISONZKZSGDEII9MVHP","A17K1CHOI773VZ","32XN26MTXZ5MP383W6LZYTLBY7P0LI","","524.8999999999069","img/food6.png","76","526","3","1","false","2","2","1,0.7,0,1,0.7,0,0.7,0,1","0,1,0.7,0,1,0.7,1,0.7,0","3",""
"","html-keyboard-response","155","123337","0.0-229.0","3G5F9DBFOQJ2ISONZKZSGDEII9MVHP","A17K1CHOI773VZ","32XN26MTXZ5MP383W6LZYTLBY7P0LI","","null","<img src=""img/food6.png"" style=""width:200px; border:14px solid green;"">","null","","","","","","","","","",""
"","image-keyboard-response","156","123639","0.0-231.0","3G5F9DBFOQJ2ISONZKZSGDEII9MVHP","A17K1CHOI773VZ","32XN26MTXZ5MP383W6LZYTLBY7P0LI","","300.80000000004657","img/food6.png","76","301.80000000004657","3","1","false","2","2","1,0.7,0,1,0.7,0,0.7,0,1","0,1,0.7,0,1,0.7,1,0.7,0","3",""
"","html-keyboard-response","157","123945","0.0-232.0","3G5F9DBFOQJ2ISONZKZSGDEII9MVHP","A17K1CHOI773VZ","32XN26MTXZ5MP383W6LZYTLBY7P0LI","","null","<img src=""img/food6.png"" style=""width:200px; border:14px solid green;"">","null","","","","","","","","","",""
"","image-keyboard-response","158","124583","0.0-234.0","3G5F9DBFOQJ2ISONZKZSGDEII9MVHP","A17K1CHOI773VZ","32XN26MTXZ5MP383W6LZYTLBY7P0LI","","636.6999999999534","img/food1.png","74","637.7000000001863","1","1","false","3","2","1,0.7,0,1,0.7,0,0.7,0,1","0,1,0.7,0,1,0.7,1,0.7,0","3",""
"","html-keyboard-response","159","124889","0.0-235.0","3G5F9DBFOQJ2ISONZKZSGDEII9MVHP","A17K1CHOI773VZ","32XN26MTXZ5MP383W6LZYTLBY7P0LI","","null","<img src=""img/food1.png"" style=""width:200px; border:14px solid green;"">","null","","","","","","","","","",""
"","image-keyboard-response","160","125047","0.0-237.0","3G5F9DBFOQJ2ISONZKZSGDEII9MVHP","A17K1CHOI773VZ","32XN26MTXZ5MP383W6LZYTLBY7P0LI","","156.69999999995343","img/food5.png","74","157.69999999995343","1","0","false","1","2","1,0.7,0,1,0.7,0,0.7,0,1","0,1,0.7,0,1,0.7,1,0.7,0","3",""
"","html-keyboard-response","161","125353","0.0-238.0","3G5F9DBFOQJ2ISONZKZSGDEII9MVHP","A17K1CHOI773VZ","32XN26MTXZ5MP383W6LZYTLBY7P0LI","","null","<img src=""img/food5.png"" style=""width:200px;border:14px solid red;"">","null","","","","","","","","","",""
"","image-keyboard-response","162","125567","0.0-240.0","3G5F9DBFOQJ2ISONZKZSGDEII9MVHP","A17K1CHOI773VZ","32XN26MTXZ5MP383W6LZYTLBY7P0LI","","212.69999999995343","img/food1.png","75","213.60000000009313","2","1","false","3","2","1,0.7,0,1,0.7,0,0.7,0,1","0,1,0.7,0,1,0.7,1,0.7,0","3",""
"","html-keyboard-response","163","125873","0.0-241.0","3G5F9DBFOQJ2ISONZKZSGDEII9MVHP","A17K1CHOI773VZ","32XN26MTXZ5MP383W6LZYTLBY7P0LI","","null","<img src=""img/food1.png"" style=""width:200px; border:14px solid green;"">","null","","","","","","","","","",""
"","image-keyboard-response","164","126231","0.0-243.0","3G5F9DBFOQJ2ISONZKZSGDEII9MVHP","A17K1CHOI773VZ","32XN26MTXZ5MP383W6LZYTLBY7P0LI","","356.69999999995343","img/food1.png","74","357.69999999995343","1","1","false","3","2","1,0.7,0,1,0.7,0,0.7,0,1","0,1,0.7,0,1,0.7,1,0.7,0","3",""
"","html-keyboard-response","165","126537","0.0-244.0","3G5F9DBFOQJ2ISONZKZSGDEII9MVHP","A17K1CHOI773VZ","32XN26MTXZ5MP383W6LZYTLBY7P0LI","","null","<img src=""img/food1.png"" style=""width:200px; border:14px solid green;"">","null","","","","","","","","","",""
"","image-keyboard-response","166","126855","0.0-246.0","3G5F9DBFOQJ2ISONZKZSGDEII9MVHP","A17K1CHOI773VZ","32XN26MTXZ5MP383W6LZYTLBY7P0LI","","316.69999999995343","img/food1.png","74","317.69999999995343","1","1","false","3","2","1,0.7,0,1,0.7,0,0.7,0,1","0,1,0.7,0,1,0.7,1,0.7,0","3",""
"","html-keyboard-response","167","127161","0.0-247.0","3G5F9DBFOQJ2ISONZKZSGDEII9MVHP","A17K1CHOI773VZ","32XN26MTXZ5MP383W6LZYTLBY7P0LI","","null","<img src=""img/food1.png"" style=""width:200px; border:14px solid green;"">","null","","","","","","","","","",""
"","image-keyboard-response","168","127775","0.0-249.0","3G5F9DBFOQJ2ISONZKZSGDEII9MVHP","A17K1CHOI773VZ","32XN26MTXZ5MP383W6LZYTLBY7P0LI","","612.5999999998603","img/food6.png","76","613.5","3","1","false","2","2","1,0.7,0,1,0.7,0,0.7,0,1","0,1,0.7,0,1,0.7,1,0.7,0","3",""
"","html-keyboard-response","169","128081","0.0-250.0","3G5F9DBFOQJ2ISONZKZSGDEII9MVHP","A17K1CHOI773VZ","32XN26MTXZ5MP383W6LZYTLBY7P0LI","","null","<img src=""img/food6.png"" style=""width:200px; border:14px solid green;"">","null","","","","","","","","","",""
"","image-keyboard-response","170","128367","0.0-252.0","3G5F9DBFOQJ2ISONZKZSGDEII9MVHP","A17K1CHOI773VZ","32XN26MTXZ5MP383W6LZYTLBY7P0LI","","284.5","img/food6.png","76","285.5","3","1","false","2","2","1,0.7,0,1,0.7,0,0.7,0,1","0,1,0.7,0,1,0.7,1,0.7,0","3",""
"","html-keyboard-response","171","128673","0.0-253.0","3G5F9DBFOQJ2ISONZKZSGDEII9MVHP","A17K1CHOI773VZ","32XN26MTXZ5MP383W6LZYTLBY7P0LI","","null","<img src=""img/food6.png"" style=""width:200px; border:14px solid green;"">","null","","","","","","","","","",""
"","image-keyboard-response","172","128911","0.0-255.0","3G5F9DBFOQJ2ISONZKZSGDEII9MVHP","A17K1CHOI773VZ","32XN26MTXZ5MP383W6LZYTLBY7P0LI","","236.5999999998603","img/food5.png","76","237.5","3","1","false","1","2","1,0.7,0,1,0.7,0,0.7,0,1","0,1,0.7,0,1,0.7,1,0.7,0","3",""
"","html-keyboard-response","173","129217","0.0-256.0","3G5F9DBFOQJ2ISONZKZSGDEII9MVHP","A17K1CHOI773VZ","32XN26MTXZ5MP383W6LZYTLBY7P0LI","","null","<img src=""img/food5.png"" style=""width:200px; border:14px solid green;"">","null","","","","","","","","","",""
"","image-keyboard-response","174","129847","0.0-258.0","3G5F9DBFOQJ2ISONZKZSGDEII9MVHP","A17K1CHOI773VZ","32XN26MTXZ5MP383W6LZYTLBY7P0LI","","628.6999999999534","img/food1.png","74","629.6999999999534","1","1","false","3","2","1,0.7,0,1,0.7,0,0.7,0,1","0,1,0.7,0,1,0.7,1,0.7,0","3",""
"","html-keyboard-response","175","130153","0.0-259.0","3G5F9DBFOQJ2ISONZKZSGDEII9MVHP","A17K1CHOI773VZ","32XN26MTXZ5MP383W6LZYTLBY7P0LI","","null","<img src=""img/food1.png"" style=""width:200px; border:14px solid green;"">","null","","","","","","","","","",""
"","image-keyboard-response","176","130991","0.0-261.0","3G5F9DBFOQJ2ISONZKZSGDEII9MVHP","A17K1CHOI773VZ","32XN26MTXZ5MP383W6LZYTLBY7P0LI","","836.6000000000931","img/food6.png","76","837.5","3","0","false","2","2","1,0.7,0,1,0.7,0,0.7,0,1","0,1,0.7,0,1,0.7,1,0.7,0","3",""
"","html-keyboard-response","177","131296","0.0-262.0","3G5F9DBFOQJ2ISONZKZSGDEII9MVHP","A17K1CHOI773VZ","32XN26MTXZ5MP383W6LZYTLBY7P0LI","","null","<img src=""img/food6.png"" style=""width:200px;border:14px solid red;"">","null","","","","","","","","","",""
"","image-keyboard-response","178","132112","0.0-264.0","3G5F9DBFOQJ2ISONZKZSGDEII9MVHP","A17K1CHOI773VZ","32XN26MTXZ5MP383W6LZYTLBY7P0LI","","813.8000000000466","img/food5.png","75","815","2","1","false","1","2","1,0.7,0,1,0.7,0,0.7,0,1","0,1,0.7,0,1,0.7,1,0.7,0","3",""
"","html-keyboard-response","179","132416","0.0-265.0","3G5F9DBFOQJ2ISONZKZSGDEII9MVHP","A17K1CHOI773VZ","32XN26MTXZ5MP383W6LZYTLBY7P0LI","","null","<img src=""img/food5.png"" style=""width:200px; border:14px solid green;"">","null","","","","","","","","","",""
"","image-keyboard-response","180","132735","0.0-267.0","3G5F9DBFOQJ2ISONZKZSGDEII9MVHP","A17K1CHOI773VZ","32XN26MTXZ5MP383W6LZYTLBY7P0LI","","317.9000000001397","img/food5.png","75","318.69999999995343","2","1","false","1","2","1,0.7,0,1,0.7,0,0.7,0,1","0,1,0.7,0,1,0.7,1,0.7,0","3",""
"","html-keyboard-response","181","133041","0.0-268.0","3G5F9DBFOQJ2ISONZKZSGDEII9MVHP","A17K1CHOI773VZ","32XN26MTXZ5MP383W6LZYTLBY7P0LI","","null","<img src=""img/food5.png"" style=""width:200px; border:14px solid green;"">","null","","","","","","","","","",""
"","image-keyboard-response","182","133583","0.0-270.0","3G5F9DBFOQJ2ISONZKZSGDEII9MVHP","A17K1CHOI773VZ","32XN26MTXZ5MP383W6LZYTLBY7P0LI","","541.5","img/food1.png","74","542.3999999999069","1","1","false","3","2","1,0.7,0,1,0.7,0,0.7,0,1","0,1,0.7,0,1,0.7,1,0.7,0","3",""
"","html-keyboard-response","183","133889","0.0-271.0","3G5F9DBFOQJ2ISONZKZSGDEII9MVHP","A17K1CHOI773VZ","32XN26MTXZ5MP383W6LZYTLBY7P0LI","","null","<img src=""img/food1.png"" style=""width:200px; border:14px solid green;"">","null","","","","","","","","","",""
"","instructions","184","149928","0.0-273.0","3G5F9DBFOQJ2ISONZKZSGDEII9MVHP","A17K1CHOI773VZ","32XN26MTXZ5MP383W6LZYTLBY7P0LI","[{""page_index"":0,""viewing_time"":7902},{""page_index"":1,""viewing_time"":8136.100000000093}]","16038.399999999907","","","","","","","","","","","",""
"","image-keyboard-response","185","150728","0.0-274.0","3G5F9DBFOQJ2ISONZKZSGDEII9MVHP","A17K1CHOI773VZ","32XN26MTXZ5MP383W6LZYTLBY7P0LI","","798.3999999999069","img/food3.png","74","799.6000000000931","1","1","","3","1","1,0.7,0,1,0.7,0,0.7,0,1","0,1,0.7,0,1,0.7,1,0.7,0","3",""
"","html-keyboard-response","186","151034","0.0-275.0","3G5F9DBFOQJ2ISONZKZSGDEII9MVHP","A17K1CHOI773VZ","32XN26MTXZ5MP383W6LZYTLBY7P0LI","","null","<img src=""img/food3.png"" style=""width:200px; border:14px solid green;"">","null","","","","","","","","","",""
"","image-keyboard-response","187","151824","0.0-276.0","3G5F9DBFOQJ2ISONZKZSGDEII9MVHP","A17K1CHOI773VZ","32XN26MTXZ5MP383W6LZYTLBY7P0LI","","788.6999999999534","img/food2.png","75","790.3000000000466","2","1","","2","1","1,0.7,0,1,0.7,0,0.7,0,1","0,1,0.7,0,1,0.7,1,0.7,0","3",""
"","html-keyboard-response","188","152130","0.0-277.0","3G5F9DBFOQJ2ISONZKZSGDEII9MVHP","A17K1CHOI773VZ","32XN26MTXZ5MP383W6LZYTLBY7P0LI","","null","<img src=""img/food2.png"" style=""width:200px; border:14px solid green;"">","null","","","","","","","","","",""
"","image-keyboard-response","189","152864","0.0-278.0","3G5F9DBFOQJ2ISONZKZSGDEII9MVHP","A17K1CHOI773VZ","32XN26MTXZ5MP383W6LZYTLBY7P0LI","","733.1000000000931","img/food3.png","74","734.1000000000931","1","1","","3","1","1,0.7,0,1,0.7,0,0.7,0,1","0,1,0.7,0,1,0.7,1,0.7,0","3",""
"","html-keyboard-response","190","153170","0.0-279.0","3G5F9DBFOQJ2ISONZKZSGDEII9MVHP","A17K1CHOI773VZ","32XN26MTXZ5MP383W6LZYTLBY7P0LI","","null","<img src=""img/food3.png"" style=""width:200px; border:14px solid green;"">","null","","","","","","","","","",""
"","image-keyboard-response","191","153552","0.0-280.0","3G5F9DBFOQJ2ISONZKZSGDEII9MVHP","A17K1CHOI773VZ","32XN26MTXZ5MP383W6LZYTLBY7P0LI","","381.10000000009313","img/food3.png","74","382.19999999995343","1","1","","3","1","1,0.7,0,1,0.7,0,0.7,0,1","0,1,0.7,0,1,0.7,1,0.7,0","3",""
"","html-keyboard-response","192","153858","0.0-281.0","3G5F9DBFOQJ2ISONZKZSGDEII9MVHP","A17K1CHOI773VZ","32XN26MTXZ5MP383W6LZYTLBY7P0LI","","null","<img src=""img/food3.png"" style=""width:200px; border:14px solid green;"">","null","","","","","","","","","",""
"","image-keyboard-response","193","155480","0.0-282.0","3G5F9DBFOQJ2ISONZKZSGDEII9MVHP","A17K1CHOI773VZ","32XN26MTXZ5MP383W6LZYTLBY7P0LI","","1621.1000000000931","img/food2.png","74","1622.2000000001863","1","0","","2","1","1,0.7,0,1,0.7,0,0.7,0,1","0,1,0.7,0,1,0.7,1,0.7,0","3",""
"","html-keyboard-response","194","155786","0.0-283.0","3G5F9DBFOQJ2ISONZKZSGDEII9MVHP","A17K1CHOI773VZ","32XN26MTXZ5MP383W6LZYTLBY7P0LI","","null","<img src=""img/food2.png"" style=""width:200px;border:14px solid red;"">","null","","","","","","","","","",""
"","image-keyboard-response","195","156624","0.0-284.0","3G5F9DBFOQJ2ISONZKZSGDEII9MVHP","A17K1CHOI773VZ","32XN26MTXZ5MP383W6LZYTLBY7P0LI","","837.1000000000931","img/food2.png","76","837.8999999999069","3","0","","2","1","1,0.7,0,1,0.7,0,0.7,0,1","0,1,0.7,0,1,0.7,1,0.7,0","3",""
"","html-keyboard-response","196","156930","0.0-285.0","3G5F9DBFOQJ2ISONZKZSGDEII9MVHP","A17K1CHOI773VZ","32XN26MTXZ5MP383W6LZYTLBY7P0LI","","null","<img src=""img/food2.png"" style=""width:200px;border:14px solid red;"">","null","","","","","","","","","",""
"","image-keyboard-response","197","157648","0.0-286.0","3G5F9DBFOQJ2ISONZKZSGDEII9MVHP","A17K1CHOI773VZ","32XN26MTXZ5MP383W6LZYTLBY7P0LI","","716.9000000001397","img/food4.png","76","718","3","0","","1","1","1,0.7,0,1,0.7,0,0.7,0,1","0,1,0.7,0,1,0.7,1,0.7,0","3",""
"","html-keyboard-response","198","157954","0.0-287.0","3G5F9DBFOQJ2ISONZKZSGDEII9MVHP","A17K1CHOI773VZ","32XN26MTXZ5MP383W6LZYTLBY7P0LI","","null","<img src=""img/food4.png"" style=""width:200px;border:14px solid red;"">","null","","","","","","","","","",""
"","image-keyboard-response","199","158256","0.0-288.0","3G5F9DBFOQJ2ISONZKZSGDEII9MVHP","A17K1CHOI773VZ","32XN26MTXZ5MP383W6LZYTLBY7P0LI","","301.0999999998603","img/food4.png","76","302.10000000009313","3","0","","1","1","1,0.7,0,1,0.7,0,0.7,0,1","0,1,0.7,0,1,0.7,1,0.7,0","3",""
"","html-keyboard-response","200","158562","0.0-289.0","3G5F9DBFOQJ2ISONZKZSGDEII9MVHP","A17K1CHOI773VZ","32XN26MTXZ5MP383W6LZYTLBY7P0LI","","null","<img src=""img/food4.png"" style=""width:200px;border:14px solid red;"">","null","","","","","","","","","",""
"","image-keyboard-response","201","159168","0.0-290.0","3G5F9DBFOQJ2ISONZKZSGDEII9MVHP","A17K1CHOI773VZ","32XN26MTXZ5MP383W6LZYTLBY7P0LI","","604.9000000001397","img/food4.png","76","606.0999999998603","3","1","","1","1","1,0.7,0,1,0.7,0,0.7,0,1","0,1,0.7,0,1,0.7,1,0.7,0","3",""
"","html-keyboard-response","202","159474","0.0-291.0","3G5F9DBFOQJ2ISONZKZSGDEII9MVHP","A17K1CHOI773VZ","32XN26MTXZ5MP383W6LZYTLBY7P0LI","","null","<img src=""img/food4.png"" style=""width:200px; border:14px solid green;"">","null","","","","","","","","","",""
"","image-keyboard-response","203","160121","0.0-292.0","3G5F9DBFOQJ2ISONZKZSGDEII9MVHP","A17K1CHOI773VZ","32XN26MTXZ5MP383W6LZYTLBY7P0LI","","645.1999999999534","img/food3.png","74","646.3999999999069","1","1","","3","1","1,0.7,0,1,0.7,0,0.7,0,1","0,1,0.7,0,1,0.7,1,0.7,0","3",""
"","html-keyboard-response","204","160425","0.0-293.0","3G5F9DBFOQJ2ISONZKZSGDEII9MVHP","A17K1CHOI773VZ","32XN26MTXZ5MP383W6LZYTLBY7P0LI","","null","<img src=""img/food3.png"" style=""width:200px; border:14px solid green;"">","null","","","","","","","","","",""
"","image-keyboard-response","205","160744","0.0-294.0","3G5F9DBFOQJ2ISONZKZSGDEII9MVHP","A17K1CHOI773VZ","32XN26MTXZ5MP383W6LZYTLBY7P0LI","","317.9000000001397","img/food3.png","74","318.89999999990687","1","1","","3","1","1,0.7,0,1,0.7,0,0.7,0,1","0,1,0.7,0,1,0.7,1,0.7,0","3",""
"","html-keyboard-response","206","161049","0.0-295.0","3G5F9DBFOQJ2ISONZKZSGDEII9MVHP","A17K1CHOI773VZ","32XN26MTXZ5MP383W6LZYTLBY7P0LI","","null","<img src=""img/food3.png"" style=""width:200px; border:14px solid green;"">","null","","","","","","","","","",""
"","image-keyboard-response","207","161568","0.0-296.0","3G5F9DBFOQJ2ISONZKZSGDEII9MVHP","A17K1CHOI773VZ","32XN26MTXZ5MP383W6LZYTLBY7P0LI","","518","img/food4.png","75","519","2","1","","1","1","1,0.7,0,1,0.7,0,0.7,0,1","0,1,0.7,0,1,0.7,1,0.7,0","3",""
"","html-keyboard-response","208","161873","0.0-297.0","3G5F9DBFOQJ2ISONZKZSGDEII9MVHP","A17K1CHOI773VZ","32XN26MTXZ5MP383W6LZYTLBY7P0LI","","null","<img src=""img/food4.png"" style=""width:200px; border:14px solid green;"">","null","","","","","","","","","",""
"","image-keyboard-response","209","162257","0.0-298.0","3G5F9DBFOQJ2ISONZKZSGDEII9MVHP","A17K1CHOI773VZ","32XN26MTXZ5MP383W6LZYTLBY7P0LI","","382.19999999995343","img/food4.png","76","383.19999999995343","3","1","","1","1","1,0.7,0,1,0.7,0,0.7,0,1","0,1,0.7,0,1,0.7,1,0.7,0","3",""
"","html-keyboard-response","210","162561","0.0-299.0","3G5F9DBFOQJ2ISONZKZSGDEII9MVHP","A17K1CHOI773VZ","32XN26MTXZ5MP383W6LZYTLBY7P0LI","","null","<img src=""img/food4.png"" style=""width:200px; border:14px solid green;"">","null","","","","","","","","","",""
"","image-keyboard-response","211","163208","0.0-300.0","3G5F9DBFOQJ2ISONZKZSGDEII9MVHP","A17K1CHOI773VZ","32XN26MTXZ5MP383W6LZYTLBY7P0LI","","645.8999999999069","img/food3.png","74","647","1","1","","3","1","1,0.7,0,1,0.7,0,0.7,0,1","0,1,0.7,0,1,0.7,1,0.7,0","3",""
"","html-keyboard-response","212","163513","0.0-301.0","3G5F9DBFOQJ2ISONZKZSGDEII9MVHP","A17K1CHOI773VZ","32XN26MTXZ5MP383W6LZYTLBY7P0LI","","null","<img src=""img/food3.png"" style=""width:200px; border:14px solid green;"">","null","","","","","","","","","",""
"","image-keyboard-response","213","163960","0.0-302.0","3G5F9DBFOQJ2ISONZKZSGDEII9MVHP","A17K1CHOI773VZ","32XN26MTXZ5MP383W6LZYTLBY7P0LI","","445.89999999990687","img/food3.png","74","447","1","1","","3","1","1,0.7,0,1,0.7,0,0.7,0,1","0,1,0.7,0,1,0.7,1,0.7,0","3",""
"","html-keyboard-response","214","164265","0.0-303.0","3G5F9DBFOQJ2ISONZKZSGDEII9MVHP","A17K1CHOI773VZ","32XN26MTXZ5MP383W6LZYTLBY7P0LI","","null","<img src=""img/food3.png"" style=""width:200px; border:14px solid green;"">","null","","","","","","","","","",""
"","image-keyboard-response","215","165121","0.0-304.0","3G5F9DBFOQJ2ISONZKZSGDEII9MVHP","A17K1CHOI773VZ","32XN26MTXZ5MP383W6LZYTLBY7P0LI","","854","img/food4.png","76","855.1000000000931","3","0","","1","1","1,0.7,0,1,0.7,0,0.7,0,1","0,1,0.7,0,1,0.7,1,0.7,0","3",""
"","html-keyboard-response","216","165425","0.0-305.0","3G5F9DBFOQJ2ISONZKZSGDEII9MVHP","A17K1CHOI773VZ","32XN26MTXZ5MP383W6LZYTLBY7P0LI","","null","<img src=""img/food4.png"" style=""width:200px;border:14px solid red;"">","null","","","","","","","","","",""
"","image-keyboard-response","217","165768","0.0-306.0","3G5F9DBFOQJ2ISONZKZSGDEII9MVHP","A17K1CHOI773VZ","32XN26MTXZ5MP383W6LZYTLBY7P0LI","","341.80000000004657","img/food4.png","76","342.80000000004657","3","1","","1","1","1,0.7,0,1,0.7,0,0.7,0,1","0,1,0.7,0,1,0.7,1,0.7,0","3",""
"","html-keyboard-response","218","166073","0.0-307.0","3G5F9DBFOQJ2ISONZKZSGDEII9MVHP","A17K1CHOI773VZ","32XN26MTXZ5MP383W6LZYTLBY7P0LI","","null","<img src=""img/food4.png"" style=""width:200px; border:14px solid green;"">","null","","","","","","","","","",""
"","image-keyboard-response","219","166584","0.0-308.0","3G5F9DBFOQJ2ISONZKZSGDEII9MVHP","A17K1CHOI773VZ","32XN26MTXZ5MP383W6LZYTLBY7P0LI","","509.80000000004657","img/food2.png","75","510.70000000018626","2","1","","2","1","1,0.7,0,1,0.7,0,0.7,0,1","0,1,0.7,0,1,0.7,1,0.7,0","3",""
"","html-keyboard-response","220","166889","0.0-309.0","3G5F9DBFOQJ2ISONZKZSGDEII9MVHP","A17K1CHOI773VZ","32XN26MTXZ5MP383W6LZYTLBY7P0LI","","null","<img src=""img/food2.png"" style=""width:200px; border:14px solid green;"">","null","","","","","","","","","",""
"","image-keyboard-response","221","167456","0.0-310.0","3G5F9DBFOQJ2ISONZKZSGDEII9MVHP","A17K1CHOI773VZ","32XN26MTXZ5MP383W6LZYTLBY7P0LI","","565.9000000001397","img/food4.png","76","566.8000000000466","3","0","","1","1","1,0.7,0,1,0.7,0,0.7,0,1","0,1,0.7,0,1,0.7,1,0.7,0","3",""
"","html-keyboard-response","222","167761","0.0-311.0","3G5F9DBFOQJ2ISONZKZSGDEII9MVHP","A17K1CHOI773VZ","32XN26MTXZ5MP383W6LZYTLBY7P0LI","","null","<img src=""img/food4.png"" style=""width:200px;border:14px solid red;"">","null","","","","","","","","","",""
"","image-keyboard-response","223","168448","0.0-312.0","3G5F9DBFOQJ2ISONZKZSGDEII9MVHP","A17K1CHOI773VZ","32XN26MTXZ5MP383W6LZYTLBY7P0LI","","685.8000000000466","img/food2.png","75","686.8000000000466","2","1","","2","1","1,0.7,0,1,0.7,0,0.7,0,1","0,1,0.7,0,1,0.7,1,0.7,0","3",""
"","html-keyboard-response","224","168753","0.0-313.0","3G5F9DBFOQJ2ISONZKZSGDEII9MVHP","A17K1CHOI773VZ","32XN26MTXZ5MP383W6LZYTLBY7P0LI","","null","<img src=""img/food2.png"" style=""width:200px; border:14px solid green;"">","null","","","","","","","","","",""
"","image-keyboard-response","225","169097","0.0-314.0","3G5F9DBFOQJ2ISONZKZSGDEII9MVHP","A17K1CHOI773VZ","32XN26MTXZ5MP383W6LZYTLBY7P0LI","","342.10000000009313","img/food2.png","75","343.30000000004657","2","1","","2","1","1,0.7,0,1,0.7,0,0.7,0,1","0,1,0.7,0,1,0.7,1,0.7,0","3",""
"","html-keyboard-response","226","169401","0.0-315.0","3G5F9DBFOQJ2ISONZKZSGDEII9MVHP","A17K1CHOI773VZ","32XN26MTXZ5MP383W6LZYTLBY7P0LI","","null","<img src=""img/food2.png"" style=""width:200px; border:14px solid green;"">","null","","","","","","","","","",""
"","image-keyboard-response","227","170048","0.0-316.0","3G5F9DBFOQJ2ISONZKZSGDEII9MVHP","A17K1CHOI773VZ","32XN26MTXZ5MP383W6LZYTLBY7P0LI","","645.9000000001397","img/food4.png","76","646.9000000001397","3","1","","1","1","1,0.7,0,1,0.7,0,0.7,0,1","0,1,0.7,0,1,0.7,1,0.7,0","3",""
"","html-keyboard-response","228","170354","0.0-317.0","3G5F9DBFOQJ2ISONZKZSGDEII9MVHP","A17K1CHOI773VZ","32XN26MTXZ5MP383W6LZYTLBY7P0LI","","null","<img src=""img/food4.png"" style=""width:200px; border:14px solid green;"">","null","","","","","","","","","",""
"","image-keyboard-response","229","170680","0.0-318.0","3G5F9DBFOQJ2ISONZKZSGDEII9MVHP","A17K1CHOI773VZ","32XN26MTXZ5MP383W6LZYTLBY7P0LI","","325.80000000004657","img/food4.png","76","326.80000000004657","3","0","","1","1","1,0.7,0,1,0.7,0,0.7,0,1","0,1,0.7,0,1,0.7,1,0.7,0","3",""
"","html-keyboard-response","230","170986","0.0-319.0","3G5F9DBFOQJ2ISONZKZSGDEII9MVHP","A17K1CHOI773VZ","32XN26MTXZ5MP383W6LZYTLBY7P0LI","","null","<img src=""img/food4.png"" style=""width:200px;border:14px solid red;"">","null","","","","","","","","","",""
"","image-keyboard-response","231","171384","0.0-320.0","3G5F9DBFOQJ2ISONZKZSGDEII9MVHP","A17K1CHOI773VZ","32XN26MTXZ5MP383W6LZYTLBY7P0LI","","397.5999999998603","img/food4.png","76","398.60000000009313","3","1","","1","1","1,0.7,0,1,0.7,0,0.7,0,1","0,1,0.7,0,1,0.7,1,0.7,0","3",""
"","html-keyboard-response","232","171690","0.0-321.0","3G5F9DBFOQJ2ISONZKZSGDEII9MVHP","A17K1CHOI773VZ","32XN26MTXZ5MP383W6LZYTLBY7P0LI","","null","<img src=""img/food4.png"" style=""width:200px; border:14px solid green;"">","null","","","","","","","","","",""
"","image-keyboard-response","233","172026","0.0-322.0","3G5F9DBFOQJ2ISONZKZSGDEII9MVHP","A17K1CHOI773VZ","32XN26MTXZ5MP383W6LZYTLBY7P0LI","","334.5999999998603","img/food4.png","76","336.19999999995343","3","0","","1","1","1,0.7,0,1,0.7,0,0.7,0,1","0,1,0.7,0,1,0.7,1,0.7,0","3",""
"","html-keyboard-response","234","172330","0.0-323.0","3G5F9DBFOQJ2ISONZKZSGDEII9MVHP","A17K1CHOI773VZ","32XN26MTXZ5MP383W6LZYTLBY7P0LI","","null","<img src=""img/food4.png"" style=""width:200px;border:14px solid red;"">","null","","","","","","","","","",""
"","image-keyboard-response","235","172945","0.0-324.0","3G5F9DBFOQJ2ISONZKZSGDEII9MVHP","A17K1CHOI773VZ","32XN26MTXZ5MP383W6LZYTLBY7P0LI","","614.1000000000931","img/food2.png","75","615","2","1","","2","1","1,0.7,0,1,0.7,0,0.7,0,1","0,1,0.7,0,1,0.7,1,0.7,0","3",""
"","html-keyboard-response","236","173250","0.0-325.0","3G5F9DBFOQJ2ISONZKZSGDEII9MVHP","A17K1CHOI773VZ","32XN26MTXZ5MP383W6LZYTLBY7P0LI","","null","<img src=""img/food2.png"" style=""width:200px; border:14px solid green;"">","null","","","","","","","","","",""
"","image-keyboard-response","237","173816","0.0-326.0","3G5F9DBFOQJ2ISONZKZSGDEII9MVHP","A17K1CHOI773VZ","32XN26MTXZ5MP383W6LZYTLBY7P0LI","","565.5999999998603","img/food4.png","76","566.6000000000931","3","1","","1","1","1,0.7,0,1,0.7,0,0.7,0,1","0,1,0.7,0,1,0.7,1,0.7,0","3",""
"","html-keyboard-response","238","174122","0.0-327.0","3G5F9DBFOQJ2ISONZKZSGDEII9MVHP","A17K1CHOI773VZ","32XN26MTXZ5MP383W6LZYTLBY7P0LI","","null","<img src=""img/food4.png"" style=""width:200px; border:14px solid green;"">","null","","","","","","","","","",""
"","image-keyboard-response","239","174713","0.0-328.0","3G5F9DBFOQJ2ISONZKZSGDEII9MVHP","A17K1CHOI773VZ","32XN26MTXZ5MP383W6LZYTLBY7P0LI","","589.3000000000466","img/food2.png","75","590.6999999999534","2","1","","2","1","1,0.7,0,1,0.7,0,0.7,0,1","0,1,0.7,0,1,0.7,1,0.7,0","3",""
"","html-keyboard-response","240","175018","0.0-329.0","3G5F9DBFOQJ2ISONZKZSGDEII9MVHP","A17K1CHOI773VZ","32XN26MTXZ5MP383W6LZYTLBY7P0LI","","null","<img src=""img/food2.png"" style=""width:200px; border:14px solid green;"">","null","","","","","","","","","",""
"","image-keyboard-response","241","175353","0.0-330.0","3G5F9DBFOQJ2ISONZKZSGDEII9MVHP","A17K1CHOI773VZ","32XN26MTXZ5MP383W6LZYTLBY7P0LI","","333.5","img/food2.png","75","334.60000000009313","2","1","","2","1","1,0.7,0,1,0.7,0,0.7,0,1","0,1,0.7,0,1,0.7,1,0.7,0","3",""
"","html-keyboard-response","242","175658","0.0-331.0","3G5F9DBFOQJ2ISONZKZSGDEII9MVHP","A17K1CHOI773VZ","32XN26MTXZ5MP383W6LZYTLBY7P0LI","","null","<img src=""img/food2.png"" style=""width:200px; border:14px solid green;"">","null","","","","","","","","","",""
"","image-keyboard-response","243","176529","0.0-332.0","3G5F9DBFOQJ2ISONZKZSGDEII9MVHP","A17K1CHOI773VZ","32XN26MTXZ5MP383W6LZYTLBY7P0LI","","869.6000000000931","img/food3.png","74","870.5","1","1","","3","1","1,0.7,0,1,0.7,0,0.7,0,1","0,1,0.7,0,1,0.7,1,0.7,0","3",""
"","html-keyboard-response","244","176834","0.0-333.0","3G5F9DBFOQJ2ISONZKZSGDEII9MVHP","A17K1CHOI773VZ","32XN26MTXZ5MP383W6LZYTLBY7P0LI","","null","<img src=""img/food3.png"" style=""width:200px; border:14px solid green;"">","null","","","","","","","","","",""
"","image-keyboard-response","245","177585","0.0-334.0","3G5F9DBFOQJ2ISONZKZSGDEII9MVHP","A17K1CHOI773VZ","32XN26MTXZ5MP383W6LZYTLBY7P0LI","","749.5","img/food2.png","75","750.6000000000931","2","1","","2","1","1,0.7,0,1,0.7,0,0.7,0,1","0,1,0.7,0,1,0.7,1,0.7,0","3",""
"","html-keyboard-response","246","177890","0.0-335.0","3G5F9DBFOQJ2ISONZKZSGDEII9MVHP","A17K1CHOI773VZ","32XN26MTXZ5MP383W6LZYTLBY7P0LI","","null","<img src=""img/food2.png"" style=""width:200px; border:14px solid green;"">","null","","","","","","","","","",""
"","image-keyboard-response","247","178593","0.0-336.0","3G5F9DBFOQJ2ISONZKZSGDEII9MVHP","A17K1CHOI773VZ","32XN26MTXZ5MP383W6LZYTLBY7P0LI","","701.5","img/food3.png","74","702.5","1","1","","3","1","1,0.7,0,1,0.7,0,0.7,0,1","0,1,0.7,0,1,0.7,1,0.7,0","3",""
"","html-keyboard-response","248","178898","0.0-337.0","3G5F9DBFOQJ2ISONZKZSGDEII9MVHP","A17K1CHOI773VZ","32XN26MTXZ5MP383W6LZYTLBY7P0LI","","null","<img src=""img/food3.png"" style=""width:200px; border:14px solid green;"">","null","","","","","","","","","",""
"","image-keyboard-response","249","179473","0.0-338.0","3G5F9DBFOQJ2ISONZKZSGDEII9MVHP","A17K1CHOI773VZ","32XN26MTXZ5MP383W6LZYTLBY7P0LI","","573.5","img/food2.png","75","574.6999999999534","2","1","","2","1","1,0.7,0,1,0.7,0,0.7,0,1","0,1,0.7,0,1,0.7,1,0.7,0","3",""
"","html-keyboard-response","250","179778","0.0-339.0","3G5F9DBFOQJ2ISONZKZSGDEII9MVHP","A17K1CHOI773VZ","32XN26MTXZ5MP383W6LZYTLBY7P0LI","","null","<img src=""img/food2.png"" style=""width:200px; border:14px solid green;"">","null","","","","","","","","","",""
"","image-keyboard-response","251","180697","0.0-340.0","3G5F9DBFOQJ2ISONZKZSGDEII9MVHP","A17K1CHOI773VZ","32XN26MTXZ5MP383W6LZYTLBY7P0LI","","917.5","img/food2.png","75","918.5","2","1","","2","1","1,0.7,0,1,0.7,0,0.7,0,1","0,1,0.7,0,1,0.7,1,0.7,0","3",""
"","html-keyboard-response","252","181002","0.0-341.0","3G5F9DBFOQJ2ISONZKZSGDEII9MVHP","A17K1CHOI773VZ","32XN26MTXZ5MP383W6LZYTLBY7P0LI","","null","<img src=""img/food2.png"" style=""width:200px; border:14px solid green;"">","null","","","","","","","","","",""
"","image-keyboard-response","253","181777","0.0-342.0","3G5F9DBFOQJ2ISONZKZSGDEII9MVHP","A17K1CHOI773VZ","32XN26MTXZ5MP383W6LZYTLBY7P0LI","","773.4000000001397","img/food3.png","74","774.4000000001397","1","1","","3","1","1,0.7,0,1,0.7,0,0.7,0,1","0,1,0.7,0,1,0.7,1,0.7,0","3",""
"","html-keyboard-response","254","182082","0.0-343.0","3G5F9DBFOQJ2ISONZKZSGDEII9MVHP","A17K1CHOI773VZ","32XN26MTXZ5MP383W6LZYTLBY7P0LI","","null","<img src=""img/food3.png"" style=""width:200px; border:14px solid green;"">","null","","","","","","","","","",""
"","image-keyboard-response","255","182401","0.0-344.0","3G5F9DBFOQJ2ISONZKZSGDEII9MVHP","A17K1CHOI773VZ","32XN26MTXZ5MP383W6LZYTLBY7P0LI","","317.5","img/food3.png","74","318.39999999990687","1","1","","3","1","1,0.7,0,1,0.7,0,0.7,0,1","0,1,0.7,0,1,0.7,1,0.7,0","3",""
"","html-keyboard-response","256","182706","0.0-345.0","3G5F9DBFOQJ2ISONZKZSGDEII9MVHP","A17K1CHOI773VZ","32XN26MTXZ5MP383W6LZYTLBY7P0LI","","null","<img src=""img/food3.png"" style=""width:200px; border:14px solid green;"">","null","","","","","","","","","",""
"","image-keyboard-response","257","183281","0.0-346.0","3G5F9DBFOQJ2ISONZKZSGDEII9MVHP","A17K1CHOI773VZ","32XN26MTXZ5MP383W6LZYTLBY7P0LI","","573.6000000000931","img/food2.png","75","574.7000000001863","2","1","","2","1","1,0.7,0,1,0.7,0,0.7,0,1","0,1,0.7,0,1,0.7,1,0.7,0","3",""
"","html-keyboard-response","258","183586","0.0-347.0","3G5F9DBFOQJ2ISONZKZSGDEII9MVHP","A17K1CHOI773VZ","32XN26MTXZ5MP383W6LZYTLBY7P0LI","","null","<img src=""img/food2.png"" style=""width:200px; border:14px solid green;"">","null","","","","","","","","","",""
"","image-keyboard-response","259","184265","0.0-348.0","3G5F9DBFOQJ2ISONZKZSGDEII9MVHP","A17K1CHOI773VZ","32XN26MTXZ5MP383W6LZYTLBY7P0LI","","677.5","img/food4.png","76","678.5","3","1","","1","1","1,0.7,0,1,0.7,0,0.7,0,1","0,1,0.7,0,1,0.7,1,0.7,0","3",""
"","html-keyboard-response","260","184570","0.0-349.0","3G5F9DBFOQJ2ISONZKZSGDEII9MVHP","A17K1CHOI773VZ","32XN26MTXZ5MP383W6LZYTLBY7P0LI","","null","<img src=""img/food4.png"" style=""width:200px; border:14px solid green;"">","null","","","","","","","","","",""
"","image-keyboard-response","261","185345","0.0-350.0","3G5F9DBFOQJ2ISONZKZSGDEII9MVHP","A17K1CHOI773VZ","32XN26MTXZ5MP383W6LZYTLBY7P0LI","","773.5","img/food2.png","75","774.5","2","1","","2","1","1,0.7,0,1,0.7,0,0.7,0,1","0,1,0.7,0,1,0.7,1,0.7,0","3",""
"","html-keyboard-response","262","185650","0.0-351.0","3G5F9DBFOQJ2ISONZKZSGDEII9MVHP","A17K1CHOI773VZ","32XN26MTXZ5MP383W6LZYTLBY7P0LI","","null","<img src=""img/food2.png"" style=""width:200px; border:14px solid green;"">","null","","","","","","","","","",""
"","image-keyboard-response","263","186305","0.0-352.0","3G5F9DBFOQJ2ISONZKZSGDEII9MVHP","A17K1CHOI773VZ","32XN26MTXZ5MP383W6LZYTLBY7P0LI","","653.2999999998137","img/food3.png","74","654.5","1","1","","3","1","1,0.7,0,1,0.7,0,0.7,0,1","0,1,0.7,0,1,0.7,1,0.7,0","3",""
"","html-keyboard-response","264","186610","0.0-353.0","3G5F9DBFOQJ2ISONZKZSGDEII9MVHP","A17K1CHOI773VZ","32XN26MTXZ5MP383W6LZYTLBY7P0LI","","null","<img src=""img/food3.png"" style=""width:200px; border:14px solid green;"">","null","","","","","","","","","",""
"","image-keyboard-response","265","187297","0.0-354.0","3G5F9DBFOQJ2ISONZKZSGDEII9MVHP","A17K1CHOI773VZ","32XN26MTXZ5MP383W6LZYTLBY7P0LI","","685.1999999999534","img/food4.png","76","686.3000000000466","3","1","","1","1","1,0.7,0,1,0.7,0,0.7,0,1","0,1,0.7,0,1,0.7,1,0.7,0","3",""
"","html-keyboard-response","266","187602","0.0-355.0","3G5F9DBFOQJ2ISONZKZSGDEII9MVHP","A17K1CHOI773VZ","32XN26MTXZ5MP383W6LZYTLBY7P0LI","","null","<img src=""img/food4.png"" style=""width:200px; border:14px solid green;"">","null","","","","","","","","","",""
"","image-keyboard-response","267","188201","0.0-356.0","3G5F9DBFOQJ2ISONZKZSGDEII9MVHP","A17K1CHOI773VZ","32XN26MTXZ5MP383W6LZYTLBY7P0LI","","597.3000000000466","img/food2.png","75","598.3999999999069","2","1","","2","1","1,0.7,0,1,0.7,0,0.7,0,1","0,1,0.7,0,1,0.7,1,0.7,0","3",""
"","html-keyboard-response","268","188505","0.0-357.0","3G5F9DBFOQJ2ISONZKZSGDEII9MVHP","A17K1CHOI773VZ","32XN26MTXZ5MP383W6LZYTLBY7P0LI","","null","<img src=""img/food2.png"" style=""width:200px; border:14px solid green;"">","null","","","","","","","","","",""
"","image-keyboard-response","269","189905","0.0-358.0","3G5F9DBFOQJ2ISONZKZSGDEII9MVHP","A17K1CHOI773VZ","32XN26MTXZ5MP383W6LZYTLBY7P0LI","","1398.1999999999534","img/food4.png","76","1399.3000000000466","3","1","","1","1","1,0.7,0,1,0.7,0,0.7,0,1","0,1,0.7,0,1,0.7,1,0.7,0","3",""
"","html-keyboard-response","270","190209","0.0-359.0","3G5F9DBFOQJ2ISONZKZSGDEII9MVHP","A17K1CHOI773VZ","32XN26MTXZ5MP383W6LZYTLBY7P0LI","","null","<img src=""img/food4.png"" style=""width:200px; border:14px solid green;"">","null","","","","","","","","","",""
"","image-keyboard-response","271","190521","0.0-360.0","3G5F9DBFOQJ2ISONZKZSGDEII9MVHP","A17K1CHOI773VZ","32XN26MTXZ5MP383W6LZYTLBY7P0LI","","310.30000000004657","img/food4.png","76","311.19999999995343","3","1","","1","1","1,0.7,0,1,0.7,0,0.7,0,1","0,1,0.7,0,1,0.7,1,0.7,0","3",""
"","html-keyboard-response","272","190825","0.0-361.0","3G5F9DBFOQJ2ISONZKZSGDEII9MVHP","A17K1CHOI773VZ","32XN26MTXZ5MP383W6LZYTLBY7P0LI","","null","<img src=""img/food4.png"" style=""width:200px; border:14px solid green;"">","null","","","","","","","","","",""
"","image-keyboard-response","273","191161","0.0-362.0","3G5F9DBFOQJ2ISONZKZSGDEII9MVHP","A17K1CHOI773VZ","32XN26MTXZ5MP383W6LZYTLBY7P0LI","","334.4000000001397","img/food4.png","76","335.30000000004657","3","1","","1","1","1,0.7,0,1,0.7,0,0.7,0,1","0,1,0.7,0,1,0.7,1,0.7,0","3",""
"","html-keyboard-response","274","191465","0.0-363.0","3G5F9DBFOQJ2ISONZKZSGDEII9MVHP","A17K1CHOI773VZ","32XN26MTXZ5MP383W6LZYTLBY7P0LI","","null","<img src=""img/food4.png"" style=""width:200px; border:14px solid green;"">","null","","","","","","","","","",""
"","image-keyboard-response","275","192026","0.0-364.0","3G5F9DBFOQJ2ISONZKZSGDEII9MVHP","A17K1CHOI773VZ","32XN26MTXZ5MP383W6LZYTLBY7P0LI","","559.3000000000466","img/food3.png","74","560.5","1","1","","3","1","1,0.7,0,1,0.7,0,0.7,0,1","0,1,0.7,0,1,0.7,1,0.7,0","3",""
"","html-keyboard-response","276","192329","0.0-365.0","3G5F9DBFOQJ2ISONZKZSGDEII9MVHP","A17K1CHOI773VZ","32XN26MTXZ5MP383W6LZYTLBY7P0LI","","null","<img src=""img/food3.png"" style=""width:200px; border:14px solid green;"">","null","","","","","","","","","",""
"","image-keyboard-response","277","192889","0.0-366.0","3G5F9DBFOQJ2ISONZKZSGDEII9MVHP","A17K1CHOI773VZ","32XN26MTXZ5MP383W6LZYTLBY7P0LI","","558.5","img/food2.png","75","559.3000000000466","2","1","","2","1","1,0.7,0,1,0.7,0,0.7,0,1","0,1,0.7,0,1,0.7,1,0.7,0","3",""
"","html-keyboard-response","278","193193","0.0-367.0","3G5F9DBFOQJ2ISONZKZSGDEII9MVHP","A17K1CHOI773VZ","32XN26MTXZ5MP383W6LZYTLBY7P0LI","","null","<img src=""img/food2.png"" style=""width:200px; border:14px solid green;"">","null","","","","","","","","","",""
"","image-keyboard-response","279","194321","0.0-368.0","3G5F9DBFOQJ2ISONZKZSGDEII9MVHP","A17K1CHOI773VZ","32XN26MTXZ5MP383W6LZYTLBY7P0LI","","1126.5999999998603","img/food3.png","74","1127.5","1","1","","3","1","1,0.7,0,1,0.7,0,0.7,0,1","0,1,0.7,0,1,0.7,1,0.7,0","3",""
"","html-keyboard-response","280","194625","0.0-369.0","3G5F9DBFOQJ2ISONZKZSGDEII9MVHP","A17K1CHOI773VZ","32XN26MTXZ5MP383W6LZYTLBY7P0LI","","null","<img src=""img/food3.png"" style=""width:200px; border:14px solid green;"">","null","","","","","","","","","",""
"","image-keyboard-response","281","195233","0.0-370.0","3G5F9DBFOQJ2ISONZKZSGDEII9MVHP","A17K1CHOI773VZ","32XN26MTXZ5MP383W6LZYTLBY7P0LI","","606.3000000000466","img/food2.png","75","607.3000000000466","2","1","","2","1","1,0.7,0,1,0.7,0,0.7,0,1","0,1,0.7,0,1,0.7,1,0.7,0","3",""
"","html-keyboard-response","282","195537","0.0-371.0","3G5F9DBFOQJ2ISONZKZSGDEII9MVHP","A17K1CHOI773VZ","32XN26MTXZ5MP383W6LZYTLBY7P0LI","","null","<img src=""img/food2.png"" style=""width:200px; border:14px solid green;"">","null","","","","","","","","","",""
"","image-keyboard-response","283","196065","0.0-372.0","3G5F9DBFOQJ2ISONZKZSGDEII9MVHP","A17K1CHOI773VZ","32XN26MTXZ5MP383W6LZYTLBY7P0LI","","526.3000000000466","img/food3.png","76","527.1999999999534","3","0","","3","1","1,0.7,0,1,0.7,0,0.7,0,1","0,1,0.7,0,1,0.7,1,0.7,0","3",""
"","html-keyboard-response","284","196369","0.0-373.0","3G5F9DBFOQJ2ISONZKZSGDEII9MVHP","A17K1CHOI773VZ","32XN26MTXZ5MP383W6LZYTLBY7P0LI","","null","<img src=""img/food3.png"" style=""width:200px;border:14px solid red;"">","null","","","","","","","","","",""
"","image-keyboard-response","285","196497","0.0-374.0","3G5F9DBFOQJ2ISONZKZSGDEII9MVHP","A17K1CHOI773VZ","32XN26MTXZ5MP383W6LZYTLBY7P0LI","","126.20000000018626","img/food4.png","74","127.20000000018626","1","0","","1","1","1,0.7,0,1,0.7,0,0.7,0,1","0,1,0.7,0,1,0.7,1,0.7,0","3",""
"","html-keyboard-response","286","196801","0.0-375.0","3G5F9DBFOQJ2ISONZKZSGDEII9MVHP","A17K1CHOI773VZ","32XN26MTXZ5MP383W6LZYTLBY7P0LI","","null","<img src=""img/food4.png"" style=""width:200px;border:14px solid red;"">","null","","","","","","","","","",""
"","image-keyboard-response","287","197561","0.0-376.0","3G5F9DBFOQJ2ISONZKZSGDEII9MVHP","A17K1CHOI773VZ","32XN26MTXZ5MP383W6LZYTLBY7P0LI","","758.2000000001863","img/food3.png","74","759.3000000000466","1","1","","3","1","1,0.7,0,1,0.7,0,0.7,0,1","0,1,0.7,0,1,0.7,1,0.7,0","3",""
"","html-keyboard-response","288","197865","0.0-377.0","3G5F9DBFOQJ2ISONZKZSGDEII9MVHP","A17K1CHOI773VZ","32XN26MTXZ5MP383W6LZYTLBY7P0LI","","null","<img src=""img/food3.png"" style=""width:200px; border:14px solid green;"">","null","","","","","","","","","",""
"","image-keyboard-response","289","198609","0.0-378.0","3G5F9DBFOQJ2ISONZKZSGDEII9MVHP","A17K1CHOI773VZ","32XN26MTXZ5MP383W6LZYTLBY7P0LI","","742.2000000001863","img/food4.png","76","743.1000000000931","3","0","","1","1","1,0.7,0,1,0.7,0,0.7,0,1","0,1,0.7,0,1,0.7,1,0.7,0","3",""
"","html-keyboard-response","290","198914","0.0-379.0","3G5F9DBFOQJ2ISONZKZSGDEII9MVHP","A17K1CHOI773VZ","32XN26MTXZ5MP383W6LZYTLBY7P0LI","","null","<img src=""img/food4.png"" style=""width:200px;border:14px solid red;"">","null","","","","","","","","","",""
"","image-keyboard-response","291","199417","0.0-380.0","3G5F9DBFOQJ2ISONZKZSGDEII9MVHP","A17K1CHOI773VZ","32XN26MTXZ5MP383W6LZYTLBY7P0LI","","502.10000000009313","img/food2.png","75","503.10000000009313","2","1","","2","1","1,0.7,0,1,0.7,0,0.7,0,1","0,1,0.7,0,1,0.7,1,0.7,0","3",""
"","html-keyboard-response","292","199722","0.0-381.0","3G5F9DBFOQJ2ISONZKZSGDEII9MVHP","A17K1CHOI773VZ","32XN26MTXZ5MP383W6LZYTLBY7P0LI","","null","<img src=""img/food2.png"" style=""width:200px; border:14px solid green;"">","null","","","","","","","","","",""
"","image-keyboard-response","293","200049","0.0-382.0","3G5F9DBFOQJ2ISONZKZSGDEII9MVHP","A17K1CHOI773VZ","32XN26MTXZ5MP383W6LZYTLBY7P0LI","","326.10000000009313","img/food2.png","75","327.10000000009313","2","1","","2","1","1,0.7,0,1,0.7,0,0.7,0,1","0,1,0.7,0,1,0.7,1,0.7,0","3",""
"","html-keyboard-response","294","200354","0.0-383.0","3G5F9DBFOQJ2ISONZKZSGDEII9MVHP","A17K1CHOI773VZ","32XN26MTXZ5MP383W6LZYTLBY7P0LI","","null","<img src=""img/food2.png"" style=""width:200px; border:14px solid green;"">","null","","","","","","","","","",""
"","image-keyboard-response","295","201041","0.0-384.0","3G5F9DBFOQJ2ISONZKZSGDEII9MVHP","A17K1CHOI773VZ","32XN26MTXZ5MP383W6LZYTLBY7P0LI","","686","img/food3.png","74","687","1","1","","3","1","1,0.7,0,1,0.7,0,0.7,0,1","0,1,0.7,0,1,0.7,1,0.7,0","3",""
"","html-keyboard-response","296","201346","0.0-385.0","3G5F9DBFOQJ2ISONZKZSGDEII9MVHP","A17K1CHOI773VZ","32XN26MTXZ5MP383W6LZYTLBY7P0LI","","null","<img src=""img/food3.png"" style=""width:200px; border:14px solid green;"">","null","","","","","","","","","",""
"","image-keyboard-response","297","201809","0.0-386.0","3G5F9DBFOQJ2ISONZKZSGDEII9MVHP","A17K1CHOI773VZ","32XN26MTXZ5MP383W6LZYTLBY7P0LI","","462.0999999998603","img/food3.png","74","463.0999999998603","1","1","","3","1","1,0.7,0,1,0.7,0,0.7,0,1","0,1,0.7,0,1,0.7,1,0.7,0","3",""
"","html-keyboard-response","298","202114","0.0-387.0","3G5F9DBFOQJ2ISONZKZSGDEII9MVHP","A17K1CHOI773VZ","32XN26MTXZ5MP383W6LZYTLBY7P0LI","","null","<img src=""img/food3.png"" style=""width:200px; border:14px solid green;"">","null","","","","","","","","","",""
"","image-keyboard-response","299","202737","0.0-388.0","3G5F9DBFOQJ2ISONZKZSGDEII9MVHP","A17K1CHOI773VZ","32XN26MTXZ5MP383W6LZYTLBY7P0LI","","620.9000000001397","img/food2.png","75","622.3000000000466","2","1","","2","1","1,0.7,0,1,0.7,0,0.7,0,1","0,1,0.7,0,1,0.7,1,0.7,0","3",""
"","html-keyboard-response","300","203042","0.0-389.0","3G5F9DBFOQJ2ISONZKZSGDEII9MVHP","A17K1CHOI773VZ","32XN26MTXZ5MP383W6LZYTLBY7P0LI","","null","<img src=""img/food2.png"" style=""width:200px; border:14px solid green;"">","null","","","","","","","","","",""
"","image-keyboard-response","301","204009","0.0-390.0","3G5F9DBFOQJ2ISONZKZSGDEII9MVHP","A17K1CHOI773VZ","32XN26MTXZ5MP383W6LZYTLBY7P0LI","","966.1000000000931","img/food2.png","75","967.1999999999534","2","1","","2","1","1,0.7,0,1,0.7,0,0.7,0,1","0,1,0.7,0,1,0.7,1,0.7,0","3",""
"","html-keyboard-response","302","204314","0.0-391.0","3G5F9DBFOQJ2ISONZKZSGDEII9MVHP","A17K1CHOI773VZ","32XN26MTXZ5MP383W6LZYTLBY7P0LI","","null","<img src=""img/food2.png"" style=""width:200px; border:14px solid green;"">","null","","","","","","","","","",""
"","image-keyboard-response","303","204641","0.0-392.0","3G5F9DBFOQJ2ISONZKZSGDEII9MVHP","A17K1CHOI773VZ","32XN26MTXZ5MP383W6LZYTLBY7P0LI","","326.19999999995343","img/food2.png","75","327.10000000009313","2","1","","2","1","1,0.7,0,1,0.7,0,0.7,0,1","0,1,0.7,0,1,0.7,1,0.7,0","3",""
"","html-keyboard-response","304","204946","0.0-393.0","3G5F9DBFOQJ2ISONZKZSGDEII9MVHP","A17K1CHOI773VZ","32XN26MTXZ5MP383W6LZYTLBY7P0LI","","null","<img src=""img/food2.png"" style=""width:200px; border:14px solid green;"">","null","","","","","","","","","",""
"","image-keyboard-response","305","205369","0.0-394.0","3G5F9DBFOQJ2ISONZKZSGDEII9MVHP","A17K1CHOI773VZ","32XN26MTXZ5MP383W6LZYTLBY7P0LI","","422.10000000009313","img/food2.png","75","423","2","1","","2","1","1,0.7,0,1,0.7,0,0.7,0,1","0,1,0.7,0,1,0.7,1,0.7,0","3",""
"","html-keyboard-response","306","205674","0.0-395.0","3G5F9DBFOQJ2ISONZKZSGDEII9MVHP","A17K1CHOI773VZ","32XN26MTXZ5MP383W6LZYTLBY7P0LI","","null","<img src=""img/food2.png"" style=""width:200px; border:14px solid green;"">","null","","","","","","","","","",""
"","image-keyboard-response","307","206249","0.0-396.0","3G5F9DBFOQJ2ISONZKZSGDEII9MVHP","A17K1CHOI773VZ","32XN26MTXZ5MP383W6LZYTLBY7P0LI","","574.1000000000931","img/food3.png","74","575.0999999998603","1","1","","3","1","1,0.7,0,1,0.7,0,0.7,0,1","0,1,0.7,0,1,0.7,1,0.7,0","3",""
"","html-keyboard-response","308","206554","0.0-397.0","3G5F9DBFOQJ2ISONZKZSGDEII9MVHP","A17K1CHOI773VZ","32XN26MTXZ5MP383W6LZYTLBY7P0LI","","null","<img src=""img/food3.png"" style=""width:200px; border:14px solid green;"">","null","","","","","","","","","",""
"","image-keyboard-response","309","206897","0.0-398.0","3G5F9DBFOQJ2ISONZKZSGDEII9MVHP","A17K1CHOI773VZ","32XN26MTXZ5MP383W6LZYTLBY7P0LI","","341.89999999990687","img/food3.png","74","343","1","1","","3","1","1,0.7,0,1,0.7,0,0.7,0,1","0,1,0.7,0,1,0.7,1,0.7,0","3",""
"","html-keyboard-response","310","207202","0.0-399.0","3G5F9DBFOQJ2ISONZKZSGDEII9MVHP","A17K1CHOI773VZ","32XN26MTXZ5MP383W6LZYTLBY7P0LI","","null","<img src=""img/food3.png"" style=""width:200px; border:14px solid green;"">","null","","","","","","","","","",""
"","image-keyboard-response","311","207465","0.0-400.0","3G5F9DBFOQJ2ISONZKZSGDEII9MVHP","A17K1CHOI773VZ","32XN26MTXZ5MP383W6LZYTLBY7P0LI","","261.70000000018626","img/food4.png","74","262.80000000004657","1","0","","1","1","1,0.7,0,1,0.7,0,0.7,0,1","0,1,0.7,0,1,0.7,1,0.7,0","3",""
"","html-keyboard-response","312","207770","0.0-401.0","3G5F9DBFOQJ2ISONZKZSGDEII9MVHP","A17K1CHOI773VZ","32XN26MTXZ5MP383W6LZYTLBY7P0LI","","null","<img src=""img/food4.png"" style=""width:200px;border:14px solid red;"">","null","","","","","","","","","",""
"","image-keyboard-response","313","208369","0.0-402.0","3G5F9DBFOQJ2ISONZKZSGDEII9MVHP","A17K1CHOI773VZ","32XN26MTXZ5MP383W6LZYTLBY7P0LI","","598","img/food3.png","74","599","1","1","","3","1","1,0.7,0,1,0.7,0,0.7,0,1","0,1,0.7,0,1,0.7,1,0.7,0","3",""
"","html-keyboard-response","314","208674","0.0-403.0","3G5F9DBFOQJ2ISONZKZSGDEII9MVHP","A17K1CHOI773VZ","32XN26MTXZ5MP383W6LZYTLBY7P0LI","","null","<img src=""img/food3.png"" style=""width:200px; border:14px solid green;"">","null","","","","","","","","","",""
"","image-keyboard-response","315","209385","0.0-404.0","3G5F9DBFOQJ2ISONZKZSGDEII9MVHP","A17K1CHOI773VZ","32XN26MTXZ5MP383W6LZYTLBY7P0LI","","709.8999999999069","img/food4.png","76","710.8999999999069","3","1","","1","1","1,0.7,0,1,0.7,0,0.7,0,1","0,1,0.7,0,1,0.7,1,0.7,0","3",""
"","html-keyboard-response","316","209690","0.0-405.0","3G5F9DBFOQJ2ISONZKZSGDEII9MVHP","A17K1CHOI773VZ","32XN26MTXZ5MP383W6LZYTLBY7P0LI","","null","<img src=""img/food4.png"" style=""width:200px; border:14px solid green;"">","null","","","","","","","","","",""
"","image-keyboard-response","317","210307","0.0-406.0","3G5F9DBFOQJ2ISONZKZSGDEII9MVHP","A17K1CHOI773VZ","32XN26MTXZ5MP383W6LZYTLBY7P0LI","","613.8000000000466","img/food2.png","75","614.8000000000466","2","1","","2","1","1,0.7,0,1,0.7,0,0.7,0,1","0,1,0.7,0,1,0.7,1,0.7,0","3",""
"","html-keyboard-response","318","210612","0.0-407.0","3G5F9DBFOQJ2ISONZKZSGDEII9MVHP","A17K1CHOI773VZ","32XN26MTXZ5MP383W6LZYTLBY7P0LI","","null","<img src=""img/food2.png"" style=""width:200px; border:14px solid green;"">","null","","","","","","","","","",""
"","image-keyboard-response","319","211235","0.0-408.0","3G5F9DBFOQJ2ISONZKZSGDEII9MVHP","A17K1CHOI773VZ","32XN26MTXZ5MP383W6LZYTLBY7P0LI","","621.8000000000466","img/food3.png","74","622.8000000000466","1","1","","3","1","1,0.7,0,1,0.7,0,0.7,0,1","0,1,0.7,0,1,0.7,1,0.7,0","3",""
"","html-keyboard-response","320","211540","0.0-409.0","3G5F9DBFOQJ2ISONZKZSGDEII9MVHP","A17K1CHOI773VZ","32XN26MTXZ5MP383W6LZYTLBY7P0LI","","null","<img src=""img/food3.png"" style=""width:200px; border:14px solid green;"">","null","","","","","","","","","",""
"","image-keyboard-response","321","212283","0.0-410.0","3G5F9DBFOQJ2ISONZKZSGDEII9MVHP","A17K1CHOI773VZ","32XN26MTXZ5MP383W6LZYTLBY7P0LI","","741.6999999999534","img/food4.png","76","742.9000000001397","3","1","","1","1","1,0.7,0,1,0.7,0,0.7,0,1","0,1,0.7,0,1,0.7,1,0.7,0","3",""
"","html-keyboard-response","322","212588","0.0-411.0","3G5F9DBFOQJ2ISONZKZSGDEII9MVHP","A17K1CHOI773VZ","32XN26MTXZ5MP383W6LZYTLBY7P0LI","","null","<img src=""img/food4.png"" style=""width:200px; border:14px solid green;"">","null","","","","","","","","","",""
"","image-keyboard-response","323","213011","0.0-412.0","3G5F9DBFOQJ2ISONZKZSGDEII9MVHP","A17K1CHOI773VZ","32XN26MTXZ5MP383W6LZYTLBY7P0LI","","421.89999999990687","img/food4.png","76","423","3","0","","1","1","1,0.7,0,1,0.7,0,0.7,0,1","0,1,0.7,0,1,0.7,1,0.7,0","3",""
"","html-keyboard-response","324","213316","0.0-413.0","3G5F9DBFOQJ2ISONZKZSGDEII9MVHP","A17K1CHOI773VZ","32XN26MTXZ5MP383W6LZYTLBY7P0LI","","null","<img src=""img/food4.png"" style=""width:200px;border:14px solid red;"">","null","","","","","","","","","",""
"","image-keyboard-response","325","214379","0.0-414.0","3G5F9DBFOQJ2ISONZKZSGDEII9MVHP","A17K1CHOI773VZ","32XN26MTXZ5MP383W6LZYTLBY7P0LI","","1061.6999999999534","img/food2.png","75","1062.8000000000466","2","1","","2","1","1,0.7,0,1,0.7,0,0.7,0,1","0,1,0.7,0,1,0.7,1,0.7,0","3",""
"","html-keyboard-response","326","214684","0.0-415.0","3G5F9DBFOQJ2ISONZKZSGDEII9MVHP","A17K1CHOI773VZ","32XN26MTXZ5MP383W6LZYTLBY7P0LI","","null","<img src=""img/food2.png"" style=""width:200px; border:14px solid green;"">","null","","","","","","","","","",""
"","image-keyboard-response","327","215547","0.0-416.0","3G5F9DBFOQJ2ISONZKZSGDEII9MVHP","A17K1CHOI773VZ","32XN26MTXZ5MP383W6LZYTLBY7P0LI","","862","img/food3.png","74","863","1","1","","3","1","1,0.7,0,1,0.7,0,0.7,0,1","0,1,0.7,0,1,0.7,1,0.7,0","3",""
"","html-keyboard-response","328","215852","0.0-417.0","3G5F9DBFOQJ2ISONZKZSGDEII9MVHP","A17K1CHOI773VZ","32XN26MTXZ5MP383W6LZYTLBY7P0LI","","null","<img src=""img/food3.png"" style=""width:200px; border:14px solid green;"">","null","","","","","","","","","",""
"","image-keyboard-response","329","216643","0.0-418.0","3G5F9DBFOQJ2ISONZKZSGDEII9MVHP","A17K1CHOI773VZ","32XN26MTXZ5MP383W6LZYTLBY7P0LI","","789.6999999999534","img/food4.png","76","790.6999999999534","3","1","","1","1","1,0.7,0,1,0.7,0,0.7,0,1","0,1,0.7,0,1,0.7,1,0.7,0","3",""
"","html-keyboard-response","330","216947","0.0-419.0","3G5F9DBFOQJ2ISONZKZSGDEII9MVHP","A17K1CHOI773VZ","32XN26MTXZ5MP383W6LZYTLBY7P0LI","","null","<img src=""img/food4.png"" style=""width:200px; border:14px solid green;"">","null","","","","","","","","","",""
"","image-keyboard-response","331","217603","0.0-420.0","3G5F9DBFOQJ2ISONZKZSGDEII9MVHP","A17K1CHOI773VZ","32XN26MTXZ5MP383W6LZYTLBY7P0LI","","654.6999999999534","img/food4.png","76","655.6000000000931","3","0","","1","1","1,0.7,0,1,0.7,0,0.7,0,1","0,1,0.7,0,1,0.7,1,0.7,0","3",""
"","html-keyboard-response","332","217907","0.0-421.0","3G5F9DBFOQJ2ISONZKZSGDEII9MVHP","A17K1CHOI773VZ","32XN26MTXZ5MP383W6LZYTLBY7P0LI","","null","<img src=""img/food4.png"" style=""width:200px;border:14px solid red;"">","null","","","","","","","","","",""
"","image-keyboard-response","333","218219","0.0-422.0","3G5F9DBFOQJ2ISONZKZSGDEII9MVHP","A17K1CHOI773VZ","32XN26MTXZ5MP383W6LZYTLBY7P0LI","","310.69999999995343","img/food4.png","76","311.60000000009313","3","1","","1","1","1,0.7,0,1,0.7,0,0.7,0,1","0,1,0.7,0,1,0.7,1,0.7,0","3",""
"","html-keyboard-response","334","218523","0.0-423.0","3G5F9DBFOQJ2ISONZKZSGDEII9MVHP","A17K1CHOI773VZ","32XN26MTXZ5MP383W6LZYTLBY7P0LI","","null","<img src=""img/food4.png"" style=""width:200px; border:14px solid green;"">","null","","","","","","","","","",""
"","image-keyboard-response","335","219227","0.0-424.0","3G5F9DBFOQJ2ISONZKZSGDEII9MVHP","A17K1CHOI773VZ","32XN26MTXZ5MP383W6LZYTLBY7P0LI","","702.6999999999534","img/food3.png","74","703.6000000000931","1","1","","3","1","1,0.7,0,1,0.7,0,0.7,0,1","0,1,0.7,0,1,0.7,1,0.7,0","3",""
"","html-keyboard-response","336","219531","0.0-425.0","3G5F9DBFOQJ2ISONZKZSGDEII9MVHP","A17K1CHOI773VZ","32XN26MTXZ5MP383W6LZYTLBY7P0LI","","null","<img src=""img/food3.png"" style=""width:200px; border:14px solid green;"">","null","","","","","","","","","",""
"","image-keyboard-response","337","220219","0.0-426.0","3G5F9DBFOQJ2ISONZKZSGDEII9MVHP","A17K1CHOI773VZ","32XN26MTXZ5MP383W6LZYTLBY7P0LI","","686.8000000000466","img/food4.png","76","687.6999999999534","3","1","","1","1","1,0.7,0,1,0.7,0,0.7,0,1","0,1,0.7,0,1,0.7,1,0.7,0","3",""
"","html-keyboard-response","338","220523","0.0-427.0","3G5F9DBFOQJ2ISONZKZSGDEII9MVHP","A17K1CHOI773VZ","32XN26MTXZ5MP383W6LZYTLBY7P0LI","","null","<img src=""img/food4.png"" style=""width:200px; border:14px solid green;"">","null","","","","","","","","","",""
"","image-keyboard-response","339","221116","0.0-428.0","3G5F9DBFOQJ2ISONZKZSGDEII9MVHP","A17K1CHOI773VZ","32XN26MTXZ5MP383W6LZYTLBY7P0LI","","591.3999999999069","img/food3.png","74","592.9000000001397","1","1","","3","1","1,0.7,0,1,0.7,0,0.7,0,1","0,1,0.7,0,1,0.7,1,0.7,0","3",""
"","html-keyboard-response","340","221419","0.0-429.0","3G5F9DBFOQJ2ISONZKZSGDEII9MVHP","A17K1CHOI773VZ","32XN26MTXZ5MP383W6LZYTLBY7P0LI","","null","<img src=""img/food3.png"" style=""width:200px; border:14px solid green;"">","null","","","","","","","","","",""
"","image-keyboard-response","341","222083","0.0-430.0","3G5F9DBFOQJ2ISONZKZSGDEII9MVHP","A17K1CHOI773VZ","32XN26MTXZ5MP383W6LZYTLBY7P0LI","","662.3999999999069","img/food2.png","75","663.4000000001397","2","1","","2","1","1,0.7,0,1,0.7,0,0.7,0,1","0,1,0.7,0,1,0.7,1,0.7,0","3",""
"","html-keyboard-response","342","222387","0.0-431.0","3G5F9DBFOQJ2ISONZKZSGDEII9MVHP","A17K1CHOI773VZ","32XN26MTXZ5MP383W6LZYTLBY7P0LI","","null","<img src=""img/food2.png"" style=""width:200px; border:14px solid green;"">","null","","","","","","","","","",""
"","image-keyboard-response","343","223619","0.0-432.0","3G5F9DBFOQJ2ISONZKZSGDEII9MVHP","A17K1CHOI773VZ","32XN26MTXZ5MP383W6LZYTLBY7P0LI","","1230.5","img/food3.png","74","1231.4000000001397","1","1","","3","1","1,0.7,0,1,0.7,0,0.7,0,1","0,1,0.7,0,1,0.7,1,0.7,0","3",""
"","html-keyboard-response","344","223923","0.0-433.0","3G5F9DBFOQJ2ISONZKZSGDEII9MVHP","A17K1CHOI773VZ","32XN26MTXZ5MP383W6LZYTLBY7P0LI","","null","<img src=""img/food3.png"" style=""width:200px; border:14px solid green;"">","null","","","","","","","","","",""
"","image-keyboard-response","345","224531","0.0-434.0","3G5F9DBFOQJ2ISONZKZSGDEII9MVHP","A17K1CHOI773VZ","32XN26MTXZ5MP383W6LZYTLBY7P0LI","","606.5","img/food2.png","75","607.6000000000931","2","1","","2","1","1,0.7,0,1,0.7,0,0.7,0,1","0,1,0.7,0,1,0.7,1,0.7,0","3",""
"","html-keyboard-response","346","224835","0.0-435.0","3G5F9DBFOQJ2ISONZKZSGDEII9MVHP","A17K1CHOI773VZ","32XN26MTXZ5MP383W6LZYTLBY7P0LI","","null","<img src=""img/food2.png"" style=""width:200px; border:14px solid green;"">","null","","","","","","","","","",""
"","image-keyboard-response","347","225211","0.0-436.0","3G5F9DBFOQJ2ISONZKZSGDEII9MVHP","A17K1CHOI773VZ","32XN26MTXZ5MP383W6LZYTLBY7P0LI","","374.39999999990687","img/food2.png","75","375.5","2","1","","2","1","1,0.7,0,1,0.7,0,0.7,0,1","0,1,0.7,0,1,0.7,1,0.7,0","3",""
"","html-keyboard-response","348","225515","0.0-437.0","3G5F9DBFOQJ2ISONZKZSGDEII9MVHP","A17K1CHOI773VZ","32XN26MTXZ5MP383W6LZYTLBY7P0LI","","null","<img src=""img/food2.png"" style=""width:200px; border:14px solid green;"">","null","","","","","","","","","",""
"","image-keyboard-response","349","226251","0.0-438.0","3G5F9DBFOQJ2ISONZKZSGDEII9MVHP","A17K1CHOI773VZ","32XN26MTXZ5MP383W6LZYTLBY7P0LI","","734.8000000000466","img/food4.png","76","735.8000000000466","3","0","","1","1","1,0.7,0,1,0.7,0,0.7,0,1","0,1,0.7,0,1,0.7,1,0.7,0","3",""
"","html-keyboard-response","350","226555","0.0-439.0","3G5F9DBFOQJ2ISONZKZSGDEII9MVHP","A17K1CHOI773VZ","32XN26MTXZ5MP383W6LZYTLBY7P0LI","","null","<img src=""img/food4.png"" style=""width:200px;border:14px solid red;"">","null","","","","","","","","","",""
"","image-keyboard-response","351","227531","0.0-440.0","3G5F9DBFOQJ2ISONZKZSGDEII9MVHP","A17K1CHOI773VZ","32XN26MTXZ5MP383W6LZYTLBY7P0LI","","974.5","img/food3.png","74","975.5","1","1","","3","1","1,0.7,0,1,0.7,0,0.7,0,1","0,1,0.7,0,1,0.7,1,0.7,0","3",""
"","html-keyboard-response","352","227835","0.0-441.0","3G5F9DBFOQJ2ISONZKZSGDEII9MVHP","A17K1CHOI773VZ","32XN26MTXZ5MP383W6LZYTLBY7P0LI","","null","<img src=""img/food3.png"" style=""width:200px; border:14px solid green;"">","null","","","","","","","","","",""
"","image-keyboard-response","353","228507","0.0-442.0","3G5F9DBFOQJ2ISONZKZSGDEII9MVHP","A17K1CHOI773VZ","32XN26MTXZ5MP383W6LZYTLBY7P0LI","","670.5","img/food2.png","75","671.3999999999069","2","1","","2","1","1,0.7,0,1,0.7,0,0.7,0,1","0,1,0.7,0,1,0.7,1,0.7,0","3",""
"","html-keyboard-response","354","228812","0.0-443.0","3G5F9DBFOQJ2ISONZKZSGDEII9MVHP","A17K1CHOI773VZ","32XN26MTXZ5MP383W6LZYTLBY7P0LI","","null","<img src=""img/food2.png"" style=""width:200px; border:14px solid green;"">","null","","","","","","","","","",""
"","image-keyboard-response","355","229427","0.0-444.0","3G5F9DBFOQJ2ISONZKZSGDEII9MVHP","A17K1CHOI773VZ","32XN26MTXZ5MP383W6LZYTLBY7P0LI","","614.3999999999069","img/food4.png","76","615.2999999998137","3","1","","1","1","1,0.7,0,1,0.7,0,0.7,0,1","0,1,0.7,0,1,0.7,1,0.7,0","3",""
"","html-keyboard-response","356","229732","0.0-445.0","3G5F9DBFOQJ2ISONZKZSGDEII9MVHP","A17K1CHOI773VZ","32XN26MTXZ5MP383W6LZYTLBY7P0LI","","null","<img src=""img/food4.png"" style=""width:200px; border:14px solid green;"">","null","","","","","","","","","",""
"","image-keyboard-response","357","230283","0.0-446.0","3G5F9DBFOQJ2ISONZKZSGDEII9MVHP","A17K1CHOI773VZ","32XN26MTXZ5MP383W6LZYTLBY7P0LI","","550.5","img/food3.png","74","551.5","1","1","","3","1","1,0.7,0,1,0.7,0,0.7,0,1","0,1,0.7,0,1,0.7,1,0.7,0","3",""
"","html-keyboard-response","358","230588","0.0-447.0","3G5F9DBFOQJ2ISONZKZSGDEII9MVHP","A17K1CHOI773VZ","32XN26MTXZ5MP383W6LZYTLBY7P0LI","","null","<img src=""img/food3.png"" style=""width:200px; border:14px solid green;"">","null","","","","","","","","","",""
"","image-keyboard-response","359","230891","0.0-448.0","3G5F9DBFOQJ2ISONZKZSGDEII9MVHP","A17K1CHOI773VZ","32XN26MTXZ5MP383W6LZYTLBY7P0LI","","302.0999999998603","img/food3.png","74","303.19999999995343","1","1","","3","1","1,0.7,0,1,0.7,0,0.7,0,1","0,1,0.7,0,1,0.7,1,0.7,0","3",""
"","html-keyboard-response","360","231196","0.0-449.0","3G5F9DBFOQJ2ISONZKZSGDEII9MVHP","A17K1CHOI773VZ","32XN26MTXZ5MP383W6LZYTLBY7P0LI","","null","<img src=""img/food3.png"" style=""width:200px; border:14px solid green;"">","null","","","","","","","","","",""
"","image-keyboard-response","361","231771","0.0-450.0","3G5F9DBFOQJ2ISONZKZSGDEII9MVHP","A17K1CHOI773VZ","32XN26MTXZ5MP383W6LZYTLBY7P0LI","","574.1999999999534","img/food2.png","75","575.1999999999534","2","1","","2","1","1,0.7,0,1,0.7,0,0.7,0,1","0,1,0.7,0,1,0.7,1,0.7,0","3",""
"","html-keyboard-response","362","232076","0.0-451.0","3G5F9DBFOQJ2ISONZKZSGDEII9MVHP","A17K1CHOI773VZ","32XN26MTXZ5MP383W6LZYTLBY7P0LI","","null","<img src=""img/food2.png"" style=""width:200px; border:14px solid green;"">","null","","","","","","","","","",""
"","image-keyboard-response","363","232451","0.0-452.0","3G5F9DBFOQJ2ISONZKZSGDEII9MVHP","A17K1CHOI773VZ","32XN26MTXZ5MP383W6LZYTLBY7P0LI","","374.30000000004657","img/food3.png","75","375.29999999981374","2","1","","3","1","1,0.7,0,1,0.7,0,0.7,0,1","0,1,0.7,0,1,0.7,1,0.7,0","3",""
"","html-keyboard-response","364","232756","0.0-453.0","3G5F9DBFOQJ2ISONZKZSGDEII9MVHP","A17K1CHOI773VZ","32XN26MTXZ5MP383W6LZYTLBY7P0LI","","null","<img src=""img/food3.png"" style=""width:200px; border:14px solid green;"">","null","","","","","","","","","",""
"","html-keyboard-response","365","401033","0.0-454.0","3G5F9DBFOQJ2ISONZKZSGDEII9MVHP","A17K1CHOI773VZ","32XN26MTXZ5MP383W6LZYTLBY7P0LI","","","","","","","","","","","","","",""
"","instructions","366","404953","0.0-455.0","3G5F9DBFOQJ2ISONZKZSGDEII9MVHP","A17K1CHOI773VZ","32XN26MTXZ5MP383W6LZYTLBY7P0LI","[{""page_index"":0,""viewing_time"":3918}]","3918.2999999998137","","","","","","","","","","","",""
"","survey-text","367","409834","0.0-456.0","3G5F9DBFOQJ2ISONZKZSGDEII9MVHP","A17K1CHOI773VZ","32XN26MTXZ5MP383W6LZYTLBY7P0LI","","4878.100000000093","","","","","","","","","","","","{""Q0"":""A17K1CHOI773VZ""}"
