"success","trial_type","trial_index","time_elapsed","internal_node_id","assignmentID","mturkID","hitID","view_history","rt","stimulus","key_press","reactionTime","a","r","s","cond","reward_cond","reward_cond_actual","reward_matrix_idx","warning","responses"
"true","fullscreen","0","6996","0.0-0.0","32N49TQG3H4N85G9TEP0ZRRE6BHVAU","A18WSAKX5YN2FB","3566S7OX5D5NH74JOVOPTTMK8IR17K","","","","","","","","","","","","","",""
"","instructions","1","17024","0.0-1.0","32N49TQG3H4N85G9TEP0ZRRE6BHVAU","A18WSAKX5YN2FB","3566S7OX5D5NH74JOVOPTTMK8IR17K","[{""page_index"":0,""viewing_time"":1960.300000000745},{""page_index"":1,""viewing_time"":1645.5999999996275},{""page_index"":2,""viewing_time"":1303.7000000001863},{""page_index"":3,""viewing_time"":1392.7999999998137},{""page_index"":4,""viewing_time"":1302.0999999996275},{""page_index"":5,""viewing_time"":1112.7000000001863},{""page_index"":6,""viewing_time"":1297}]","10018.100000000559","","","","","","","","","","","",""
"","image-keyboard-response","2","18414","0.0-2.0","32N49TQG3H4N85G9TEP0ZRRE6BHVAU","A18WSAKX5YN2FB","3566S7OX5D5NH74JOVOPTTMK8IR17K","","1380","img/food2.png","74","1387.699999999255","1","1","2","1","1,0.5,0,1,0.5,0,0.5,0,1","1,0.5,0,1,0.5,0,0.5,0,1","1","",""
"","html-keyboard-response","3","18724","0.0-3.0","32N49TQG3H4N85G9TEP0ZRRE6BHVAU","A18WSAKX5YN2FB","3566S7OX5D5NH74JOVOPTTMK8IR17K","","null","<img src=""img/food2.png"" style=""width:200px; border:14px solid green;"">","null","","","","","","","","","",""
"","image-keyboard-response","4","19942","0.0-4.0","32N49TQG3H4N85G9TEP0ZRRE6BHVAU","A18WSAKX5YN2FB","3566S7OX5D5NH74JOVOPTTMK8IR17K","","1212.199999999255","img/food5.png","75","1216.5","2","1","1","1","1,0.5,0,1,0.5,0,0.5,0,1","1,0.5,0,1,0.5,0,0.5,0,1","1","",""
"","html-keyboard-response","5","20251","0.0-5.0","32N49TQG3H4N85G9TEP0ZRRE6BHVAU","A18WSAKX5YN2FB","3566S7OX5D5NH74JOVOPTTMK8IR17K","","null","<img src=""img/food5.png"" style=""width:200px; border:14px solid green;"">","null","","","","","","","","","",""
"","image-keyboard-response","6","20874","0.0-6.0","32N49TQG3H4N85G9TEP0ZRRE6BHVAU","A18WSAKX5YN2FB","3566S7OX5D5NH74JOVOPTTMK8IR17K","","615","img/food4.png","76","621.1999999992549","3","1","3","1","1,0.5,0,1,0.5,0,0.5,0,1","1,0.5,0,1,0.5,0,0.5,0,1","1","",""
"","html-keyboard-response","7","21182","0.0-7.0","32N49TQG3H4N85G9TEP0ZRRE6BHVAU","A18WSAKX5YN2FB","3566S7OX5D5NH74JOVOPTTMK8IR17K","","null","<img src=""img/food4.png"" style=""width:200px; border:14px solid green;"">","null","","","","","","","","","",""
"","image-keyboard-response","8","21990","0.0-8.0","32N49TQG3H4N85G9TEP0ZRRE6BHVAU","A18WSAKX5YN2FB","3566S7OX5D5NH74JOVOPTTMK8IR17K","","801.0999999996275","img/food5.png","75","806","2","1","1","1","1,0.5,0,1,0.5,0,0.5,0,1","1,0.5,0,1,0.5,0,0.5,0,1","1","",""
"","html-keyboard-response","9","22299","0.0-9.0","32N49TQG3H4N85G9TEP0ZRRE6BHVAU","A18WSAKX5YN2FB","3566S7OX5D5NH74JOVOPTTMK8IR17K","","null","<img src=""img/food5.png"" style=""width:200px; border:14px solid green;"">","null","","","","","","","","","",""
"","image-keyboard-response","10","22701","0.0-10.0","32N49TQG3H4N85G9TEP0ZRRE6BHVAU","A18WSAKX5YN2FB","3566S7OX5D5NH74JOVOPTTMK8IR17K","","391.90000000037253","img/food5.png","75","400.29999999981374","2","0","1","1","1,0.5,0,1,0.5,0,0.5,0,1","1,0.5,0,1,0.5,0,0.5,0,1","1","",""
"","html-keyboard-response","11","23011","0.0-11.0","32N49TQG3H4N85G9TEP0ZRRE6BHVAU","A18WSAKX5YN2FB","3566S7OX5D5NH74JOVOPTTMK8IR17K","","null","<img src=""img/food5.png"" style=""width:200px;border:14px solid red;"">","null","","","","","","","","","",""
"","image-keyboard-response","12","23458","0.0-12.0","32N49TQG3H4N85G9TEP0ZRRE6BHVAU","A18WSAKX5YN2FB","3566S7OX5D5NH74JOVOPTTMK8IR17K","","436.70000000018626","img/food5.png","75","445","2","0","1","1","1,0.5,0,1,0.5,0,0.5,0,1","1,0.5,0,1,0.5,0,0.5,0,1","1","",""
"","html-keyboard-response","13","23766","0.0-13.0","32N49TQG3H4N85G9TEP0ZRRE6BHVAU","A18WSAKX5YN2FB","3566S7OX5D5NH74JOVOPTTMK8IR17K","","null","<img src=""img/food5.png"" style=""width:200px;border:14px solid red;"">","null","","","","","","","","","",""
"","image-keyboard-response","14","24764","0.0-14.0","32N49TQG3H4N85G9TEP0ZRRE6BHVAU","A18WSAKX5YN2FB","3566S7OX5D5NH74JOVOPTTMK8IR17K","","990.8999999994412","img/food2.png","74","996.4000000003725","1","1","2","1","1,0.5,0,1,0.5,0,0.5,0,1","1,0.5,0,1,0.5,0,0.5,0,1","1","",""
"","html-keyboard-response","15","25073","0.0-15.0","32N49TQG3H4N85G9TEP0ZRRE6BHVAU","A18WSAKX5YN2FB","3566S7OX5D5NH74JOVOPTTMK8IR17K","","null","<img src=""img/food2.png"" style=""width:200px; border:14px solid green;"">","null","","","","","","","","","",""
"","image-keyboard-response","16","25481","0.0-16.0","32N49TQG3H4N85G9TEP0ZRRE6BHVAU","A18WSAKX5YN2FB","3566S7OX5D5NH74JOVOPTTMK8IR17K","","399.5","img/food2.png","74","406.40000000037253","1","1","2","1","1,0.5,0,1,0.5,0,0.5,0,1","1,0.5,0,1,0.5,0,0.5,0,1","1","",""
"","html-keyboard-response","17","25789","0.0-17.0","32N49TQG3H4N85G9TEP0ZRRE6BHVAU","A18WSAKX5YN2FB","3566S7OX5D5NH74JOVOPTTMK8IR17K","","null","<img src=""img/food2.png"" style=""width:200px; border:14px solid green;"">","null","","","","","","","","","",""
"","image-keyboard-response","18","26607","0.0-18.0","32N49TQG3H4N85G9TEP0ZRRE6BHVAU","A18WSAKX5YN2FB","3566S7OX5D5NH74JOVOPTTMK8IR17K","","809.9000000003725","img/food4.png","76","815.4000000003725","3","1","3","1","1,0.5,0,1,0.5,0,0.5,0,1","1,0.5,0,1,0.5,0,0.5,0,1","1","",""
"","html-keyboard-response","19","26912","0.0-19.0","32N49TQG3H4N85G9TEP0ZRRE6BHVAU","A18WSAKX5YN2FB","3566S7OX5D5NH74JOVOPTTMK8IR17K","","null","<img src=""img/food4.png"" style=""width:200px; border:14px solid green;"">","null","","","","","","","","","",""
"","image-keyboard-response","20","27966","0.0-20.0","32N49TQG3H4N85G9TEP0ZRRE6BHVAU","A18WSAKX5YN2FB","3566S7OX5D5NH74JOVOPTTMK8IR17K","","1047.8999999994412","img/food5.png","75","1052.5","2","1","1","1","1,0.5,0,1,0.5,0,0.5,0,1","1,0.5,0,1,0.5,0,0.5,0,1","1","",""
"","html-keyboard-response","21","28275","0.0-21.0","32N49TQG3H4N85G9TEP0ZRRE6BHVAU","A18WSAKX5YN2FB","3566S7OX5D5NH74JOVOPTTMK8IR17K","","null","<img src=""img/food5.png"" style=""width:200px; border:14px solid green;"">","null","","","","","","","","","",""
"","image-keyboard-response","22","29379","0.0-22.0","32N49TQG3H4N85G9TEP0ZRRE6BHVAU","A18WSAKX5YN2FB","3566S7OX5D5NH74JOVOPTTMK8IR17K","","1096.6000000005588","img/food2.png","74","1102.2000000001863","1","1","2","1","1,0.5,0,1,0.5,0,0.5,0,1","1,0.5,0,1,0.5,0,0.5,0,1","1","",""
"","html-keyboard-response","23","29688","0.0-23.0","32N49TQG3H4N85G9TEP0ZRRE6BHVAU","A18WSAKX5YN2FB","3566S7OX5D5NH74JOVOPTTMK8IR17K","","null","<img src=""img/food2.png"" style=""width:200px; border:14px solid green;"">","null","","","","","","","","","",""
"","image-keyboard-response","24","30095","0.0-24.0","32N49TQG3H4N85G9TEP0ZRRE6BHVAU","A18WSAKX5YN2FB","3566S7OX5D5NH74JOVOPTTMK8IR17K","","398.79999999981374","img/food2.png","74","405","1","1","2","1","1,0.5,0,1,0.5,0,0.5,0,1","1,0.5,0,1,0.5,0,0.5,0,1","1","",""
"","html-keyboard-response","25","30401","0.0-25.0","32N49TQG3H4N85G9TEP0ZRRE6BHVAU","A18WSAKX5YN2FB","3566S7OX5D5NH74JOVOPTTMK8IR17K","","null","<img src=""img/food2.png"" style=""width:200px; border:14px solid green;"">","null","","","","","","","","","",""
"","image-keyboard-response","26","30776","0.0-26.0","32N49TQG3H4N85G9TEP0ZRRE6BHVAU","A18WSAKX5YN2FB","3566S7OX5D5NH74JOVOPTTMK8IR17K","","369.6000000005588","img/food2.png","74","375.09999999962747","1","1","2","1","1,0.5,0,1,0.5,0,0.5,0,1","1,0.5,0,1,0.5,0,0.5,0,1","1","",""
"","html-keyboard-response","27","31084","0.0-27.0","32N49TQG3H4N85G9TEP0ZRRE6BHVAU","A18WSAKX5YN2FB","3566S7OX5D5NH74JOVOPTTMK8IR17K","","null","<img src=""img/food2.png"" style=""width:200px; border:14px solid green;"">","null","","","","","","","","","",""
"","image-keyboard-response","28","31851","0.0-28.0","32N49TQG3H4N85G9TEP0ZRRE6BHVAU","A18WSAKX5YN2FB","3566S7OX5D5NH74JOVOPTTMK8IR17K","","760.7999999998137","img/food5.png","75","765.5","2","0","1","1","1,0.5,0,1,0.5,0,0.5,0,1","1,0.5,0,1,0.5,0,0.5,0,1","1","",""
"","html-keyboard-response","29","32158","0.0-29.0","32N49TQG3H4N85G9TEP0ZRRE6BHVAU","A18WSAKX5YN2FB","3566S7OX5D5NH74JOVOPTTMK8IR17K","","null","<img src=""img/food5.png"" style=""width:200px;border:14px solid red;"">","null","","","","","","","","","",""
"","image-keyboard-response","30","32816","0.0-30.0","32N49TQG3H4N85G9TEP0ZRRE6BHVAU","A18WSAKX5YN2FB","3566S7OX5D5NH74JOVOPTTMK8IR17K","","651.7999999998137","img/food2.png","74","656.7999999998137","1","1","2","1","1,0.5,0,1,0.5,0,0.5,0,1","1,0.5,0,1,0.5,0,0.5,0,1","1","",""
"","html-keyboard-response","31","33123","0.0-31.0","32N49TQG3H4N85G9TEP0ZRRE6BHVAU","A18WSAKX5YN2FB","3566S7OX5D5NH74JOVOPTTMK8IR17K","","null","<img src=""img/food2.png"" style=""width:200px; border:14px solid green;"">","null","","","","","","","","","",""
"","image-keyboard-response","32","33817","0.0-32.0","32N49TQG3H4N85G9TEP0ZRRE6BHVAU","A18WSAKX5YN2FB","3566S7OX5D5NH74JOVOPTTMK8IR17K","","688.0999999996275","img/food4.png","76","693.4000000003725","3","1","3","1","1,0.5,0,1,0.5,0,0.5,0,1","1,0.5,0,1,0.5,0,0.5,0,1","1","",""
"","html-keyboard-response","33","34123","0.0-33.0","32N49TQG3H4N85G9TEP0ZRRE6BHVAU","A18WSAKX5YN2FB","3566S7OX5D5NH74JOVOPTTMK8IR17K","","null","<img src=""img/food4.png"" style=""width:200px; border:14px solid green;"">","null","","","","","","","","","",""
"","image-keyboard-response","34","35536","0.0-34.0","32N49TQG3H4N85G9TEP0ZRRE6BHVAU","A18WSAKX5YN2FB","3566S7OX5D5NH74JOVOPTTMK8IR17K","","1406.4000000003725","img/food5.png","75","1413","2","0","1","1","1,0.5,0,1,0.5,0,0.5,0,1","1,0.5,0,1,0.5,0,0.5,0,1","1","",""
"","html-keyboard-response","35","35843","0.0-35.0","32N49TQG3H4N85G9TEP0ZRRE6BHVAU","A18WSAKX5YN2FB","3566S7OX5D5NH74JOVOPTTMK8IR17K","","null","<img src=""img/food5.png"" style=""width:200px;border:14px solid red;"">","null","","","","","","","","","",""
"","image-keyboard-response","36","36451","0.0-36.0","32N49TQG3H4N85G9TEP0ZRRE6BHVAU","A18WSAKX5YN2FB","3566S7OX5D5NH74JOVOPTTMK8IR17K","","599.7000000001863","img/food2.png","74","606.7000000001863","1","1","2","1","1,0.5,0,1,0.5,0,0.5,0,1","1,0.5,0,1,0.5,0,0.5,0,1","1","",""
"","html-keyboard-response","37","36759","0.0-37.0","32N49TQG3H4N85G9TEP0ZRRE6BHVAU","A18WSAKX5YN2FB","3566S7OX5D5NH74JOVOPTTMK8IR17K","","null","<img src=""img/food2.png"" style=""width:200px; border:14px solid green;"">","null","","","","","","","","","",""
"","image-keyboard-response","38","37476","0.0-38.0","32N49TQG3H4N85G9TEP0ZRRE6BHVAU","A18WSAKX5YN2FB","3566S7OX5D5NH74JOVOPTTMK8IR17K","","707.2999999998137","img/food4.png","76","715.2000000001863","3","1","3","1","1,0.5,0,1,0.5,0,0.5,0,1","1,0.5,0,1,0.5,0,0.5,0,1","1","",""
"","html-keyboard-response","39","37783","0.0-39.0","32N49TQG3H4N85G9TEP0ZRRE6BHVAU","A18WSAKX5YN2FB","3566S7OX5D5NH74JOVOPTTMK8IR17K","","null","<img src=""img/food4.png"" style=""width:200px; border:14px solid green;"">","null","","","","","","","","","",""
"","image-keyboard-response","40","38310","0.0-40.0","32N49TQG3H4N85G9TEP0ZRRE6BHVAU","A18WSAKX5YN2FB","3566S7OX5D5NH74JOVOPTTMK8IR17K","","521.5999999996275","img/food5.png","76","526.2000000001863","3","0","1","1","1,0.5,0,1,0.5,0,0.5,0,1","1,0.5,0,1,0.5,0,0.5,0,1","1","",""
"","html-keyboard-response","41","38615","0.0-41.0","32N49TQG3H4N85G9TEP0ZRRE6BHVAU","A18WSAKX5YN2FB","3566S7OX5D5NH74JOVOPTTMK8IR17K","","null","<img src=""img/food5.png"" style=""width:200px;border:14px solid red;"">","null","","","","","","","","","",""
"","image-keyboard-response","42","39253","0.0-42.0","32N49TQG3H4N85G9TEP0ZRRE6BHVAU","A18WSAKX5YN2FB","3566S7OX5D5NH74JOVOPTTMK8IR17K","","631.7000000001863","img/food4.png","76","638.5","3","1","3","1","1,0.5,0,1,0.5,0,0.5,0,1","1,0.5,0,1,0.5,0,0.5,0,1","1","",""
"","html-keyboard-response","43","39562","0.0-43.0","32N49TQG3H4N85G9TEP0ZRRE6BHVAU","A18WSAKX5YN2FB","3566S7OX5D5NH74JOVOPTTMK8IR17K","","null","<img src=""img/food4.png"" style=""width:200px; border:14px solid green;"">","null","","","","","","","","","",""
"","image-keyboard-response","44","40433","0.0-44.0","32N49TQG3H4N85G9TEP0ZRRE6BHVAU","A18WSAKX5YN2FB","3566S7OX5D5NH74JOVOPTTMK8IR17K","","863.5","img/food5.png","75","870.2999999998137","2","1","1","1","1,0.5,0,1,0.5,0,0.5,0,1","1,0.5,0,1,0.5,0,0.5,0,1","1","",""
"","html-keyboard-response","45","40742","0.0-45.0","32N49TQG3H4N85G9TEP0ZRRE6BHVAU","A18WSAKX5YN2FB","3566S7OX5D5NH74JOVOPTTMK8IR17K","","null","<img src=""img/food5.png"" style=""width:200px; border:14px solid green;"">","null","","","","","","","","","",""
"","image-keyboard-response","46","41502","0.0-46.0","32N49TQG3H4N85G9TEP0ZRRE6BHVAU","A18WSAKX5YN2FB","3566S7OX5D5NH74JOVOPTTMK8IR17K","","754.2999999998137","img/food2.png","74","758.7000000001863","1","1","2","1","1,0.5,0,1,0.5,0,0.5,0,1","1,0.5,0,1,0.5,0,0.5,0,1","1","",""
"","html-keyboard-response","47","41810","0.0-47.0","32N49TQG3H4N85G9TEP0ZRRE6BHVAU","A18WSAKX5YN2FB","3566S7OX5D5NH74JOVOPTTMK8IR17K","","null","<img src=""img/food2.png"" style=""width:200px; border:14px solid green;"">","null","","","","","","","","","",""
"","image-keyboard-response","48","42198","0.0-48.0","32N49TQG3H4N85G9TEP0ZRRE6BHVAU","A18WSAKX5YN2FB","3566S7OX5D5NH74JOVOPTTMK8IR17K","","378.59999999962747","img/food2.png","74","386.3999999994412","1","1","2","1","1,0.5,0,1,0.5,0,0.5,0,1","1,0.5,0,1,0.5,0,0.5,0,1","1","",""
"","html-keyboard-response","49","42505","0.0-49.0","32N49TQG3H4N85G9TEP0ZRRE6BHVAU","A18WSAKX5YN2FB","3566S7OX5D5NH74JOVOPTTMK8IR17K","","null","<img src=""img/food2.png"" style=""width:200px; border:14px solid green;"">","null","","","","","","","","","",""
"","image-keyboard-response","50","42831","0.0-50.0","32N49TQG3H4N85G9TEP0ZRRE6BHVAU","A18WSAKX5YN2FB","3566S7OX5D5NH74JOVOPTTMK8IR17K","","319.1000000005588","img/food2.png","74","324.29999999981374","1","1","2","1","1,0.5,0,1,0.5,0,0.5,0,1","1,0.5,0,1,0.5,0,0.5,0,1","1","",""
"","html-keyboard-response","51","43136","0.0-51.0","32N49TQG3H4N85G9TEP0ZRRE6BHVAU","A18WSAKX5YN2FB","3566S7OX5D5NH74JOVOPTTMK8IR17K","","null","<img src=""img/food2.png"" style=""width:200px; border:14px solid green;"">","null","","","","","","","","","",""
"","image-keyboard-response","52","43486","0.0-52.0","32N49TQG3H4N85G9TEP0ZRRE6BHVAU","A18WSAKX5YN2FB","3566S7OX5D5NH74JOVOPTTMK8IR17K","","339.90000000037253","img/food2.png","74","347.29999999981374","1","1","2","1","1,0.5,0,1,0.5,0,0.5,0,1","1,0.5,0,1,0.5,0,0.5,0,1","1","",""
"","html-keyboard-response","53","43791","0.0-53.0","32N49TQG3H4N85G9TEP0ZRRE6BHVAU","A18WSAKX5YN2FB","3566S7OX5D5NH74JOVOPTTMK8IR17K","","null","<img src=""img/food2.png"" style=""width:200px; border:14px solid green;"">","null","","","","","","","","","",""
"","image-keyboard-response","54","44119","0.0-54.0","32N49TQG3H4N85G9TEP0ZRRE6BHVAU","A18WSAKX5YN2FB","3566S7OX5D5NH74JOVOPTTMK8IR17K","","320.3999999994412","img/food2.png","74","325.5","1","1","2","1","1,0.5,0,1,0.5,0,0.5,0,1","1,0.5,0,1,0.5,0,0.5,0,1","1","",""
"","html-keyboard-response","55","44426","0.0-55.0","32N49TQG3H4N85G9TEP0ZRRE6BHVAU","A18WSAKX5YN2FB","3566S7OX5D5NH74JOVOPTTMK8IR17K","","null","<img src=""img/food2.png"" style=""width:200px; border:14px solid green;"">","null","","","","","","","","","",""
"","image-keyboard-response","56","44710","0.0-56.0","32N49TQG3H4N85G9TEP0ZRRE6BHVAU","A18WSAKX5YN2FB","3566S7OX5D5NH74JOVOPTTMK8IR17K","","279.40000000037253","img/food2.png","74","283.70000000018626","1","1","2","1","1,0.5,0,1,0.5,0,0.5,0,1","1,0.5,0,1,0.5,0,0.5,0,1","1","",""
"","html-keyboard-response","57","45018","0.0-57.0","32N49TQG3H4N85G9TEP0ZRRE6BHVAU","A18WSAKX5YN2FB","3566S7OX5D5NH74JOVOPTTMK8IR17K","","null","<img src=""img/food2.png"" style=""width:200px; border:14px solid green;"">","null","","","","","","","","","",""
"","image-keyboard-response","58","45726","0.0-58.0","32N49TQG3H4N85G9TEP0ZRRE6BHVAU","A18WSAKX5YN2FB","3566S7OX5D5NH74JOVOPTTMK8IR17K","","703.2000000001863","img/food5.png","75","709.0999999996275","2","1","1","1","1,0.5,0,1,0.5,0,0.5,0,1","1,0.5,0,1,0.5,0,0.5,0,1","1","",""
"","html-keyboard-response","59","46037","0.0-59.0","32N49TQG3H4N85G9TEP0ZRRE6BHVAU","A18WSAKX5YN2FB","3566S7OX5D5NH74JOVOPTTMK8IR17K","","null","<img src=""img/food5.png"" style=""width:200px; border:14px solid green;"">","null","","","","","","","","","",""
"","image-keyboard-response","60","46599","0.0-60.0","32N49TQG3H4N85G9TEP0ZRRE6BHVAU","A18WSAKX5YN2FB","3566S7OX5D5NH74JOVOPTTMK8IR17K","","554.5","img/food4.png","76","560.2000000001863","3","1","3","1","1,0.5,0,1,0.5,0,0.5,0,1","1,0.5,0,1,0.5,0,0.5,0,1","1","",""
"","html-keyboard-response","61","46905","0.0-61.0","32N49TQG3H4N85G9TEP0ZRRE6BHVAU","A18WSAKX5YN2FB","3566S7OX5D5NH74JOVOPTTMK8IR17K","","null","<img src=""img/food4.png"" style=""width:200px; border:14px solid green;"">","null","","","","","","","","","",""
"","image-keyboard-response","62","47263","0.0-62.0","32N49TQG3H4N85G9TEP0ZRRE6BHVAU","A18WSAKX5YN2FB","3566S7OX5D5NH74JOVOPTTMK8IR17K","","351.30000000074506","img/food4.png","76","355.3999999994412","3","1","3","1","1,0.5,0,1,0.5,0,0.5,0,1","1,0.5,0,1,0.5,0,0.5,0,1","1","",""
"","html-keyboard-response","63","47569","0.0-63.0","32N49TQG3H4N85G9TEP0ZRRE6BHVAU","A18WSAKX5YN2FB","3566S7OX5D5NH74JOVOPTTMK8IR17K","","null","<img src=""img/food4.png"" style=""width:200px; border:14px solid green;"">","null","","","","","","","","","",""
"","image-keyboard-response","64","47887","0.0-64.0","32N49TQG3H4N85G9TEP0ZRRE6BHVAU","A18WSAKX5YN2FB","3566S7OX5D5NH74JOVOPTTMK8IR17K","","310.59999999962747","img/food4.png","76","316.5","3","1","3","1","1,0.5,0,1,0.5,0,0.5,0,1","1,0.5,0,1,0.5,0,0.5,0,1","1","",""
"","html-keyboard-response","65","48195","0.0-65.0","32N49TQG3H4N85G9TEP0ZRRE6BHVAU","A18WSAKX5YN2FB","3566S7OX5D5NH74JOVOPTTMK8IR17K","","null","<img src=""img/food4.png"" style=""width:200px; border:14px solid green;"">","null","","","","","","","","","",""
"","image-keyboard-response","66","48531","0.0-66.0","32N49TQG3H4N85G9TEP0ZRRE6BHVAU","A18WSAKX5YN2FB","3566S7OX5D5NH74JOVOPTTMK8IR17K","","328.70000000018626","img/food4.png","76","333.79999999981374","3","1","3","1","1,0.5,0,1,0.5,0,0.5,0,1","1,0.5,0,1,0.5,0,0.5,0,1","1","",""
"","html-keyboard-response","67","48839","0.0-67.0","32N49TQG3H4N85G9TEP0ZRRE6BHVAU","A18WSAKX5YN2FB","3566S7OX5D5NH74JOVOPTTMK8IR17K","","null","<img src=""img/food4.png"" style=""width:200px; border:14px solid green;"">","null","","","","","","","","","",""
"","image-keyboard-response","68","49154","0.0-68.0","32N49TQG3H4N85G9TEP0ZRRE6BHVAU","A18WSAKX5YN2FB","3566S7OX5D5NH74JOVOPTTMK8IR17K","","310.20000000018626","img/food4.png","76","314.19999999925494","3","1","3","1","1,0.5,0,1,0.5,0,0.5,0,1","1,0.5,0,1,0.5,0,0.5,0,1","1","",""
"","html-keyboard-response","69","49462","0.0-69.0","32N49TQG3H4N85G9TEP0ZRRE6BHVAU","A18WSAKX5YN2FB","3566S7OX5D5NH74JOVOPTTMK8IR17K","","null","<img src=""img/food4.png"" style=""width:200px; border:14px solid green;"">","null","","","","","","","","","",""
"","image-keyboard-response","70","50088","0.0-70.0","32N49TQG3H4N85G9TEP0ZRRE6BHVAU","A18WSAKX5YN2FB","3566S7OX5D5NH74JOVOPTTMK8IR17K","","618.6999999992549","img/food5.png","75","624","2","1","1","1","1,0.5,0,1,0.5,0,0.5,0,1","1,0.5,0,1,0.5,0,0.5,0,1","1","",""
"","html-keyboard-response","71","50393","0.0-71.0","32N49TQG3H4N85G9TEP0ZRRE6BHVAU","A18WSAKX5YN2FB","3566S7OX5D5NH74JOVOPTTMK8IR17K","","null","<img src=""img/food5.png"" style=""width:200px; border:14px solid green;"">","null","","","","","","","","","",""
"","image-keyboard-response","72","50832","0.0-72.0","32N49TQG3H4N85G9TEP0ZRRE6BHVAU","A18WSAKX5YN2FB","3566S7OX5D5NH74JOVOPTTMK8IR17K","","431.5","img/food5.png","75","435.8999999994412","2","1","1","1","1,0.5,0,1,0.5,0,0.5,0,1","1,0.5,0,1,0.5,0,0.5,0,1","1","",""
"","html-keyboard-response","73","51136","0.0-73.0","32N49TQG3H4N85G9TEP0ZRRE6BHVAU","A18WSAKX5YN2FB","3566S7OX5D5NH74JOVOPTTMK8IR17K","","null","<img src=""img/food5.png"" style=""width:200px; border:14px solid green;"">","null","","","","","","","","","",""
"","image-keyboard-response","74","51743","0.0-74.0","32N49TQG3H4N85G9TEP0ZRRE6BHVAU","A18WSAKX5YN2FB","3566S7OX5D5NH74JOVOPTTMK8IR17K","","599.0999999996275","img/food2.png","74","605.0999999996275","1","1","2","1","1,0.5,0,1,0.5,0,0.5,0,1","1,0.5,0,1,0.5,0,0.5,0,1","1","",""
"","html-keyboard-response","75","52051","0.0-75.0","32N49TQG3H4N85G9TEP0ZRRE6BHVAU","A18WSAKX5YN2FB","3566S7OX5D5NH74JOVOPTTMK8IR17K","","null","<img src=""img/food2.png"" style=""width:200px; border:14px solid green;"">","null","","","","","","","","","",""
"","image-keyboard-response","76","52437","0.0-76.0","32N49TQG3H4N85G9TEP0ZRRE6BHVAU","A18WSAKX5YN2FB","3566S7OX5D5NH74JOVOPTTMK8IR17K","","379.59999999962747","img/food2.png","74","384.29999999981374","1","1","2","1","1,0.5,0,1,0.5,0,0.5,0,1","1,0.5,0,1,0.5,0,0.5,0,1","1","",""
"","html-keyboard-response","77","52745","0.0-77.0","32N49TQG3H4N85G9TEP0ZRRE6BHVAU","A18WSAKX5YN2FB","3566S7OX5D5NH74JOVOPTTMK8IR17K","","null","<img src=""img/food2.png"" style=""width:200px; border:14px solid green;"">","null","","","","","","","","","",""
"","image-keyboard-response","78","53312","0.0-78.0","32N49TQG3H4N85G9TEP0ZRRE6BHVAU","A18WSAKX5YN2FB","3566S7OX5D5NH74JOVOPTTMK8IR17K","","560.5","img/food5.png","75","565.7000000001863","2","0","1","1","1,0.5,0,1,0.5,0,0.5,0,1","1,0.5,0,1,0.5,0,0.5,0,1","1","",""
"","html-keyboard-response","79","53620","0.0-79.0","32N49TQG3H4N85G9TEP0ZRRE6BHVAU","A18WSAKX5YN2FB","3566S7OX5D5NH74JOVOPTTMK8IR17K","","null","<img src=""img/food5.png"" style=""width:200px;border:14px solid red;"">","null","","","","","","","","","",""
"","image-keyboard-response","80","54227","0.0-80.0","32N49TQG3H4N85G9TEP0ZRRE6BHVAU","A18WSAKX5YN2FB","3566S7OX5D5NH74JOVOPTTMK8IR17K","","600","img/food4.png","76","606","3","1","3","1","1,0.5,0,1,0.5,0,0.5,0,1","1,0.5,0,1,0.5,0,0.5,0,1","1","",""
"","html-keyboard-response","81","54532","0.0-81.0","32N49TQG3H4N85G9TEP0ZRRE6BHVAU","A18WSAKX5YN2FB","3566S7OX5D5NH74JOVOPTTMK8IR17K","","null","<img src=""img/food4.png"" style=""width:200px; border:14px solid green;"">","null","","","","","","","","","",""
"","image-keyboard-response","82","55731","0.0-82.0","32N49TQG3H4N85G9TEP0ZRRE6BHVAU","A18WSAKX5YN2FB","3566S7OX5D5NH74JOVOPTTMK8IR17K","","1191.8999999994412","img/food5.png","74","1196.7000000001863","1","1","1","1","1,0.5,0,1,0.5,0,0.5,0,1","1,0.5,0,1,0.5,0,0.5,0,1","1","",""
"","html-keyboard-response","83","56038","0.0-83.0","32N49TQG3H4N85G9TEP0ZRRE6BHVAU","A18WSAKX5YN2FB","3566S7OX5D5NH74JOVOPTTMK8IR17K","","null","<img src=""img/food5.png"" style=""width:200px; border:14px solid green;"">","null","","","","","","","","","",""
"","image-keyboard-response","84","56466","0.0-84.0","32N49TQG3H4N85G9TEP0ZRRE6BHVAU","A18WSAKX5YN2FB","3566S7OX5D5NH74JOVOPTTMK8IR17K","","417.20000000018626","img/food5.png","74","424.90000000037253","1","1","1","1","1,0.5,0,1,0.5,0,0.5,0,1","1,0.5,0,1,0.5,0,0.5,0,1","1","",""
"","html-keyboard-response","85","56771","0.0-85.0","32N49TQG3H4N85G9TEP0ZRRE6BHVAU","A18WSAKX5YN2FB","3566S7OX5D5NH74JOVOPTTMK8IR17K","","null","<img src=""img/food5.png"" style=""width:200px; border:14px solid green;"">","null","","","","","","","","","",""
"","image-keyboard-response","86","57451","0.0-86.0","32N49TQG3H4N85G9TEP0ZRRE6BHVAU","A18WSAKX5YN2FB","3566S7OX5D5NH74JOVOPTTMK8IR17K","","672.7999999998137","img/food4.png","76","677.5","3","1","3","1","1,0.5,0,1,0.5,0,0.5,0,1","1,0.5,0,1,0.5,0,0.5,0,1","1","",""
"","html-keyboard-response","87","57756","0.0-87.0","32N49TQG3H4N85G9TEP0ZRRE6BHVAU","A18WSAKX5YN2FB","3566S7OX5D5NH74JOVOPTTMK8IR17K","","null","<img src=""img/food4.png"" style=""width:200px; border:14px solid green;"">","null","","","","","","","","","",""
"","image-keyboard-response","88","58548","0.0-88.0","32N49TQG3H4N85G9TEP0ZRRE6BHVAU","A18WSAKX5YN2FB","3566S7OX5D5NH74JOVOPTTMK8IR17K","","787.1000000005588","img/food5.png","75","790.8999999994412","2","0","1","1","1,0.5,0,1,0.5,0,0.5,0,1","1,0.5,0,1,0.5,0,0.5,0,1","1","",""
"","html-keyboard-response","89","58854","0.0-89.0","32N49TQG3H4N85G9TEP0ZRRE6BHVAU","A18WSAKX5YN2FB","3566S7OX5D5NH74JOVOPTTMK8IR17K","","null","<img src=""img/food5.png"" style=""width:200px;border:14px solid red;"">","null","","","","","","","","","",""
"","image-keyboard-response","90","59385","0.0-90.0","32N49TQG3H4N85G9TEP0ZRRE6BHVAU","A18WSAKX5YN2FB","3566S7OX5D5NH74JOVOPTTMK8IR17K","","524.1999999992549","img/food5.png","74","530.1999999992549","1","1","1","1","1,0.5,0,1,0.5,0,0.5,0,1","1,0.5,0,1,0.5,0,0.5,0,1","1","",""
"","html-keyboard-response","91","59692","0.0-91.0","32N49TQG3H4N85G9TEP0ZRRE6BHVAU","A18WSAKX5YN2FB","3566S7OX5D5NH74JOVOPTTMK8IR17K","","null","<img src=""img/food5.png"" style=""width:200px; border:14px solid green;"">","null","","","","","","","","","",""
"","image-keyboard-response","92","60265","0.0-92.0","32N49TQG3H4N85G9TEP0ZRRE6BHVAU","A18WSAKX5YN2FB","3566S7OX5D5NH74JOVOPTTMK8IR17K","","567.9000000003725","img/food4.png","76","572","3","1","3","1","1,0.5,0,1,0.5,0,0.5,0,1","1,0.5,0,1,0.5,0,0.5,0,1","1","",""
"","html-keyboard-response","93","60570","0.0-93.0","32N49TQG3H4N85G9TEP0ZRRE6BHVAU","A18WSAKX5YN2FB","3566S7OX5D5NH74JOVOPTTMK8IR17K","","null","<img src=""img/food4.png"" style=""width:200px; border:14px solid green;"">","null","","","","","","","","","",""
"","image-keyboard-response","94","61279","0.0-94.0","32N49TQG3H4N85G9TEP0ZRRE6BHVAU","A18WSAKX5YN2FB","3566S7OX5D5NH74JOVOPTTMK8IR17K","","704.9000000003725","img/food2.png","74","708.3000000007451","1","1","2","1","1,0.5,0,1,0.5,0,0.5,0,1","1,0.5,0,1,0.5,0,0.5,0,1","1","",""
"","html-keyboard-response","95","61586","0.0-95.0","32N49TQG3H4N85G9TEP0ZRRE6BHVAU","A18WSAKX5YN2FB","3566S7OX5D5NH74JOVOPTTMK8IR17K","","null","<img src=""img/food2.png"" style=""width:200px; border:14px solid green;"">","null","","","","","","","","","",""
"","image-keyboard-response","96","62194","0.0-96.0","32N49TQG3H4N85G9TEP0ZRRE6BHVAU","A18WSAKX5YN2FB","3566S7OX5D5NH74JOVOPTTMK8IR17K","","600.7000000001863","img/food5.png","74","606","1","1","1","1","1,0.5,0,1,0.5,0,0.5,0,1","1,0.5,0,1,0.5,0,0.5,0,1","1","",""
"","html-keyboard-response","97","62499","0.0-97.0","32N49TQG3H4N85G9TEP0ZRRE6BHVAU","A18WSAKX5YN2FB","3566S7OX5D5NH74JOVOPTTMK8IR17K","","null","<img src=""img/food5.png"" style=""width:200px; border:14px solid green;"">","null","","","","","","","","","",""
"","image-keyboard-response","98","63014","0.0-98.0","32N49TQG3H4N85G9TEP0ZRRE6BHVAU","A18WSAKX5YN2FB","3566S7OX5D5NH74JOVOPTTMK8IR17K","","508.20000000018626","img/food4.png","76","512.9000000003725","3","1","3","1","1,0.5,0,1,0.5,0,0.5,0,1","1,0.5,0,1,0.5,0,0.5,0,1","1","",""
"","html-keyboard-response","99","63325","0.0-99.0","32N49TQG3H4N85G9TEP0ZRRE6BHVAU","A18WSAKX5YN2FB","3566S7OX5D5NH74JOVOPTTMK8IR17K","","null","<img src=""img/food4.png"" style=""width:200px; border:14px solid green;"">","null","","","","","","","","","",""
"","image-keyboard-response","100","63792","0.0-100.0","32N49TQG3H4N85G9TEP0ZRRE6BHVAU","A18WSAKX5YN2FB","3566S7OX5D5NH74JOVOPTTMK8IR17K","","462","img/food5.png","74","465.40000000037253","1","1","1","1","1,0.5,0,1,0.5,0,0.5,0,1","1,0.5,0,1,0.5,0,0.5,0,1","1","",""
"","html-keyboard-response","101","64099","0.0-101.0","32N49TQG3H4N85G9TEP0ZRRE6BHVAU","A18WSAKX5YN2FB","3566S7OX5D5NH74JOVOPTTMK8IR17K","","null","<img src=""img/food5.png"" style=""width:200px; border:14px solid green;"">","null","","","","","","","","","",""
"","image-keyboard-response","102","64609","0.0-102.0","32N49TQG3H4N85G9TEP0ZRRE6BHVAU","A18WSAKX5YN2FB","3566S7OX5D5NH74JOVOPTTMK8IR17K","","503.09999999962747","img/food2.png","74","509.5","1","1","2","1","1,0.5,0,1,0.5,0,0.5,0,1","1,0.5,0,1,0.5,0,0.5,0,1","1","",""
"","html-keyboard-response","103","64917","0.0-103.0","32N49TQG3H4N85G9TEP0ZRRE6BHVAU","A18WSAKX5YN2FB","3566S7OX5D5NH74JOVOPTTMK8IR17K","","null","<img src=""img/food2.png"" style=""width:200px; border:14px solid green;"">","null","","","","","","","","","",""
"","image-keyboard-response","104","65240","0.0-104.0","32N49TQG3H4N85G9TEP0ZRRE6BHVAU","A18WSAKX5YN2FB","3566S7OX5D5NH74JOVOPTTMK8IR17K","","314.6000000005588","img/food2.png","74","320.6000000005588","1","1","2","1","1,0.5,0,1,0.5,0,0.5,0,1","1,0.5,0,1,0.5,0,0.5,0,1","1","",""
"","html-keyboard-response","105","65547","0.0-105.0","32N49TQG3H4N85G9TEP0ZRRE6BHVAU","A18WSAKX5YN2FB","3566S7OX5D5NH74JOVOPTTMK8IR17K","","null","<img src=""img/food2.png"" style=""width:200px; border:14px solid green;"">","null","","","","","","","","","",""
"","image-keyboard-response","106","65904","0.0-106.0","32N49TQG3H4N85G9TEP0ZRRE6BHVAU","A18WSAKX5YN2FB","3566S7OX5D5NH74JOVOPTTMK8IR17K","","349.80000000074506","img/food2.png","74","355.29999999981374","1","1","2","1","1,0.5,0,1,0.5,0,0.5,0,1","1,0.5,0,1,0.5,0,0.5,0,1","1","",""
"","html-keyboard-response","107","66211","0.0-107.0","32N49TQG3H4N85G9TEP0ZRRE6BHVAU","A18WSAKX5YN2FB","3566S7OX5D5NH74JOVOPTTMK8IR17K","","null","<img src=""img/food2.png"" style=""width:200px; border:14px solid green;"">","null","","","","","","","","","",""
"","image-keyboard-response","108","66826","0.0-108.0","32N49TQG3H4N85G9TEP0ZRRE6BHVAU","A18WSAKX5YN2FB","3566S7OX5D5NH74JOVOPTTMK8IR17K","","609.7000000001863","img/food4.png","76","614.5","3","1","3","1","1,0.5,0,1,0.5,0,0.5,0,1","1,0.5,0,1,0.5,0,0.5,0,1","1","",""
"","html-keyboard-response","109","67132","0.0-109.0","32N49TQG3H4N85G9TEP0ZRRE6BHVAU","A18WSAKX5YN2FB","3566S7OX5D5NH74JOVOPTTMK8IR17K","","null","<img src=""img/food4.png"" style=""width:200px; border:14px solid green;"">","null","","","","","","","","","",""
"","image-keyboard-response","110","67488","0.0-110.0","32N49TQG3H4N85G9TEP0ZRRE6BHVAU","A18WSAKX5YN2FB","3566S7OX5D5NH74JOVOPTTMK8IR17K","","348.40000000037253","img/food4.png","76","354.29999999981374","3","1","3","1","1,0.5,0,1,0.5,0,0.5,0,1","1,0.5,0,1,0.5,0,0.5,0,1","1","",""
"","html-keyboard-response","111","67795","0.0-111.0","32N49TQG3H4N85G9TEP0ZRRE6BHVAU","A18WSAKX5YN2FB","3566S7OX5D5NH74JOVOPTTMK8IR17K","","null","<img src=""img/food4.png"" style=""width:200px; border:14px solid green;"">","null","","","","","","","","","",""
"","image-keyboard-response","112","68169","0.0-112.0","32N49TQG3H4N85G9TEP0ZRRE6BHVAU","A18WSAKX5YN2FB","3566S7OX5D5NH74JOVOPTTMK8IR17K","","369.29999999981374","img/food4.png","76","372.79999999981374","3","1","3","1","1,0.5,0,1,0.5,0,0.5,0,1","1,0.5,0,1,0.5,0,0.5,0,1","1","",""
"","html-keyboard-response","113","68474","0.0-113.0","32N49TQG3H4N85G9TEP0ZRRE6BHVAU","A18WSAKX5YN2FB","3566S7OX5D5NH74JOVOPTTMK8IR17K","","null","<img src=""img/food4.png"" style=""width:200px; border:14px solid green;"">","null","","","","","","","","","",""
"","image-keyboard-response","114","69181","0.0-114.0","32N49TQG3H4N85G9TEP0ZRRE6BHVAU","A18WSAKX5YN2FB","3566S7OX5D5NH74JOVOPTTMK8IR17K","","701.1000000005588","img/food2.png","74","706.1000000005588","1","1","2","1","1,0.5,0,1,0.5,0,0.5,0,1","1,0.5,0,1,0.5,0,0.5,0,1","1","",""
"","html-keyboard-response","115","69488","0.0-115.0","32N49TQG3H4N85G9TEP0ZRRE6BHVAU","A18WSAKX5YN2FB","3566S7OX5D5NH74JOVOPTTMK8IR17K","","null","<img src=""img/food2.png"" style=""width:200px; border:14px solid green;"">","null","","","","","","","","","",""
"","image-keyboard-response","116","70165","0.0-116.0","32N49TQG3H4N85G9TEP0ZRRE6BHVAU","A18WSAKX5YN2FB","3566S7OX5D5NH74JOVOPTTMK8IR17K","","670.7999999998137","img/food4.png","76","676.2999999998137","3","1","3","1","1,0.5,0,1,0.5,0,0.5,0,1","1,0.5,0,1,0.5,0,0.5,0,1","1","",""
"","html-keyboard-response","117","70472","0.0-117.0","32N49TQG3H4N85G9TEP0ZRRE6BHVAU","A18WSAKX5YN2FB","3566S7OX5D5NH74JOVOPTTMK8IR17K","","null","<img src=""img/food4.png"" style=""width:200px; border:14px solid green;"">","null","","","","","","","","","",""
"","image-keyboard-response","118","70834","0.0-118.0","32N49TQG3H4N85G9TEP0ZRRE6BHVAU","A18WSAKX5YN2FB","3566S7OX5D5NH74JOVOPTTMK8IR17K","","357.59999999962747","img/food4.png","76","361.40000000037253","3","1","3","1","1,0.5,0,1,0.5,0,0.5,0,1","1,0.5,0,1,0.5,0,0.5,0,1","1","",""
"","html-keyboard-response","119","71140","0.0-119.0","32N49TQG3H4N85G9TEP0ZRRE6BHVAU","A18WSAKX5YN2FB","3566S7OX5D5NH74JOVOPTTMK8IR17K","","null","<img src=""img/food4.png"" style=""width:200px; border:14px solid green;"">","null","","","","","","","","","",""
"","image-keyboard-response","120","71429","0.0-120.0","32N49TQG3H4N85G9TEP0ZRRE6BHVAU","A18WSAKX5YN2FB","3566S7OX5D5NH74JOVOPTTMK8IR17K","","280.6000000005588","img/food4.png","76","287.20000000018626","3","1","3","1","1,0.5,0,1,0.5,0,0.5,0,1","1,0.5,0,1,0.5,0,0.5,0,1","1","",""
"","html-keyboard-response","121","71735","0.0-121.0","32N49TQG3H4N85G9TEP0ZRRE6BHVAU","A18WSAKX5YN2FB","3566S7OX5D5NH74JOVOPTTMK8IR17K","","null","<img src=""img/food4.png"" style=""width:200px; border:14px solid green;"">","null","","","","","","","","","",""
"","image-keyboard-response","122","72395","0.0-122.0","32N49TQG3H4N85G9TEP0ZRRE6BHVAU","A18WSAKX5YN2FB","3566S7OX5D5NH74JOVOPTTMK8IR17K","","652.2999999998137","img/food2.png","74","657.7000000001863","1","1","2","1","1,0.5,0,1,0.5,0,0.5,0,1","1,0.5,0,1,0.5,0,0.5,0,1","1","",""
"","html-keyboard-response","123","72704","0.0-123.0","32N49TQG3H4N85G9TEP0ZRRE6BHVAU","A18WSAKX5YN2FB","3566S7OX5D5NH74JOVOPTTMK8IR17K","","null","<img src=""img/food2.png"" style=""width:200px; border:14px solid green;"">","null","","","","","","","","","",""
"","image-keyboard-response","124","73015","0.0-124.0","32N49TQG3H4N85G9TEP0ZRRE6BHVAU","A18WSAKX5YN2FB","3566S7OX5D5NH74JOVOPTTMK8IR17K","","303.29999999981374","img/food2.png","74","308.3999999994412","1","1","2","1","1,0.5,0,1,0.5,0,0.5,0,1","1,0.5,0,1,0.5,0,0.5,0,1","1","",""
"","html-keyboard-response","125","73320","0.0-125.0","32N49TQG3H4N85G9TEP0ZRRE6BHVAU","A18WSAKX5YN2FB","3566S7OX5D5NH74JOVOPTTMK8IR17K","","null","<img src=""img/food2.png"" style=""width:200px; border:14px solid green;"">","null","","","","","","","","","",""
"","image-keyboard-response","126","73923","0.0-126.0","32N49TQG3H4N85G9TEP0ZRRE6BHVAU","A18WSAKX5YN2FB","3566S7OX5D5NH74JOVOPTTMK8IR17K","","593.8999999994412","img/food4.png","76","599.2999999998137","3","1","3","1","1,0.5,0,1,0.5,0,0.5,0,1","1,0.5,0,1,0.5,0,0.5,0,1","1","",""
"","html-keyboard-response","127","74232","0.0-127.0","32N49TQG3H4N85G9TEP0ZRRE6BHVAU","A18WSAKX5YN2FB","3566S7OX5D5NH74JOVOPTTMK8IR17K","","null","<img src=""img/food4.png"" style=""width:200px; border:14px solid green;"">","null","","","","","","","","","",""
"","image-keyboard-response","128","75134","0.0-128.0","32N49TQG3H4N85G9TEP0ZRRE6BHVAU","A18WSAKX5YN2FB","3566S7OX5D5NH74JOVOPTTMK8IR17K","","895","img/food5.png","74","900.7000000001863","1","1","1","1","1,0.5,0,1,0.5,0,0.5,0,1","1,0.5,0,1,0.5,0,0.5,0,1","1","",""
"","html-keyboard-response","129","75442","0.0-129.0","32N49TQG3H4N85G9TEP0ZRRE6BHVAU","A18WSAKX5YN2FB","3566S7OX5D5NH74JOVOPTTMK8IR17K","","null","<img src=""img/food5.png"" style=""width:200px; border:14px solid green;"">","null","","","","","","","","","",""
"","image-keyboard-response","130","75857","0.0-130.0","32N49TQG3H4N85G9TEP0ZRRE6BHVAU","A18WSAKX5YN2FB","3566S7OX5D5NH74JOVOPTTMK8IR17K","","407","img/food4.png","74","413.3999999994412","1","1","3","1","1,0.5,0,1,0.5,0,0.5,0,1","1,0.5,0,1,0.5,0,0.5,0,1","1","",""
"","html-keyboard-response","131","76163","0.0-131.0","32N49TQG3H4N85G9TEP0ZRRE6BHVAU","A18WSAKX5YN2FB","3566S7OX5D5NH74JOVOPTTMK8IR17K","","null","<img src=""img/food4.png"" style=""width:200px; border:14px solid green;"">","null","","","","","","","","","",""
"","image-keyboard-response","132","77146","0.0-132.0","32N49TQG3H4N85G9TEP0ZRRE6BHVAU","A18WSAKX5YN2FB","3566S7OX5D5NH74JOVOPTTMK8IR17K","","970.3999999994412","img/food2.png","74","975.2000000001863","1","1","2","1","1,0.5,0,1,0.5,0,0.5,0,1","1,0.5,0,1,0.5,0,0.5,0,1","1","",""
"","html-keyboard-response","133","77454","0.0-133.0","32N49TQG3H4N85G9TEP0ZRRE6BHVAU","A18WSAKX5YN2FB","3566S7OX5D5NH74JOVOPTTMK8IR17K","","null","<img src=""img/food2.png"" style=""width:200px; border:14px solid green;"">","null","","","","","","","","","",""
"","image-keyboard-response","134","77988","0.0-134.0","32N49TQG3H4N85G9TEP0ZRRE6BHVAU","A18WSAKX5YN2FB","3566S7OX5D5NH74JOVOPTTMK8IR17K","","525.9000000003725","img/food4.png","76","531.7999999998137","3","1","3","1","1,0.5,0,1,0.5,0,0.5,0,1","1,0.5,0,1,0.5,0,0.5,0,1","1","",""
"","html-keyboard-response","135","78296","0.0-135.0","32N49TQG3H4N85G9TEP0ZRRE6BHVAU","A18WSAKX5YN2FB","3566S7OX5D5NH74JOVOPTTMK8IR17K","","null","<img src=""img/food4.png"" style=""width:200px; border:14px solid green;"">","null","","","","","","","","","",""
"","image-keyboard-response","136","78981","0.0-136.0","32N49TQG3H4N85G9TEP0ZRRE6BHVAU","A18WSAKX5YN2FB","3566S7OX5D5NH74JOVOPTTMK8IR17K","","677.5999999996275","img/food2.png","74","683.3999999994412","1","1","2","1","1,0.5,0,1,0.5,0,0.5,0,1","1,0.5,0,1,0.5,0,0.5,0,1","1","",""
"","html-keyboard-response","137","79288","0.0-137.0","32N49TQG3H4N85G9TEP0ZRRE6BHVAU","A18WSAKX5YN2FB","3566S7OX5D5NH74JOVOPTTMK8IR17K","","null","<img src=""img/food2.png"" style=""width:200px; border:14px solid green;"">","null","","","","","","","","","",""
"","image-keyboard-response","138","79629","0.0-138.0","32N49TQG3H4N85G9TEP0ZRRE6BHVAU","A18WSAKX5YN2FB","3566S7OX5D5NH74JOVOPTTMK8IR17K","","331.70000000018626","img/food2.png","74","338.6000000005588","1","1","2","1","1,0.5,0,1,0.5,0,0.5,0,1","1,0.5,0,1,0.5,0,0.5,0,1","1","",""
"","html-keyboard-response","139","79937","0.0-139.0","32N49TQG3H4N85G9TEP0ZRRE6BHVAU","A18WSAKX5YN2FB","3566S7OX5D5NH74JOVOPTTMK8IR17K","","null","<img src=""img/food2.png"" style=""width:200px; border:14px solid green;"">","null","","","","","","","","","",""
"","image-keyboard-response","140","80624","0.0-140.0","32N49TQG3H4N85G9TEP0ZRRE6BHVAU","A18WSAKX5YN2FB","3566S7OX5D5NH74JOVOPTTMK8IR17K","","680","img/food5.png","74","684.8999999994412","1","1","1","1","1,0.5,0,1,0.5,0,0.5,0,1","1,0.5,0,1,0.5,0,0.5,0,1","1","",""
"","html-keyboard-response","141","80929","0.0-141.0","32N49TQG3H4N85G9TEP0ZRRE6BHVAU","A18WSAKX5YN2FB","3566S7OX5D5NH74JOVOPTTMK8IR17K","","null","<img src=""img/food5.png"" style=""width:200px; border:14px solid green;"">","null","","","","","","","","","",""
"","image-keyboard-response","142","81522","0.0-142.0","32N49TQG3H4N85G9TEP0ZRRE6BHVAU","A18WSAKX5YN2FB","3566S7OX5D5NH74JOVOPTTMK8IR17K","","585.2999999998137","img/food2.png","74","591","1","1","2","1","1,0.5,0,1,0.5,0,0.5,0,1","1,0.5,0,1,0.5,0,0.5,0,1","1","",""
"","html-keyboard-response","143","81831","0.0-143.0","32N49TQG3H4N85G9TEP0ZRRE6BHVAU","A18WSAKX5YN2FB","3566S7OX5D5NH74JOVOPTTMK8IR17K","","null","<img src=""img/food2.png"" style=""width:200px; border:14px solid green;"">","null","","","","","","","","","",""
"","image-keyboard-response","144","82613","0.0-144.0","32N49TQG3H4N85G9TEP0ZRRE6BHVAU","A18WSAKX5YN2FB","3566S7OX5D5NH74JOVOPTTMK8IR17K","","777","img/food5.png","74","780.5999999996275","1","1","1","1","1,0.5,0,1,0.5,0,0.5,0,1","1,0.5,0,1,0.5,0,0.5,0,1","1","",""
"","html-keyboard-response","145","82918","0.0-145.0","32N49TQG3H4N85G9TEP0ZRRE6BHVAU","A18WSAKX5YN2FB","3566S7OX5D5NH74JOVOPTTMK8IR17K","","null","<img src=""img/food5.png"" style=""width:200px; border:14px solid green;"">","null","","","","","","","","","",""
"","image-keyboard-response","146","83495","0.0-146.0","32N49TQG3H4N85G9TEP0ZRRE6BHVAU","A18WSAKX5YN2FB","3566S7OX5D5NH74JOVOPTTMK8IR17K","","571.1000000005588","img/food4.png","76","575","3","1","3","1","1,0.5,0,1,0.5,0,0.5,0,1","1,0.5,0,1,0.5,0,0.5,0,1","1","",""
"","html-keyboard-response","147","83799","0.0-147.0","32N49TQG3H4N85G9TEP0ZRRE6BHVAU","A18WSAKX5YN2FB","3566S7OX5D5NH74JOVOPTTMK8IR17K","","null","<img src=""img/food4.png"" style=""width:200px; border:14px solid green;"">","null","","","","","","","","","",""
"","image-keyboard-response","148","84204","0.0-148.0","32N49TQG3H4N85G9TEP0ZRRE6BHVAU","A18WSAKX5YN2FB","3566S7OX5D5NH74JOVOPTTMK8IR17K","","399.90000000037253","img/food4.png","76","404","3","1","3","1","1,0.5,0,1,0.5,0,0.5,0,1","1,0.5,0,1,0.5,0,0.5,0,1","1","",""
"","html-keyboard-response","149","84510","0.0-149.0","32N49TQG3H4N85G9TEP0ZRRE6BHVAU","A18WSAKX5YN2FB","3566S7OX5D5NH74JOVOPTTMK8IR17K","","null","<img src=""img/food4.png"" style=""width:200px; border:14px solid green;"">","null","","","","","","","","","",""
"","image-keyboard-response","150","84884","0.0-150.0","32N49TQG3H4N85G9TEP0ZRRE6BHVAU","A18WSAKX5YN2FB","3566S7OX5D5NH74JOVOPTTMK8IR17K","","367.79999999981374","img/food4.png","76","372.29999999981374","3","1","3","1","1,0.5,0,1,0.5,0,0.5,0,1","1,0.5,0,1,0.5,0,0.5,0,1","1","",""
"","html-keyboard-response","151","85190","0.0-151.0","32N49TQG3H4N85G9TEP0ZRRE6BHVAU","A18WSAKX5YN2FB","3566S7OX5D5NH74JOVOPTTMK8IR17K","","null","<img src=""img/food4.png"" style=""width:200px; border:14px solid green;"">","null","","","","","","","","","",""
"","image-keyboard-response","152","85524","0.0-152.0","32N49TQG3H4N85G9TEP0ZRRE6BHVAU","A18WSAKX5YN2FB","3566S7OX5D5NH74JOVOPTTMK8IR17K","","328.29999999981374","img/food4.png","76","332.29999999981374","3","1","3","1","1,0.5,0,1,0.5,0,0.5,0,1","1,0.5,0,1,0.5,0,0.5,0,1","1","",""
"","html-keyboard-response","153","85830","0.0-153.0","32N49TQG3H4N85G9TEP0ZRRE6BHVAU","A18WSAKX5YN2FB","3566S7OX5D5NH74JOVOPTTMK8IR17K","","null","<img src=""img/food4.png"" style=""width:200px; border:14px solid green;"">","null","","","","","","","","","",""
"","image-keyboard-response","154","86374","0.0-154.0","32N49TQG3H4N85G9TEP0ZRRE6BHVAU","A18WSAKX5YN2FB","3566S7OX5D5NH74JOVOPTTMK8IR17K","","536","img/food5.png","74","542.0999999996275","1","1","1","1","1,0.5,0,1,0.5,0,0.5,0,1","1,0.5,0,1,0.5,0,0.5,0,1","1","",""
"","html-keyboard-response","155","86680","0.0-155.0","32N49TQG3H4N85G9TEP0ZRRE6BHVAU","A18WSAKX5YN2FB","3566S7OX5D5NH74JOVOPTTMK8IR17K","","null","<img src=""img/food5.png"" style=""width:200px; border:14px solid green;"">","null","","","","","","","","","",""
"","image-keyboard-response","156","87016","0.0-156.0","32N49TQG3H4N85G9TEP0ZRRE6BHVAU","A18WSAKX5YN2FB","3566S7OX5D5NH74JOVOPTTMK8IR17K","","329.59999999962747","img/food5.png","74","334","1","1","1","1","1,0.5,0,1,0.5,0,0.5,0,1","1,0.5,0,1,0.5,0,0.5,0,1","1","",""
"","html-keyboard-response","157","87323","0.0-157.0","32N49TQG3H4N85G9TEP0ZRRE6BHVAU","A18WSAKX5YN2FB","3566S7OX5D5NH74JOVOPTTMK8IR17K","","null","<img src=""img/food5.png"" style=""width:200px; border:14px solid green;"">","null","","","","","","","","","",""
"","image-keyboard-response","158","87859","0.0-158.0","32N49TQG3H4N85G9TEP0ZRRE6BHVAU","A18WSAKX5YN2FB","3566S7OX5D5NH74JOVOPTTMK8IR17K","","530.6000000005588","img/food2.png","74","534.2999999998137","1","1","2","1","1,0.5,0,1,0.5,0,0.5,0,1","1,0.5,0,1,0.5,0,0.5,0,1","1","",""
"","html-keyboard-response","159","88164","0.0-159.0","32N49TQG3H4N85G9TEP0ZRRE6BHVAU","A18WSAKX5YN2FB","3566S7OX5D5NH74JOVOPTTMK8IR17K","","null","<img src=""img/food2.png"" style=""width:200px; border:14px solid green;"">","null","","","","","","","","","",""
"","image-keyboard-response","160","89024","0.0-160.0","32N49TQG3H4N85G9TEP0ZRRE6BHVAU","A18WSAKX5YN2FB","3566S7OX5D5NH74JOVOPTTMK8IR17K","","853.2000000001863","img/food5.png","74","857.5","1","1","1","1","1,0.5,0,1,0.5,0,0.5,0,1","1,0.5,0,1,0.5,0,0.5,0,1","1","",""
"","html-keyboard-response","161","89329","0.0-161.0","32N49TQG3H4N85G9TEP0ZRRE6BHVAU","A18WSAKX5YN2FB","3566S7OX5D5NH74JOVOPTTMK8IR17K","","null","<img src=""img/food5.png"" style=""width:200px; border:14px solid green;"">","null","","","","","","","","","",""
"","image-keyboard-response","162","89917","0.0-162.0","32N49TQG3H4N85G9TEP0ZRRE6BHVAU","A18WSAKX5YN2FB","3566S7OX5D5NH74JOVOPTTMK8IR17K","","581.2999999998137","img/food4.png","76","586.4000000003725","3","1","3","1","1,0.5,0,1,0.5,0,0.5,0,1","1,0.5,0,1,0.5,0,0.5,0,1","1","",""
"","html-keyboard-response","163","90224","0.0-163.0","32N49TQG3H4N85G9TEP0ZRRE6BHVAU","A18WSAKX5YN2FB","3566S7OX5D5NH74JOVOPTTMK8IR17K","","null","<img src=""img/food4.png"" style=""width:200px; border:14px solid green;"">","null","","","","","","","","","",""
"","image-keyboard-response","164","90741","0.0-164.0","32N49TQG3H4N85G9TEP0ZRRE6BHVAU","A18WSAKX5YN2FB","3566S7OX5D5NH74JOVOPTTMK8IR17K","","509.40000000037253","img/food5.png","74","516.1000000005588","1","1","1","1","1,0.5,0,1,0.5,0,0.5,0,1","1,0.5,0,1,0.5,0,0.5,0,1","1","",""
"","html-keyboard-response","165","91050","0.0-165.0","32N49TQG3H4N85G9TEP0ZRRE6BHVAU","A18WSAKX5YN2FB","3566S7OX5D5NH74JOVOPTTMK8IR17K","","null","<img src=""img/food5.png"" style=""width:200px; border:14px solid green;"">","null","","","","","","","","","",""
"","image-keyboard-response","166","91593","0.0-166.0","32N49TQG3H4N85G9TEP0ZRRE6BHVAU","A18WSAKX5YN2FB","3566S7OX5D5NH74JOVOPTTMK8IR17K","","534.7000000001863","img/food4.png","74","541.0999999996275","1","1","3","1","1,0.5,0,1,0.5,0,0.5,0,1","1,0.5,0,1,0.5,0,0.5,0,1","1","",""
"","html-keyboard-response","167","91900","0.0-167.0","32N49TQG3H4N85G9TEP0ZRRE6BHVAU","A18WSAKX5YN2FB","3566S7OX5D5NH74JOVOPTTMK8IR17K","","null","<img src=""img/food4.png"" style=""width:200px; border:14px solid green;"">","null","","","","","","","","","",""
"","image-keyboard-response","168","91907","0.0-168.0","32N49TQG3H4N85G9TEP0ZRRE6BHVAU","A18WSAKX5YN2FB","3566S7OX5D5NH74JOVOPTTMK8IR17K","","1.199999999254942","img/food2.png","76","4.7999999998137355","3","0","2","1","1,0.5,0,1,0.5,0,0.5,0,1","1,0.5,0,1,0.5,0,0.5,0,1","1","",""
"","html-keyboard-response","169","92215","0.0-169.0","32N49TQG3H4N85G9TEP0ZRRE6BHVAU","A18WSAKX5YN2FB","3566S7OX5D5NH74JOVOPTTMK8IR17K","","null","<img src=""img/food2.png"" style=""width:200px;border:14px solid red;"">","null","","","","","","","","","",""
"","image-keyboard-response","170","92690","0.0-170.0","32N49TQG3H4N85G9TEP0ZRRE6BHVAU","A18WSAKX5YN2FB","3566S7OX5D5NH74JOVOPTTMK8IR17K","","464","img/food2.png","74","473.59999999962747","1","1","2","1","1,0.5,0,1,0.5,0,0.5,0,1","1,0.5,0,1,0.5,0,0.5,0,1","1","",""
"","html-keyboard-response","171","92996","0.0-171.0","32N49TQG3H4N85G9TEP0ZRRE6BHVAU","A18WSAKX5YN2FB","3566S7OX5D5NH74JOVOPTTMK8IR17K","","null","<img src=""img/food2.png"" style=""width:200px; border:14px solid green;"">","null","","","","","","","","","",""
"","image-keyboard-response","172","93496","0.0-172.0","32N49TQG3H4N85G9TEP0ZRRE6BHVAU","A18WSAKX5YN2FB","3566S7OX5D5NH74JOVOPTTMK8IR17K","","494.29999999981374","img/food4.png","76","498.40000000037253","3","1","3","1","1,0.5,0,1,0.5,0,0.5,0,1","1,0.5,0,1,0.5,0,0.5,0,1","1","",""
"","html-keyboard-response","173","93805","0.0-173.0","32N49TQG3H4N85G9TEP0ZRRE6BHVAU","A18WSAKX5YN2FB","3566S7OX5D5NH74JOVOPTTMK8IR17K","","null","<img src=""img/food4.png"" style=""width:200px; border:14px solid green;"">","null","","","","","","","","","",""
"","image-keyboard-response","174","94562","0.0-174.0","32N49TQG3H4N85G9TEP0ZRRE6BHVAU","A18WSAKX5YN2FB","3566S7OX5D5NH74JOVOPTTMK8IR17K","","748.4000000003725","img/food5.png","74","754.9000000003725","1","1","1","1","1,0.5,0,1,0.5,0,0.5,0,1","1,0.5,0,1,0.5,0,0.5,0,1","1","",""
"","html-keyboard-response","175","94868","0.0-175.0","32N49TQG3H4N85G9TEP0ZRRE6BHVAU","A18WSAKX5YN2FB","3566S7OX5D5NH74JOVOPTTMK8IR17K","","null","<img src=""img/food5.png"" style=""width:200px; border:14px solid green;"">","null","","","","","","","","","",""
"","image-keyboard-response","176","95254","0.0-176.0","32N49TQG3H4N85G9TEP0ZRRE6BHVAU","A18WSAKX5YN2FB","3566S7OX5D5NH74JOVOPTTMK8IR17K","","378.70000000018626","img/food5.png","74","384.19999999925494","1","1","1","1","1,0.5,0,1,0.5,0,0.5,0,1","1,0.5,0,1,0.5,0,0.5,0,1","1","",""
"","html-keyboard-response","177","95561","0.0-177.0","32N49TQG3H4N85G9TEP0ZRRE6BHVAU","A18WSAKX5YN2FB","3566S7OX5D5NH74JOVOPTTMK8IR17K","","null","<img src=""img/food5.png"" style=""width:200px; border:14px solid green;"">","null","","","","","","","","","",""
"","image-keyboard-response","178","95859","0.0-178.0","32N49TQG3H4N85G9TEP0ZRRE6BHVAU","A18WSAKX5YN2FB","3566S7OX5D5NH74JOVOPTTMK8IR17K","","295.30000000074506","img/food5.png","74","298.19999999925494","1","1","1","1","1,0.5,0,1,0.5,0,0.5,0,1","1,0.5,0,1,0.5,0,0.5,0,1","1","",""
"","html-keyboard-response","179","96167","0.0-179.0","32N49TQG3H4N85G9TEP0ZRRE6BHVAU","A18WSAKX5YN2FB","3566S7OX5D5NH74JOVOPTTMK8IR17K","","null","<img src=""img/food5.png"" style=""width:200px; border:14px solid green;"">","null","","","","","","","","","",""
"","image-keyboard-response","180","96485","0.0-180.0","32N49TQG3H4N85G9TEP0ZRRE6BHVAU","A18WSAKX5YN2FB","3566S7OX5D5NH74JOVOPTTMK8IR17K","","310","img/food5.png","74","316.3999999994412","1","1","1","1","1,0.5,0,1,0.5,0,0.5,0,1","1,0.5,0,1,0.5,0,0.5,0,1","1","",""
"","html-keyboard-response","181","96792","0.0-181.0","32N49TQG3H4N85G9TEP0ZRRE6BHVAU","A18WSAKX5YN2FB","3566S7OX5D5NH74JOVOPTTMK8IR17K","","null","<img src=""img/food5.png"" style=""width:200px; border:14px solid green;"">","null","","","","","","","","","",""
"","html-keyboard-response","182","100188","0.0-182.0","32N49TQG3H4N85G9TEP0ZRRE6BHVAU","A18WSAKX5YN2FB","3566S7OX5D5NH74JOVOPTTMK8IR17K","","","","","","","","","","","","","",""
"","instructions","183","106680","0.0-183.0","32N49TQG3H4N85G9TEP0ZRRE6BHVAU","A18WSAKX5YN2FB","3566S7OX5D5NH74JOVOPTTMK8IR17K","[{""page_index"":0,""viewing_time"":4257},{""page_index"":1,""viewing_time"":2226.199999999255}]","6486","","","","","","","","","","","",""
"","image-keyboard-response","184","107360","0.0-184.0","32N49TQG3H4N85G9TEP0ZRRE6BHVAU","A18WSAKX5YN2FB","3566S7OX5D5NH74JOVOPTTMK8IR17K","","674.1000000005588","img/food6.png","74","680.0999999996275","1","1","2","2","1,0.5,0,1,0.5,0,0.5,0,1","0.5,0,1,0.5,0,1,0,1,0.5","2","false",""
"","html-keyboard-response","185","107669","0.0-185.0","32N49TQG3H4N85G9TEP0ZRRE6BHVAU","A18WSAKX5YN2FB","3566S7OX5D5NH74JOVOPTTMK8IR17K","","null","<img src=""img/food6.png"" style=""width:200px; border:14px solid green;"">","null","","","","","","","","","",""
"","image-keyboard-response","186","108433","0.0-187.0","32N49TQG3H4N85G9TEP0ZRRE6BHVAU","A18WSAKX5YN2FB","3566S7OX5D5NH74JOVOPTTMK8IR17K","","752.3000000007451","img/food3.png","74","758.7000000001863","1","0","3","2","1,0.5,0,1,0.5,0,0.5,0,1","0.5,0,1,0.5,0,1,0,1,0.5","2","false",""
"","html-keyboard-response","187","108740","0.0-188.0","32N49TQG3H4N85G9TEP0ZRRE6BHVAU","A18WSAKX5YN2FB","3566S7OX5D5NH74JOVOPTTMK8IR17K","","null","<img src=""img/food3.png"" style=""width:200px;border:14px solid red;"">","null","","","","","","","","","",""
"","image-keyboard-response","188","109345","0.0-190.0","32N49TQG3H4N85G9TEP0ZRRE6BHVAU","A18WSAKX5YN2FB","3566S7OX5D5NH74JOVOPTTMK8IR17K","","595.1000000005588","img/food6.png","74","601.5","1","0","2","2","1,0.5,0,1,0.5,0,0.5,0,1","0.5,0,1,0.5,0,1,0,1,0.5","2","false",""
"","html-keyboard-response","189","109655","0.0-191.0","32N49TQG3H4N85G9TEP0ZRRE6BHVAU","A18WSAKX5YN2FB","3566S7OX5D5NH74JOVOPTTMK8IR17K","","null","<img src=""img/food6.png"" style=""width:200px;border:14px solid red;"">","null","","","","","","","","","",""
"","image-keyboard-response","190","110508","0.0-193.0","32N49TQG3H4N85G9TEP0ZRRE6BHVAU","A18WSAKX5YN2FB","3566S7OX5D5NH74JOVOPTTMK8IR17K","","843.6000000005588","img/food3.png","75","847.9000000003725","2","1","3","2","1,0.5,0,1,0.5,0,0.5,0,1","0.5,0,1,0.5,0,1,0,1,0.5","2","false",""
"","html-keyboard-response","191","110820","0.0-194.0","32N49TQG3H4N85G9TEP0ZRRE6BHVAU","A18WSAKX5YN2FB","3566S7OX5D5NH74JOVOPTTMK8IR17K","","null","<img src=""img/food3.png"" style=""width:200px; border:14px solid green;"">","null","","","","","","","","","",""
"","image-keyboard-response","192","111791","0.0-196.0","32N49TQG3H4N85G9TEP0ZRRE6BHVAU","A18WSAKX5YN2FB","3566S7OX5D5NH74JOVOPTTMK8IR17K","","964","img/food1.png","76","969.9000000003725","3","1","1","2","1,0.5,0,1,0.5,0,0.5,0,1","0.5,0,1,0.5,0,1,0,1,0.5","2","false",""
"","html-keyboard-response","193","112099","0.0-197.0","32N49TQG3H4N85G9TEP0ZRRE6BHVAU","A18WSAKX5YN2FB","3566S7OX5D5NH74JOVOPTTMK8IR17K","","null","<img src=""img/food1.png"" style=""width:200px; border:14px solid green;"">","null","","","","","","","","","",""
"","image-keyboard-response","194","112586","0.0-199.0","32N49TQG3H4N85G9TEP0ZRRE6BHVAU","A18WSAKX5YN2FB","3566S7OX5D5NH74JOVOPTTMK8IR17K","","480","img/food1.png","76","484.20000000018626","3","1","1","2","1,0.5,0,1,0.5,0,0.5,0,1","0.5,0,1,0.5,0,1,0,1,0.5","2","false",""
"","html-keyboard-response","195","112895","0.0-200.0","32N49TQG3H4N85G9TEP0ZRRE6BHVAU","A18WSAKX5YN2FB","3566S7OX5D5NH74JOVOPTTMK8IR17K","","null","<img src=""img/food1.png"" style=""width:200px; border:14px solid green;"">","null","","","","","","","","","",""
"","image-keyboard-response","196","113312","0.0-202.0","32N49TQG3H4N85G9TEP0ZRRE6BHVAU","A18WSAKX5YN2FB","3566S7OX5D5NH74JOVOPTTMK8IR17K","","404.09999999962747","img/food1.png","76","407.79999999981374","3","1","1","2","1,0.5,0,1,0.5,0,0.5,0,1","0.5,0,1,0.5,0,1,0,1,0.5","2","false",""
"","html-keyboard-response","197","113620","0.0-203.0","32N49TQG3H4N85G9TEP0ZRRE6BHVAU","A18WSAKX5YN2FB","3566S7OX5D5NH74JOVOPTTMK8IR17K","","null","<img src=""img/food1.png"" style=""width:200px; border:14px solid green;"">","null","","","","","","","","","",""
"","image-keyboard-response","198","114623","0.0-205.0","32N49TQG3H4N85G9TEP0ZRRE6BHVAU","A18WSAKX5YN2FB","3566S7OX5D5NH74JOVOPTTMK8IR17K","","","img/food6.png","","1003.5","-1","0","2","2","1,0.5,0,1,0.5,0,0.5,0,1","0.5,0,1,0.5,0,1,0,1,0.5","2","true",""
"","html-keyboard-response","199","114929","0.0-206.0","32N49TQG3H4N85G9TEP0ZRRE6BHVAU","A18WSAKX5YN2FB","3566S7OX5D5NH74JOVOPTTMK8IR17K","","null","<img src=""img/food6.png"" style=""width:200px;border:14px solid red;"">","null","","","","","","","","","",""
"","html-keyboard-response","200","118436","0.0-207.0-0.0","32N49TQG3H4N85G9TEP0ZRRE6BHVAU","A18WSAKX5YN2FB","3566S7OX5D5NH74JOVOPTTMK8IR17K","","","","","","","","","","","","","",""
"","image-keyboard-response","201","119317","0.0-208.0","32N49TQG3H4N85G9TEP0ZRRE6BHVAU","A18WSAKX5YN2FB","3566S7OX5D5NH74JOVOPTTMK8IR17K","","873.6999999992549","img/food6.png","74","879","1","0","2","2","1,0.5,0,1,0.5,0,0.5,0,1","0.5,0,1,0.5,0,1,0,1,0.5","2","false",""
"","html-keyboard-response","202","119624","0.0-209.0","32N49TQG3H4N85G9TEP0ZRRE6BHVAU","A18WSAKX5YN2FB","3566S7OX5D5NH74JOVOPTTMK8IR17K","","null","<img src=""img/food6.png"" style=""width:200px;border:14px solid red;"">","null","","","","","","","","","",""
"","image-keyboard-response","203","120011","0.0-211.0","32N49TQG3H4N85G9TEP0ZRRE6BHVAU","A18WSAKX5YN2FB","3566S7OX5D5NH74JOVOPTTMK8IR17K","","378.29999999981374","img/food6.png","75","383.5","2","0","2","2","1,0.5,0,1,0.5,0,0.5,0,1","0.5,0,1,0.5,0,1,0,1,0.5","2","false",""
"","html-keyboard-response","204","120319","0.0-212.0","32N49TQG3H4N85G9TEP0ZRRE6BHVAU","A18WSAKX5YN2FB","3566S7OX5D5NH74JOVOPTTMK8IR17K","","null","<img src=""img/food6.png"" style=""width:200px;border:14px solid red;"">","null","","","","","","","","","",""
"","image-keyboard-response","205","120605","0.0-214.0","32N49TQG3H4N85G9TEP0ZRRE6BHVAU","A18WSAKX5YN2FB","3566S7OX5D5NH74JOVOPTTMK8IR17K","","275.5","img/food6.png","76","281","3","1","2","2","1,0.5,0,1,0.5,0,0.5,0,1","0.5,0,1,0.5,0,1,0,1,0.5","2","false",""
"","html-keyboard-response","206","120916","0.0-215.0","32N49TQG3H4N85G9TEP0ZRRE6BHVAU","A18WSAKX5YN2FB","3566S7OX5D5NH74JOVOPTTMK8IR17K","","null","<img src=""img/food6.png"" style=""width:200px; border:14px solid green;"">","null","","","","","","","","","",""
"","image-keyboard-response","207","121657","0.0-217.0","32N49TQG3H4N85G9TEP0ZRRE6BHVAU","A18WSAKX5YN2FB","3566S7OX5D5NH74JOVOPTTMK8IR17K","","729.7000000001863","img/food1.png","76","735.5999999996275","3","1","1","2","1,0.5,0,1,0.5,0,0.5,0,1","0.5,0,1,0.5,0,1,0,1,0.5","2","false",""
"","html-keyboard-response","208","121961","0.0-218.0","32N49TQG3H4N85G9TEP0ZRRE6BHVAU","A18WSAKX5YN2FB","3566S7OX5D5NH74JOVOPTTMK8IR17K","","null","<img src=""img/food1.png"" style=""width:200px; border:14px solid green;"">","null","","","","","","","","","",""
"","image-keyboard-response","209","122449","0.0-220.0","32N49TQG3H4N85G9TEP0ZRRE6BHVAU","A18WSAKX5YN2FB","3566S7OX5D5NH74JOVOPTTMK8IR17K","","482.79999999981374","img/food6.png","76","485.70000000018626","3","1","2","2","1,0.5,0,1,0.5,0,0.5,0,1","0.5,0,1,0.5,0,1,0,1,0.5","2","false",""
"","html-keyboard-response","210","122754","0.0-221.0","32N49TQG3H4N85G9TEP0ZRRE6BHVAU","A18WSAKX5YN2FB","3566S7OX5D5NH74JOVOPTTMK8IR17K","","null","<img src=""img/food6.png"" style=""width:200px; border:14px solid green;"">","null","","","","","","","","","",""
"","image-keyboard-response","211","123350","0.0-223.0","32N49TQG3H4N85G9TEP0ZRRE6BHVAU","A18WSAKX5YN2FB","3566S7OX5D5NH74JOVOPTTMK8IR17K","","584.7000000001863","img/food3.png","75","591.7000000001863","2","1","3","2","1,0.5,0,1,0.5,0,0.5,0,1","0.5,0,1,0.5,0,1,0,1,0.5","2","false",""
"","html-keyboard-response","212","123660","0.0-224.0","32N49TQG3H4N85G9TEP0ZRRE6BHVAU","A18WSAKX5YN2FB","3566S7OX5D5NH74JOVOPTTMK8IR17K","","null","<img src=""img/food3.png"" style=""width:200px; border:14px solid green;"">","null","","","","","","","","","",""
"","image-keyboard-response","213","124136","0.0-226.0","32N49TQG3H4N85G9TEP0ZRRE6BHVAU","A18WSAKX5YN2FB","3566S7OX5D5NH74JOVOPTTMK8IR17K","","469.79999999981374","img/food6.png","76","472.70000000018626","3","1","2","2","1,0.5,0,1,0.5,0,0.5,0,1","0.5,0,1,0.5,0,1,0,1,0.5","2","false",""
"","html-keyboard-response","214","124442","0.0-227.0","32N49TQG3H4N85G9TEP0ZRRE6BHVAU","A18WSAKX5YN2FB","3566S7OX5D5NH74JOVOPTTMK8IR17K","","null","<img src=""img/food6.png"" style=""width:200px; border:14px solid green;"">","null","","","","","","","","","",""
"","image-keyboard-response","215","125069","0.0-229.0","32N49TQG3H4N85G9TEP0ZRRE6BHVAU","A18WSAKX5YN2FB","3566S7OX5D5NH74JOVOPTTMK8IR17K","","619","img/food3.png","75","623","2","1","3","2","1,0.5,0,1,0.5,0,0.5,0,1","0.5,0,1,0.5,0,1,0,1,0.5","2","false",""
"","html-keyboard-response","216","125376","0.0-230.0","32N49TQG3H4N85G9TEP0ZRRE6BHVAU","A18WSAKX5YN2FB","3566S7OX5D5NH74JOVOPTTMK8IR17K","","null","<img src=""img/food3.png"" style=""width:200px; border:14px solid green;"">","null","","","","","","","","","",""
"","image-keyboard-response","217","125759","0.0-232.0","32N49TQG3H4N85G9TEP0ZRRE6BHVAU","A18WSAKX5YN2FB","3566S7OX5D5NH74JOVOPTTMK8IR17K","","372","img/food3.png","75","378.40000000037253","2","1","3","2","1,0.5,0,1,0.5,0,0.5,0,1","0.5,0,1,0.5,0,1,0,1,0.5","2","false",""
"","html-keyboard-response","218","126064","0.0-233.0","32N49TQG3H4N85G9TEP0ZRRE6BHVAU","A18WSAKX5YN2FB","3566S7OX5D5NH74JOVOPTTMK8IR17K","","null","<img src=""img/food3.png"" style=""width:200px; border:14px solid green;"">","null","","","","","","","","","",""
"","image-keyboard-response","219","126546","0.0-235.0","32N49TQG3H4N85G9TEP0ZRRE6BHVAU","A18WSAKX5YN2FB","3566S7OX5D5NH74JOVOPTTMK8IR17K","","477.29999999981374","img/food6.png","76","481","3","1","2","2","1,0.5,0,1,0.5,0,0.5,0,1","0.5,0,1,0.5,0,1,0,1,0.5","2","false",""
"","html-keyboard-response","220","126853","0.0-236.0","32N49TQG3H4N85G9TEP0ZRRE6BHVAU","A18WSAKX5YN2FB","3566S7OX5D5NH74JOVOPTTMK8IR17K","","null","<img src=""img/food6.png"" style=""width:200px; border:14px solid green;"">","null","","","","","","","","","",""
"","image-keyboard-response","221","127390","0.0-238.0","32N49TQG3H4N85G9TEP0ZRRE6BHVAU","A18WSAKX5YN2FB","3566S7OX5D5NH74JOVOPTTMK8IR17K","","529.8999999994412","img/food3.png","75","535.1000000005588","2","1","3","2","1,0.5,0,1,0.5,0,0.5,0,1","0.5,0,1,0.5,0,1,0,1,0.5","2","false",""
"","html-keyboard-response","222","127697","0.0-239.0","32N49TQG3H4N85G9TEP0ZRRE6BHVAU","A18WSAKX5YN2FB","3566S7OX5D5NH74JOVOPTTMK8IR17K","","null","<img src=""img/food3.png"" style=""width:200px; border:14px solid green;"">","null","","","","","","","","","",""
"","image-keyboard-response","223","127969","0.0-241.0","32N49TQG3H4N85G9TEP0ZRRE6BHVAU","A18WSAKX5YN2FB","3566S7OX5D5NH74JOVOPTTMK8IR17K","","263.79999999981374","img/food3.png","75","268.5","2","1","3","2","1,0.5,0,1,0.5,0,0.5,0,1","0.5,0,1,0.5,0,1,0,1,0.5","2","false",""
"","html-keyboard-response","224","128273","0.0-242.0","32N49TQG3H4N85G9TEP0ZRRE6BHVAU","A18WSAKX5YN2FB","3566S7OX5D5NH74JOVOPTTMK8IR17K","","null","<img src=""img/food3.png"" style=""width:200px; border:14px solid green;"">","null","","","","","","","","","",""
"","image-keyboard-response","225","128772","0.0-244.0","32N49TQG3H4N85G9TEP0ZRRE6BHVAU","A18WSAKX5YN2FB","3566S7OX5D5NH74JOVOPTTMK8IR17K","","492.5","img/food1.png","76","497.3999999994412","3","1","1","2","1,0.5,0,1,0.5,0,0.5,0,1","0.5,0,1,0.5,0,1,0,1,0.5","2","false",""
"","html-keyboard-response","226","129078","0.0-245.0","32N49TQG3H4N85G9TEP0ZRRE6BHVAU","A18WSAKX5YN2FB","3566S7OX5D5NH74JOVOPTTMK8IR17K","","null","<img src=""img/food1.png"" style=""width:200px; border:14px solid green;"">","null","","","","","","","","","",""
"","image-keyboard-response","227","129640","0.0-247.0","32N49TQG3H4N85G9TEP0ZRRE6BHVAU","A18WSAKX5YN2FB","3566S7OX5D5NH74JOVOPTTMK8IR17K","","552.5","img/food6.png","75","559.5","2","0","2","2","1,0.5,0,1,0.5,0,0.5,0,1","0.5,0,1,0.5,0,1,0,1,0.5","2","false",""
"","html-keyboard-response","228","129949","0.0-248.0","32N49TQG3H4N85G9TEP0ZRRE6BHVAU","A18WSAKX5YN2FB","3566S7OX5D5NH74JOVOPTTMK8IR17K","","null","<img src=""img/food6.png"" style=""width:200px;border:14px solid red;"">","null","","","","","","","","","",""
"","image-keyboard-response","229","130021","0.0-250.0","32N49TQG3H4N85G9TEP0ZRRE6BHVAU","A18WSAKX5YN2FB","3566S7OX5D5NH74JOVOPTTMK8IR17K","","66.59999999962747","img/food6.png","76","69.70000000018626","3","1","2","2","1,0.5,0,1,0.5,0,0.5,0,1","0.5,0,1,0.5,0,1,0,1,0.5","2","false",""
"","html-keyboard-response","230","130327","0.0-251.0","32N49TQG3H4N85G9TEP0ZRRE6BHVAU","A18WSAKX5YN2FB","3566S7OX5D5NH74JOVOPTTMK8IR17K","","null","<img src=""img/food6.png"" style=""width:200px; border:14px solid green;"">","null","","","","","","","","","",""
"","image-keyboard-response","231","130921","0.0-253.0","32N49TQG3H4N85G9TEP0ZRRE6BHVAU","A18WSAKX5YN2FB","3566S7OX5D5NH74JOVOPTTMK8IR17K","","586.5","img/food3.png","75","591.3999999994412","2","1","3","2","1,0.5,0,1,0.5,0,0.5,0,1","0.5,0,1,0.5,0,1,0,1,0.5","2","false",""
"","html-keyboard-response","232","131228","0.0-254.0","32N49TQG3H4N85G9TEP0ZRRE6BHVAU","A18WSAKX5YN2FB","3566S7OX5D5NH74JOVOPTTMK8IR17K","","null","<img src=""img/food3.png"" style=""width:200px; border:14px solid green;"">","null","","","","","","","","","",""
"","image-keyboard-response","233","131695","0.0-256.0","32N49TQG3H4N85G9TEP0ZRRE6BHVAU","A18WSAKX5YN2FB","3566S7OX5D5NH74JOVOPTTMK8IR17K","","460.09999999962747","img/food6.png","76","464.5","3","1","2","2","1,0.5,0,1,0.5,0,0.5,0,1","0.5,0,1,0.5,0,1,0,1,0.5","2","false",""
"","html-keyboard-response","234","132000","0.0-257.0","32N49TQG3H4N85G9TEP0ZRRE6BHVAU","A18WSAKX5YN2FB","3566S7OX5D5NH74JOVOPTTMK8IR17K","","null","<img src=""img/food6.png"" style=""width:200px; border:14px solid green;"">","null","","","","","","","","","",""
"","image-keyboard-response","235","132277","0.0-259.0","32N49TQG3H4N85G9TEP0ZRRE6BHVAU","A18WSAKX5YN2FB","3566S7OX5D5NH74JOVOPTTMK8IR17K","","268.40000000037253","img/food6.png","76","274.30000000074506","3","1","2","2","1,0.5,0,1,0.5,0,0.5,0,1","0.5,0,1,0.5,0,1,0,1,0.5","2","false",""
"","html-keyboard-response","236","132585","0.0-260.0","32N49TQG3H4N85G9TEP0ZRRE6BHVAU","A18WSAKX5YN2FB","3566S7OX5D5NH74JOVOPTTMK8IR17K","","null","<img src=""img/food6.png"" style=""width:200px; border:14px solid green;"">","null","","","","","","","","","",""
"","image-keyboard-response","237","133006","0.0-262.0","32N49TQG3H4N85G9TEP0ZRRE6BHVAU","A18WSAKX5YN2FB","3566S7OX5D5NH74JOVOPTTMK8IR17K","","414.6000000005588","img/food1.png","76","418.79999999981374","3","1","1","2","1,0.5,0,1,0.5,0,0.5,0,1","0.5,0,1,0.5,0,1,0,1,0.5","2","false",""
"","html-keyboard-response","238","133312","0.0-263.0","32N49TQG3H4N85G9TEP0ZRRE6BHVAU","A18WSAKX5YN2FB","3566S7OX5D5NH74JOVOPTTMK8IR17K","","null","<img src=""img/food1.png"" style=""width:200px; border:14px solid green;"">","null","","","","","","","","","",""
"","image-keyboard-response","239","133823","0.0-265.0","32N49TQG3H4N85G9TEP0ZRRE6BHVAU","A18WSAKX5YN2FB","3566S7OX5D5NH74JOVOPTTMK8IR17K","","501.3999999994412","img/food6.png","75","507.70000000018626","2","0","2","2","1,0.5,0,1,0.5,0,0.5,0,1","0.5,0,1,0.5,0,1,0,1,0.5","2","false",""
"","html-keyboard-response","240","134133","0.0-266.0","32N49TQG3H4N85G9TEP0ZRRE6BHVAU","A18WSAKX5YN2FB","3566S7OX5D5NH74JOVOPTTMK8IR17K","","null","<img src=""img/food6.png"" style=""width:200px;border:14px solid red;"">","null","","","","","","","","","",""
"","image-keyboard-response","241","134256","0.0-268.0","32N49TQG3H4N85G9TEP0ZRRE6BHVAU","A18WSAKX5YN2FB","3566S7OX5D5NH74JOVOPTTMK8IR17K","","115.09999999962747","img/food6.png","76","120.90000000037253","3","1","2","2","1,0.5,0,1,0.5,0,0.5,0,1","0.5,0,1,0.5,0,1,0,1,0.5","2","false",""
"","html-keyboard-response","242","134562","0.0-269.0","32N49TQG3H4N85G9TEP0ZRRE6BHVAU","A18WSAKX5YN2FB","3566S7OX5D5NH74JOVOPTTMK8IR17K","","null","<img src=""img/food6.png"" style=""width:200px; border:14px solid green;"">","null","","","","","","","","","",""
"","image-keyboard-response","243","135205","0.0-271.0","32N49TQG3H4N85G9TEP0ZRRE6BHVAU","A18WSAKX5YN2FB","3566S7OX5D5NH74JOVOPTTMK8IR17K","","632.8999999994412","img/food3.png","75","638.8999999994412","2","1","3","2","1,0.5,0,1,0.5,0,0.5,0,1","0.5,0,1,0.5,0,1,0,1,0.5","2","false",""
"","html-keyboard-response","244","135513","0.0-272.0","32N49TQG3H4N85G9TEP0ZRRE6BHVAU","A18WSAKX5YN2FB","3566S7OX5D5NH74JOVOPTTMK8IR17K","","null","<img src=""img/food3.png"" style=""width:200px; border:14px solid green;"">","null","","","","","","","","","",""
"","image-keyboard-response","245","135955","0.0-274.0","32N49TQG3H4N85G9TEP0ZRRE6BHVAU","A18WSAKX5YN2FB","3566S7OX5D5NH74JOVOPTTMK8IR17K","","436.69999999925494","img/food6.png","76","439.80000000074506","3","1","2","2","1,0.5,0,1,0.5,0,0.5,0,1","0.5,0,1,0.5,0,1,0,1,0.5","2","false",""
"","html-keyboard-response","246","136261","0.0-275.0","32N49TQG3H4N85G9TEP0ZRRE6BHVAU","A18WSAKX5YN2FB","3566S7OX5D5NH74JOVOPTTMK8IR17K","","null","<img src=""img/food6.png"" style=""width:200px; border:14px solid green;"">","null","","","","","","","","","",""
"","image-keyboard-response","247","136786","0.0-277.0","32N49TQG3H4N85G9TEP0ZRRE6BHVAU","A18WSAKX5YN2FB","3566S7OX5D5NH74JOVOPTTMK8IR17K","","517.7999999998137","img/food1.png","76","522.3999999994412","3","1","1","2","1,0.5,0,1,0.5,0,0.5,0,1","0.5,0,1,0.5,0,1,0,1,0.5","2","false",""
"","html-keyboard-response","248","137091","0.0-278.0","32N49TQG3H4N85G9TEP0ZRRE6BHVAU","A18WSAKX5YN2FB","3566S7OX5D5NH74JOVOPTTMK8IR17K","","null","<img src=""img/food1.png"" style=""width:200px; border:14px solid green;"">","null","","","","","","","","","",""
"","image-keyboard-response","249","137351","0.0-280.0","32N49TQG3H4N85G9TEP0ZRRE6BHVAU","A18WSAKX5YN2FB","3566S7OX5D5NH74JOVOPTTMK8IR17K","","251.20000000018626","img/food1.png","76","256.90000000037253","3","1","1","2","1,0.5,0,1,0.5,0,0.5,0,1","0.5,0,1,0.5,0,1,0,1,0.5","2","false",""
"","html-keyboard-response","250","137661","0.0-281.0","32N49TQG3H4N85G9TEP0ZRRE6BHVAU","A18WSAKX5YN2FB","3566S7OX5D5NH74JOVOPTTMK8IR17K","","null","<img src=""img/food1.png"" style=""width:200px; border:14px solid green;"">","null","","","","","","","","","",""
"","image-keyboard-response","251","138127","0.0-283.0","32N49TQG3H4N85G9TEP0ZRRE6BHVAU","A18WSAKX5YN2FB","3566S7OX5D5NH74JOVOPTTMK8IR17K","","459.29999999981374","img/food3.png","76","463.6000000005588","3","0","3","2","1,0.5,0,1,0.5,0,0.5,0,1","0.5,0,1,0.5,0,1,0,1,0.5","2","false",""
"","html-keyboard-response","252","138437","0.0-284.0","32N49TQG3H4N85G9TEP0ZRRE6BHVAU","A18WSAKX5YN2FB","3566S7OX5D5NH74JOVOPTTMK8IR17K","","null","<img src=""img/food3.png"" style=""width:200px;border:14px solid red;"">","null","","","","","","","","","",""
"","image-keyboard-response","253","138557","0.0-286.0","32N49TQG3H4N85G9TEP0ZRRE6BHVAU","A18WSAKX5YN2FB","3566S7OX5D5NH74JOVOPTTMK8IR17K","","112.79999999981374","img/food1.png","75","116.3999999994412","2","0","1","2","1,0.5,0,1,0.5,0,0.5,0,1","0.5,0,1,0.5,0,1,0,1,0.5","2","false",""
"","html-keyboard-response","254","138864","0.0-287.0","32N49TQG3H4N85G9TEP0ZRRE6BHVAU","A18WSAKX5YN2FB","3566S7OX5D5NH74JOVOPTTMK8IR17K","","null","<img src=""img/food1.png"" style=""width:200px;border:14px solid red;"">","null","","","","","","","","","",""
"","image-keyboard-response","255","139148","0.0-289.0","32N49TQG3H4N85G9TEP0ZRRE6BHVAU","A18WSAKX5YN2FB","3566S7OX5D5NH74JOVOPTTMK8IR17K","","274.5","img/food6.png","76","281","3","1","2","2","1,0.5,0,1,0.5,0,0.5,0,1","0.5,0,1,0.5,0,1,0,1,0.5","2","false",""
"","html-keyboard-response","256","139455","0.0-290.0","32N49TQG3H4N85G9TEP0ZRRE6BHVAU","A18WSAKX5YN2FB","3566S7OX5D5NH74JOVOPTTMK8IR17K","","null","<img src=""img/food6.png"" style=""width:200px; border:14px solid green;"">","null","","","","","","","","","",""
"","image-keyboard-response","257","139995","0.0-292.0","32N49TQG3H4N85G9TEP0ZRRE6BHVAU","A18WSAKX5YN2FB","3566S7OX5D5NH74JOVOPTTMK8IR17K","","530","img/food1.png","76","534.7999999998137","3","1","1","2","1,0.5,0,1,0.5,0,0.5,0,1","0.5,0,1,0.5,0,1,0,1,0.5","2","false",""
"","html-keyboard-response","258","140302","0.0-293.0","32N49TQG3H4N85G9TEP0ZRRE6BHVAU","A18WSAKX5YN2FB","3566S7OX5D5NH74JOVOPTTMK8IR17K","","null","<img src=""img/food1.png"" style=""width:200px; border:14px solid green;"">","null","","","","","","","","","",""
"","image-keyboard-response","259","140599","0.0-295.0","32N49TQG3H4N85G9TEP0ZRRE6BHVAU","A18WSAKX5YN2FB","3566S7OX5D5NH74JOVOPTTMK8IR17K","","289.29999999981374","img/food3.png","76","292.90000000037253","3","0","3","2","1,0.5,0,1,0.5,0,0.5,0,1","0.5,0,1,0.5,0,1,0,1,0.5","2","false",""
"","html-keyboard-response","260","140909","0.0-296.0","32N49TQG3H4N85G9TEP0ZRRE6BHVAU","A18WSAKX5YN2FB","3566S7OX5D5NH74JOVOPTTMK8IR17K","","null","<img src=""img/food3.png"" style=""width:200px;border:14px solid red;"">","null","","","","","","","","","",""
"","image-keyboard-response","261","141384","0.0-298.0","32N49TQG3H4N85G9TEP0ZRRE6BHVAU","A18WSAKX5YN2FB","3566S7OX5D5NH74JOVOPTTMK8IR17K","","465","img/food1.png","76","471.09999999962747","3","1","1","2","1,0.5,0,1,0.5,0,0.5,0,1","0.5,0,1,0.5,0,1,0,1,0.5","2","false",""
"","html-keyboard-response","262","141690","0.0-299.0","32N49TQG3H4N85G9TEP0ZRRE6BHVAU","A18WSAKX5YN2FB","3566S7OX5D5NH74JOVOPTTMK8IR17K","","null","<img src=""img/food1.png"" style=""width:200px; border:14px solid green;"">","null","","","","","","","","","",""
"","image-keyboard-response","263","142268","0.0-301.0","32N49TQG3H4N85G9TEP0ZRRE6BHVAU","A18WSAKX5YN2FB","3566S7OX5D5NH74JOVOPTTMK8IR17K","","568.7000000001863","img/food3.png","75","574.2999999998137","2","1","3","2","1,0.5,0,1,0.5,0,0.5,0,1","0.5,0,1,0.5,0,1,0,1,0.5","2","false",""
"","html-keyboard-response","264","142578","0.0-302.0","32N49TQG3H4N85G9TEP0ZRRE6BHVAU","A18WSAKX5YN2FB","3566S7OX5D5NH74JOVOPTTMK8IR17K","","null","<img src=""img/food3.png"" style=""width:200px; border:14px solid green;"">","null","","","","","","","","","",""
"","image-keyboard-response","265","142950","0.0-304.0","32N49TQG3H4N85G9TEP0ZRRE6BHVAU","A18WSAKX5YN2FB","3566S7OX5D5NH74JOVOPTTMK8IR17K","","359.20000000018626","img/food3.png","75","365.8999999994412","2","1","3","2","1,0.5,0,1,0.5,0,0.5,0,1","0.5,0,1,0.5,0,1,0,1,0.5","2","false",""
"","html-keyboard-response","266","143257","0.0-305.0","32N49TQG3H4N85G9TEP0ZRRE6BHVAU","A18WSAKX5YN2FB","3566S7OX5D5NH74JOVOPTTMK8IR17K","","null","<img src=""img/food3.png"" style=""width:200px; border:14px solid green;"">","null","","","","","","","","","",""
"","image-keyboard-response","267","143623","0.0-307.0","32N49TQG3H4N85G9TEP0ZRRE6BHVAU","A18WSAKX5YN2FB","3566S7OX5D5NH74JOVOPTTMK8IR17K","","357.8999999994412","img/food1.png","76","361.90000000037253","3","1","1","2","1,0.5,0,1,0.5,0,0.5,0,1","0.5,0,1,0.5,0,1,0,1,0.5","2","false",""
"","html-keyboard-response","268","143930","0.0-308.0","32N49TQG3H4N85G9TEP0ZRRE6BHVAU","A18WSAKX5YN2FB","3566S7OX5D5NH74JOVOPTTMK8IR17K","","null","<img src=""img/food1.png"" style=""width:200px; border:14px solid green;"">","null","","","","","","","","","",""
"","image-keyboard-response","269","144331","0.0-310.0","32N49TQG3H4N85G9TEP0ZRRE6BHVAU","A18WSAKX5YN2FB","3566S7OX5D5NH74JOVOPTTMK8IR17K","","394.79999999981374","img/food6.png","76","398.20000000018626","3","1","2","2","1,0.5,0,1,0.5,0,0.5,0,1","0.5,0,1,0.5,0,1,0,1,0.5","2","false",""
"","html-keyboard-response","270","144640","0.0-311.0","32N49TQG3H4N85G9TEP0ZRRE6BHVAU","A18WSAKX5YN2FB","3566S7OX5D5NH74JOVOPTTMK8IR17K","","null","<img src=""img/food6.png"" style=""width:200px; border:14px solid green;"">","null","","","","","","","","","",""
"","image-keyboard-response","271","144975","0.0-313.0","32N49TQG3H4N85G9TEP0ZRRE6BHVAU","A18WSAKX5YN2FB","3566S7OX5D5NH74JOVOPTTMK8IR17K","","325.5","img/food6.png","76","332.5","3","1","2","2","1,0.5,0,1,0.5,0,0.5,0,1","0.5,0,1,0.5,0,1,0,1,0.5","2","false",""
"","html-keyboard-response","272","145282","0.0-314.0","32N49TQG3H4N85G9TEP0ZRRE6BHVAU","A18WSAKX5YN2FB","3566S7OX5D5NH74JOVOPTTMK8IR17K","","null","<img src=""img/food6.png"" style=""width:200px; border:14px solid green;"">","null","","","","","","","","","",""
"","image-keyboard-response","273","145759","0.0-316.0","32N49TQG3H4N85G9TEP0ZRRE6BHVAU","A18WSAKX5YN2FB","3566S7OX5D5NH74JOVOPTTMK8IR17K","","468.1000000005588","img/food3.png","75","473.8999999994412","2","1","3","2","1,0.5,0,1,0.5,0,0.5,0,1","0.5,0,1,0.5,0,1,0,1,0.5","2","false",""
"","html-keyboard-response","274","146068","0.0-317.0","32N49TQG3H4N85G9TEP0ZRRE6BHVAU","A18WSAKX5YN2FB","3566S7OX5D5NH74JOVOPTTMK8IR17K","","null","<img src=""img/food3.png"" style=""width:200px; border:14px solid green;"">","null","","","","","","","","","",""
"","image-keyboard-response","275","146567","0.0-319.0","32N49TQG3H4N85G9TEP0ZRRE6BHVAU","A18WSAKX5YN2FB","3566S7OX5D5NH74JOVOPTTMK8IR17K","","490.1000000005588","img/food6.png","76","495.5","3","1","2","2","1,0.5,0,1,0.5,0,0.5,0,1","0.5,0,1,0.5,0,1,0,1,0.5","2","false",""
"","html-keyboard-response","276","146875","0.0-320.0","32N49TQG3H4N85G9TEP0ZRRE6BHVAU","A18WSAKX5YN2FB","3566S7OX5D5NH74JOVOPTTMK8IR17K","","null","<img src=""img/food6.png"" style=""width:200px; border:14px solid green;"">","null","","","","","","","","","",""
"","image-keyboard-response","277","147432","0.0-322.0","32N49TQG3H4N85G9TEP0ZRRE6BHVAU","A18WSAKX5YN2FB","3566S7OX5D5NH74JOVOPTTMK8IR17K","","549.1000000005588","img/food3.png","75","554.0999999996275","2","1","3","2","1,0.5,0,1,0.5,0,0.5,0,1","0.5,0,1,0.5,0,1,0,1,0.5","2","false",""
"","html-keyboard-response","278","147742","0.0-323.0","32N49TQG3H4N85G9TEP0ZRRE6BHVAU","A18WSAKX5YN2FB","3566S7OX5D5NH74JOVOPTTMK8IR17K","","null","<img src=""img/food3.png"" style=""width:200px; border:14px solid green;"">","null","","","","","","","","","",""
"","image-keyboard-response","279","148107","0.0-325.0","32N49TQG3H4N85G9TEP0ZRRE6BHVAU","A18WSAKX5YN2FB","3566S7OX5D5NH74JOVOPTTMK8IR17K","","359.90000000037253","img/food3.png","75","363","2","1","3","2","1,0.5,0,1,0.5,0,0.5,0,1","0.5,0,1,0.5,0,1,0,1,0.5","2","false",""
"","html-keyboard-response","280","148417","0.0-326.0","32N49TQG3H4N85G9TEP0ZRRE6BHVAU","A18WSAKX5YN2FB","3566S7OX5D5NH74JOVOPTTMK8IR17K","","null","<img src=""img/food3.png"" style=""width:200px; border:14px solid green;"">","null","","","","","","","","","",""
"","image-keyboard-response","281","148869","0.0-328.0","32N49TQG3H4N85G9TEP0ZRRE6BHVAU","A18WSAKX5YN2FB","3566S7OX5D5NH74JOVOPTTMK8IR17K","","442.69999999925494","img/food1.png","76","447.40000000037253","3","1","1","2","1,0.5,0,1,0.5,0,0.5,0,1","0.5,0,1,0.5,0,1,0,1,0.5","2","false",""
"","html-keyboard-response","282","149178","0.0-329.0","32N49TQG3H4N85G9TEP0ZRRE6BHVAU","A18WSAKX5YN2FB","3566S7OX5D5NH74JOVOPTTMK8IR17K","","null","<img src=""img/food1.png"" style=""width:200px; border:14px solid green;"">","null","","","","","","","","","",""
"","image-keyboard-response","283","149511","0.0-331.0","32N49TQG3H4N85G9TEP0ZRRE6BHVAU","A18WSAKX5YN2FB","3566S7OX5D5NH74JOVOPTTMK8IR17K","","325.70000000018626","img/food1.png","76","328.90000000037253","3","1","1","2","1,0.5,0,1,0.5,0,0.5,0,1","0.5,0,1,0.5,0,1,0,1,0.5","2","false",""
"","html-keyboard-response","284","149820","0.0-332.0","32N49TQG3H4N85G9TEP0ZRRE6BHVAU","A18WSAKX5YN2FB","3566S7OX5D5NH74JOVOPTTMK8IR17K","","null","<img src=""img/food1.png"" style=""width:200px; border:14px solid green;"">","null","","","","","","","","","",""
"","image-keyboard-response","285","150169","0.0-334.0","32N49TQG3H4N85G9TEP0ZRRE6BHVAU","A18WSAKX5YN2FB","3566S7OX5D5NH74JOVOPTTMK8IR17K","","341.1000000005588","img/food1.png","76","347.59999999962747","3","1","1","2","1,0.5,0,1,0.5,0,0.5,0,1","0.5,0,1,0.5,0,1,0,1,0.5","2","false",""
"","html-keyboard-response","286","150476","0.0-335.0","32N49TQG3H4N85G9TEP0ZRRE6BHVAU","A18WSAKX5YN2FB","3566S7OX5D5NH74JOVOPTTMK8IR17K","","null","<img src=""img/food1.png"" style=""width:200px; border:14px solid green;"">","null","","","","","","","","","",""
"","image-keyboard-response","287","150936","0.0-337.0","32N49TQG3H4N85G9TEP0ZRRE6BHVAU","A18WSAKX5YN2FB","3566S7OX5D5NH74JOVOPTTMK8IR17K","","448.59999999962747","img/food3.png","75","455.80000000074506","2","1","3","2","1,0.5,0,1,0.5,0,0.5,0,1","0.5,0,1,0.5,0,1,0,1,0.5","2","false",""
"","html-keyboard-response","288","151244","0.0-338.0","32N49TQG3H4N85G9TEP0ZRRE6BHVAU","A18WSAKX5YN2FB","3566S7OX5D5NH74JOVOPTTMK8IR17K","","null","<img src=""img/food3.png"" style=""width:200px; border:14px solid green;"">","null","","","","","","","","","",""
"","image-keyboard-response","289","151558","0.0-340.0","32N49TQG3H4N85G9TEP0ZRRE6BHVAU","A18WSAKX5YN2FB","3566S7OX5D5NH74JOVOPTTMK8IR17K","","303.20000000018626","img/food3.png","75","309","2","1","3","2","1,0.5,0,1,0.5,0,0.5,0,1","0.5,0,1,0.5,0,1,0,1,0.5","2","false",""
"","html-keyboard-response","290","151866","0.0-341.0","32N49TQG3H4N85G9TEP0ZRRE6BHVAU","A18WSAKX5YN2FB","3566S7OX5D5NH74JOVOPTTMK8IR17K","","null","<img src=""img/food3.png"" style=""width:200px; border:14px solid green;"">","null","","","","","","","","","",""
"","image-keyboard-response","291","152257","0.0-343.0","32N49TQG3H4N85G9TEP0ZRRE6BHVAU","A18WSAKX5YN2FB","3566S7OX5D5NH74JOVOPTTMK8IR17K","","379.8999999994412","img/food1.png","76","387.20000000018626","3","1","1","2","1,0.5,0,1,0.5,0,0.5,0,1","0.5,0,1,0.5,0,1,0,1,0.5","2","false",""
"","html-keyboard-response","292","152566","0.0-344.0","32N49TQG3H4N85G9TEP0ZRRE6BHVAU","A18WSAKX5YN2FB","3566S7OX5D5NH74JOVOPTTMK8IR17K","","null","<img src=""img/food1.png"" style=""width:200px; border:14px solid green;"">","null","","","","","","","","","",""
"","image-keyboard-response","293","152902","0.0-346.0","32N49TQG3H4N85G9TEP0ZRRE6BHVAU","A18WSAKX5YN2FB","3566S7OX5D5NH74JOVOPTTMK8IR17K","","326.90000000037253","img/food1.png","76","332.6000000005588","3","1","1","2","1,0.5,0,1,0.5,0,0.5,0,1","0.5,0,1,0.5,0,1,0,1,0.5","2","false",""
"","html-keyboard-response","294","153209","0.0-347.0","32N49TQG3H4N85G9TEP0ZRRE6BHVAU","A18WSAKX5YN2FB","3566S7OX5D5NH74JOVOPTTMK8IR17K","","null","<img src=""img/food1.png"" style=""width:200px; border:14px solid green;"">","null","","","","","","","","","",""
"","image-keyboard-response","295","153639","0.0-349.0","32N49TQG3H4N85G9TEP0ZRRE6BHVAU","A18WSAKX5YN2FB","3566S7OX5D5NH74JOVOPTTMK8IR17K","","418.1000000005588","img/food6.png","76","424.79999999981374","3","1","2","2","1,0.5,0,1,0.5,0,0.5,0,1","0.5,0,1,0.5,0,1,0,1,0.5","2","false",""
"","html-keyboard-response","296","153945","0.0-350.0","32N49TQG3H4N85G9TEP0ZRRE6BHVAU","A18WSAKX5YN2FB","3566S7OX5D5NH74JOVOPTTMK8IR17K","","null","<img src=""img/food6.png"" style=""width:200px; border:14px solid green;"">","null","","","","","","","","","",""
"","image-keyboard-response","297","154387","0.0-352.0","32N49TQG3H4N85G9TEP0ZRRE6BHVAU","A18WSAKX5YN2FB","3566S7OX5D5NH74JOVOPTTMK8IR17K","","432.6000000005588","img/food3.png","75","438.6000000005588","2","1","3","2","1,0.5,0,1,0.5,0,0.5,0,1","0.5,0,1,0.5,0,1,0,1,0.5","2","false",""
"","html-keyboard-response","298","154693","0.0-353.0","32N49TQG3H4N85G9TEP0ZRRE6BHVAU","A18WSAKX5YN2FB","3566S7OX5D5NH74JOVOPTTMK8IR17K","","null","<img src=""img/food3.png"" style=""width:200px; border:14px solid green;"">","null","","","","","","","","","",""
"","image-keyboard-response","299","154978","0.0-355.0","32N49TQG3H4N85G9TEP0ZRRE6BHVAU","A18WSAKX5YN2FB","3566S7OX5D5NH74JOVOPTTMK8IR17K","","277.59999999962747","img/food3.png","75","282.20000000018626","2","1","3","2","1,0.5,0,1,0.5,0,0.5,0,1","0.5,0,1,0.5,0,1,0,1,0.5","2","false",""
"","html-keyboard-response","300","155288","0.0-356.0","32N49TQG3H4N85G9TEP0ZRRE6BHVAU","A18WSAKX5YN2FB","3566S7OX5D5NH74JOVOPTTMK8IR17K","","null","<img src=""img/food3.png"" style=""width:200px; border:14px solid green;"">","null","","","","","","","","","",""
"","image-keyboard-response","301","155658","0.0-358.0","32N49TQG3H4N85G9TEP0ZRRE6BHVAU","A18WSAKX5YN2FB","3566S7OX5D5NH74JOVOPTTMK8IR17K","","359.40000000037253","img/food1.png","76","366.09999999962747","3","1","1","2","1,0.5,0,1,0.5,0,0.5,0,1","0.5,0,1,0.5,0,1,0,1,0.5","2","false",""
"","html-keyboard-response","302","155966","0.0-359.0","32N49TQG3H4N85G9TEP0ZRRE6BHVAU","A18WSAKX5YN2FB","3566S7OX5D5NH74JOVOPTTMK8IR17K","","null","<img src=""img/food1.png"" style=""width:200px; border:14px solid green;"">","null","","","","","","","","","",""
"","image-keyboard-response","303","156289","0.0-361.0","32N49TQG3H4N85G9TEP0ZRRE6BHVAU","A18WSAKX5YN2FB","3566S7OX5D5NH74JOVOPTTMK8IR17K","","310.20000000018626","img/food3.png","76","317.5","3","1","3","2","1,0.5,0,1,0.5,0,0.5,0,1","0.5,0,1,0.5,0,1,0,1,0.5","2","false",""
"","html-keyboard-response","304","156596","0.0-362.0","32N49TQG3H4N85G9TEP0ZRRE6BHVAU","A18WSAKX5YN2FB","3566S7OX5D5NH74JOVOPTTMK8IR17K","","null","<img src=""img/food3.png"" style=""width:200px; border:14px solid green;"">","null","","","","","","","","","",""
"","image-keyboard-response","305","157363","0.0-364.0","32N49TQG3H4N85G9TEP0ZRRE6BHVAU","A18WSAKX5YN2FB","3566S7OX5D5NH74JOVOPTTMK8IR17K","","757.7000000001863","img/food3.png","75","763.2999999998137","2","1","3","2","1,0.5,0,1,0.5,0,0.5,0,1","0.5,0,1,0.5,0,1,0,1,0.5","2","false",""
"","html-keyboard-response","306","157669","0.0-365.0","32N49TQG3H4N85G9TEP0ZRRE6BHVAU","A18WSAKX5YN2FB","3566S7OX5D5NH74JOVOPTTMK8IR17K","","null","<img src=""img/food3.png"" style=""width:200px; border:14px solid green;"">","null","","","","","","","","","",""
"","image-keyboard-response","307","158065","0.0-367.0","32N49TQG3H4N85G9TEP0ZRRE6BHVAU","A18WSAKX5YN2FB","3566S7OX5D5NH74JOVOPTTMK8IR17K","","387.8999999994412","img/food1.png","76","393.70000000018626","3","1","1","2","1,0.5,0,1,0.5,0,0.5,0,1","0.5,0,1,0.5,0,1,0,1,0.5","2","false",""
"","html-keyboard-response","308","158373","0.0-368.0","32N49TQG3H4N85G9TEP0ZRRE6BHVAU","A18WSAKX5YN2FB","3566S7OX5D5NH74JOVOPTTMK8IR17K","","null","<img src=""img/food1.png"" style=""width:200px; border:14px solid green;"">","null","","","","","","","","","",""
"","image-keyboard-response","309","158551","0.0-370.0","32N49TQG3H4N85G9TEP0ZRRE6BHVAU","A18WSAKX5YN2FB","3566S7OX5D5NH74JOVOPTTMK8IR17K","","168.40000000037253","img/food3.png","76","175.5","3","1","3","2","1,0.5,0,1,0.5,0,0.5,0,1","0.5,0,1,0.5,0,1,0,1,0.5","2","false",""
"","html-keyboard-response","310","158860","0.0-371.0","32N49TQG3H4N85G9TEP0ZRRE6BHVAU","A18WSAKX5YN2FB","3566S7OX5D5NH74JOVOPTTMK8IR17K","","null","<img src=""img/food3.png"" style=""width:200px; border:14px solid green;"">","null","","","","","","","","","",""
"","image-keyboard-response","311","159321","0.0-373.0","32N49TQG3H4N85G9TEP0ZRRE6BHVAU","A18WSAKX5YN2FB","3566S7OX5D5NH74JOVOPTTMK8IR17K","","452.59999999962747","img/food3.png","75","458.59999999962747","2","1","3","2","1,0.5,0,1,0.5,0,0.5,0,1","0.5,0,1,0.5,0,1,0,1,0.5","2","false",""
"","html-keyboard-response","312","159628","0.0-374.0","32N49TQG3H4N85G9TEP0ZRRE6BHVAU","A18WSAKX5YN2FB","3566S7OX5D5NH74JOVOPTTMK8IR17K","","null","<img src=""img/food3.png"" style=""width:200px; border:14px solid green;"">","null","","","","","","","","","",""
"","image-keyboard-response","313","160082","0.0-376.0","32N49TQG3H4N85G9TEP0ZRRE6BHVAU","A18WSAKX5YN2FB","3566S7OX5D5NH74JOVOPTTMK8IR17K","","445.3999999994412","img/food6.png","76","452.19999999925494","3","1","2","2","1,0.5,0,1,0.5,0,0.5,0,1","0.5,0,1,0.5,0,1,0,1,0.5","2","false",""
"","html-keyboard-response","314","160387","0.0-377.0","32N49TQG3H4N85G9TEP0ZRRE6BHVAU","A18WSAKX5YN2FB","3566S7OX5D5NH74JOVOPTTMK8IR17K","","null","<img src=""img/food6.png"" style=""width:200px; border:14px solid green;"">","null","","","","","","","","","",""
"","image-keyboard-response","315","160957","0.0-379.0","32N49TQG3H4N85G9TEP0ZRRE6BHVAU","A18WSAKX5YN2FB","3566S7OX5D5NH74JOVOPTTMK8IR17K","","559.7999999998137","img/food1.png","76","565.2999999998137","3","1","1","2","1,0.5,0,1,0.5,0,0.5,0,1","0.5,0,1,0.5,0,1,0,1,0.5","2","false",""
"","html-keyboard-response","316","161262","0.0-380.0","32N49TQG3H4N85G9TEP0ZRRE6BHVAU","A18WSAKX5YN2FB","3566S7OX5D5NH74JOVOPTTMK8IR17K","","null","<img src=""img/food1.png"" style=""width:200px; border:14px solid green;"">","null","","","","","","","","","",""
"","image-keyboard-response","317","161649","0.0-382.0","32N49TQG3H4N85G9TEP0ZRRE6BHVAU","A18WSAKX5YN2FB","3566S7OX5D5NH74JOVOPTTMK8IR17K","","377.79999999981374","img/food1.png","76","383.40000000037253","3","1","1","2","1,0.5,0,1,0.5,0,0.5,0,1","0.5,0,1,0.5,0,1,0,1,0.5","2","false",""
"","html-keyboard-response","318","161955","0.0-383.0","32N49TQG3H4N85G9TEP0ZRRE6BHVAU","A18WSAKX5YN2FB","3566S7OX5D5NH74JOVOPTTMK8IR17K","","null","<img src=""img/food1.png"" style=""width:200px; border:14px solid green;"">","null","","","","","","","","","",""
"","image-keyboard-response","319","162469","0.0-385.0","32N49TQG3H4N85G9TEP0ZRRE6BHVAU","A18WSAKX5YN2FB","3566S7OX5D5NH74JOVOPTTMK8IR17K","","504.09999999962747","img/food6.png","76","509.29999999981374","3","1","2","2","1,0.5,0,1,0.5,0,0.5,0,1","0.5,0,1,0.5,0,1,0,1,0.5","2","false",""
"","html-keyboard-response","320","162778","0.0-386.0","32N49TQG3H4N85G9TEP0ZRRE6BHVAU","A18WSAKX5YN2FB","3566S7OX5D5NH74JOVOPTTMK8IR17K","","null","<img src=""img/food6.png"" style=""width:200px; border:14px solid green;"">","null","","","","","","","","","",""
"","image-keyboard-response","321","163079","0.0-388.0","32N49TQG3H4N85G9TEP0ZRRE6BHVAU","A18WSAKX5YN2FB","3566S7OX5D5NH74JOVOPTTMK8IR17K","","293.40000000037253","img/food6.png","76","298.59999999962747","3","1","2","2","1,0.5,0,1,0.5,0,0.5,0,1","0.5,0,1,0.5,0,1,0,1,0.5","2","false",""
"","html-keyboard-response","322","163387","0.0-389.0","32N49TQG3H4N85G9TEP0ZRRE6BHVAU","A18WSAKX5YN2FB","3566S7OX5D5NH74JOVOPTTMK8IR17K","","null","<img src=""img/food6.png"" style=""width:200px; border:14px solid green;"">","null","","","","","","","","","",""
"","image-keyboard-response","323","163899","0.0-391.0","32N49TQG3H4N85G9TEP0ZRRE6BHVAU","A18WSAKX5YN2FB","3566S7OX5D5NH74JOVOPTTMK8IR17K","","502","img/food1.png","76","507.80000000074506","3","1","1","2","1,0.5,0,1,0.5,0,0.5,0,1","0.5,0,1,0.5,0,1,0,1,0.5","2","false",""
"","html-keyboard-response","324","164205","0.0-392.0","32N49TQG3H4N85G9TEP0ZRRE6BHVAU","A18WSAKX5YN2FB","3566S7OX5D5NH74JOVOPTTMK8IR17K","","null","<img src=""img/food1.png"" style=""width:200px; border:14px solid green;"">","null","","","","","","","","","",""
"","image-keyboard-response","325","164542","0.0-394.0","32N49TQG3H4N85G9TEP0ZRRE6BHVAU","A18WSAKX5YN2FB","3566S7OX5D5NH74JOVOPTTMK8IR17K","","326.5","img/food1.png","76","333","3","1","1","2","1,0.5,0,1,0.5,0,0.5,0,1","0.5,0,1,0.5,0,1,0,1,0.5","2","false",""
"","html-keyboard-response","326","164848","0.0-395.0","32N49TQG3H4N85G9TEP0ZRRE6BHVAU","A18WSAKX5YN2FB","3566S7OX5D5NH74JOVOPTTMK8IR17K","","null","<img src=""img/food1.png"" style=""width:200px; border:14px solid green;"">","null","","","","","","","","","",""
"","image-keyboard-response","327","165342","0.0-397.0","32N49TQG3H4N85G9TEP0ZRRE6BHVAU","A18WSAKX5YN2FB","3566S7OX5D5NH74JOVOPTTMK8IR17K","","487.70000000018626","img/food6.png","76","491.59999999962747","3","1","2","2","1,0.5,0,1,0.5,0,0.5,0,1","0.5,0,1,0.5,0,1,0,1,0.5","2","false",""
"","html-keyboard-response","328","165651","0.0-398.0","32N49TQG3H4N85G9TEP0ZRRE6BHVAU","A18WSAKX5YN2FB","3566S7OX5D5NH74JOVOPTTMK8IR17K","","null","<img src=""img/food6.png"" style=""width:200px; border:14px solid green;"">","null","","","","","","","","","",""
"","image-keyboard-response","329","166107","0.0-400.0","32N49TQG3H4N85G9TEP0ZRRE6BHVAU","A18WSAKX5YN2FB","3566S7OX5D5NH74JOVOPTTMK8IR17K","","448.09999999962747","img/food1.png","76","452.70000000018626","3","1","1","2","1,0.5,0,1,0.5,0,0.5,0,1","0.5,0,1,0.5,0,1,0,1,0.5","2","false",""
"","html-keyboard-response","330","166414","0.0-401.0","32N49TQG3H4N85G9TEP0ZRRE6BHVAU","A18WSAKX5YN2FB","3566S7OX5D5NH74JOVOPTTMK8IR17K","","null","<img src=""img/food1.png"" style=""width:200px; border:14px solid green;"">","null","","","","","","","","","",""
"","image-keyboard-response","331","167081","0.0-403.0","32N49TQG3H4N85G9TEP0ZRRE6BHVAU","A18WSAKX5YN2FB","3566S7OX5D5NH74JOVOPTTMK8IR17K","","657.8000000007451","img/food3.png","75","663.7999999998137","2","1","3","2","1,0.5,0,1,0.5,0,0.5,0,1","0.5,0,1,0.5,0,1,0,1,0.5","2","false",""
"","html-keyboard-response","332","167390","0.0-404.0","32N49TQG3H4N85G9TEP0ZRRE6BHVAU","A18WSAKX5YN2FB","3566S7OX5D5NH74JOVOPTTMK8IR17K","","null","<img src=""img/food3.png"" style=""width:200px; border:14px solid green;"">","null","","","","","","","","","",""
"","image-keyboard-response","333","167758","0.0-406.0","32N49TQG3H4N85G9TEP0ZRRE6BHVAU","A18WSAKX5YN2FB","3566S7OX5D5NH74JOVOPTTMK8IR17K","","357.69999999925494","img/food3.png","75","364.8999999994412","2","1","3","2","1,0.5,0,1,0.5,0,0.5,0,1","0.5,0,1,0.5,0,1,0,1,0.5","2","false",""
"","html-keyboard-response","334","168067","0.0-407.0","32N49TQG3H4N85G9TEP0ZRRE6BHVAU","A18WSAKX5YN2FB","3566S7OX5D5NH74JOVOPTTMK8IR17K","","null","<img src=""img/food3.png"" style=""width:200px; border:14px solid green;"">","null","","","","","","","","","",""
"","image-keyboard-response","335","168410","0.0-409.0","32N49TQG3H4N85G9TEP0ZRRE6BHVAU","A18WSAKX5YN2FB","3566S7OX5D5NH74JOVOPTTMK8IR17K","","331","img/food3.png","75","339","2","1","3","2","1,0.5,0,1,0.5,0,0.5,0,1","0.5,0,1,0.5,0,1,0,1,0.5","2","false",""
"","html-keyboard-response","336","168716","0.0-410.0","32N49TQG3H4N85G9TEP0ZRRE6BHVAU","A18WSAKX5YN2FB","3566S7OX5D5NH74JOVOPTTMK8IR17K","","null","<img src=""img/food3.png"" style=""width:200px; border:14px solid green;"">","null","","","","","","","","","",""
"","image-keyboard-response","337","169059","0.0-412.0","32N49TQG3H4N85G9TEP0ZRRE6BHVAU","A18WSAKX5YN2FB","3566S7OX5D5NH74JOVOPTTMK8IR17K","","335.79999999981374","img/food1.png","76","341.20000000018626","3","1","1","2","1,0.5,0,1,0.5,0,0.5,0,1","0.5,0,1,0.5,0,1,0,1,0.5","2","false",""
"","html-keyboard-response","338","169366","0.0-413.0","32N49TQG3H4N85G9TEP0ZRRE6BHVAU","A18WSAKX5YN2FB","3566S7OX5D5NH74JOVOPTTMK8IR17K","","null","<img src=""img/food1.png"" style=""width:200px; border:14px solid green;"">","null","","","","","","","","","",""
"","image-keyboard-response","339","169811","0.0-415.0","32N49TQG3H4N85G9TEP0ZRRE6BHVAU","A18WSAKX5YN2FB","3566S7OX5D5NH74JOVOPTTMK8IR17K","","435.5","img/food6.png","76","447.70000000018626","3","1","2","2","1,0.5,0,1,0.5,0,0.5,0,1","0.5,0,1,0.5,0,1,0,1,0.5","2","false",""
"","html-keyboard-response","340","170123","0.0-416.0","32N49TQG3H4N85G9TEP0ZRRE6BHVAU","A18WSAKX5YN2FB","3566S7OX5D5NH74JOVOPTTMK8IR17K","","null","<img src=""img/food6.png"" style=""width:200px; border:14px solid green;"">","null","","","","","","","","","",""
"","image-keyboard-response","341","170793","0.0-418.0","32N49TQG3H4N85G9TEP0ZRRE6BHVAU","A18WSAKX5YN2FB","3566S7OX5D5NH74JOVOPTTMK8IR17K","","659.5","img/food1.png","76","665.4000000003725","3","1","1","2","1,0.5,0,1,0.5,0,0.5,0,1","0.5,0,1,0.5,0,1,0,1,0.5","2","false",""
"","html-keyboard-response","342","171101","0.0-419.0","32N49TQG3H4N85G9TEP0ZRRE6BHVAU","A18WSAKX5YN2FB","3566S7OX5D5NH74JOVOPTTMK8IR17K","","null","<img src=""img/food1.png"" style=""width:200px; border:14px solid green;"">","null","","","","","","","","","",""
"","image-keyboard-response","343","171611","0.0-421.0","32N49TQG3H4N85G9TEP0ZRRE6BHVAU","A18WSAKX5YN2FB","3566S7OX5D5NH74JOVOPTTMK8IR17K","","501.79999999981374","img/food6.png","76","508.70000000018626","3","1","2","2","1,0.5,0,1,0.5,0,0.5,0,1","0.5,0,1,0.5,0,1,0,1,0.5","2","false",""
"","html-keyboard-response","344","171917","0.0-422.0","32N49TQG3H4N85G9TEP0ZRRE6BHVAU","A18WSAKX5YN2FB","3566S7OX5D5NH74JOVOPTTMK8IR17K","","null","<img src=""img/food6.png"" style=""width:200px; border:14px solid green;"">","null","","","","","","","","","",""
"","image-keyboard-response","345","172365","0.0-424.0","32N49TQG3H4N85G9TEP0ZRRE6BHVAU","A18WSAKX5YN2FB","3566S7OX5D5NH74JOVOPTTMK8IR17K","","436.5","img/food1.png","76","443.59999999962747","3","1","1","2","1,0.5,0,1,0.5,0,0.5,0,1","0.5,0,1,0.5,0,1,0,1,0.5","2","false",""
"","html-keyboard-response","346","172673","0.0-425.0","32N49TQG3H4N85G9TEP0ZRRE6BHVAU","A18WSAKX5YN2FB","3566S7OX5D5NH74JOVOPTTMK8IR17K","","null","<img src=""img/food1.png"" style=""width:200px; border:14px solid green;"">","null","","","","","","","","","",""
"","image-keyboard-response","347","173153","0.0-427.0","32N49TQG3H4N85G9TEP0ZRRE6BHVAU","A18WSAKX5YN2FB","3566S7OX5D5NH74JOVOPTTMK8IR17K","","468.1000000005588","img/food3.png","76","474.79999999981374","3","1","3","2","1,0.5,0,1,0.5,0,0.5,0,1","0.5,0,1,0.5,0,1,0,1,0.5","2","false",""
"","html-keyboard-response","348","173459","0.0-428.0","32N49TQG3H4N85G9TEP0ZRRE6BHVAU","A18WSAKX5YN2FB","3566S7OX5D5NH74JOVOPTTMK8IR17K","","null","<img src=""img/food3.png"" style=""width:200px; border:14px solid green;"">","null","","","","","","","","","",""
"","image-keyboard-response","349","173792","0.0-430.0","32N49TQG3H4N85G9TEP0ZRRE6BHVAU","A18WSAKX5YN2FB","3566S7OX5D5NH74JOVOPTTMK8IR17K","","322.20000000018626","img/food3.png","75","328.8999999994412","2","1","3","2","1,0.5,0,1,0.5,0,0.5,0,1","0.5,0,1,0.5,0,1,0,1,0.5","2","false",""
"","html-keyboard-response","350","174098","0.0-431.0","32N49TQG3H4N85G9TEP0ZRRE6BHVAU","A18WSAKX5YN2FB","3566S7OX5D5NH74JOVOPTTMK8IR17K","","null","<img src=""img/food3.png"" style=""width:200px; border:14px solid green;"">","null","","","","","","","","","",""
"","image-keyboard-response","351","174524","0.0-433.0","32N49TQG3H4N85G9TEP0ZRRE6BHVAU","A18WSAKX5YN2FB","3566S7OX5D5NH74JOVOPTTMK8IR17K","","420.09999999962747","img/food6.png","76","425.69999999925494","3","1","2","2","1,0.5,0,1,0.5,0,0.5,0,1","0.5,0,1,0.5,0,1,0,1,0.5","2","false",""
"","html-keyboard-response","352","174829","0.0-434.0","32N49TQG3H4N85G9TEP0ZRRE6BHVAU","A18WSAKX5YN2FB","3566S7OX5D5NH74JOVOPTTMK8IR17K","","null","<img src=""img/food6.png"" style=""width:200px; border:14px solid green;"">","null","","","","","","","","","",""
"","image-keyboard-response","353","175290","0.0-436.0","32N49TQG3H4N85G9TEP0ZRRE6BHVAU","A18WSAKX5YN2FB","3566S7OX5D5NH74JOVOPTTMK8IR17K","","453","img/food3.png","75","459.5","2","1","3","2","1,0.5,0,1,0.5,0,0.5,0,1","0.5,0,1,0.5,0,1,0,1,0.5","2","false",""
"","html-keyboard-response","354","175596","0.0-437.0","32N49TQG3H4N85G9TEP0ZRRE6BHVAU","A18WSAKX5YN2FB","3566S7OX5D5NH74JOVOPTTMK8IR17K","","null","<img src=""img/food3.png"" style=""width:200px; border:14px solid green;"">","null","","","","","","","","","",""
"","image-keyboard-response","355","176045","0.0-439.0","32N49TQG3H4N85G9TEP0ZRRE6BHVAU","A18WSAKX5YN2FB","3566S7OX5D5NH74JOVOPTTMK8IR17K","","438.5","img/food1.png","76","444.29999999981374","3","1","1","2","1,0.5,0,1,0.5,0,0.5,0,1","0.5,0,1,0.5,0,1,0,1,0.5","2","false",""
"","html-keyboard-response","356","176352","0.0-440.0","32N49TQG3H4N85G9TEP0ZRRE6BHVAU","A18WSAKX5YN2FB","3566S7OX5D5NH74JOVOPTTMK8IR17K","","null","<img src=""img/food1.png"" style=""width:200px; border:14px solid green;"">","null","","","","","","","","","",""
"","image-keyboard-response","357","176805","0.0-442.0","32N49TQG3H4N85G9TEP0ZRRE6BHVAU","A18WSAKX5YN2FB","3566S7OX5D5NH74JOVOPTTMK8IR17K","","441.79999999981374","img/food6.png","76","448.79999999981374","3","1","2","2","1,0.5,0,1,0.5,0,0.5,0,1","0.5,0,1,0.5,0,1,0,1,0.5","2","false",""
"","html-keyboard-response","358","177113","0.0-443.0","32N49TQG3H4N85G9TEP0ZRRE6BHVAU","A18WSAKX5YN2FB","3566S7OX5D5NH74JOVOPTTMK8IR17K","","null","<img src=""img/food6.png"" style=""width:200px; border:14px solid green;"">","null","","","","","","","","","",""
"","image-keyboard-response","359","177547","0.0-445.0","32N49TQG3H4N85G9TEP0ZRRE6BHVAU","A18WSAKX5YN2FB","3566S7OX5D5NH74JOVOPTTMK8IR17K","","423.1000000005588","img/food1.png","76","430.1000000005588","3","1","1","2","1,0.5,0,1,0.5,0,0.5,0,1","0.5,0,1,0.5,0,1,0,1,0.5","2","false",""
"","html-keyboard-response","360","177854","0.0-446.0","32N49TQG3H4N85G9TEP0ZRRE6BHVAU","A18WSAKX5YN2FB","3566S7OX5D5NH74JOVOPTTMK8IR17K","","null","<img src=""img/food1.png"" style=""width:200px; border:14px solid green;"">","null","","","","","","","","","",""
"","image-keyboard-response","361","178202","0.0-448.0","32N49TQG3H4N85G9TEP0ZRRE6BHVAU","A18WSAKX5YN2FB","3566S7OX5D5NH74JOVOPTTMK8IR17K","","342.6000000005588","img/food1.png","76","347.59999999962747","3","1","1","2","1,0.5,0,1,0.5,0,0.5,0,1","0.5,0,1,0.5,0,1,0,1,0.5","2","false",""
"","html-keyboard-response","362","178509","0.0-449.0","32N49TQG3H4N85G9TEP0ZRRE6BHVAU","A18WSAKX5YN2FB","3566S7OX5D5NH74JOVOPTTMK8IR17K","","null","<img src=""img/food1.png"" style=""width:200px; border:14px solid green;"">","null","","","","","","","","","",""
"","image-keyboard-response","363","178951","0.0-451.0","32N49TQG3H4N85G9TEP0ZRRE6BHVAU","A18WSAKX5YN2FB","3566S7OX5D5NH74JOVOPTTMK8IR17K","","431.3999999994412","img/food6.png","76","437.5","3","1","2","2","1,0.5,0,1,0.5,0,0.5,0,1","0.5,0,1,0.5,0,1,0,1,0.5","2","false",""
"","html-keyboard-response","364","179260","0.0-452.0","32N49TQG3H4N85G9TEP0ZRRE6BHVAU","A18WSAKX5YN2FB","3566S7OX5D5NH74JOVOPTTMK8IR17K","","null","<img src=""img/food6.png"" style=""width:200px; border:14px solid green;"">","null","","","","","","","","","",""
"","instructions","365","182759","0.0-454.0","32N49TQG3H4N85G9TEP0ZRRE6BHVAU","A18WSAKX5YN2FB","3566S7OX5D5NH74JOVOPTTMK8IR17K","[{""page_index"":0,""viewing_time"":3489.7999999998137}]","3493","","","","","","","","","","","",""
"","survey-text","366","192282","0.0-455.0","32N49TQG3H4N85G9TEP0ZRRE6BHVAU","A18WSAKX5YN2FB","3566S7OX5D5NH74JOVOPTTMK8IR17K","","9508.099999999627","","","","","","","","","","","","{""Q0"":""A18WSAKX5YN2FB""}"
