"success","trial_type","trial_index","time_elapsed","internal_node_id","assignmentID","mturkID","hitID","view_history","rt","stimulus","key_press","reactionTime","a","r","warning","s","cond","reward_cond","reward_cond_actual","reward_matrix_idx","responses"
"true","fullscreen","0","4334","0.0-0.0","","","","","","","","","","","","","","","","",""
"","instructions","1","13915","0.0-1.0","","","","[{""page_index"":0,""viewing_time"":1407.2999999523163},{""page_index"":1,""viewing_time"":798.7000000476837},{""page_index"":2,""viewing_time"":1023.8999999761581},{""page_index"":3,""viewing_time"":1025.3999999761581},{""page_index"":4,""viewing_time"":1704.7000000476837},{""page_index"":5,""viewing_time"":2518},{""page_index"":6,""viewing_time"":1101.5}]","9579.699999928474","","","","","","","","","","","",""
"","instructions","2","27964","0.0-2.0","","","","[{""page_index"":0,""viewing_time"":13089.700000047684},{""page_index"":1,""viewing_time"":958.6999999284744}]","14048.5","","","","","","","","","","","",""
"","image-keyboard-response","3","28351","0.0-3.0","","","","","386.10000002384186","img/food2.png","74","387","1","0","false","3","2","1,0.5,0,1,0.5,0,0.5,0,1","0.5,0,1,0.5,0,1,0,1,0.5","2",""
"","html-keyboard-response","4","28653","0.0-4.0","","","","","null","<img src=""img/food2.png"" style=""width:200px;border:14px solid red;"">","null","","","","","","","","","",""
"","image-keyboard-response","5","29319","0.0-6.0","","","","","665.1000000238419","img/food2.png","75","666.1000000238419","2","1","false","3","2","1,0.5,0,1,0.5,0,0.5,0,1","0.5,0,1,0.5,0,1,0,1,0.5","2",""
"","html-keyboard-response","6","29622","0.0-7.0","","","","","null","<img src=""img/food2.png"" style=""width:200px; border:14px solid green;"">","null","","","","","","","","","",""
"","image-keyboard-response","7","30599","0.0-9.0","","","","","975.6999999284744","img/food4.png","74","976.6000000238419","1","0","false","1","2","1,0.5,0,1,0.5,0,0.5,0,1","0.5,0,1,0.5,0,1,0,1,0.5","2",""
"","html-keyboard-response","8","30900","0.0-10.0","","","","","null","<img src=""img/food4.png"" style=""width:200px;border:14px solid red;"">","null","","","","","","","","","",""
"","image-keyboard-response","9","31383","0.0-12.0","","","","","483","img/food4.png","76","483.6999999284744","3","1","false","1","2","1,0.5,0,1,0.5,0,0.5,0,1","0.5,0,1,0.5,0,1,0,1,0.5","2",""
"","html-keyboard-response","10","31686","0.0-13.0","","","","","null","<img src=""img/food4.png"" style=""width:200px; border:14px solid green;"">","null","","","","","","","","","",""
"","image-keyboard-response","11","32352","0.0-15.0","","","","","664.4000000953674","img/food2.png","75","665.2999999523163","2","1","false","3","2","1,0.5,0,1,0.5,0,0.5,0,1","0.5,0,1,0.5,0,1,0,1,0.5","2",""
"","html-keyboard-response","12","32653","0.0-16.0","","","","","null","<img src=""img/food2.png"" style=""width:200px; border:14px solid green;"">","null","","","","","","","","","",""
"","image-keyboard-response","13","33385","0.0-18.0","","","","","730.5","img/food1.png","74","731.5","1","0","false","2","2","1,0.5,0,1,0.5,0,0.5,0,1","0.5,0,1,0.5,0,1,0,1,0.5","2",""
"","html-keyboard-response","14","33687","0.0-19.0","","","","","null","<img src=""img/food1.png"" style=""width:200px;border:14px solid red;"">","null","","","","","","","","","",""
"","image-keyboard-response","15","34424","0.0-21.0","","","","","734.8999999761581","img/food4.png","76","736.2000000476837","3","1","false","1","2","1,0.5,0,1,0.5,0,0.5,0,1","0.5,0,1,0.5,0,1,0,1,0.5","2",""
"","html-keyboard-response","16","34726","0.0-22.0","","","","","null","<img src=""img/food4.png"" style=""width:200px; border:14px solid green;"">","null","","","","","","","","","",""
"","image-keyboard-response","17","35231","0.0-24.0","","","","","504","img/food4.png","76","505.10000002384186","3","1","false","1","2","1,0.5,0,1,0.5,0,0.5,0,1","0.5,0,1,0.5,0,1,0,1,0.5","2",""
"","html-keyboard-response","18","35533","0.0-25.0","","","","","null","<img src=""img/food4.png"" style=""width:200px; border:14px solid green;"">","null","","","","","","","","","",""
"","image-keyboard-response","19","35926","0.0-27.0","","","","","392.2000000476837","img/food4.png","76","393","3","1","false","1","2","1,0.5,0,1,0.5,0,0.5,0,1","0.5,0,1,0.5,0,1,0,1,0.5","2",""
"","html-keyboard-response","20","36229","0.0-28.0","","","","","null","<img src=""img/food4.png"" style=""width:200px; border:14px solid green;"">","null","","","","","","","","","",""
"","image-keyboard-response","21","36567","0.0-30.0","","","","","337.10000002384186","img/food4.png","76","338","3","1","false","1","2","1,0.5,0,1,0.5,0,0.5,0,1","0.5,0,1,0.5,0,1,0,1,0.5","2",""
"","html-keyboard-response","22","36869","0.0-31.0","","","","","null","<img src=""img/food4.png"" style=""width:200px; border:14px solid green;"">","null","","","","","","","","","",""
"","image-keyboard-response","23","37874","0.0-33.0","","","","","1004.1000000238419","img/food2.png","75","1004.9000000953674","2","1","false","3","2","1,0.5,0,1,0.5,0,0.5,0,1","0.5,0,1,0.5,0,1,0,1,0.5","2",""
"","html-keyboard-response","24","38176","0.0-34.0","","","","","null","<img src=""img/food2.png"" style=""width:200px; border:14px solid green;"">","null","","","","","","","","","",""
"","image-keyboard-response","25","38751","0.0-36.0","","","","","574.2999999523163","img/food4.png","76","575.2000000476837","3","1","false","1","2","1,0.5,0,1,0.5,0,0.5,0,1","0.5,0,1,0.5,0,1,0,1,0.5","2",""
"","html-keyboard-response","26","39052","0.0-37.0","","","","","null","<img src=""img/food4.png"" style=""width:200px; border:14px solid green;"">","null","","","","","","","","","",""
"","image-keyboard-response","27","39647","0.0-39.0","","","","","593.2999999523163","img/food1.png","74","594","1","0","false","2","2","1,0.5,0,1,0.5,0,0.5,0,1","0.5,0,1,0.5,0,1,0,1,0.5","2",""
"","html-keyboard-response","28","39948","0.0-40.0","","","","","null","<img src=""img/food1.png"" style=""width:200px;border:14px solid red;"">","null","","","","","","","","","",""
"","image-keyboard-response","29","40375","0.0-42.0","","","","","425.89999997615814","img/food1.png","74","426.2999999523163","1","0","false","2","2","1,0.5,0,1,0.5,0,0.5,0,1","0.5,0,1,0.5,0,1,0,1,0.5","2",""
"","html-keyboard-response","30","40677","0.0-43.0","","","","","null","<img src=""img/food1.png"" style=""width:200px;border:14px solid red;"">","null","","","","","","","","","",""
"","image-keyboard-response","31","41568","0.0-45.0","","","","","890.8999999761581","img/food4.png","76","891.5","3","1","false","1","2","1,0.5,0,1,0.5,0,0.5,0,1","0.5,0,1,0.5,0,1,0,1,0.5","2",""
"","html-keyboard-response","32","41870","0.0-46.0","","","","","null","<img src=""img/food4.png"" style=""width:200px; border:14px solid green;"">","null","","","","","","","","","",""
"","image-keyboard-response","33","42234","0.0-48.0","","","","","363.7000000476837","img/food4.png","76","364.2999999523163","3","1","false","1","2","1,0.5,0,1,0.5,0,0.5,0,1","0.5,0,1,0.5,0,1,0,1,0.5","2",""
"","html-keyboard-response","34","42536","0.0-49.0","","","","","null","<img src=""img/food4.png"" style=""width:200px; border:14px solid green;"">","null","","","","","","","","","",""
"","image-keyboard-response","35","42800","0.0-51.0","","","","","262.3000000715256","img/food4.png","76","263.2000000476837","3","1","false","1","2","1,0.5,0,1,0.5,0,0.5,0,1","0.5,0,1,0.5,0,1,0,1,0.5","2",""
"","html-keyboard-response","36","43102","0.0-52.0","","","","","null","<img src=""img/food4.png"" style=""width:200px; border:14px solid green;"">","null","","","","","","","","","",""
"","image-keyboard-response","37","43767","0.0-54.0","","","","","664.5","img/food2.png","75","665.2999999523163","2","1","false","3","2","1,0.5,0,1,0.5,0,0.5,0,1","0.5,0,1,0.5,0,1,0,1,0.5","2",""
"","html-keyboard-response","38","44069","0.0-55.0","","","","","null","<img src=""img/food2.png"" style=""width:200px; border:14px solid green;"">","null","","","","","","","","","",""
"","image-keyboard-response","39","44584","0.0-57.0","","","","","513.5","img/food1.png","75","514.7000000476837","2","0","false","2","2","1,0.5,0,1,0.5,0,0.5,0,1","0.5,0,1,0.5,0,1,0,1,0.5","2",""
"","html-keyboard-response","40","44886","0.0-58.0","","","","","null","<img src=""img/food1.png"" style=""width:200px;border:14px solid red;"">","null","","","","","","","","","",""
"","image-keyboard-response","41","45846","0.0-60.0","","","","","959.2999999523163","img/food2.png","75","960.1000000238419","2","1","false","3","2","1,0.5,0,1,0.5,0,0.5,0,1","0.5,0,1,0.5,0,1,0,1,0.5","2",""
"","html-keyboard-response","42","46148","0.0-61.0","","","","","null","<img src=""img/food2.png"" style=""width:200px; border:14px solid green;"">","null","","","","","","","","","",""
"","image-keyboard-response","43","46681","0.0-63.0","","","","","531.5","img/food1.png","76","532.5","3","1","false","2","2","1,0.5,0,1,0.5,0,0.5,0,1","0.5,0,1,0.5,0,1,0,1,0.5","2",""
"","html-keyboard-response","44","46983","0.0-64.0","","","","","null","<img src=""img/food1.png"" style=""width:200px; border:14px solid green;"">","null","","","","","","","","","",""
"","image-keyboard-response","45","47511","0.0-66.0","","","","","527.3000000715256","img/food4.png","76","528.2999999523163","3","1","false","1","2","1,0.5,0,1,0.5,0,0.5,0,1","0.5,0,1,0.5,0,1,0,1,0.5","2",""
"","html-keyboard-response","46","47813","0.0-67.0","","","","","null","<img src=""img/food4.png"" style=""width:200px; border:14px solid green;"">","null","","","","","","","","","",""
"","image-keyboard-response","47","48257","0.0-69.0","","","","","442.7000000476837","img/food1.png","76","443.39999997615814","3","1","false","2","2","1,0.5,0,1,0.5,0,0.5,0,1","0.5,0,1,0.5,0,1,0,1,0.5","2",""
"","html-keyboard-response","48","48558","0.0-70.0","","","","","null","<img src=""img/food1.png"" style=""width:200px; border:14px solid green;"">","null","","","","","","","","","",""
"","image-keyboard-response","49","48912","0.0-72.0","","","","","352.5","img/food1.png","76","353.3000000715256","3","1","false","2","2","1,0.5,0,1,0.5,0,0.5,0,1","0.5,0,1,0.5,0,1,0,1,0.5","2",""
"","html-keyboard-response","50","49214","0.0-73.0","","","","","null","<img src=""img/food1.png"" style=""width:200px; border:14px solid green;"">","null","","","","","","","","","",""
"","image-keyboard-response","51","49712","0.0-75.0","","","","","496.09999990463257","img/food4.png","76","497.2000000476837","3","1","false","1","2","1,0.5,0,1,0.5,0,0.5,0,1","0.5,0,1,0.5,0,1,0,1,0.5","2",""
"","html-keyboard-response","52","50014","0.0-76.0","","","","","null","<img src=""img/food4.png"" style=""width:200px; border:14px solid green;"">","null","","","","","","","","","",""
"","image-keyboard-response","53","50448","0.0-78.0","","","","","433.3000000715256","img/food1.png","76","434.10000002384186","3","1","false","2","2","1,0.5,0,1,0.5,0,0.5,0,1","0.5,0,1,0.5,0,1,0,1,0.5","2",""
"","html-keyboard-response","54","50750","0.0-79.0","","","","","null","<img src=""img/food1.png"" style=""width:200px; border:14px solid green;"">","null","","","","","","","","","",""
"","image-keyboard-response","55","51200","0.0-81.0","","","","","448.7999999523163","img/food2.png","76","449.5","3","0","false","3","2","1,0.5,0,1,0.5,0,0.5,0,1","0.5,0,1,0.5,0,1,0,1,0.5","2",""
"","html-keyboard-response","56","51503","0.0-82.0","","","","","null","<img src=""img/food2.png"" style=""width:200px;border:14px solid red;"">","null","","","","","","","","","",""
"","image-keyboard-response","57","52099","0.0-84.0","","","","","595.3999999761581","img/food1.png","76","596.6000000238419","3","1","false","2","2","1,0.5,0,1,0.5,0,0.5,0,1","0.5,0,1,0.5,0,1,0,1,0.5","2",""
"","html-keyboard-response","58","52402","0.0-85.0","","","","","null","<img src=""img/food1.png"" style=""width:200px; border:14px solid green;"">","null","","","","","","","","","",""
"","image-keyboard-response","59","52744","0.0-87.0","","","","","340.2999999523163","img/food1.png","76","341.2999999523163","3","1","false","2","2","1,0.5,0,1,0.5,0,0.5,0,1","0.5,0,1,0.5,0,1,0,1,0.5","2",""
"","html-keyboard-response","60","53045","0.0-88.0","","","","","null","<img src=""img/food1.png"" style=""width:200px; border:14px solid green;"">","null","","","","","","","","","",""
"","image-keyboard-response","61","53762","0.0-90.0","","","","","715.7999999523163","img/food2.png","75","716.7999999523163","2","1","false","3","2","1,0.5,0,1,0.5,0,0.5,0,1","0.5,0,1,0.5,0,1,0,1,0.5","2",""
"","html-keyboard-response","62","54065","0.0-91.0","","","","","null","<img src=""img/food2.png"" style=""width:200px; border:14px solid green;"">","null","","","","","","","","","",""
"","image-keyboard-response","63","54640","0.0-93.0","","","","","574.1999999284744","img/food4.png","76","575.0999999046326","3","1","false","1","2","1,0.5,0,1,0.5,0,0.5,0,1","0.5,0,1,0.5,0,1,0,1,0.5","2",""
"","html-keyboard-response","64","54942","0.0-94.0","","","","","null","<img src=""img/food4.png"" style=""width:200px; border:14px solid green;"">","null","","","","","","","","","",""
"","image-keyboard-response","65","55271","0.0-96.0","","","","","327.10000002384186","img/food4.png","76","328.2999999523163","3","1","false","1","2","1,0.5,0,1,0.5,0,0.5,0,1","0.5,0,1,0.5,0,1,0,1,0.5","2",""
"","html-keyboard-response","66","55573","0.0-97.0","","","","","null","<img src=""img/food4.png"" style=""width:200px; border:14px solid green;"">","null","","","","","","","","","",""
"","image-keyboard-response","67","56209","0.0-99.0","","","","","635.5","img/food2.png","75","636.1999999284744","2","1","false","3","2","1,0.5,0,1,0.5,0,0.5,0,1","0.5,0,1,0.5,0,1,0,1,0.5","2",""
"","html-keyboard-response","68","56511","0.0-100.0","","","","","null","<img src=""img/food2.png"" style=""width:200px; border:14px solid green;"">","null","","","","","","","","","",""
"","image-keyboard-response","69","57088","0.0-102.0","","","","","576","img/food2.png","75","576.7000000476837","2","1","false","3","2","1,0.5,0,1,0.5,0,0.5,0,1","0.5,0,1,0.5,0,1,0,1,0.5","2",""
"","html-keyboard-response","70","57390","0.0-103.0","","","","","null","<img src=""img/food2.png"" style=""width:200px; border:14px solid green;"">","null","","","","","","","","","",""
"","image-keyboard-response","71","57774","0.0-105.0","","","","","383.7999999523163","img/food2.png","75","384.5","2","1","false","3","2","1,0.5,0,1,0.5,0,0.5,0,1","0.5,0,1,0.5,0,1,0,1,0.5","2",""
"","html-keyboard-response","72","58075","0.0-106.0","","","","","null","<img src=""img/food2.png"" style=""width:200px; border:14px solid green;"">","null","","","","","","","","","",""
"","image-keyboard-response","73","58623","0.0-108.0","","","","","547.5","img/food1.png","76","548","3","1","false","2","2","1,0.5,0,1,0.5,0,0.5,0,1","0.5,0,1,0.5,0,1,0,1,0.5","2",""
"","html-keyboard-response","74","58926","0.0-109.0","","","","","null","<img src=""img/food1.png"" style=""width:200px; border:14px solid green;"">","null","","","","","","","","","",""
"","image-keyboard-response","75","59183","0.0-111.0","","","","","257.10000002384186","img/food1.png","76","257.8000000715256","3","1","false","2","2","1,0.5,0,1,0.5,0,0.5,0,1","0.5,0,1,0.5,0,1,0,1,0.5","2",""
"","html-keyboard-response","76","59485","0.0-112.0","","","","","null","<img src=""img/food1.png"" style=""width:200px; border:14px solid green;"">","null","","","","","","","","","",""
"","image-keyboard-response","77","59935","0.0-114.0","","","","","448.7000000476837","img/food4.png","75","449.39999997615814","2","0","false","1","2","1,0.5,0,1,0.5,0,0.5,0,1","0.5,0,1,0.5,0,1,0,1,0.5","2",""
"","html-keyboard-response","78","60236","0.0-115.0","","","","","null","<img src=""img/food4.png"" style=""width:200px;border:14px solid red;"">","null","","","","","","","","","",""
"","image-keyboard-response","79","60759","0.0-117.0","","","","","522","img/food2.png","75","522.6999999284744","2","1","false","3","2","1,0.5,0,1,0.5,0,0.5,0,1","0.5,0,1,0.5,0,1,0,1,0.5","2",""
"","html-keyboard-response","80","61061","0.0-118.0","","","","","null","<img src=""img/food2.png"" style=""width:200px; border:14px solid green;"">","null","","","","","","","","","",""
"","image-keyboard-response","81","61633","0.0-120.0","","","","","571.2000000476837","img/food4.png","76","572.1999999284744","3","1","false","1","2","1,0.5,0,1,0.5,0,0.5,0,1","0.5,0,1,0.5,0,1,0,1,0.5","2",""
"","html-keyboard-response","82","61936","0.0-121.0","","","","","null","<img src=""img/food4.png"" style=""width:200px; border:14px solid green;"">","null","","","","","","","","","",""
"","image-keyboard-response","83","62288","0.0-123.0","","","","","351.5","img/food4.png","76","352","3","1","false","1","2","1,0.5,0,1,0.5,0,0.5,0,1","0.5,0,1,0.5,0,1,0,1,0.5","2",""
"","html-keyboard-response","84","62590","0.0-124.0","","","","","null","<img src=""img/food4.png"" style=""width:200px; border:14px solid green;"">","null","","","","","","","","","",""
"","image-keyboard-response","85","63000","0.0-126.0","","","","","408.6999999284744","img/food1.png","76","409.60000002384186","3","1","false","2","2","1,0.5,0,1,0.5,0,0.5,0,1","0.5,0,1,0.5,0,1,0,1,0.5","2",""
"","html-keyboard-response","86","63302","0.0-127.0","","","","","null","<img src=""img/food1.png"" style=""width:200px; border:14px solid green;"">","null","","","","","","","","","",""
"","image-keyboard-response","87","63751","0.0-129.0","","","","","448.2999999523163","img/food2.png","75","449.10000002384186","2","1","false","3","2","1,0.5,0,1,0.5,0,0.5,0,1","0.5,0,1,0.5,0,1,0,1,0.5","2",""
"","html-keyboard-response","88","64054","0.0-130.0","","","","","null","<img src=""img/food2.png"" style=""width:200px; border:14px solid green;"">","null","","","","","","","","","",""
"","image-keyboard-response","89","64560","0.0-132.0","","","","","504.6999999284744","img/food4.png","76","505.7999999523163","3","1","false","1","2","1,0.5,0,1,0.5,0,0.5,0,1","0.5,0,1,0.5,0,1,0,1,0.5","2",""
"","html-keyboard-response","90","64862","0.0-133.0","","","","","null","<img src=""img/food4.png"" style=""width:200px; border:14px solid green;"">","null","","","","","","","","","",""
"","image-keyboard-response","91","65176","0.0-135.0","","","","","312.7000000476837","img/food4.png","76","313.7999999523163","3","1","false","1","2","1,0.5,0,1,0.5,0,0.5,0,1","0.5,0,1,0.5,0,1,0,1,0.5","2",""
"","html-keyboard-response","92","65477","0.0-136.0","","","","","null","<img src=""img/food4.png"" style=""width:200px; border:14px solid green;"">","null","","","","","","","","","",""
"","image-keyboard-response","93","66079","0.0-138.0","","","","","600.5","img/food2.png","75","601.3000000715256","2","1","false","3","2","1,0.5,0,1,0.5,0,0.5,0,1","0.5,0,1,0.5,0,1,0,1,0.5","2",""
"","html-keyboard-response","94","66386","0.0-139.0","","","","","null","<img src=""img/food2.png"" style=""width:200px; border:14px solid green;"">","null","","","","","","","","","",""
"","image-keyboard-response","95","66775","0.0-141.0","","","","","387.60000002384186","img/food2.png","75","388.89999997615814","2","1","false","3","2","1,0.5,0,1,0.5,0,0.5,0,1","0.5,0,1,0.5,0,1,0,1,0.5","2",""
"","html-keyboard-response","96","67077","0.0-142.0","","","","","null","<img src=""img/food2.png"" style=""width:200px; border:14px solid green;"">","null","","","","","","","","","",""
"","image-keyboard-response","97","67584","0.0-144.0","","","","","505.8000000715256","img/food1.png","76","506.60000002384186","3","1","false","2","2","1,0.5,0,1,0.5,0,0.5,0,1","0.5,0,1,0.5,0,1,0,1,0.5","2",""
"","html-keyboard-response","98","67885","0.0-145.0","","","","","null","<img src=""img/food1.png"" style=""width:200px; border:14px solid green;"">","null","","","","","","","","","",""
"","image-keyboard-response","99","68088","0.0-147.0","","","","","200.89999997615814","img/food2.png","76","202.19999992847443","3","1","false","3","2","1,0.5,0,1,0.5,0,0.5,0,1","0.5,0,1,0.5,0,1,0,1,0.5","2",""
"","html-keyboard-response","100","68391","0.0-148.0","","","","","null","<img src=""img/food2.png"" style=""width:200px; border:14px solid green;"">","null","","","","","","","","","",""
"","image-keyboard-response","101","69128","0.0-150.0","","","","","736.2999999523163","img/food2.png","75","737","2","1","false","3","2","1,0.5,0,1,0.5,0,0.5,0,1","0.5,0,1,0.5,0,1,0,1,0.5","2",""
"","html-keyboard-response","102","69430","0.0-151.0","","","","","null","<img src=""img/food2.png"" style=""width:200px; border:14px solid green;"">","null","","","","","","","","","",""
"","image-keyboard-response","103","70206","0.0-153.0","","","","","775.6999999284744","img/food1.png","76","776.3999999761581","3","1","false","2","2","1,0.5,0,1,0.5,0,0.5,0,1","0.5,0,1,0.5,0,1,0,1,0.5","2",""
"","html-keyboard-response","104","70509","0.0-154.0","","","","","null","<img src=""img/food1.png"" style=""width:200px; border:14px solid green;"">","null","","","","","","","","","",""
"","image-keyboard-response","105","70847","0.0-156.0","","","","","337.39999997615814","img/food1.png","76","338.2999999523163","3","1","false","2","2","1,0.5,0,1,0.5,0,0.5,0,1","0.5,0,1,0.5,0,1,0,1,0.5","2",""
"","html-keyboard-response","106","71149","0.0-157.0","","","","","null","<img src=""img/food1.png"" style=""width:200px; border:14px solid green;"">","null","","","","","","","","","",""
"","image-keyboard-response","107","71615","0.0-159.0","","","","","465","img/food2.png","76","465.7999999523163","3","0","false","3","2","1,0.5,0,1,0.5,0,0.5,0,1","0.5,0,1,0.5,0,1,0,1,0.5","2",""
"","html-keyboard-response","108","71917","0.0-160.0","","","","","null","<img src=""img/food2.png"" style=""width:200px;border:14px solid red;"">","null","","","","","","","","","",""
"","image-keyboard-response","109","72248","0.0-162.0","","","","","329.59999990463257","img/food2.png","76","330.3000000715256","3","1","false","3","2","1,0.5,0,1,0.5,0,0.5,0,1","0.5,0,1,0.5,0,1,0,1,0.5","2",""
"","html-keyboard-response","110","72550","0.0-163.0","","","","","null","<img src=""img/food2.png"" style=""width:200px; border:14px solid green;"">","null","","","","","","","","","",""
"","image-keyboard-response","111","72736","0.0-165.0","","","","","184.60000002384186","img/food1.png","76","185.80000007152557","3","1","false","2","2","1,0.5,0,1,0.5,0,0.5,0,1","0.5,0,1,0.5,0,1,0,1,0.5","2",""
"","html-keyboard-response","112","73038","0.0-166.0","","","","","null","<img src=""img/food1.png"" style=""width:200px; border:14px solid green;"">","null","","","","","","","","","",""
"","image-keyboard-response","113","73215","0.0-168.0","","","","","176","img/food1.png","76","177","3","1","false","2","2","1,0.5,0,1,0.5,0,0.5,0,1","0.5,0,1,0.5,0,1,0,1,0.5","2",""
"","html-keyboard-response","114","73517","0.0-169.0","","","","","null","<img src=""img/food1.png"" style=""width:200px; border:14px solid green;"">","null","","","","","","","","","",""
"","image-keyboard-response","115","73704","0.0-171.0","","","","","185.69999992847443","img/food2.png","76","186.5","3","1","false","3","2","1,0.5,0,1,0.5,0,0.5,0,1","0.5,0,1,0.5,0,1,0,1,0.5","2",""
"","html-keyboard-response","116","74006","0.0-172.0","","","","","null","<img src=""img/food2.png"" style=""width:200px; border:14px solid green;"">","null","","","","","","","","","",""
"","image-keyboard-response","117","74200","0.0-174.0","","","","","192","img/food2.png","76","193.19999992847443","3","0","false","3","2","1,0.5,0,1,0.5,0,0.5,0,1","0.5,0,1,0.5,0,1,0,1,0.5","2",""
"","html-keyboard-response","118","74503","0.0-175.0","","","","","null","<img src=""img/food2.png"" style=""width:200px;border:14px solid red;"">","null","","","","","","","","","",""
"","image-keyboard-response","119","74712","0.0-177.0","","","","","207.39999997615814","img/food4.png","76","208.30000007152557","3","1","false","1","2","1,0.5,0,1,0.5,0,0.5,0,1","0.5,0,1,0.5,0,1,0,1,0.5","2",""
"","html-keyboard-response","120","75014","0.0-178.0","","","","","null","<img src=""img/food4.png"" style=""width:200px; border:14px solid green;"">","null","","","","","","","","","",""
"","image-keyboard-response","121","75127","0.0-180.0","","","","","112","img/food1.png","76","113.10000002384186","3","1","false","2","2","1,0.5,0,1,0.5,0,0.5,0,1","0.5,0,1,0.5,0,1,0,1,0.5","2",""
"","html-keyboard-response","122","75430","0.0-181.0","","","","","null","<img src=""img/food1.png"" style=""width:200px; border:14px solid green;"">","null","","","","","","","","","",""
"","image-keyboard-response","123","75568","0.0-183.0","","","","","135.79999995231628","img/food1.png","76","137.10000002384186","3","1","false","2","2","1,0.5,0,1,0.5,0,0.5,0,1","0.5,0,1,0.5,0,1,0,1,0.5","2",""
"","html-keyboard-response","124","75870","0.0-184.0","","","","","null","<img src=""img/food1.png"" style=""width:200px; border:14px solid green;"">","null","","","","","","","","","",""
"","image-keyboard-response","125","75999","0.0-186.0","","","","","127.60000002384186","img/food2.png","76","128.09999990463257","3","0","false","3","2","1,0.5,0,1,0.5,0,0.5,0,1","0.5,0,1,0.5,0,1,0,1,0.5","2",""
"","html-keyboard-response","126","76300","0.0-187.0","","","","","null","<img src=""img/food2.png"" style=""width:200px;border:14px solid red;"">","null","","","","","","","","","",""
"","image-keyboard-response","127","76592","0.0-189.0","","","","","291.1999999284744","img/food1.png","76","291.7999999523163","3","1","false","2","2","1,0.5,0,1,0.5,0,0.5,0,1","0.5,0,1,0.5,0,1,0,1,0.5","2",""
"","html-keyboard-response","128","76894","0.0-190.0","","","","","null","<img src=""img/food1.png"" style=""width:200px; border:14px solid green;"">","null","","","","","","","","","",""
"","image-keyboard-response","129","76958","0.0-192.0","","","","","62.299999952316284","img/food4.png","76","63.5","3","1","false","1","2","1,0.5,0,1,0.5,0,0.5,0,1","0.5,0,1,0.5,0,1,0,1,0.5","2",""
"","html-keyboard-response","130","77261","0.0-193.0","","","","","null","<img src=""img/food4.png"" style=""width:200px; border:14px solid green;"">","null","","","","","","","","","",""
"","image-keyboard-response","131","77393","0.0-195.0","","","","","130.79999995231628","img/food4.png","76","131.69999992847443","3","1","false","1","2","1,0.5,0,1,0.5,0,0.5,0,1","0.5,0,1,0.5,0,1,0,1,0.5","2",""
"","html-keyboard-response","132","77695","0.0-196.0","","","","","null","<img src=""img/food4.png"" style=""width:200px; border:14px solid green;"">","null","","","","","","","","","",""
"","image-keyboard-response","133","77910","0.0-198.0","","","","","214","img/food1.png","76","214.89999997615814","3","1","false","2","2","1,0.5,0,1,0.5,0,0.5,0,1","0.5,0,1,0.5,0,1,0,1,0.5","2",""
"","html-keyboard-response","134","78212","0.0-199.0","","","","","null","<img src=""img/food1.png"" style=""width:200px; border:14px solid green;"">","null","","","","","","","","","",""
"","image-keyboard-response","135","78441","0.0-201.0","","","","","227.40000009536743","img/food1.png","76","228.20000004768372","3","1","false","2","2","1,0.5,0,1,0.5,0,0.5,0,1","0.5,0,1,0.5,0,1,0,1,0.5","2",""
"","html-keyboard-response","136","78748","0.0-202.0","","","","","null","<img src=""img/food1.png"" style=""width:200px; border:14px solid green;"">","null","","","","","","","","","",""
"","image-keyboard-response","137","78903","0.0-204.0","","","","","154.5","img/food4.png","76","155.10000002384186","3","1","false","1","2","1,0.5,0,1,0.5,0,0.5,0,1","0.5,0,1,0.5,0,1,0,1,0.5","2",""
"","html-keyboard-response","138","79205","0.0-205.0","","","","","null","<img src=""img/food4.png"" style=""width:200px; border:14px solid green;"">","null","","","","","","","","","",""
"","image-keyboard-response","139","79360","0.0-207.0","","","","","153.80000007152557","img/food2.png","76","154.39999997615814","3","1","false","3","2","1,0.5,0,1,0.5,0,0.5,0,1","0.5,0,1,0.5,0,1,0,1,0.5","2",""
"","html-keyboard-response","140","79661","0.0-208.0","","","","","null","<img src=""img/food2.png"" style=""width:200px; border:14px solid green;"">","null","","","","","","","","","",""
"","image-keyboard-response","141","79934","0.0-210.0","","","","","272.5","img/food2.png","76","273.2000000476837","3","0","false","3","2","1,0.5,0,1,0.5,0,0.5,0,1","0.5,0,1,0.5,0,1,0,1,0.5","2",""
"","html-keyboard-response","142","80236","0.0-211.0","","","","","null","<img src=""img/food2.png"" style=""width:200px;border:14px solid red;"">","null","","","","","","","","","",""
"","image-keyboard-response","143","80807","0.0-213.0","","","","","570.7999999523163","img/food2.png","75","571.3999999761581","2","1","false","3","2","1,0.5,0,1,0.5,0,0.5,0,1","0.5,0,1,0.5,0,1,0,1,0.5","2",""
"","html-keyboard-response","144","81109","0.0-214.0","","","","","null","<img src=""img/food2.png"" style=""width:200px; border:14px solid green;"">","null","","","","","","","","","",""
"","image-keyboard-response","145","81655","0.0-216.0","","","","","545.6000000238419","img/food1.png","76","546.1000000238419","3","1","false","2","2","1,0.5,0,1,0.5,0,0.5,0,1","0.5,0,1,0.5,0,1,0,1,0.5","2",""
"","html-keyboard-response","146","81956","0.0-217.0","","","","","null","<img src=""img/food1.png"" style=""width:200px; border:14px solid green;"">","null","","","","","","","","","",""
"","image-keyboard-response","147","82008","0.0-219.0","","","","","50.800000071525574","img/food2.png","76","52","3","0","false","3","2","1,0.5,0,1,0.5,0,0.5,0,1","0.5,0,1,0.5,0,1,0,1,0.5","2",""
"","html-keyboard-response","148","82311","0.0-220.0","","","","","null","<img src=""img/food2.png"" style=""width:200px;border:14px solid red;"">","null","","","","","","","","","",""
"","image-keyboard-response","149","82872","0.0-222.0","","","","","559.2000000476837","img/food1.png","76","560.0999999046326","3","1","false","2","2","1,0.5,0,1,0.5,0,0.5,0,1","0.5,0,1,0.5,0,1,0,1,0.5","2",""
"","html-keyboard-response","150","83173","0.0-223.0","","","","","null","<img src=""img/food1.png"" style=""width:200px; border:14px solid green;"">","null","","","","","","","","","",""
"","image-keyboard-response","151","83631","0.0-225.0","","","","","456.60000002384186","img/food4.png","76","457.60000002384186","3","1","false","1","2","1,0.5,0,1,0.5,0,0.5,0,1","0.5,0,1,0.5,0,1,0,1,0.5","2",""
"","html-keyboard-response","152","83946","0.0-226.0","","","","","null","<img src=""img/food4.png"" style=""width:200px; border:14px solid green;"">","null","","","","","","","","","",""
"","image-keyboard-response","153","84543","0.0-228.0","","","","","596.6000000238419","img/food1.png","76","597.2999999523163","3","1","false","2","2","1,0.5,0,1,0.5,0,0.5,0,1","0.5,0,1,0.5,0,1,0,1,0.5","2",""
"","html-keyboard-response","154","84845","0.0-229.0","","","","","null","<img src=""img/food1.png"" style=""width:200px; border:14px solid green;"">","null","","","","","","","","","",""
"","image-keyboard-response","155","85176","0.0-231.0","","","","","329.7000000476837","img/food1.png","76","330.59999990463257","3","1","false","2","2","1,0.5,0,1,0.5,0,0.5,0,1","0.5,0,1,0.5,0,1,0,1,0.5","2",""
"","html-keyboard-response","156","85478","0.0-232.0","","","","","null","<img src=""img/food1.png"" style=""width:200px; border:14px solid green;"">","null","","","","","","","","","",""
"","image-keyboard-response","157","86056","0.0-234.0","","","","","576.1000000238419","img/food4.png","76","577.5","3","1","false","1","2","1,0.5,0,1,0.5,0,0.5,0,1","0.5,0,1,0.5,0,1,0,1,0.5","2",""
"","html-keyboard-response","158","86359","0.0-235.0","","","","","null","<img src=""img/food4.png"" style=""width:200px; border:14px solid green;"">","null","","","","","","","","","",""
"","image-keyboard-response","159","86711","0.0-237.0","","","","","351.60000002384186","img/food4.png","76","352.40000009536743","3","1","false","1","2","1,0.5,0,1,0.5,0,0.5,0,1","0.5,0,1,0.5,0,1,0,1,0.5","2",""
"","html-keyboard-response","160","87013","0.0-238.0","","","","","null","<img src=""img/food4.png"" style=""width:200px; border:14px solid green;"">","null","","","","","","","","","",""
"","image-keyboard-response","161","87559","0.0-240.0","","","","","544.8999999761581","img/food2.png","75","545.8000000715256","2","1","false","3","2","1,0.5,0,1,0.5,0,0.5,0,1","0.5,0,1,0.5,0,1,0,1,0.5","2",""
"","html-keyboard-response","162","87862","0.0-241.0","","","","","null","<img src=""img/food2.png"" style=""width:200px; border:14px solid green;"">","null","","","","","","","","","",""
"","image-keyboard-response","163","88416","0.0-243.0","","","","","552.6000000238419","img/food4.png","76","553.6000000238419","3","1","false","1","2","1,0.5,0,1,0.5,0,0.5,0,1","0.5,0,1,0.5,0,1,0,1,0.5","2",""
"","html-keyboard-response","164","88717","0.0-244.0","","","","","null","<img src=""img/food4.png"" style=""width:200px; border:14px solid green;"">","null","","","","","","","","","",""
"","image-keyboard-response","165","89617","0.0-246.0","","","","","898.5","img/food2.png","75","899.5","2","1","false","3","2","1,0.5,0,1,0.5,0,0.5,0,1","0.5,0,1,0.5,0,1,0,1,0.5","2",""
"","html-keyboard-response","166","89919","0.0-247.0","","","","","null","<img src=""img/food2.png"" style=""width:200px; border:14px solid green;"">","null","","","","","","","","","",""
"","image-keyboard-response","167","90336","0.0-249.0","","","","","415.90000009536743","img/food1.png","76","416.89999997615814","3","1","false","2","2","1,0.5,0,1,0.5,0,0.5,0,1","0.5,0,1,0.5,0,1,0,1,0.5","2",""
"","html-keyboard-response","168","90638","0.0-250.0","","","","","null","<img src=""img/food1.png"" style=""width:200px; border:14px solid green;"">","null","","","","","","","","","",""
"","image-keyboard-response","169","90680","0.0-252.0","","","","","40.700000047683716","img/food2.png","76","41.699999928474426","3","1","false","3","2","1,0.5,0,1,0.5,0,0.5,0,1","0.5,0,1,0.5,0,1,0,1,0.5","2",""
"","html-keyboard-response","170","90981","0.0-253.0","","","","","null","<img src=""img/food2.png"" style=""width:200px; border:14px solid green;"">","null","","","","","","","","","",""
"","image-keyboard-response","171","91624","0.0-255.0","","","","","641.2999999523163","img/food4.png","76","642.2000000476837","3","1","false","1","2","1,0.5,0,1,0.5,0,0.5,0,1","0.5,0,1,0.5,0,1,0,1,0.5","2",""
"","html-keyboard-response","172","91928","0.0-256.0","","","","","null","<img src=""img/food4.png"" style=""width:200px; border:14px solid green;"">","null","","","","","","","","","",""
"","image-keyboard-response","173","92319","0.0-258.0","","","","","389.8000000715256","img/food1.png","76","390.2999999523163","3","1","false","2","2","1,0.5,0,1,0.5,0,0.5,0,1","0.5,0,1,0.5,0,1,0,1,0.5","2",""
"","html-keyboard-response","174","92620","0.0-259.0","","","","","null","<img src=""img/food1.png"" style=""width:200px; border:14px solid green;"">","null","","","","","","","","","",""
"","image-keyboard-response","175","93208","0.0-261.0","","","","","586.3999999761581","img/food4.png","76","587.3000000715256","3","1","false","1","2","1,0.5,0,1,0.5,0,0.5,0,1","0.5,0,1,0.5,0,1,0,1,0.5","2",""
"","html-keyboard-response","176","93510","0.0-262.0","","","","","null","<img src=""img/food4.png"" style=""width:200px; border:14px solid green;"">","null","","","","","","","","","",""
"","image-keyboard-response","177","94135","0.0-264.0","","","","","624.4000000953674","img/food2.png","75","625.1999999284744","2","1","false","3","2","1,0.5,0,1,0.5,0,0.5,0,1","0.5,0,1,0.5,0,1,0,1,0.5","2",""
"","html-keyboard-response","178","94437","0.0-265.0","","","","","null","<img src=""img/food2.png"" style=""width:200px; border:14px solid green;"">","null","","","","","","","","","",""
"","image-keyboard-response","179","94960","0.0-267.0","","","","","521","img/food1.png","76","522.2999999523163","3","1","false","2","2","1,0.5,0,1,0.5,0,0.5,0,1","0.5,0,1,0.5,0,1,0,1,0.5","2",""
"","html-keyboard-response","180","95262","0.0-268.0","","","","","null","<img src=""img/food1.png"" style=""width:200px; border:14px solid green;"">","null","","","","","","","","","",""
"","image-keyboard-response","181","95537","0.0-270.0","","","","","273.60000002384186","img/food4.png","76","274.39999997615814","3","1","false","1","2","1,0.5,0,1,0.5,0,0.5,0,1","0.5,0,1,0.5,0,1,0,1,0.5","2",""
"","html-keyboard-response","182","95839","0.0-271.0","","","","","null","<img src=""img/food4.png"" style=""width:200px; border:14px solid green;"">","null","","","","","","","","","",""
"","instructions","183","104146","0.0-273.0","","","","[{""page_index"":0,""viewing_time"":7467.299999952316},{""page_index"":1,""viewing_time"":839}]","8306.399999976158","","","","","","","","","","","",""
"","image-keyboard-response","184","104873","0.0-274.0","","","","","725.6999999284744","img/food5.png","74","726.7000000476837","1","0","","3","1","1,0.5,0,1,0.5,0,0.5,0,1","0.5,0,1,0.5,0,1,0,1,0.5","2",""
"","html-keyboard-response","185","105177","0.0-275.0","","","","","null","<img src=""img/food5.png"" style=""width:200px;border:14px solid red;"">","null","","","","","","","","","",""
"","image-keyboard-response","186","105552","0.0-276.0","","","","","374.2999999523163","img/food5.png","75","375.39999997615814","2","1","","3","1","1,0.5,0,1,0.5,0,0.5,0,1","0.5,0,1,0.5,0,1,0,1,0.5","2",""
"","html-keyboard-response","187","105854","0.0-277.0","","","","","null","<img src=""img/food5.png"" style=""width:200px; border:14px solid green;"">","null","","","","","","","","","",""
"","image-keyboard-response","188","106769","0.0-278.0","","","","","913.6000000238419","img/food3.png","74","914.6000000238419","1","0","","1","1","1,0.5,0,1,0.5,0,0.5,0,1","0.5,0,1,0.5,0,1,0,1,0.5","2",""
"","html-keyboard-response","189","107080","0.0-279.0","","","","","null","<img src=""img/food3.png"" style=""width:200px;border:14px solid red;"">","null","","","","","","","","","",""
"","image-keyboard-response","190","107759","0.0-280.0","","","","","677.3999999761581","img/food5.png","75","678.4000000953674","2","1","","3","1","1,0.5,0,1,0.5,0,0.5,0,1","0.5,0,1,0.5,0,1,0,1,0.5","2",""
"","html-keyboard-response","191","108062","0.0-281.0","","","","","null","<img src=""img/food5.png"" style=""width:200px; border:14px solid green;"">","null","","","","","","","","","",""
"","image-keyboard-response","192","108912","0.0-282.0","","","","","848.6000000238419","img/food6.png","76","849.7000000476837","3","1","","2","1","1,0.5,0,1,0.5,0,0.5,0,1","0.5,0,1,0.5,0,1,0,1,0.5","2",""
"","html-keyboard-response","193","109215","0.0-283.0","","","","","null","<img src=""img/food6.png"" style=""width:200px; border:14px solid green;"">","null","","","","","","","","","",""
"","image-keyboard-response","194","110304","0.0-284.0","","","","","1087.6000000238419","img/food3.png","75","1088.6000000238419","2","0","","1","1","1,0.5,0,1,0.5,0,0.5,0,1","0.5,0,1,0.5,0,1,0,1,0.5","2",""
"","html-keyboard-response","195","110606","0.0-285.0","","","","","null","<img src=""img/food3.png"" style=""width:200px;border:14px solid red;"">","null","","","","","","","","","",""
"","image-keyboard-response","196","111513","0.0-286.0","","","","","905.5999999046326","img/food6.png","75","906.6999999284744","2","0","","2","1","1,0.5,0,1,0.5,0,0.5,0,1","0.5,0,1,0.5,0,1,0,1,0.5","2",""
"","html-keyboard-response","197","111815","0.0-287.0","","","","","null","<img src=""img/food6.png"" style=""width:200px;border:14px solid red;"">","null","","","","","","","","","",""
"","image-keyboard-response","198","112295","0.0-288.0","","","","","479.7000000476837","img/food6.png","76","480.1999999284744","3","1","","2","1","1,0.5,0,1,0.5,0,0.5,0,1","0.5,0,1,0.5,0,1,0,1,0.5","2",""
"","html-keyboard-response","199","112598","0.0-289.0","","","","","null","<img src=""img/food6.png"" style=""width:200px; border:14px solid green;"">","null","","","","","","","","","",""
"","image-keyboard-response","200","112864","0.0-290.0","","","","","264.2000000476837","img/food6.png","76","265.39999997615814","3","1","","2","1","1,0.5,0,1,0.5,0,0.5,0,1","0.5,0,1,0.5,0,1,0,1,0.5","2",""
"","html-keyboard-response","201","113166","0.0-291.0","","","","","null","<img src=""img/food6.png"" style=""width:200px; border:14px solid green;"">","null","","","","","","","","","",""
"","image-keyboard-response","202","113497","0.0-292.0","","","","","330","img/food6.png","76","330.89999997615814","3","1","","2","1","1,0.5,0,1,0.5,0,0.5,0,1","0.5,0,1,0.5,0,1,0,1,0.5","2",""
"","html-keyboard-response","203","113799","0.0-293.0","","","","","null","<img src=""img/food6.png"" style=""width:200px; border:14px solid green;"">","null","","","","","","","","","",""
"","image-keyboard-response","204","114559","0.0-294.0","","","","","758.8999999761581","img/food3.png","75","759.6999999284744","2","0","","1","1","1,0.5,0,1,0.5,0,0.5,0,1","0.5,0,1,0.5,0,1,0,1,0.5","2",""
"","html-keyboard-response","205","114861","0.0-295.0","","","","","null","<img src=""img/food3.png"" style=""width:200px;border:14px solid red;"">","null","","","","","","","","","",""
"","image-keyboard-response","206","115503","0.0-296.0","","","","","641.2999999523163","img/food5.png","75","642.1000000238419","2","1","","3","1","1,0.5,0,1,0.5,0,0.5,0,1","0.5,0,1,0.5,0,1,0,1,0.5","2",""
"","html-keyboard-response","207","115805","0.0-297.0","","","","","null","<img src=""img/food5.png"" style=""width:200px; border:14px solid green;"">","null","","","","","","","","","",""
"","image-keyboard-response","208","116952","0.0-298.0","","","","","1145.3000000715256","img/food6.png","76","1146.1000000238419","3","1","","2","1","1,0.5,0,1,0.5,0,0.5,0,1","0.5,0,1,0.5,0,1,0,1,0.5","2",""
"","html-keyboard-response","209","117254","0.0-299.0","","","","","null","<img src=""img/food6.png"" style=""width:200px; border:14px solid green;"">","null","","","","","","","","","",""
"","image-keyboard-response","210","118119","0.0-300.0","","","","","864.0999999046326","img/food5.png","75","864.8999999761581","2","1","","3","1","1,0.5,0,1,0.5,0,0.5,0,1","0.5,0,1,0.5,0,1,0,1,0.5","2",""
"","html-keyboard-response","211","118420","0.0-301.0","","","","","null","<img src=""img/food5.png"" style=""width:200px; border:14px solid green;"">","null","","","","","","","","","",""
"","image-keyboard-response","212","118758","0.0-302.0","","","","","337.39999997615814","img/food5.png","75","337.89999997615814","2","1","","3","1","1,0.5,0,1,0.5,0,0.5,0,1","0.5,0,1,0.5,0,1,0,1,0.5","2",""
"","html-keyboard-response","213","119060","0.0-303.0","","","","","null","<img src=""img/food5.png"" style=""width:200px; border:14px solid green;"">","null","","","","","","","","","",""
"","image-keyboard-response","214","119367","0.0-304.0","","","","","306.6999999284744","img/food5.png","75","307.5","2","1","","3","1","1,0.5,0,1,0.5,0,0.5,0,1","0.5,0,1,0.5,0,1,0,1,0.5","2",""
"","html-keyboard-response","215","119669","0.0-305.0","","","","","null","<img src=""img/food5.png"" style=""width:200px; border:14px solid green;"">","null","","","","","","","","","",""
"","image-keyboard-response","216","119894","0.0-306.0","","","","","223.89999997615814","img/food5.png","75","224.70000004768372","2","1","","3","1","1,0.5,0,1,0.5,0,0.5,0,1","0.5,0,1,0.5,0,1,0,1,0.5","2",""
"","html-keyboard-response","217","120196","0.0-307.0","","","","","null","<img src=""img/food5.png"" style=""width:200px; border:14px solid green;"">","null","","","","","","","","","",""
"","image-keyboard-response","218","120497","0.0-308.0","","","","","298.7999999523163","img/food5.png","75","300","2","1","","3","1","1,0.5,0,1,0.5,0,0.5,0,1","0.5,0,1,0.5,0,1,0,1,0.5","2",""
"","html-keyboard-response","219","120799","0.0-309.0","","","","","null","<img src=""img/food5.png"" style=""width:200px; border:14px solid green;"">","null","","","","","","","","","",""
"","image-keyboard-response","220","121375","0.0-310.0","","","","","574.6999999284744","img/food6.png","76","575.6000000238419","3","1","","2","1","1,0.5,0,1,0.5,0,0.5,0,1","0.5,0,1,0.5,0,1,0,1,0.5","2",""
"","html-keyboard-response","221","121678","0.0-311.0","","","","","null","<img src=""img/food6.png"" style=""width:200px; border:14px solid green;"">","null","","","","","","","","","",""
"","image-keyboard-response","222","122111","0.0-312.0","","","","","432.3000000715256","img/food3.png","76","433","3","1","","1","1","1,0.5,0,1,0.5,0,0.5,0,1","0.5,0,1,0.5,0,1,0,1,0.5","2",""
"","html-keyboard-response","223","122413","0.0-313.0","","","","","null","<img src=""img/food3.png"" style=""width:200px; border:14px solid green;"">","null","","","","","","","","","",""
"","image-keyboard-response","224","122679","0.0-314.0","","","","","265.2000000476837","img/food3.png","76","266.1999999284744","3","1","","1","1","1,0.5,0,1,0.5,0,0.5,0,1","0.5,0,1,0.5,0,1,0,1,0.5","2",""
"","html-keyboard-response","225","122982","0.0-315.0","","","","","null","<img src=""img/food3.png"" style=""width:200px; border:14px solid green;"">","null","","","","","","","","","",""
"","image-keyboard-response","226","123113","0.0-316.0","","","","","129.79999995231628","img/food5.png","76","131","3","0","","3","1","1,0.5,0,1,0.5,0,0.5,0,1","0.5,0,1,0.5,0,1,0,1,0.5","2",""
"","html-keyboard-response","227","123415","0.0-317.0","","","","","null","<img src=""img/food5.png"" style=""width:200px;border:14px solid red;"">","null","","","","","","","","","",""
"","image-keyboard-response","228","124093","0.0-318.0","","","","","677","img/food3.png","76","678.0999999046326","3","1","","1","1","1,0.5,0,1,0.5,0,0.5,0,1","0.5,0,1,0.5,0,1,0,1,0.5","2",""
"","html-keyboard-response","229","124396","0.0-319.0","","","","","null","<img src=""img/food3.png"" style=""width:200px; border:14px solid green;"">","null","","","","","","","","","",""
"","image-keyboard-response","230","124527","0.0-320.0","","","","","129.69999992847443","img/food3.png","76","130.39999997615814","3","1","","1","1","1,0.5,0,1,0.5,0,0.5,0,1","0.5,0,1,0.5,0,1,0,1,0.5","2",""
"","html-keyboard-response","231","124828","0.0-321.0","","","","","null","<img src=""img/food3.png"" style=""width:200px; border:14px solid green;"">","null","","","","","","","","","",""
"","image-keyboard-response","232","125111","0.0-322.0","","","","","281.5","img/food3.png","76","282.2000000476837","3","1","","1","1","1,0.5,0,1,0.5,0,0.5,0,1","0.5,0,1,0.5,0,1,0,1,0.5","2",""
"","html-keyboard-response","233","125412","0.0-323.0","","","","","null","<img src=""img/food3.png"" style=""width:200px; border:14px solid green;"">","null","","","","","","","","","",""
"","image-keyboard-response","234","125807","0.0-324.0","","","","","394.3000000715256","img/food3.png","76","394.89999997615814","3","1","","1","1","1,0.5,0,1,0.5,0,0.5,0,1","0.5,0,1,0.5,0,1,0,1,0.5","2",""
"","html-keyboard-response","235","126110","0.0-325.0","","","","","null","<img src=""img/food3.png"" style=""width:200px; border:14px solid green;"">","null","","","","","","","","","",""
"","image-keyboard-response","236","126199","0.0-326.0","","","","","87.89999997615814","img/food3.png","76","89.29999995231628","3","1","","1","1","1,0.5,0,1,0.5,0,0.5,0,1","0.5,0,1,0.5,0,1,0,1,0.5","2",""
"","html-keyboard-response","237","126502","0.0-327.0","","","","","null","<img src=""img/food3.png"" style=""width:200px; border:14px solid green;"">","null","","","","","","","","","",""
"","image-keyboard-response","238","126721","0.0-328.0","","","","","218","img/food5.png","76","219.19999992847443","3","1","","3","1","1,0.5,0,1,0.5,0,0.5,0,1","0.5,0,1,0.5,0,1,0,1,0.5","2",""
"","html-keyboard-response","239","127025","0.0-329.0","","","","","null","<img src=""img/food5.png"" style=""width:200px; border:14px solid green;"">","null","","","","","","","","","",""
"","image-keyboard-response","240","127296","0.0-330.0","","","","","269.7999999523163","img/food5.png","76","270.8000000715256","3","1","","3","1","1,0.5,0,1,0.5,0,0.5,0,1","0.5,0,1,0.5,0,1,0,1,0.5","2",""
"","html-keyboard-response","241","127598","0.0-331.0","","","","","null","<img src=""img/food5.png"" style=""width:200px; border:14px solid green;"">","null","","","","","","","","","",""
"","image-keyboard-response","242","128040","0.0-332.0","","","","","441.2999999523163","img/food5.png","75","442","2","1","","3","1","1,0.5,0,1,0.5,0,0.5,0,1","0.5,0,1,0.5,0,1,0,1,0.5","2",""
"","html-keyboard-response","243","128342","0.0-333.0","","","","","null","<img src=""img/food5.png"" style=""width:200px; border:14px solid green;"">","null","","","","","","","","","",""
"","image-keyboard-response","244","128558","0.0-334.0","","","","","215.69999992847443","img/food3.png","75","216.20000004768372","2","0","","1","1","1,0.5,0,1,0.5,0,0.5,0,1","0.5,0,1,0.5,0,1,0,1,0.5","2",""
"","html-keyboard-response","245","128860","0.0-335.0","","","","","null","<img src=""img/food3.png"" style=""width:200px;border:14px solid red;"">","null","","","","","","","","","",""
"","image-keyboard-response","246","129487","0.0-336.0","","","","","626.2000000476837","img/food6.png","76","627","3","1","","2","1","1,0.5,0,1,0.5,0,0.5,0,1","0.5,0,1,0.5,0,1,0,1,0.5","2",""
"","html-keyboard-response","247","129789","0.0-337.0","","","","","null","<img src=""img/food6.png"" style=""width:200px; border:14px solid green;"">","null","","","","","","","","","",""
"","image-keyboard-response","248","130078","0.0-338.0","","","","","288.89999997615814","img/food6.png","76","289.6999999284744","3","1","","2","1","1,0.5,0,1,0.5,0,0.5,0,1","0.5,0,1,0.5,0,1,0,1,0.5","2",""
"","html-keyboard-response","249","130380","0.0-339.0","","","","","null","<img src=""img/food6.png"" style=""width:200px; border:14px solid green;"">","null","","","","","","","","","",""
"","image-keyboard-response","250","131047","0.0-340.0","","","","","666.0999999046326","img/food5.png","75","667.0999999046326","2","1","","3","1","1,0.5,0,1,0.5,0,0.5,0,1","0.5,0,1,0.5,0,1,0,1,0.5","2",""
"","html-keyboard-response","251","131349","0.0-341.0","","","","","null","<img src=""img/food5.png"" style=""width:200px; border:14px solid green;"">","null","","","","","","","","","",""
"","image-keyboard-response","252","131790","0.0-342.0","","","","","439.5","img/food3.png","76","440.2999999523163","3","1","","1","1","1,0.5,0,1,0.5,0,0.5,0,1","0.5,0,1,0.5,0,1,0,1,0.5","2",""
"","html-keyboard-response","253","132091","0.0-343.0","","","","","null","<img src=""img/food3.png"" style=""width:200px; border:14px solid green;"">","null","","","","","","","","","",""
"","image-keyboard-response","254","132183","0.0-344.0","","","","","90.70000004768372","img/food5.png","76","92","3","1","","3","1","1,0.5,0,1,0.5,0,0.5,0,1","0.5,0,1,0.5,0,1,0,1,0.5","2",""
"","html-keyboard-response","255","132485","0.0-345.0","","","","","null","<img src=""img/food5.png"" style=""width:200px; border:14px solid green;"">","null","","","","","","","","","",""
"","image-keyboard-response","256","133047","0.0-346.0","","","","","561.1000000238419","img/food5.png","75","561.7000000476837","2","1","","3","1","1,0.5,0,1,0.5,0,0.5,0,1","0.5,0,1,0.5,0,1,0,1,0.5","2",""
"","html-keyboard-response","257","133348","0.0-347.0","","","","","null","<img src=""img/food5.png"" style=""width:200px; border:14px solid green;"">","null","","","","","","","","","",""
"","image-keyboard-response","258","133990","0.0-348.0","","","","","641.2999999523163","img/food6.png","76","641.8999999761581","3","1","","2","1","1,0.5,0,1,0.5,0,0.5,0,1","0.5,0,1,0.5,0,1,0,1,0.5","2",""
"","html-keyboard-response","259","134305","0.0-349.0","","","","","null","<img src=""img/food6.png"" style=""width:200px; border:14px solid green;"">","null","","","","","","","","","",""
"","image-keyboard-response","260","134640","0.0-350.0","","","","","334.2000000476837","img/food6.png","76","335.2000000476837","3","1","","2","1","1,0.5,0,1,0.5,0,0.5,0,1","0.5,0,1,0.5,0,1,0,1,0.5","2",""
"","html-keyboard-response","261","134944","0.0-351.0","","","","","null","<img src=""img/food6.png"" style=""width:200px; border:14px solid green;"">","null","","","","","","","","","",""
"","image-keyboard-response","262","135192","0.0-352.0","","","","","246.70000004768372","img/food6.png","76","247.69999992847443","3","1","","2","1","1,0.5,0,1,0.5,0,0.5,0,1","0.5,0,1,0.5,0,1,0,1,0.5","2",""
"","html-keyboard-response","263","135494","0.0-353.0","","","","","null","<img src=""img/food6.png"" style=""width:200px; border:14px solid green;"">","null","","","","","","","","","",""
"","image-keyboard-response","264","135839","0.0-354.0","","","","","343.60000002384186","img/food6.png","76","344.7999999523163","3","1","","2","1","1,0.5,0,1,0.5,0,0.5,0,1","0.5,0,1,0.5,0,1,0,1,0.5","2",""
"","html-keyboard-response","265","136141","0.0-355.0","","","","","null","<img src=""img/food6.png"" style=""width:200px; border:14px solid green;"">","null","","","","","","","","","",""
"","image-keyboard-response","266","136383","0.0-356.0","","","","","241.20000004768372","img/food5.png","76","242.09999990463257","3","1","","3","1","1,0.5,0,1,0.5,0,0.5,0,1","0.5,0,1,0.5,0,1,0,1,0.5","2",""
"","html-keyboard-response","267","136686","0.0-357.0","","","","","null","<img src=""img/food5.png"" style=""width:200px; border:14px solid green;"">","null","","","","","","","","","",""
"","image-keyboard-response","268","137263","0.0-358.0","","","","","576","img/food3.png","76","576.9000000953674","3","1","","1","1","1,0.5,0,1,0.5,0,0.5,0,1","0.5,0,1,0.5,0,1,0,1,0.5","2",""
"","html-keyboard-response","269","137564","0.0-359.0","","","","","null","<img src=""img/food3.png"" style=""width:200px; border:14px solid green;"">","null","","","","","","","","","",""
"","image-keyboard-response","270","137710","0.0-360.0","","","","","145","img/food6.png","76","145.5","3","1","","2","1","1,0.5,0,1,0.5,0,0.5,0,1","0.5,0,1,0.5,0,1,0,1,0.5","2",""
"","html-keyboard-response","271","138011","0.0-361.0","","","","","null","<img src=""img/food6.png"" style=""width:200px; border:14px solid green;"">","null","","","","","","","","","",""
"","image-keyboard-response","272","138107","0.0-362.0","","","","","95","img/food3.png","76","95.79999995231628","3","1","","1","1","1,0.5,0,1,0.5,0,0.5,0,1","0.5,0,1,0.5,0,1,0,1,0.5","2",""
"","html-keyboard-response","273","138410","0.0-363.0","","","","","null","<img src=""img/food3.png"" style=""width:200px; border:14px solid green;"">","null","","","","","","","","","",""
"","image-keyboard-response","274","138488","0.0-364.0","","","","","76.80000007152557","img/food3.png","76","77.79999995231628","3","1","","1","1","1,0.5,0,1,0.5,0,0.5,0,1","0.5,0,1,0.5,0,1,0,1,0.5","2",""
"","html-keyboard-response","275","138790","0.0-365.0","","","","","null","<img src=""img/food3.png"" style=""width:200px; border:14px solid green;"">","null","","","","","","","","","",""
"","image-keyboard-response","276","138856","0.0-366.0","","","","","64.79999995231628","img/food5.png","76","66.10000002384186","3","1","","3","1","1,0.5,0,1,0.5,0,0.5,0,1","0.5,0,1,0.5,0,1,0,1,0.5","2",""
"","html-keyboard-response","277","139159","0.0-367.0","","","","","null","<img src=""img/food5.png"" style=""width:200px; border:14px solid green;"">","null","","","","","","","","","",""
"","image-keyboard-response","278","139240","0.0-368.0","","","","","80","img/food6.png","76","81.19999992847443","3","1","","2","1","1,0.5,0,1,0.5,0,0.5,0,1","0.5,0,1,0.5,0,1,0,1,0.5","2",""
"","html-keyboard-response","279","139544","0.0-369.0","","","","","null","<img src=""img/food6.png"" style=""width:200px; border:14px solid green;"">","null","","","","","","","","","",""
"","image-keyboard-response","280","139822","0.0-370.0","","","","","277.39999997615814","img/food3.png","76","278.2000000476837","3","1","","1","1","1,0.5,0,1,0.5,0,0.5,0,1","0.5,0,1,0.5,0,1,0,1,0.5","2",""
"","html-keyboard-response","281","140123","0.0-371.0","","","","","null","<img src=""img/food3.png"" style=""width:200px; border:14px solid green;"">","null","","","","","","","","","",""
"","image-keyboard-response","282","140393","0.0-372.0","","","","","267.90000009536743","img/food5.png","76","269.10000002384186","3","0","","3","1","1,0.5,0,1,0.5,0,0.5,0,1","0.5,0,1,0.5,0,1,0,1,0.5","2",""
"","html-keyboard-response","283","140696","0.0-373.0","","","","","null","<img src=""img/food5.png"" style=""width:200px;border:14px solid red;"">","null","","","","","","","","","",""
"","image-keyboard-response","284","140698","0.0-374.0","","","","","0.3999999761581421","img/food3.png","76","1.600000023841858","3","1","","1","1","1,0.5,0,1,0.5,0,0.5,0,1","0.5,0,1,0.5,0,1,0,1,0.5","2",""
"","html-keyboard-response","285","141000","0.0-375.0","","","","","null","<img src=""img/food3.png"" style=""width:200px; border:14px solid green;"">","null","","","","","","","","","",""
"","image-keyboard-response","286","141048","0.0-376.0","","","","","46","img/food6.png","76","47.300000071525574","3","1","","2","1","1,0.5,0,1,0.5,0,0.5,0,1","0.5,0,1,0.5,0,1,0,1,0.5","2",""
"","html-keyboard-response","287","141350","0.0-377.0","","","","","null","<img src=""img/food6.png"" style=""width:200px; border:14px solid green;"">","null","","","","","","","","","",""
"","image-keyboard-response","288","141375","0.0-378.0","","","","","23.5","img/food6.png","76","24.799999952316284","3","1","","2","1","1,0.5,0,1,0.5,0,0.5,0,1","0.5,0,1,0.5,0,1,0,1,0.5","2",""
"","html-keyboard-response","289","141677","0.0-379.0","","","","","null","<img src=""img/food6.png"" style=""width:200px; border:14px solid green;"">","null","","","","","","","","","",""
"","image-keyboard-response","290","141967","0.0-380.0","","","","","288","img/food3.png","76","289.2000000476837","3","1","","1","1","1,0.5,0,1,0.5,0,0.5,0,1","0.5,0,1,0.5,0,1,0,1,0.5","2",""
"","html-keyboard-response","291","142268","0.0-381.0","","","","","null","<img src=""img/food3.png"" style=""width:200px; border:14px solid green;"">","null","","","","","","","","","",""
"","image-keyboard-response","292","142288","0.0-382.0","","","","","17.90000009536743","img/food6.png","76","19.300000071525574","3","1","","2","1","1,0.5,0,1,0.5,0,0.5,0,1","0.5,0,1,0.5,0,1,0,1,0.5","2",""
"","html-keyboard-response","293","142591","0.0-383.0","","","","","null","<img src=""img/food6.png"" style=""width:200px; border:14px solid green;"">","null","","","","","","","","","",""
"","image-keyboard-response","294","142646","0.0-384.0","","","","","54.699999928474426","img/food6.png","76","55.300000071525574","3","1","","2","1","1,0.5,0,1,0.5,0,0.5,0,1","0.5,0,1,0.5,0,1,0,1,0.5","2",""
"","html-keyboard-response","295","142947","0.0-385.0","","","","","null","<img src=""img/food6.png"" style=""width:200px; border:14px solid green;"">","null","","","","","","","","","",""
"","image-keyboard-response","296","142958","0.0-386.0","","","","","9.5","img/food6.png","76","10.299999952316284","3","1","","2","1","1,0.5,0,1,0.5,0,0.5,0,1","0.5,0,1,0.5,0,1,0,1,0.5","2",""
"","html-keyboard-response","297","143259","0.0-387.0","","","","","null","<img src=""img/food6.png"" style=""width:200px; border:14px solid green;"">","null","","","","","","","","","",""
"","image-keyboard-response","298","143593","0.0-388.0","","","","","331.39999997615814","img/food5.png","76","332.90000009536743","3","0","","3","1","1,0.5,0,1,0.5,0,0.5,0,1","0.5,0,1,0.5,0,1,0,1,0.5","2",""
"","html-keyboard-response","299","143896","0.0-389.0","","","","","null","<img src=""img/food5.png"" style=""width:200px;border:14px solid red;"">","null","","","","","","","","","",""
"","image-keyboard-response","300","143982","0.0-390.0","","","","","84.79999995231628","img/food3.png","76","85.60000002384186","3","1","","1","1","1,0.5,0,1,0.5,0,0.5,0,1","0.5,0,1,0.5,0,1,0,1,0.5","2",""
"","html-keyboard-response","301","144284","0.0-391.0","","","","","null","<img src=""img/food3.png"" style=""width:200px; border:14px solid green;"">","null","","","","","","","","","",""
"","image-keyboard-response","302","144438","0.0-392.0","","","","","152.70000004768372","img/food3.png","76","153.5","3","1","","1","1","1,0.5,0,1,0.5,0,0.5,0,1","0.5,0,1,0.5,0,1,0,1,0.5","2",""
"","html-keyboard-response","303","144739","0.0-393.0","","","","","null","<img src=""img/food3.png"" style=""width:200px; border:14px solid green;"">","null","","","","","","","","","",""
"","image-keyboard-response","304","145121","0.0-394.0","","","","","380.60000002384186","img/food5.png","76","381.5","3","0","","3","1","1,0.5,0,1,0.5,0,0.5,0,1","0.5,0,1,0.5,0,1,0,1,0.5","2",""
"","html-keyboard-response","305","145422","0.0-395.0","","","","","null","<img src=""img/food5.png"" style=""width:200px;border:14px solid red;"">","null","","","","","","","","","",""
"","image-keyboard-response","306","145870","0.0-396.0","","","","","446.59999990463257","img/food6.png","76","447.60000002384186","3","1","","2","1","1,0.5,0,1,0.5,0,0.5,0,1","0.5,0,1,0.5,0,1,0,1,0.5","2",""
"","html-keyboard-response","307","146185","0.0-397.0","","","","","null","<img src=""img/food6.png"" style=""width:200px; border:14px solid green;"">","null","","","","","","","","","",""
"","image-keyboard-response","308","146265","0.0-398.0","","","","","78.5","img/food5.png","76","79.5","3","1","","3","1","1,0.5,0,1,0.5,0,0.5,0,1","0.5,0,1,0.5,0,1,0,1,0.5","2",""
"","html-keyboard-response","309","146566","0.0-399.0","","","","","null","<img src=""img/food5.png"" style=""width:200px; border:14px solid green;"">","null","","","","","","","","","",""
"","image-keyboard-response","310","146975","0.0-400.0","","","","","407.5","img/food3.png","76","408.60000002384186","3","1","","1","1","1,0.5,0,1,0.5,0,0.5,0,1","0.5,0,1,0.5,0,1,0,1,0.5","2",""
"","html-keyboard-response","311","147277","0.0-401.0","","","","","null","<img src=""img/food3.png"" style=""width:200px; border:14px solid green;"">","null","","","","","","","","","",""
"","image-keyboard-response","312","147744","0.0-402.0","","","","","466","img/food5.png","75","467.10000002384186","2","1","","3","1","1,0.5,0,1,0.5,0,0.5,0,1","0.5,0,1,0.5,0,1,0,1,0.5","2",""
"","html-keyboard-response","313","148047","0.0-403.0","","","","","null","<img src=""img/food5.png"" style=""width:200px; border:14px solid green;"">","null","","","","","","","","","",""
"","image-keyboard-response","314","148424","0.0-404.0","","","","","374.60000002384186","img/food6.png","76","375.89999997615814","3","1","","2","1","1,0.5,0,1,0.5,0,0.5,0,1","0.5,0,1,0.5,0,1,0,1,0.5","2",""
"","html-keyboard-response","315","148726","0.0-405.0","","","","","null","<img src=""img/food6.png"" style=""width:200px; border:14px solid green;"">","null","","","","","","","","","",""
"","image-keyboard-response","316","149039","0.0-406.0","","","","","311.2999999523163","img/food6.png","76","312.2000000476837","3","1","","2","1","1,0.5,0,1,0.5,0,0.5,0,1","0.5,0,1,0.5,0,1,0,1,0.5","2",""
"","html-keyboard-response","317","149343","0.0-407.0","","","","","null","<img src=""img/food6.png"" style=""width:200px; border:14px solid green;"">","null","","","","","","","","","",""
"","image-keyboard-response","318","149630","0.0-408.0","","","","","286.7000000476837","img/food6.png","76","287.39999997615814","3","1","","2","1","1,0.5,0,1,0.5,0,0.5,0,1","0.5,0,1,0.5,0,1,0,1,0.5","2",""
"","html-keyboard-response","319","149931","0.0-409.0","","","","","null","<img src=""img/food6.png"" style=""width:200px; border:14px solid green;"">","null","","","","","","","","","",""
"","image-keyboard-response","320","150144","0.0-410.0","","","","","211.5","img/food6.png","76","212.20000004768372","3","1","","2","1","1,0.5,0,1,0.5,0,0.5,0,1","0.5,0,1,0.5,0,1,0,1,0.5","2",""
"","html-keyboard-response","321","150446","0.0-411.0","","","","","null","<img src=""img/food6.png"" style=""width:200px; border:14px solid green;"">","null","","","","","","","","","",""
"","image-keyboard-response","322","150560","0.0-412.0","","","","","112.19999992847443","img/food3.png","76","113.89999997615814","3","1","","1","1","1,0.5,0,1,0.5,0,0.5,0,1","0.5,0,1,0.5,0,1,0,1,0.5","2",""
"","html-keyboard-response","323","150864","0.0-413.0","","","","","null","<img src=""img/food3.png"" style=""width:200px; border:14px solid green;"">","null","","","","","","","","","",""
"","image-keyboard-response","324","151327","0.0-414.0","","","","","462","img/food6.png","76","463","3","1","","2","1","1,0.5,0,1,0.5,0,0.5,0,1","0.5,0,1,0.5,0,1,0,1,0.5","2",""
"","html-keyboard-response","325","151629","0.0-415.0","","","","","null","<img src=""img/food6.png"" style=""width:200px; border:14px solid green;"">","null","","","","","","","","","",""
"","image-keyboard-response","326","152078","0.0-416.0","","","","","448","img/food5.png","75","448.6999999284744","2","1","","3","1","1,0.5,0,1,0.5,0,0.5,0,1","0.5,0,1,0.5,0,1,0,1,0.5","2",""
"","html-keyboard-response","327","152380","0.0-417.0","","","","","null","<img src=""img/food5.png"" style=""width:200px; border:14px solid green;"">","null","","","","","","","","","",""
"","image-keyboard-response","328","152775","0.0-418.0","","","","","393.60000002384186","img/food3.png","76","394.40000009536743","3","1","","1","1","1,0.5,0,1,0.5,0,0.5,0,1","0.5,0,1,0.5,0,1,0,1,0.5","2",""
"","html-keyboard-response","329","153076","0.0-419.0","","","","","null","<img src=""img/food3.png"" style=""width:200px; border:14px solid green;"">","null","","","","","","","","","",""
"","image-keyboard-response","330","153326","0.0-420.0","","","","","249.39999997615814","img/food3.png","76","250","3","1","","1","1","1,0.5,0,1,0.5,0,0.5,0,1","0.5,0,1,0.5,0,1,0,1,0.5","2",""
"","html-keyboard-response","331","153629","0.0-421.0","","","","","null","<img src=""img/food3.png"" style=""width:200px; border:14px solid green;"">","null","","","","","","","","","",""
"","image-keyboard-response","332","154120","0.0-422.0","","","","","490.6999999284744","img/food5.png","75","491.59999990463257","2","1","","3","1","1,0.5,0,1,0.5,0,0.5,0,1","0.5,0,1,0.5,0,1,0,1,0.5","2",""
"","html-keyboard-response","333","154434","0.0-423.0","","","","","null","<img src=""img/food5.png"" style=""width:200px; border:14px solid green;"">","null","","","","","","","","","",""
"","image-keyboard-response","334","154823","0.0-424.0","","","","","387.5","img/food6.png","76","388.39999997615814","3","1","","2","1","1,0.5,0,1,0.5,0,0.5,0,1","0.5,0,1,0.5,0,1,0,1,0.5","2",""
"","html-keyboard-response","335","155125","0.0-425.0","","","","","null","<img src=""img/food6.png"" style=""width:200px; border:14px solid green;"">","null","","","","","","","","","",""
"","image-keyboard-response","336","155640","0.0-426.0","","","","","513.6000000238419","img/food5.png","75","515","2","1","","3","1","1,0.5,0,1,0.5,0,0.5,0,1","0.5,0,1,0.5,0,1,0,1,0.5","2",""
"","html-keyboard-response","337","155942","0.0-427.0","","","","","null","<img src=""img/food5.png"" style=""width:200px; border:14px solid green;"">","null","","","","","","","","","",""
"","image-keyboard-response","338","156464","0.0-428.0","","","","","521.5","img/food5.png","75","522","2","1","","3","1","1,0.5,0,1,0.5,0,0.5,0,1","0.5,0,1,0.5,0,1,0,1,0.5","2",""
"","html-keyboard-response","339","156767","0.0-429.0","","","","","null","<img src=""img/food5.png"" style=""width:200px; border:14px solid green;"">","null","","","","","","","","","",""
"","image-keyboard-response","340","157199","0.0-430.0","","","","","431","img/food6.png","76","431.89999997615814","3","1","","2","1","1,0.5,0,1,0.5,0,0.5,0,1","0.5,0,1,0.5,0,1,0,1,0.5","2",""
"","html-keyboard-response","341","157500","0.0-431.0","","","","","null","<img src=""img/food6.png"" style=""width:200px; border:14px solid green;"">","null","","","","","","","","","",""
"","image-keyboard-response","342","157584","0.0-432.0","","","","","82.20000004768372","img/food3.png","76","83.30000007152557","3","1","","1","1","1,0.5,0,1,0.5,0,0.5,0,1","0.5,0,1,0.5,0,1,0,1,0.5","2",""
"","html-keyboard-response","343","157885","0.0-433.0","","","","","null","<img src=""img/food3.png"" style=""width:200px; border:14px solid green;"">","null","","","","","","","","","",""
"","image-keyboard-response","344","158294","0.0-434.0","","","","","408.7000000476837","img/food3.png","76","409.1999999284744","3","1","","1","1","1,0.5,0,1,0.5,0,0.5,0,1","0.5,0,1,0.5,0,1,0,1,0.5","2",""
"","html-keyboard-response","345","158596","0.0-435.0","","","","","null","<img src=""img/food3.png"" style=""width:200px; border:14px solid green;"">","null","","","","","","","","","",""
"","image-keyboard-response","346","158815","0.0-436.0","","","","","218.20000004768372","img/food3.png","76","219.20000004768372","3","1","","1","1","1,0.5,0,1,0.5,0,0.5,0,1","0.5,0,1,0.5,0,1,0,1,0.5","2",""
"","html-keyboard-response","347","159117","0.0-437.0","","","","","null","<img src=""img/food3.png"" style=""width:200px; border:14px solid green;"">","null","","","","","","","","","",""
"","image-keyboard-response","348","159432","0.0-438.0","","","","","314.09999990463257","img/food3.png","76","315.2000000476837","3","1","","1","1","1,0.5,0,1,0.5,0,0.5,0,1","0.5,0,1,0.5,0,1,0,1,0.5","2",""
"","html-keyboard-response","349","159734","0.0-439.0","","","","","null","<img src=""img/food3.png"" style=""width:200px; border:14px solid green;"">","null","","","","","","","","","",""
"","image-keyboard-response","350","160150","0.0-440.0","","","","","414.6999999284744","img/food3.png","76","415.5","3","1","","1","1","1,0.5,0,1,0.5,0,0.5,0,1","0.5,0,1,0.5,0,1,0,1,0.5","2",""
"","html-keyboard-response","351","160452","0.0-441.0","","","","","null","<img src=""img/food3.png"" style=""width:200px; border:14px solid green;"">","null","","","","","","","","","",""
"","image-keyboard-response","352","161088","0.0-442.0","","","","","634.3999999761581","img/food5.png","75","635.5","2","1","","3","1","1,0.5,0,1,0.5,0,0.5,0,1","0.5,0,1,0.5,0,1,0,1,0.5","2",""
"","html-keyboard-response","353","161390","0.0-443.0","","","","","null","<img src=""img/food5.png"" style=""width:200px; border:14px solid green;"">","null","","","","","","","","","",""
"","image-keyboard-response","354","161671","0.0-444.0","","","","","279.90000009536743","img/food5.png","75","280.7000000476837","2","1","","3","1","1,0.5,0,1,0.5,0,0.5,0,1","0.5,0,1,0.5,0,1,0,1,0.5","2",""
"","html-keyboard-response","355","161972","0.0-445.0","","","","","null","<img src=""img/food5.png"" style=""width:200px; border:14px solid green;"">","null","","","","","","","","","",""
"","image-keyboard-response","356","162416","0.0-446.0","","","","","442.60000002384186","img/food6.png","76","443.2000000476837","3","1","","2","1","1,0.5,0,1,0.5,0,0.5,0,1","0.5,0,1,0.5,0,1,0,1,0.5","2",""
"","html-keyboard-response","357","162717","0.0-447.0","","","","","null","<img src=""img/food6.png"" style=""width:200px; border:14px solid green;"">","null","","","","","","","","","",""
"","image-keyboard-response","358","162959","0.0-448.0","","","","","241","img/food3.png","76","241.70000004768372","3","1","","1","1","1,0.5,0,1,0.5,0,0.5,0,1","0.5,0,1,0.5,0,1,0,1,0.5","2",""
"","html-keyboard-response","359","163261","0.0-449.0","","","","","null","<img src=""img/food3.png"" style=""width:200px; border:14px solid green;"">","null","","","","","","","","","",""
"","image-keyboard-response","360","163769","0.0-450.0","","","","","506.2999999523163","img/food5.png","75","507.3000000715256","2","1","","3","1","1,0.5,0,1,0.5,0,0.5,0,1","0.5,0,1,0.5,0,1,0,1,0.5","2",""
"","html-keyboard-response","361","164071","0.0-451.0","","","","","null","<img src=""img/food5.png"" style=""width:200px; border:14px solid green;"">","null","","","","","","","","","",""
"","image-keyboard-response","362","164542","0.0-452.0","","","","","471.2000000476837","img/food6.png","76","471.6999999284744","3","1","","2","1","1,0.5,0,1,0.5,0,0.5,0,1","0.5,0,1,0.5,0,1,0,1,0.5","2",""
"","html-keyboard-response","363","164844","0.0-453.0","","","","","null","<img src=""img/food6.png"" style=""width:200px; border:14px solid green;"">","null","","","","","","","","","",""
"","html-keyboard-response","364","167064","0.0-454.0","","","","","","","","","","","","","","","","",""
"","instructions","365","168933","0.0-455.0","","","","[{""page_index"":0,""viewing_time"":1868.6000000238419}]","1868.7000000476837","","","","","","","","","","","",""
"","survey-text","366","174338","0.0-456.0","","","","","5402.800000071526","","","","","","","","","","","","{""Q0"":""A193SP8INHA4MB""}"
