"success","trial_type","trial_index","time_elapsed","internal_node_id","assignmentID","mturkID","hitID","view_history","rt","stimulus","key_press","reactionTime","a","r","warning","s","cond","reward_cond","reward_cond_actual","reward_matrix_idx","responses"
"true","fullscreen","0","87304","0.0-0.0","351SEKWQS132GPPCZWFB2WG7ZWTDM9","A19NGUFGC7KIGW","3VAOOVPI3ZEZMZXPLZ7IWDDZ15LLLX","","","","","","","","","","","","","",""
"","instructions","1","103385","0.0-1.0","351SEKWQS132GPPCZWFB2WG7ZWTDM9","A19NGUFGC7KIGW","3VAOOVPI3ZEZMZXPLZ7IWDDZ15LLLX","[{""page_index"":0,""viewing_time"":1696},{""page_index"":1,""viewing_time"":1459},{""page_index"":2,""viewing_time"":1584},{""page_index"":3,""viewing_time"":1821},{""page_index"":4,""viewing_time"":1356},{""page_index"":5,""viewing_time"":1163},{""page_index"":6,""viewing_time"":7000}]","16080","","","","","","","","","","","",""
"","instructions","2","117859","0.0-2.0","351SEKWQS132GPPCZWFB2WG7ZWTDM9","A19NGUFGC7KIGW","3VAOOVPI3ZEZMZXPLZ7IWDDZ15LLLX","[{""page_index"":0,""viewing_time"":12568},{""page_index"":1,""viewing_time"":1905}]","14473","","","","","","","","","","","",""
"","image-keyboard-response","3","118310","0.0-3.0","351SEKWQS132GPPCZWFB2WG7ZWTDM9","A19NGUFGC7KIGW","3VAOOVPI3ZEZMZXPLZ7IWDDZ15LLLX","","448","img/food1.png","74","450","1","1","false","2","2","1,0.7,0,1,0.7,0,0.7,0,1","0.7,0,1,0.7,0,1,0,1,0.7","2",""
"","html-keyboard-response","4","118615","0.0-4.0","351SEKWQS132GPPCZWFB2WG7ZWTDM9","A19NGUFGC7KIGW","3VAOOVPI3ZEZMZXPLZ7IWDDZ15LLLX","","null","<img src=""img/food1.png"" style=""width:200px; border:14px solid green;"">","null","","","","","","","","","",""
"","image-keyboard-response","5","119244","0.0-6.0","351SEKWQS132GPPCZWFB2WG7ZWTDM9","A19NGUFGC7KIGW","3VAOOVPI3ZEZMZXPLZ7IWDDZ15LLLX","","629","img/food5.png","75","630","2","1","false","3","2","1,0.7,0,1,0.7,0,0.7,0,1","0.7,0,1,0.7,0,1,0,1,0.7","2",""
"","html-keyboard-response","6","119547","0.0-7.0","351SEKWQS132GPPCZWFB2WG7ZWTDM9","A19NGUFGC7KIGW","3VAOOVPI3ZEZMZXPLZ7IWDDZ15LLLX","","null","<img src=""img/food5.png"" style=""width:200px; border:14px solid green;"">","null","","","","","","","","","",""
"","image-keyboard-response","7","120051","0.0-9.0","351SEKWQS132GPPCZWFB2WG7ZWTDM9","A19NGUFGC7KIGW","3VAOOVPI3ZEZMZXPLZ7IWDDZ15LLLX","","504","img/food5.png","75","505","2","1","false","3","2","1,0.7,0,1,0.7,0,0.7,0,1","0.7,0,1,0.7,0,1,0,1,0.7","2",""
"","html-keyboard-response","8","120355","0.0-10.0","351SEKWQS132GPPCZWFB2WG7ZWTDM9","A19NGUFGC7KIGW","3VAOOVPI3ZEZMZXPLZ7IWDDZ15LLLX","","null","<img src=""img/food5.png"" style=""width:200px; border:14px solid green;"">","null","","","","","","","","","",""
"","image-keyboard-response","9","120924","0.0-12.0","351SEKWQS132GPPCZWFB2WG7ZWTDM9","A19NGUFGC7KIGW","3VAOOVPI3ZEZMZXPLZ7IWDDZ15LLLX","","568","img/food4.png","76","568","3","1","false","1","2","1,0.7,0,1,0.7,0,0.7,0,1","0.7,0,1,0.7,0,1,0,1,0.7","2",""
"","html-keyboard-response","10","121224","0.0-13.0","351SEKWQS132GPPCZWFB2WG7ZWTDM9","A19NGUFGC7KIGW","3VAOOVPI3ZEZMZXPLZ7IWDDZ15LLLX","","null","<img src=""img/food4.png"" style=""width:200px; border:14px solid green;"">","null","","","","","","","","","",""
"","image-keyboard-response","11","121484","0.0-15.0","351SEKWQS132GPPCZWFB2WG7ZWTDM9","A19NGUFGC7KIGW","3VAOOVPI3ZEZMZXPLZ7IWDDZ15LLLX","","260","img/food4.png","76","260","3","1","false","1","2","1,0.7,0,1,0.7,0,0.7,0,1","0.7,0,1,0.7,0,1,0,1,0.7","2",""
"","html-keyboard-response","12","121788","0.0-16.0","351SEKWQS132GPPCZWFB2WG7ZWTDM9","A19NGUFGC7KIGW","3VAOOVPI3ZEZMZXPLZ7IWDDZ15LLLX","","null","<img src=""img/food4.png"" style=""width:200px; border:14px solid green;"">","null","","","","","","","","","",""
"","image-keyboard-response","13","122236","0.0-18.0","351SEKWQS132GPPCZWFB2WG7ZWTDM9","A19NGUFGC7KIGW","3VAOOVPI3ZEZMZXPLZ7IWDDZ15LLLX","","447","img/food1.png","74","448","1","1","false","2","2","1,0.7,0,1,0.7,0,0.7,0,1","0.7,0,1,0.7,0,1,0,1,0.7","2",""
"","html-keyboard-response","14","122545","0.0-19.0","351SEKWQS132GPPCZWFB2WG7ZWTDM9","A19NGUFGC7KIGW","3VAOOVPI3ZEZMZXPLZ7IWDDZ15LLLX","","null","<img src=""img/food1.png"" style=""width:200px; border:14px solid green;"">","null","","","","","","","","","",""
"","image-keyboard-response","15","123108","0.0-21.0","351SEKWQS132GPPCZWFB2WG7ZWTDM9","A19NGUFGC7KIGW","3VAOOVPI3ZEZMZXPLZ7IWDDZ15LLLX","","563","img/food5.png","75","563","2","1","false","3","2","1,0.7,0,1,0.7,0,0.7,0,1","0.7,0,1,0.7,0,1,0,1,0.7","2",""
"","html-keyboard-response","16","123413","0.0-22.0","351SEKWQS132GPPCZWFB2WG7ZWTDM9","A19NGUFGC7KIGW","3VAOOVPI3ZEZMZXPLZ7IWDDZ15LLLX","","null","<img src=""img/food5.png"" style=""width:200px; border:14px solid green;"">","null","","","","","","","","","",""
"","image-keyboard-response","17","123885","0.0-24.0","351SEKWQS132GPPCZWFB2WG7ZWTDM9","A19NGUFGC7KIGW","3VAOOVPI3ZEZMZXPLZ7IWDDZ15LLLX","","472","img/food4.png","76","472","3","1","false","1","2","1,0.7,0,1,0.7,0,0.7,0,1","0.7,0,1,0.7,0,1,0,1,0.7","2",""
"","html-keyboard-response","18","124188","0.0-25.0","351SEKWQS132GPPCZWFB2WG7ZWTDM9","A19NGUFGC7KIGW","3VAOOVPI3ZEZMZXPLZ7IWDDZ15LLLX","","null","<img src=""img/food4.png"" style=""width:200px; border:14px solid green;"">","null","","","","","","","","","",""
"","image-keyboard-response","19","124572","0.0-27.0","351SEKWQS132GPPCZWFB2WG7ZWTDM9","A19NGUFGC7KIGW","3VAOOVPI3ZEZMZXPLZ7IWDDZ15LLLX","","383","img/food4.png","76","384","3","1","false","1","2","1,0.7,0,1,0.7,0,0.7,0,1","0.7,0,1,0.7,0,1,0,1,0.7","2",""
"","html-keyboard-response","20","124880","0.0-28.0","351SEKWQS132GPPCZWFB2WG7ZWTDM9","A19NGUFGC7KIGW","3VAOOVPI3ZEZMZXPLZ7IWDDZ15LLLX","","null","<img src=""img/food4.png"" style=""width:200px; border:14px solid green;"">","null","","","","","","","","","",""
"","image-keyboard-response","21","125428","0.0-30.0","351SEKWQS132GPPCZWFB2WG7ZWTDM9","A19NGUFGC7KIGW","3VAOOVPI3ZEZMZXPLZ7IWDDZ15LLLX","","548","img/food5.png","75","549","2","1","false","3","2","1,0.7,0,1,0.7,0,0.7,0,1","0.7,0,1,0.7,0,1,0,1,0.7","2",""
"","html-keyboard-response","22","125743","0.0-31.0","351SEKWQS132GPPCZWFB2WG7ZWTDM9","A19NGUFGC7KIGW","3VAOOVPI3ZEZMZXPLZ7IWDDZ15LLLX","","null","<img src=""img/food5.png"" style=""width:200px; border:14px solid green;"">","null","","","","","","","","","",""
"","image-keyboard-response","23","126046","0.0-33.0","351SEKWQS132GPPCZWFB2WG7ZWTDM9","A19NGUFGC7KIGW","3VAOOVPI3ZEZMZXPLZ7IWDDZ15LLLX","","302","img/food5.png","75","302","2","1","false","3","2","1,0.7,0,1,0.7,0,0.7,0,1","0.7,0,1,0.7,0,1,0,1,0.7","2",""
"","html-keyboard-response","24","126349","0.0-34.0","351SEKWQS132GPPCZWFB2WG7ZWTDM9","A19NGUFGC7KIGW","3VAOOVPI3ZEZMZXPLZ7IWDDZ15LLLX","","null","<img src=""img/food5.png"" style=""width:200px; border:14px solid green;"">","null","","","","","","","","","",""
"","image-keyboard-response","25","126813","0.0-36.0","351SEKWQS132GPPCZWFB2WG7ZWTDM9","A19NGUFGC7KIGW","3VAOOVPI3ZEZMZXPLZ7IWDDZ15LLLX","","463","img/food1.png","74","464","1","1","false","2","2","1,0.7,0,1,0.7,0,0.7,0,1","0.7,0,1,0.7,0,1,0,1,0.7","2",""
"","html-keyboard-response","26","127126","0.0-37.0","351SEKWQS132GPPCZWFB2WG7ZWTDM9","A19NGUFGC7KIGW","3VAOOVPI3ZEZMZXPLZ7IWDDZ15LLLX","","null","<img src=""img/food1.png"" style=""width:200px; border:14px solid green;"">","null","","","","","","","","","",""
"","image-keyboard-response","27","127542","0.0-39.0","351SEKWQS132GPPCZWFB2WG7ZWTDM9","A19NGUFGC7KIGW","3VAOOVPI3ZEZMZXPLZ7IWDDZ15LLLX","","417","img/food4.png","76","417","3","1","false","1","2","1,0.7,0,1,0.7,0,0.7,0,1","0.7,0,1,0.7,0,1,0,1,0.7","2",""
"","html-keyboard-response","28","127858","0.0-40.0","351SEKWQS132GPPCZWFB2WG7ZWTDM9","A19NGUFGC7KIGW","3VAOOVPI3ZEZMZXPLZ7IWDDZ15LLLX","","null","<img src=""img/food4.png"" style=""width:200px; border:14px solid green;"">","null","","","","","","","","","",""
"","image-keyboard-response","29","128158","0.0-42.0","351SEKWQS132GPPCZWFB2WG7ZWTDM9","A19NGUFGC7KIGW","3VAOOVPI3ZEZMZXPLZ7IWDDZ15LLLX","","299","img/food4.png","76","299","3","1","false","1","2","1,0.7,0,1,0.7,0,0.7,0,1","0.7,0,1,0.7,0,1,0,1,0.7","2",""
"","html-keyboard-response","30","128464","0.0-43.0","351SEKWQS132GPPCZWFB2WG7ZWTDM9","A19NGUFGC7KIGW","3VAOOVPI3ZEZMZXPLZ7IWDDZ15LLLX","","null","<img src=""img/food4.png"" style=""width:200px; border:14px solid green;"">","null","","","","","","","","","",""
"","image-keyboard-response","31","128758","0.0-45.0","351SEKWQS132GPPCZWFB2WG7ZWTDM9","A19NGUFGC7KIGW","3VAOOVPI3ZEZMZXPLZ7IWDDZ15LLLX","","293","img/food4.png","76","294","3","1","false","1","2","1,0.7,0,1,0.7,0,0.7,0,1","0.7,0,1,0.7,0,1,0,1,0.7","2",""
"","html-keyboard-response","32","129061","0.0-46.0","351SEKWQS132GPPCZWFB2WG7ZWTDM9","A19NGUFGC7KIGW","3VAOOVPI3ZEZMZXPLZ7IWDDZ15LLLX","","null","<img src=""img/food4.png"" style=""width:200px; border:14px solid green;"">","null","","","","","","","","","",""
"","image-keyboard-response","33","129654","0.0-48.0","351SEKWQS132GPPCZWFB2WG7ZWTDM9","A19NGUFGC7KIGW","3VAOOVPI3ZEZMZXPLZ7IWDDZ15LLLX","","593","img/food5.png","75","593","2","1","false","3","2","1,0.7,0,1,0.7,0,0.7,0,1","0.7,0,1,0.7,0,1,0,1,0.7","2",""
"","html-keyboard-response","34","129965","0.0-49.0","351SEKWQS132GPPCZWFB2WG7ZWTDM9","A19NGUFGC7KIGW","3VAOOVPI3ZEZMZXPLZ7IWDDZ15LLLX","","null","<img src=""img/food5.png"" style=""width:200px; border:14px solid green;"">","null","","","","","","","","","",""
"","image-keyboard-response","35","130206","0.0-51.0","351SEKWQS132GPPCZWFB2WG7ZWTDM9","A19NGUFGC7KIGW","3VAOOVPI3ZEZMZXPLZ7IWDDZ15LLLX","","239","img/food4.png","75","240","2","0","false","1","2","1,0.7,0,1,0.7,0,0.7,0,1","0.7,0,1,0.7,0,1,0,1,0.7","2",""
"","html-keyboard-response","36","130508","0.0-52.0","351SEKWQS132GPPCZWFB2WG7ZWTDM9","A19NGUFGC7KIGW","3VAOOVPI3ZEZMZXPLZ7IWDDZ15LLLX","","null","<img src=""img/food4.png"" style=""width:200px;border:14px solid red;"">","null","","","","","","","","","",""
"","image-keyboard-response","37","131085","0.0-54.0","351SEKWQS132GPPCZWFB2WG7ZWTDM9","A19NGUFGC7KIGW","3VAOOVPI3ZEZMZXPLZ7IWDDZ15LLLX","","577","img/food1.png","74","577","1","1","false","2","2","1,0.7,0,1,0.7,0,0.7,0,1","0.7,0,1,0.7,0,1,0,1,0.7","2",""
"","html-keyboard-response","38","131399","0.0-55.0","351SEKWQS132GPPCZWFB2WG7ZWTDM9","A19NGUFGC7KIGW","3VAOOVPI3ZEZMZXPLZ7IWDDZ15LLLX","","null","<img src=""img/food1.png"" style=""width:200px; border:14px solid green;"">","null","","","","","","","","","",""
"","image-keyboard-response","39","132068","0.0-57.0","351SEKWQS132GPPCZWFB2WG7ZWTDM9","A19NGUFGC7KIGW","3VAOOVPI3ZEZMZXPLZ7IWDDZ15LLLX","","668","img/food5.png","75","668","2","1","false","3","2","1,0.7,0,1,0.7,0,0.7,0,1","0.7,0,1,0.7,0,1,0,1,0.7","2",""
"","html-keyboard-response","40","132369","0.0-58.0","351SEKWQS132GPPCZWFB2WG7ZWTDM9","A19NGUFGC7KIGW","3VAOOVPI3ZEZMZXPLZ7IWDDZ15LLLX","","null","<img src=""img/food5.png"" style=""width:200px; border:14px solid green;"">","null","","","","","","","","","",""
"","image-keyboard-response","41","132660","0.0-60.0","351SEKWQS132GPPCZWFB2WG7ZWTDM9","A19NGUFGC7KIGW","3VAOOVPI3ZEZMZXPLZ7IWDDZ15LLLX","","289","img/food5.png","75","290","2","1","false","3","2","1,0.7,0,1,0.7,0,0.7,0,1","0.7,0,1,0.7,0,1,0,1,0.7","2",""
"","html-keyboard-response","42","132971","0.0-61.0","351SEKWQS132GPPCZWFB2WG7ZWTDM9","A19NGUFGC7KIGW","3VAOOVPI3ZEZMZXPLZ7IWDDZ15LLLX","","null","<img src=""img/food5.png"" style=""width:200px; border:14px solid green;"">","null","","","","","","","","","",""
"","image-keyboard-response","43","133515","0.0-63.0","351SEKWQS132GPPCZWFB2WG7ZWTDM9","A19NGUFGC7KIGW","3VAOOVPI3ZEZMZXPLZ7IWDDZ15LLLX","","544","img/food4.png","76","545","3","1","false","1","2","1,0.7,0,1,0.7,0,0.7,0,1","0.7,0,1,0.7,0,1,0,1,0.7","2",""
"","html-keyboard-response","44","133826","0.0-64.0","351SEKWQS132GPPCZWFB2WG7ZWTDM9","A19NGUFGC7KIGW","3VAOOVPI3ZEZMZXPLZ7IWDDZ15LLLX","","null","<img src=""img/food4.png"" style=""width:200px; border:14px solid green;"">","null","","","","","","","","","",""
"","image-keyboard-response","45","134116","0.0-66.0","351SEKWQS132GPPCZWFB2WG7ZWTDM9","A19NGUFGC7KIGW","3VAOOVPI3ZEZMZXPLZ7IWDDZ15LLLX","","290","img/food4.png","76","290","3","1","false","1","2","1,0.7,0,1,0.7,0,0.7,0,1","0.7,0,1,0.7,0,1,0,1,0.7","2",""
"","html-keyboard-response","46","134429","0.0-67.0","351SEKWQS132GPPCZWFB2WG7ZWTDM9","A19NGUFGC7KIGW","3VAOOVPI3ZEZMZXPLZ7IWDDZ15LLLX","","null","<img src=""img/food4.png"" style=""width:200px; border:14px solid green;"">","null","","","","","","","","","",""
"","image-keyboard-response","47","134885","0.0-69.0","351SEKWQS132GPPCZWFB2WG7ZWTDM9","A19NGUFGC7KIGW","3VAOOVPI3ZEZMZXPLZ7IWDDZ15LLLX","","454","img/food1.png","74","454","1","0","false","2","2","1,0.7,0,1,0.7,0,0.7,0,1","0.7,0,1,0.7,0,1,0,1,0.7","2",""
"","html-keyboard-response","48","135199","0.0-70.0","351SEKWQS132GPPCZWFB2WG7ZWTDM9","A19NGUFGC7KIGW","3VAOOVPI3ZEZMZXPLZ7IWDDZ15LLLX","","null","<img src=""img/food1.png"" style=""width:200px;border:14px solid red;"">","null","","","","","","","","","",""
"","image-keyboard-response","49","136209","0.0-72.0","351SEKWQS132GPPCZWFB2WG7ZWTDM9","A19NGUFGC7KIGW","3VAOOVPI3ZEZMZXPLZ7IWDDZ15LLLX","","","img/food5.png","","1010","-1","0","true","3","2","1,0.7,0,1,0.7,0,0.7,0,1","0.7,0,1,0.7,0,1,0,1,0.7","2",""
"","html-keyboard-response","50","136519","0.0-73.0","351SEKWQS132GPPCZWFB2WG7ZWTDM9","A19NGUFGC7KIGW","3VAOOVPI3ZEZMZXPLZ7IWDDZ15LLLX","","null","<img src=""img/food5.png"" style=""width:200px;border:14px solid red;"">","null","","","","","","","","","",""
"","html-keyboard-response","51","138496","0.0-74.0-0.0","351SEKWQS132GPPCZWFB2WG7ZWTDM9","A19NGUFGC7KIGW","3VAOOVPI3ZEZMZXPLZ7IWDDZ15LLLX","","","","","","","","","","","","","",""
"","image-keyboard-response","52","139203","0.0-75.0","351SEKWQS132GPPCZWFB2WG7ZWTDM9","A19NGUFGC7KIGW","3VAOOVPI3ZEZMZXPLZ7IWDDZ15LLLX","","707","img/food4.png","76","708","3","1","false","1","2","1,0.7,0,1,0.7,0,0.7,0,1","0.7,0,1,0.7,0,1,0,1,0.7","2",""
"","html-keyboard-response","53","139509","0.0-76.0","351SEKWQS132GPPCZWFB2WG7ZWTDM9","A19NGUFGC7KIGW","3VAOOVPI3ZEZMZXPLZ7IWDDZ15LLLX","","null","<img src=""img/food4.png"" style=""width:200px; border:14px solid green;"">","null","","","","","","","","","",""
"","image-keyboard-response","54","139917","0.0-78.0","351SEKWQS132GPPCZWFB2WG7ZWTDM9","A19NGUFGC7KIGW","3VAOOVPI3ZEZMZXPLZ7IWDDZ15LLLX","","406","img/food5.png","75","407","2","1","false","3","2","1,0.7,0,1,0.7,0,0.7,0,1","0.7,0,1,0.7,0,1,0,1,0.7","2",""
"","html-keyboard-response","55","140231","0.0-79.0","351SEKWQS132GPPCZWFB2WG7ZWTDM9","A19NGUFGC7KIGW","3VAOOVPI3ZEZMZXPLZ7IWDDZ15LLLX","","null","<img src=""img/food5.png"" style=""width:200px; border:14px solid green;"">","null","","","","","","","","","",""
"","image-keyboard-response","56","140493","0.0-81.0","351SEKWQS132GPPCZWFB2WG7ZWTDM9","A19NGUFGC7KIGW","3VAOOVPI3ZEZMZXPLZ7IWDDZ15LLLX","","260","img/food5.png","75","261","2","1","false","3","2","1,0.7,0,1,0.7,0,0.7,0,1","0.7,0,1,0.7,0,1,0,1,0.7","2",""
"","html-keyboard-response","57","140802","0.0-82.0","351SEKWQS132GPPCZWFB2WG7ZWTDM9","A19NGUFGC7KIGW","3VAOOVPI3ZEZMZXPLZ7IWDDZ15LLLX","","null","<img src=""img/food5.png"" style=""width:200px; border:14px solid green;"">","null","","","","","","","","","",""
"","image-keyboard-response","58","141397","0.0-84.0","351SEKWQS132GPPCZWFB2WG7ZWTDM9","A19NGUFGC7KIGW","3VAOOVPI3ZEZMZXPLZ7IWDDZ15LLLX","","594","img/food4.png","76","594","3","1","false","1","2","1,0.7,0,1,0.7,0,0.7,0,1","0.7,0,1,0.7,0,1,0,1,0.7","2",""
"","html-keyboard-response","59","141710","0.0-85.0","351SEKWQS132GPPCZWFB2WG7ZWTDM9","A19NGUFGC7KIGW","3VAOOVPI3ZEZMZXPLZ7IWDDZ15LLLX","","null","<img src=""img/food4.png"" style=""width:200px; border:14px solid green;"">","null","","","","","","","","","",""
"","image-keyboard-response","60","141996","0.0-87.0","351SEKWQS132GPPCZWFB2WG7ZWTDM9","A19NGUFGC7KIGW","3VAOOVPI3ZEZMZXPLZ7IWDDZ15LLLX","","285","img/food4.png","76","286","3","1","false","1","2","1,0.7,0,1,0.7,0,0.7,0,1","0.7,0,1,0.7,0,1,0,1,0.7","2",""
"","html-keyboard-response","61","142315","0.0-88.0","351SEKWQS132GPPCZWFB2WG7ZWTDM9","A19NGUFGC7KIGW","3VAOOVPI3ZEZMZXPLZ7IWDDZ15LLLX","","null","<img src=""img/food4.png"" style=""width:200px; border:14px solid green;"">","null","","","","","","","","","",""
"","image-keyboard-response","62","142676","0.0-90.0","351SEKWQS132GPPCZWFB2WG7ZWTDM9","A19NGUFGC7KIGW","3VAOOVPI3ZEZMZXPLZ7IWDDZ15LLLX","","360","img/food5.png","74","360","1","0","false","3","2","1,0.7,0,1,0.7,0,0.7,0,1","0.7,0,1,0.7,0,1,0,1,0.7","2",""
"","html-keyboard-response","63","142980","0.0-91.0","351SEKWQS132GPPCZWFB2WG7ZWTDM9","A19NGUFGC7KIGW","3VAOOVPI3ZEZMZXPLZ7IWDDZ15LLLX","","null","<img src=""img/food5.png"" style=""width:200px;border:14px solid red;"">","null","","","","","","","","","",""
"","image-keyboard-response","64","143627","0.0-93.0","351SEKWQS132GPPCZWFB2WG7ZWTDM9","A19NGUFGC7KIGW","3VAOOVPI3ZEZMZXPLZ7IWDDZ15LLLX","","646","img/food4.png","76","648","3","1","false","1","2","1,0.7,0,1,0.7,0,0.7,0,1","0.7,0,1,0.7,0,1,0,1,0.7","2",""
"","html-keyboard-response","65","143930","0.0-94.0","351SEKWQS132GPPCZWFB2WG7ZWTDM9","A19NGUFGC7KIGW","3VAOOVPI3ZEZMZXPLZ7IWDDZ15LLLX","","null","<img src=""img/food4.png"" style=""width:200px; border:14px solid green;"">","null","","","","","","","","","",""
"","image-keyboard-response","66","144420","0.0-96.0","351SEKWQS132GPPCZWFB2WG7ZWTDM9","A19NGUFGC7KIGW","3VAOOVPI3ZEZMZXPLZ7IWDDZ15LLLX","","490","img/food5.png","75","490","2","1","false","3","2","1,0.7,0,1,0.7,0,0.7,0,1","0.7,0,1,0.7,0,1,0,1,0.7","2",""
"","html-keyboard-response","67","144734","0.0-97.0","351SEKWQS132GPPCZWFB2WG7ZWTDM9","A19NGUFGC7KIGW","3VAOOVPI3ZEZMZXPLZ7IWDDZ15LLLX","","null","<img src=""img/food5.png"" style=""width:200px; border:14px solid green;"">","null","","","","","","","","","",""
"","image-keyboard-response","68","145187","0.0-99.0","351SEKWQS132GPPCZWFB2WG7ZWTDM9","A19NGUFGC7KIGW","3VAOOVPI3ZEZMZXPLZ7IWDDZ15LLLX","","453","img/food1.png","74","453","1","1","false","2","2","1,0.7,0,1,0.7,0,0.7,0,1","0.7,0,1,0.7,0,1,0,1,0.7","2",""
"","html-keyboard-response","69","145492","0.0-100.0","351SEKWQS132GPPCZWFB2WG7ZWTDM9","A19NGUFGC7KIGW","3VAOOVPI3ZEZMZXPLZ7IWDDZ15LLLX","","null","<img src=""img/food1.png"" style=""width:200px; border:14px solid green;"">","null","","","","","","","","","",""
"","image-keyboard-response","70","145792","0.0-102.0","351SEKWQS132GPPCZWFB2WG7ZWTDM9","A19NGUFGC7KIGW","3VAOOVPI3ZEZMZXPLZ7IWDDZ15LLLX","","299","img/food1.png","74","299","1","1","false","2","2","1,0.7,0,1,0.7,0,0.7,0,1","0.7,0,1,0.7,0,1,0,1,0.7","2",""
"","html-keyboard-response","71","146098","0.0-103.0","351SEKWQS132GPPCZWFB2WG7ZWTDM9","A19NGUFGC7KIGW","3VAOOVPI3ZEZMZXPLZ7IWDDZ15LLLX","","null","<img src=""img/food1.png"" style=""width:200px; border:14px solid green;"">","null","","","","","","","","","",""
"","image-keyboard-response","72","146411","0.0-105.0","351SEKWQS132GPPCZWFB2WG7ZWTDM9","A19NGUFGC7KIGW","3VAOOVPI3ZEZMZXPLZ7IWDDZ15LLLX","","313","img/food1.png","74","313","1","1","false","2","2","1,0.7,0,1,0.7,0,0.7,0,1","0.7,0,1,0.7,0,1,0,1,0.7","2",""
"","html-keyboard-response","73","146726","0.0-106.0","351SEKWQS132GPPCZWFB2WG7ZWTDM9","A19NGUFGC7KIGW","3VAOOVPI3ZEZMZXPLZ7IWDDZ15LLLX","","null","<img src=""img/food1.png"" style=""width:200px; border:14px solid green;"">","null","","","","","","","","","",""
"","image-keyboard-response","74","147140","0.0-108.0","351SEKWQS132GPPCZWFB2WG7ZWTDM9","A19NGUFGC7KIGW","3VAOOVPI3ZEZMZXPLZ7IWDDZ15LLLX","","413","img/food5.png","76","414","3","1","false","3","2","1,0.7,0,1,0.7,0,0.7,0,1","0.7,0,1,0.7,0,1,0,1,0.7","2",""
"","html-keyboard-response","75","147453","0.0-109.0","351SEKWQS132GPPCZWFB2WG7ZWTDM9","A19NGUFGC7KIGW","3VAOOVPI3ZEZMZXPLZ7IWDDZ15LLLX","","null","<img src=""img/food5.png"" style=""width:200px; border:14px solid green;"">","null","","","","","","","","","",""
"","image-keyboard-response","76","148012","0.0-111.0","351SEKWQS132GPPCZWFB2WG7ZWTDM9","A19NGUFGC7KIGW","3VAOOVPI3ZEZMZXPLZ7IWDDZ15LLLX","","558","img/food1.png","75","558","2","0","false","2","2","1,0.7,0,1,0.7,0,0.7,0,1","0.7,0,1,0.7,0,1,0,1,0.7","2",""
"","html-keyboard-response","77","148318","0.0-112.0","351SEKWQS132GPPCZWFB2WG7ZWTDM9","A19NGUFGC7KIGW","3VAOOVPI3ZEZMZXPLZ7IWDDZ15LLLX","","null","<img src=""img/food1.png"" style=""width:200px;border:14px solid red;"">","null","","","","","","","","","",""
"","image-keyboard-response","78","148604","0.0-114.0","351SEKWQS132GPPCZWFB2WG7ZWTDM9","A19NGUFGC7KIGW","3VAOOVPI3ZEZMZXPLZ7IWDDZ15LLLX","","286","img/food4.png","74","287","1","1","false","1","2","1,0.7,0,1,0.7,0,0.7,0,1","0.7,0,1,0.7,0,1,0,1,0.7","2",""
"","html-keyboard-response","79","148908","0.0-115.0","351SEKWQS132GPPCZWFB2WG7ZWTDM9","A19NGUFGC7KIGW","3VAOOVPI3ZEZMZXPLZ7IWDDZ15LLLX","","null","<img src=""img/food4.png"" style=""width:200px; border:14px solid green;"">","null","","","","","","","","","",""
"","image-keyboard-response","80","149315","0.0-117.0","351SEKWQS132GPPCZWFB2WG7ZWTDM9","A19NGUFGC7KIGW","3VAOOVPI3ZEZMZXPLZ7IWDDZ15LLLX","","407","img/food1.png","76","407","3","1","false","2","2","1,0.7,0,1,0.7,0,0.7,0,1","0.7,0,1,0.7,0,1,0,1,0.7","2",""
"","html-keyboard-response","81","149620","0.0-118.0","351SEKWQS132GPPCZWFB2WG7ZWTDM9","A19NGUFGC7KIGW","3VAOOVPI3ZEZMZXPLZ7IWDDZ15LLLX","","null","<img src=""img/food1.png"" style=""width:200px; border:14px solid green;"">","null","","","","","","","","","",""
"","image-keyboard-response","82","149987","0.0-120.0","351SEKWQS132GPPCZWFB2WG7ZWTDM9","A19NGUFGC7KIGW","3VAOOVPI3ZEZMZXPLZ7IWDDZ15LLLX","","366","img/food1.png","74","367","1","0","false","2","2","1,0.7,0,1,0.7,0,0.7,0,1","0.7,0,1,0.7,0,1,0,1,0.7","2",""
"","html-keyboard-response","83","150290","0.0-121.0","351SEKWQS132GPPCZWFB2WG7ZWTDM9","A19NGUFGC7KIGW","3VAOOVPI3ZEZMZXPLZ7IWDDZ15LLLX","","null","<img src=""img/food1.png"" style=""width:200px;border:14px solid red;"">","null","","","","","","","","","",""
"","image-keyboard-response","84","150684","0.0-123.0","351SEKWQS132GPPCZWFB2WG7ZWTDM9","A19NGUFGC7KIGW","3VAOOVPI3ZEZMZXPLZ7IWDDZ15LLLX","","393","img/food4.png","74","394","1","1","false","1","2","1,0.7,0,1,0.7,0,0.7,0,1","0.7,0,1,0.7,0,1,0,1,0.7","2",""
"","html-keyboard-response","85","150989","0.0-124.0","351SEKWQS132GPPCZWFB2WG7ZWTDM9","A19NGUFGC7KIGW","3VAOOVPI3ZEZMZXPLZ7IWDDZ15LLLX","","null","<img src=""img/food4.png"" style=""width:200px; border:14px solid green;"">","null","","","","","","","","","",""
"","image-keyboard-response","86","151605","0.0-126.0","351SEKWQS132GPPCZWFB2WG7ZWTDM9","A19NGUFGC7KIGW","3VAOOVPI3ZEZMZXPLZ7IWDDZ15LLLX","","615","img/food1.png","74","616","1","1","false","2","2","1,0.7,0,1,0.7,0,0.7,0,1","0.7,0,1,0.7,0,1,0,1,0.7","2",""
"","html-keyboard-response","87","151908","0.0-127.0","351SEKWQS132GPPCZWFB2WG7ZWTDM9","A19NGUFGC7KIGW","3VAOOVPI3ZEZMZXPLZ7IWDDZ15LLLX","","null","<img src=""img/food1.png"" style=""width:200px; border:14px solid green;"">","null","","","","","","","","","",""
"","image-keyboard-response","88","152212","0.0-129.0","351SEKWQS132GPPCZWFB2WG7ZWTDM9","A19NGUFGC7KIGW","3VAOOVPI3ZEZMZXPLZ7IWDDZ15LLLX","","304","img/food1.png","74","304","1","0","false","2","2","1,0.7,0,1,0.7,0,0.7,0,1","0.7,0,1,0.7,0,1,0,1,0.7","2",""
"","html-keyboard-response","89","152522","0.0-130.0","351SEKWQS132GPPCZWFB2WG7ZWTDM9","A19NGUFGC7KIGW","3VAOOVPI3ZEZMZXPLZ7IWDDZ15LLLX","","null","<img src=""img/food1.png"" style=""width:200px;border:14px solid red;"">","null","","","","","","","","","",""
"","image-keyboard-response","90","152836","0.0-132.0","351SEKWQS132GPPCZWFB2WG7ZWTDM9","A19NGUFGC7KIGW","3VAOOVPI3ZEZMZXPLZ7IWDDZ15LLLX","","314","img/food1.png","74","314","1","1","false","2","2","1,0.7,0,1,0.7,0,0.7,0,1","0.7,0,1,0.7,0,1,0,1,0.7","2",""
"","html-keyboard-response","91","153149","0.0-133.0","351SEKWQS132GPPCZWFB2WG7ZWTDM9","A19NGUFGC7KIGW","3VAOOVPI3ZEZMZXPLZ7IWDDZ15LLLX","","null","<img src=""img/food1.png"" style=""width:200px; border:14px solid green;"">","null","","","","","","","","","",""
"","image-keyboard-response","92","153707","0.0-135.0","351SEKWQS132GPPCZWFB2WG7ZWTDM9","A19NGUFGC7KIGW","3VAOOVPI3ZEZMZXPLZ7IWDDZ15LLLX","","557","img/food5.png","75","558","2","1","false","3","2","1,0.7,0,1,0.7,0,0.7,0,1","0.7,0,1,0.7,0,1,0,1,0.7","2",""
"","html-keyboard-response","93","154022","0.0-136.0","351SEKWQS132GPPCZWFB2WG7ZWTDM9","A19NGUFGC7KIGW","3VAOOVPI3ZEZMZXPLZ7IWDDZ15LLLX","","null","<img src=""img/food5.png"" style=""width:200px; border:14px solid green;"">","null","","","","","","","","","",""
"","image-keyboard-response","94","154540","0.0-138.0","351SEKWQS132GPPCZWFB2WG7ZWTDM9","A19NGUFGC7KIGW","3VAOOVPI3ZEZMZXPLZ7IWDDZ15LLLX","","519","img/food1.png","74","519","1","1","false","2","2","1,0.7,0,1,0.7,0,0.7,0,1","0.7,0,1,0.7,0,1,0,1,0.7","2",""
"","html-keyboard-response","95","154841","0.0-139.0","351SEKWQS132GPPCZWFB2WG7ZWTDM9","A19NGUFGC7KIGW","3VAOOVPI3ZEZMZXPLZ7IWDDZ15LLLX","","null","<img src=""img/food1.png"" style=""width:200px; border:14px solid green;"">","null","","","","","","","","","",""
"","image-keyboard-response","96","155085","0.0-141.0","351SEKWQS132GPPCZWFB2WG7ZWTDM9","A19NGUFGC7KIGW","3VAOOVPI3ZEZMZXPLZ7IWDDZ15LLLX","","243","img/food1.png","74","243","1","1","false","2","2","1,0.7,0,1,0.7,0,0.7,0,1","0.7,0,1,0.7,0,1,0,1,0.7","2",""
"","html-keyboard-response","97","155397","0.0-142.0","351SEKWQS132GPPCZWFB2WG7ZWTDM9","A19NGUFGC7KIGW","3VAOOVPI3ZEZMZXPLZ7IWDDZ15LLLX","","null","<img src=""img/food1.png"" style=""width:200px; border:14px solid green;"">","null","","","","","","","","","",""
"","image-keyboard-response","98","155923","0.0-144.0","351SEKWQS132GPPCZWFB2WG7ZWTDM9","A19NGUFGC7KIGW","3VAOOVPI3ZEZMZXPLZ7IWDDZ15LLLX","","526","img/food5.png","75","526","2","1","false","3","2","1,0.7,0,1,0.7,0,0.7,0,1","0.7,0,1,0.7,0,1,0,1,0.7","2",""
"","html-keyboard-response","99","156238","0.0-145.0","351SEKWQS132GPPCZWFB2WG7ZWTDM9","A19NGUFGC7KIGW","3VAOOVPI3ZEZMZXPLZ7IWDDZ15LLLX","","null","<img src=""img/food5.png"" style=""width:200px; border:14px solid green;"">","null","","","","","","","","","",""
"","image-keyboard-response","100","156509","0.0-147.0","351SEKWQS132GPPCZWFB2WG7ZWTDM9","A19NGUFGC7KIGW","3VAOOVPI3ZEZMZXPLZ7IWDDZ15LLLX","","271","img/food4.png","75","271","2","0","false","1","2","1,0.7,0,1,0.7,0,0.7,0,1","0.7,0,1,0.7,0,1,0,1,0.7","2",""
"","html-keyboard-response","101","156819","0.0-148.0","351SEKWQS132GPPCZWFB2WG7ZWTDM9","A19NGUFGC7KIGW","3VAOOVPI3ZEZMZXPLZ7IWDDZ15LLLX","","null","<img src=""img/food4.png"" style=""width:200px;border:14px solid red;"">","null","","","","","","","","","",""
"","image-keyboard-response","102","157171","0.0-150.0","351SEKWQS132GPPCZWFB2WG7ZWTDM9","A19NGUFGC7KIGW","3VAOOVPI3ZEZMZXPLZ7IWDDZ15LLLX","","351","img/food4.png","76","351","3","1","false","1","2","1,0.7,0,1,0.7,0,0.7,0,1","0.7,0,1,0.7,0,1,0,1,0.7","2",""
"","html-keyboard-response","103","157475","0.0-151.0","351SEKWQS132GPPCZWFB2WG7ZWTDM9","A19NGUFGC7KIGW","3VAOOVPI3ZEZMZXPLZ7IWDDZ15LLLX","","null","<img src=""img/food4.png"" style=""width:200px; border:14px solid green;"">","null","","","","","","","","","",""
"","image-keyboard-response","104","157764","0.0-153.0","351SEKWQS132GPPCZWFB2WG7ZWTDM9","A19NGUFGC7KIGW","3VAOOVPI3ZEZMZXPLZ7IWDDZ15LLLX","","287","img/food4.png","76","289","3","1","false","1","2","1,0.7,0,1,0.7,0,0.7,0,1","0.7,0,1,0.7,0,1,0,1,0.7","2",""
"","html-keyboard-response","105","158073","0.0-154.0","351SEKWQS132GPPCZWFB2WG7ZWTDM9","A19NGUFGC7KIGW","3VAOOVPI3ZEZMZXPLZ7IWDDZ15LLLX","","null","<img src=""img/food4.png"" style=""width:200px; border:14px solid green;"">","null","","","","","","","","","",""
"","image-keyboard-response","106","158515","0.0-156.0","351SEKWQS132GPPCZWFB2WG7ZWTDM9","A19NGUFGC7KIGW","3VAOOVPI3ZEZMZXPLZ7IWDDZ15LLLX","","442","img/food1.png","75","442","2","0","false","2","2","1,0.7,0,1,0.7,0,0.7,0,1","0.7,0,1,0.7,0,1,0,1,0.7","2",""
"","html-keyboard-response","107","158818","0.0-157.0","351SEKWQS132GPPCZWFB2WG7ZWTDM9","A19NGUFGC7KIGW","3VAOOVPI3ZEZMZXPLZ7IWDDZ15LLLX","","null","<img src=""img/food1.png"" style=""width:200px;border:14px solid red;"">","null","","","","","","","","","",""
"","image-keyboard-response","108","159099","0.0-159.0","351SEKWQS132GPPCZWFB2WG7ZWTDM9","A19NGUFGC7KIGW","3VAOOVPI3ZEZMZXPLZ7IWDDZ15LLLX","","281","img/food1.png","74","282","1","1","false","2","2","1,0.7,0,1,0.7,0,0.7,0,1","0.7,0,1,0.7,0,1,0,1,0.7","2",""
"","html-keyboard-response","109","159414","0.0-160.0","351SEKWQS132GPPCZWFB2WG7ZWTDM9","A19NGUFGC7KIGW","3VAOOVPI3ZEZMZXPLZ7IWDDZ15LLLX","","null","<img src=""img/food1.png"" style=""width:200px; border:14px solid green;"">","null","","","","","","","","","",""
"","image-keyboard-response","110","159684","0.0-162.0","351SEKWQS132GPPCZWFB2WG7ZWTDM9","A19NGUFGC7KIGW","3VAOOVPI3ZEZMZXPLZ7IWDDZ15LLLX","","270","img/food4.png","74","270","1","1","false","1","2","1,0.7,0,1,0.7,0,0.7,0,1","0.7,0,1,0.7,0,1,0,1,0.7","2",""
"","html-keyboard-response","111","159994","0.0-163.0","351SEKWQS132GPPCZWFB2WG7ZWTDM9","A19NGUFGC7KIGW","3VAOOVPI3ZEZMZXPLZ7IWDDZ15LLLX","","null","<img src=""img/food4.png"" style=""width:200px; border:14px solid green;"">","null","","","","","","","","","",""
"","image-keyboard-response","112","160076","0.0-165.0","351SEKWQS132GPPCZWFB2WG7ZWTDM9","A19NGUFGC7KIGW","3VAOOVPI3ZEZMZXPLZ7IWDDZ15LLLX","","81","img/food4.png","76","81","3","1","false","1","2","1,0.7,0,1,0.7,0,0.7,0,1","0.7,0,1,0.7,0,1,0,1,0.7","2",""
"","html-keyboard-response","113","160387","0.0-166.0","351SEKWQS132GPPCZWFB2WG7ZWTDM9","A19NGUFGC7KIGW","3VAOOVPI3ZEZMZXPLZ7IWDDZ15LLLX","","null","<img src=""img/food4.png"" style=""width:200px; border:14px solid green;"">","null","","","","","","","","","",""
"","image-keyboard-response","114","160628","0.0-168.0","351SEKWQS132GPPCZWFB2WG7ZWTDM9","A19NGUFGC7KIGW","3VAOOVPI3ZEZMZXPLZ7IWDDZ15LLLX","","239","img/food4.png","76","240","3","1","false","1","2","1,0.7,0,1,0.7,0,0.7,0,1","0.7,0,1,0.7,0,1,0,1,0.7","2",""
"","html-keyboard-response","115","160928","0.0-169.0","351SEKWQS132GPPCZWFB2WG7ZWTDM9","A19NGUFGC7KIGW","3VAOOVPI3ZEZMZXPLZ7IWDDZ15LLLX","","null","<img src=""img/food4.png"" style=""width:200px; border:14px solid green;"">","null","","","","","","","","","",""
"","image-keyboard-response","116","161173","0.0-171.0","351SEKWQS132GPPCZWFB2WG7ZWTDM9","A19NGUFGC7KIGW","3VAOOVPI3ZEZMZXPLZ7IWDDZ15LLLX","","244","img/food1.png","76","244","3","1","false","2","2","1,0.7,0,1,0.7,0,0.7,0,1","0.7,0,1,0.7,0,1,0,1,0.7","2",""
"","html-keyboard-response","117","161482","0.0-172.0","351SEKWQS132GPPCZWFB2WG7ZWTDM9","A19NGUFGC7KIGW","3VAOOVPI3ZEZMZXPLZ7IWDDZ15LLLX","","null","<img src=""img/food1.png"" style=""width:200px; border:14px solid green;"">","null","","","","","","","","","",""
"","image-keyboard-response","118","161909","0.0-174.0","351SEKWQS132GPPCZWFB2WG7ZWTDM9","A19NGUFGC7KIGW","3VAOOVPI3ZEZMZXPLZ7IWDDZ15LLLX","","427","img/food1.png","74","428","1","0","false","2","2","1,0.7,0,1,0.7,0,0.7,0,1","0.7,0,1,0.7,0,1,0,1,0.7","2",""
"","html-keyboard-response","119","162212","0.0-175.0","351SEKWQS132GPPCZWFB2WG7ZWTDM9","A19NGUFGC7KIGW","3VAOOVPI3ZEZMZXPLZ7IWDDZ15LLLX","","null","<img src=""img/food1.png"" style=""width:200px;border:14px solid red;"">","null","","","","","","","","","",""
"","image-keyboard-response","120","162446","0.0-177.0","351SEKWQS132GPPCZWFB2WG7ZWTDM9","A19NGUFGC7KIGW","3VAOOVPI3ZEZMZXPLZ7IWDDZ15LLLX","","232","img/food4.png","74","233","1","1","false","1","2","1,0.7,0,1,0.7,0,0.7,0,1","0.7,0,1,0.7,0,1,0,1,0.7","2",""
"","html-keyboard-response","121","162751","0.0-178.0","351SEKWQS132GPPCZWFB2WG7ZWTDM9","A19NGUFGC7KIGW","3VAOOVPI3ZEZMZXPLZ7IWDDZ15LLLX","","null","<img src=""img/food4.png"" style=""width:200px; border:14px solid green;"">","null","","","","","","","","","",""
"","image-keyboard-response","122","162965","0.0-180.0","351SEKWQS132GPPCZWFB2WG7ZWTDM9","A19NGUFGC7KIGW","3VAOOVPI3ZEZMZXPLZ7IWDDZ15LLLX","","213","img/food5.png","76","213","3","1","false","3","2","1,0.7,0,1,0.7,0,0.7,0,1","0.7,0,1,0.7,0,1,0,1,0.7","2",""
"","html-keyboard-response","123","163273","0.0-181.0","351SEKWQS132GPPCZWFB2WG7ZWTDM9","A19NGUFGC7KIGW","3VAOOVPI3ZEZMZXPLZ7IWDDZ15LLLX","","null","<img src=""img/food5.png"" style=""width:200px; border:14px solid green;"">","null","","","","","","","","","",""
"","image-keyboard-response","124","163710","0.0-183.0","351SEKWQS132GPPCZWFB2WG7ZWTDM9","A19NGUFGC7KIGW","3VAOOVPI3ZEZMZXPLZ7IWDDZ15LLLX","","436","img/food1.png","75","436","2","0","false","2","2","1,0.7,0,1,0.7,0,0.7,0,1","0.7,0,1,0.7,0,1,0,1,0.7","2",""
"","html-keyboard-response","125","164019","0.0-184.0","351SEKWQS132GPPCZWFB2WG7ZWTDM9","A19NGUFGC7KIGW","3VAOOVPI3ZEZMZXPLZ7IWDDZ15LLLX","","null","<img src=""img/food1.png"" style=""width:200px;border:14px solid red;"">","null","","","","","","","","","",""
"","image-keyboard-response","126","164501","0.0-186.0","351SEKWQS132GPPCZWFB2WG7ZWTDM9","A19NGUFGC7KIGW","3VAOOVPI3ZEZMZXPLZ7IWDDZ15LLLX","","480","img/food5.png","74","481","1","0","false","3","2","1,0.7,0,1,0.7,0,0.7,0,1","0.7,0,1,0.7,0,1,0,1,0.7","2",""
"","html-keyboard-response","127","164813","0.0-187.0","351SEKWQS132GPPCZWFB2WG7ZWTDM9","A19NGUFGC7KIGW","3VAOOVPI3ZEZMZXPLZ7IWDDZ15LLLX","","null","<img src=""img/food5.png"" style=""width:200px;border:14px solid red;"">","null","","","","","","","","","",""
"","image-keyboard-response","128","165157","0.0-189.0","351SEKWQS132GPPCZWFB2WG7ZWTDM9","A19NGUFGC7KIGW","3VAOOVPI3ZEZMZXPLZ7IWDDZ15LLLX","","343","img/food5.png","75","345","2","1","false","3","2","1,0.7,0,1,0.7,0,0.7,0,1","0.7,0,1,0.7,0,1,0,1,0.7","2",""
"","html-keyboard-response","129","165462","0.0-190.0","351SEKWQS132GPPCZWFB2WG7ZWTDM9","A19NGUFGC7KIGW","3VAOOVPI3ZEZMZXPLZ7IWDDZ15LLLX","","null","<img src=""img/food5.png"" style=""width:200px; border:14px solid green;"">","null","","","","","","","","","",""
"","image-keyboard-response","130","165821","0.0-192.0","351SEKWQS132GPPCZWFB2WG7ZWTDM9","A19NGUFGC7KIGW","3VAOOVPI3ZEZMZXPLZ7IWDDZ15LLLX","","357","img/food5.png","75","359","2","1","false","3","2","1,0.7,0,1,0.7,0,0.7,0,1","0.7,0,1,0.7,0,1,0,1,0.7","2",""
"","html-keyboard-response","131","166130","0.0-193.0","351SEKWQS132GPPCZWFB2WG7ZWTDM9","A19NGUFGC7KIGW","3VAOOVPI3ZEZMZXPLZ7IWDDZ15LLLX","","null","<img src=""img/food5.png"" style=""width:200px; border:14px solid green;"">","null","","","","","","","","","",""
"","image-keyboard-response","132","166690","0.0-195.0","351SEKWQS132GPPCZWFB2WG7ZWTDM9","A19NGUFGC7KIGW","3VAOOVPI3ZEZMZXPLZ7IWDDZ15LLLX","","560","img/food4.png","76","561","3","1","false","1","2","1,0.7,0,1,0.7,0,0.7,0,1","0.7,0,1,0.7,0,1,0,1,0.7","2",""
"","html-keyboard-response","133","167006","0.0-196.0","351SEKWQS132GPPCZWFB2WG7ZWTDM9","A19NGUFGC7KIGW","3VAOOVPI3ZEZMZXPLZ7IWDDZ15LLLX","","null","<img src=""img/food4.png"" style=""width:200px; border:14px solid green;"">","null","","","","","","","","","",""
"","image-keyboard-response","134","167228","0.0-198.0","351SEKWQS132GPPCZWFB2WG7ZWTDM9","A19NGUFGC7KIGW","3VAOOVPI3ZEZMZXPLZ7IWDDZ15LLLX","","221","img/food1.png","76","221","3","1","false","2","2","1,0.7,0,1,0.7,0,0.7,0,1","0.7,0,1,0.7,0,1,0,1,0.7","2",""
"","html-keyboard-response","135","167539","0.0-199.0","351SEKWQS132GPPCZWFB2WG7ZWTDM9","A19NGUFGC7KIGW","3VAOOVPI3ZEZMZXPLZ7IWDDZ15LLLX","","null","<img src=""img/food1.png"" style=""width:200px; border:14px solid green;"">","null","","","","","","","","","",""
"","image-keyboard-response","136","168035","0.0-201.0","351SEKWQS132GPPCZWFB2WG7ZWTDM9","A19NGUFGC7KIGW","3VAOOVPI3ZEZMZXPLZ7IWDDZ15LLLX","","496","img/food4.png","75","496","2","0","false","1","2","1,0.7,0,1,0.7,0,0.7,0,1","0.7,0,1,0.7,0,1,0,1,0.7","2",""
"","html-keyboard-response","137","168342","0.0-202.0","351SEKWQS132GPPCZWFB2WG7ZWTDM9","A19NGUFGC7KIGW","3VAOOVPI3ZEZMZXPLZ7IWDDZ15LLLX","","null","<img src=""img/food4.png"" style=""width:200px;border:14px solid red;"">","null","","","","","","","","","",""
"","image-keyboard-response","138","168836","0.0-204.0","351SEKWQS132GPPCZWFB2WG7ZWTDM9","A19NGUFGC7KIGW","3VAOOVPI3ZEZMZXPLZ7IWDDZ15LLLX","","494","img/food1.png","74","494","1","0","false","2","2","1,0.7,0,1,0.7,0,0.7,0,1","0.7,0,1,0.7,0,1,0,1,0.7","2",""
"","html-keyboard-response","139","169147","0.0-205.0","351SEKWQS132GPPCZWFB2WG7ZWTDM9","A19NGUFGC7KIGW","3VAOOVPI3ZEZMZXPLZ7IWDDZ15LLLX","","null","<img src=""img/food1.png"" style=""width:200px;border:14px solid red;"">","null","","","","","","","","","",""
"","image-keyboard-response","140","169790","0.0-207.0","351SEKWQS132GPPCZWFB2WG7ZWTDM9","A19NGUFGC7KIGW","3VAOOVPI3ZEZMZXPLZ7IWDDZ15LLLX","","644","img/food4.png","76","644","3","1","false","1","2","1,0.7,0,1,0.7,0,0.7,0,1","0.7,0,1,0.7,0,1,0,1,0.7","2",""
"","html-keyboard-response","141","170098","0.0-208.0","351SEKWQS132GPPCZWFB2WG7ZWTDM9","A19NGUFGC7KIGW","3VAOOVPI3ZEZMZXPLZ7IWDDZ15LLLX","","null","<img src=""img/food4.png"" style=""width:200px; border:14px solid green;"">","null","","","","","","","","","",""
"","image-keyboard-response","142","170540","0.0-210.0","351SEKWQS132GPPCZWFB2WG7ZWTDM9","A19NGUFGC7KIGW","3VAOOVPI3ZEZMZXPLZ7IWDDZ15LLLX","","440","img/food1.png","74","441","1","1","false","2","2","1,0.7,0,1,0.7,0,0.7,0,1","0.7,0,1,0.7,0,1,0,1,0.7","2",""
"","html-keyboard-response","143","170843","0.0-211.0","351SEKWQS132GPPCZWFB2WG7ZWTDM9","A19NGUFGC7KIGW","3VAOOVPI3ZEZMZXPLZ7IWDDZ15LLLX","","null","<img src=""img/food1.png"" style=""width:200px; border:14px solid green;"">","null","","","","","","","","","",""
"","image-keyboard-response","144","171117","0.0-213.0","351SEKWQS132GPPCZWFB2WG7ZWTDM9","A19NGUFGC7KIGW","3VAOOVPI3ZEZMZXPLZ7IWDDZ15LLLX","","273","img/food1.png","74","273","1","0","false","2","2","1,0.7,0,1,0.7,0,0.7,0,1","0.7,0,1,0.7,0,1,0,1,0.7","2",""
"","html-keyboard-response","145","171429","0.0-214.0","351SEKWQS132GPPCZWFB2WG7ZWTDM9","A19NGUFGC7KIGW","3VAOOVPI3ZEZMZXPLZ7IWDDZ15LLLX","","null","<img src=""img/food1.png"" style=""width:200px;border:14px solid red;"">","null","","","","","","","","","",""
"","image-keyboard-response","146","171963","0.0-216.0","351SEKWQS132GPPCZWFB2WG7ZWTDM9","A19NGUFGC7KIGW","3VAOOVPI3ZEZMZXPLZ7IWDDZ15LLLX","","535","img/food4.png","76","535","3","1","false","1","2","1,0.7,0,1,0.7,0,0.7,0,1","0.7,0,1,0.7,0,1,0,1,0.7","2",""
"","html-keyboard-response","147","172268","0.0-217.0","351SEKWQS132GPPCZWFB2WG7ZWTDM9","A19NGUFGC7KIGW","3VAOOVPI3ZEZMZXPLZ7IWDDZ15LLLX","","null","<img src=""img/food4.png"" style=""width:200px; border:14px solid green;"">","null","","","","","","","","","",""
"","image-keyboard-response","148","172868","0.0-219.0","351SEKWQS132GPPCZWFB2WG7ZWTDM9","A19NGUFGC7KIGW","3VAOOVPI3ZEZMZXPLZ7IWDDZ15LLLX","","599","img/food5.png","75","599","2","1","false","3","2","1,0.7,0,1,0.7,0,0.7,0,1","0.7,0,1,0.7,0,1,0,1,0.7","2",""
"","html-keyboard-response","149","173173","0.0-220.0","351SEKWQS132GPPCZWFB2WG7ZWTDM9","A19NGUFGC7KIGW","3VAOOVPI3ZEZMZXPLZ7IWDDZ15LLLX","","null","<img src=""img/food5.png"" style=""width:200px; border:14px solid green;"">","null","","","","","","","","","",""
"","image-keyboard-response","150","173500","0.0-222.0","351SEKWQS132GPPCZWFB2WG7ZWTDM9","A19NGUFGC7KIGW","3VAOOVPI3ZEZMZXPLZ7IWDDZ15LLLX","","326","img/food5.png","75","328","2","1","false","3","2","1,0.7,0,1,0.7,0,0.7,0,1","0.7,0,1,0.7,0,1,0,1,0.7","2",""
"","html-keyboard-response","151","173806","0.0-223.0","351SEKWQS132GPPCZWFB2WG7ZWTDM9","A19NGUFGC7KIGW","3VAOOVPI3ZEZMZXPLZ7IWDDZ15LLLX","","null","<img src=""img/food5.png"" style=""width:200px; border:14px solid green;"">","null","","","","","","","","","",""
"","image-keyboard-response","152","174116","0.0-225.0","351SEKWQS132GPPCZWFB2WG7ZWTDM9","A19NGUFGC7KIGW","3VAOOVPI3ZEZMZXPLZ7IWDDZ15LLLX","","309","img/food5.png","75","309","2","1","false","3","2","1,0.7,0,1,0.7,0,0.7,0,1","0.7,0,1,0.7,0,1,0,1,0.7","2",""
"","html-keyboard-response","153","174428","0.0-226.0","351SEKWQS132GPPCZWFB2WG7ZWTDM9","A19NGUFGC7KIGW","3VAOOVPI3ZEZMZXPLZ7IWDDZ15LLLX","","null","<img src=""img/food5.png"" style=""width:200px; border:14px solid green;"">","null","","","","","","","","","",""
"","image-keyboard-response","154","174707","0.0-228.0","351SEKWQS132GPPCZWFB2WG7ZWTDM9","A19NGUFGC7KIGW","3VAOOVPI3ZEZMZXPLZ7IWDDZ15LLLX","","279","img/food5.png","75","279","2","1","false","3","2","1,0.7,0,1,0.7,0,0.7,0,1","0.7,0,1,0.7,0,1,0,1,0.7","2",""
"","html-keyboard-response","155","175016","0.0-229.0","351SEKWQS132GPPCZWFB2WG7ZWTDM9","A19NGUFGC7KIGW","3VAOOVPI3ZEZMZXPLZ7IWDDZ15LLLX","","null","<img src=""img/food5.png"" style=""width:200px; border:14px solid green;"">","null","","","","","","","","","",""
"","image-keyboard-response","156","175251","0.0-231.0","351SEKWQS132GPPCZWFB2WG7ZWTDM9","A19NGUFGC7KIGW","3VAOOVPI3ZEZMZXPLZ7IWDDZ15LLLX","","234","img/food1.png","75","236","2","0","false","2","2","1,0.7,0,1,0.7,0,0.7,0,1","0.7,0,1,0.7,0,1,0,1,0.7","2",""
"","html-keyboard-response","157","175566","0.0-232.0","351SEKWQS132GPPCZWFB2WG7ZWTDM9","A19NGUFGC7KIGW","3VAOOVPI3ZEZMZXPLZ7IWDDZ15LLLX","","null","<img src=""img/food1.png"" style=""width:200px;border:14px solid red;"">","null","","","","","","","","","",""
"","image-keyboard-response","158","176108","0.0-234.0","351SEKWQS132GPPCZWFB2WG7ZWTDM9","A19NGUFGC7KIGW","3VAOOVPI3ZEZMZXPLZ7IWDDZ15LLLX","","540","img/food4.png","76","541","3","1","false","1","2","1,0.7,0,1,0.7,0,0.7,0,1","0.7,0,1,0.7,0,1,0,1,0.7","2",""
"","html-keyboard-response","159","176416","0.0-235.0","351SEKWQS132GPPCZWFB2WG7ZWTDM9","A19NGUFGC7KIGW","3VAOOVPI3ZEZMZXPLZ7IWDDZ15LLLX","","null","<img src=""img/food4.png"" style=""width:200px; border:14px solid green;"">","null","","","","","","","","","",""
"","image-keyboard-response","160","177051","0.0-237.0","351SEKWQS132GPPCZWFB2WG7ZWTDM9","A19NGUFGC7KIGW","3VAOOVPI3ZEZMZXPLZ7IWDDZ15LLLX","","634","img/food1.png","74","635","1","0","false","2","2","1,0.7,0,1,0.7,0,0.7,0,1","0.7,0,1,0.7,0,1,0,1,0.7","2",""
"","html-keyboard-response","161","177364","0.0-238.0","351SEKWQS132GPPCZWFB2WG7ZWTDM9","A19NGUFGC7KIGW","3VAOOVPI3ZEZMZXPLZ7IWDDZ15LLLX","","null","<img src=""img/food1.png"" style=""width:200px;border:14px solid red;"">","null","","","","","","","","","",""
"","image-keyboard-response","162","177884","0.0-240.0","351SEKWQS132GPPCZWFB2WG7ZWTDM9","A19NGUFGC7KIGW","3VAOOVPI3ZEZMZXPLZ7IWDDZ15LLLX","","519","img/food5.png","75","520","2","1","false","3","2","1,0.7,0,1,0.7,0,0.7,0,1","0.7,0,1,0.7,0,1,0,1,0.7","2",""
"","html-keyboard-response","163","178194","0.0-241.0","351SEKWQS132GPPCZWFB2WG7ZWTDM9","A19NGUFGC7KIGW","3VAOOVPI3ZEZMZXPLZ7IWDDZ15LLLX","","null","<img src=""img/food5.png"" style=""width:200px; border:14px solid green;"">","null","","","","","","","","","",""
"","image-keyboard-response","164","178525","0.0-243.0","351SEKWQS132GPPCZWFB2WG7ZWTDM9","A19NGUFGC7KIGW","3VAOOVPI3ZEZMZXPLZ7IWDDZ15LLLX","","331","img/food5.png","75","331","2","1","false","3","2","1,0.7,0,1,0.7,0,0.7,0,1","0.7,0,1,0.7,0,1,0,1,0.7","2",""
"","html-keyboard-response","165","178829","0.0-244.0","351SEKWQS132GPPCZWFB2WG7ZWTDM9","A19NGUFGC7KIGW","3VAOOVPI3ZEZMZXPLZ7IWDDZ15LLLX","","null","<img src=""img/food5.png"" style=""width:200px; border:14px solid green;"">","null","","","","","","","","","",""
"","image-keyboard-response","166","179116","0.0-246.0","351SEKWQS132GPPCZWFB2WG7ZWTDM9","A19NGUFGC7KIGW","3VAOOVPI3ZEZMZXPLZ7IWDDZ15LLLX","","287","img/food5.png","75","287","2","1","false","3","2","1,0.7,0,1,0.7,0,0.7,0,1","0.7,0,1,0.7,0,1,0,1,0.7","2",""
"","html-keyboard-response","167","179425","0.0-247.0","351SEKWQS132GPPCZWFB2WG7ZWTDM9","A19NGUFGC7KIGW","3VAOOVPI3ZEZMZXPLZ7IWDDZ15LLLX","","null","<img src=""img/food5.png"" style=""width:200px; border:14px solid green;"">","null","","","","","","","","","",""
"","image-keyboard-response","168","179979","0.0-249.0","351SEKWQS132GPPCZWFB2WG7ZWTDM9","A19NGUFGC7KIGW","3VAOOVPI3ZEZMZXPLZ7IWDDZ15LLLX","","554","img/food4.png","76","554","3","1","false","1","2","1,0.7,0,1,0.7,0,0.7,0,1","0.7,0,1,0.7,0,1,0,1,0.7","2",""
"","html-keyboard-response","169","180287","0.0-250.0","351SEKWQS132GPPCZWFB2WG7ZWTDM9","A19NGUFGC7KIGW","3VAOOVPI3ZEZMZXPLZ7IWDDZ15LLLX","","null","<img src=""img/food4.png"" style=""width:200px; border:14px solid green;"">","null","","","","","","","","","",""
"","image-keyboard-response","170","180756","0.0-252.0","351SEKWQS132GPPCZWFB2WG7ZWTDM9","A19NGUFGC7KIGW","3VAOOVPI3ZEZMZXPLZ7IWDDZ15LLLX","","468","img/food1.png","74","468","1","0","false","2","2","1,0.7,0,1,0.7,0,0.7,0,1","0.7,0,1,0.7,0,1,0,1,0.7","2",""
"","html-keyboard-response","171","181068","0.0-253.0","351SEKWQS132GPPCZWFB2WG7ZWTDM9","A19NGUFGC7KIGW","3VAOOVPI3ZEZMZXPLZ7IWDDZ15LLLX","","null","<img src=""img/food1.png"" style=""width:200px;border:14px solid red;"">","null","","","","","","","","","",""
"","image-keyboard-response","172","181372","0.0-255.0","351SEKWQS132GPPCZWFB2WG7ZWTDM9","A19NGUFGC7KIGW","3VAOOVPI3ZEZMZXPLZ7IWDDZ15LLLX","","304","img/food5.png","74","304","1","0","false","3","2","1,0.7,0,1,0.7,0,0.7,0,1","0.7,0,1,0.7,0,1,0,1,0.7","2",""
"","html-keyboard-response","173","181679","0.0-256.0","351SEKWQS132GPPCZWFB2WG7ZWTDM9","A19NGUFGC7KIGW","3VAOOVPI3ZEZMZXPLZ7IWDDZ15LLLX","","null","<img src=""img/food5.png"" style=""width:200px;border:14px solid red;"">","null","","","","","","","","","",""
"","image-keyboard-response","174","182355","0.0-258.0","351SEKWQS132GPPCZWFB2WG7ZWTDM9","A19NGUFGC7KIGW","3VAOOVPI3ZEZMZXPLZ7IWDDZ15LLLX","","675","img/food1.png","74","675","1","0","false","2","2","1,0.7,0,1,0.7,0,0.7,0,1","0.7,0,1,0.7,0,1,0,1,0.7","2",""
"","html-keyboard-response","175","182664","0.0-259.0","351SEKWQS132GPPCZWFB2WG7ZWTDM9","A19NGUFGC7KIGW","3VAOOVPI3ZEZMZXPLZ7IWDDZ15LLLX","","null","<img src=""img/food1.png"" style=""width:200px;border:14px solid red;"">","null","","","","","","","","","",""
"","image-keyboard-response","176","183124","0.0-261.0","351SEKWQS132GPPCZWFB2WG7ZWTDM9","A19NGUFGC7KIGW","3VAOOVPI3ZEZMZXPLZ7IWDDZ15LLLX","","458","img/food1.png","75","459","2","0","false","2","2","1,0.7,0,1,0.7,0,0.7,0,1","0.7,0,1,0.7,0,1,0,1,0.7","2",""
"","html-keyboard-response","177","183431","0.0-262.0","351SEKWQS132GPPCZWFB2WG7ZWTDM9","A19NGUFGC7KIGW","3VAOOVPI3ZEZMZXPLZ7IWDDZ15LLLX","","null","<img src=""img/food1.png"" style=""width:200px;border:14px solid red;"">","null","","","","","","","","","",""
"","image-keyboard-response","178","183681","0.0-264.0","351SEKWQS132GPPCZWFB2WG7ZWTDM9","A19NGUFGC7KIGW","3VAOOVPI3ZEZMZXPLZ7IWDDZ15LLLX","","249","img/food5.png","76","249","3","1","false","3","2","1,0.7,0,1,0.7,0,0.7,0,1","0.7,0,1,0.7,0,1,0,1,0.7","2",""
"","html-keyboard-response","179","183989","0.0-265.0","351SEKWQS132GPPCZWFB2WG7ZWTDM9","A19NGUFGC7KIGW","3VAOOVPI3ZEZMZXPLZ7IWDDZ15LLLX","","null","<img src=""img/food5.png"" style=""width:200px; border:14px solid green;"">","null","","","","","","","","","",""
"","image-keyboard-response","180","184379","0.0-267.0","351SEKWQS132GPPCZWFB2WG7ZWTDM9","A19NGUFGC7KIGW","3VAOOVPI3ZEZMZXPLZ7IWDDZ15LLLX","","389","img/food5.png","75","390","2","1","false","3","2","1,0.7,0,1,0.7,0,0.7,0,1","0.7,0,1,0.7,0,1,0,1,0.7","2",""
"","html-keyboard-response","181","184689","0.0-268.0","351SEKWQS132GPPCZWFB2WG7ZWTDM9","A19NGUFGC7KIGW","3VAOOVPI3ZEZMZXPLZ7IWDDZ15LLLX","","null","<img src=""img/food5.png"" style=""width:200px; border:14px solid green;"">","null","","","","","","","","","",""
"","image-keyboard-response","182","185132","0.0-270.0","351SEKWQS132GPPCZWFB2WG7ZWTDM9","A19NGUFGC7KIGW","3VAOOVPI3ZEZMZXPLZ7IWDDZ15LLLX","","442","img/food4.png","74","442","1","1","false","1","2","1,0.7,0,1,0.7,0,0.7,0,1","0.7,0,1,0.7,0,1,0,1,0.7","2",""
"","html-keyboard-response","183","185446","0.0-271.0","351SEKWQS132GPPCZWFB2WG7ZWTDM9","A19NGUFGC7KIGW","3VAOOVPI3ZEZMZXPLZ7IWDDZ15LLLX","","null","<img src=""img/food4.png"" style=""width:200px; border:14px solid green;"">","null","","","","","","","","","",""
"","instructions","184","190281","0.0-273.0","351SEKWQS132GPPCZWFB2WG7ZWTDM9","A19NGUFGC7KIGW","3VAOOVPI3ZEZMZXPLZ7IWDDZ15LLLX","[{""page_index"":0,""viewing_time"":3627},{""page_index"":1,""viewing_time"":1208}]","4835","","","","","","","","","","","",""
"","image-keyboard-response","185","191220","0.0-274.0","351SEKWQS132GPPCZWFB2WG7ZWTDM9","A19NGUFGC7KIGW","3VAOOVPI3ZEZMZXPLZ7IWDDZ15LLLX","","937","img/food2.png","74","937","1","1","","1","1","1,0.7,0,1,0.7,0,0.7,0,1","1,0.7,0,1,0.7,0,0.7,0,1","1",""
"","html-keyboard-response","186","191521","0.0-275.0","351SEKWQS132GPPCZWFB2WG7ZWTDM9","A19NGUFGC7KIGW","3VAOOVPI3ZEZMZXPLZ7IWDDZ15LLLX","","null","<img src=""img/food2.png"" style=""width:200px; border:14px solid green;"">","null","","","","","","","","","",""
"","image-keyboard-response","187","192156","0.0-276.0","351SEKWQS132GPPCZWFB2WG7ZWTDM9","A19NGUFGC7KIGW","3VAOOVPI3ZEZMZXPLZ7IWDDZ15LLLX","","634","img/food6.png","75","634","2","0","","3","1","1,0.7,0,1,0.7,0,0.7,0,1","1,0.7,0,1,0.7,0,0.7,0,1","1",""
"","html-keyboard-response","188","192457","0.0-277.0","351SEKWQS132GPPCZWFB2WG7ZWTDM9","A19NGUFGC7KIGW","3VAOOVPI3ZEZMZXPLZ7IWDDZ15LLLX","","null","<img src=""img/food6.png"" style=""width:200px;border:14px solid red;"">","null","","","","","","","","","",""
"","image-keyboard-response","189","193172","0.0-278.0","351SEKWQS132GPPCZWFB2WG7ZWTDM9","A19NGUFGC7KIGW","3VAOOVPI3ZEZMZXPLZ7IWDDZ15LLLX","","714","img/food2.png","74","714","1","1","","1","1","1,0.7,0,1,0.7,0,0.7,0,1","1,0.7,0,1,0.7,0,0.7,0,1","1",""
"","html-keyboard-response","190","193479","0.0-279.0","351SEKWQS132GPPCZWFB2WG7ZWTDM9","A19NGUFGC7KIGW","3VAOOVPI3ZEZMZXPLZ7IWDDZ15LLLX","","null","<img src=""img/food2.png"" style=""width:200px; border:14px solid green;"">","null","","","","","","","","","",""
"","image-keyboard-response","191","194076","0.0-280.0","351SEKWQS132GPPCZWFB2WG7ZWTDM9","A19NGUFGC7KIGW","3VAOOVPI3ZEZMZXPLZ7IWDDZ15LLLX","","595","img/food6.png","76","596","3","1","","3","1","1,0.7,0,1,0.7,0,0.7,0,1","1,0.7,0,1,0.7,0,0.7,0,1","1",""
"","html-keyboard-response","192","194380","0.0-281.0","351SEKWQS132GPPCZWFB2WG7ZWTDM9","A19NGUFGC7KIGW","3VAOOVPI3ZEZMZXPLZ7IWDDZ15LLLX","","null","<img src=""img/food6.png"" style=""width:200px; border:14px solid green;"">","null","","","","","","","","","",""
"","image-keyboard-response","193","195133","0.0-282.0","351SEKWQS132GPPCZWFB2WG7ZWTDM9","A19NGUFGC7KIGW","3VAOOVPI3ZEZMZXPLZ7IWDDZ15LLLX","","753","img/food2.png","74","753","1","1","","1","1","1,0.7,0,1,0.7,0,0.7,0,1","1,0.7,0,1,0.7,0,0.7,0,1","1",""
"","html-keyboard-response","194","195441","0.0-283.0","351SEKWQS132GPPCZWFB2WG7ZWTDM9","A19NGUFGC7KIGW","3VAOOVPI3ZEZMZXPLZ7IWDDZ15LLLX","","null","<img src=""img/food2.png"" style=""width:200px; border:14px solid green;"">","null","","","","","","","","","",""
"","image-keyboard-response","195","195807","0.0-284.0","351SEKWQS132GPPCZWFB2WG7ZWTDM9","A19NGUFGC7KIGW","3VAOOVPI3ZEZMZXPLZ7IWDDZ15LLLX","","364","img/food2.png","74","365","1","1","","1","1","1,0.7,0,1,0.7,0,0.7,0,1","1,0.7,0,1,0.7,0,0.7,0,1","1",""
"","html-keyboard-response","196","196117","0.0-285.0","351SEKWQS132GPPCZWFB2WG7ZWTDM9","A19NGUFGC7KIGW","3VAOOVPI3ZEZMZXPLZ7IWDDZ15LLLX","","null","<img src=""img/food2.png"" style=""width:200px; border:14px solid green;"">","null","","","","","","","","","",""
"","image-keyboard-response","197","196717","0.0-286.0","351SEKWQS132GPPCZWFB2WG7ZWTDM9","A19NGUFGC7KIGW","3VAOOVPI3ZEZMZXPLZ7IWDDZ15LLLX","","599","img/food6.png","76","599","3","1","","3","1","1,0.7,0,1,0.7,0,0.7,0,1","1,0.7,0,1,0.7,0,0.7,0,1","1",""
"","html-keyboard-response","198","197032","0.0-287.0","351SEKWQS132GPPCZWFB2WG7ZWTDM9","A19NGUFGC7KIGW","3VAOOVPI3ZEZMZXPLZ7IWDDZ15LLLX","","null","<img src=""img/food6.png"" style=""width:200px; border:14px solid green;"">","null","","","","","","","","","",""
"","image-keyboard-response","199","197685","0.0-288.0","351SEKWQS132GPPCZWFB2WG7ZWTDM9","A19NGUFGC7KIGW","3VAOOVPI3ZEZMZXPLZ7IWDDZ15LLLX","","652","img/food3.png","75","652","2","1","","2","1","1,0.7,0,1,0.7,0,0.7,0,1","1,0.7,0,1,0.7,0,0.7,0,1","1",""
"","html-keyboard-response","200","197994","0.0-289.0","351SEKWQS132GPPCZWFB2WG7ZWTDM9","A19NGUFGC7KIGW","3VAOOVPI3ZEZMZXPLZ7IWDDZ15LLLX","","null","<img src=""img/food3.png"" style=""width:200px; border:14px solid green;"">","null","","","","","","","","","",""
"","image-keyboard-response","201","198333","0.0-290.0","351SEKWQS132GPPCZWFB2WG7ZWTDM9","A19NGUFGC7KIGW","3VAOOVPI3ZEZMZXPLZ7IWDDZ15LLLX","","337","img/food3.png","75","337","2","1","","2","1","1,0.7,0,1,0.7,0,0.7,0,1","1,0.7,0,1,0.7,0,0.7,0,1","1",""
"","html-keyboard-response","202","198634","0.0-291.0","351SEKWQS132GPPCZWFB2WG7ZWTDM9","A19NGUFGC7KIGW","3VAOOVPI3ZEZMZXPLZ7IWDDZ15LLLX","","null","<img src=""img/food3.png"" style=""width:200px; border:14px solid green;"">","null","","","","","","","","","",""
"","image-keyboard-response","203","199221","0.0-292.0","351SEKWQS132GPPCZWFB2WG7ZWTDM9","A19NGUFGC7KIGW","3VAOOVPI3ZEZMZXPLZ7IWDDZ15LLLX","","586","img/food2.png","74","587","1","1","","1","1","1,0.7,0,1,0.7,0,0.7,0,1","1,0.7,0,1,0.7,0,0.7,0,1","1",""
"","html-keyboard-response","204","199522","0.0-293.0","351SEKWQS132GPPCZWFB2WG7ZWTDM9","A19NGUFGC7KIGW","3VAOOVPI3ZEZMZXPLZ7IWDDZ15LLLX","","null","<img src=""img/food2.png"" style=""width:200px; border:14px solid green;"">","null","","","","","","","","","",""
"","image-keyboard-response","205","199854","0.0-294.0","351SEKWQS132GPPCZWFB2WG7ZWTDM9","A19NGUFGC7KIGW","3VAOOVPI3ZEZMZXPLZ7IWDDZ15LLLX","","331","img/food2.png","74","333","1","1","","1","1","1,0.7,0,1,0.7,0,0.7,0,1","1,0.7,0,1,0.7,0,0.7,0,1","1",""
"","html-keyboard-response","206","200157","0.0-295.0","351SEKWQS132GPPCZWFB2WG7ZWTDM9","A19NGUFGC7KIGW","3VAOOVPI3ZEZMZXPLZ7IWDDZ15LLLX","","null","<img src=""img/food2.png"" style=""width:200px; border:14px solid green;"">","null","","","","","","","","","",""
"","image-keyboard-response","207","200901","0.0-296.0","351SEKWQS132GPPCZWFB2WG7ZWTDM9","A19NGUFGC7KIGW","3VAOOVPI3ZEZMZXPLZ7IWDDZ15LLLX","","743","img/food3.png","76","744","3","0","","2","1","1,0.7,0,1,0.7,0,0.7,0,1","1,0.7,0,1,0.7,0,0.7,0,1","1",""
"","html-keyboard-response","208","201202","0.0-297.0","351SEKWQS132GPPCZWFB2WG7ZWTDM9","A19NGUFGC7KIGW","3VAOOVPI3ZEZMZXPLZ7IWDDZ15LLLX","","null","<img src=""img/food3.png"" style=""width:200px;border:14px solid red;"">","null","","","","","","","","","",""
"","image-keyboard-response","209","201436","0.0-298.0","351SEKWQS132GPPCZWFB2WG7ZWTDM9","A19NGUFGC7KIGW","3VAOOVPI3ZEZMZXPLZ7IWDDZ15LLLX","","234","img/food6.png","75","235","2","0","","3","1","1,0.7,0,1,0.7,0,0.7,0,1","1,0.7,0,1,0.7,0,0.7,0,1","1",""
"","html-keyboard-response","210","201739","0.0-299.0","351SEKWQS132GPPCZWFB2WG7ZWTDM9","A19NGUFGC7KIGW","3VAOOVPI3ZEZMZXPLZ7IWDDZ15LLLX","","null","<img src=""img/food6.png"" style=""width:200px;border:14px solid red;"">","null","","","","","","","","","",""
"","image-keyboard-response","211","202357","0.0-300.0","351SEKWQS132GPPCZWFB2WG7ZWTDM9","A19NGUFGC7KIGW","3VAOOVPI3ZEZMZXPLZ7IWDDZ15LLLX","","616","img/food3.png","74","616","1","1","","2","1","1,0.7,0,1,0.7,0,0.7,0,1","1,0.7,0,1,0.7,0,0.7,0,1","1",""
"","html-keyboard-response","212","202669","0.0-301.0","351SEKWQS132GPPCZWFB2WG7ZWTDM9","A19NGUFGC7KIGW","3VAOOVPI3ZEZMZXPLZ7IWDDZ15LLLX","","null","<img src=""img/food3.png"" style=""width:200px; border:14px solid green;"">","null","","","","","","","","","",""
"","image-keyboard-response","213","203869","0.0-302.0","351SEKWQS132GPPCZWFB2WG7ZWTDM9","A19NGUFGC7KIGW","3VAOOVPI3ZEZMZXPLZ7IWDDZ15LLLX","","1199","img/food6.png","76","1200","3","1","","3","1","1,0.7,0,1,0.7,0,0.7,0,1","1,0.7,0,1,0.7,0,0.7,0,1","1",""
"","html-keyboard-response","214","204176","0.0-303.0","351SEKWQS132GPPCZWFB2WG7ZWTDM9","A19NGUFGC7KIGW","3VAOOVPI3ZEZMZXPLZ7IWDDZ15LLLX","","null","<img src=""img/food6.png"" style=""width:200px; border:14px solid green;"">","null","","","","","","","","","",""
"","image-keyboard-response","215","204940","0.0-304.0","351SEKWQS132GPPCZWFB2WG7ZWTDM9","A19NGUFGC7KIGW","3VAOOVPI3ZEZMZXPLZ7IWDDZ15LLLX","","763","img/food3.png","75","763","2","0","","2","1","1,0.7,0,1,0.7,0,0.7,0,1","1,0.7,0,1,0.7,0,0.7,0,1","1",""
"","html-keyboard-response","216","205252","0.0-305.0","351SEKWQS132GPPCZWFB2WG7ZWTDM9","A19NGUFGC7KIGW","3VAOOVPI3ZEZMZXPLZ7IWDDZ15LLLX","","null","<img src=""img/food3.png"" style=""width:200px;border:14px solid red;"">","null","","","","","","","","","",""
"","image-keyboard-response","217","205820","0.0-306.0","351SEKWQS132GPPCZWFB2WG7ZWTDM9","A19NGUFGC7KIGW","3VAOOVPI3ZEZMZXPLZ7IWDDZ15LLLX","","568","img/food2.png","74","568","1","1","","1","1","1,0.7,0,1,0.7,0,0.7,0,1","1,0.7,0,1,0.7,0,0.7,0,1","1",""
"","html-keyboard-response","218","206123","0.0-307.0","351SEKWQS132GPPCZWFB2WG7ZWTDM9","A19NGUFGC7KIGW","3VAOOVPI3ZEZMZXPLZ7IWDDZ15LLLX","","null","<img src=""img/food2.png"" style=""width:200px; border:14px solid green;"">","null","","","","","","","","","",""
"","image-keyboard-response","219","206908","0.0-308.0","351SEKWQS132GPPCZWFB2WG7ZWTDM9","A19NGUFGC7KIGW","3VAOOVPI3ZEZMZXPLZ7IWDDZ15LLLX","","784","img/food6.png","76","785","3","1","","3","1","1,0.7,0,1,0.7,0,0.7,0,1","1,0.7,0,1,0.7,0,0.7,0,1","1",""
"","html-keyboard-response","220","207209","0.0-309.0","351SEKWQS132GPPCZWFB2WG7ZWTDM9","A19NGUFGC7KIGW","3VAOOVPI3ZEZMZXPLZ7IWDDZ15LLLX","","null","<img src=""img/food6.png"" style=""width:200px; border:14px solid green;"">","null","","","","","","","","","",""
"","image-keyboard-response","221","207940","0.0-310.0","351SEKWQS132GPPCZWFB2WG7ZWTDM9","A19NGUFGC7KIGW","3VAOOVPI3ZEZMZXPLZ7IWDDZ15LLLX","","730","img/food3.png","75","731","2","0","","2","1","1,0.7,0,1,0.7,0,0.7,0,1","1,0.7,0,1,0.7,0,0.7,0,1","1",""
"","html-keyboard-response","222","208255","0.0-311.0","351SEKWQS132GPPCZWFB2WG7ZWTDM9","A19NGUFGC7KIGW","3VAOOVPI3ZEZMZXPLZ7IWDDZ15LLLX","","null","<img src=""img/food3.png"" style=""width:200px;border:14px solid red;"">","null","","","","","","","","","",""
"","image-keyboard-response","223","209172","0.0-312.0","351SEKWQS132GPPCZWFB2WG7ZWTDM9","A19NGUFGC7KIGW","3VAOOVPI3ZEZMZXPLZ7IWDDZ15LLLX","","917","img/food6.png","76","917","3","1","","3","1","1,0.7,0,1,0.7,0,0.7,0,1","1,0.7,0,1,0.7,0,0.7,0,1","1",""
"","html-keyboard-response","224","209475","0.0-313.0","351SEKWQS132GPPCZWFB2WG7ZWTDM9","A19NGUFGC7KIGW","3VAOOVPI3ZEZMZXPLZ7IWDDZ15LLLX","","null","<img src=""img/food6.png"" style=""width:200px; border:14px solid green;"">","null","","","","","","","","","",""
"","image-keyboard-response","225","209835","0.0-314.0","351SEKWQS132GPPCZWFB2WG7ZWTDM9","A19NGUFGC7KIGW","3VAOOVPI3ZEZMZXPLZ7IWDDZ15LLLX","","360","img/food6.png","76","360","3","1","","3","1","1,0.7,0,1,0.7,0,0.7,0,1","1,0.7,0,1,0.7,0,0.7,0,1","1",""
"","html-keyboard-response","226","210139","0.0-315.0","351SEKWQS132GPPCZWFB2WG7ZWTDM9","A19NGUFGC7KIGW","3VAOOVPI3ZEZMZXPLZ7IWDDZ15LLLX","","null","<img src=""img/food6.png"" style=""width:200px; border:14px solid green;"">","null","","","","","","","","","",""
"","image-keyboard-response","227","210716","0.0-316.0","351SEKWQS132GPPCZWFB2WG7ZWTDM9","A19NGUFGC7KIGW","3VAOOVPI3ZEZMZXPLZ7IWDDZ15LLLX","","576","img/food2.png","74","576","1","1","","1","1","1,0.7,0,1,0.7,0,0.7,0,1","1,0.7,0,1,0.7,0,0.7,0,1","1",""
"","html-keyboard-response","228","211026","0.0-317.0","351SEKWQS132GPPCZWFB2WG7ZWTDM9","A19NGUFGC7KIGW","3VAOOVPI3ZEZMZXPLZ7IWDDZ15LLLX","","null","<img src=""img/food2.png"" style=""width:200px; border:14px solid green;"">","null","","","","","","","","","",""
"","image-keyboard-response","229","211548","0.0-318.0","351SEKWQS132GPPCZWFB2WG7ZWTDM9","A19NGUFGC7KIGW","3VAOOVPI3ZEZMZXPLZ7IWDDZ15LLLX","","521","img/food3.png","75","521","2","0","","2","1","1,0.7,0,1,0.7,0,0.7,0,1","1,0.7,0,1,0.7,0,0.7,0,1","1",""
"","html-keyboard-response","230","211860","0.0-319.0","351SEKWQS132GPPCZWFB2WG7ZWTDM9","A19NGUFGC7KIGW","3VAOOVPI3ZEZMZXPLZ7IWDDZ15LLLX","","null","<img src=""img/food3.png"" style=""width:200px;border:14px solid red;"">","null","","","","","","","","","",""
"","image-keyboard-response","231","212476","0.0-320.0","351SEKWQS132GPPCZWFB2WG7ZWTDM9","A19NGUFGC7KIGW","3VAOOVPI3ZEZMZXPLZ7IWDDZ15LLLX","","615","img/food3.png","76","616","3","0","","2","1","1,0.7,0,1,0.7,0,0.7,0,1","1,0.7,0,1,0.7,0,0.7,0,1","1",""
"","html-keyboard-response","232","212787","0.0-321.0","351SEKWQS132GPPCZWFB2WG7ZWTDM9","A19NGUFGC7KIGW","3VAOOVPI3ZEZMZXPLZ7IWDDZ15LLLX","","null","<img src=""img/food3.png"" style=""width:200px;border:14px solid red;"">","null","","","","","","","","","",""
"","image-keyboard-response","233","213548","0.0-322.0","351SEKWQS132GPPCZWFB2WG7ZWTDM9","A19NGUFGC7KIGW","3VAOOVPI3ZEZMZXPLZ7IWDDZ15LLLX","","760","img/food2.png","74","760","1","1","","1","1","1,0.7,0,1,0.7,0,0.7,0,1","1,0.7,0,1,0.7,0,0.7,0,1","1",""
"","html-keyboard-response","234","213863","0.0-323.0","351SEKWQS132GPPCZWFB2WG7ZWTDM9","A19NGUFGC7KIGW","3VAOOVPI3ZEZMZXPLZ7IWDDZ15LLLX","","null","<img src=""img/food2.png"" style=""width:200px; border:14px solid green;"">","null","","","","","","","","","",""
"","image-keyboard-response","235","214180","0.0-324.0","351SEKWQS132GPPCZWFB2WG7ZWTDM9","A19NGUFGC7KIGW","3VAOOVPI3ZEZMZXPLZ7IWDDZ15LLLX","","316","img/food2.png","74","317","1","1","","1","1","1,0.7,0,1,0.7,0,0.7,0,1","1,0.7,0,1,0.7,0,0.7,0,1","1",""
"","html-keyboard-response","236","214490","0.0-325.0","351SEKWQS132GPPCZWFB2WG7ZWTDM9","A19NGUFGC7KIGW","3VAOOVPI3ZEZMZXPLZ7IWDDZ15LLLX","","null","<img src=""img/food2.png"" style=""width:200px; border:14px solid green;"">","null","","","","","","","","","",""
"","image-keyboard-response","237","214827","0.0-326.0","351SEKWQS132GPPCZWFB2WG7ZWTDM9","A19NGUFGC7KIGW","3VAOOVPI3ZEZMZXPLZ7IWDDZ15LLLX","","335","img/food2.png","74","336","1","1","","1","1","1,0.7,0,1,0.7,0,0.7,0,1","1,0.7,0,1,0.7,0,0.7,0,1","1",""
"","html-keyboard-response","238","215139","0.0-327.0","351SEKWQS132GPPCZWFB2WG7ZWTDM9","A19NGUFGC7KIGW","3VAOOVPI3ZEZMZXPLZ7IWDDZ15LLLX","","null","<img src=""img/food2.png"" style=""width:200px; border:14px solid green;"">","null","","","","","","","","","",""
"","image-keyboard-response","239","215491","0.0-328.0","351SEKWQS132GPPCZWFB2WG7ZWTDM9","A19NGUFGC7KIGW","3VAOOVPI3ZEZMZXPLZ7IWDDZ15LLLX","","351","img/food2.png","74","352","1","1","","1","1","1,0.7,0,1,0.7,0,0.7,0,1","1,0.7,0,1,0.7,0,0.7,0,1","1",""
"","html-keyboard-response","240","215804","0.0-329.0","351SEKWQS132GPPCZWFB2WG7ZWTDM9","A19NGUFGC7KIGW","3VAOOVPI3ZEZMZXPLZ7IWDDZ15LLLX","","null","<img src=""img/food2.png"" style=""width:200px; border:14px solid green;"">","null","","","","","","","","","",""
"","image-keyboard-response","241","216260","0.0-330.0","351SEKWQS132GPPCZWFB2WG7ZWTDM9","A19NGUFGC7KIGW","3VAOOVPI3ZEZMZXPLZ7IWDDZ15LLLX","","455","img/food3.png","74","455","1","1","","2","1","1,0.7,0,1,0.7,0,0.7,0,1","1,0.7,0,1,0.7,0,0.7,0,1","1",""
"","html-keyboard-response","242","216575","0.0-331.0","351SEKWQS132GPPCZWFB2WG7ZWTDM9","A19NGUFGC7KIGW","3VAOOVPI3ZEZMZXPLZ7IWDDZ15LLLX","","null","<img src=""img/food3.png"" style=""width:200px; border:14px solid green;"">","null","","","","","","","","","",""
"","image-keyboard-response","243","217028","0.0-332.0","351SEKWQS132GPPCZWFB2WG7ZWTDM9","A19NGUFGC7KIGW","3VAOOVPI3ZEZMZXPLZ7IWDDZ15LLLX","","453","img/food2.png","74","453","1","1","","1","1","1,0.7,0,1,0.7,0,0.7,0,1","1,0.7,0,1,0.7,0,0.7,0,1","1",""
"","html-keyboard-response","244","217331","0.0-333.0","351SEKWQS132GPPCZWFB2WG7ZWTDM9","A19NGUFGC7KIGW","3VAOOVPI3ZEZMZXPLZ7IWDDZ15LLLX","","null","<img src=""img/food2.png"" style=""width:200px; border:14px solid green;"">","null","","","","","","","","","",""
"","image-keyboard-response","245","217892","0.0-334.0","351SEKWQS132GPPCZWFB2WG7ZWTDM9","A19NGUFGC7KIGW","3VAOOVPI3ZEZMZXPLZ7IWDDZ15LLLX","","559","img/food6.png","76","560","3","1","","3","1","1,0.7,0,1,0.7,0,0.7,0,1","1,0.7,0,1,0.7,0,0.7,0,1","1",""
"","html-keyboard-response","246","218203","0.0-335.0","351SEKWQS132GPPCZWFB2WG7ZWTDM9","A19NGUFGC7KIGW","3VAOOVPI3ZEZMZXPLZ7IWDDZ15LLLX","","null","<img src=""img/food6.png"" style=""width:200px; border:14px solid green;"">","null","","","","","","","","","",""
"","image-keyboard-response","247","218620","0.0-336.0","351SEKWQS132GPPCZWFB2WG7ZWTDM9","A19NGUFGC7KIGW","3VAOOVPI3ZEZMZXPLZ7IWDDZ15LLLX","","417","img/food2.png","74","417","1","1","","1","1","1,0.7,0,1,0.7,0,0.7,0,1","1,0.7,0,1,0.7,0,0.7,0,1","1",""
"","html-keyboard-response","248","218935","0.0-337.0","351SEKWQS132GPPCZWFB2WG7ZWTDM9","A19NGUFGC7KIGW","3VAOOVPI3ZEZMZXPLZ7IWDDZ15LLLX","","null","<img src=""img/food2.png"" style=""width:200px; border:14px solid green;"">","null","","","","","","","","","",""
"","image-keyboard-response","249","219394","0.0-338.0","351SEKWQS132GPPCZWFB2WG7ZWTDM9","A19NGUFGC7KIGW","3VAOOVPI3ZEZMZXPLZ7IWDDZ15LLLX","","459","img/food6.png","74","459","1","0","","3","1","1,0.7,0,1,0.7,0,0.7,0,1","1,0.7,0,1,0.7,0,0.7,0,1","1",""
"","html-keyboard-response","250","219696","0.0-339.0","351SEKWQS132GPPCZWFB2WG7ZWTDM9","A19NGUFGC7KIGW","3VAOOVPI3ZEZMZXPLZ7IWDDZ15LLLX","","null","<img src=""img/food6.png"" style=""width:200px;border:14px solid red;"">","null","","","","","","","","","",""
"","image-keyboard-response","251","220059","0.0-340.0","351SEKWQS132GPPCZWFB2WG7ZWTDM9","A19NGUFGC7KIGW","3VAOOVPI3ZEZMZXPLZ7IWDDZ15LLLX","","363","img/food6.png","76","364","3","1","","3","1","1,0.7,0,1,0.7,0,0.7,0,1","1,0.7,0,1,0.7,0,0.7,0,1","1",""
"","html-keyboard-response","252","220360","0.0-341.0","351SEKWQS132GPPCZWFB2WG7ZWTDM9","A19NGUFGC7KIGW","3VAOOVPI3ZEZMZXPLZ7IWDDZ15LLLX","","null","<img src=""img/food6.png"" style=""width:200px; border:14px solid green;"">","null","","","","","","","","","",""
"","image-keyboard-response","253","220860","0.0-342.0","351SEKWQS132GPPCZWFB2WG7ZWTDM9","A19NGUFGC7KIGW","3VAOOVPI3ZEZMZXPLZ7IWDDZ15LLLX","","498","img/food3.png","74","498","1","1","","2","1","1,0.7,0,1,0.7,0,0.7,0,1","1,0.7,0,1,0.7,0,0.7,0,1","1",""
"","html-keyboard-response","254","221172","0.0-343.0","351SEKWQS132GPPCZWFB2WG7ZWTDM9","A19NGUFGC7KIGW","3VAOOVPI3ZEZMZXPLZ7IWDDZ15LLLX","","null","<img src=""img/food3.png"" style=""width:200px; border:14px solid green;"">","null","","","","","","","","","",""
"","image-keyboard-response","255","221492","0.0-344.0","351SEKWQS132GPPCZWFB2WG7ZWTDM9","A19NGUFGC7KIGW","3VAOOVPI3ZEZMZXPLZ7IWDDZ15LLLX","","319","img/food3.png","74","319","1","1","","2","1","1,0.7,0,1,0.7,0,0.7,0,1","1,0.7,0,1,0.7,0,0.7,0,1","1",""
"","html-keyboard-response","256","221806","0.0-345.0","351SEKWQS132GPPCZWFB2WG7ZWTDM9","A19NGUFGC7KIGW","3VAOOVPI3ZEZMZXPLZ7IWDDZ15LLLX","","null","<img src=""img/food3.png"" style=""width:200px; border:14px solid green;"">","null","","","","","","","","","",""
"","image-keyboard-response","257","222324","0.0-346.0","351SEKWQS132GPPCZWFB2WG7ZWTDM9","A19NGUFGC7KIGW","3VAOOVPI3ZEZMZXPLZ7IWDDZ15LLLX","","517","img/food6.png","76","518","3","1","","3","1","1,0.7,0,1,0.7,0,0.7,0,1","1,0.7,0,1,0.7,0,0.7,0,1","1",""
"","html-keyboard-response","258","222629","0.0-347.0","351SEKWQS132GPPCZWFB2WG7ZWTDM9","A19NGUFGC7KIGW","3VAOOVPI3ZEZMZXPLZ7IWDDZ15LLLX","","null","<img src=""img/food6.png"" style=""width:200px; border:14px solid green;"">","null","","","","","","","","","",""
"","image-keyboard-response","259","223027","0.0-348.0","351SEKWQS132GPPCZWFB2WG7ZWTDM9","A19NGUFGC7KIGW","3VAOOVPI3ZEZMZXPLZ7IWDDZ15LLLX","","398","img/food3.png","74","399","1","1","","2","1","1,0.7,0,1,0.7,0,0.7,0,1","1,0.7,0,1,0.7,0,0.7,0,1","1",""
"","html-keyboard-response","260","223335","0.0-349.0","351SEKWQS132GPPCZWFB2WG7ZWTDM9","A19NGUFGC7KIGW","3VAOOVPI3ZEZMZXPLZ7IWDDZ15LLLX","","null","<img src=""img/food3.png"" style=""width:200px; border:14px solid green;"">","null","","","","","","","","","",""
"","image-keyboard-response","261","223954","0.0-350.0","351SEKWQS132GPPCZWFB2WG7ZWTDM9","A19NGUFGC7KIGW","3VAOOVPI3ZEZMZXPLZ7IWDDZ15LLLX","","619","img/food2.png","74","619","1","1","","1","1","1,0.7,0,1,0.7,0,0.7,0,1","1,0.7,0,1,0.7,0,0.7,0,1","1",""
"","html-keyboard-response","262","224269","0.0-351.0","351SEKWQS132GPPCZWFB2WG7ZWTDM9","A19NGUFGC7KIGW","3VAOOVPI3ZEZMZXPLZ7IWDDZ15LLLX","","null","<img src=""img/food2.png"" style=""width:200px; border:14px solid green;"">","null","","","","","","","","","",""
"","image-keyboard-response","263","224690","0.0-352.0","351SEKWQS132GPPCZWFB2WG7ZWTDM9","A19NGUFGC7KIGW","3VAOOVPI3ZEZMZXPLZ7IWDDZ15LLLX","","421","img/food3.png","76","421","3","0","","2","1","1,0.7,0,1,0.7,0,0.7,0,1","1,0.7,0,1,0.7,0,0.7,0,1","1",""
"","html-keyboard-response","264","224997","0.0-353.0","351SEKWQS132GPPCZWFB2WG7ZWTDM9","A19NGUFGC7KIGW","3VAOOVPI3ZEZMZXPLZ7IWDDZ15LLLX","","null","<img src=""img/food3.png"" style=""width:200px;border:14px solid red;"">","null","","","","","","","","","",""
"","image-keyboard-response","265","225114","0.0-354.0","351SEKWQS132GPPCZWFB2WG7ZWTDM9","A19NGUFGC7KIGW","3VAOOVPI3ZEZMZXPLZ7IWDDZ15LLLX","","115","img/food3.png","74","117","1","1","","2","1","1,0.7,0,1,0.7,0,0.7,0,1","1,0.7,0,1,0.7,0,0.7,0,1","1",""
"","html-keyboard-response","266","225425","0.0-355.0","351SEKWQS132GPPCZWFB2WG7ZWTDM9","A19NGUFGC7KIGW","3VAOOVPI3ZEZMZXPLZ7IWDDZ15LLLX","","null","<img src=""img/food3.png"" style=""width:200px; border:14px solid green;"">","null","","","","","","","","","",""
"","image-keyboard-response","267","225812","0.0-356.0","351SEKWQS132GPPCZWFB2WG7ZWTDM9","A19NGUFGC7KIGW","3VAOOVPI3ZEZMZXPLZ7IWDDZ15LLLX","","385","img/food3.png","74","386","1","1","","2","1","1,0.7,0,1,0.7,0,0.7,0,1","1,0.7,0,1,0.7,0,0.7,0,1","1",""
"","html-keyboard-response","268","226123","0.0-357.0","351SEKWQS132GPPCZWFB2WG7ZWTDM9","A19NGUFGC7KIGW","3VAOOVPI3ZEZMZXPLZ7IWDDZ15LLLX","","null","<img src=""img/food3.png"" style=""width:200px; border:14px solid green;"">","null","","","","","","","","","",""
"","image-keyboard-response","269","226683","0.0-358.0","351SEKWQS132GPPCZWFB2WG7ZWTDM9","A19NGUFGC7KIGW","3VAOOVPI3ZEZMZXPLZ7IWDDZ15LLLX","","560","img/food6.png","76","560","3","1","","3","1","1,0.7,0,1,0.7,0,0.7,0,1","1,0.7,0,1,0.7,0,0.7,0,1","1",""
"","html-keyboard-response","270","226991","0.0-359.0","351SEKWQS132GPPCZWFB2WG7ZWTDM9","A19NGUFGC7KIGW","3VAOOVPI3ZEZMZXPLZ7IWDDZ15LLLX","","null","<img src=""img/food6.png"" style=""width:200px; border:14px solid green;"">","null","","","","","","","","","",""
"","image-keyboard-response","271","227340","0.0-360.0","351SEKWQS132GPPCZWFB2WG7ZWTDM9","A19NGUFGC7KIGW","3VAOOVPI3ZEZMZXPLZ7IWDDZ15LLLX","","349","img/food6.png","76","349","3","1","","3","1","1,0.7,0,1,0.7,0,0.7,0,1","1,0.7,0,1,0.7,0,0.7,0,1","1",""
"","html-keyboard-response","272","227655","0.0-361.0","351SEKWQS132GPPCZWFB2WG7ZWTDM9","A19NGUFGC7KIGW","3VAOOVPI3ZEZMZXPLZ7IWDDZ15LLLX","","null","<img src=""img/food6.png"" style=""width:200px; border:14px solid green;"">","null","","","","","","","","","",""
"","image-keyboard-response","273","227954","0.0-362.0","351SEKWQS132GPPCZWFB2WG7ZWTDM9","A19NGUFGC7KIGW","3VAOOVPI3ZEZMZXPLZ7IWDDZ15LLLX","","299","img/food6.png","76","299","3","1","","3","1","1,0.7,0,1,0.7,0,0.7,0,1","1,0.7,0,1,0.7,0,0.7,0,1","1",""
"","html-keyboard-response","274","228257","0.0-363.0","351SEKWQS132GPPCZWFB2WG7ZWTDM9","A19NGUFGC7KIGW","3VAOOVPI3ZEZMZXPLZ7IWDDZ15LLLX","","null","<img src=""img/food6.png"" style=""width:200px; border:14px solid green;"">","null","","","","","","","","","",""
"","image-keyboard-response","275","228723","0.0-364.0","351SEKWQS132GPPCZWFB2WG7ZWTDM9","A19NGUFGC7KIGW","3VAOOVPI3ZEZMZXPLZ7IWDDZ15LLLX","","466","img/food3.png","74","466","1","1","","2","1","1,0.7,0,1,0.7,0,0.7,0,1","1,0.7,0,1,0.7,0,0.7,0,1","1",""
"","html-keyboard-response","276","229036","0.0-365.0","351SEKWQS132GPPCZWFB2WG7ZWTDM9","A19NGUFGC7KIGW","3VAOOVPI3ZEZMZXPLZ7IWDDZ15LLLX","","null","<img src=""img/food3.png"" style=""width:200px; border:14px solid green;"">","null","","","","","","","","","",""
"","image-keyboard-response","277","229308","0.0-366.0","351SEKWQS132GPPCZWFB2WG7ZWTDM9","A19NGUFGC7KIGW","3VAOOVPI3ZEZMZXPLZ7IWDDZ15LLLX","","271","img/food3.png","74","271","1","1","","2","1","1,0.7,0,1,0.7,0,0.7,0,1","1,0.7,0,1,0.7,0,0.7,0,1","1",""
"","html-keyboard-response","278","229622","0.0-367.0","351SEKWQS132GPPCZWFB2WG7ZWTDM9","A19NGUFGC7KIGW","3VAOOVPI3ZEZMZXPLZ7IWDDZ15LLLX","","null","<img src=""img/food3.png"" style=""width:200px; border:14px solid green;"">","null","","","","","","","","","",""
"","image-keyboard-response","279","229922","0.0-368.0","351SEKWQS132GPPCZWFB2WG7ZWTDM9","A19NGUFGC7KIGW","3VAOOVPI3ZEZMZXPLZ7IWDDZ15LLLX","","301","img/food3.png","74","301","1","1","","2","1","1,0.7,0,1,0.7,0,0.7,0,1","1,0.7,0,1,0.7,0,0.7,0,1","1",""
"","html-keyboard-response","280","230238","0.0-369.0","351SEKWQS132GPPCZWFB2WG7ZWTDM9","A19NGUFGC7KIGW","3VAOOVPI3ZEZMZXPLZ7IWDDZ15LLLX","","null","<img src=""img/food3.png"" style=""width:200px; border:14px solid green;"">","null","","","","","","","","","",""
"","image-keyboard-response","281","230644","0.0-370.0","351SEKWQS132GPPCZWFB2WG7ZWTDM9","A19NGUFGC7KIGW","3VAOOVPI3ZEZMZXPLZ7IWDDZ15LLLX","","406","img/food6.png","76","407","3","1","","3","1","1,0.7,0,1,0.7,0,0.7,0,1","1,0.7,0,1,0.7,0,0.7,0,1","1",""
"","html-keyboard-response","282","230951","0.0-371.0","351SEKWQS132GPPCZWFB2WG7ZWTDM9","A19NGUFGC7KIGW","3VAOOVPI3ZEZMZXPLZ7IWDDZ15LLLX","","null","<img src=""img/food6.png"" style=""width:200px; border:14px solid green;"">","null","","","","","","","","","",""
"","image-keyboard-response","283","231413","0.0-372.0","351SEKWQS132GPPCZWFB2WG7ZWTDM9","A19NGUFGC7KIGW","3VAOOVPI3ZEZMZXPLZ7IWDDZ15LLLX","","462","img/food2.png","74","462","1","1","","1","1","1,0.7,0,1,0.7,0,0.7,0,1","1,0.7,0,1,0.7,0,0.7,0,1","1",""
"","html-keyboard-response","284","231727","0.0-373.0","351SEKWQS132GPPCZWFB2WG7ZWTDM9","A19NGUFGC7KIGW","3VAOOVPI3ZEZMZXPLZ7IWDDZ15LLLX","","null","<img src=""img/food2.png"" style=""width:200px; border:14px solid green;"">","null","","","","","","","","","",""
"","image-keyboard-response","285","231989","0.0-374.0","351SEKWQS132GPPCZWFB2WG7ZWTDM9","A19NGUFGC7KIGW","3VAOOVPI3ZEZMZXPLZ7IWDDZ15LLLX","","263","img/food2.png","74","263","1","1","","1","1","1,0.7,0,1,0.7,0,0.7,0,1","1,0.7,0,1,0.7,0,0.7,0,1","1",""
"","html-keyboard-response","286","232303","0.0-375.0","351SEKWQS132GPPCZWFB2WG7ZWTDM9","A19NGUFGC7KIGW","3VAOOVPI3ZEZMZXPLZ7IWDDZ15LLLX","","null","<img src=""img/food2.png"" style=""width:200px; border:14px solid green;"">","null","","","","","","","","","",""
"","image-keyboard-response","287","232893","0.0-376.0","351SEKWQS132GPPCZWFB2WG7ZWTDM9","A19NGUFGC7KIGW","3VAOOVPI3ZEZMZXPLZ7IWDDZ15LLLX","","588","img/food6.png","76","588","3","1","","3","1","1,0.7,0,1,0.7,0,0.7,0,1","1,0.7,0,1,0.7,0,0.7,0,1","1",""
"","html-keyboard-response","288","233195","0.0-377.0","351SEKWQS132GPPCZWFB2WG7ZWTDM9","A19NGUFGC7KIGW","3VAOOVPI3ZEZMZXPLZ7IWDDZ15LLLX","","null","<img src=""img/food6.png"" style=""width:200px; border:14px solid green;"">","null","","","","","","","","","",""
"","image-keyboard-response","289","233540","0.0-378.0","351SEKWQS132GPPCZWFB2WG7ZWTDM9","A19NGUFGC7KIGW","3VAOOVPI3ZEZMZXPLZ7IWDDZ15LLLX","","345","img/food2.png","74","345","1","1","","1","1","1,0.7,0,1,0.7,0,0.7,0,1","1,0.7,0,1,0.7,0,0.7,0,1","1",""
"","html-keyboard-response","290","233848","0.0-379.0","351SEKWQS132GPPCZWFB2WG7ZWTDM9","A19NGUFGC7KIGW","3VAOOVPI3ZEZMZXPLZ7IWDDZ15LLLX","","null","<img src=""img/food2.png"" style=""width:200px; border:14px solid green;"">","null","","","","","","","","","",""
"","image-keyboard-response","291","234140","0.0-380.0","351SEKWQS132GPPCZWFB2WG7ZWTDM9","A19NGUFGC7KIGW","3VAOOVPI3ZEZMZXPLZ7IWDDZ15LLLX","","292","img/food2.png","74","292","1","1","","1","1","1,0.7,0,1,0.7,0,0.7,0,1","1,0.7,0,1,0.7,0,0.7,0,1","1",""
"","html-keyboard-response","292","234453","0.0-381.0","351SEKWQS132GPPCZWFB2WG7ZWTDM9","A19NGUFGC7KIGW","3VAOOVPI3ZEZMZXPLZ7IWDDZ15LLLX","","null","<img src=""img/food2.png"" style=""width:200px; border:14px solid green;"">","null","","","","","","","","","",""
"","image-keyboard-response","293","234845","0.0-382.0","351SEKWQS132GPPCZWFB2WG7ZWTDM9","A19NGUFGC7KIGW","3VAOOVPI3ZEZMZXPLZ7IWDDZ15LLLX","","391","img/food6.png","76","391","3","1","","3","1","1,0.7,0,1,0.7,0,0.7,0,1","1,0.7,0,1,0.7,0,0.7,0,1","1",""
"","html-keyboard-response","294","235152","0.0-383.0","351SEKWQS132GPPCZWFB2WG7ZWTDM9","A19NGUFGC7KIGW","3VAOOVPI3ZEZMZXPLZ7IWDDZ15LLLX","","null","<img src=""img/food6.png"" style=""width:200px; border:14px solid green;"">","null","","","","","","","","","",""
"","image-keyboard-response","295","235539","0.0-384.0","351SEKWQS132GPPCZWFB2WG7ZWTDM9","A19NGUFGC7KIGW","3VAOOVPI3ZEZMZXPLZ7IWDDZ15LLLX","","387","img/food3.png","74","387","1","1","","2","1","1,0.7,0,1,0.7,0,0.7,0,1","1,0.7,0,1,0.7,0,0.7,0,1","1",""
"","html-keyboard-response","296","235851","0.0-385.0","351SEKWQS132GPPCZWFB2WG7ZWTDM9","A19NGUFGC7KIGW","3VAOOVPI3ZEZMZXPLZ7IWDDZ15LLLX","","null","<img src=""img/food3.png"" style=""width:200px; border:14px solid green;"">","null","","","","","","","","","",""
"","image-keyboard-response","297","236075","0.0-386.0","351SEKWQS132GPPCZWFB2WG7ZWTDM9","A19NGUFGC7KIGW","3VAOOVPI3ZEZMZXPLZ7IWDDZ15LLLX","","223","img/food6.png","74","223","1","1","","3","1","1,0.7,0,1,0.7,0,0.7,0,1","1,0.7,0,1,0.7,0,0.7,0,1","1",""
"","html-keyboard-response","298","236390","0.0-387.0","351SEKWQS132GPPCZWFB2WG7ZWTDM9","A19NGUFGC7KIGW","3VAOOVPI3ZEZMZXPLZ7IWDDZ15LLLX","","null","<img src=""img/food6.png"" style=""width:200px; border:14px solid green;"">","null","","","","","","","","","",""
"","image-keyboard-response","299","237139","0.0-388.0","351SEKWQS132GPPCZWFB2WG7ZWTDM9","A19NGUFGC7KIGW","3VAOOVPI3ZEZMZXPLZ7IWDDZ15LLLX","","749","img/food2.png","74","749","1","1","","1","1","1,0.7,0,1,0.7,0,0.7,0,1","1,0.7,0,1,0.7,0,0.7,0,1","1",""
"","html-keyboard-response","300","237449","0.0-389.0","351SEKWQS132GPPCZWFB2WG7ZWTDM9","A19NGUFGC7KIGW","3VAOOVPI3ZEZMZXPLZ7IWDDZ15LLLX","","null","<img src=""img/food2.png"" style=""width:200px; border:14px solid green;"">","null","","","","","","","","","",""
"","image-keyboard-response","301","237772","0.0-390.0","351SEKWQS132GPPCZWFB2WG7ZWTDM9","A19NGUFGC7KIGW","3VAOOVPI3ZEZMZXPLZ7IWDDZ15LLLX","","322","img/food2.png","74","323","1","1","","1","1","1,0.7,0,1,0.7,0,0.7,0,1","1,0.7,0,1,0.7,0,0.7,0,1","1",""
"","html-keyboard-response","302","238082","0.0-391.0","351SEKWQS132GPPCZWFB2WG7ZWTDM9","A19NGUFGC7KIGW","3VAOOVPI3ZEZMZXPLZ7IWDDZ15LLLX","","null","<img src=""img/food2.png"" style=""width:200px; border:14px solid green;"">","null","","","","","","","","","",""
"","image-keyboard-response","303","238435","0.0-392.0","351SEKWQS132GPPCZWFB2WG7ZWTDM9","A19NGUFGC7KIGW","3VAOOVPI3ZEZMZXPLZ7IWDDZ15LLLX","","352","img/food2.png","74","352","1","1","","1","1","1,0.7,0,1,0.7,0,0.7,0,1","1,0.7,0,1,0.7,0,0.7,0,1","1",""
"","html-keyboard-response","304","238744","0.0-393.0","351SEKWQS132GPPCZWFB2WG7ZWTDM9","A19NGUFGC7KIGW","3VAOOVPI3ZEZMZXPLZ7IWDDZ15LLLX","","null","<img src=""img/food2.png"" style=""width:200px; border:14px solid green;"">","null","","","","","","","","","",""
"","image-keyboard-response","305","239107","0.0-394.0","351SEKWQS132GPPCZWFB2WG7ZWTDM9","A19NGUFGC7KIGW","3VAOOVPI3ZEZMZXPLZ7IWDDZ15LLLX","","362","img/food3.png","74","363","1","1","","2","1","1,0.7,0,1,0.7,0,0.7,0,1","1,0.7,0,1,0.7,0,0.7,0,1","1",""
"","html-keyboard-response","306","239410","0.0-395.0","351SEKWQS132GPPCZWFB2WG7ZWTDM9","A19NGUFGC7KIGW","3VAOOVPI3ZEZMZXPLZ7IWDDZ15LLLX","","null","<img src=""img/food3.png"" style=""width:200px; border:14px solid green;"">","null","","","","","","","","","",""
"","image-keyboard-response","307","239770","0.0-396.0","351SEKWQS132GPPCZWFB2WG7ZWTDM9","A19NGUFGC7KIGW","3VAOOVPI3ZEZMZXPLZ7IWDDZ15LLLX","","360","img/food3.png","74","361","1","1","","2","1","1,0.7,0,1,0.7,0,0.7,0,1","1,0.7,0,1,0.7,0,0.7,0,1","1",""
"","html-keyboard-response","308","240072","0.0-397.0","351SEKWQS132GPPCZWFB2WG7ZWTDM9","A19NGUFGC7KIGW","3VAOOVPI3ZEZMZXPLZ7IWDDZ15LLLX","","null","<img src=""img/food3.png"" style=""width:200px; border:14px solid green;"">","null","","","","","","","","","",""
"","image-keyboard-response","309","240547","0.0-398.0","351SEKWQS132GPPCZWFB2WG7ZWTDM9","A19NGUFGC7KIGW","3VAOOVPI3ZEZMZXPLZ7IWDDZ15LLLX","","473","img/food2.png","74","473","1","1","","1","1","1,0.7,0,1,0.7,0,0.7,0,1","1,0.7,0,1,0.7,0,0.7,0,1","1",""
"","html-keyboard-response","310","240850","0.0-399.0","351SEKWQS132GPPCZWFB2WG7ZWTDM9","A19NGUFGC7KIGW","3VAOOVPI3ZEZMZXPLZ7IWDDZ15LLLX","","null","<img src=""img/food2.png"" style=""width:200px; border:14px solid green;"">","null","","","","","","","","","",""
"","image-keyboard-response","311","241139","0.0-400.0","351SEKWQS132GPPCZWFB2WG7ZWTDM9","A19NGUFGC7KIGW","3VAOOVPI3ZEZMZXPLZ7IWDDZ15LLLX","","288","img/food2.png","74","289","1","1","","1","1","1,0.7,0,1,0.7,0,0.7,0,1","1,0.7,0,1,0.7,0,0.7,0,1","1",""
"","html-keyboard-response","312","241446","0.0-401.0","351SEKWQS132GPPCZWFB2WG7ZWTDM9","A19NGUFGC7KIGW","3VAOOVPI3ZEZMZXPLZ7IWDDZ15LLLX","","null","<img src=""img/food2.png"" style=""width:200px; border:14px solid green;"">","null","","","","","","","","","",""
"","image-keyboard-response","313","241826","0.0-402.0","351SEKWQS132GPPCZWFB2WG7ZWTDM9","A19NGUFGC7KIGW","3VAOOVPI3ZEZMZXPLZ7IWDDZ15LLLX","","379","img/food3.png","74","380","1","1","","2","1","1,0.7,0,1,0.7,0,0.7,0,1","1,0.7,0,1,0.7,0,0.7,0,1","1",""
"","html-keyboard-response","314","242129","0.0-403.0","351SEKWQS132GPPCZWFB2WG7ZWTDM9","A19NGUFGC7KIGW","3VAOOVPI3ZEZMZXPLZ7IWDDZ15LLLX","","null","<img src=""img/food3.png"" style=""width:200px; border:14px solid green;"">","null","","","","","","","","","",""
"","image-keyboard-response","315","242498","0.0-404.0","351SEKWQS132GPPCZWFB2WG7ZWTDM9","A19NGUFGC7KIGW","3VAOOVPI3ZEZMZXPLZ7IWDDZ15LLLX","","368","img/food2.png","74","369","1","1","","1","1","1,0.7,0,1,0.7,0,0.7,0,1","1,0.7,0,1,0.7,0,0.7,0,1","1",""
"","html-keyboard-response","316","242809","0.0-405.0","351SEKWQS132GPPCZWFB2WG7ZWTDM9","A19NGUFGC7KIGW","3VAOOVPI3ZEZMZXPLZ7IWDDZ15LLLX","","null","<img src=""img/food2.png"" style=""width:200px; border:14px solid green;"">","null","","","","","","","","","",""
"","image-keyboard-response","317","243043","0.0-406.0","351SEKWQS132GPPCZWFB2WG7ZWTDM9","A19NGUFGC7KIGW","3VAOOVPI3ZEZMZXPLZ7IWDDZ15LLLX","","234","img/food2.png","74","235","1","1","","1","1","1,0.7,0,1,0.7,0,0.7,0,1","1,0.7,0,1,0.7,0,0.7,0,1","1",""
"","html-keyboard-response","318","243349","0.0-407.0","351SEKWQS132GPPCZWFB2WG7ZWTDM9","A19NGUFGC7KIGW","3VAOOVPI3ZEZMZXPLZ7IWDDZ15LLLX","","null","<img src=""img/food2.png"" style=""width:200px; border:14px solid green;"">","null","","","","","","","","","",""
"","image-keyboard-response","319","243812","0.0-408.0","351SEKWQS132GPPCZWFB2WG7ZWTDM9","A19NGUFGC7KIGW","3VAOOVPI3ZEZMZXPLZ7IWDDZ15LLLX","","462","img/food6.png","74","463","1","1","","3","1","1,0.7,0,1,0.7,0,0.7,0,1","1,0.7,0,1,0.7,0,0.7,0,1","1",""
"","html-keyboard-response","320","244123","0.0-409.0","351SEKWQS132GPPCZWFB2WG7ZWTDM9","A19NGUFGC7KIGW","3VAOOVPI3ZEZMZXPLZ7IWDDZ15LLLX","","null","<img src=""img/food6.png"" style=""width:200px; border:14px solid green;"">","null","","","","","","","","","",""
"","image-keyboard-response","321","244381","0.0-410.0","351SEKWQS132GPPCZWFB2WG7ZWTDM9","A19NGUFGC7KIGW","3VAOOVPI3ZEZMZXPLZ7IWDDZ15LLLX","","257","img/food6.png","74","258","1","1","","3","1","1,0.7,0,1,0.7,0,0.7,0,1","1,0.7,0,1,0.7,0,0.7,0,1","1",""
"","html-keyboard-response","322","244692","0.0-411.0","351SEKWQS132GPPCZWFB2WG7ZWTDM9","A19NGUFGC7KIGW","3VAOOVPI3ZEZMZXPLZ7IWDDZ15LLLX","","null","<img src=""img/food6.png"" style=""width:200px; border:14px solid green;"">","null","","","","","","","","","",""
"","image-keyboard-response","323","244948","0.0-412.0","351SEKWQS132GPPCZWFB2WG7ZWTDM9","A19NGUFGC7KIGW","3VAOOVPI3ZEZMZXPLZ7IWDDZ15LLLX","","254","img/food3.png","74","255","1","1","","2","1","1,0.7,0,1,0.7,0,0.7,0,1","1,0.7,0,1,0.7,0,0.7,0,1","1",""
"","html-keyboard-response","324","245260","0.0-413.0","351SEKWQS132GPPCZWFB2WG7ZWTDM9","A19NGUFGC7KIGW","3VAOOVPI3ZEZMZXPLZ7IWDDZ15LLLX","","null","<img src=""img/food3.png"" style=""width:200px; border:14px solid green;"">","null","","","","","","","","","",""
"","image-keyboard-response","325","245403","0.0-414.0","351SEKWQS132GPPCZWFB2WG7ZWTDM9","A19NGUFGC7KIGW","3VAOOVPI3ZEZMZXPLZ7IWDDZ15LLLX","","142","img/food6.png","74","142","1","0","","3","1","1,0.7,0,1,0.7,0,0.7,0,1","1,0.7,0,1,0.7,0,0.7,0,1","1",""
"","html-keyboard-response","326","245706","0.0-415.0","351SEKWQS132GPPCZWFB2WG7ZWTDM9","A19NGUFGC7KIGW","3VAOOVPI3ZEZMZXPLZ7IWDDZ15LLLX","","null","<img src=""img/food6.png"" style=""width:200px;border:14px solid red;"">","null","","","","","","","","","",""
"","image-keyboard-response","327","246066","0.0-416.0","351SEKWQS132GPPCZWFB2WG7ZWTDM9","A19NGUFGC7KIGW","3VAOOVPI3ZEZMZXPLZ7IWDDZ15LLLX","","359","img/food2.png","74","359","1","1","","1","1","1,0.7,0,1,0.7,0,0.7,0,1","1,0.7,0,1,0.7,0,0.7,0,1","1",""
"","html-keyboard-response","328","246381","0.0-417.0","351SEKWQS132GPPCZWFB2WG7ZWTDM9","A19NGUFGC7KIGW","3VAOOVPI3ZEZMZXPLZ7IWDDZ15LLLX","","null","<img src=""img/food2.png"" style=""width:200px; border:14px solid green;"">","null","","","","","","","","","",""
"","image-keyboard-response","329","246516","0.0-418.0","351SEKWQS132GPPCZWFB2WG7ZWTDM9","A19NGUFGC7KIGW","3VAOOVPI3ZEZMZXPLZ7IWDDZ15LLLX","","134","img/food6.png","74","134","1","1","","3","1","1,0.7,0,1,0.7,0,0.7,0,1","1,0.7,0,1,0.7,0,0.7,0,1","1",""
"","html-keyboard-response","330","246826","0.0-419.0","351SEKWQS132GPPCZWFB2WG7ZWTDM9","A19NGUFGC7KIGW","3VAOOVPI3ZEZMZXPLZ7IWDDZ15LLLX","","null","<img src=""img/food6.png"" style=""width:200px; border:14px solid green;"">","null","","","","","","","","","",""
"","image-keyboard-response","331","247083","0.0-420.0","351SEKWQS132GPPCZWFB2WG7ZWTDM9","A19NGUFGC7KIGW","3VAOOVPI3ZEZMZXPLZ7IWDDZ15LLLX","","256","img/food3.png","74","256","1","1","","2","1","1,0.7,0,1,0.7,0,0.7,0,1","1,0.7,0,1,0.7,0,0.7,0,1","1",""
"","html-keyboard-response","332","247397","0.0-421.0","351SEKWQS132GPPCZWFB2WG7ZWTDM9","A19NGUFGC7KIGW","3VAOOVPI3ZEZMZXPLZ7IWDDZ15LLLX","","null","<img src=""img/food3.png"" style=""width:200px; border:14px solid green;"">","null","","","","","","","","","",""
"","image-keyboard-response","333","247571","0.0-422.0","351SEKWQS132GPPCZWFB2WG7ZWTDM9","A19NGUFGC7KIGW","3VAOOVPI3ZEZMZXPLZ7IWDDZ15LLLX","","173","img/food3.png","74","173","1","1","","2","1","1,0.7,0,1,0.7,0,0.7,0,1","1,0.7,0,1,0.7,0,0.7,0,1","1",""
"","html-keyboard-response","334","247873","0.0-423.0","351SEKWQS132GPPCZWFB2WG7ZWTDM9","A19NGUFGC7KIGW","3VAOOVPI3ZEZMZXPLZ7IWDDZ15LLLX","","null","<img src=""img/food3.png"" style=""width:200px; border:14px solid green;"">","null","","","","","","","","","",""
"","image-keyboard-response","335","248067","0.0-424.0","351SEKWQS132GPPCZWFB2WG7ZWTDM9","A19NGUFGC7KIGW","3VAOOVPI3ZEZMZXPLZ7IWDDZ15LLLX","","193","img/food3.png","74","194","1","1","","2","1","1,0.7,0,1,0.7,0,0.7,0,1","1,0.7,0,1,0.7,0,0.7,0,1","1",""
"","html-keyboard-response","336","248379","0.0-425.0","351SEKWQS132GPPCZWFB2WG7ZWTDM9","A19NGUFGC7KIGW","3VAOOVPI3ZEZMZXPLZ7IWDDZ15LLLX","","null","<img src=""img/food3.png"" style=""width:200px; border:14px solid green;"">","null","","","","","","","","","",""
"","image-keyboard-response","337","248595","0.0-426.0","351SEKWQS132GPPCZWFB2WG7ZWTDM9","A19NGUFGC7KIGW","3VAOOVPI3ZEZMZXPLZ7IWDDZ15LLLX","","215","img/food2.png","74","216","1","1","","1","1","1,0.7,0,1,0.7,0,0.7,0,1","1,0.7,0,1,0.7,0,0.7,0,1","1",""
"","html-keyboard-response","338","248898","0.0-427.0","351SEKWQS132GPPCZWFB2WG7ZWTDM9","A19NGUFGC7KIGW","3VAOOVPI3ZEZMZXPLZ7IWDDZ15LLLX","","null","<img src=""img/food2.png"" style=""width:200px; border:14px solid green;"">","null","","","","","","","","","",""
"","image-keyboard-response","339","249092","0.0-428.0","351SEKWQS132GPPCZWFB2WG7ZWTDM9","A19NGUFGC7KIGW","3VAOOVPI3ZEZMZXPLZ7IWDDZ15LLLX","","192","img/food6.png","74","192","1","1","","3","1","1,0.7,0,1,0.7,0,0.7,0,1","1,0.7,0,1,0.7,0,0.7,0,1","1",""
"","html-keyboard-response","340","249403","0.0-429.0","351SEKWQS132GPPCZWFB2WG7ZWTDM9","A19NGUFGC7KIGW","3VAOOVPI3ZEZMZXPLZ7IWDDZ15LLLX","","null","<img src=""img/food6.png"" style=""width:200px; border:14px solid green;"">","null","","","","","","","","","",""
"","image-keyboard-response","341","249627","0.0-430.0","351SEKWQS132GPPCZWFB2WG7ZWTDM9","A19NGUFGC7KIGW","3VAOOVPI3ZEZMZXPLZ7IWDDZ15LLLX","","223","img/food6.png","74","224","1","1","","3","1","1,0.7,0,1,0.7,0,0.7,0,1","1,0.7,0,1,0.7,0,0.7,0,1","1",""
"","html-keyboard-response","342","249942","0.0-431.0","351SEKWQS132GPPCZWFB2WG7ZWTDM9","A19NGUFGC7KIGW","3VAOOVPI3ZEZMZXPLZ7IWDDZ15LLLX","","null","<img src=""img/food6.png"" style=""width:200px; border:14px solid green;"">","null","","","","","","","","","",""
"","image-keyboard-response","343","250123","0.0-432.0","351SEKWQS132GPPCZWFB2WG7ZWTDM9","A19NGUFGC7KIGW","3VAOOVPI3ZEZMZXPLZ7IWDDZ15LLLX","","179","img/food3.png","74","181","1","1","","2","1","1,0.7,0,1,0.7,0,0.7,0,1","1,0.7,0,1,0.7,0,0.7,0,1","1",""
"","html-keyboard-response","344","250429","0.0-433.0","351SEKWQS132GPPCZWFB2WG7ZWTDM9","A19NGUFGC7KIGW","3VAOOVPI3ZEZMZXPLZ7IWDDZ15LLLX","","null","<img src=""img/food3.png"" style=""width:200px; border:14px solid green;"">","null","","","","","","","","","",""
"","image-keyboard-response","345","250612","0.0-434.0","351SEKWQS132GPPCZWFB2WG7ZWTDM9","A19NGUFGC7KIGW","3VAOOVPI3ZEZMZXPLZ7IWDDZ15LLLX","","182","img/food6.png","74","182","1","1","","3","1","1,0.7,0,1,0.7,0,0.7,0,1","1,0.7,0,1,0.7,0,0.7,0,1","1",""
"","html-keyboard-response","346","250922","0.0-435.0","351SEKWQS132GPPCZWFB2WG7ZWTDM9","A19NGUFGC7KIGW","3VAOOVPI3ZEZMZXPLZ7IWDDZ15LLLX","","null","<img src=""img/food6.png"" style=""width:200px; border:14px solid green;"">","null","","","","","","","","","",""
"","image-keyboard-response","347","251122","0.0-436.0","351SEKWQS132GPPCZWFB2WG7ZWTDM9","A19NGUFGC7KIGW","3VAOOVPI3ZEZMZXPLZ7IWDDZ15LLLX","","197","img/food2.png","74","199","1","1","","1","1","1,0.7,0,1,0.7,0,0.7,0,1","1,0.7,0,1,0.7,0,0.7,0,1","1",""
"","html-keyboard-response","348","251427","0.0-437.0","351SEKWQS132GPPCZWFB2WG7ZWTDM9","A19NGUFGC7KIGW","3VAOOVPI3ZEZMZXPLZ7IWDDZ15LLLX","","null","<img src=""img/food2.png"" style=""width:200px; border:14px solid green;"">","null","","","","","","","","","",""
"","image-keyboard-response","349","251594","0.0-438.0","351SEKWQS132GPPCZWFB2WG7ZWTDM9","A19NGUFGC7KIGW","3VAOOVPI3ZEZMZXPLZ7IWDDZ15LLLX","","166","img/food6.png","74","166","1","0","","3","1","1,0.7,0,1,0.7,0,0.7,0,1","1,0.7,0,1,0.7,0,0.7,0,1","1",""
"","html-keyboard-response","350","251896","0.0-439.0","351SEKWQS132GPPCZWFB2WG7ZWTDM9","A19NGUFGC7KIGW","3VAOOVPI3ZEZMZXPLZ7IWDDZ15LLLX","","null","<img src=""img/food6.png"" style=""width:200px;border:14px solid red;"">","null","","","","","","","","","",""
"","image-keyboard-response","351","252098","0.0-440.0","351SEKWQS132GPPCZWFB2WG7ZWTDM9","A19NGUFGC7KIGW","3VAOOVPI3ZEZMZXPLZ7IWDDZ15LLLX","","202","img/food3.png","74","203","1","1","","2","1","1,0.7,0,1,0.7,0,0.7,0,1","1,0.7,0,1,0.7,0,0.7,0,1","1",""
"","html-keyboard-response","352","252412","0.0-441.0","351SEKWQS132GPPCZWFB2WG7ZWTDM9","A19NGUFGC7KIGW","3VAOOVPI3ZEZMZXPLZ7IWDDZ15LLLX","","null","<img src=""img/food3.png"" style=""width:200px; border:14px solid green;"">","null","","","","","","","","","",""
"","image-keyboard-response","353","252610","0.0-442.0","351SEKWQS132GPPCZWFB2WG7ZWTDM9","A19NGUFGC7KIGW","3VAOOVPI3ZEZMZXPLZ7IWDDZ15LLLX","","197","img/food3.png","74","197","1","1","","2","1","1,0.7,0,1,0.7,0,0.7,0,1","1,0.7,0,1,0.7,0,0.7,0,1","1",""
"","html-keyboard-response","354","252917","0.0-443.0","351SEKWQS132GPPCZWFB2WG7ZWTDM9","A19NGUFGC7KIGW","3VAOOVPI3ZEZMZXPLZ7IWDDZ15LLLX","","null","<img src=""img/food3.png"" style=""width:200px; border:14px solid green;"">","null","","","","","","","","","",""
"","image-keyboard-response","355","253195","0.0-444.0","351SEKWQS132GPPCZWFB2WG7ZWTDM9","A19NGUFGC7KIGW","3VAOOVPI3ZEZMZXPLZ7IWDDZ15LLLX","","277","img/food2.png","74","278","1","1","","1","1","1,0.7,0,1,0.7,0,0.7,0,1","1,0.7,0,1,0.7,0,0.7,0,1","1",""
"","html-keyboard-response","356","253507","0.0-445.0","351SEKWQS132GPPCZWFB2WG7ZWTDM9","A19NGUFGC7KIGW","3VAOOVPI3ZEZMZXPLZ7IWDDZ15LLLX","","null","<img src=""img/food2.png"" style=""width:200px; border:14px solid green;"">","null","","","","","","","","","",""
"","image-keyboard-response","357","253651","0.0-446.0","351SEKWQS132GPPCZWFB2WG7ZWTDM9","A19NGUFGC7KIGW","3VAOOVPI3ZEZMZXPLZ7IWDDZ15LLLX","","144","img/food3.png","74","144","1","1","","2","1","1,0.7,0,1,0.7,0,0.7,0,1","1,0.7,0,1,0.7,0,0.7,0,1","1",""
"","html-keyboard-response","358","253959","0.0-447.0","351SEKWQS132GPPCZWFB2WG7ZWTDM9","A19NGUFGC7KIGW","3VAOOVPI3ZEZMZXPLZ7IWDDZ15LLLX","","null","<img src=""img/food3.png"" style=""width:200px; border:14px solid green;"">","null","","","","","","","","","",""
"","image-keyboard-response","359","254124","0.0-448.0","351SEKWQS132GPPCZWFB2WG7ZWTDM9","A19NGUFGC7KIGW","3VAOOVPI3ZEZMZXPLZ7IWDDZ15LLLX","","164","img/food6.png","74","164","1","1","","3","1","1,0.7,0,1,0.7,0,0.7,0,1","1,0.7,0,1,0.7,0,0.7,0,1","1",""
"","html-keyboard-response","360","254431","0.0-449.0","351SEKWQS132GPPCZWFB2WG7ZWTDM9","A19NGUFGC7KIGW","3VAOOVPI3ZEZMZXPLZ7IWDDZ15LLLX","","null","<img src=""img/food6.png"" style=""width:200px; border:14px solid green;"">","null","","","","","","","","","",""
"","image-keyboard-response","361","254482","0.0-450.0","351SEKWQS132GPPCZWFB2WG7ZWTDM9","A19NGUFGC7KIGW","3VAOOVPI3ZEZMZXPLZ7IWDDZ15LLLX","","51","img/food6.png","74","51","1","1","","3","1","1,0.7,0,1,0.7,0,0.7,0,1","1,0.7,0,1,0.7,0,0.7,0,1","1",""
"","html-keyboard-response","362","254797","0.0-451.0","351SEKWQS132GPPCZWFB2WG7ZWTDM9","A19NGUFGC7KIGW","3VAOOVPI3ZEZMZXPLZ7IWDDZ15LLLX","","null","<img src=""img/food6.png"" style=""width:200px; border:14px solid green;"">","null","","","","","","","","","",""
"","image-keyboard-response","363","254900","0.0-452.0","351SEKWQS132GPPCZWFB2WG7ZWTDM9","A19NGUFGC7KIGW","3VAOOVPI3ZEZMZXPLZ7IWDDZ15LLLX","","103","img/food6.png","74","103","1","0","","3","1","1,0.7,0,1,0.7,0,0.7,0,1","1,0.7,0,1,0.7,0,0.7,0,1","1",""
"","html-keyboard-response","364","255209","0.0-453.0","351SEKWQS132GPPCZWFB2WG7ZWTDM9","A19NGUFGC7KIGW","3VAOOVPI3ZEZMZXPLZ7IWDDZ15LLLX","","null","<img src=""img/food6.png"" style=""width:200px;border:14px solid red;"">","null","","","","","","","","","",""
"","html-keyboard-response","365","261735","0.0-454.0","351SEKWQS132GPPCZWFB2WG7ZWTDM9","A19NGUFGC7KIGW","3VAOOVPI3ZEZMZXPLZ7IWDDZ15LLLX","","","","","","","","","","","","","",""
"","instructions","366","264258","0.0-455.0","351SEKWQS132GPPCZWFB2WG7ZWTDM9","A19NGUFGC7KIGW","3VAOOVPI3ZEZMZXPLZ7IWDDZ15LLLX","[{""page_index"":0,""viewing_time"":2521}]","2521","","","","","","","","","","","",""
"","survey-text","367","271076","0.0-456.0","351SEKWQS132GPPCZWFB2WG7ZWTDM9","A19NGUFGC7KIGW","3VAOOVPI3ZEZMZXPLZ7IWDDZ15LLLX","","6816","","","","","","","","","","","","{""Q0"":""A19NGUFGC7KIGW""}"
