"success","trial_type","trial_index","time_elapsed","internal_node_id","assignmentID","mturkID","hitID","view_history","rt","stimulus","key_press","reactionTime","a","r","s","cond","reward_cond","reward_cond_actual","reward_matrix_idx","warning","responses"
"true","fullscreen","0","8315","0.0-0.0","34BBWHLWHBXFTCZCVCM92RYBQU3WIS","A1AIMKA54UBYIQ","382GHPVPHSDM8N0F9141EAH7F0K34Z","","","","","","","","","","","","","",""
"","instructions","1","37803","0.0-1.0","34BBWHLWHBXFTCZCVCM92RYBQU3WIS","A1AIMKA54UBYIQ","382GHPVPHSDM8N0F9141EAH7F0K34Z","[{""page_index"":0,""viewing_time"":4426.600000143051},{""page_index"":1,""viewing_time"":2014.5},{""page_index"":2,""viewing_time"":1688.0999999046326},{""page_index"":3,""viewing_time"":5916.099999904633},{""page_index"":4,""viewing_time"":4183},{""page_index"":5,""viewing_time"":8815.600000143051},{""page_index"":6,""viewing_time"":2442}]","29486.299999952316","","","","","","","","","","","",""
"","image-keyboard-response","2","39544","0.0-2.0","34BBWHLWHBXFTCZCVCM92RYBQU3WIS","A1AIMKA54UBYIQ","382GHPVPHSDM8N0F9141EAH7F0K34Z","","1740.2000000476837","img/food3.png","74","1741.5","1","0","3","1","1,0.5,0,1,0.5,0,0.5,0,1","1,0.5,0,1,0.5,0,0.5,0,1","1","",""
"","html-keyboard-response","3","39856","0.0-3.0","34BBWHLWHBXFTCZCVCM92RYBQU3WIS","A1AIMKA54UBYIQ","382GHPVPHSDM8N0F9141EAH7F0K34Z","","null","<img src=""img/food3.png"" style=""width:200px;border:14px solid red;"">","null","","","","","","","","","",""
"","image-keyboard-response","4","40925","0.0-4.0","34BBWHLWHBXFTCZCVCM92RYBQU3WIS","A1AIMKA54UBYIQ","382GHPVPHSDM8N0F9141EAH7F0K34Z","","1067.7999999523163","img/food5.png","74","1068.9000000953674","1","1","1","1","1,0.5,0,1,0.5,0,0.5,0,1","1,0.5,0,1,0.5,0,0.5,0,1","1","",""
"","html-keyboard-response","5","41233","0.0-5.0","34BBWHLWHBXFTCZCVCM92RYBQU3WIS","A1AIMKA54UBYIQ","382GHPVPHSDM8N0F9141EAH7F0K34Z","","null","<img src=""img/food5.png"" style=""width:200px; border:14px solid green;"">","null","","","","","","","","","",""
"","image-keyboard-response","6","42116","0.0-6.0","34BBWHLWHBXFTCZCVCM92RYBQU3WIS","A1AIMKA54UBYIQ","382GHPVPHSDM8N0F9141EAH7F0K34Z","","881.3999998569489","img/food6.png","75","882.7000000476837","2","1","2","1","1,0.5,0,1,0.5,0,0.5,0,1","1,0.5,0,1,0.5,0,0.5,0,1","1","",""
"","html-keyboard-response","7","42421","0.0-7.0","34BBWHLWHBXFTCZCVCM92RYBQU3WIS","A1AIMKA54UBYIQ","382GHPVPHSDM8N0F9141EAH7F0K34Z","","null","<img src=""img/food6.png"" style=""width:200px; border:14px solid green;"">","null","","","","","","","","","",""
"","image-keyboard-response","8","42898","0.0-8.0","34BBWHLWHBXFTCZCVCM92RYBQU3WIS","A1AIMKA54UBYIQ","382GHPVPHSDM8N0F9141EAH7F0K34Z","","475.2000000476837","img/food6.png","75","476.60000014305115","2","1","2","1","1,0.5,0,1,0.5,0,0.5,0,1","1,0.5,0,1,0.5,0,0.5,0,1","1","",""
"","html-keyboard-response","9","43210","0.0-9.0","34BBWHLWHBXFTCZCVCM92RYBQU3WIS","A1AIMKA54UBYIQ","382GHPVPHSDM8N0F9141EAH7F0K34Z","","null","<img src=""img/food6.png"" style=""width:200px; border:14px solid green;"">","null","","","","","","","","","",""
"","image-keyboard-response","10","43750","0.0-10.0","34BBWHLWHBXFTCZCVCM92RYBQU3WIS","A1AIMKA54UBYIQ","382GHPVPHSDM8N0F9141EAH7F0K34Z","","538","img/food5.png","74","539.5","1","1","1","1","1,0.5,0,1,0.5,0,0.5,0,1","1,0.5,0,1,0.5,0,0.5,0,1","1","",""
"","html-keyboard-response","11","44067","0.0-11.0","34BBWHLWHBXFTCZCVCM92RYBQU3WIS","A1AIMKA54UBYIQ","382GHPVPHSDM8N0F9141EAH7F0K34Z","","null","<img src=""img/food5.png"" style=""width:200px; border:14px solid green;"">","null","","","","","","","","","",""
"","image-keyboard-response","12","44485","0.0-12.0","34BBWHLWHBXFTCZCVCM92RYBQU3WIS","A1AIMKA54UBYIQ","382GHPVPHSDM8N0F9141EAH7F0K34Z","","416.30000019073486","img/food6.png","75","417.60000014305115","2","1","2","1","1,0.5,0,1,0.5,0,0.5,0,1","1,0.5,0,1,0.5,0,0.5,0,1","1","",""
"","html-keyboard-response","13","44790","0.0-13.0","34BBWHLWHBXFTCZCVCM92RYBQU3WIS","A1AIMKA54UBYIQ","382GHPVPHSDM8N0F9141EAH7F0K34Z","","null","<img src=""img/food6.png"" style=""width:200px; border:14px solid green;"">","null","","","","","","","","","",""
"","image-keyboard-response","14","45376","0.0-14.0","34BBWHLWHBXFTCZCVCM92RYBQU3WIS","A1AIMKA54UBYIQ","382GHPVPHSDM8N0F9141EAH7F0K34Z","","583.2999999523163","img/food3.png","76","585.2999999523163","3","1","3","1","1,0.5,0,1,0.5,0,0.5,0,1","1,0.5,0,1,0.5,0,0.5,0,1","1","",""
"","html-keyboard-response","15","45681","0.0-15.0","34BBWHLWHBXFTCZCVCM92RYBQU3WIS","A1AIMKA54UBYIQ","382GHPVPHSDM8N0F9141EAH7F0K34Z","","null","<img src=""img/food3.png"" style=""width:200px; border:14px solid green;"">","null","","","","","","","","","",""
"","image-keyboard-response","16","46253","0.0-16.0","34BBWHLWHBXFTCZCVCM92RYBQU3WIS","A1AIMKA54UBYIQ","382GHPVPHSDM8N0F9141EAH7F0K34Z","","570.9000000953674","img/food5.png","74","572.1999998092651","1","1","1","1","1,0.5,0,1,0.5,0,0.5,0,1","1,0.5,0,1,0.5,0,0.5,0,1","1","",""
"","html-keyboard-response","17","46561","0.0-17.0","34BBWHLWHBXFTCZCVCM92RYBQU3WIS","A1AIMKA54UBYIQ","382GHPVPHSDM8N0F9141EAH7F0K34Z","","null","<img src=""img/food5.png"" style=""width:200px; border:14px solid green;"">","null","","","","","","","","","",""
"","image-keyboard-response","18","46963","0.0-18.0","34BBWHLWHBXFTCZCVCM92RYBQU3WIS","A1AIMKA54UBYIQ","382GHPVPHSDM8N0F9141EAH7F0K34Z","","399.7999999523163","img/food5.png","74","401.2999999523163","1","1","1","1","1,0.5,0,1,0.5,0,0.5,0,1","1,0.5,0,1,0.5,0,0.5,0,1","1","",""
"","html-keyboard-response","19","47270","0.0-19.0","34BBWHLWHBXFTCZCVCM92RYBQU3WIS","A1AIMKA54UBYIQ","382GHPVPHSDM8N0F9141EAH7F0K34Z","","null","<img src=""img/food5.png"" style=""width:200px; border:14px solid green;"">","null","","","","","","","","","",""
"","image-keyboard-response","20","47725","0.0-20.0","34BBWHLWHBXFTCZCVCM92RYBQU3WIS","A1AIMKA54UBYIQ","382GHPVPHSDM8N0F9141EAH7F0K34Z","","452.90000009536743","img/food5.png","74","454.5","1","1","1","1","1,0.5,0,1,0.5,0,0.5,0,1","1,0.5,0,1,0.5,0,0.5,0,1","1","",""
"","html-keyboard-response","21","48033","0.0-21.0","34BBWHLWHBXFTCZCVCM92RYBQU3WIS","A1AIMKA54UBYIQ","382GHPVPHSDM8N0F9141EAH7F0K34Z","","null","<img src=""img/food5.png"" style=""width:200px; border:14px solid green;"">","null","","","","","","","","","",""
"","image-keyboard-response","22","48391","0.0-22.0","34BBWHLWHBXFTCZCVCM92RYBQU3WIS","A1AIMKA54UBYIQ","382GHPVPHSDM8N0F9141EAH7F0K34Z","","356.7000000476837","img/food5.png","74","358","1","1","1","1","1,0.5,0,1,0.5,0,0.5,0,1","1,0.5,0,1,0.5,0,0.5,0,1","1","",""
"","html-keyboard-response","23","48698","0.0-23.0","34BBWHLWHBXFTCZCVCM92RYBQU3WIS","A1AIMKA54UBYIQ","382GHPVPHSDM8N0F9141EAH7F0K34Z","","null","<img src=""img/food5.png"" style=""width:200px; border:14px solid green;"">","null","","","","","","","","","",""
"","image-keyboard-response","24","49172","0.0-24.0","34BBWHLWHBXFTCZCVCM92RYBQU3WIS","A1AIMKA54UBYIQ","382GHPVPHSDM8N0F9141EAH7F0K34Z","","473","img/food6.png","75","474.2000000476837","2","1","2","1","1,0.5,0,1,0.5,0,0.5,0,1","1,0.5,0,1,0.5,0,0.5,0,1","1","",""
"","html-keyboard-response","25","49479","0.0-25.0","34BBWHLWHBXFTCZCVCM92RYBQU3WIS","A1AIMKA54UBYIQ","382GHPVPHSDM8N0F9141EAH7F0K34Z","","null","<img src=""img/food6.png"" style=""width:200px; border:14px solid green;"">","null","","","","","","","","","",""
"","image-keyboard-response","26","49806","0.0-26.0","34BBWHLWHBXFTCZCVCM92RYBQU3WIS","A1AIMKA54UBYIQ","382GHPVPHSDM8N0F9141EAH7F0K34Z","","325.7999999523163","img/food6.png","75","327.2000000476837","2","0","2","1","1,0.5,0,1,0.5,0,0.5,0,1","1,0.5,0,1,0.5,0,0.5,0,1","1","",""
"","html-keyboard-response","27","50113","0.0-27.0","34BBWHLWHBXFTCZCVCM92RYBQU3WIS","A1AIMKA54UBYIQ","382GHPVPHSDM8N0F9141EAH7F0K34Z","","null","<img src=""img/food6.png"" style=""width:200px;border:14px solid red;"">","null","","","","","","","","","",""
"","image-keyboard-response","28","50565","0.0-28.0","34BBWHLWHBXFTCZCVCM92RYBQU3WIS","A1AIMKA54UBYIQ","382GHPVPHSDM8N0F9141EAH7F0K34Z","","450","img/food3.png","76","451.2000000476837","3","1","3","1","1,0.5,0,1,0.5,0,0.5,0,1","1,0.5,0,1,0.5,0,0.5,0,1","1","",""
"","html-keyboard-response","29","50868","0.0-29.0","34BBWHLWHBXFTCZCVCM92RYBQU3WIS","A1AIMKA54UBYIQ","382GHPVPHSDM8N0F9141EAH7F0K34Z","","null","<img src=""img/food3.png"" style=""width:200px; border:14px solid green;"">","null","","","","","","","","","",""
"","image-keyboard-response","30","51369","0.0-30.0","34BBWHLWHBXFTCZCVCM92RYBQU3WIS","A1AIMKA54UBYIQ","382GHPVPHSDM8N0F9141EAH7F0K34Z","","499.90000009536743","img/food5.png","74","500.89999985694885","1","1","1","1","1,0.5,0,1,0.5,0,0.5,0,1","1,0.5,0,1,0.5,0,0.5,0,1","1","",""
"","html-keyboard-response","31","51678","0.0-31.0","34BBWHLWHBXFTCZCVCM92RYBQU3WIS","A1AIMKA54UBYIQ","382GHPVPHSDM8N0F9141EAH7F0K34Z","","null","<img src=""img/food5.png"" style=""width:200px; border:14px solid green;"">","null","","","","","","","","","",""
"","image-keyboard-response","32","52197","0.0-32.0","34BBWHLWHBXFTCZCVCM92RYBQU3WIS","A1AIMKA54UBYIQ","382GHPVPHSDM8N0F9141EAH7F0K34Z","","518.5999999046326","img/food6.png","75","519.7000000476837","2","1","2","1","1,0.5,0,1,0.5,0,0.5,0,1","1,0.5,0,1,0.5,0,0.5,0,1","1","",""
"","html-keyboard-response","33","52507","0.0-33.0","34BBWHLWHBXFTCZCVCM92RYBQU3WIS","A1AIMKA54UBYIQ","382GHPVPHSDM8N0F9141EAH7F0K34Z","","null","<img src=""img/food6.png"" style=""width:200px; border:14px solid green;"">","null","","","","","","","","","",""
"","image-keyboard-response","34","53019","0.0-34.0","34BBWHLWHBXFTCZCVCM92RYBQU3WIS","A1AIMKA54UBYIQ","382GHPVPHSDM8N0F9141EAH7F0K34Z","","509.89999985694885","img/food3.png","76","511.10000014305115","3","1","3","1","1,0.5,0,1,0.5,0,0.5,0,1","1,0.5,0,1,0.5,0,0.5,0,1","1","",""
"","html-keyboard-response","35","53328","0.0-35.0","34BBWHLWHBXFTCZCVCM92RYBQU3WIS","A1AIMKA54UBYIQ","382GHPVPHSDM8N0F9141EAH7F0K34Z","","null","<img src=""img/food3.png"" style=""width:200px; border:14px solid green;"">","null","","","","","","","","","",""
"","image-keyboard-response","36","53901","0.0-36.0","34BBWHLWHBXFTCZCVCM92RYBQU3WIS","A1AIMKA54UBYIQ","382GHPVPHSDM8N0F9141EAH7F0K34Z","","571.5999999046326","img/food3.png","76","572.6000001430511","3","1","3","1","1,0.5,0,1,0.5,0,0.5,0,1","1,0.5,0,1,0.5,0,0.5,0,1","1","",""
"","html-keyboard-response","37","54213","0.0-37.0","34BBWHLWHBXFTCZCVCM92RYBQU3WIS","A1AIMKA54UBYIQ","382GHPVPHSDM8N0F9141EAH7F0K34Z","","null","<img src=""img/food3.png"" style=""width:200px; border:14px solid green;"">","null","","","","","","","","","",""
"","image-keyboard-response","38","54847","0.0-38.0","34BBWHLWHBXFTCZCVCM92RYBQU3WIS","A1AIMKA54UBYIQ","382GHPVPHSDM8N0F9141EAH7F0K34Z","","633.1000001430511","img/food6.png","75","634.4000000953674","2","1","2","1","1,0.5,0,1,0.5,0,0.5,0,1","1,0.5,0,1,0.5,0,0.5,0,1","1","",""
"","html-keyboard-response","39","55150","0.0-39.0","34BBWHLWHBXFTCZCVCM92RYBQU3WIS","A1AIMKA54UBYIQ","382GHPVPHSDM8N0F9141EAH7F0K34Z","","null","<img src=""img/food6.png"" style=""width:200px; border:14px solid green;"">","null","","","","","","","","","",""
"","image-keyboard-response","40","55565","0.0-40.0","34BBWHLWHBXFTCZCVCM92RYBQU3WIS","A1AIMKA54UBYIQ","382GHPVPHSDM8N0F9141EAH7F0K34Z","","414.40000009536743","img/food5.png","74","415.39999985694885","1","1","1","1","1,0.5,0,1,0.5,0,0.5,0,1","1,0.5,0,1,0.5,0,0.5,0,1","1","",""
"","html-keyboard-response","41","55868","0.0-41.0","34BBWHLWHBXFTCZCVCM92RYBQU3WIS","A1AIMKA54UBYIQ","382GHPVPHSDM8N0F9141EAH7F0K34Z","","null","<img src=""img/food5.png"" style=""width:200px; border:14px solid green;"">","null","","","","","","","","","",""
"","image-keyboard-response","42","56295","0.0-42.0","34BBWHLWHBXFTCZCVCM92RYBQU3WIS","A1AIMKA54UBYIQ","382GHPVPHSDM8N0F9141EAH7F0K34Z","","425.2000000476837","img/food5.png","74","426.09999990463257","1","1","1","1","1,0.5,0,1,0.5,0,0.5,0,1","1,0.5,0,1,0.5,0,0.5,0,1","1","",""
"","html-keyboard-response","43","56604","0.0-43.0","34BBWHLWHBXFTCZCVCM92RYBQU3WIS","A1AIMKA54UBYIQ","382GHPVPHSDM8N0F9141EAH7F0K34Z","","null","<img src=""img/food5.png"" style=""width:200px; border:14px solid green;"">","null","","","","","","","","","",""
"","image-keyboard-response","44","57209","0.0-44.0","34BBWHLWHBXFTCZCVCM92RYBQU3WIS","A1AIMKA54UBYIQ","382GHPVPHSDM8N0F9141EAH7F0K34Z","","603.6999998092651","img/food3.png","76","604.7999999523163","3","1","3","1","1,0.5,0,1,0.5,0,0.5,0,1","1,0.5,0,1,0.5,0,0.5,0,1","1","",""
"","html-keyboard-response","45","57516","0.0-45.0","34BBWHLWHBXFTCZCVCM92RYBQU3WIS","A1AIMKA54UBYIQ","382GHPVPHSDM8N0F9141EAH7F0K34Z","","null","<img src=""img/food3.png"" style=""width:200px; border:14px solid green;"">","null","","","","","","","","","",""
"","image-keyboard-response","46","58071","0.0-46.0","34BBWHLWHBXFTCZCVCM92RYBQU3WIS","A1AIMKA54UBYIQ","382GHPVPHSDM8N0F9141EAH7F0K34Z","","553.2999999523163","img/food6.png","75","554.3000001907349","2","0","2","1","1,0.5,0,1,0.5,0,0.5,0,1","1,0.5,0,1,0.5,0,0.5,0,1","1","",""
"","html-keyboard-response","47","58380","0.0-47.0","34BBWHLWHBXFTCZCVCM92RYBQU3WIS","A1AIMKA54UBYIQ","382GHPVPHSDM8N0F9141EAH7F0K34Z","","null","<img src=""img/food6.png"" style=""width:200px;border:14px solid red;"">","null","","","","","","","","","",""
"","image-keyboard-response","48","58904","0.0-48.0","34BBWHLWHBXFTCZCVCM92RYBQU3WIS","A1AIMKA54UBYIQ","382GHPVPHSDM8N0F9141EAH7F0K34Z","","522.7000000476837","img/food5.png","74","523.7999999523163","1","1","1","1","1,0.5,0,1,0.5,0,0.5,0,1","1,0.5,0,1,0.5,0,0.5,0,1","1","",""
"","html-keyboard-response","49","59210","0.0-49.0","34BBWHLWHBXFTCZCVCM92RYBQU3WIS","A1AIMKA54UBYIQ","382GHPVPHSDM8N0F9141EAH7F0K34Z","","null","<img src=""img/food5.png"" style=""width:200px; border:14px solid green;"">","null","","","","","","","","","",""
"","image-keyboard-response","50","59670","0.0-50.0","34BBWHLWHBXFTCZCVCM92RYBQU3WIS","A1AIMKA54UBYIQ","382GHPVPHSDM8N0F9141EAH7F0K34Z","","458.7999999523163","img/food6.png","75","459.59999990463257","2","0","2","1","1,0.5,0,1,0.5,0,0.5,0,1","1,0.5,0,1,0.5,0,0.5,0,1","1","",""
"","html-keyboard-response","51","59979","0.0-51.0","34BBWHLWHBXFTCZCVCM92RYBQU3WIS","A1AIMKA54UBYIQ","382GHPVPHSDM8N0F9141EAH7F0K34Z","","null","<img src=""img/food6.png"" style=""width:200px;border:14px solid red;"">","null","","","","","","","","","",""
"","image-keyboard-response","52","60442","0.0-52.0","34BBWHLWHBXFTCZCVCM92RYBQU3WIS","A1AIMKA54UBYIQ","382GHPVPHSDM8N0F9141EAH7F0K34Z","","461.90000009536743","img/food6.png","75","462.7999999523163","2","0","2","1","1,0.5,0,1,0.5,0,0.5,0,1","1,0.5,0,1,0.5,0,0.5,0,1","1","",""
"","html-keyboard-response","53","60747","0.0-53.0","34BBWHLWHBXFTCZCVCM92RYBQU3WIS","A1AIMKA54UBYIQ","382GHPVPHSDM8N0F9141EAH7F0K34Z","","null","<img src=""img/food6.png"" style=""width:200px;border:14px solid red;"">","null","","","","","","","","","",""
"","image-keyboard-response","54","61245","0.0-54.0","34BBWHLWHBXFTCZCVCM92RYBQU3WIS","A1AIMKA54UBYIQ","382GHPVPHSDM8N0F9141EAH7F0K34Z","","496.10000014305115","img/food3.png","76","497.2999999523163","3","1","3","1","1,0.5,0,1,0.5,0,0.5,0,1","1,0.5,0,1,0.5,0,0.5,0,1","1","",""
"","html-keyboard-response","55","61549","0.0-55.0","34BBWHLWHBXFTCZCVCM92RYBQU3WIS","A1AIMKA54UBYIQ","382GHPVPHSDM8N0F9141EAH7F0K34Z","","null","<img src=""img/food3.png"" style=""width:200px; border:14px solid green;"">","null","","","","","","","","","",""
"","image-keyboard-response","56","61858","0.0-56.0","34BBWHLWHBXFTCZCVCM92RYBQU3WIS","A1AIMKA54UBYIQ","382GHPVPHSDM8N0F9141EAH7F0K34Z","","307.80000019073486","img/food3.png","76","308.59999990463257","3","1","3","1","1,0.5,0,1,0.5,0,0.5,0,1","1,0.5,0,1,0.5,0,0.5,0,1","1","",""
"","html-keyboard-response","57","62170","0.0-57.0","34BBWHLWHBXFTCZCVCM92RYBQU3WIS","A1AIMKA54UBYIQ","382GHPVPHSDM8N0F9141EAH7F0K34Z","","null","<img src=""img/food3.png"" style=""width:200px; border:14px solid green;"">","null","","","","","","","","","",""
"","image-keyboard-response","58","62527","0.0-58.0","34BBWHLWHBXFTCZCVCM92RYBQU3WIS","A1AIMKA54UBYIQ","382GHPVPHSDM8N0F9141EAH7F0K34Z","","355.19999980926514","img/food3.png","76","356.40000009536743","3","1","3","1","1,0.5,0,1,0.5,0,0.5,0,1","1,0.5,0,1,0.5,0,0.5,0,1","1","",""
"","html-keyboard-response","59","62843","0.0-59.0","34BBWHLWHBXFTCZCVCM92RYBQU3WIS","A1AIMKA54UBYIQ","382GHPVPHSDM8N0F9141EAH7F0K34Z","","null","<img src=""img/food3.png"" style=""width:200px; border:14px solid green;"">","null","","","","","","","","","",""
"","image-keyboard-response","60","63150","0.0-60.0","34BBWHLWHBXFTCZCVCM92RYBQU3WIS","A1AIMKA54UBYIQ","382GHPVPHSDM8N0F9141EAH7F0K34Z","","306.69999980926514","img/food3.png","76","307.7000000476837","3","1","3","1","1,0.5,0,1,0.5,0,0.5,0,1","1,0.5,0,1,0.5,0,0.5,0,1","1","",""
"","html-keyboard-response","61","63456","0.0-61.0","34BBWHLWHBXFTCZCVCM92RYBQU3WIS","A1AIMKA54UBYIQ","382GHPVPHSDM8N0F9141EAH7F0K34Z","","null","<img src=""img/food3.png"" style=""width:200px; border:14px solid green;"">","null","","","","","","","","","",""
"","image-keyboard-response","62","64256","0.0-62.0","34BBWHLWHBXFTCZCVCM92RYBQU3WIS","A1AIMKA54UBYIQ","382GHPVPHSDM8N0F9141EAH7F0K34Z","","798.2000000476837","img/food6.png","75","799.7000000476837","2","0","2","1","1,0.5,0,1,0.5,0,0.5,0,1","1,0.5,0,1,0.5,0,0.5,0,1","1","",""
"","html-keyboard-response","63","64566","0.0-63.0","34BBWHLWHBXFTCZCVCM92RYBQU3WIS","A1AIMKA54UBYIQ","382GHPVPHSDM8N0F9141EAH7F0K34Z","","null","<img src=""img/food6.png"" style=""width:200px;border:14px solid red;"">","null","","","","","","","","","",""
"","image-keyboard-response","64","64902","0.0-64.0","34BBWHLWHBXFTCZCVCM92RYBQU3WIS","A1AIMKA54UBYIQ","382GHPVPHSDM8N0F9141EAH7F0K34Z","","334.2999999523163","img/food6.png","75","335.2000000476837","2","0","2","1","1,0.5,0,1,0.5,0,0.5,0,1","1,0.5,0,1,0.5,0,0.5,0,1","1","",""
"","html-keyboard-response","65","65208","0.0-65.0","34BBWHLWHBXFTCZCVCM92RYBQU3WIS","A1AIMKA54UBYIQ","382GHPVPHSDM8N0F9141EAH7F0K34Z","","null","<img src=""img/food6.png"" style=""width:200px;border:14px solid red;"">","null","","","","","","","","","",""
"","image-keyboard-response","66","65530","0.0-66.0","34BBWHLWHBXFTCZCVCM92RYBQU3WIS","A1AIMKA54UBYIQ","382GHPVPHSDM8N0F9141EAH7F0K34Z","","320.7999999523163","img/food6.png","75","321.7999999523163","2","0","2","1","1,0.5,0,1,0.5,0,0.5,0,1","1,0.5,0,1,0.5,0,0.5,0,1","1","",""
"","html-keyboard-response","67","65838","0.0-67.0","34BBWHLWHBXFTCZCVCM92RYBQU3WIS","A1AIMKA54UBYIQ","382GHPVPHSDM8N0F9141EAH7F0K34Z","","null","<img src=""img/food6.png"" style=""width:200px;border:14px solid red;"">","null","","","","","","","","","",""
"","image-keyboard-response","68","66328","0.0-68.0","34BBWHLWHBXFTCZCVCM92RYBQU3WIS","A1AIMKA54UBYIQ","382GHPVPHSDM8N0F9141EAH7F0K34Z","","488.40000009536743","img/food5.png","74","489.2000000476837","1","1","1","1","1,0.5,0,1,0.5,0,0.5,0,1","1,0.5,0,1,0.5,0,0.5,0,1","1","",""
"","html-keyboard-response","69","66637","0.0-69.0","34BBWHLWHBXFTCZCVCM92RYBQU3WIS","A1AIMKA54UBYIQ","382GHPVPHSDM8N0F9141EAH7F0K34Z","","null","<img src=""img/food5.png"" style=""width:200px; border:14px solid green;"">","null","","","","","","","","","",""
"","image-keyboard-response","70","66959","0.0-70.0","34BBWHLWHBXFTCZCVCM92RYBQU3WIS","A1AIMKA54UBYIQ","382GHPVPHSDM8N0F9141EAH7F0K34Z","","321.2000000476837","img/food5.png","74","322","1","1","1","1","1,0.5,0,1,0.5,0,0.5,0,1","1,0.5,0,1,0.5,0,0.5,0,1","1","",""
"","html-keyboard-response","71","67275","0.0-71.0","34BBWHLWHBXFTCZCVCM92RYBQU3WIS","A1AIMKA54UBYIQ","382GHPVPHSDM8N0F9141EAH7F0K34Z","","null","<img src=""img/food5.png"" style=""width:200px; border:14px solid green;"">","null","","","","","","","","","",""
"","image-keyboard-response","72","67895","0.0-72.0","34BBWHLWHBXFTCZCVCM92RYBQU3WIS","A1AIMKA54UBYIQ","382GHPVPHSDM8N0F9141EAH7F0K34Z","","618","img/food3.png","76","619.8999998569489","3","1","3","1","1,0.5,0,1,0.5,0,0.5,0,1","1,0.5,0,1,0.5,0,0.5,0,1","1","",""
"","html-keyboard-response","73","68201","0.0-73.0","34BBWHLWHBXFTCZCVCM92RYBQU3WIS","A1AIMKA54UBYIQ","382GHPVPHSDM8N0F9141EAH7F0K34Z","","null","<img src=""img/food3.png"" style=""width:200px; border:14px solid green;"">","null","","","","","","","","","",""
"","image-keyboard-response","74","69412","0.0-74.0","34BBWHLWHBXFTCZCVCM92RYBQU3WIS","A1AIMKA54UBYIQ","382GHPVPHSDM8N0F9141EAH7F0K34Z","","1209.1999998092651","img/food5.png","74","1210.4000000953674","1","1","1","1","1,0.5,0,1,0.5,0,0.5,0,1","1,0.5,0,1,0.5,0,0.5,0,1","1","",""
"","html-keyboard-response","75","69719","0.0-75.0","34BBWHLWHBXFTCZCVCM92RYBQU3WIS","A1AIMKA54UBYIQ","382GHPVPHSDM8N0F9141EAH7F0K34Z","","null","<img src=""img/food5.png"" style=""width:200px; border:14px solid green;"">","null","","","","","","","","","",""
"","image-keyboard-response","76","70317","0.0-76.0","34BBWHLWHBXFTCZCVCM92RYBQU3WIS","A1AIMKA54UBYIQ","382GHPVPHSDM8N0F9141EAH7F0K34Z","","596.7999999523163","img/food3.png","76","597.8999998569489","3","1","3","1","1,0.5,0,1,0.5,0,0.5,0,1","1,0.5,0,1,0.5,0,0.5,0,1","1","",""
"","html-keyboard-response","77","70627","0.0-77.0","34BBWHLWHBXFTCZCVCM92RYBQU3WIS","A1AIMKA54UBYIQ","382GHPVPHSDM8N0F9141EAH7F0K34Z","","null","<img src=""img/food3.png"" style=""width:200px; border:14px solid green;"">","null","","","","","","","","","",""
"","image-keyboard-response","78","71076","0.0-78.0","34BBWHLWHBXFTCZCVCM92RYBQU3WIS","A1AIMKA54UBYIQ","382GHPVPHSDM8N0F9141EAH7F0K34Z","","447.5","img/food3.png","76","448.5","3","1","3","1","1,0.5,0,1,0.5,0,0.5,0,1","1,0.5,0,1,0.5,0,0.5,0,1","1","",""
"","html-keyboard-response","79","71380","0.0-79.0","34BBWHLWHBXFTCZCVCM92RYBQU3WIS","A1AIMKA54UBYIQ","382GHPVPHSDM8N0F9141EAH7F0K34Z","","null","<img src=""img/food3.png"" style=""width:200px; border:14px solid green;"">","null","","","","","","","","","",""
"","image-keyboard-response","80","71680","0.0-80.0","34BBWHLWHBXFTCZCVCM92RYBQU3WIS","A1AIMKA54UBYIQ","382GHPVPHSDM8N0F9141EAH7F0K34Z","","298.5","img/food3.png","76","299.5","3","1","3","1","1,0.5,0,1,0.5,0,0.5,0,1","1,0.5,0,1,0.5,0,0.5,0,1","1","",""
"","html-keyboard-response","81","71988","0.0-81.0","34BBWHLWHBXFTCZCVCM92RYBQU3WIS","A1AIMKA54UBYIQ","382GHPVPHSDM8N0F9141EAH7F0K34Z","","null","<img src=""img/food3.png"" style=""width:200px; border:14px solid green;"">","null","","","","","","","","","",""
"","image-keyboard-response","82","72493","0.0-82.0","34BBWHLWHBXFTCZCVCM92RYBQU3WIS","A1AIMKA54UBYIQ","382GHPVPHSDM8N0F9141EAH7F0K34Z","","503.39999985694885","img/food5.png","74","504.40000009536743","1","1","1","1","1,0.5,0,1,0.5,0,0.5,0,1","1,0.5,0,1,0.5,0,0.5,0,1","1","",""
"","html-keyboard-response","83","72811","0.0-83.0","34BBWHLWHBXFTCZCVCM92RYBQU3WIS","A1AIMKA54UBYIQ","382GHPVPHSDM8N0F9141EAH7F0K34Z","","null","<img src=""img/food5.png"" style=""width:200px; border:14px solid green;"">","null","","","","","","","","","",""
"","image-keyboard-response","84","73117","0.0-84.0","34BBWHLWHBXFTCZCVCM92RYBQU3WIS","A1AIMKA54UBYIQ","382GHPVPHSDM8N0F9141EAH7F0K34Z","","305","img/food5.png","74","306.2000000476837","1","1","1","1","1,0.5,0,1,0.5,0,0.5,0,1","1,0.5,0,1,0.5,0,0.5,0,1","1","",""
"","html-keyboard-response","85","73427","0.0-85.0","34BBWHLWHBXFTCZCVCM92RYBQU3WIS","A1AIMKA54UBYIQ","382GHPVPHSDM8N0F9141EAH7F0K34Z","","null","<img src=""img/food5.png"" style=""width:200px; border:14px solid green;"">","null","","","","","","","","","",""
"","image-keyboard-response","86","73981","0.0-86.0","34BBWHLWHBXFTCZCVCM92RYBQU3WIS","A1AIMKA54UBYIQ","382GHPVPHSDM8N0F9141EAH7F0K34Z","","553","img/food6.png","75","553.8999998569489","2","1","2","1","1,0.5,0,1,0.5,0,0.5,0,1","1,0.5,0,1,0.5,0,0.5,0,1","1","",""
"","html-keyboard-response","87","74283","0.0-87.0","34BBWHLWHBXFTCZCVCM92RYBQU3WIS","A1AIMKA54UBYIQ","382GHPVPHSDM8N0F9141EAH7F0K34Z","","null","<img src=""img/food6.png"" style=""width:200px; border:14px solid green;"">","null","","","","","","","","","",""
"","image-keyboard-response","88","74973","0.0-88.0","34BBWHLWHBXFTCZCVCM92RYBQU3WIS","A1AIMKA54UBYIQ","382GHPVPHSDM8N0F9141EAH7F0K34Z","","688","img/food5.png","74","689.0999999046326","1","1","1","1","1,0.5,0,1,0.5,0,0.5,0,1","1,0.5,0,1,0.5,0,0.5,0,1","1","",""
"","html-keyboard-response","89","75278","0.0-89.0","34BBWHLWHBXFTCZCVCM92RYBQU3WIS","A1AIMKA54UBYIQ","382GHPVPHSDM8N0F9141EAH7F0K34Z","","null","<img src=""img/food5.png"" style=""width:200px; border:14px solid green;"">","null","","","","","","","","","",""
"","image-keyboard-response","90","75864","0.0-90.0","34BBWHLWHBXFTCZCVCM92RYBQU3WIS","A1AIMKA54UBYIQ","382GHPVPHSDM8N0F9141EAH7F0K34Z","","585.0999999046326","img/food3.png","76","586.1000001430511","3","1","3","1","1,0.5,0,1,0.5,0,0.5,0,1","1,0.5,0,1,0.5,0,0.5,0,1","1","",""
"","html-keyboard-response","91","76177","0.0-91.0","34BBWHLWHBXFTCZCVCM92RYBQU3WIS","A1AIMKA54UBYIQ","382GHPVPHSDM8N0F9141EAH7F0K34Z","","null","<img src=""img/food3.png"" style=""width:200px; border:14px solid green;"">","null","","","","","","","","","",""
"","image-keyboard-response","92","76664","0.0-92.0","34BBWHLWHBXFTCZCVCM92RYBQU3WIS","A1AIMKA54UBYIQ","382GHPVPHSDM8N0F9141EAH7F0K34Z","","486.30000019073486","img/food3.png","76","487.2000000476837","3","1","3","1","1,0.5,0,1,0.5,0,0.5,0,1","1,0.5,0,1,0.5,0,0.5,0,1","1","",""
"","html-keyboard-response","93","76967","0.0-93.0","34BBWHLWHBXFTCZCVCM92RYBQU3WIS","A1AIMKA54UBYIQ","382GHPVPHSDM8N0F9141EAH7F0K34Z","","null","<img src=""img/food3.png"" style=""width:200px; border:14px solid green;"">","null","","","","","","","","","",""
"","image-keyboard-response","94","77491","0.0-94.0","34BBWHLWHBXFTCZCVCM92RYBQU3WIS","A1AIMKA54UBYIQ","382GHPVPHSDM8N0F9141EAH7F0K34Z","","522","img/food5.png","74","522.8999998569489","1","1","1","1","1,0.5,0,1,0.5,0,0.5,0,1","1,0.5,0,1,0.5,0,0.5,0,1","1","",""
"","html-keyboard-response","95","77795","0.0-95.0","34BBWHLWHBXFTCZCVCM92RYBQU3WIS","A1AIMKA54UBYIQ","382GHPVPHSDM8N0F9141EAH7F0K34Z","","null","<img src=""img/food5.png"" style=""width:200px; border:14px solid green;"">","null","","","","","","","","","",""
"","image-keyboard-response","96","78293","0.0-96.0","34BBWHLWHBXFTCZCVCM92RYBQU3WIS","A1AIMKA54UBYIQ","382GHPVPHSDM8N0F9141EAH7F0K34Z","","497.7999999523163","img/food5.png","74","498.59999990463257","1","1","1","1","1,0.5,0,1,0.5,0,0.5,0,1","1,0.5,0,1,0.5,0,0.5,0,1","1","",""
"","html-keyboard-response","97","78606","0.0-97.0","34BBWHLWHBXFTCZCVCM92RYBQU3WIS","A1AIMKA54UBYIQ","382GHPVPHSDM8N0F9141EAH7F0K34Z","","null","<img src=""img/food5.png"" style=""width:200px; border:14px solid green;"">","null","","","","","","","","","",""
"","image-keyboard-response","98","79133","0.0-98.0","34BBWHLWHBXFTCZCVCM92RYBQU3WIS","A1AIMKA54UBYIQ","382GHPVPHSDM8N0F9141EAH7F0K34Z","","525.5999999046326","img/food6.png","75","526.5","2","1","2","1","1,0.5,0,1,0.5,0,0.5,0,1","1,0.5,0,1,0.5,0,0.5,0,1","1","",""
"","html-keyboard-response","99","79437","0.0-99.0","34BBWHLWHBXFTCZCVCM92RYBQU3WIS","A1AIMKA54UBYIQ","382GHPVPHSDM8N0F9141EAH7F0K34Z","","null","<img src=""img/food6.png"" style=""width:200px; border:14px solid green;"">","null","","","","","","","","","",""
"","image-keyboard-response","100","79997","0.0-100.0","34BBWHLWHBXFTCZCVCM92RYBQU3WIS","A1AIMKA54UBYIQ","382GHPVPHSDM8N0F9141EAH7F0K34Z","","558.3999998569489","img/food3.png","76","559.2999999523163","3","1","3","1","1,0.5,0,1,0.5,0,0.5,0,1","1,0.5,0,1,0.5,0,0.5,0,1","1","",""
"","html-keyboard-response","101","80311","0.0-101.0","34BBWHLWHBXFTCZCVCM92RYBQU3WIS","A1AIMKA54UBYIQ","382GHPVPHSDM8N0F9141EAH7F0K34Z","","null","<img src=""img/food3.png"" style=""width:200px; border:14px solid green;"">","null","","","","","","","","","",""
"","image-keyboard-response","102","80988","0.0-102.0","34BBWHLWHBXFTCZCVCM92RYBQU3WIS","A1AIMKA54UBYIQ","382GHPVPHSDM8N0F9141EAH7F0K34Z","","675.2999999523163","img/food6.png","75","676.5","2","1","2","1","1,0.5,0,1,0.5,0,0.5,0,1","1,0.5,0,1,0.5,0,0.5,0,1","1","",""
"","html-keyboard-response","103","81297","0.0-103.0","34BBWHLWHBXFTCZCVCM92RYBQU3WIS","A1AIMKA54UBYIQ","382GHPVPHSDM8N0F9141EAH7F0K34Z","","null","<img src=""img/food6.png"" style=""width:200px; border:14px solid green;"">","null","","","","","","","","","",""
"","image-keyboard-response","104","81854","0.0-104.0","34BBWHLWHBXFTCZCVCM92RYBQU3WIS","A1AIMKA54UBYIQ","382GHPVPHSDM8N0F9141EAH7F0K34Z","","556.4000000953674","img/food5.png","74","557.2000000476837","1","1","1","1","1,0.5,0,1,0.5,0,0.5,0,1","1,0.5,0,1,0.5,0,0.5,0,1","1","",""
"","html-keyboard-response","105","82163","0.0-105.0","34BBWHLWHBXFTCZCVCM92RYBQU3WIS","A1AIMKA54UBYIQ","382GHPVPHSDM8N0F9141EAH7F0K34Z","","null","<img src=""img/food5.png"" style=""width:200px; border:14px solid green;"">","null","","","","","","","","","",""
"","image-keyboard-response","106","82696","0.0-106.0","34BBWHLWHBXFTCZCVCM92RYBQU3WIS","A1AIMKA54UBYIQ","382GHPVPHSDM8N0F9141EAH7F0K34Z","","532.2999999523163","img/food6.png","75","533.2000000476837","2","1","2","1","1,0.5,0,1,0.5,0,0.5,0,1","1,0.5,0,1,0.5,0,0.5,0,1","1","",""
"","html-keyboard-response","107","83008","0.0-107.0","34BBWHLWHBXFTCZCVCM92RYBQU3WIS","A1AIMKA54UBYIQ","382GHPVPHSDM8N0F9141EAH7F0K34Z","","null","<img src=""img/food6.png"" style=""width:200px; border:14px solid green;"">","null","","","","","","","","","",""
"","image-keyboard-response","108","83607","0.0-108.0","34BBWHLWHBXFTCZCVCM92RYBQU3WIS","A1AIMKA54UBYIQ","382GHPVPHSDM8N0F9141EAH7F0K34Z","","597.7000000476837","img/food5.png","74","598.7000000476837","1","1","1","1","1,0.5,0,1,0.5,0,0.5,0,1","1,0.5,0,1,0.5,0,0.5,0,1","1","",""
"","html-keyboard-response","109","83911","0.0-109.0","34BBWHLWHBXFTCZCVCM92RYBQU3WIS","A1AIMKA54UBYIQ","382GHPVPHSDM8N0F9141EAH7F0K34Z","","null","<img src=""img/food5.png"" style=""width:200px; border:14px solid green;"">","null","","","","","","","","","",""
"","image-keyboard-response","110","84447","0.0-110.0","34BBWHLWHBXFTCZCVCM92RYBQU3WIS","A1AIMKA54UBYIQ","382GHPVPHSDM8N0F9141EAH7F0K34Z","","534.7000000476837","img/food6.png","74","535.6999998092651","1","1","2","1","1,0.5,0,1,0.5,0,0.5,0,1","1,0.5,0,1,0.5,0,0.5,0,1","1","",""
"","html-keyboard-response","111","84764","0.0-111.0","34BBWHLWHBXFTCZCVCM92RYBQU3WIS","A1AIMKA54UBYIQ","382GHPVPHSDM8N0F9141EAH7F0K34Z","","null","<img src=""img/food6.png"" style=""width:200px; border:14px solid green;"">","null","","","","","","","","","",""
"","image-keyboard-response","112","86042","0.0-112.0","34BBWHLWHBXFTCZCVCM92RYBQU3WIS","A1AIMKA54UBYIQ","382GHPVPHSDM8N0F9141EAH7F0K34Z","","1276.2000000476837","img/food6.png","75","1277.2000000476837","2","1","2","1","1,0.5,0,1,0.5,0,0.5,0,1","1,0.5,0,1,0.5,0,0.5,0,1","1","",""
"","html-keyboard-response","113","86351","0.0-113.0","34BBWHLWHBXFTCZCVCM92RYBQU3WIS","A1AIMKA54UBYIQ","382GHPVPHSDM8N0F9141EAH7F0K34Z","","null","<img src=""img/food6.png"" style=""width:200px; border:14px solid green;"">","null","","","","","","","","","",""
"","image-keyboard-response","114","86959","0.0-114.0","34BBWHLWHBXFTCZCVCM92RYBQU3WIS","A1AIMKA54UBYIQ","382GHPVPHSDM8N0F9141EAH7F0K34Z","","606.4000000953674","img/food5.png","74","607.2999999523163","1","1","1","1","1,0.5,0,1,0.5,0,0.5,0,1","1,0.5,0,1,0.5,0,0.5,0,1","1","",""
"","html-keyboard-response","115","87262","0.0-115.0","34BBWHLWHBXFTCZCVCM92RYBQU3WIS","A1AIMKA54UBYIQ","382GHPVPHSDM8N0F9141EAH7F0K34Z","","null","<img src=""img/food5.png"" style=""width:200px; border:14px solid green;"">","null","","","","","","","","","",""
"","image-keyboard-response","116","87667","0.0-116.0","34BBWHLWHBXFTCZCVCM92RYBQU3WIS","A1AIMKA54UBYIQ","382GHPVPHSDM8N0F9141EAH7F0K34Z","","403.09999990463257","img/food5.png","74","404.60000014305115","1","1","1","1","1,0.5,0,1,0.5,0,0.5,0,1","1,0.5,0,1,0.5,0,0.5,0,1","1","",""
"","html-keyboard-response","117","87969","0.0-117.0","34BBWHLWHBXFTCZCVCM92RYBQU3WIS","A1AIMKA54UBYIQ","382GHPVPHSDM8N0F9141EAH7F0K34Z","","null","<img src=""img/food5.png"" style=""width:200px; border:14px solid green;"">","null","","","","","","","","","",""
"","image-keyboard-response","118","88393","0.0-118.0","34BBWHLWHBXFTCZCVCM92RYBQU3WIS","A1AIMKA54UBYIQ","382GHPVPHSDM8N0F9141EAH7F0K34Z","","422.7999999523163","img/food6.png","75","423.7000000476837","2","0","2","1","1,0.5,0,1,0.5,0,0.5,0,1","1,0.5,0,1,0.5,0,0.5,0,1","1","",""
"","html-keyboard-response","119","88698","0.0-119.0","34BBWHLWHBXFTCZCVCM92RYBQU3WIS","A1AIMKA54UBYIQ","382GHPVPHSDM8N0F9141EAH7F0K34Z","","null","<img src=""img/food6.png"" style=""width:200px;border:14px solid red;"">","null","","","","","","","","","",""
"","image-keyboard-response","120","89321","0.0-120.0","34BBWHLWHBXFTCZCVCM92RYBQU3WIS","A1AIMKA54UBYIQ","382GHPVPHSDM8N0F9141EAH7F0K34Z","","622","img/food3.png","76","623","3","1","3","1","1,0.5,0,1,0.5,0,0.5,0,1","1,0.5,0,1,0.5,0,0.5,0,1","1","",""
"","html-keyboard-response","121","89626","0.0-121.0","34BBWHLWHBXFTCZCVCM92RYBQU3WIS","A1AIMKA54UBYIQ","382GHPVPHSDM8N0F9141EAH7F0K34Z","","null","<img src=""img/food3.png"" style=""width:200px; border:14px solid green;"">","null","","","","","","","","","",""
"","image-keyboard-response","122","90936","0.0-122.0","34BBWHLWHBXFTCZCVCM92RYBQU3WIS","A1AIMKA54UBYIQ","382GHPVPHSDM8N0F9141EAH7F0K34Z","","1308.7999999523163","img/food6.png","75","1309.7999999523163","2","1","2","1","1,0.5,0,1,0.5,0,0.5,0,1","1,0.5,0,1,0.5,0,0.5,0,1","1","",""
"","html-keyboard-response","123","91253","0.0-123.0","34BBWHLWHBXFTCZCVCM92RYBQU3WIS","A1AIMKA54UBYIQ","382GHPVPHSDM8N0F9141EAH7F0K34Z","","null","<img src=""img/food6.png"" style=""width:200px; border:14px solid green;"">","null","","","","","","","","","",""
"","image-keyboard-response","124","91735","0.0-124.0","34BBWHLWHBXFTCZCVCM92RYBQU3WIS","A1AIMKA54UBYIQ","382GHPVPHSDM8N0F9141EAH7F0K34Z","","480.2999999523163","img/food5.png","74","481.2999999523163","1","1","1","1","1,0.5,0,1,0.5,0,0.5,0,1","1,0.5,0,1,0.5,0,0.5,0,1","1","",""
"","html-keyboard-response","125","92046","0.0-125.0","34BBWHLWHBXFTCZCVCM92RYBQU3WIS","A1AIMKA54UBYIQ","382GHPVPHSDM8N0F9141EAH7F0K34Z","","null","<img src=""img/food5.png"" style=""width:200px; border:14px solid green;"">","null","","","","","","","","","",""
"","image-keyboard-response","126","92515","0.0-126.0","34BBWHLWHBXFTCZCVCM92RYBQU3WIS","A1AIMKA54UBYIQ","382GHPVPHSDM8N0F9141EAH7F0K34Z","","467.69999980926514","img/food6.png","75","468.59999990463257","2","1","2","1","1,0.5,0,1,0.5,0,0.5,0,1","1,0.5,0,1,0.5,0,0.5,0,1","1","",""
"","html-keyboard-response","127","92816","0.0-127.0","34BBWHLWHBXFTCZCVCM92RYBQU3WIS","A1AIMKA54UBYIQ","382GHPVPHSDM8N0F9141EAH7F0K34Z","","null","<img src=""img/food6.png"" style=""width:200px; border:14px solid green;"">","null","","","","","","","","","",""
"","image-keyboard-response","128","93151","0.0-128.0","34BBWHLWHBXFTCZCVCM92RYBQU3WIS","A1AIMKA54UBYIQ","382GHPVPHSDM8N0F9141EAH7F0K34Z","","333.40000009536743","img/food6.png","75","334.10000014305115","2","1","2","1","1,0.5,0,1,0.5,0,0.5,0,1","1,0.5,0,1,0.5,0,0.5,0,1","1","",""
"","html-keyboard-response","129","93455","0.0-129.0","34BBWHLWHBXFTCZCVCM92RYBQU3WIS","A1AIMKA54UBYIQ","382GHPVPHSDM8N0F9141EAH7F0K34Z","","null","<img src=""img/food6.png"" style=""width:200px; border:14px solid green;"">","null","","","","","","","","","",""
"","image-keyboard-response","130","93887","0.0-130.0","34BBWHLWHBXFTCZCVCM92RYBQU3WIS","A1AIMKA54UBYIQ","382GHPVPHSDM8N0F9141EAH7F0K34Z","","431.2999999523163","img/food6.png","75","432.09999990463257","2","1","2","1","1,0.5,0,1,0.5,0,0.5,0,1","1,0.5,0,1,0.5,0,0.5,0,1","1","",""
"","html-keyboard-response","131","94196","0.0-131.0","34BBWHLWHBXFTCZCVCM92RYBQU3WIS","A1AIMKA54UBYIQ","382GHPVPHSDM8N0F9141EAH7F0K34Z","","null","<img src=""img/food6.png"" style=""width:200px; border:14px solid green;"">","null","","","","","","","","","",""
"","image-keyboard-response","132","94746","0.0-132.0","34BBWHLWHBXFTCZCVCM92RYBQU3WIS","A1AIMKA54UBYIQ","382GHPVPHSDM8N0F9141EAH7F0K34Z","","549","img/food3.png","76","549.7999999523163","3","1","3","1","1,0.5,0,1,0.5,0,0.5,0,1","1,0.5,0,1,0.5,0,0.5,0,1","1","",""
"","html-keyboard-response","133","95063","0.0-133.0","34BBWHLWHBXFTCZCVCM92RYBQU3WIS","A1AIMKA54UBYIQ","382GHPVPHSDM8N0F9141EAH7F0K34Z","","null","<img src=""img/food3.png"" style=""width:200px; border:14px solid green;"">","null","","","","","","","","","",""
"","image-keyboard-response","134","95591","0.0-134.0","34BBWHLWHBXFTCZCVCM92RYBQU3WIS","A1AIMKA54UBYIQ","382GHPVPHSDM8N0F9141EAH7F0K34Z","","526.7000000476837","img/food6.png","75","527.6000001430511","2","0","2","1","1,0.5,0,1,0.5,0,0.5,0,1","1,0.5,0,1,0.5,0,0.5,0,1","1","",""
"","html-keyboard-response","135","95898","0.0-135.0","34BBWHLWHBXFTCZCVCM92RYBQU3WIS","A1AIMKA54UBYIQ","382GHPVPHSDM8N0F9141EAH7F0K34Z","","null","<img src=""img/food6.png"" style=""width:200px;border:14px solid red;"">","null","","","","","","","","","",""
"","image-keyboard-response","136","96436","0.0-136.0","34BBWHLWHBXFTCZCVCM92RYBQU3WIS","A1AIMKA54UBYIQ","382GHPVPHSDM8N0F9141EAH7F0K34Z","","536.2999999523163","img/food5.png","74","537.3999998569489","1","1","1","1","1,0.5,0,1,0.5,0,0.5,0,1","1,0.5,0,1,0.5,0,0.5,0,1","1","",""
"","html-keyboard-response","137","96746","0.0-137.0","34BBWHLWHBXFTCZCVCM92RYBQU3WIS","A1AIMKA54UBYIQ","382GHPVPHSDM8N0F9141EAH7F0K34Z","","null","<img src=""img/food5.png"" style=""width:200px; border:14px solid green;"">","null","","","","","","","","","",""
"","image-keyboard-response","138","97266","0.0-138.0","34BBWHLWHBXFTCZCVCM92RYBQU3WIS","A1AIMKA54UBYIQ","382GHPVPHSDM8N0F9141EAH7F0K34Z","","519","img/food6.png","75","519.7999999523163","2","0","2","1","1,0.5,0,1,0.5,0,0.5,0,1","1,0.5,0,1,0.5,0,0.5,0,1","1","",""
"","html-keyboard-response","139","97574","0.0-139.0","34BBWHLWHBXFTCZCVCM92RYBQU3WIS","A1AIMKA54UBYIQ","382GHPVPHSDM8N0F9141EAH7F0K34Z","","null","<img src=""img/food6.png"" style=""width:200px;border:14px solid red;"">","null","","","","","","","","","",""
"","image-keyboard-response","140","98088","0.0-140.0","34BBWHLWHBXFTCZCVCM92RYBQU3WIS","A1AIMKA54UBYIQ","382GHPVPHSDM8N0F9141EAH7F0K34Z","","512.7999999523163","img/food5.png","74","513.7999999523163","1","1","1","1","1,0.5,0,1,0.5,0,0.5,0,1","1,0.5,0,1,0.5,0,0.5,0,1","1","",""
"","html-keyboard-response","141","98396","0.0-141.0","34BBWHLWHBXFTCZCVCM92RYBQU3WIS","A1AIMKA54UBYIQ","382GHPVPHSDM8N0F9141EAH7F0K34Z","","null","<img src=""img/food5.png"" style=""width:200px; border:14px solid green;"">","null","","","","","","","","","",""
"","image-keyboard-response","142","98983","0.0-142.0","34BBWHLWHBXFTCZCVCM92RYBQU3WIS","A1AIMKA54UBYIQ","382GHPVPHSDM8N0F9141EAH7F0K34Z","","585.2000000476837","img/food5.png","74","586.0999999046326","1","1","1","1","1,0.5,0,1,0.5,0,0.5,0,1","1,0.5,0,1,0.5,0,0.5,0,1","1","",""
"","html-keyboard-response","143","99293","0.0-143.0","34BBWHLWHBXFTCZCVCM92RYBQU3WIS","A1AIMKA54UBYIQ","382GHPVPHSDM8N0F9141EAH7F0K34Z","","null","<img src=""img/food5.png"" style=""width:200px; border:14px solid green;"">","null","","","","","","","","","",""
"","image-keyboard-response","144","99787","0.0-144.0","34BBWHLWHBXFTCZCVCM92RYBQU3WIS","A1AIMKA54UBYIQ","382GHPVPHSDM8N0F9141EAH7F0K34Z","","492","img/food6.png","75","493","2","1","2","1","1,0.5,0,1,0.5,0,0.5,0,1","1,0.5,0,1,0.5,0,0.5,0,1","1","",""
"","html-keyboard-response","145","100100","0.0-145.0","34BBWHLWHBXFTCZCVCM92RYBQU3WIS","A1AIMKA54UBYIQ","382GHPVPHSDM8N0F9141EAH7F0K34Z","","null","<img src=""img/food6.png"" style=""width:200px; border:14px solid green;"">","null","","","","","","","","","",""
"","image-keyboard-response","146","100626","0.0-146.0","34BBWHLWHBXFTCZCVCM92RYBQU3WIS","A1AIMKA54UBYIQ","382GHPVPHSDM8N0F9141EAH7F0K34Z","","524.5","img/food5.png","74","525.7000000476837","1","1","1","1","1,0.5,0,1,0.5,0,0.5,0,1","1,0.5,0,1,0.5,0,0.5,0,1","1","",""
"","html-keyboard-response","147","100930","0.0-147.0","34BBWHLWHBXFTCZCVCM92RYBQU3WIS","A1AIMKA54UBYIQ","382GHPVPHSDM8N0F9141EAH7F0K34Z","","null","<img src=""img/food5.png"" style=""width:200px; border:14px solid green;"">","null","","","","","","","","","",""
"","image-keyboard-response","148","101413","0.0-148.0","34BBWHLWHBXFTCZCVCM92RYBQU3WIS","A1AIMKA54UBYIQ","382GHPVPHSDM8N0F9141EAH7F0K34Z","","481.2000000476837","img/food5.png","74","482.2000000476837","1","1","1","1","1,0.5,0,1,0.5,0,0.5,0,1","1,0.5,0,1,0.5,0,0.5,0,1","1","",""
"","html-keyboard-response","149","101720","0.0-149.0","34BBWHLWHBXFTCZCVCM92RYBQU3WIS","A1AIMKA54UBYIQ","382GHPVPHSDM8N0F9141EAH7F0K34Z","","null","<img src=""img/food5.png"" style=""width:200px; border:14px solid green;"">","null","","","","","","","","","",""
"","image-keyboard-response","150","102360","0.0-150.0","34BBWHLWHBXFTCZCVCM92RYBQU3WIS","A1AIMKA54UBYIQ","382GHPVPHSDM8N0F9141EAH7F0K34Z","","639.2999999523163","img/food3.png","76","640.4000000953674","3","1","3","1","1,0.5,0,1,0.5,0,0.5,0,1","1,0.5,0,1,0.5,0,0.5,0,1","1","",""
"","html-keyboard-response","151","102670","0.0-151.0","34BBWHLWHBXFTCZCVCM92RYBQU3WIS","A1AIMKA54UBYIQ","382GHPVPHSDM8N0F9141EAH7F0K34Z","","null","<img src=""img/food3.png"" style=""width:200px; border:14px solid green;"">","null","","","","","","","","","",""
"","image-keyboard-response","152","102965","0.0-152.0","34BBWHLWHBXFTCZCVCM92RYBQU3WIS","A1AIMKA54UBYIQ","382GHPVPHSDM8N0F9141EAH7F0K34Z","","293.19999980926514","img/food3.png","76","294.2000000476837","3","1","3","1","1,0.5,0,1,0.5,0,0.5,0,1","1,0.5,0,1,0.5,0,0.5,0,1","1","",""
"","html-keyboard-response","153","103270","0.0-153.0","34BBWHLWHBXFTCZCVCM92RYBQU3WIS","A1AIMKA54UBYIQ","382GHPVPHSDM8N0F9141EAH7F0K34Z","","null","<img src=""img/food3.png"" style=""width:200px; border:14px solid green;"">","null","","","","","","","","","",""
"","image-keyboard-response","154","103589","0.0-154.0","34BBWHLWHBXFTCZCVCM92RYBQU3WIS","A1AIMKA54UBYIQ","382GHPVPHSDM8N0F9141EAH7F0K34Z","","318.2000000476837","img/food3.png","76","319.30000019073486","3","1","3","1","1,0.5,0,1,0.5,0,0.5,0,1","1,0.5,0,1,0.5,0,0.5,0,1","1","",""
"","html-keyboard-response","155","103897","0.0-155.0","34BBWHLWHBXFTCZCVCM92RYBQU3WIS","A1AIMKA54UBYIQ","382GHPVPHSDM8N0F9141EAH7F0K34Z","","null","<img src=""img/food3.png"" style=""width:200px; border:14px solid green;"">","null","","","","","","","","","",""
"","image-keyboard-response","156","104432","0.0-156.0","34BBWHLWHBXFTCZCVCM92RYBQU3WIS","A1AIMKA54UBYIQ","382GHPVPHSDM8N0F9141EAH7F0K34Z","","534.6000001430511","img/food6.png","75","535.5","2","1","2","1","1,0.5,0,1,0.5,0,0.5,0,1","1,0.5,0,1,0.5,0,0.5,0,1","1","",""
"","html-keyboard-response","157","104736","0.0-157.0","34BBWHLWHBXFTCZCVCM92RYBQU3WIS","A1AIMKA54UBYIQ","382GHPVPHSDM8N0F9141EAH7F0K34Z","","null","<img src=""img/food6.png"" style=""width:200px; border:14px solid green;"">","null","","","","","","","","","",""
"","image-keyboard-response","158","105224","0.0-158.0","34BBWHLWHBXFTCZCVCM92RYBQU3WIS","A1AIMKA54UBYIQ","382GHPVPHSDM8N0F9141EAH7F0K34Z","","486.30000019073486","img/food5.png","74","487.59999990463257","1","1","1","1","1,0.5,0,1,0.5,0,0.5,0,1","1,0.5,0,1,0.5,0,0.5,0,1","1","",""
"","html-keyboard-response","159","105528","0.0-159.0","34BBWHLWHBXFTCZCVCM92RYBQU3WIS","A1AIMKA54UBYIQ","382GHPVPHSDM8N0F9141EAH7F0K34Z","","null","<img src=""img/food5.png"" style=""width:200px; border:14px solid green;"">","null","","","","","","","","","",""
"","image-keyboard-response","160","106117","0.0-160.0","34BBWHLWHBXFTCZCVCM92RYBQU3WIS","A1AIMKA54UBYIQ","382GHPVPHSDM8N0F9141EAH7F0K34Z","","588","img/food3.png","76","589","3","1","3","1","1,0.5,0,1,0.5,0,0.5,0,1","1,0.5,0,1,0.5,0,0.5,0,1","1","",""
"","html-keyboard-response","161","106421","0.0-161.0","34BBWHLWHBXFTCZCVCM92RYBQU3WIS","A1AIMKA54UBYIQ","382GHPVPHSDM8N0F9141EAH7F0K34Z","","null","<img src=""img/food3.png"" style=""width:200px; border:14px solid green;"">","null","","","","","","","","","",""
"","image-keyboard-response","162","106804","0.0-162.0","34BBWHLWHBXFTCZCVCM92RYBQU3WIS","A1AIMKA54UBYIQ","382GHPVPHSDM8N0F9141EAH7F0K34Z","","382","img/food3.png","76","383","3","1","3","1","1,0.5,0,1,0.5,0,0.5,0,1","1,0.5,0,1,0.5,0,0.5,0,1","1","",""
"","html-keyboard-response","163","107116","0.0-163.0","34BBWHLWHBXFTCZCVCM92RYBQU3WIS","A1AIMKA54UBYIQ","382GHPVPHSDM8N0F9141EAH7F0K34Z","","null","<img src=""img/food3.png"" style=""width:200px; border:14px solid green;"">","null","","","","","","","","","",""
"","image-keyboard-response","164","107720","0.0-164.0","34BBWHLWHBXFTCZCVCM92RYBQU3WIS","A1AIMKA54UBYIQ","382GHPVPHSDM8N0F9141EAH7F0K34Z","","602.6000001430511","img/food6.png","75","603.5","2","0","2","1","1,0.5,0,1,0.5,0,0.5,0,1","1,0.5,0,1,0.5,0,0.5,0,1","1","",""
"","html-keyboard-response","165","108026","0.0-165.0","34BBWHLWHBXFTCZCVCM92RYBQU3WIS","A1AIMKA54UBYIQ","382GHPVPHSDM8N0F9141EAH7F0K34Z","","null","<img src=""img/food6.png"" style=""width:200px;border:14px solid red;"">","null","","","","","","","","","",""
"","image-keyboard-response","166","108626","0.0-166.0","34BBWHLWHBXFTCZCVCM92RYBQU3WIS","A1AIMKA54UBYIQ","382GHPVPHSDM8N0F9141EAH7F0K34Z","","599.5","img/food3.png","76","600.5999999046326","3","1","3","1","1,0.5,0,1,0.5,0,0.5,0,1","1,0.5,0,1,0.5,0,0.5,0,1","1","",""
"","html-keyboard-response","167","108940","0.0-167.0","34BBWHLWHBXFTCZCVCM92RYBQU3WIS","A1AIMKA54UBYIQ","382GHPVPHSDM8N0F9141EAH7F0K34Z","","null","<img src=""img/food3.png"" style=""width:200px; border:14px solid green;"">","null","","","","","","","","","",""
"","image-keyboard-response","168","109269","0.0-168.0","34BBWHLWHBXFTCZCVCM92RYBQU3WIS","A1AIMKA54UBYIQ","382GHPVPHSDM8N0F9141EAH7F0K34Z","","328.2999999523163","img/food3.png","76","329.2000000476837","3","1","3","1","1,0.5,0,1,0.5,0,0.5,0,1","1,0.5,0,1,0.5,0,0.5,0,1","1","",""
"","html-keyboard-response","169","109572","0.0-169.0","34BBWHLWHBXFTCZCVCM92RYBQU3WIS","A1AIMKA54UBYIQ","382GHPVPHSDM8N0F9141EAH7F0K34Z","","null","<img src=""img/food3.png"" style=""width:200px; border:14px solid green;"">","null","","","","","","","","","",""
"","image-keyboard-response","170","109988","0.0-170.0","34BBWHLWHBXFTCZCVCM92RYBQU3WIS","A1AIMKA54UBYIQ","382GHPVPHSDM8N0F9141EAH7F0K34Z","","414.7000000476837","img/food6.png","75","415.7000000476837","2","0","2","1","1,0.5,0,1,0.5,0,0.5,0,1","1,0.5,0,1,0.5,0,0.5,0,1","1","",""
"","html-keyboard-response","171","110293","0.0-171.0","34BBWHLWHBXFTCZCVCM92RYBQU3WIS","A1AIMKA54UBYIQ","382GHPVPHSDM8N0F9141EAH7F0K34Z","","null","<img src=""img/food6.png"" style=""width:200px;border:14px solid red;"">","null","","","","","","","","","",""
"","image-keyboard-response","172","110916","0.0-172.0","34BBWHLWHBXFTCZCVCM92RYBQU3WIS","A1AIMKA54UBYIQ","382GHPVPHSDM8N0F9141EAH7F0K34Z","","622","img/food3.png","76","623.0999999046326","3","1","3","1","1,0.5,0,1,0.5,0,0.5,0,1","1,0.5,0,1,0.5,0,0.5,0,1","1","",""
"","html-keyboard-response","173","111220","0.0-173.0","34BBWHLWHBXFTCZCVCM92RYBQU3WIS","A1AIMKA54UBYIQ","382GHPVPHSDM8N0F9141EAH7F0K34Z","","null","<img src=""img/food3.png"" style=""width:200px; border:14px solid green;"">","null","","","","","","","","","",""
"","image-keyboard-response","174","111610","0.0-174.0","34BBWHLWHBXFTCZCVCM92RYBQU3WIS","A1AIMKA54UBYIQ","382GHPVPHSDM8N0F9141EAH7F0K34Z","","388.7000000476837","img/food3.png","76","389.80000019073486","3","1","3","1","1,0.5,0,1,0.5,0,0.5,0,1","1,0.5,0,1,0.5,0,0.5,0,1","1","",""
"","html-keyboard-response","175","111926","0.0-175.0","34BBWHLWHBXFTCZCVCM92RYBQU3WIS","A1AIMKA54UBYIQ","382GHPVPHSDM8N0F9141EAH7F0K34Z","","null","<img src=""img/food3.png"" style=""width:200px; border:14px solid green;"">","null","","","","","","","","","",""
"","image-keyboard-response","176","112425","0.0-176.0","34BBWHLWHBXFTCZCVCM92RYBQU3WIS","A1AIMKA54UBYIQ","382GHPVPHSDM8N0F9141EAH7F0K34Z","","497.2000000476837","img/food5.png","74","498.30000019073486","1","1","1","1","1,0.5,0,1,0.5,0,0.5,0,1","1,0.5,0,1,0.5,0,0.5,0,1","1","",""
"","html-keyboard-response","177","112729","0.0-177.0","34BBWHLWHBXFTCZCVCM92RYBQU3WIS","A1AIMKA54UBYIQ","382GHPVPHSDM8N0F9141EAH7F0K34Z","","null","<img src=""img/food5.png"" style=""width:200px; border:14px solid green;"">","null","","","","","","","","","",""
"","image-keyboard-response","178","113232","0.0-178.0","34BBWHLWHBXFTCZCVCM92RYBQU3WIS","A1AIMKA54UBYIQ","382GHPVPHSDM8N0F9141EAH7F0K34Z","","501.69999980926514","img/food3.png","76","502.7999999523163","3","1","3","1","1,0.5,0,1,0.5,0,0.5,0,1","1,0.5,0,1,0.5,0,0.5,0,1","1","",""
"","html-keyboard-response","179","113547","0.0-179.0","34BBWHLWHBXFTCZCVCM92RYBQU3WIS","A1AIMKA54UBYIQ","382GHPVPHSDM8N0F9141EAH7F0K34Z","","null","<img src=""img/food3.png"" style=""width:200px; border:14px solid green;"">","null","","","","","","","","","",""
"","image-keyboard-response","180","113874","0.0-180.0","34BBWHLWHBXFTCZCVCM92RYBQU3WIS","A1AIMKA54UBYIQ","382GHPVPHSDM8N0F9141EAH7F0K34Z","","326.5","img/food3.png","76","327.5","3","1","3","1","1,0.5,0,1,0.5,0,0.5,0,1","1,0.5,0,1,0.5,0,0.5,0,1","1","",""
"","html-keyboard-response","181","114185","0.0-181.0","34BBWHLWHBXFTCZCVCM92RYBQU3WIS","A1AIMKA54UBYIQ","382GHPVPHSDM8N0F9141EAH7F0K34Z","","null","<img src=""img/food3.png"" style=""width:200px; border:14px solid green;"">","null","","","","","","","","","",""
"","html-keyboard-response","182","116089","0.0-182.0","34BBWHLWHBXFTCZCVCM92RYBQU3WIS","A1AIMKA54UBYIQ","382GHPVPHSDM8N0F9141EAH7F0K34Z","","","","","","","","","","","","","",""
"","instructions","183","119378","0.0-183.0","34BBWHLWHBXFTCZCVCM92RYBQU3WIS","A1AIMKA54UBYIQ","382GHPVPHSDM8N0F9141EAH7F0K34Z","[{""page_index"":0,""viewing_time"":2238},{""page_index"":1,""viewing_time"":1055.4000000953674}]","3293.7999999523163","","","","","","","","","","","",""
"","image-keyboard-response","184","120336","0.0-184.0","34BBWHLWHBXFTCZCVCM92RYBQU3WIS","A1AIMKA54UBYIQ","382GHPVPHSDM8N0F9141EAH7F0K34Z","","956.2000000476837","img/food4.png","74","958.5","1","1","3","2","1,0.5,0,1,0.5,0,0.5,0,1","0,1,0.5,0,1,0.5,1,0.5,0","3","false",""
"","html-keyboard-response","185","120643","0.0-185.0","34BBWHLWHBXFTCZCVCM92RYBQU3WIS","A1AIMKA54UBYIQ","382GHPVPHSDM8N0F9141EAH7F0K34Z","","null","<img src=""img/food4.png"" style=""width:200px; border:14px solid green;"">","null","","","","","","","","","",""
"","image-keyboard-response","186","121248","0.0-187.0","34BBWHLWHBXFTCZCVCM92RYBQU3WIS","A1AIMKA54UBYIQ","382GHPVPHSDM8N0F9141EAH7F0K34Z","","602.3999998569489","img/food1.png","75","604","2","1","2","2","1,0.5,0,1,0.5,0,0.5,0,1","0,1,0.5,0,1,0.5,1,0.5,0","3","false",""
"","html-keyboard-response","187","121553","0.0-188.0","34BBWHLWHBXFTCZCVCM92RYBQU3WIS","A1AIMKA54UBYIQ","382GHPVPHSDM8N0F9141EAH7F0K34Z","","null","<img src=""img/food1.png"" style=""width:200px; border:14px solid green;"">","null","","","","","","","","","",""
"","image-keyboard-response","188","121952","0.0-190.0","34BBWHLWHBXFTCZCVCM92RYBQU3WIS","A1AIMKA54UBYIQ","382GHPVPHSDM8N0F9141EAH7F0K34Z","","398.09999990463257","img/food1.png","75","399.40000009536743","2","1","2","2","1,0.5,0,1,0.5,0,0.5,0,1","0,1,0.5,0,1,0.5,1,0.5,0","3","false",""
"","html-keyboard-response","189","122270","0.0-191.0","34BBWHLWHBXFTCZCVCM92RYBQU3WIS","A1AIMKA54UBYIQ","382GHPVPHSDM8N0F9141EAH7F0K34Z","","null","<img src=""img/food1.png"" style=""width:200px; border:14px solid green;"">","null","","","","","","","","","",""
"","image-keyboard-response","190","122734","0.0-193.0","34BBWHLWHBXFTCZCVCM92RYBQU3WIS","A1AIMKA54UBYIQ","382GHPVPHSDM8N0F9141EAH7F0K34Z","","462.2000000476837","img/food4.png","74","463.5","1","1","3","2","1,0.5,0,1,0.5,0,0.5,0,1","0,1,0.5,0,1,0.5,1,0.5,0","3","false",""
"","html-keyboard-response","191","123039","0.0-194.0","34BBWHLWHBXFTCZCVCM92RYBQU3WIS","A1AIMKA54UBYIQ","382GHPVPHSDM8N0F9141EAH7F0K34Z","","null","<img src=""img/food4.png"" style=""width:200px; border:14px solid green;"">","null","","","","","","","","","",""
"","image-keyboard-response","192","123341","0.0-196.0","34BBWHLWHBXFTCZCVCM92RYBQU3WIS","A1AIMKA54UBYIQ","382GHPVPHSDM8N0F9141EAH7F0K34Z","","300.5","img/food4.png","74","301.69999980926514","1","1","3","2","1,0.5,0,1,0.5,0,0.5,0,1","0,1,0.5,0,1,0.5,1,0.5,0","3","false",""
"","html-keyboard-response","193","123644","0.0-197.0","34BBWHLWHBXFTCZCVCM92RYBQU3WIS","A1AIMKA54UBYIQ","382GHPVPHSDM8N0F9141EAH7F0K34Z","","null","<img src=""img/food4.png"" style=""width:200px; border:14px solid green;"">","null","","","","","","","","","",""
"","image-keyboard-response","194","124040","0.0-199.0","34BBWHLWHBXFTCZCVCM92RYBQU3WIS","A1AIMKA54UBYIQ","382GHPVPHSDM8N0F9141EAH7F0K34Z","","394.2000000476837","img/food1.png","75","395.2999999523163","2","1","2","2","1,0.5,0,1,0.5,0,0.5,0,1","0,1,0.5,0,1,0.5,1,0.5,0","3","false",""
"","html-keyboard-response","195","124344","0.0-200.0","34BBWHLWHBXFTCZCVCM92RYBQU3WIS","A1AIMKA54UBYIQ","382GHPVPHSDM8N0F9141EAH7F0K34Z","","null","<img src=""img/food1.png"" style=""width:200px; border:14px solid green;"">","null","","","","","","","","","",""
"","image-keyboard-response","196","124856","0.0-202.0","34BBWHLWHBXFTCZCVCM92RYBQU3WIS","A1AIMKA54UBYIQ","382GHPVPHSDM8N0F9141EAH7F0K34Z","","509.80000019073486","img/food4.png","74","511.09999990463257","1","1","3","2","1,0.5,0,1,0.5,0,0.5,0,1","0,1,0.5,0,1,0.5,1,0.5,0","3","false",""
"","html-keyboard-response","197","125166","0.0-203.0","34BBWHLWHBXFTCZCVCM92RYBQU3WIS","A1AIMKA54UBYIQ","382GHPVPHSDM8N0F9141EAH7F0K34Z","","null","<img src=""img/food4.png"" style=""width:200px; border:14px solid green;"">","null","","","","","","","","","",""
"","image-keyboard-response","198","125760","0.0-205.0","34BBWHLWHBXFTCZCVCM92RYBQU3WIS","A1AIMKA54UBYIQ","382GHPVPHSDM8N0F9141EAH7F0K34Z","","592.7000000476837","img/food2.png","76","593.8000001907349","3","1","1","2","1,0.5,0,1,0.5,0,0.5,0,1","0,1,0.5,0,1,0.5,1,0.5,0","3","false",""
"","html-keyboard-response","199","126064","0.0-206.0","34BBWHLWHBXFTCZCVCM92RYBQU3WIS","A1AIMKA54UBYIQ","382GHPVPHSDM8N0F9141EAH7F0K34Z","","null","<img src=""img/food2.png"" style=""width:200px; border:14px solid green;"">","null","","","","","","","","","",""
"","image-keyboard-response","200","126500","0.0-208.0","34BBWHLWHBXFTCZCVCM92RYBQU3WIS","A1AIMKA54UBYIQ","382GHPVPHSDM8N0F9141EAH7F0K34Z","","434.30000019073486","img/food2.png","76","435.30000019073486","3","0","1","2","1,0.5,0,1,0.5,0,0.5,0,1","0,1,0.5,0,1,0.5,1,0.5,0","3","false",""
"","html-keyboard-response","201","126817","0.0-209.0","34BBWHLWHBXFTCZCVCM92RYBQU3WIS","A1AIMKA54UBYIQ","382GHPVPHSDM8N0F9141EAH7F0K34Z","","null","<img src=""img/food2.png"" style=""width:200px;border:14px solid red;"">","null","","","","","","","","","",""
"","image-keyboard-response","202","127178","0.0-211.0","34BBWHLWHBXFTCZCVCM92RYBQU3WIS","A1AIMKA54UBYIQ","382GHPVPHSDM8N0F9141EAH7F0K34Z","","359.30000019073486","img/food2.png","76","360.60000014305115","3","1","1","2","1,0.5,0,1,0.5,0,0.5,0,1","0,1,0.5,0,1,0.5,1,0.5,0","3","false",""
"","html-keyboard-response","203","127488","0.0-212.0","34BBWHLWHBXFTCZCVCM92RYBQU3WIS","A1AIMKA54UBYIQ","382GHPVPHSDM8N0F9141EAH7F0K34Z","","null","<img src=""img/food2.png"" style=""width:200px; border:14px solid green;"">","null","","","","","","","","","",""
"","image-keyboard-response","204","127937","0.0-214.0","34BBWHLWHBXFTCZCVCM92RYBQU3WIS","A1AIMKA54UBYIQ","382GHPVPHSDM8N0F9141EAH7F0K34Z","","447.89999985694885","img/food4.png","74","449.30000019073486","1","1","3","2","1,0.5,0,1,0.5,0,0.5,0,1","0,1,0.5,0,1,0.5,1,0.5,0","3","false",""
"","html-keyboard-response","205","128245","0.0-215.0","34BBWHLWHBXFTCZCVCM92RYBQU3WIS","A1AIMKA54UBYIQ","382GHPVPHSDM8N0F9141EAH7F0K34Z","","null","<img src=""img/food4.png"" style=""width:200px; border:14px solid green;"">","null","","","","","","","","","",""
"","image-keyboard-response","206","128854","0.0-217.0","34BBWHLWHBXFTCZCVCM92RYBQU3WIS","A1AIMKA54UBYIQ","382GHPVPHSDM8N0F9141EAH7F0K34Z","","607.4000000953674","img/food2.png","76","608.7000000476837","3","0","1","2","1,0.5,0,1,0.5,0,0.5,0,1","0,1,0.5,0,1,0.5,1,0.5,0","3","false",""
"","html-keyboard-response","207","129163","0.0-218.0","34BBWHLWHBXFTCZCVCM92RYBQU3WIS","A1AIMKA54UBYIQ","382GHPVPHSDM8N0F9141EAH7F0K34Z","","null","<img src=""img/food2.png"" style=""width:200px;border:14px solid red;"">","null","","","","","","","","","",""
"","image-keyboard-response","208","129807","0.0-220.0","34BBWHLWHBXFTCZCVCM92RYBQU3WIS","A1AIMKA54UBYIQ","382GHPVPHSDM8N0F9141EAH7F0K34Z","","641.5","img/food4.png","74","642.7000000476837","1","1","3","2","1,0.5,0,1,0.5,0,0.5,0,1","0,1,0.5,0,1,0.5,1,0.5,0","3","false",""
"","html-keyboard-response","209","130111","0.0-221.0","34BBWHLWHBXFTCZCVCM92RYBQU3WIS","A1AIMKA54UBYIQ","382GHPVPHSDM8N0F9141EAH7F0K34Z","","null","<img src=""img/food4.png"" style=""width:200px; border:14px solid green;"">","null","","","","","","","","","",""
"","image-keyboard-response","210","130610","0.0-223.0","34BBWHLWHBXFTCZCVCM92RYBQU3WIS","A1AIMKA54UBYIQ","382GHPVPHSDM8N0F9141EAH7F0K34Z","","498.2000000476837","img/food1.png","75","499.2000000476837","2","1","2","2","1,0.5,0,1,0.5,0,0.5,0,1","0,1,0.5,0,1,0.5,1,0.5,0","3","false",""
"","html-keyboard-response","211","130924","0.0-224.0","34BBWHLWHBXFTCZCVCM92RYBQU3WIS","A1AIMKA54UBYIQ","382GHPVPHSDM8N0F9141EAH7F0K34Z","","null","<img src=""img/food1.png"" style=""width:200px; border:14px solid green;"">","null","","","","","","","","","",""
"","image-keyboard-response","212","131475","0.0-226.0","34BBWHLWHBXFTCZCVCM92RYBQU3WIS","A1AIMKA54UBYIQ","382GHPVPHSDM8N0F9141EAH7F0K34Z","","549.1000001430511","img/food2.png","76","550.4000000953674","3","0","1","2","1,0.5,0,1,0.5,0,0.5,0,1","0,1,0.5,0,1,0.5,1,0.5,0","3","false",""
"","html-keyboard-response","213","131781","0.0-227.0","34BBWHLWHBXFTCZCVCM92RYBQU3WIS","A1AIMKA54UBYIQ","382GHPVPHSDM8N0F9141EAH7F0K34Z","","null","<img src=""img/food2.png"" style=""width:200px;border:14px solid red;"">","null","","","","","","","","","",""
"","image-keyboard-response","214","132265","0.0-229.0","34BBWHLWHBXFTCZCVCM92RYBQU3WIS","A1AIMKA54UBYIQ","382GHPVPHSDM8N0F9141EAH7F0K34Z","","482.30000019073486","img/food4.png","74","483.59999990463257","1","1","3","2","1,0.5,0,1,0.5,0,0.5,0,1","0,1,0.5,0,1,0.5,1,0.5,0","3","false",""
"","html-keyboard-response","215","132570","0.0-230.0","34BBWHLWHBXFTCZCVCM92RYBQU3WIS","A1AIMKA54UBYIQ","382GHPVPHSDM8N0F9141EAH7F0K34Z","","null","<img src=""img/food4.png"" style=""width:200px; border:14px solid green;"">","null","","","","","","","","","",""
"","image-keyboard-response","216","132949","0.0-232.0","34BBWHLWHBXFTCZCVCM92RYBQU3WIS","A1AIMKA54UBYIQ","382GHPVPHSDM8N0F9141EAH7F0K34Z","","376.89999985694885","img/food1.png","75","379.40000009536743","2","1","2","2","1,0.5,0,1,0.5,0,0.5,0,1","0,1,0.5,0,1,0.5,1,0.5,0","3","false",""
"","html-keyboard-response","217","133261","0.0-233.0","34BBWHLWHBXFTCZCVCM92RYBQU3WIS","A1AIMKA54UBYIQ","382GHPVPHSDM8N0F9141EAH7F0K34Z","","null","<img src=""img/food1.png"" style=""width:200px; border:14px solid green;"">","null","","","","","","","","","",""
"","image-keyboard-response","218","133636","0.0-235.0","34BBWHLWHBXFTCZCVCM92RYBQU3WIS","A1AIMKA54UBYIQ","382GHPVPHSDM8N0F9141EAH7F0K34Z","","372.7999999523163","img/food2.png","76","374.2000000476837","3","1","1","2","1,0.5,0,1,0.5,0,0.5,0,1","0,1,0.5,0,1,0.5,1,0.5,0","3","false",""
"","html-keyboard-response","219","133947","0.0-236.0","34BBWHLWHBXFTCZCVCM92RYBQU3WIS","A1AIMKA54UBYIQ","382GHPVPHSDM8N0F9141EAH7F0K34Z","","null","<img src=""img/food2.png"" style=""width:200px; border:14px solid green;"">","null","","","","","","","","","",""
"","image-keyboard-response","220","134381","0.0-238.0","34BBWHLWHBXFTCZCVCM92RYBQU3WIS","A1AIMKA54UBYIQ","382GHPVPHSDM8N0F9141EAH7F0K34Z","","432.5","img/food1.png","74","433.5","1","0","2","2","1,0.5,0,1,0.5,0,0.5,0,1","0,1,0.5,0,1,0.5,1,0.5,0","3","false",""
"","html-keyboard-response","221","134691","0.0-239.0","34BBWHLWHBXFTCZCVCM92RYBQU3WIS","A1AIMKA54UBYIQ","382GHPVPHSDM8N0F9141EAH7F0K34Z","","null","<img src=""img/food1.png"" style=""width:200px;border:14px solid red;"">","null","","","","","","","","","",""
"","image-keyboard-response","222","135317","0.0-241.0","34BBWHLWHBXFTCZCVCM92RYBQU3WIS","A1AIMKA54UBYIQ","382GHPVPHSDM8N0F9141EAH7F0K34Z","","624.5","img/food4.png","74","625.6000001430511","1","1","3","2","1,0.5,0,1,0.5,0,0.5,0,1","0,1,0.5,0,1,0.5,1,0.5,0","3","false",""
"","html-keyboard-response","223","135624","0.0-242.0","34BBWHLWHBXFTCZCVCM92RYBQU3WIS","A1AIMKA54UBYIQ","382GHPVPHSDM8N0F9141EAH7F0K34Z","","null","<img src=""img/food4.png"" style=""width:200px; border:14px solid green;"">","null","","","","","","","","","",""
"","image-keyboard-response","224","136019","0.0-244.0","34BBWHLWHBXFTCZCVCM92RYBQU3WIS","A1AIMKA54UBYIQ","382GHPVPHSDM8N0F9141EAH7F0K34Z","","393.2000000476837","img/food4.png","74","394.2999999523163","1","1","3","2","1,0.5,0,1,0.5,0,0.5,0,1","0,1,0.5,0,1,0.5,1,0.5,0","3","false",""
"","html-keyboard-response","225","136327","0.0-245.0","34BBWHLWHBXFTCZCVCM92RYBQU3WIS","A1AIMKA54UBYIQ","382GHPVPHSDM8N0F9141EAH7F0K34Z","","null","<img src=""img/food4.png"" style=""width:200px; border:14px solid green;"">","null","","","","","","","","","",""
"","image-keyboard-response","226","136731","0.0-247.0","34BBWHLWHBXFTCZCVCM92RYBQU3WIS","A1AIMKA54UBYIQ","382GHPVPHSDM8N0F9141EAH7F0K34Z","","402.60000014305115","img/food4.png","74","403.5","1","1","3","2","1,0.5,0,1,0.5,0,0.5,0,1","0,1,0.5,0,1,0.5,1,0.5,0","3","false",""
"","html-keyboard-response","227","137041","0.0-248.0","34BBWHLWHBXFTCZCVCM92RYBQU3WIS","A1AIMKA54UBYIQ","382GHPVPHSDM8N0F9141EAH7F0K34Z","","null","<img src=""img/food4.png"" style=""width:200px; border:14px solid green;"">","null","","","","","","","","","",""
"","image-keyboard-response","228","137426","0.0-250.0","34BBWHLWHBXFTCZCVCM92RYBQU3WIS","A1AIMKA54UBYIQ","382GHPVPHSDM8N0F9141EAH7F0K34Z","","383.90000009536743","img/food4.png","74","384.90000009536743","1","1","3","2","1,0.5,0,1,0.5,0,0.5,0,1","0,1,0.5,0,1,0.5,1,0.5,0","3","false",""
"","html-keyboard-response","229","137737","0.0-251.0","34BBWHLWHBXFTCZCVCM92RYBQU3WIS","A1AIMKA54UBYIQ","382GHPVPHSDM8N0F9141EAH7F0K34Z","","null","<img src=""img/food4.png"" style=""width:200px; border:14px solid green;"">","null","","","","","","","","","",""
"","image-keyboard-response","230","138184","0.0-253.0","34BBWHLWHBXFTCZCVCM92RYBQU3WIS","A1AIMKA54UBYIQ","382GHPVPHSDM8N0F9141EAH7F0K34Z","","445.59999990463257","img/food1.png","75","446.7999999523163","2","1","2","2","1,0.5,0,1,0.5,0,0.5,0,1","0,1,0.5,0,1,0.5,1,0.5,0","3","false",""
"","html-keyboard-response","231","138500","0.0-254.0","34BBWHLWHBXFTCZCVCM92RYBQU3WIS","A1AIMKA54UBYIQ","382GHPVPHSDM8N0F9141EAH7F0K34Z","","null","<img src=""img/food1.png"" style=""width:200px; border:14px solid green;"">","null","","","","","","","","","",""
"","image-keyboard-response","232","138865","0.0-256.0","34BBWHLWHBXFTCZCVCM92RYBQU3WIS","A1AIMKA54UBYIQ","382GHPVPHSDM8N0F9141EAH7F0K34Z","","363.10000014305115","img/food1.png","75","364.30000019073486","2","1","2","2","1,0.5,0,1,0.5,0,0.5,0,1","0,1,0.5,0,1,0.5,1,0.5,0","3","false",""
"","html-keyboard-response","233","139174","0.0-257.0","34BBWHLWHBXFTCZCVCM92RYBQU3WIS","A1AIMKA54UBYIQ","382GHPVPHSDM8N0F9141EAH7F0K34Z","","null","<img src=""img/food1.png"" style=""width:200px; border:14px solid green;"">","null","","","","","","","","","",""
"","image-keyboard-response","234","139671","0.0-259.0","34BBWHLWHBXFTCZCVCM92RYBQU3WIS","A1AIMKA54UBYIQ","382GHPVPHSDM8N0F9141EAH7F0K34Z","","494.89999985694885","img/food4.png","74","495.7999999523163","1","1","3","2","1,0.5,0,1,0.5,0,0.5,0,1","0,1,0.5,0,1,0.5,1,0.5,0","3","false",""
"","html-keyboard-response","235","139982","0.0-260.0","34BBWHLWHBXFTCZCVCM92RYBQU3WIS","A1AIMKA54UBYIQ","382GHPVPHSDM8N0F9141EAH7F0K34Z","","null","<img src=""img/food4.png"" style=""width:200px; border:14px solid green;"">","null","","","","","","","","","",""
"","image-keyboard-response","236","140445","0.0-262.0","34BBWHLWHBXFTCZCVCM92RYBQU3WIS","A1AIMKA54UBYIQ","382GHPVPHSDM8N0F9141EAH7F0K34Z","","462.2000000476837","img/food1.png","75","463.2999999523163","2","1","2","2","1,0.5,0,1,0.5,0,0.5,0,1","0,1,0.5,0,1,0.5,1,0.5,0","3","false",""
"","html-keyboard-response","237","140763","0.0-263.0","34BBWHLWHBXFTCZCVCM92RYBQU3WIS","A1AIMKA54UBYIQ","382GHPVPHSDM8N0F9141EAH7F0K34Z","","null","<img src=""img/food1.png"" style=""width:200px; border:14px solid green;"">","null","","","","","","","","","",""
"","image-keyboard-response","238","141288","0.0-265.0","34BBWHLWHBXFTCZCVCM92RYBQU3WIS","A1AIMKA54UBYIQ","382GHPVPHSDM8N0F9141EAH7F0K34Z","","523.3000001907349","img/food2.png","76","524.2000000476837","3","1","1","2","1,0.5,0,1,0.5,0,0.5,0,1","0,1,0.5,0,1,0.5,1,0.5,0","3","false",""
"","html-keyboard-response","239","141594","0.0-266.0","34BBWHLWHBXFTCZCVCM92RYBQU3WIS","A1AIMKA54UBYIQ","382GHPVPHSDM8N0F9141EAH7F0K34Z","","null","<img src=""img/food2.png"" style=""width:200px; border:14px solid green;"">","null","","","","","","","","","",""
"","image-keyboard-response","240","141930","0.0-268.0","34BBWHLWHBXFTCZCVCM92RYBQU3WIS","A1AIMKA54UBYIQ","382GHPVPHSDM8N0F9141EAH7F0K34Z","","334.90000009536743","img/food2.png","76","336.09999990463257","3","0","1","2","1,0.5,0,1,0.5,0,0.5,0,1","0,1,0.5,0,1,0.5,1,0.5,0","3","false",""
"","html-keyboard-response","241","142240","0.0-269.0","34BBWHLWHBXFTCZCVCM92RYBQU3WIS","A1AIMKA54UBYIQ","382GHPVPHSDM8N0F9141EAH7F0K34Z","","null","<img src=""img/food2.png"" style=""width:200px;border:14px solid red;"">","null","","","","","","","","","",""
"","image-keyboard-response","242","142607","0.0-271.0","34BBWHLWHBXFTCZCVCM92RYBQU3WIS","A1AIMKA54UBYIQ","382GHPVPHSDM8N0F9141EAH7F0K34Z","","364.7000000476837","img/food2.png","76","366","3","1","1","2","1,0.5,0,1,0.5,0,0.5,0,1","0,1,0.5,0,1,0.5,1,0.5,0","3","false",""
"","html-keyboard-response","243","142912","0.0-272.0","34BBWHLWHBXFTCZCVCM92RYBQU3WIS","A1AIMKA54UBYIQ","382GHPVPHSDM8N0F9141EAH7F0K34Z","","null","<img src=""img/food2.png"" style=""width:200px; border:14px solid green;"">","null","","","","","","","","","",""
"","image-keyboard-response","244","143217","0.0-274.0","34BBWHLWHBXFTCZCVCM92RYBQU3WIS","A1AIMKA54UBYIQ","382GHPVPHSDM8N0F9141EAH7F0K34Z","","302.69999980926514","img/food2.png","76","304.2999999523163","3","0","1","2","1,0.5,0,1,0.5,0,0.5,0,1","0,1,0.5,0,1,0.5,1,0.5,0","3","false",""
"","html-keyboard-response","245","143525","0.0-275.0","34BBWHLWHBXFTCZCVCM92RYBQU3WIS","A1AIMKA54UBYIQ","382GHPVPHSDM8N0F9141EAH7F0K34Z","","null","<img src=""img/food2.png"" style=""width:200px;border:14px solid red;"">","null","","","","","","","","","",""
"","image-keyboard-response","246","144097","0.0-277.0","34BBWHLWHBXFTCZCVCM92RYBQU3WIS","A1AIMKA54UBYIQ","382GHPVPHSDM8N0F9141EAH7F0K34Z","","571.3999998569489","img/food1.png","74","572.4000000953674","1","0","2","2","1,0.5,0,1,0.5,0,0.5,0,1","0,1,0.5,0,1,0.5,1,0.5,0","3","false",""
"","html-keyboard-response","247","144401","0.0-278.0","34BBWHLWHBXFTCZCVCM92RYBQU3WIS","A1AIMKA54UBYIQ","382GHPVPHSDM8N0F9141EAH7F0K34Z","","null","<img src=""img/food1.png"" style=""width:200px;border:14px solid red;"">","null","","","","","","","","","",""
"","image-keyboard-response","248","145031","0.0-280.0","34BBWHLWHBXFTCZCVCM92RYBQU3WIS","A1AIMKA54UBYIQ","382GHPVPHSDM8N0F9141EAH7F0K34Z","","628.5","img/food1.png","75","629.7999999523163","2","1","2","2","1,0.5,0,1,0.5,0,0.5,0,1","0,1,0.5,0,1,0.5,1,0.5,0","3","false",""
"","html-keyboard-response","249","145337","0.0-281.0","34BBWHLWHBXFTCZCVCM92RYBQU3WIS","A1AIMKA54UBYIQ","382GHPVPHSDM8N0F9141EAH7F0K34Z","","null","<img src=""img/food1.png"" style=""width:200px; border:14px solid green;"">","null","","","","","","","","","",""
"","image-keyboard-response","250","145764","0.0-283.0","34BBWHLWHBXFTCZCVCM92RYBQU3WIS","A1AIMKA54UBYIQ","382GHPVPHSDM8N0F9141EAH7F0K34Z","","425.7999999523163","img/food4.png","74","426.89999985694885","1","1","3","2","1,0.5,0,1,0.5,0,0.5,0,1","0,1,0.5,0,1,0.5,1,0.5,0","3","false",""
"","html-keyboard-response","251","146068","0.0-284.0","34BBWHLWHBXFTCZCVCM92RYBQU3WIS","A1AIMKA54UBYIQ","382GHPVPHSDM8N0F9141EAH7F0K34Z","","null","<img src=""img/food4.png"" style=""width:200px; border:14px solid green;"">","null","","","","","","","","","",""
"","image-keyboard-response","252","146520","0.0-286.0","34BBWHLWHBXFTCZCVCM92RYBQU3WIS","A1AIMKA54UBYIQ","382GHPVPHSDM8N0F9141EAH7F0K34Z","","450.2000000476837","img/food4.png","74","451.2999999523163","1","1","3","2","1,0.5,0,1,0.5,0,0.5,0,1","0,1,0.5,0,1,0.5,1,0.5,0","3","false",""
"","html-keyboard-response","253","146831","0.0-287.0","34BBWHLWHBXFTCZCVCM92RYBQU3WIS","A1AIMKA54UBYIQ","382GHPVPHSDM8N0F9141EAH7F0K34Z","","null","<img src=""img/food4.png"" style=""width:200px; border:14px solid green;"">","null","","","","","","","","","",""
"","image-keyboard-response","254","147225","0.0-289.0","34BBWHLWHBXFTCZCVCM92RYBQU3WIS","A1AIMKA54UBYIQ","382GHPVPHSDM8N0F9141EAH7F0K34Z","","392.5","img/food1.png","75","393.69999980926514","2","1","2","2","1,0.5,0,1,0.5,0,0.5,0,1","0,1,0.5,0,1,0.5,1,0.5,0","3","false",""
"","html-keyboard-response","255","147531","0.0-290.0","34BBWHLWHBXFTCZCVCM92RYBQU3WIS","A1AIMKA54UBYIQ","382GHPVPHSDM8N0F9141EAH7F0K34Z","","null","<img src=""img/food1.png"" style=""width:200px; border:14px solid green;"">","null","","","","","","","","","",""
"","image-keyboard-response","256","148047","0.0-292.0","34BBWHLWHBXFTCZCVCM92RYBQU3WIS","A1AIMKA54UBYIQ","382GHPVPHSDM8N0F9141EAH7F0K34Z","","514","img/food4.png","74","515.7000000476837","1","1","3","2","1,0.5,0,1,0.5,0,0.5,0,1","0,1,0.5,0,1,0.5,1,0.5,0","3","false",""
"","html-keyboard-response","257","148356","0.0-293.0","34BBWHLWHBXFTCZCVCM92RYBQU3WIS","A1AIMKA54UBYIQ","382GHPVPHSDM8N0F9141EAH7F0K34Z","","null","<img src=""img/food4.png"" style=""width:200px; border:14px solid green;"">","null","","","","","","","","","",""
"","image-keyboard-response","258","148762","0.0-295.0","34BBWHLWHBXFTCZCVCM92RYBQU3WIS","A1AIMKA54UBYIQ","382GHPVPHSDM8N0F9141EAH7F0K34Z","","405.2999999523163","img/food1.png","75","406.5","2","1","2","2","1,0.5,0,1,0.5,0,0.5,0,1","0,1,0.5,0,1,0.5,1,0.5,0","3","false",""
"","html-keyboard-response","259","149072","0.0-296.0","34BBWHLWHBXFTCZCVCM92RYBQU3WIS","A1AIMKA54UBYIQ","382GHPVPHSDM8N0F9141EAH7F0K34Z","","null","<img src=""img/food1.png"" style=""width:200px; border:14px solid green;"">","null","","","","","","","","","",""
"","image-keyboard-response","260","149629","0.0-298.0","34BBWHLWHBXFTCZCVCM92RYBQU3WIS","A1AIMKA54UBYIQ","382GHPVPHSDM8N0F9141EAH7F0K34Z","","555.1000001430511","img/food2.png","76","556.4000000953674","3","1","1","2","1,0.5,0,1,0.5,0,0.5,0,1","0,1,0.5,0,1,0.5,1,0.5,0","3","false",""
"","html-keyboard-response","261","149931","0.0-299.0","34BBWHLWHBXFTCZCVCM92RYBQU3WIS","A1AIMKA54UBYIQ","382GHPVPHSDM8N0F9141EAH7F0K34Z","","null","<img src=""img/food2.png"" style=""width:200px; border:14px solid green;"">","null","","","","","","","","","",""
"","image-keyboard-response","262","150643","0.0-301.0","34BBWHLWHBXFTCZCVCM92RYBQU3WIS","A1AIMKA54UBYIQ","382GHPVPHSDM8N0F9141EAH7F0K34Z","","710.2999999523163","img/food1.png","75","711.2999999523163","2","1","2","2","1,0.5,0,1,0.5,0,0.5,0,1","0,1,0.5,0,1,0.5,1,0.5,0","3","false",""
"","html-keyboard-response","263","150947","0.0-302.0","34BBWHLWHBXFTCZCVCM92RYBQU3WIS","A1AIMKA54UBYIQ","382GHPVPHSDM8N0F9141EAH7F0K34Z","","null","<img src=""img/food1.png"" style=""width:200px; border:14px solid green;"">","null","","","","","","","","","",""
"","image-keyboard-response","264","151516","0.0-304.0","34BBWHLWHBXFTCZCVCM92RYBQU3WIS","A1AIMKA54UBYIQ","382GHPVPHSDM8N0F9141EAH7F0K34Z","","567.7000000476837","img/food2.png","76","568.5999999046326","3","0","1","2","1,0.5,0,1,0.5,0,0.5,0,1","0,1,0.5,0,1,0.5,1,0.5,0","3","false",""
"","html-keyboard-response","265","151820","0.0-305.0","34BBWHLWHBXFTCZCVCM92RYBQU3WIS","A1AIMKA54UBYIQ","382GHPVPHSDM8N0F9141EAH7F0K34Z","","null","<img src=""img/food2.png"" style=""width:200px;border:14px solid red;"">","null","","","","","","","","","",""
"","image-keyboard-response","266","152300","0.0-307.0","34BBWHLWHBXFTCZCVCM92RYBQU3WIS","A1AIMKA54UBYIQ","382GHPVPHSDM8N0F9141EAH7F0K34Z","","478.59999990463257","img/food1.png","75","479.7000000476837","2","1","2","2","1,0.5,0,1,0.5,0,0.5,0,1","0,1,0.5,0,1,0.5,1,0.5,0","3","false",""
"","html-keyboard-response","267","152612","0.0-308.0","34BBWHLWHBXFTCZCVCM92RYBQU3WIS","A1AIMKA54UBYIQ","382GHPVPHSDM8N0F9141EAH7F0K34Z","","null","<img src=""img/food1.png"" style=""width:200px; border:14px solid green;"">","null","","","","","","","","","",""
"","image-keyboard-response","268","153078","0.0-310.0","34BBWHLWHBXFTCZCVCM92RYBQU3WIS","A1AIMKA54UBYIQ","382GHPVPHSDM8N0F9141EAH7F0K34Z","","464.59999990463257","img/food2.png","76","465.7999999523163","3","0","1","2","1,0.5,0,1,0.5,0,0.5,0,1","0,1,0.5,0,1,0.5,1,0.5,0","3","false",""
"","html-keyboard-response","269","153388","0.0-311.0","34BBWHLWHBXFTCZCVCM92RYBQU3WIS","A1AIMKA54UBYIQ","382GHPVPHSDM8N0F9141EAH7F0K34Z","","null","<img src=""img/food2.png"" style=""width:200px;border:14px solid red;"">","null","","","","","","","","","",""
"","image-keyboard-response","270","153907","0.0-313.0","34BBWHLWHBXFTCZCVCM92RYBQU3WIS","A1AIMKA54UBYIQ","382GHPVPHSDM8N0F9141EAH7F0K34Z","","517.4000000953674","img/food2.png","76","518.5","3","0","1","2","1,0.5,0,1,0.5,0,0.5,0,1","0,1,0.5,0,1,0.5,1,0.5,0","3","false",""
"","html-keyboard-response","271","154214","0.0-314.0","34BBWHLWHBXFTCZCVCM92RYBQU3WIS","A1AIMKA54UBYIQ","382GHPVPHSDM8N0F9141EAH7F0K34Z","","null","<img src=""img/food2.png"" style=""width:200px;border:14px solid red;"">","null","","","","","","","","","",""
"","image-keyboard-response","272","154596","0.0-316.0","34BBWHLWHBXFTCZCVCM92RYBQU3WIS","A1AIMKA54UBYIQ","382GHPVPHSDM8N0F9141EAH7F0K34Z","","380.2999999523163","img/food2.png","76","381.30000019073486","3","1","1","2","1,0.5,0,1,0.5,0,0.5,0,1","0,1,0.5,0,1,0.5,1,0.5,0","3","false",""
"","html-keyboard-response","273","154911","0.0-317.0","34BBWHLWHBXFTCZCVCM92RYBQU3WIS","A1AIMKA54UBYIQ","382GHPVPHSDM8N0F9141EAH7F0K34Z","","null","<img src=""img/food2.png"" style=""width:200px; border:14px solid green;"">","null","","","","","","","","","",""
"","image-keyboard-response","274","155303","0.0-319.0","34BBWHLWHBXFTCZCVCM92RYBQU3WIS","A1AIMKA54UBYIQ","382GHPVPHSDM8N0F9141EAH7F0K34Z","","391.10000014305115","img/food2.png","76","392.19999980926514","3","1","1","2","1,0.5,0,1,0.5,0,0.5,0,1","0,1,0.5,0,1,0.5,1,0.5,0","3","false",""
"","html-keyboard-response","275","155615","0.0-320.0","34BBWHLWHBXFTCZCVCM92RYBQU3WIS","A1AIMKA54UBYIQ","382GHPVPHSDM8N0F9141EAH7F0K34Z","","null","<img src=""img/food2.png"" style=""width:200px; border:14px solid green;"">","null","","","","","","","","","",""
"","image-keyboard-response","276","156148","0.0-322.0","34BBWHLWHBXFTCZCVCM92RYBQU3WIS","A1AIMKA54UBYIQ","382GHPVPHSDM8N0F9141EAH7F0K34Z","","531.8000001907349","img/food4.png","74","533.2999999523163","1","1","3","2","1,0.5,0,1,0.5,0,0.5,0,1","0,1,0.5,0,1,0.5,1,0.5,0","3","false",""
"","html-keyboard-response","277","156456","0.0-323.0","34BBWHLWHBXFTCZCVCM92RYBQU3WIS","A1AIMKA54UBYIQ","382GHPVPHSDM8N0F9141EAH7F0K34Z","","null","<img src=""img/food4.png"" style=""width:200px; border:14px solid green;"">","null","","","","","","","","","",""
"","image-keyboard-response","278","157013","0.0-325.0","34BBWHLWHBXFTCZCVCM92RYBQU3WIS","A1AIMKA54UBYIQ","382GHPVPHSDM8N0F9141EAH7F0K34Z","","555.7999999523163","img/food2.png","76","556.6999998092651","3","0","1","2","1,0.5,0,1,0.5,0,0.5,0,1","0,1,0.5,0,1,0.5,1,0.5,0","3","false",""
"","html-keyboard-response","279","157328","0.0-326.0","34BBWHLWHBXFTCZCVCM92RYBQU3WIS","A1AIMKA54UBYIQ","382GHPVPHSDM8N0F9141EAH7F0K34Z","","null","<img src=""img/food2.png"" style=""width:200px;border:14px solid red;"">","null","","","","","","","","","",""
"","image-keyboard-response","280","157653","0.0-328.0","34BBWHLWHBXFTCZCVCM92RYBQU3WIS","A1AIMKA54UBYIQ","382GHPVPHSDM8N0F9141EAH7F0K34Z","","323.90000009536743","img/food2.png","76","324.89999985694885","3","0","1","2","1,0.5,0,1,0.5,0,0.5,0,1","0,1,0.5,0,1,0.5,1,0.5,0","3","false",""
"","html-keyboard-response","281","157961","0.0-329.0","34BBWHLWHBXFTCZCVCM92RYBQU3WIS","A1AIMKA54UBYIQ","382GHPVPHSDM8N0F9141EAH7F0K34Z","","null","<img src=""img/food2.png"" style=""width:200px;border:14px solid red;"">","null","","","","","","","","","",""
"","image-keyboard-response","282","158408","0.0-331.0","34BBWHLWHBXFTCZCVCM92RYBQU3WIS","A1AIMKA54UBYIQ","382GHPVPHSDM8N0F9141EAH7F0K34Z","","445","img/food1.png","74","446","1","0","2","2","1,0.5,0,1,0.5,0,0.5,0,1","0,1,0.5,0,1,0.5,1,0.5,0","3","false",""
"","html-keyboard-response","283","158719","0.0-332.0","34BBWHLWHBXFTCZCVCM92RYBQU3WIS","A1AIMKA54UBYIQ","382GHPVPHSDM8N0F9141EAH7F0K34Z","","null","<img src=""img/food1.png"" style=""width:200px;border:14px solid red;"">","null","","","","","","","","","",""
"","image-keyboard-response","284","159328","0.0-334.0","34BBWHLWHBXFTCZCVCM92RYBQU3WIS","A1AIMKA54UBYIQ","382GHPVPHSDM8N0F9141EAH7F0K34Z","","607.5","img/food1.png","75","608.5999999046326","2","1","2","2","1,0.5,0,1,0.5,0,0.5,0,1","0,1,0.5,0,1,0.5,1,0.5,0","3","false",""
"","html-keyboard-response","285","159637","0.0-335.0","34BBWHLWHBXFTCZCVCM92RYBQU3WIS","A1AIMKA54UBYIQ","382GHPVPHSDM8N0F9141EAH7F0K34Z","","null","<img src=""img/food1.png"" style=""width:200px; border:14px solid green;"">","null","","","","","","","","","",""
"","image-keyboard-response","286","159973","0.0-337.0","34BBWHLWHBXFTCZCVCM92RYBQU3WIS","A1AIMKA54UBYIQ","382GHPVPHSDM8N0F9141EAH7F0K34Z","","334.89999985694885","img/food1.png","75","336","2","1","2","2","1,0.5,0,1,0.5,0,0.5,0,1","0,1,0.5,0,1,0.5,1,0.5,0","3","false",""
"","html-keyboard-response","287","160278","0.0-338.0","34BBWHLWHBXFTCZCVCM92RYBQU3WIS","A1AIMKA54UBYIQ","382GHPVPHSDM8N0F9141EAH7F0K34Z","","null","<img src=""img/food1.png"" style=""width:200px; border:14px solid green;"">","null","","","","","","","","","",""
"","image-keyboard-response","288","160660","0.0-340.0","34BBWHLWHBXFTCZCVCM92RYBQU3WIS","A1AIMKA54UBYIQ","382GHPVPHSDM8N0F9141EAH7F0K34Z","","381.2000000476837","img/food4.png","74","382.2999999523163","1","1","3","2","1,0.5,0,1,0.5,0,0.5,0,1","0,1,0.5,0,1,0.5,1,0.5,0","3","false",""
"","html-keyboard-response","289","160963","0.0-341.0","34BBWHLWHBXFTCZCVCM92RYBQU3WIS","A1AIMKA54UBYIQ","382GHPVPHSDM8N0F9141EAH7F0K34Z","","null","<img src=""img/food4.png"" style=""width:200px; border:14px solid green;"">","null","","","","","","","","","",""
"","image-keyboard-response","290","161415","0.0-343.0","34BBWHLWHBXFTCZCVCM92RYBQU3WIS","A1AIMKA54UBYIQ","382GHPVPHSDM8N0F9141EAH7F0K34Z","","450.2999999523163","img/food1.png","75","451.30000019073486","2","1","2","2","1,0.5,0,1,0.5,0,0.5,0,1","0,1,0.5,0,1,0.5,1,0.5,0","3","false",""
"","html-keyboard-response","291","161731","0.0-344.0","34BBWHLWHBXFTCZCVCM92RYBQU3WIS","A1AIMKA54UBYIQ","382GHPVPHSDM8N0F9141EAH7F0K34Z","","null","<img src=""img/food1.png"" style=""width:200px; border:14px solid green;"">","null","","","","","","","","","",""
"","image-keyboard-response","292","162323","0.0-346.0","34BBWHLWHBXFTCZCVCM92RYBQU3WIS","A1AIMKA54UBYIQ","382GHPVPHSDM8N0F9141EAH7F0K34Z","","590.9000000953674","img/food4.png","74","591.9000000953674","1","1","3","2","1,0.5,0,1,0.5,0,0.5,0,1","0,1,0.5,0,1,0.5,1,0.5,0","3","false",""
"","html-keyboard-response","293","162631","0.0-347.0","34BBWHLWHBXFTCZCVCM92RYBQU3WIS","A1AIMKA54UBYIQ","382GHPVPHSDM8N0F9141EAH7F0K34Z","","null","<img src=""img/food4.png"" style=""width:200px; border:14px solid green;"">","null","","","","","","","","","",""
"","image-keyboard-response","294","163038","0.0-349.0","34BBWHLWHBXFTCZCVCM92RYBQU3WIS","A1AIMKA54UBYIQ","382GHPVPHSDM8N0F9141EAH7F0K34Z","","405.40000009536743","img/food1.png","75","406.2999999523163","2","1","2","2","1,0.5,0,1,0.5,0,0.5,0,1","0,1,0.5,0,1,0.5,1,0.5,0","3","false",""
"","html-keyboard-response","295","163349","0.0-350.0","34BBWHLWHBXFTCZCVCM92RYBQU3WIS","A1AIMKA54UBYIQ","382GHPVPHSDM8N0F9141EAH7F0K34Z","","null","<img src=""img/food1.png"" style=""width:200px; border:14px solid green;"">","null","","","","","","","","","",""
"","image-keyboard-response","296","163882","0.0-352.0","34BBWHLWHBXFTCZCVCM92RYBQU3WIS","A1AIMKA54UBYIQ","382GHPVPHSDM8N0F9141EAH7F0K34Z","","531.5999999046326","img/food2.png","76","532.7999999523163","3","0","1","2","1,0.5,0,1,0.5,0,0.5,0,1","0,1,0.5,0,1,0.5,1,0.5,0","3","false",""
"","html-keyboard-response","297","164193","0.0-353.0","34BBWHLWHBXFTCZCVCM92RYBQU3WIS","A1AIMKA54UBYIQ","382GHPVPHSDM8N0F9141EAH7F0K34Z","","null","<img src=""img/food2.png"" style=""width:200px;border:14px solid red;"">","null","","","","","","","","","",""
"","image-keyboard-response","298","164487","0.0-355.0","34BBWHLWHBXFTCZCVCM92RYBQU3WIS","A1AIMKA54UBYIQ","382GHPVPHSDM8N0F9141EAH7F0K34Z","","292.90000009536743","img/food2.png","76","293.7999999523163","3","0","1","2","1,0.5,0,1,0.5,0,0.5,0,1","0,1,0.5,0,1,0.5,1,0.5,0","3","false",""
"","html-keyboard-response","299","164801","0.0-356.0","34BBWHLWHBXFTCZCVCM92RYBQU3WIS","A1AIMKA54UBYIQ","382GHPVPHSDM8N0F9141EAH7F0K34Z","","null","<img src=""img/food2.png"" style=""width:200px;border:14px solid red;"">","null","","","","","","","","","",""
"","image-keyboard-response","300","165096","0.0-358.0","34BBWHLWHBXFTCZCVCM92RYBQU3WIS","A1AIMKA54UBYIQ","382GHPVPHSDM8N0F9141EAH7F0K34Z","","294.10000014305115","img/food2.png","76","295.2000000476837","3","0","1","2","1,0.5,0,1,0.5,0,0.5,0,1","0,1,0.5,0,1,0.5,1,0.5,0","3","false",""
"","html-keyboard-response","301","165401","0.0-359.0","34BBWHLWHBXFTCZCVCM92RYBQU3WIS","A1AIMKA54UBYIQ","382GHPVPHSDM8N0F9141EAH7F0K34Z","","null","<img src=""img/food2.png"" style=""width:200px;border:14px solid red;"">","null","","","","","","","","","",""
"","image-keyboard-response","302","166165","0.0-361.0","34BBWHLWHBXFTCZCVCM92RYBQU3WIS","A1AIMKA54UBYIQ","382GHPVPHSDM8N0F9141EAH7F0K34Z","","762.4000000953674","img/food1.png","75","763.5","2","1","2","2","1,0.5,0,1,0.5,0,0.5,0,1","0,1,0.5,0,1,0.5,1,0.5,0","3","false",""
"","html-keyboard-response","303","166478","0.0-362.0","34BBWHLWHBXFTCZCVCM92RYBQU3WIS","A1AIMKA54UBYIQ","382GHPVPHSDM8N0F9141EAH7F0K34Z","","null","<img src=""img/food1.png"" style=""width:200px; border:14px solid green;"">","null","","","","","","","","","",""
"","image-keyboard-response","304","167042","0.0-364.0","34BBWHLWHBXFTCZCVCM92RYBQU3WIS","A1AIMKA54UBYIQ","382GHPVPHSDM8N0F9141EAH7F0K34Z","","562.5999999046326","img/food2.png","76","563.7000000476837","3","0","1","2","1,0.5,0,1,0.5,0,0.5,0,1","0,1,0.5,0,1,0.5,1,0.5,0","3","false",""
"","html-keyboard-response","305","167345","0.0-365.0","34BBWHLWHBXFTCZCVCM92RYBQU3WIS","A1AIMKA54UBYIQ","382GHPVPHSDM8N0F9141EAH7F0K34Z","","null","<img src=""img/food2.png"" style=""width:200px;border:14px solid red;"">","null","","","","","","","","","",""
"","image-keyboard-response","306","167645","0.0-367.0","34BBWHLWHBXFTCZCVCM92RYBQU3WIS","A1AIMKA54UBYIQ","382GHPVPHSDM8N0F9141EAH7F0K34Z","","298.80000019073486","img/food2.png","76","300","3","1","1","2","1,0.5,0,1,0.5,0,0.5,0,1","0,1,0.5,0,1,0.5,1,0.5,0","3","false",""
"","html-keyboard-response","307","167951","0.0-368.0","34BBWHLWHBXFTCZCVCM92RYBQU3WIS","A1AIMKA54UBYIQ","382GHPVPHSDM8N0F9141EAH7F0K34Z","","null","<img src=""img/food2.png"" style=""width:200px; border:14px solid green;"">","null","","","","","","","","","",""
"","image-keyboard-response","308","168464","0.0-370.0","34BBWHLWHBXFTCZCVCM92RYBQU3WIS","A1AIMKA54UBYIQ","382GHPVPHSDM8N0F9141EAH7F0K34Z","","512.2000000476837","img/food1.png","75","513.4000000953674","2","1","2","2","1,0.5,0,1,0.5,0,0.5,0,1","0,1,0.5,0,1,0.5,1,0.5,0","3","false",""
"","html-keyboard-response","309","168779","0.0-371.0","34BBWHLWHBXFTCZCVCM92RYBQU3WIS","A1AIMKA54UBYIQ","382GHPVPHSDM8N0F9141EAH7F0K34Z","","null","<img src=""img/food1.png"" style=""width:200px; border:14px solid green;"">","null","","","","","","","","","",""
"","image-keyboard-response","310","169257","0.0-373.0","34BBWHLWHBXFTCZCVCM92RYBQU3WIS","A1AIMKA54UBYIQ","382GHPVPHSDM8N0F9141EAH7F0K34Z","","476.5","img/food4.png","74","477.5","1","1","3","2","1,0.5,0,1,0.5,0,0.5,0,1","0,1,0.5,0,1,0.5,1,0.5,0","3","false",""
"","html-keyboard-response","311","169567","0.0-374.0","34BBWHLWHBXFTCZCVCM92RYBQU3WIS","A1AIMKA54UBYIQ","382GHPVPHSDM8N0F9141EAH7F0K34Z","","null","<img src=""img/food4.png"" style=""width:200px; border:14px solid green;"">","null","","","","","","","","","",""
"","image-keyboard-response","312","170104","0.0-376.0","34BBWHLWHBXFTCZCVCM92RYBQU3WIS","A1AIMKA54UBYIQ","382GHPVPHSDM8N0F9141EAH7F0K34Z","","536.2000000476837","img/food1.png","75","537.4000000953674","2","1","2","2","1,0.5,0,1,0.5,0,0.5,0,1","0,1,0.5,0,1,0.5,1,0.5,0","3","false",""
"","html-keyboard-response","313","170408","0.0-377.0","34BBWHLWHBXFTCZCVCM92RYBQU3WIS","A1AIMKA54UBYIQ","382GHPVPHSDM8N0F9141EAH7F0K34Z","","null","<img src=""img/food1.png"" style=""width:200px; border:14px solid green;"">","null","","","","","","","","","",""
"","image-keyboard-response","314","170914","0.0-379.0","34BBWHLWHBXFTCZCVCM92RYBQU3WIS","A1AIMKA54UBYIQ","382GHPVPHSDM8N0F9141EAH7F0K34Z","","505.09999990463257","img/food2.png","76","506.09999990463257","3","1","1","2","1,0.5,0,1,0.5,0,0.5,0,1","0,1,0.5,0,1,0.5,1,0.5,0","3","false",""
"","html-keyboard-response","315","171230","0.0-380.0","34BBWHLWHBXFTCZCVCM92RYBQU3WIS","A1AIMKA54UBYIQ","382GHPVPHSDM8N0F9141EAH7F0K34Z","","null","<img src=""img/food2.png"" style=""width:200px; border:14px solid green;"">","null","","","","","","","","","",""
"","image-keyboard-response","316","171522","0.0-382.0","34BBWHLWHBXFTCZCVCM92RYBQU3WIS","A1AIMKA54UBYIQ","382GHPVPHSDM8N0F9141EAH7F0K34Z","","290.5","img/food2.png","76","291.60000014305115","3","0","1","2","1,0.5,0,1,0.5,0,0.5,0,1","0,1,0.5,0,1,0.5,1,0.5,0","3","false",""
"","html-keyboard-response","317","171831","0.0-383.0","34BBWHLWHBXFTCZCVCM92RYBQU3WIS","A1AIMKA54UBYIQ","382GHPVPHSDM8N0F9141EAH7F0K34Z","","null","<img src=""img/food2.png"" style=""width:200px;border:14px solid red;"">","null","","","","","","","","","",""
"","image-keyboard-response","318","172446","0.0-385.0","34BBWHLWHBXFTCZCVCM92RYBQU3WIS","A1AIMKA54UBYIQ","382GHPVPHSDM8N0F9141EAH7F0K34Z","","612.7999999523163","img/food4.png","74","613.9000000953674","1","1","3","2","1,0.5,0,1,0.5,0,0.5,0,1","0,1,0.5,0,1,0.5,1,0.5,0","3","false",""
"","html-keyboard-response","319","172760","0.0-386.0","34BBWHLWHBXFTCZCVCM92RYBQU3WIS","A1AIMKA54UBYIQ","382GHPVPHSDM8N0F9141EAH7F0K34Z","","null","<img src=""img/food4.png"" style=""width:200px; border:14px solid green;"">","null","","","","","","","","","",""
"","image-keyboard-response","320","173347","0.0-388.0","34BBWHLWHBXFTCZCVCM92RYBQU3WIS","A1AIMKA54UBYIQ","382GHPVPHSDM8N0F9141EAH7F0K34Z","","584.9000000953674","img/food2.png","76","585.9000000953674","3","1","1","2","1,0.5,0,1,0.5,0,0.5,0,1","0,1,0.5,0,1,0.5,1,0.5,0","3","false",""
"","html-keyboard-response","321","173651","0.0-389.0","34BBWHLWHBXFTCZCVCM92RYBQU3WIS","A1AIMKA54UBYIQ","382GHPVPHSDM8N0F9141EAH7F0K34Z","","null","<img src=""img/food2.png"" style=""width:200px; border:14px solid green;"">","null","","","","","","","","","",""
"","image-keyboard-response","322","174182","0.0-391.0","34BBWHLWHBXFTCZCVCM92RYBQU3WIS","A1AIMKA54UBYIQ","382GHPVPHSDM8N0F9141EAH7F0K34Z","","529.3000001907349","img/food4.png","74","530.7000000476837","1","1","3","2","1,0.5,0,1,0.5,0,0.5,0,1","0,1,0.5,0,1,0.5,1,0.5,0","3","false",""
"","html-keyboard-response","323","174501","0.0-392.0","34BBWHLWHBXFTCZCVCM92RYBQU3WIS","A1AIMKA54UBYIQ","382GHPVPHSDM8N0F9141EAH7F0K34Z","","null","<img src=""img/food4.png"" style=""width:200px; border:14px solid green;"">","null","","","","","","","","","",""
"","image-keyboard-response","324","175020","0.0-394.0","34BBWHLWHBXFTCZCVCM92RYBQU3WIS","A1AIMKA54UBYIQ","382GHPVPHSDM8N0F9141EAH7F0K34Z","","517.3000001907349","img/food2.png","76","518.5999999046326","3","0","1","2","1,0.5,0,1,0.5,0,0.5,0,1","0,1,0.5,0,1,0.5,1,0.5,0","3","false",""
"","html-keyboard-response","325","175329","0.0-395.0","34BBWHLWHBXFTCZCVCM92RYBQU3WIS","A1AIMKA54UBYIQ","382GHPVPHSDM8N0F9141EAH7F0K34Z","","null","<img src=""img/food2.png"" style=""width:200px;border:14px solid red;"">","null","","","","","","","","","",""
"","image-keyboard-response","326","175892","0.0-397.0","34BBWHLWHBXFTCZCVCM92RYBQU3WIS","A1AIMKA54UBYIQ","382GHPVPHSDM8N0F9141EAH7F0K34Z","","561.7000000476837","img/food4.png","74","562.8999998569489","1","1","3","2","1,0.5,0,1,0.5,0,0.5,0,1","0,1,0.5,0,1,0.5,1,0.5,0","3","false",""
"","html-keyboard-response","327","176201","0.0-398.0","34BBWHLWHBXFTCZCVCM92RYBQU3WIS","A1AIMKA54UBYIQ","382GHPVPHSDM8N0F9141EAH7F0K34Z","","null","<img src=""img/food4.png"" style=""width:200px; border:14px solid green;"">","null","","","","","","","","","",""
"","image-keyboard-response","328","176625","0.0-400.0","34BBWHLWHBXFTCZCVCM92RYBQU3WIS","A1AIMKA54UBYIQ","382GHPVPHSDM8N0F9141EAH7F0K34Z","","421.5","img/food4.png","74","422.90000009536743","1","1","3","2","1,0.5,0,1,0.5,0,0.5,0,1","0,1,0.5,0,1,0.5,1,0.5,0","3","false",""
"","html-keyboard-response","329","176941","0.0-401.0","34BBWHLWHBXFTCZCVCM92RYBQU3WIS","A1AIMKA54UBYIQ","382GHPVPHSDM8N0F9141EAH7F0K34Z","","null","<img src=""img/food4.png"" style=""width:200px; border:14px solid green;"">","null","","","","","","","","","",""
"","image-keyboard-response","330","177358","0.0-403.0","34BBWHLWHBXFTCZCVCM92RYBQU3WIS","A1AIMKA54UBYIQ","382GHPVPHSDM8N0F9141EAH7F0K34Z","","415.2999999523163","img/food1.png","75","416.5","2","1","2","2","1,0.5,0,1,0.5,0,0.5,0,1","0,1,0.5,0,1,0.5,1,0.5,0","3","false",""
"","html-keyboard-response","331","177670","0.0-404.0","34BBWHLWHBXFTCZCVCM92RYBQU3WIS","A1AIMKA54UBYIQ","382GHPVPHSDM8N0F9141EAH7F0K34Z","","null","<img src=""img/food1.png"" style=""width:200px; border:14px solid green;"">","null","","","","","","","","","",""
"","image-keyboard-response","332","178166","0.0-406.0","34BBWHLWHBXFTCZCVCM92RYBQU3WIS","A1AIMKA54UBYIQ","382GHPVPHSDM8N0F9141EAH7F0K34Z","","494.7000000476837","img/food2.png","76","495.7000000476837","3","1","1","2","1,0.5,0,1,0.5,0,0.5,0,1","0,1,0.5,0,1,0.5,1,0.5,0","3","false",""
"","html-keyboard-response","333","178475","0.0-407.0","34BBWHLWHBXFTCZCVCM92RYBQU3WIS","A1AIMKA54UBYIQ","382GHPVPHSDM8N0F9141EAH7F0K34Z","","null","<img src=""img/food2.png"" style=""width:200px; border:14px solid green;"">","null","","","","","","","","","",""
"","image-keyboard-response","334","178943","0.0-409.0","34BBWHLWHBXFTCZCVCM92RYBQU3WIS","A1AIMKA54UBYIQ","382GHPVPHSDM8N0F9141EAH7F0K34Z","","462.2000000476837","img/food4.png","74","463.2999999523163","1","1","3","2","1,0.5,0,1,0.5,0,0.5,0,1","0,1,0.5,0,1,0.5,1,0.5,0","3","false",""
"","html-keyboard-response","335","179251","0.0-410.0","34BBWHLWHBXFTCZCVCM92RYBQU3WIS","A1AIMKA54UBYIQ","382GHPVPHSDM8N0F9141EAH7F0K34Z","","null","<img src=""img/food4.png"" style=""width:200px; border:14px solid green;"">","null","","","","","","","","","",""
"","image-keyboard-response","336","179846","0.0-412.0","34BBWHLWHBXFTCZCVCM92RYBQU3WIS","A1AIMKA54UBYIQ","382GHPVPHSDM8N0F9141EAH7F0K34Z","","594.0999999046326","img/food1.png","75","595.3000001907349","2","1","2","2","1,0.5,0,1,0.5,0,0.5,0,1","0,1,0.5,0,1,0.5,1,0.5,0","3","false",""
"","html-keyboard-response","337","180157","0.0-413.0","34BBWHLWHBXFTCZCVCM92RYBQU3WIS","A1AIMKA54UBYIQ","382GHPVPHSDM8N0F9141EAH7F0K34Z","","null","<img src=""img/food1.png"" style=""width:200px; border:14px solid green;"">","null","","","","","","","","","",""
"","image-keyboard-response","338","180722","0.0-415.0","34BBWHLWHBXFTCZCVCM92RYBQU3WIS","A1AIMKA54UBYIQ","382GHPVPHSDM8N0F9141EAH7F0K34Z","","563.8999998569489","img/food4.png","74","565.1000001430511","1","1","3","2","1,0.5,0,1,0.5,0,0.5,0,1","0,1,0.5,0,1,0.5,1,0.5,0","3","false",""
"","html-keyboard-response","339","181027","0.0-416.0","34BBWHLWHBXFTCZCVCM92RYBQU3WIS","A1AIMKA54UBYIQ","382GHPVPHSDM8N0F9141EAH7F0K34Z","","null","<img src=""img/food4.png"" style=""width:200px; border:14px solid green;"">","null","","","","","","","","","",""
"","image-keyboard-response","340","181550","0.0-418.0","34BBWHLWHBXFTCZCVCM92RYBQU3WIS","A1AIMKA54UBYIQ","382GHPVPHSDM8N0F9141EAH7F0K34Z","","522.2999999523163","img/food2.png","76","523.2000000476837","3","0","1","2","1,0.5,0,1,0.5,0,0.5,0,1","0,1,0.5,0,1,0.5,1,0.5,0","3","false",""
"","html-keyboard-response","341","181858","0.0-419.0","34BBWHLWHBXFTCZCVCM92RYBQU3WIS","A1AIMKA54UBYIQ","382GHPVPHSDM8N0F9141EAH7F0K34Z","","null","<img src=""img/food2.png"" style=""width:200px;border:14px solid red;"">","null","","","","","","","","","",""
"","image-keyboard-response","342","182207","0.0-421.0","34BBWHLWHBXFTCZCVCM92RYBQU3WIS","A1AIMKA54UBYIQ","382GHPVPHSDM8N0F9141EAH7F0K34Z","","347.5","img/food2.png","76","348.59999990463257","3","0","1","2","1,0.5,0,1,0.5,0,0.5,0,1","0,1,0.5,0,1,0.5,1,0.5,0","3","false",""
"","html-keyboard-response","343","182519","0.0-422.0","34BBWHLWHBXFTCZCVCM92RYBQU3WIS","A1AIMKA54UBYIQ","382GHPVPHSDM8N0F9141EAH7F0K34Z","","null","<img src=""img/food2.png"" style=""width:200px;border:14px solid red;"">","null","","","","","","","","","",""
"","image-keyboard-response","344","183318","0.0-424.0","34BBWHLWHBXFTCZCVCM92RYBQU3WIS","A1AIMKA54UBYIQ","382GHPVPHSDM8N0F9141EAH7F0K34Z","","797.5999999046326","img/food1.png","75","798.5999999046326","2","1","2","2","1,0.5,0,1,0.5,0,0.5,0,1","0,1,0.5,0,1,0.5,1,0.5,0","3","false",""
"","html-keyboard-response","345","183636","0.0-425.0","34BBWHLWHBXFTCZCVCM92RYBQU3WIS","A1AIMKA54UBYIQ","382GHPVPHSDM8N0F9141EAH7F0K34Z","","null","<img src=""img/food1.png"" style=""width:200px; border:14px solid green;"">","null","","","","","","","","","",""
"","image-keyboard-response","346","183958","0.0-427.0","34BBWHLWHBXFTCZCVCM92RYBQU3WIS","A1AIMKA54UBYIQ","382GHPVPHSDM8N0F9141EAH7F0K34Z","","321.30000019073486","img/food1.png","75","322.40000009536743","2","1","2","2","1,0.5,0,1,0.5,0,0.5,0,1","0,1,0.5,0,1,0.5,1,0.5,0","3","false",""
"","html-keyboard-response","347","184267","0.0-428.0","34BBWHLWHBXFTCZCVCM92RYBQU3WIS","A1AIMKA54UBYIQ","382GHPVPHSDM8N0F9141EAH7F0K34Z","","null","<img src=""img/food1.png"" style=""width:200px; border:14px solid green;"">","null","","","","","","","","","",""
"","image-keyboard-response","348","184558","0.0-430.0","34BBWHLWHBXFTCZCVCM92RYBQU3WIS","A1AIMKA54UBYIQ","382GHPVPHSDM8N0F9141EAH7F0K34Z","","289.2000000476837","img/food1.png","75","290.19999980926514","2","1","2","2","1,0.5,0,1,0.5,0,0.5,0,1","0,1,0.5,0,1,0.5,1,0.5,0","3","false",""
"","html-keyboard-response","349","184866","0.0-431.0","34BBWHLWHBXFTCZCVCM92RYBQU3WIS","A1AIMKA54UBYIQ","382GHPVPHSDM8N0F9141EAH7F0K34Z","","null","<img src=""img/food1.png"" style=""width:200px; border:14px solid green;"">","null","","","","","","","","","",""
"","image-keyboard-response","350","185161","0.0-433.0","34BBWHLWHBXFTCZCVCM92RYBQU3WIS","A1AIMKA54UBYIQ","382GHPVPHSDM8N0F9141EAH7F0K34Z","","293.40000009536743","img/food1.png","75","294.39999985694885","2","1","2","2","1,0.5,0,1,0.5,0,0.5,0,1","0,1,0.5,0,1,0.5,1,0.5,0","3","false",""
"","html-keyboard-response","351","185469","0.0-434.0","34BBWHLWHBXFTCZCVCM92RYBQU3WIS","A1AIMKA54UBYIQ","382GHPVPHSDM8N0F9141EAH7F0K34Z","","null","<img src=""img/food1.png"" style=""width:200px; border:14px solid green;"">","null","","","","","","","","","",""
"","image-keyboard-response","352","186004","0.0-436.0","34BBWHLWHBXFTCZCVCM92RYBQU3WIS","A1AIMKA54UBYIQ","382GHPVPHSDM8N0F9141EAH7F0K34Z","","532.9000000953674","img/food4.png","74","534.1000001430511","1","1","3","2","1,0.5,0,1,0.5,0,0.5,0,1","0,1,0.5,0,1,0.5,1,0.5,0","3","false",""
"","html-keyboard-response","353","186312","0.0-437.0","34BBWHLWHBXFTCZCVCM92RYBQU3WIS","A1AIMKA54UBYIQ","382GHPVPHSDM8N0F9141EAH7F0K34Z","","null","<img src=""img/food4.png"" style=""width:200px; border:14px solid green;"">","null","","","","","","","","","",""
"","image-keyboard-response","354","186621","0.0-439.0","34BBWHLWHBXFTCZCVCM92RYBQU3WIS","A1AIMKA54UBYIQ","382GHPVPHSDM8N0F9141EAH7F0K34Z","","307.59999990463257","img/food4.png","74","308.5","1","1","3","2","1,0.5,0,1,0.5,0,0.5,0,1","0,1,0.5,0,1,0.5,1,0.5,0","3","false",""
"","html-keyboard-response","355","186925","0.0-440.0","34BBWHLWHBXFTCZCVCM92RYBQU3WIS","A1AIMKA54UBYIQ","382GHPVPHSDM8N0F9141EAH7F0K34Z","","null","<img src=""img/food4.png"" style=""width:200px; border:14px solid green;"">","null","","","","","","","","","",""
"","image-keyboard-response","356","187285","0.0-442.0","34BBWHLWHBXFTCZCVCM92RYBQU3WIS","A1AIMKA54UBYIQ","382GHPVPHSDM8N0F9141EAH7F0K34Z","","358.40000009536743","img/food4.png","74","359.39999985694885","1","1","3","2","1,0.5,0,1,0.5,0,0.5,0,1","0,1,0.5,0,1,0.5,1,0.5,0","3","false",""
"","html-keyboard-response","357","187595","0.0-443.0","34BBWHLWHBXFTCZCVCM92RYBQU3WIS","A1AIMKA54UBYIQ","382GHPVPHSDM8N0F9141EAH7F0K34Z","","null","<img src=""img/food4.png"" style=""width:200px; border:14px solid green;"">","null","","","","","","","","","",""
"","image-keyboard-response","358","187901","0.0-445.0","34BBWHLWHBXFTCZCVCM92RYBQU3WIS","A1AIMKA54UBYIQ","382GHPVPHSDM8N0F9141EAH7F0K34Z","","304.2999999523163","img/food4.png","74","305.5","1","1","3","2","1,0.5,0,1,0.5,0,0.5,0,1","0,1,0.5,0,1,0.5,1,0.5,0","3","false",""
"","html-keyboard-response","359","188211","0.0-446.0","34BBWHLWHBXFTCZCVCM92RYBQU3WIS","A1AIMKA54UBYIQ","382GHPVPHSDM8N0F9141EAH7F0K34Z","","null","<img src=""img/food4.png"" style=""width:200px; border:14px solid green;"">","null","","","","","","","","","",""
"","image-keyboard-response","360","188691","0.0-448.0","34BBWHLWHBXFTCZCVCM92RYBQU3WIS","A1AIMKA54UBYIQ","382GHPVPHSDM8N0F9141EAH7F0K34Z","","479","img/food1.png","75","480.09999990463257","2","1","2","2","1,0.5,0,1,0.5,0,0.5,0,1","0,1,0.5,0,1,0.5,1,0.5,0","3","false",""
"","html-keyboard-response","361","188996","0.0-449.0","34BBWHLWHBXFTCZCVCM92RYBQU3WIS","A1AIMKA54UBYIQ","382GHPVPHSDM8N0F9141EAH7F0K34Z","","null","<img src=""img/food1.png"" style=""width:200px; border:14px solid green;"">","null","","","","","","","","","",""
"","image-keyboard-response","362","189481","0.0-451.0","34BBWHLWHBXFTCZCVCM92RYBQU3WIS","A1AIMKA54UBYIQ","382GHPVPHSDM8N0F9141EAH7F0K34Z","","483.5","img/food4.png","74","484.80000019073486","1","1","3","2","1,0.5,0,1,0.5,0,0.5,0,1","0,1,0.5,0,1,0.5,1,0.5,0","3","false",""
"","html-keyboard-response","363","189798","0.0-452.0","34BBWHLWHBXFTCZCVCM92RYBQU3WIS","A1AIMKA54UBYIQ","382GHPVPHSDM8N0F9141EAH7F0K34Z","","null","<img src=""img/food4.png"" style=""width:200px; border:14px solid green;"">","null","","","","","","","","","",""
"","instructions","364","191983","0.0-454.0","34BBWHLWHBXFTCZCVCM92RYBQU3WIS","A1AIMKA54UBYIQ","382GHPVPHSDM8N0F9141EAH7F0K34Z","[{""page_index"":0,""viewing_time"":2183.9000000953674}]","2184.4000000953674","","","","","","","","","","","",""
"","survey-text","365","194266","0.0-455.0","34BBWHLWHBXFTCZCVCM92RYBQU3WIS","A1AIMKA54UBYIQ","382GHPVPHSDM8N0F9141EAH7F0K34Z","","2269.7000000476837","","","","","","","","","","","","{""Q0"":""A1AIMKA54UBYIQ""}"
