"success","trial_type","trial_index","time_elapsed","internal_node_id","assignmentID","mturkID","hitID","view_history","rt","stimulus","key_press","reactionTime","a","r","warning","s","cond","reward_cond","reward_cond_actual","reward_matrix_idx","responses"
"true","fullscreen","0","2284","0.0-0.0","","","","","","","","","","","","","","","","",""
"","instructions","1","14960","0.0-1.0","","","","[{""page_index"":0,""viewing_time"":3689.399999976158},{""page_index"":1,""viewing_time"":455.2000000476837},{""page_index"":2,""viewing_time"":288},{""page_index"":3,""viewing_time"":3120.100000023842},{""page_index"":4,""viewing_time"":2935.899999976158},{""page_index"":5,""viewing_time"":976.1000000238419},{""page_index"":6,""viewing_time"":1208.1000000238419}]","12672.899999976158","","","","","","","","","","","",""
"","instructions","2","17896","0.0-2.0","","","","[{""page_index"":0,""viewing_time"":2192},{""page_index"":1,""viewing_time"":743.2000000476837}]","2935.3000000715256","","","","","","","","","","","",""
"","image-keyboard-response","3","18520","0.0-3.0","","","","","623.3999999761581","img/food6.png","74","624.7999999523163","1","1","false","3","2","1,0.5,0,1,0.5,0,0.5,0,1","0,1,0.5,0,1,0.5,1,0.5,0","3",""
"","html-keyboard-response","4","18823","0.0-4.0","","","","","null","<img src=""img/food6.png"" style=""width:200px; border:14px solid green;"">","null","","","","","","","","","",""
"","image-keyboard-response","5","19169","0.0-6.0","","","","","344.7000000476837","img/food6.png","74","345.89999997615814","1","1","false","3","2","1,0.5,0,1,0.5,0,0.5,0,1","0,1,0.5,0,1,0.5,1,0.5,0","3",""
"","html-keyboard-response","6","19473","0.0-7.0","","","","","null","<img src=""img/food6.png"" style=""width:200px; border:14px solid green;"">","null","","","","","","","","","",""
"","image-keyboard-response","7","19641","0.0-9.0","","","","","165.5","img/food4.png","74","167.19999992847443","1","0","false","1","2","1,0.5,0,1,0.5,0,0.5,0,1","0,1,0.5,0,1,0.5,1,0.5,0","3",""
"","html-keyboard-response","8","19953","0.0-10.0","","","","","null","<img src=""img/food4.png"" style=""width:200px;border:14px solid red;"">","null","","","","","","","","","",""
"","image-keyboard-response","9","20719","0.0-12.0","","","","","764.1999999284744","img/food6.png","74","765.2999999523163","1","1","false","3","2","1,0.5,0,1,0.5,0,0.5,0,1","0,1,0.5,0,1,0.5,1,0.5,0","3",""
"","html-keyboard-response","10","21022","0.0-13.0","","","","","null","<img src=""img/food6.png"" style=""width:200px; border:14px solid green;"">","null","","","","","","","","","",""
"","image-keyboard-response","11","21689","0.0-15.0","","","","","664.8999999761581","img/food4.png","75","666.6000000238419","2","1","false","1","2","1,0.5,0,1,0.5,0,0.5,0,1","0,1,0.5,0,1,0.5,1,0.5,0","3",""
"","html-keyboard-response","12","22003","0.0-16.0","","","","","null","<img src=""img/food4.png"" style=""width:200px; border:14px solid green;"">","null","","","","","","","","","",""
"","image-keyboard-response","13","22376","0.0-18.0","","","","","371.09999990463257","img/food4.png","75","372.5","2","1","false","1","2","1,0.5,0,1,0.5,0,0.5,0,1","0,1,0.5,0,1,0.5,1,0.5,0","3",""
"","html-keyboard-response","14","22693","0.0-19.0","","","","","null","<img src=""img/food4.png"" style=""width:200px; border:14px solid green;"">","null","","","","","","","","","",""
"","image-keyboard-response","15","22927","0.0-21.0","","","","","234","img/food6.png","75","234.39999997615814","2","0","false","3","2","1,0.5,0,1,0.5,0,0.5,0,1","0,1,0.5,0,1,0.5,1,0.5,0","3",""
"","html-keyboard-response","16","23233","0.0-22.0","","","","","null","<img src=""img/food6.png"" style=""width:200px;border:14px solid red;"">","null","","","","","","","","","",""
"","image-keyboard-response","17","23312","0.0-24.0","","","","","76.60000002384186","img/food3.png","74","77.89999997615814","1","0","false","2","2","1,0.5,0,1,0.5,0,0.5,0,1","0,1,0.5,0,1,0.5,1,0.5,0","3",""
"","html-keyboard-response","18","23613","0.0-25.0","","","","","null","<img src=""img/food3.png"" style=""width:200px;border:14px solid red;"">","null","","","","","","","","","",""
"","image-keyboard-response","19","24105","0.0-27.0","","","","","489.5","img/food3.png","76","491","3","1","false","2","2","1,0.5,0,1,0.5,0,0.5,0,1","0,1,0.5,0,1,0.5,1,0.5,0","3",""
"","html-keyboard-response","20","24413","0.0-28.0","","","","","null","<img src=""img/food3.png"" style=""width:200px; border:14px solid green;"">","null","","","","","","","","","",""
"","image-keyboard-response","21","25177","0.0-30.0","","","","","762.2999999523163","img/food4.png","75","763.3999999761581","2","1","false","1","2","1,0.5,0,1,0.5,0,0.5,0,1","0,1,0.5,0,1,0.5,1,0.5,0","3",""
"","html-keyboard-response","22","25493","0.0-31.0","","","","","null","<img src=""img/food4.png"" style=""width:200px; border:14px solid green;"">","null","","","","","","","","","",""
"","image-keyboard-response","23","26248","0.0-33.0","","","","","753.1999999284744","img/food6.png","74","754.5","1","1","false","3","2","1,0.5,0,1,0.5,0,0.5,0,1","0,1,0.5,0,1,0.5,1,0.5,0","3",""
"","html-keyboard-response","24","26558","0.0-34.0","","","","","null","<img src=""img/food6.png"" style=""width:200px; border:14px solid green;"">","null","","","","","","","","","",""
"","image-keyboard-response","25","27400","0.0-36.0","","","","","841.2000000476837","img/food3.png","76","841.8999999761581","3","0","false","2","2","1,0.5,0,1,0.5,0,0.5,0,1","0,1,0.5,0,1,0.5,1,0.5,0","3",""
"","html-keyboard-response","26","27712","0.0-37.0","","","","","null","<img src=""img/food3.png"" style=""width:200px;border:14px solid red;"">","null","","","","","","","","","",""
"","image-keyboard-response","27","28447","0.0-39.0","","","","","733.1999999284744","img/food6.png","75","734.7000000476837","2","1","false","3","2","1,0.5,0,1,0.5,0,0.5,0,1","0,1,0.5,0,1,0.5,1,0.5,0","3",""
"","html-keyboard-response","28","28749","0.0-40.0","","","","","null","<img src=""img/food6.png"" style=""width:200px; border:14px solid green;"">","null","","","","","","","","","",""
"","image-keyboard-response","29","29751","0.0-42.0","","","","","","img/food3.png","","1001.8999999761581","-1","0","true","2","2","1,0.5,0,1,0.5,0,0.5,0,1","0,1,0.5,0,1,0.5,1,0.5,0","3",""
"","html-keyboard-response","30","30053","0.0-43.0","","","","","null","<img src=""img/food3.png"" style=""width:200px;border:14px solid red;"">","null","","","","","","","","","",""
"","html-keyboard-response","31","33368","0.0-44.0-0.0","","","","","","","","","","","","","","","","",""
"","image-keyboard-response","32","34001","0.0-45.0","","","","","632","img/food3.png","74","633","1","0","false","2","2","1,0.5,0,1,0.5,0,0.5,0,1","0,1,0.5,0,1,0.5,1,0.5,0","3",""
"","html-keyboard-response","33","34303","0.0-46.0","","","","","null","<img src=""img/food3.png"" style=""width:200px;border:14px solid red;"">","null","","","","","","","","","",""
"","image-keyboard-response","34","34607","0.0-48.0","","","","","303","img/food3.png","74","304","1","0","false","2","2","1,0.5,0,1,0.5,0,0.5,0,1","0,1,0.5,0,1,0.5,1,0.5,0","3",""
"","html-keyboard-response","35","34909","0.0-49.0","","","","","null","<img src=""img/food3.png"" style=""width:200px;border:14px solid red;"">","null","","","","","","","","","",""
"","image-keyboard-response","36","34976","0.0-51.0","","","","","66.89999997615814","img/food3.png","75","67.5","2","1","false","2","2","1,0.5,0,1,0.5,0,0.5,0,1","0,1,0.5,0,1,0.5,1,0.5,0","3",""
"","html-keyboard-response","37","35279","0.0-52.0","","","","","null","<img src=""img/food3.png"" style=""width:200px; border:14px solid green;"">","null","","","","","","","","","",""
"","image-keyboard-response","38","35489","0.0-54.0","","","","","207.89999997615814","img/food4.png","75","209.39999997615814","2","1","false","1","2","1,0.5,0,1,0.5,0,0.5,0,1","0,1,0.5,0,1,0.5,1,0.5,0","3",""
"","html-keyboard-response","39","35791","0.0-55.0","","","","","null","<img src=""img/food4.png"" style=""width:200px; border:14px solid green;"">","null","","","","","","","","","",""
"","image-keyboard-response","40","36232","0.0-57.0","","","","","438.59999990463257","img/food4.png","75","439.8000000715256","2","1","false","1","2","1,0.5,0,1,0.5,0,0.5,0,1","0,1,0.5,0,1,0.5,1,0.5,0","3",""
"","html-keyboard-response","41","36534","0.0-58.0","","","","","null","<img src=""img/food4.png"" style=""width:200px; border:14px solid green;"">","null","","","","","","","","","",""
"","image-keyboard-response","42","36856","0.0-60.0","","","","","321.39999997615814","img/food4.png","75","321.89999997615814","2","1","false","1","2","1,0.5,0,1,0.5,0,0.5,0,1","0,1,0.5,0,1,0.5,1,0.5,0","3",""
"","html-keyboard-response","43","37158","0.0-61.0","","","","","null","<img src=""img/food4.png"" style=""width:200px; border:14px solid green;"">","null","","","","","","","","","",""
"","image-keyboard-response","44","37785","0.0-63.0","","","","","625.2999999523163","img/food6.png","74","626.6999999284744","1","1","false","3","2","1,0.5,0,1,0.5,0,0.5,0,1","0,1,0.5,0,1,0.5,1,0.5,0","3",""
"","html-keyboard-response","45","38088","0.0-64.0","","","","","null","<img src=""img/food6.png"" style=""width:200px; border:14px solid green;"">","null","","","","","","","","","",""
"","image-keyboard-response","46","38551","0.0-66.0","","","","","462.1999999284744","img/food4.png","75","463.39999997615814","2","1","false","1","2","1,0.5,0,1,0.5,0,0.5,0,1","0,1,0.5,0,1,0.5,1,0.5,0","3",""
"","html-keyboard-response","47","38852","0.0-67.0","","","","","null","<img src=""img/food4.png"" style=""width:200px; border:14px solid green;"">","null","","","","","","","","","",""
"","image-keyboard-response","48","39145","0.0-69.0","","","","","291.5","img/food4.png","75","292.39999997615814","2","1","false","1","2","1,0.5,0,1,0.5,0,0.5,0,1","0,1,0.5,0,1,0.5,1,0.5,0","3",""
"","html-keyboard-response","49","39447","0.0-70.0","","","","","null","<img src=""img/food4.png"" style=""width:200px; border:14px solid green;"">","null","","","","","","","","","",""
"","image-keyboard-response","50","39753","0.0-72.0","","","","","303.60000002384186","img/food4.png","75","305.09999990463257","2","1","false","1","2","1,0.5,0,1,0.5,0,0.5,0,1","0,1,0.5,0,1,0.5,1,0.5,0","3",""
"","html-keyboard-response","51","40056","0.0-73.0","","","","","null","<img src=""img/food4.png"" style=""width:200px; border:14px solid green;"">","null","","","","","","","","","",""
"","image-keyboard-response","52","40241","0.0-75.0","","","","","182.39999997615814","img/food6.png","75","183.89999997615814","2","1","false","3","2","1,0.5,0,1,0.5,0,0.5,0,1","0,1,0.5,0,1,0.5,1,0.5,0","3",""
"","html-keyboard-response","53","40543","0.0-76.0","","","","","null","<img src=""img/food6.png"" style=""width:200px; border:14px solid green;"">","null","","","","","","","","","",""
"","image-keyboard-response","54","40664","0.0-78.0","","","","","119.70000004768372","img/food4.png","74","120.29999995231628","1","0","false","1","2","1,0.5,0,1,0.5,0,0.5,0,1","0,1,0.5,0,1,0.5,1,0.5,0","3",""
"","html-keyboard-response","55","40966","0.0-79.0","","","","","null","<img src=""img/food4.png"" style=""width:200px;border:14px solid red;"">","null","","","","","","","","","",""
"","image-keyboard-response","56","41745","0.0-81.0","","","","","777.1999999284744","img/food6.png","74","778.7000000476837","1","1","false","3","2","1,0.5,0,1,0.5,0,0.5,0,1","0,1,0.5,0,1,0.5,1,0.5,0","3",""
"","html-keyboard-response","57","42047","0.0-82.0","","","","","null","<img src=""img/food6.png"" style=""width:200px; border:14px solid green;"">","null","","","","","","","","","",""
"","image-keyboard-response","58","42920","0.0-84.0","","","","","871","img/food3.png","76","872.3000000715256","3","1","false","2","2","1,0.5,0,1,0.5,0,0.5,0,1","0,1,0.5,0,1,0.5,1,0.5,0","3",""
"","html-keyboard-response","59","43222","0.0-85.0","","","","","null","<img src=""img/food3.png"" style=""width:200px; border:14px solid green;"">","null","","","","","","","","","",""
"","image-keyboard-response","60","43761","0.0-87.0","","","","","536.8999999761581","img/food6.png","76","538.3999999761581","3","0","false","3","2","1,0.5,0,1,0.5,0,0.5,0,1","0,1,0.5,0,1,0.5,1,0.5,0","3",""
"","html-keyboard-response","61","44063","0.0-88.0","","","","","null","<img src=""img/food6.png"" style=""width:200px;border:14px solid red;"">","null","","","","","","","","","",""
"","image-keyboard-response","62","44720","0.0-90.0","","","","","654.7000000476837","img/food3.png","76","655.8000000715256","3","0","false","2","2","1,0.5,0,1,0.5,0,0.5,0,1","0,1,0.5,0,1,0.5,1,0.5,0","3",""
"","html-keyboard-response","63","45021","0.0-91.0","","","","","null","<img src=""img/food3.png"" style=""width:200px;border:14px solid red;"">","null","","","","","","","","","",""
"","image-keyboard-response","64","46017","0.0-93.0","","","","","993.6999999284744","img/food6.png","74","995.2999999523163","1","1","false","3","2","1,0.5,0,1,0.5,0,0.5,0,1","0,1,0.5,0,1,0.5,1,0.5,0","3",""
"","html-keyboard-response","65","46319","0.0-94.0","","","","","null","<img src=""img/food6.png"" style=""width:200px; border:14px solid green;"">","null","","","","","","","","","",""
"","image-keyboard-response","66","46688","0.0-96.0","","","","","366.5","img/food6.png","74","367.89999997615814","1","1","false","3","2","1,0.5,0,1,0.5,0,0.5,0,1","0,1,0.5,0,1,0.5,1,0.5,0","3",""
"","html-keyboard-response","67","46990","0.0-97.0","","","","","null","<img src=""img/food6.png"" style=""width:200px; border:14px solid green;"">","null","","","","","","","","","",""
"","image-keyboard-response","68","47209","0.0-99.0","","","","","217.19999992847443","img/food4.png","74","218.10000002384186","1","0","false","1","2","1,0.5,0,1,0.5,0,0.5,0,1","0,1,0.5,0,1,0.5,1,0.5,0","3",""
"","html-keyboard-response","69","47511","0.0-100.0","","","","","null","<img src=""img/food4.png"" style=""width:200px;border:14px solid red;"">","null","","","","","","","","","",""
"","image-keyboard-response","70","48417","0.0-102.0","","","","","903.1999999284744","img/food3.png","74","905","1","0","false","2","2","1,0.5,0,1,0.5,0,0.5,0,1","0,1,0.5,0,1,0.5,1,0.5,0","3",""
"","html-keyboard-response","71","48720","0.0-103.0","","","","","null","<img src=""img/food3.png"" style=""width:200px;border:14px solid red;"">","null","","","","","","","","","",""
"","image-keyboard-response","72","49577","0.0-105.0","","","","","856.2999999523163","img/food4.png","74","857.2000000476837","1","0","false","1","2","1,0.5,0,1,0.5,0,0.5,0,1","0,1,0.5,0,1,0.5,1,0.5,0","3",""
"","html-keyboard-response","73","49880","0.0-106.0","","","","","null","<img src=""img/food4.png"" style=""width:200px;border:14px solid red;"">","null","","","","","","","","","",""
"","image-keyboard-response","74","50559","0.0-108.0","","","","","678","img/food6.png","74","679.1000000238419","1","1","false","3","2","1,0.5,0,1,0.5,0,0.5,0,1","0,1,0.5,0,1,0.5,1,0.5,0","3",""
"","html-keyboard-response","75","50860","0.0-109.0","","","","","null","<img src=""img/food6.png"" style=""width:200px; border:14px solid green;"">","null","","","","","","","","","",""
"","image-keyboard-response","76","51225","0.0-111.0","","","","","363.7000000476837","img/food6.png","74","364.5","1","1","false","3","2","1,0.5,0,1,0.5,0,0.5,0,1","0,1,0.5,0,1,0.5,1,0.5,0","3",""
"","html-keyboard-response","77","51528","0.0-112.0","","","","","null","<img src=""img/food6.png"" style=""width:200px; border:14px solid green;"">","null","","","","","","","","","",""
"","image-keyboard-response","78","51713","0.0-114.0","","","","","182.89999997615814","img/food4.png","74","184.39999997615814","1","0","false","1","2","1,0.5,0,1,0.5,0,0.5,0,1","0,1,0.5,0,1,0.5,1,0.5,0","3",""
"","html-keyboard-response","79","52015","0.0-115.0","","","","","null","<img src=""img/food4.png"" style=""width:200px;border:14px solid red;"">","null","","","","","","","","","",""
"","image-keyboard-response","80","52600","0.0-117.0","","","","","583.6999999284744","img/food6.png","74","584.5","1","1","false","3","2","1,0.5,0,1,0.5,0,0.5,0,1","0,1,0.5,0,1,0.5,1,0.5,0","3",""
"","html-keyboard-response","81","52901","0.0-118.0","","","","","null","<img src=""img/food6.png"" style=""width:200px; border:14px solid green;"">","null","","","","","","","","","",""
"","image-keyboard-response","82","53753","0.0-120.0","","","","","850.6000000238419","img/food3.png","76","851.3999999761581","3","0","false","2","2","1,0.5,0,1,0.5,0,0.5,0,1","0,1,0.5,0,1,0.5,1,0.5,0","3",""
"","html-keyboard-response","83","54055","0.0-121.0","","","","","null","<img src=""img/food3.png"" style=""width:200px;border:14px solid red;"">","null","","","","","","","","","",""
"","image-keyboard-response","84","54456","0.0-123.0","","","","","398.60000002384186","img/food3.png","75","399.89999997615814","2","1","false","2","2","1,0.5,0,1,0.5,0,0.5,0,1","0,1,0.5,0,1,0.5,1,0.5,0","3",""
"","html-keyboard-response","85","54757","0.0-124.0","","","","","null","<img src=""img/food3.png"" style=""width:200px; border:14px solid green;"">","null","","","","","","","","","",""
"","image-keyboard-response","86","55096","0.0-126.0","","","","","336.7999999523163","img/food3.png","75","338.2000000476837","2","1","false","2","2","1,0.5,0,1,0.5,0,0.5,0,1","0,1,0.5,0,1,0.5,1,0.5,0","3",""
"","html-keyboard-response","87","55398","0.0-127.0","","","","","null","<img src=""img/food3.png"" style=""width:200px; border:14px solid green;"">","null","","","","","","","","","",""
"","image-keyboard-response","88","55561","0.0-129.0","","","","","161.19999992847443","img/food6.png","75","162.69999992847443","2","0","false","3","2","1,0.5,0,1,0.5,0,0.5,0,1","0,1,0.5,0,1,0.5,1,0.5,0","3",""
"","html-keyboard-response","89","55864","0.0-130.0","","","","","null","<img src=""img/food6.png"" style=""width:200px;border:14px solid red;"">","null","","","","","","","","","",""
"","image-keyboard-response","90","56073","0.0-132.0","","","","","207.10000002384186","img/food4.png","74","208.60000002384186","1","0","false","1","2","1,0.5,0,1,0.5,0,0.5,0,1","0,1,0.5,0,1,0.5,1,0.5,0","3",""
"","html-keyboard-response","91","56376","0.0-133.0","","","","","null","<img src=""img/food4.png"" style=""width:200px;border:14px solid red;"">","null","","","","","","","","","",""
"","image-keyboard-response","92","56744","0.0-135.0","","","","","366.09999990463257","img/food3.png","75","367.5","2","1","false","2","2","1,0.5,0,1,0.5,0,0.5,0,1","0,1,0.5,0,1,0.5,1,0.5,0","3",""
"","html-keyboard-response","93","57046","0.0-136.0","","","","","null","<img src=""img/food3.png"" style=""width:200px; border:14px solid green;"">","null","","","","","","","","","",""
"","image-keyboard-response","94","57913","0.0-138.0","","","","","864.3999999761581","img/food6.png","74","866.2000000476837","1","1","false","3","2","1,0.5,0,1,0.5,0,0.5,0,1","0,1,0.5,0,1,0.5,1,0.5,0","3",""
"","html-keyboard-response","95","58216","0.0-139.0","","","","","null","<img src=""img/food6.png"" style=""width:200px; border:14px solid green;"">","null","","","","","","","","","",""
"","image-keyboard-response","96","58699","0.0-141.0","","","","","477.89999997615814","img/food3.png","75","478.89999997615814","2","1","false","2","2","1,0.5,0,1,0.5,0,0.5,0,1","0,1,0.5,0,1,0.5,1,0.5,0","3",""
"","html-keyboard-response","97","59000","0.0-142.0","","","","","null","<img src=""img/food3.png"" style=""width:200px; border:14px solid green;"">","null","","","","","","","","","",""
"","image-keyboard-response","98","59596","0.0-144.0","","","","","592.8999999761581","img/food6.png","74","593.8999999761581","1","1","false","3","2","1,0.5,0,1,0.5,0,0.5,0,1","0,1,0.5,0,1,0.5,1,0.5,0","3",""
"","html-keyboard-response","99","59898","0.0-145.0","","","","","null","<img src=""img/food6.png"" style=""width:200px; border:14px solid green;"">","null","","","","","","","","","",""
"","image-keyboard-response","100","60396","0.0-147.0","","","","","495.7000000476837","img/food3.png","75","497.10000002384186","2","1","false","2","2","1,0.5,0,1,0.5,0,0.5,0,1","0,1,0.5,0,1,0.5,1,0.5,0","3",""
"","html-keyboard-response","101","60699","0.0-148.0","","","","","null","<img src=""img/food3.png"" style=""width:200px; border:14px solid green;"">","null","","","","","","","","","",""
"","image-keyboard-response","102","61268","0.0-150.0","","","","","568.6000000238419","img/food6.png","74","569.5","1","1","false","3","2","1,0.5,0,1,0.5,0,0.5,0,1","0,1,0.5,0,1,0.5,1,0.5,0","3",""
"","html-keyboard-response","103","61571","0.0-151.0","","","","","null","<img src=""img/food6.png"" style=""width:200px; border:14px solid green;"">","null","","","","","","","","","",""
"","image-keyboard-response","104","62116","0.0-153.0","","","","","542.8999999761581","img/food4.png","75","544.5","2","1","false","1","2","1,0.5,0,1,0.5,0,0.5,0,1","0,1,0.5,0,1,0.5,1,0.5,0","3",""
"","html-keyboard-response","105","62419","0.0-154.0","","","","","null","<img src=""img/food4.png"" style=""width:200px; border:14px solid green;"">","null","","","","","","","","","",""
"","image-keyboard-response","106","62795","0.0-156.0","","","","","374.2000000476837","img/food4.png","75","375.39999997615814","2","1","false","1","2","1,0.5,0,1,0.5,0,0.5,0,1","0,1,0.5,0,1,0.5,1,0.5,0","3",""
"","html-keyboard-response","107","63097","0.0-157.0","","","","","null","<img src=""img/food4.png"" style=""width:200px; border:14px solid green;"">","null","","","","","","","","","",""
"","image-keyboard-response","108","63612","0.0-159.0","","","","","513.2999999523163","img/food6.png","74","514.7999999523163","1","1","false","3","2","1,0.5,0,1,0.5,0,0.5,0,1","0,1,0.5,0,1,0.5,1,0.5,0","3",""
"","html-keyboard-response","109","63914","0.0-160.0","","","","","null","<img src=""img/food6.png"" style=""width:200px; border:14px solid green;"">","null","","","","","","","","","",""
"","image-keyboard-response","110","64436","0.0-162.0","","","","","519.6000000238419","img/food4.png","75","521.3000000715256","2","1","false","1","2","1,0.5,0,1,0.5,0,0.5,0,1","0,1,0.5,0,1,0.5,1,0.5,0","3",""
"","html-keyboard-response","111","64739","0.0-163.0","","","","","null","<img src=""img/food4.png"" style=""width:200px; border:14px solid green;"">","null","","","","","","","","","",""
"","image-keyboard-response","112","65484","0.0-165.0","","","","","744","img/food3.png","75","744.8000000715256","2","1","false","2","2","1,0.5,0,1,0.5,0,0.5,0,1","0,1,0.5,0,1,0.5,1,0.5,0","3",""
"","html-keyboard-response","113","65787","0.0-166.0","","","","","null","<img src=""img/food3.png"" style=""width:200px; border:14px solid green;"">","null","","","","","","","","","",""
"","image-keyboard-response","114","66131","0.0-168.0","","","","","342.2999999523163","img/food3.png","75","343.5","2","1","false","2","2","1,0.5,0,1,0.5,0,0.5,0,1","0,1,0.5,0,1,0.5,1,0.5,0","3",""
"","html-keyboard-response","115","66434","0.0-169.0","","","","","null","<img src=""img/food3.png"" style=""width:200px; border:14px solid green;"">","null","","","","","","","","","",""
"","image-keyboard-response","116","66948","0.0-171.0","","","","","513.1999999284744","img/food4.png","74","514.2000000476837","1","0","false","1","2","1,0.5,0,1,0.5,0,0.5,0,1","0,1,0.5,0,1,0.5,1,0.5,0","3",""
"","html-keyboard-response","117","67251","0.0-172.0","","","","","null","<img src=""img/food4.png"" style=""width:200px;border:14px solid red;"">","null","","","","","","","","","",""
"","image-keyboard-response","118","67604","0.0-174.0","","","","","351.39999997615814","img/food4.png","75","352.89999997615814","2","1","false","1","2","1,0.5,0,1,0.5,0,0.5,0,1","0,1,0.5,0,1,0.5,1,0.5,0","3",""
"","html-keyboard-response","119","67906","0.0-175.0","","","","","null","<img src=""img/food4.png"" style=""width:200px; border:14px solid green;"">","null","","","","","","","","","",""
"","image-keyboard-response","120","68723","0.0-177.0","","","","","815","img/food3.png","75","816.1000000238419","2","1","false","2","2","1,0.5,0,1,0.5,0,0.5,0,1","0,1,0.5,0,1,0.5,1,0.5,0","3",""
"","html-keyboard-response","121","69024","0.0-178.0","","","","","null","<img src=""img/food3.png"" style=""width:200px; border:14px solid green;"">","null","","","","","","","","","",""
"","image-keyboard-response","122","69700","0.0-180.0","","","","","673.7999999523163","img/food6.png","74","675.2999999523163","1","1","false","3","2","1,0.5,0,1,0.5,0,0.5,0,1","0,1,0.5,0,1,0.5,1,0.5,0","3",""
"","html-keyboard-response","123","70003","0.0-181.0","","","","","null","<img src=""img/food6.png"" style=""width:200px; border:14px solid green;"">","null","","","","","","","","","",""
"","image-keyboard-response","124","70420","0.0-183.0","","","","","415","img/food6.png","74","416.39999997615814","1","1","false","3","2","1,0.5,0,1,0.5,0,0.5,0,1","0,1,0.5,0,1,0.5,1,0.5,0","3",""
"","html-keyboard-response","125","70722","0.0-184.0","","","","","null","<img src=""img/food6.png"" style=""width:200px; border:14px solid green;"">","null","","","","","","","","","",""
"","image-keyboard-response","126","71244","0.0-186.0","","","","","520.7999999523163","img/food3.png","75","521.5","2","1","false","2","2","1,0.5,0,1,0.5,0,0.5,0,1","0,1,0.5,0,1,0.5,1,0.5,0","3",""
"","html-keyboard-response","127","71546","0.0-187.0","","","","","null","<img src=""img/food3.png"" style=""width:200px; border:14px solid green;"">","null","","","","","","","","","",""
"","image-keyboard-response","128","71869","0.0-189.0","","","","","320.5","img/food3.png","75","322.2000000476837","2","1","false","2","2","1,0.5,0,1,0.5,0,0.5,0,1","0,1,0.5,0,1,0.5,1,0.5,0","3",""
"","html-keyboard-response","129","72171","0.0-190.0","","","","","null","<img src=""img/food3.png"" style=""width:200px; border:14px solid green;"">","null","","","","","","","","","",""
"","image-keyboard-response","130","72771","0.0-192.0","","","","","598","img/food4.png","75","599.6000000238419","2","1","false","1","2","1,0.5,0,1,0.5,0,0.5,0,1","0,1,0.5,0,1,0.5,1,0.5,0","3",""
"","html-keyboard-response","131","73073","0.0-193.0","","","","","null","<img src=""img/food4.png"" style=""width:200px; border:14px solid green;"">","null","","","","","","","","","",""
"","image-keyboard-response","132","73612","0.0-195.0","","","","","537.3999999761581","img/food6.png","74","538.8000000715256","1","1","false","3","2","1,0.5,0,1,0.5,0,0.5,0,1","0,1,0.5,0,1,0.5,1,0.5,0","3",""
"","html-keyboard-response","133","73915","0.0-196.0","","","","","null","<img src=""img/food6.png"" style=""width:200px; border:14px solid green;"">","null","","","","","","","","","",""
"","image-keyboard-response","134","74300","0.0-198.0","","","","","383.10000002384186","img/food6.png","74","384.7000000476837","1","1","false","3","2","1,0.5,0,1,0.5,0,0.5,0,1","0,1,0.5,0,1,0.5,1,0.5,0","3",""
"","html-keyboard-response","135","74602","0.0-199.0","","","","","null","<img src=""img/food6.png"" style=""width:200px; border:14px solid green;"">","null","","","","","","","","","",""
"","image-keyboard-response","136","75003","0.0-201.0","","","","","400.3000000715256","img/food3.png","75","400.89999997615814","2","1","false","2","2","1,0.5,0,1,0.5,0,0.5,0,1","0,1,0.5,0,1,0.5,1,0.5,0","3",""
"","html-keyboard-response","137","75304","0.0-202.0","","","","","null","<img src=""img/food3.png"" style=""width:200px; border:14px solid green;"">","null","","","","","","","","","",""
"","image-keyboard-response","138","75980","0.0-204.0","","","","","673.6000000238419","img/food6.png","74","675.2000000476837","1","1","false","3","2","1,0.5,0,1,0.5,0,0.5,0,1","0,1,0.5,0,1,0.5,1,0.5,0","3",""
"","html-keyboard-response","139","76283","0.0-205.0","","","","","null","<img src=""img/food6.png"" style=""width:200px; border:14px solid green;"">","null","","","","","","","","","",""
"","image-keyboard-response","140","76667","0.0-207.0","","","","","382.2999999523163","img/food6.png","74","383.39999997615814","1","1","false","3","2","1,0.5,0,1,0.5,0,0.5,0,1","0,1,0.5,0,1,0.5,1,0.5,0","3",""
"","html-keyboard-response","141","76968","0.0-208.0","","","","","null","<img src=""img/food6.png"" style=""width:200px; border:14px solid green;"">","null","","","","","","","","","",""
"","image-keyboard-response","142","77388","0.0-210.0","","","","","418.89999997615814","img/food4.png","75","419.7000000476837","2","1","false","1","2","1,0.5,0,1,0.5,0,0.5,0,1","0,1,0.5,0,1,0.5,1,0.5,0","3",""
"","html-keyboard-response","143","77690","0.0-211.0","","","","","null","<img src=""img/food4.png"" style=""width:200px; border:14px solid green;"">","null","","","","","","","","","",""
"","image-keyboard-response","144","78284","0.0-213.0","","","","","591.6000000238419","img/food3.png","75","593","2","1","false","2","2","1,0.5,0,1,0.5,0,0.5,0,1","0,1,0.5,0,1,0.5,1,0.5,0","3",""
"","html-keyboard-response","145","78587","0.0-214.0","","","","","null","<img src=""img/food3.png"" style=""width:200px; border:14px solid green;"">","null","","","","","","","","","",""
"","image-keyboard-response","146","78972","0.0-216.0","","","","","383.7999999523163","img/food3.png","75","384.60000002384186","2","1","false","2","2","1,0.5,0,1,0.5,0,0.5,0,1","0,1,0.5,0,1,0.5,1,0.5,0","3",""
"","html-keyboard-response","147","79274","0.0-217.0","","","","","null","<img src=""img/food3.png"" style=""width:200px; border:14px solid green;"">","null","","","","","","","","","",""
"","image-keyboard-response","148","79732","0.0-219.0","","","","","456.10000002384186","img/food4.png","74","457.7000000476837","1","0","false","1","2","1,0.5,0,1,0.5,0,0.5,0,1","0,1,0.5,0,1,0.5,1,0.5,0","3",""
"","html-keyboard-response","149","80035","0.0-220.0","","","","","null","<img src=""img/food4.png"" style=""width:200px;border:14px solid red;"">","null","","","","","","","","","",""
"","image-keyboard-response","150","80892","0.0-222.0","","","","","854.8999999761581","img/food3.png","75","856.3999999761581","2","1","false","2","2","1,0.5,0,1,0.5,0,0.5,0,1","0,1,0.5,0,1,0.5,1,0.5,0","3",""
"","html-keyboard-response","151","81207","0.0-223.0","","","","","null","<img src=""img/food3.png"" style=""width:200px; border:14px solid green;"">","null","","","","","","","","","",""
"","image-keyboard-response","152","81732","0.0-225.0","","","","","522.8999999761581","img/food4.png","75","524.2999999523163","2","1","false","1","2","1,0.5,0,1,0.5,0,0.5,0,1","0,1,0.5,0,1,0.5,1,0.5,0","3",""
"","html-keyboard-response","153","82034","0.0-226.0","","","","","null","<img src=""img/food4.png"" style=""width:200px; border:14px solid green;"">","null","","","","","","","","","",""
"","image-keyboard-response","154","82539","0.0-228.0","","","","","503.8000000715256","img/food3.png","75","504.39999997615814","2","1","false","2","2","1,0.5,0,1,0.5,0,0.5,0,1","0,1,0.5,0,1,0.5,1,0.5,0","3",""
"","html-keyboard-response","155","82841","0.0-229.0","","","","","null","<img src=""img/food3.png"" style=""width:200px; border:14px solid green;"">","null","","","","","","","","","",""
"","image-keyboard-response","156","83291","0.0-231.0","","","","","449.10000002384186","img/food6.png","74","449.6999999284744","1","1","false","3","2","1,0.5,0,1,0.5,0,0.5,0,1","0,1,0.5,0,1,0.5,1,0.5,0","3",""
"","html-keyboard-response","157","83592","0.0-232.0","","","","","null","<img src=""img/food6.png"" style=""width:200px; border:14px solid green;"">","null","","","","","","","","","",""
"","image-keyboard-response","158","84099","0.0-234.0","","","","","505.5","img/food4.png","75","506.10000002384186","2","1","false","1","2","1,0.5,0,1,0.5,0,0.5,0,1","0,1,0.5,0,1,0.5,1,0.5,0","3",""
"","html-keyboard-response","159","84400","0.0-235.0","","","","","null","<img src=""img/food4.png"" style=""width:200px; border:14px solid green;"">","null","","","","","","","","","",""
"","image-keyboard-response","160","84827","0.0-237.0","","","","","426.3000000715256","img/food4.png","75","426.7999999523163","2","1","false","1","2","1,0.5,0,1,0.5,0,0.5,0,1","0,1,0.5,0,1,0.5,1,0.5,0","3",""
"","html-keyboard-response","161","85129","0.0-238.0","","","","","null","<img src=""img/food4.png"" style=""width:200px; border:14px solid green;"">","null","","","","","","","","","",""
"","image-keyboard-response","162","85500","0.0-240.0","","","","","368.60000002384186","img/food4.png","75","370.10000002384186","2","1","false","1","2","1,0.5,0,1,0.5,0,0.5,0,1","0,1,0.5,0,1,0.5,1,0.5,0","3",""
"","html-keyboard-response","163","85803","0.0-241.0","","","","","null","<img src=""img/food4.png"" style=""width:200px; border:14px solid green;"">","null","","","","","","","","","",""
"","image-keyboard-response","164","86443","0.0-243.0","","","","","638.3999999761581","img/food3.png","75","639.6000000238419","2","1","false","2","2","1,0.5,0,1,0.5,0,0.5,0,1","0,1,0.5,0,1,0.5,1,0.5,0","3",""
"","html-keyboard-response","165","86744","0.0-244.0","","","","","null","<img src=""img/food3.png"" style=""width:200px; border:14px solid green;"">","null","","","","","","","","","",""
"","image-keyboard-response","166","87116","0.0-246.0","","","","","370.39999997615814","img/food3.png","75","371.5","2","1","false","2","2","1,0.5,0,1,0.5,0,0.5,0,1","0,1,0.5,0,1,0.5,1,0.5,0","3",""
"","html-keyboard-response","167","87419","0.0-247.0","","","","","null","<img src=""img/food3.png"" style=""width:200px; border:14px solid green;"">","null","","","","","","","","","",""
"","image-keyboard-response","168","88004","0.0-249.0","","","","","582.8000000715256","img/food4.png","75","584.5","2","1","false","1","2","1,0.5,0,1,0.5,0,0.5,0,1","0,1,0.5,0,1,0.5,1,0.5,0","3",""
"","html-keyboard-response","169","88307","0.0-250.0","","","","","null","<img src=""img/food4.png"" style=""width:200px; border:14px solid green;"">","null","","","","","","","","","",""
"","image-keyboard-response","170","88820","0.0-252.0","","","","","511.10000002384186","img/food6.png","74","512.5","1","1","false","3","2","1,0.5,0,1,0.5,0,0.5,0,1","0,1,0.5,0,1,0.5,1,0.5,0","3",""
"","html-keyboard-response","171","89123","0.0-253.0","","","","","null","<img src=""img/food6.png"" style=""width:200px; border:14px solid green;"">","null","","","","","","","","","",""
"","image-keyboard-response","172","89460","0.0-255.0","","","","","334.89999997615814","img/food3.png","74","336.39999997615814","1","0","false","2","2","1,0.5,0,1,0.5,0,0.5,0,1","0,1,0.5,0,1,0.5,1,0.5,0","3",""
"","html-keyboard-response","173","89762","0.0-256.0","","","","","null","<img src=""img/food3.png"" style=""width:200px;border:14px solid red;"">","null","","","","","","","","","",""
"","image-keyboard-response","174","90427","0.0-258.0","","","","","662.8999999761581","img/food6.png","74","664.3999999761581","1","1","false","3","2","1,0.5,0,1,0.5,0,0.5,0,1","0,1,0.5,0,1,0.5,1,0.5,0","3",""
"","html-keyboard-response","175","90730","0.0-259.0","","","","","null","<img src=""img/food6.png"" style=""width:200px; border:14px solid green;"">","null","","","","","","","","","",""
"","image-keyboard-response","176","91268","0.0-261.0","","","","","537.1999999284744","img/food4.png","75","538","2","1","false","1","2","1,0.5,0,1,0.5,0,0.5,0,1","0,1,0.5,0,1,0.5,1,0.5,0","3",""
"","html-keyboard-response","177","91570","0.0-262.0","","","","","null","<img src=""img/food4.png"" style=""width:200px; border:14px solid green;"">","null","","","","","","","","","",""
"","image-keyboard-response","178","92451","0.0-264.0","","","","","879.2999999523163","img/food3.png","75","880.5","2","1","false","2","2","1,0.5,0,1,0.5,0,0.5,0,1","0,1,0.5,0,1,0.5,1,0.5,0","3",""
"","html-keyboard-response","179","92753","0.0-265.0","","","","","null","<img src=""img/food3.png"" style=""width:200px; border:14px solid green;"">","null","","","","","","","","","",""
"","image-keyboard-response","180","93436","0.0-267.0","","","","","682.3999999761581","img/food6.png","74","683.3999999761581","1","1","false","3","2","1,0.5,0,1,0.5,0,0.5,0,1","0,1,0.5,0,1,0.5,1,0.5,0","3",""
"","html-keyboard-response","181","93739","0.0-268.0","","","","","null","<img src=""img/food6.png"" style=""width:200px; border:14px solid green;"">","null","","","","","","","","","",""
"","image-keyboard-response","182","94300","0.0-270.0","","","","","558.7999999523163","img/food4.png","75","560.3000000715256","2","1","false","1","2","1,0.5,0,1,0.5,0,0.5,0,1","0,1,0.5,0,1,0.5,1,0.5,0","3",""
"","html-keyboard-response","183","94602","0.0-271.0","","","","","null","<img src=""img/food4.png"" style=""width:200px; border:14px solid green;"">","null","","","","","","","","","",""
"","instructions","184","105843","0.0-273.0","","","","[{""page_index"":0,""viewing_time"":9784.799999952316},{""page_index"":1,""viewing_time"":1455.8999999761581}]","11240.799999952316","","","","","","","","","","","",""
"","image-keyboard-response","185","106475","0.0-274.0","","","","","631.6000000238419","img/food5.png","75","632.3999999761581","2","1","","1","1","1,0.5,0,1,0.5,0,0.5,0,1","0,1,0.5,0,1,0.5,1,0.5,0","3",""
"","html-keyboard-response","186","106778","0.0-275.0","","","","","null","<img src=""img/food5.png"" style=""width:200px; border:14px solid green;"">","null","","","","","","","","","",""
"","image-keyboard-response","187","107100","0.0-276.0","","","","","321.10000002384186","img/food1.png","75","322.3000000715256","2","0","","3","1","1,0.5,0,1,0.5,0,0.5,0,1","0,1,0.5,0,1,0.5,1,0.5,0","3",""
"","html-keyboard-response","188","107403","0.0-277.0","","","","","null","<img src=""img/food1.png"" style=""width:200px;border:14px solid red;"">","null","","","","","","","","","",""
"","image-keyboard-response","189","107836","0.0-278.0","","","","","431.3000000715256","img/food1.png","74","432.7000000476837","1","1","","3","1","1,0.5,0,1,0.5,0,0.5,0,1","0,1,0.5,0,1,0.5,1,0.5,0","3",""
"","html-keyboard-response","190","108139","0.0-279.0","","","","","null","<img src=""img/food1.png"" style=""width:200px; border:14px solid green;"">","null","","","","","","","","","",""
"","image-keyboard-response","191","108691","0.0-280.0","","","","","551.2999999523163","img/food2.png","75","552.2999999523163","2","1","","2","1","1,0.5,0,1,0.5,0,0.5,0,1","0,1,0.5,0,1,0.5,1,0.5,0","3",""
"","html-keyboard-response","192","108993","0.0-281.0","","","","","null","<img src=""img/food2.png"" style=""width:200px; border:14px solid green;"">","null","","","","","","","","","",""
"","image-keyboard-response","193","109548","0.0-282.0","","","","","554.3000000715256","img/food1.png","75","555.3000000715256","2","1","","3","1","1,0.5,0,1,0.5,0,0.5,0,1","0,1,0.5,0,1,0.5,1,0.5,0","3",""
"","html-keyboard-response","194","109850","0.0-283.0","","","","","null","<img src=""img/food1.png"" style=""width:200px; border:14px solid green;"">","null","","","","","","","","","",""
"","image-keyboard-response","195","110116","0.0-284.0","","","","","264.10000002384186","img/food5.png","74","265.7000000476837","1","0","","1","1","1,0.5,0,1,0.5,0,0.5,0,1","0,1,0.5,0,1,0.5,1,0.5,0","3",""
"","html-keyboard-response","196","110419","0.0-285.0","","","","","null","<img src=""img/food5.png"" style=""width:200px;border:14px solid red;"">","null","","","","","","","","","",""
"","image-keyboard-response","197","110619","0.0-286.0","","","","","198.39999997615814","img/food1.png","75","199.5","2","1","","3","1","1,0.5,0,1,0.5,0,0.5,0,1","0,1,0.5,0,1,0.5,1,0.5,0","3",""
"","html-keyboard-response","198","110924","0.0-287.0","","","","","null","<img src=""img/food1.png"" style=""width:200px; border:14px solid green;"">","null","","","","","","","","","",""
"","image-keyboard-response","199","111212","0.0-288.0","","","","","286.10000002384186","img/food5.png","75","287.7000000476837","2","1","","1","1","1,0.5,0,1,0.5,0,0.5,0,1","0,1,0.5,0,1,0.5,1,0.5,0","3",""
"","html-keyboard-response","200","111530","0.0-289.0","","","","","null","<img src=""img/food5.png"" style=""width:200px; border:14px solid green;"">","null","","","","","","","","","",""
"","image-keyboard-response","201","111884","0.0-290.0","","","","","352.39999997615814","img/food5.png","75","353.89999997615814","2","1","","1","1","1,0.5,0,1,0.5,0,0.5,0,1","0,1,0.5,0,1,0.5,1,0.5,0","3",""
"","html-keyboard-response","202","112186","0.0-291.0","","","","","null","<img src=""img/food5.png"" style=""width:200px; border:14px solid green;"">","null","","","","","","","","","",""
"","image-keyboard-response","203","112324","0.0-292.0","","","","","135.60000002384186","img/food2.png","75","137.10000002384186","2","1","","2","1","1,0.5,0,1,0.5,0,0.5,0,1","0,1,0.5,0,1,0.5,1,0.5,0","3",""
"","html-keyboard-response","204","112626","0.0-293.0","","","","","null","<img src=""img/food2.png"" style=""width:200px; border:14px solid green;"">","null","","","","","","","","","",""
"","image-keyboard-response","205","112819","0.0-294.0","","","","","191.90000009536743","img/food2.png","75","192.29999995231628","2","1","","2","1","1,0.5,0,1,0.5,0,0.5,0,1","0,1,0.5,0,1,0.5,1,0.5,0","3",""
"","html-keyboard-response","206","113121","0.0-295.0","","","","","null","<img src=""img/food2.png"" style=""width:200px; border:14px solid green;"">","null","","","","","","","","","",""
"","image-keyboard-response","207","113212","0.0-296.0","","","","","89.39999997615814","img/food1.png","75","91","2","0","","3","1","1,0.5,0,1,0.5,0,0.5,0,1","0,1,0.5,0,1,0.5,1,0.5,0","3",""
"","html-keyboard-response","208","113514","0.0-297.0","","","","","null","<img src=""img/food1.png"" style=""width:200px;border:14px solid red;"">","null","","","","","","","","","",""
"","image-keyboard-response","209","113916","0.0-298.0","","","","","399.7000000476837","img/food5.png","75","401.2000000476837","2","1","","1","1","1,0.5,0,1,0.5,0,0.5,0,1","0,1,0.5,0,1,0.5,1,0.5,0","3",""
"","html-keyboard-response","210","114219","0.0-299.0","","","","","null","<img src=""img/food5.png"" style=""width:200px; border:14px solid green;"">","null","","","","","","","","","",""
"","image-keyboard-response","211","114659","0.0-300.0","","","","","438.6999999284744","img/food2.png","75","439.6999999284744","2","1","","2","1","1,0.5,0,1,0.5,0,0.5,0,1","0,1,0.5,0,1,0.5,1,0.5,0","3",""
"","html-keyboard-response","212","114961","0.0-301.0","","","","","null","<img src=""img/food2.png"" style=""width:200px; border:14px solid green;"">","null","","","","","","","","","",""
"","image-keyboard-response","213","115100","0.0-302.0","","","","","137.5","img/food1.png","75","138.39999997615814","2","1","","3","1","1,0.5,0,1,0.5,0,0.5,0,1","0,1,0.5,0,1,0.5,1,0.5,0","3",""
"","html-keyboard-response","214","115402","0.0-303.0","","","","","null","<img src=""img/food1.png"" style=""width:200px; border:14px solid green;"">","null","","","","","","","","","",""
"","image-keyboard-response","215","115540","0.0-304.0","","","","","136","img/food2.png","75","137.5","2","1","","2","1","1,0.5,0,1,0.5,0,0.5,0,1","0,1,0.5,0,1,0.5,1,0.5,0","3",""
"","html-keyboard-response","216","115842","0.0-305.0","","","","","null","<img src=""img/food2.png"" style=""width:200px; border:14px solid green;"">","null","","","","","","","","","",""
"","image-keyboard-response","217","115940","0.0-306.0","","","","","95.89999997615814","img/food1.png","75","97.39999997615814","2","1","","3","1","1,0.5,0,1,0.5,0,0.5,0,1","0,1,0.5,0,1,0.5,1,0.5,0","3",""
"","html-keyboard-response","218","116242","0.0-307.0","","","","","null","<img src=""img/food1.png"" style=""width:200px; border:14px solid green;"">","null","","","","","","","","","",""
"","image-keyboard-response","219","116324","0.0-308.0","","","","","80.70000004768372","img/food2.png","75","81.90000009536743","2","1","","2","1","1,0.5,0,1,0.5,0,0.5,0,1","0,1,0.5,0,1,0.5,1,0.5,0","3",""
"","html-keyboard-response","220","116627","0.0-309.0","","","","","null","<img src=""img/food2.png"" style=""width:200px; border:14px solid green;"">","null","","","","","","","","","",""
"","image-keyboard-response","221","116739","0.0-310.0","","","","","110.89999997615814","img/food5.png","75","111.5","2","1","","1","1","1,0.5,0,1,0.5,0,0.5,0,1","0,1,0.5,0,1,0.5,1,0.5,0","3",""
"","html-keyboard-response","222","117040","0.0-311.0","","","","","null","<img src=""img/food5.png"" style=""width:200px; border:14px solid green;"">","null","","","","","","","","","",""
"","image-keyboard-response","223","117164","0.0-312.0","","","","","121.89999997615814","img/food1.png","75","123.39999997615814","2","1","","3","1","1,0.5,0,1,0.5,0,0.5,0,1","0,1,0.5,0,1,0.5,1,0.5,0","3",""
"","html-keyboard-response","224","117467","0.0-313.0","","","","","null","<img src=""img/food1.png"" style=""width:200px; border:14px solid green;"">","null","","","","","","","","","",""
"","image-keyboard-response","225","117548","0.0-314.0","","","","","79.20000004768372","img/food5.png","75","80.70000004768372","2","1","","1","1","1,0.5,0,1,0.5,0,0.5,0,1","0,1,0.5,0,1,0.5,1,0.5,0","3",""
"","html-keyboard-response","226","117851","0.0-315.0","","","","","null","<img src=""img/food5.png"" style=""width:200px; border:14px solid green;"">","null","","","","","","","","","",""
"","image-keyboard-response","227","117908","0.0-316.0","","","","","56","img/food5.png","75","57.200000047683716","2","1","","1","1","1,0.5,0,1,0.5,0,0.5,0,1","0,1,0.5,0,1,0.5,1,0.5,0","3",""
"","html-keyboard-response","228","118210","0.0-317.0","","","","","null","<img src=""img/food5.png"" style=""width:200px; border:14px solid green;"">","null","","","","","","","","","",""
"","image-keyboard-response","229","118323","0.0-318.0","","","","","112.29999995231628","img/food5.png","75","113.5","2","1","","1","1","1,0.5,0,1,0.5,0,0.5,0,1","0,1,0.5,0,1,0.5,1,0.5,0","3",""
"","html-keyboard-response","230","118628","0.0-319.0","","","","","null","<img src=""img/food5.png"" style=""width:200px; border:14px solid green;"">","null","","","","","","","","","",""
"","image-keyboard-response","231","118658","0.0-320.0","","","","","29.600000023841858","img/food1.png","75","30.100000023841858","2","0","","3","1","1,0.5,0,1,0.5,0,0.5,0,1","0,1,0.5,0,1,0.5,1,0.5,0","3",""
"","html-keyboard-response","232","118959","0.0-321.0","","","","","null","<img src=""img/food1.png"" style=""width:200px;border:14px solid red;"">","null","","","","","","","","","",""
"","image-keyboard-response","233","118986","0.0-322.0","","","","","26.399999976158142","img/food5.png","75","27","2","1","","1","1","1,0.5,0,1,0.5,0,0.5,0,1","0,1,0.5,0,1,0.5,1,0.5,0","3",""
"","html-keyboard-response","234","119298","0.0-323.0","","","","","null","<img src=""img/food5.png"" style=""width:200px; border:14px solid green;"">","null","","","","","","","","","",""
"","image-keyboard-response","235","119324","0.0-324.0","","","","","23.5","img/food5.png","75","24.799999952316284","2","1","","1","1","1,0.5,0,1,0.5,0,0.5,0,1","0,1,0.5,0,1,0.5,1,0.5,0","3",""
"","html-keyboard-response","236","119626","0.0-325.0","","","","","null","<img src=""img/food5.png"" style=""width:200px; border:14px solid green;"">","null","","","","","","","","","",""
"","image-keyboard-response","237","119923","0.0-326.0","","","","","295.1999999284744","img/food5.png","75","296.7999999523163","2","1","","1","1","1,0.5,0,1,0.5,0,0.5,0,1","0,1,0.5,0,1,0.5,1,0.5,0","3",""
"","html-keyboard-response","238","120225","0.0-327.0","","","","","null","<img src=""img/food5.png"" style=""width:200px; border:14px solid green;"">","null","","","","","","","","","",""
"","image-keyboard-response","239","120274","0.0-328.0","","","","","48.300000071525574","img/food5.png","75","48.699999928474426","2","1","","1","1","1,0.5,0,1,0.5,0,0.5,0,1","0,1,0.5,0,1,0.5,1,0.5,0","3",""
"","html-keyboard-response","240","120575","0.0-329.0","","","","","null","<img src=""img/food5.png"" style=""width:200px; border:14px solid green;"">","null","","","","","","","","","",""
"","image-keyboard-response","241","120770","0.0-330.0","","","","","194.39999997615814","img/food1.png","75","194.90000009536743","2","0","","3","1","1,0.5,0,1,0.5,0,0.5,0,1","0,1,0.5,0,1,0.5,1,0.5,0","3",""
"","html-keyboard-response","242","121072","0.0-331.0","","","","","null","<img src=""img/food1.png"" style=""width:200px;border:14px solid red;"">","null","","","","","","","","","",""
"","image-keyboard-response","243","121123","0.0-332.0","","","","","50","img/food1.png","75","51.39999997615814","2","0","","3","1","1,0.5,0,1,0.5,0,0.5,0,1","0,1,0.5,0,1,0.5,1,0.5,0","3",""
"","html-keyboard-response","244","121426","0.0-333.0","","","","","null","<img src=""img/food1.png"" style=""width:200px;border:14px solid red;"">","null","","","","","","","","","",""
"","image-keyboard-response","245","121571","0.0-334.0","","","","","143.79999995231628","img/food2.png","74","145.5","1","0","","2","1","1,0.5,0,1,0.5,0,0.5,0,1","0,1,0.5,0,1,0.5,1,0.5,0","3",""
"","html-keyboard-response","246","121874","0.0-335.0","","","","","null","<img src=""img/food2.png"" style=""width:200px;border:14px solid red;"">","null","","","","","","","","","",""
"","image-keyboard-response","247","122099","0.0-336.0","","","","","224","img/food2.png","75","225.10000002384186","2","1","","2","1","1,0.5,0,1,0.5,0,0.5,0,1","0,1,0.5,0,1,0.5,1,0.5,0","3",""
"","html-keyboard-response","248","122403","0.0-337.0","","","","","null","<img src=""img/food2.png"" style=""width:200px; border:14px solid green;"">","null","","","","","","","","","",""
"","image-keyboard-response","249","122450","0.0-338.0","","","","","46.89999997615814","img/food1.png","75","47.700000047683716","2","0","","3","1","1,0.5,0,1,0.5,0,0.5,0,1","0,1,0.5,0,1,0.5,1,0.5,0","3",""
"","html-keyboard-response","250","122752","0.0-339.0","","","","","null","<img src=""img/food1.png"" style=""width:200px;border:14px solid red;"">","null","","","","","","","","","",""
"","image-keyboard-response","251","123067","0.0-340.0","","","","","314.2999999523163","img/food1.png","75","315.2000000476837","2","1","","3","1","1,0.5,0,1,0.5,0,0.5,0,1","0,1,0.5,0,1,0.5,1,0.5,0","3",""
"","html-keyboard-response","252","123370","0.0-341.0","","","","","null","<img src=""img/food1.png"" style=""width:200px; border:14px solid green;"">","null","","","","","","","","","",""
"","image-keyboard-response","253","123948","0.0-342.0","","","","","575.1000000238419","img/food2.png","75","577","2","1","","2","1","1,0.5,0,1,0.5,0,0.5,0,1","0,1,0.5,0,1,0.5,1,0.5,0","3",""
"","html-keyboard-response","254","124251","0.0-343.0","","","","","null","<img src=""img/food2.png"" style=""width:200px; border:14px solid green;"">","null","","","","","","","","","",""
"","image-keyboard-response","255","124291","0.0-344.0","","","","","38.39999997615814","img/food5.png","75","39.799999952316284","2","1","","1","1","1,0.5,0,1,0.5,0,0.5,0,1","0,1,0.5,0,1,0.5,1,0.5,0","3",""
"","html-keyboard-response","256","124593","0.0-345.0","","","","","null","<img src=""img/food5.png"" style=""width:200px; border:14px solid green;"">","null","","","","","","","","","",""
"","image-keyboard-response","257","124642","0.0-346.0","","","","","48.200000047683716","img/food5.png","75","48.699999928474426","2","1","","1","1","1,0.5,0,1,0.5,0,0.5,0,1","0,1,0.5,0,1,0.5,1,0.5,0","3",""
"","html-keyboard-response","258","124944","0.0-347.0","","","","","null","<img src=""img/food5.png"" style=""width:200px; border:14px solid green;"">","null","","","","","","","","","",""
"","image-keyboard-response","259","124979","0.0-348.0","","","","","32.89999997615814","img/food1.png","75","34.39999997615814","2","1","","3","1","1,0.5,0,1,0.5,0,0.5,0,1","0,1,0.5,0,1,0.5,1,0.5,0","3",""
"","html-keyboard-response","260","125281","0.0-349.0","","","","","null","<img src=""img/food1.png"" style=""width:200px; border:14px solid green;"">","null","","","","","","","","","",""
"","image-keyboard-response","261","125291","0.0-350.0","","","","","7.700000047683716","img/food5.png","75","9.299999952316284","2","1","","1","1","1,0.5,0,1,0.5,0,0.5,0,1","0,1,0.5,0,1,0.5,1,0.5,0","3",""
"","html-keyboard-response","262","125594","0.0-351.0","","","","","null","<img src=""img/food5.png"" style=""width:200px; border:14px solid green;"">","null","","","","","","","","","",""
"","image-keyboard-response","263","125851","0.0-352.0","","","","","255","img/food2.png","75","256.60000002384186","2","1","","2","1","1,0.5,0,1,0.5,0,0.5,0,1","0,1,0.5,0,1,0.5,1,0.5,0","3",""
"","html-keyboard-response","264","126163","0.0-353.0","","","","","null","<img src=""img/food2.png"" style=""width:200px; border:14px solid green;"">","null","","","","","","","","","",""
"","image-keyboard-response","265","126452","0.0-354.0","","","","","286.10000002384186","img/food5.png","75","287.89999997615814","2","1","","1","1","1,0.5,0,1,0.5,0,0.5,0,1","0,1,0.5,0,1,0.5,1,0.5,0","3",""
"","html-keyboard-response","266","126754","0.0-355.0","","","","","null","<img src=""img/food5.png"" style=""width:200px; border:14px solid green;"">","null","","","","","","","","","",""
"","image-keyboard-response","267","126762","0.0-356.0","","","","","7.700000047683716","img/food2.png","75","8.199999928474426","2","1","","2","1","1,0.5,0,1,0.5,0,0.5,0,1","0,1,0.5,0,1,0.5,1,0.5,0","3",""
"","html-keyboard-response","268","127064","0.0-357.0","","","","","null","<img src=""img/food2.png"" style=""width:200px; border:14px solid green;"">","null","","","","","","","","","",""
"","image-keyboard-response","269","127259","0.0-358.0","","","","","194.70000004768372","img/food1.png","75","195.60000002384186","2","1","","3","1","1,0.5,0,1,0.5,0,0.5,0,1","0,1,0.5,0,1,0.5,1,0.5,0","3",""
"","html-keyboard-response","270","127562","0.0-359.0","","","","","null","<img src=""img/food1.png"" style=""width:200px; border:14px solid green;"">","null","","","","","","","","","",""
"","image-keyboard-response","271","127715","0.0-360.0","","","","","151.29999995231628","img/food5.png","75","152.79999995231628","2","1","","1","1","1,0.5,0,1,0.5,0,0.5,0,1","0,1,0.5,0,1,0.5,1,0.5,0","3",""
"","html-keyboard-response","272","128018","0.0-361.0","","","","","null","<img src=""img/food5.png"" style=""width:200px; border:14px solid green;"">","null","","","","","","","","","",""
"","image-keyboard-response","273","128171","0.0-362.0","","","","","151.80000007152557","img/food2.png","75","153.29999995231628","2","1","","2","1","1,0.5,0,1,0.5,0,0.5,0,1","0,1,0.5,0,1,0.5,1,0.5,0","3",""
"","html-keyboard-response","274","128478","0.0-363.0","","","","","null","<img src=""img/food2.png"" style=""width:200px; border:14px solid green;"">","null","","","","","","","","","",""
"","image-keyboard-response","275","128610","0.0-364.0","","","","","130.30000007152557","img/food1.png","75","131.39999997615814","2","0","","3","1","1,0.5,0,1,0.5,0,0.5,0,1","0,1,0.5,0,1,0.5,1,0.5,0","3",""
"","html-keyboard-response","276","128912","0.0-365.0","","","","","null","<img src=""img/food1.png"" style=""width:200px;border:14px solid red;"">","null","","","","","","","","","",""
"","image-keyboard-response","277","129259","0.0-366.0","","","","","346.7999999523163","img/food2.png","75","347.7000000476837","2","1","","2","1","1,0.5,0,1,0.5,0,0.5,0,1","0,1,0.5,0,1,0.5,1,0.5,0","3",""
"","html-keyboard-response","278","129562","0.0-367.0","","","","","null","<img src=""img/food2.png"" style=""width:200px; border:14px solid green;"">","null","","","","","","","","","",""
"","image-keyboard-response","279","129747","0.0-368.0","","","","","183.20000004768372","img/food5.png","75","184.80000007152557","2","1","","1","1","1,0.5,0,1,0.5,0,0.5,0,1","0,1,0.5,0,1,0.5,1,0.5,0","3",""
"","html-keyboard-response","280","130050","0.0-369.0","","","","","null","<img src=""img/food5.png"" style=""width:200px; border:14px solid green;"">","null","","","","","","","","","",""
"","image-keyboard-response","281","130203","0.0-370.0","","","","","151.39999997615814","img/food2.png","75","153.09999990463257","2","1","","2","1","1,0.5,0,1,0.5,0,0.5,0,1","0,1,0.5,0,1,0.5,1,0.5,0","3",""
"","html-keyboard-response","282","130506","0.0-371.0","","","","","null","<img src=""img/food2.png"" style=""width:200px; border:14px solid green;"">","null","","","","","","","","","",""
"","image-keyboard-response","283","130667","0.0-372.0","","","","","159.60000002384186","img/food5.png","75","160.60000002384186","2","1","","1","1","1,0.5,0,1,0.5,0,0.5,0,1","0,1,0.5,0,1,0.5,1,0.5,0","3",""
"","html-keyboard-response","284","130969","0.0-373.0","","","","","null","<img src=""img/food5.png"" style=""width:200px; border:14px solid green;"">","null","","","","","","","","","",""
"","image-keyboard-response","285","131122","0.0-374.0","","","","","152.60000002384186","img/food2.png","75","153.09999990463257","2","1","","2","1","1,0.5,0,1,0.5,0,0.5,0,1","0,1,0.5,0,1,0.5,1,0.5,0","3",""
"","html-keyboard-response","286","131424","0.0-375.0","","","","","null","<img src=""img/food2.png"" style=""width:200px; border:14px solid green;"">","null","","","","","","","","","",""
"","image-keyboard-response","287","131547","0.0-376.0","","","","","121.39999997615814","img/food2.png","75","123","2","1","","2","1","1,0.5,0,1,0.5,0,0.5,0,1","0,1,0.5,0,1,0.5,1,0.5,0","3",""
"","html-keyboard-response","288","131850","0.0-377.0","","","","","null","<img src=""img/food2.png"" style=""width:200px; border:14px solid green;"">","null","","","","","","","","","",""
"","image-keyboard-response","289","131971","0.0-378.0","","","","","119.29999995231628","img/food1.png","75","120.89999997615814","2","0","","3","1","1,0.5,0,1,0.5,0,0.5,0,1","0,1,0.5,0,1,0.5,1,0.5,0","3",""
"","html-keyboard-response","290","132274","0.0-379.0","","","","","null","<img src=""img/food1.png"" style=""width:200px;border:14px solid red;"">","null","","","","","","","","","",""
"","image-keyboard-response","291","132387","0.0-380.0","","","","","111.29999995231628","img/food5.png","75","113","2","1","","1","1","1,0.5,0,1,0.5,0,0.5,0,1","0,1,0.5,0,1,0.5,1,0.5,0","3",""
"","html-keyboard-response","292","132690","0.0-381.0","","","","","null","<img src=""img/food5.png"" style=""width:200px; border:14px solid green;"">","null","","","","","","","","","",""
"","image-keyboard-response","293","132899","0.0-382.0","","","","","207.89999997615814","img/food5.png","75","208.60000002384186","2","1","","1","1","1,0.5,0,1,0.5,0,0.5,0,1","0,1,0.5,0,1,0.5,1,0.5,0","3",""
"","html-keyboard-response","294","133201","0.0-383.0","","","","","null","<img src=""img/food5.png"" style=""width:200px; border:14px solid green;"">","null","","","","","","","","","",""
"","image-keyboard-response","295","133355","0.0-384.0","","","","","152.29999995231628","img/food1.png","75","153.79999995231628","2","0","","3","1","1,0.5,0,1,0.5,0,0.5,0,1","0,1,0.5,0,1,0.5,1,0.5,0","3",""
"","html-keyboard-response","296","133658","0.0-385.0","","","","","null","<img src=""img/food1.png"" style=""width:200px;border:14px solid red;"">","null","","","","","","","","","",""
"","image-keyboard-response","297","133795","0.0-386.0","","","","","135.5","img/food5.png","75","136.89999997615814","2","1","","1","1","1,0.5,0,1,0.5,0,0.5,0,1","0,1,0.5,0,1,0.5,1,0.5,0","3",""
"","html-keyboard-response","298","134098","0.0-387.0","","","","","null","<img src=""img/food5.png"" style=""width:200px; border:14px solid green;"">","null","","","","","","","","","",""
"","image-keyboard-response","299","134251","0.0-388.0","","","","","151.10000002384186","img/food1.png","75","152.39999997615814","2","0","","3","1","1,0.5,0,1,0.5,0,0.5,0,1","0,1,0.5,0,1,0.5,1,0.5,0","3",""
"","html-keyboard-response","300","134552","0.0-389.0","","","","","null","<img src=""img/food1.png"" style=""width:200px;border:14px solid red;"">","null","","","","","","","","","",""
"","image-keyboard-response","301","134738","0.0-390.0","","","","","185.30000007152557","img/food1.png","75","185.89999997615814","2","0","","3","1","1,0.5,0,1,0.5,0,0.5,0,1","0,1,0.5,0,1,0.5,1,0.5,0","3",""
"","html-keyboard-response","302","135039","0.0-391.0","","","","","null","<img src=""img/food1.png"" style=""width:200px;border:14px solid red;"">","null","","","","","","","","","",""
"","image-keyboard-response","303","135691","0.0-392.0","","","","","650","img/food2.png","75","651.7000000476837","2","1","","2","1","1,0.5,0,1,0.5,0,0.5,0,1","0,1,0.5,0,1,0.5,1,0.5,0","3",""
"","html-keyboard-response","304","135994","0.0-393.0","","","","","null","<img src=""img/food2.png"" style=""width:200px; border:14px solid green;"">","null","","","","","","","","","",""
"","image-keyboard-response","305","136122","0.0-394.0","","","","","126.5","img/food5.png","75","127.70000004768372","2","1","","1","1","1,0.5,0,1,0.5,0,0.5,0,1","0,1,0.5,0,1,0.5,1,0.5,0","3",""
"","html-keyboard-response","306","136424","0.0-395.0","","","","","null","<img src=""img/food5.png"" style=""width:200px; border:14px solid green;"">","null","","","","","","","","","",""
"","image-keyboard-response","307","136466","0.0-396.0","","","","","40.89999997615814","img/food5.png","75","42.200000047683716","2","1","","1","1","1,0.5,0,1,0.5,0,0.5,0,1","0,1,0.5,0,1,0.5,1,0.5,0","3",""
"","html-keyboard-response","308","136768","0.0-397.0","","","","","null","<img src=""img/food5.png"" style=""width:200px; border:14px solid green;"">","null","","","","","","","","","",""
"","image-keyboard-response","309","136810","0.0-398.0","","","","","40.799999952316284","img/food5.png","75","41.700000047683716","2","1","","1","1","1,0.5,0,1,0.5,0,0.5,0,1","0,1,0.5,0,1,0.5,1,0.5,0","3",""
"","html-keyboard-response","310","137112","0.0-399.0","","","","","null","<img src=""img/food5.png"" style=""width:200px; border:14px solid green;"">","null","","","","","","","","","",""
"","image-keyboard-response","311","137443","0.0-400.0","","","","","329.39999997615814","img/food5.png","75","330.89999997615814","2","1","","1","1","1,0.5,0,1,0.5,0,0.5,0,1","0,1,0.5,0,1,0.5,1,0.5,0","3",""
"","html-keyboard-response","312","137746","0.0-401.0","","","","","null","<img src=""img/food5.png"" style=""width:200px; border:14px solid green;"">","null","","","","","","","","","",""
"","image-keyboard-response","313","137755","0.0-402.0","","","","","7.200000047683716","img/food1.png","75","11.200000047683716","2","1","","3","1","1,0.5,0,1,0.5,0,0.5,0,1","0,1,0.5,0,1,0.5,1,0.5,0","3",""
"","html-keyboard-response","314","138060","0.0-403.0","","","","","null","<img src=""img/food1.png"" style=""width:200px; border:14px solid green;"">","null","","","","","","","","","",""
"","image-keyboard-response","315","138866","0.0-404.0","","","","","804","img/food1.png","76","805.0999999046326","3","0","","3","1","1,0.5,0,1,0.5,0,0.5,0,1","0,1,0.5,0,1,0.5,1,0.5,0","3",""
"","html-keyboard-response","316","139172","0.0-405.0","","","","","null","<img src=""img/food1.png"" style=""width:200px;border:14px solid red;"">","null","","","","","","","","","",""
"","image-keyboard-response","317","139499","0.0-406.0","","","","","326.3000000715256","img/food1.png","74","327.2000000476837","1","1","","3","1","1,0.5,0,1,0.5,0,0.5,0,1","0,1,0.5,0,1,0.5,1,0.5,0","3",""
"","html-keyboard-response","318","139802","0.0-407.0","","","","","null","<img src=""img/food1.png"" style=""width:200px; border:14px solid green;"">","null","","","","","","","","","",""
"","image-keyboard-response","319","140347","0.0-408.0","","","","","544","img/food5.png","75","545.2999999523163","2","1","","1","1","1,0.5,0,1,0.5,0,0.5,0,1","0,1,0.5,0,1,0.5,1,0.5,0","3",""
"","html-keyboard-response","320","140650","0.0-409.0","","","","","null","<img src=""img/food5.png"" style=""width:200px; border:14px solid green;"">","null","","","","","","","","","",""
"","image-keyboard-response","321","140778","0.0-410.0","","","","","128","img/food1.png","75","128.5","2","0","","3","1","1,0.5,0,1,0.5,0,0.5,0,1","0,1,0.5,0,1,0.5,1,0.5,0","3",""
"","html-keyboard-response","322","141080","0.0-411.0","","","","","null","<img src=""img/food1.png"" style=""width:200px;border:14px solid red;"">","null","","","","","","","","","",""
"","image-keyboard-response","323","141203","0.0-412.0","","","","","121.39999997615814","img/food1.png","74","122.89999997615814","1","1","","3","1","1,0.5,0,1,0.5,0,0.5,0,1","0,1,0.5,0,1,0.5,1,0.5,0","3",""
"","html-keyboard-response","324","141506","0.0-413.0","","","","","null","<img src=""img/food1.png"" style=""width:200px; border:14px solid green;"">","null","","","","","","","","","",""
"","image-keyboard-response","325","141755","0.0-414.0","","","","","247.40000009536743","img/food1.png","74","248.89999997615814","1","1","","3","1","1,0.5,0,1,0.5,0,0.5,0,1","0,1,0.5,0,1,0.5,1,0.5,0","3",""
"","html-keyboard-response","326","142059","0.0-415.0","","","","","null","<img src=""img/food1.png"" style=""width:200px; border:14px solid green;"">","null","","","","","","","","","",""
"","image-keyboard-response","327","142235","0.0-416.0","","","","","174.80000007152557","img/food2.png","74","176.40000009536743","1","0","","2","1","1,0.5,0,1,0.5,0,0.5,0,1","0,1,0.5,0,1,0.5,1,0.5,0","3",""
"","html-keyboard-response","328","142539","0.0-417.0","","","","","null","<img src=""img/food2.png"" style=""width:200px;border:14px solid red;"">","null","","","","","","","","","",""
"","image-keyboard-response","329","142618","0.0-418.0","","","","","78.30000007152557","img/food2.png","75","79.29999995231628","2","1","","2","1","1,0.5,0,1,0.5,0,0.5,0,1","0,1,0.5,0,1,0.5,1,0.5,0","3",""
"","html-keyboard-response","330","142921","0.0-419.0","","","","","null","<img src=""img/food2.png"" style=""width:200px; border:14px solid green;"">","null","","","","","","","","","",""
"","image-keyboard-response","331","143267","0.0-420.0","","","","","345.7000000476837","img/food2.png","75","346.8000000715256","2","1","","2","1","1,0.5,0,1,0.5,0,0.5,0,1","0,1,0.5,0,1,0.5,1,0.5,0","3",""
"","html-keyboard-response","332","143570","0.0-421.0","","","","","null","<img src=""img/food2.png"" style=""width:200px; border:14px solid green;"">","null","","","","","","","","","",""
"","image-keyboard-response","333","143771","0.0-422.0","","","","","199","img/food1.png","75","200.60000002384186","2","1","","3","1","1,0.5,0,1,0.5,0,0.5,0,1","0,1,0.5,0,1,0.5,1,0.5,0","3",""
"","html-keyboard-response","334","144073","0.0-423.0","","","","","null","<img src=""img/food1.png"" style=""width:200px; border:14px solid green;"">","null","","","","","","","","","",""
"","image-keyboard-response","335","144138","0.0-424.0","","","","","63.10000002384186","img/food2.png","74","64.40000009536743","1","0","","2","1","1,0.5,0,1,0.5,0,0.5,0,1","0,1,0.5,0,1,0.5,1,0.5,0","3",""
"","html-keyboard-response","336","144440","0.0-425.0","","","","","null","<img src=""img/food2.png"" style=""width:200px;border:14px solid red;"">","null","","","","","","","","","",""
"","image-keyboard-response","337","145292","0.0-426.0","","","","","850.1999999284744","img/food5.png","75","851.9000000953674","2","1","","1","1","1,0.5,0,1,0.5,0,0.5,0,1","0,1,0.5,0,1,0.5,1,0.5,0","3",""
"","html-keyboard-response","338","145595","0.0-427.0","","","","","null","<img src=""img/food5.png"" style=""width:200px; border:14px solid green;"">","null","","","","","","","","","",""
"","image-keyboard-response","339","145708","0.0-428.0","","","","","111.19999992847443","img/food2.png","75","112.70000004768372","2","1","","2","1","1,0.5,0,1,0.5,0,0.5,0,1","0,1,0.5,0,1,0.5,1,0.5,0","3",""
"","html-keyboard-response","340","146010","0.0-429.0","","","","","null","<img src=""img/food2.png"" style=""width:200px; border:14px solid green;"">","null","","","","","","","","","",""
"","image-keyboard-response","341","146283","0.0-430.0","","","","","271","img/food2.png","75","272.7000000476837","2","1","","2","1","1,0.5,0,1,0.5,0,0.5,0,1","0,1,0.5,0,1,0.5,1,0.5,0","3",""
"","html-keyboard-response","342","146586","0.0-431.0","","","","","null","<img src=""img/food2.png"" style=""width:200px; border:14px solid green;"">","null","","","","","","","","","",""
"","image-keyboard-response","343","146698","0.0-432.0","","","","","111.39999997615814","img/food2.png","75","112","2","1","","2","1","1,0.5,0,1,0.5,0,0.5,0,1","0,1,0.5,0,1,0.5,1,0.5,0","3",""
"","html-keyboard-response","344","146999","0.0-433.0","","","","","null","<img src=""img/food2.png"" style=""width:200px; border:14px solid green;"">","null","","","","","","","","","",""
"","image-keyboard-response","345","147123","0.0-434.0","","","","","122.5","img/food5.png","75","123.80000007152557","2","1","","1","1","1,0.5,0,1,0.5,0,0.5,0,1","0,1,0.5,0,1,0.5,1,0.5,0","3",""
"","html-keyboard-response","346","147427","0.0-435.0","","","","","null","<img src=""img/food5.png"" style=""width:200px; border:14px solid green;"">","null","","","","","","","","","",""
"","image-keyboard-response","347","147603","0.0-436.0","","","","","174.80000007152557","img/food1.png","75","176.5","2","1","","3","1","1,0.5,0,1,0.5,0,0.5,0,1","0,1,0.5,0,1,0.5,1,0.5,0","3",""
"","html-keyboard-response","348","147906","0.0-437.0","","","","","null","<img src=""img/food1.png"" style=""width:200px; border:14px solid green;"">","null","","","","","","","","","",""
"","image-keyboard-response","349","148170","0.0-438.0","","","","","262.2999999523163","img/food2.png","74","263.5","1","0","","2","1","1,0.5,0,1,0.5,0,0.5,0,1","0,1,0.5,0,1,0.5,1,0.5,0","3",""
"","html-keyboard-response","350","148473","0.0-439.0","","","","","null","<img src=""img/food2.png"" style=""width:200px;border:14px solid red;"">","null","","","","","","","","","",""
"","image-keyboard-response","351","148555","0.0-440.0","","","","","80","img/food2.png","75","81.60000002384186","2","1","","2","1","1,0.5,0,1,0.5,0,0.5,0,1","0,1,0.5,0,1,0.5,1,0.5,0","3",""
"","html-keyboard-response","352","148856","0.0-441.0","","","","","null","<img src=""img/food2.png"" style=""width:200px; border:14px solid green;"">","null","","","","","","","","","",""
"","image-keyboard-response","353","149019","0.0-442.0","","","","","162.5","img/food2.png","75","163.39999997615814","2","1","","2","1","1,0.5,0,1,0.5,0,0.5,0,1","0,1,0.5,0,1,0.5,1,0.5,0","3",""
"","html-keyboard-response","354","149322","0.0-443.0","","","","","null","<img src=""img/food2.png"" style=""width:200px; border:14px solid green;"">","null","","","","","","","","","",""
"","image-keyboard-response","355","149403","0.0-444.0","","","","","79.20000004768372","img/food1.png","75","80.90000009536743","2","1","","3","1","1,0.5,0,1,0.5,0,0.5,0,1","0,1,0.5,0,1,0.5,1,0.5,0","3",""
"","html-keyboard-response","356","149706","0.0-445.0","","","","","null","<img src=""img/food1.png"" style=""width:200px; border:14px solid green;"">","null","","","","","","","","","",""
"","image-keyboard-response","357","150114","0.0-446.0","","","","","407","img/food1.png","74","409","1","1","","3","1","1,0.5,0,1,0.5,0,0.5,0,1","0,1,0.5,0,1,0.5,1,0.5,0","3",""
"","html-keyboard-response","358","150417","0.0-447.0","","","","","null","<img src=""img/food1.png"" style=""width:200px; border:14px solid green;"">","null","","","","","","","","","",""
"","image-keyboard-response","359","150563","0.0-448.0","","","","","144.89999997615814","img/food2.png","74","145.5","1","0","","2","1","1,0.5,0,1,0.5,0,0.5,0,1","0,1,0.5,0,1,0.5,1,0.5,0","3",""
"","html-keyboard-response","360","150865","0.0-449.0","","","","","null","<img src=""img/food2.png"" style=""width:200px;border:14px solid red;"">","null","","","","","","","","","",""
"","image-keyboard-response","361","151219","0.0-450.0","","","","","353.60000002384186","img/food2.png","75","354.60000002384186","2","1","","2","1","1,0.5,0,1,0.5,0,0.5,0,1","0,1,0.5,0,1,0.5,1,0.5,0","3",""
"","html-keyboard-response","362","151522","0.0-451.0","","","","","null","<img src=""img/food2.png"" style=""width:200px; border:14px solid green;"">","null","","","","","","","","","",""
"","image-keyboard-response","363","151642","0.0-452.0","","","","","118.29999995231628","img/food2.png","75","119.60000002384186","2","1","","2","1","1,0.5,0,1,0.5,0,0.5,0,1","0,1,0.5,0,1,0.5,1,0.5,0","3",""
"","html-keyboard-response","364","151958","0.0-453.0","","","","","null","<img src=""img/food2.png"" style=""width:200px; border:14px solid green;"">","null","","","","","","","","","",""
"","html-keyboard-response","365","154162","0.0-454.0","","","","","","","","","","","","","","","","",""
"","instructions","366","155114","0.0-455.0","","","","[{""page_index"":0,""viewing_time"":951.6000000238419}]","951.7000000476837","","","","","","","","","","","",""
"","survey-text","367","158563","0.0-456.0","","","","","3446.2000000476837","","","","","","","","","","","","{""Q0"":""A1ATL3G98SFW4V""}"
