"success","trial_type","trial_index","time_elapsed","internal_node_id","assignmentID","mturkID","hitID","view_history","rt","stimulus","key_press","reactionTime","a","r","s","reward_cond","warning","responses"
"true","fullscreen","0","2777","0.0-0.0","3WQQ9FUS6BGUG3PORZEM2ORCCR3B8T","A1AYQ8E01NSY5Z","3VJ4PFXFJ3TL96TFXMATEMT7KJHUAI","","","","","","","","","","",""
"","instructions","1","11539","0.0-1.0","3WQQ9FUS6BGUG3PORZEM2ORCCR3B8T","A1AYQ8E01NSY5Z","3VJ4PFXFJ3TL96TFXMATEMT7KJHUAI","[{""page_index"":0,""viewing_time"":1725},{""page_index"":1,""viewing_time"":1171},{""page_index"":2,""viewing_time"":684},{""page_index"":3,""viewing_time"":1199},{""page_index"":4,""viewing_time"":1882},{""page_index"":5,""viewing_time"":1235},{""page_index"":6,""viewing_time"":864}]","8760","","","","","","","","",""
"","image-keyboard-response","2","12643","0.0-2.0","3WQQ9FUS6BGUG3PORZEM2ORCCR3B8T","A1AYQ8E01NSY5Z","3VJ4PFXFJ3TL96TFXMATEMT7KJHUAI","","1102","img/food6.png","74","1105","1","1","3","1,0.7,0,1,0.7,0,0.7,0,1","",""
"","html-keyboard-response","3","12959","0.0-3.0","3WQQ9FUS6BGUG3PORZEM2ORCCR3B8T","A1AYQ8E01NSY5Z","3VJ4PFXFJ3TL96TFXMATEMT7KJHUAI","","null","<img src=""img/food6.png"" style=""width:200px; border:14px solid green;"">","null","","","","","","",""
"","image-keyboard-response","4","13697","0.0-4.0","3WQQ9FUS6BGUG3PORZEM2ORCCR3B8T","A1AYQ8E01NSY5Z","3VJ4PFXFJ3TL96TFXMATEMT7KJHUAI","","737","img/food3.png","75","737","2","1","1","1,0.7,0,1,0.7,0,0.7,0,1","",""
"","html-keyboard-response","5","14005","0.0-5.0","3WQQ9FUS6BGUG3PORZEM2ORCCR3B8T","A1AYQ8E01NSY5Z","3VJ4PFXFJ3TL96TFXMATEMT7KJHUAI","","null","<img src=""img/food3.png"" style=""width:200px; border:14px solid green;"">","null","","","","","","",""
"","image-keyboard-response","6","14724","0.0-6.0","3WQQ9FUS6BGUG3PORZEM2ORCCR3B8T","A1AYQ8E01NSY5Z","3VJ4PFXFJ3TL96TFXMATEMT7KJHUAI","","716","img/food6.png","76","717","3","1","3","1,0.7,0,1,0.7,0,0.7,0,1","",""
"","html-keyboard-response","7","15034","0.0-7.0","3WQQ9FUS6BGUG3PORZEM2ORCCR3B8T","A1AYQ8E01NSY5Z","3VJ4PFXFJ3TL96TFXMATEMT7KJHUAI","","null","<img src=""img/food6.png"" style=""width:200px; border:14px solid green;"">","null","","","","","","",""
"","image-keyboard-response","8","15651","0.0-8.0","3WQQ9FUS6BGUG3PORZEM2ORCCR3B8T","A1AYQ8E01NSY5Z","3VJ4PFXFJ3TL96TFXMATEMT7KJHUAI","","616","img/food3.png","74","617","1","1","1","1,0.7,0,1,0.7,0,0.7,0,1","",""
"","html-keyboard-response","9","15957","0.0-9.0","3WQQ9FUS6BGUG3PORZEM2ORCCR3B8T","A1AYQ8E01NSY5Z","3VJ4PFXFJ3TL96TFXMATEMT7KJHUAI","","null","<img src=""img/food3.png"" style=""width:200px; border:14px solid green;"">","null","","","","","","",""
"","image-keyboard-response","10","16998","0.0-10.0","3WQQ9FUS6BGUG3PORZEM2ORCCR3B8T","A1AYQ8E01NSY5Z","3VJ4PFXFJ3TL96TFXMATEMT7KJHUAI","","1038","img/food5.png","75","1041","2","1","2","1,0.7,0,1,0.7,0,0.7,0,1","",""
"","html-keyboard-response","11","17310","0.0-11.0","3WQQ9FUS6BGUG3PORZEM2ORCCR3B8T","A1AYQ8E01NSY5Z","3VJ4PFXFJ3TL96TFXMATEMT7KJHUAI","","null","<img src=""img/food5.png"" style=""width:200px; border:14px solid green;"">","null","","","","","","",""
"","image-keyboard-response","12","17746","0.0-12.0","3WQQ9FUS6BGUG3PORZEM2ORCCR3B8T","A1AYQ8E01NSY5Z","3VJ4PFXFJ3TL96TFXMATEMT7KJHUAI","","435","img/food5.png","75","435","2","1","2","1,0.7,0,1,0.7,0,0.7,0,1","",""
"","html-keyboard-response","13","18060","0.0-13.0","3WQQ9FUS6BGUG3PORZEM2ORCCR3B8T","A1AYQ8E01NSY5Z","3VJ4PFXFJ3TL96TFXMATEMT7KJHUAI","","null","<img src=""img/food5.png"" style=""width:200px; border:14px solid green;"">","null","","","","","","",""
"","image-keyboard-response","14","18796","0.0-14.0","3WQQ9FUS6BGUG3PORZEM2ORCCR3B8T","A1AYQ8E01NSY5Z","3VJ4PFXFJ3TL96TFXMATEMT7KJHUAI","","734","img/food3.png","75","736","2","1","1","1,0.7,0,1,0.7,0,0.7,0,1","",""
"","html-keyboard-response","15","19107","0.0-15.0","3WQQ9FUS6BGUG3PORZEM2ORCCR3B8T","A1AYQ8E01NSY5Z","3VJ4PFXFJ3TL96TFXMATEMT7KJHUAI","","null","<img src=""img/food3.png"" style=""width:200px; border:14px solid green;"">","null","","","","","","",""
"","image-keyboard-response","16","19740","0.0-16.0","3WQQ9FUS6BGUG3PORZEM2ORCCR3B8T","A1AYQ8E01NSY5Z","3VJ4PFXFJ3TL96TFXMATEMT7KJHUAI","","631","img/food5.png","74","634","1","1","2","1,0.7,0,1,0.7,0,0.7,0,1","",""
"","html-keyboard-response","17","20047","0.0-17.0","3WQQ9FUS6BGUG3PORZEM2ORCCR3B8T","A1AYQ8E01NSY5Z","3VJ4PFXFJ3TL96TFXMATEMT7KJHUAI","","null","<img src=""img/food5.png"" style=""width:200px; border:14px solid green;"">","null","","","","","","",""
"","image-keyboard-response","18","20595","0.0-18.0","3WQQ9FUS6BGUG3PORZEM2ORCCR3B8T","A1AYQ8E01NSY5Z","3VJ4PFXFJ3TL96TFXMATEMT7KJHUAI","","545","img/food3.png","75","547","2","1","1","1,0.7,0,1,0.7,0,0.7,0,1","",""
"","html-keyboard-response","19","20905","0.0-19.0","3WQQ9FUS6BGUG3PORZEM2ORCCR3B8T","A1AYQ8E01NSY5Z","3VJ4PFXFJ3TL96TFXMATEMT7KJHUAI","","null","<img src=""img/food3.png"" style=""width:200px; border:14px solid green;"">","null","","","","","","",""
"","image-keyboard-response","20","21516","0.0-20.0","3WQQ9FUS6BGUG3PORZEM2ORCCR3B8T","A1AYQ8E01NSY5Z","3VJ4PFXFJ3TL96TFXMATEMT7KJHUAI","","610","img/food5.png","75","611","2","1","2","1,0.7,0,1,0.7,0,0.7,0,1","",""
"","html-keyboard-response","21","21827","0.0-21.0","3WQQ9FUS6BGUG3PORZEM2ORCCR3B8T","A1AYQ8E01NSY5Z","3VJ4PFXFJ3TL96TFXMATEMT7KJHUAI","","null","<img src=""img/food5.png"" style=""width:200px; border:14px solid green;"">","null","","","","","","",""
"","image-keyboard-response","22","22348","0.0-22.0","3WQQ9FUS6BGUG3PORZEM2ORCCR3B8T","A1AYQ8E01NSY5Z","3VJ4PFXFJ3TL96TFXMATEMT7KJHUAI","","519","img/food6.png","76","522","3","1","3","1,0.7,0,1,0.7,0,0.7,0,1","",""
"","html-keyboard-response","23","22652","0.0-23.0","3WQQ9FUS6BGUG3PORZEM2ORCCR3B8T","A1AYQ8E01NSY5Z","3VJ4PFXFJ3TL96TFXMATEMT7KJHUAI","","null","<img src=""img/food6.png"" style=""width:200px; border:14px solid green;"">","null","","","","","","",""
"","image-keyboard-response","24","23099","0.0-24.0","3WQQ9FUS6BGUG3PORZEM2ORCCR3B8T","A1AYQ8E01NSY5Z","3VJ4PFXFJ3TL96TFXMATEMT7KJHUAI","","445","img/food5.png","75","446","2","1","2","1,0.7,0,1,0.7,0,0.7,0,1","",""
"","html-keyboard-response","25","23401","0.0-25.0","3WQQ9FUS6BGUG3PORZEM2ORCCR3B8T","A1AYQ8E01NSY5Z","3VJ4PFXFJ3TL96TFXMATEMT7KJHUAI","","null","<img src=""img/food5.png"" style=""width:200px; border:14px solid green;"">","null","","","","","","",""
"","image-keyboard-response","26","23861","0.0-26.0","3WQQ9FUS6BGUG3PORZEM2ORCCR3B8T","A1AYQ8E01NSY5Z","3VJ4PFXFJ3TL96TFXMATEMT7KJHUAI","","457","img/food3.png","75","458","2","1","1","1,0.7,0,1,0.7,0,0.7,0,1","",""
"","html-keyboard-response","27","24177","0.0-27.0","3WQQ9FUS6BGUG3PORZEM2ORCCR3B8T","A1AYQ8E01NSY5Z","3VJ4PFXFJ3TL96TFXMATEMT7KJHUAI","","null","<img src=""img/food3.png"" style=""width:200px; border:14px solid green;"">","null","","","","","","",""
"","image-keyboard-response","28","24709","0.0-28.0","3WQQ9FUS6BGUG3PORZEM2ORCCR3B8T","A1AYQ8E01NSY5Z","3VJ4PFXFJ3TL96TFXMATEMT7KJHUAI","","528","img/food3.png","75","530","2","0","1","1,0.7,0,1,0.7,0,0.7,0,1","",""
"","html-keyboard-response","29","25018","0.0-29.0","3WQQ9FUS6BGUG3PORZEM2ORCCR3B8T","A1AYQ8E01NSY5Z","3VJ4PFXFJ3TL96TFXMATEMT7KJHUAI","","null","<img src=""img/food3.png"" style=""width:200px;border:14px solid red;"">","null","","","","","","",""
"","image-keyboard-response","30","25371","0.0-30.0","3WQQ9FUS6BGUG3PORZEM2ORCCR3B8T","A1AYQ8E01NSY5Z","3VJ4PFXFJ3TL96TFXMATEMT7KJHUAI","","351","img/food3.png","74","352","1","1","1","1,0.7,0,1,0.7,0,0.7,0,1","",""
"","html-keyboard-response","31","25674","0.0-31.0","3WQQ9FUS6BGUG3PORZEM2ORCCR3B8T","A1AYQ8E01NSY5Z","3VJ4PFXFJ3TL96TFXMATEMT7KJHUAI","","null","<img src=""img/food3.png"" style=""width:200px; border:14px solid green;"">","null","","","","","","",""
"","image-keyboard-response","32","26139","0.0-32.0","3WQQ9FUS6BGUG3PORZEM2ORCCR3B8T","A1AYQ8E01NSY5Z","3VJ4PFXFJ3TL96TFXMATEMT7KJHUAI","","463","img/food3.png","74","465","1","1","1","1,0.7,0,1,0.7,0,0.7,0,1","",""
"","html-keyboard-response","33","26454","0.0-33.0","3WQQ9FUS6BGUG3PORZEM2ORCCR3B8T","A1AYQ8E01NSY5Z","3VJ4PFXFJ3TL96TFXMATEMT7KJHUAI","","null","<img src=""img/food3.png"" style=""width:200px; border:14px solid green;"">","null","","","","","","",""
"","image-keyboard-response","34","27236","0.0-34.0","3WQQ9FUS6BGUG3PORZEM2ORCCR3B8T","A1AYQ8E01NSY5Z","3VJ4PFXFJ3TL96TFXMATEMT7KJHUAI","","780","img/food6.png","76","782","3","1","3","1,0.7,0,1,0.7,0,0.7,0,1","",""
"","html-keyboard-response","35","27548","0.0-35.0","3WQQ9FUS6BGUG3PORZEM2ORCCR3B8T","A1AYQ8E01NSY5Z","3VJ4PFXFJ3TL96TFXMATEMT7KJHUAI","","null","<img src=""img/food6.png"" style=""width:200px; border:14px solid green;"">","null","","","","","","",""
"","image-keyboard-response","36","28091","0.0-36.0","3WQQ9FUS6BGUG3PORZEM2ORCCR3B8T","A1AYQ8E01NSY5Z","3VJ4PFXFJ3TL96TFXMATEMT7KJHUAI","","542","img/food6.png","76","543","3","1","3","1,0.7,0,1,0.7,0,0.7,0,1","",""
"","html-keyboard-response","37","28407","0.0-37.0","3WQQ9FUS6BGUG3PORZEM2ORCCR3B8T","A1AYQ8E01NSY5Z","3VJ4PFXFJ3TL96TFXMATEMT7KJHUAI","","null","<img src=""img/food6.png"" style=""width:200px; border:14px solid green;"">","null","","","","","","",""
"","image-keyboard-response","38","28828","0.0-38.0","3WQQ9FUS6BGUG3PORZEM2ORCCR3B8T","A1AYQ8E01NSY5Z","3VJ4PFXFJ3TL96TFXMATEMT7KJHUAI","","419","img/food6.png","76","420","3","1","3","1,0.7,0,1,0.7,0,0.7,0,1","",""
"","html-keyboard-response","39","29141","0.0-39.0","3WQQ9FUS6BGUG3PORZEM2ORCCR3B8T","A1AYQ8E01NSY5Z","3VJ4PFXFJ3TL96TFXMATEMT7KJHUAI","","null","<img src=""img/food6.png"" style=""width:200px; border:14px solid green;"">","null","","","","","","",""
"","image-keyboard-response","40","29827","0.0-40.0","3WQQ9FUS6BGUG3PORZEM2ORCCR3B8T","A1AYQ8E01NSY5Z","3VJ4PFXFJ3TL96TFXMATEMT7KJHUAI","","684","img/food3.png","74","686","1","1","1","1,0.7,0,1,0.7,0,0.7,0,1","",""
"","html-keyboard-response","41","30132","0.0-41.0","3WQQ9FUS6BGUG3PORZEM2ORCCR3B8T","A1AYQ8E01NSY5Z","3VJ4PFXFJ3TL96TFXMATEMT7KJHUAI","","null","<img src=""img/food3.png"" style=""width:200px; border:14px solid green;"">","null","","","","","","",""
"","image-keyboard-response","42","30762","0.0-42.0","3WQQ9FUS6BGUG3PORZEM2ORCCR3B8T","A1AYQ8E01NSY5Z","3VJ4PFXFJ3TL96TFXMATEMT7KJHUAI","","629","img/food5.png","75","629","2","0","2","1,0.7,0,1,0.7,0,0.7,0,1","",""
"","html-keyboard-response","43","31073","0.0-43.0","3WQQ9FUS6BGUG3PORZEM2ORCCR3B8T","A1AYQ8E01NSY5Z","3VJ4PFXFJ3TL96TFXMATEMT7KJHUAI","","null","<img src=""img/food5.png"" style=""width:200px;border:14px solid red;"">","null","","","","","","",""
"","image-keyboard-response","44","31396","0.0-44.0","3WQQ9FUS6BGUG3PORZEM2ORCCR3B8T","A1AYQ8E01NSY5Z","3VJ4PFXFJ3TL96TFXMATEMT7KJHUAI","","321","img/food6.png","74","323","1","1","3","1,0.7,0,1,0.7,0,0.7,0,1","",""
"","html-keyboard-response","45","31716","0.0-45.0","3WQQ9FUS6BGUG3PORZEM2ORCCR3B8T","A1AYQ8E01NSY5Z","3VJ4PFXFJ3TL96TFXMATEMT7KJHUAI","","null","<img src=""img/food6.png"" style=""width:200px; border:14px solid green;"">","null","","","","","","",""
"","image-keyboard-response","46","32404","0.0-46.0","3WQQ9FUS6BGUG3PORZEM2ORCCR3B8T","A1AYQ8E01NSY5Z","3VJ4PFXFJ3TL96TFXMATEMT7KJHUAI","","686","img/food5.png","74","688","1","1","2","1,0.7,0,1,0.7,0,0.7,0,1","",""
"","html-keyboard-response","47","32711","0.0-47.0","3WQQ9FUS6BGUG3PORZEM2ORCCR3B8T","A1AYQ8E01NSY5Z","3VJ4PFXFJ3TL96TFXMATEMT7KJHUAI","","null","<img src=""img/food5.png"" style=""width:200px; border:14px solid green;"">","null","","","","","","",""
"","image-keyboard-response","48","33074","0.0-48.0","3WQQ9FUS6BGUG3PORZEM2ORCCR3B8T","A1AYQ8E01NSY5Z","3VJ4PFXFJ3TL96TFXMATEMT7KJHUAI","","362","img/food5.png","74","362","1","1","2","1,0.7,0,1,0.7,0,0.7,0,1","",""
"","html-keyboard-response","49","33382","0.0-49.0","3WQQ9FUS6BGUG3PORZEM2ORCCR3B8T","A1AYQ8E01NSY5Z","3VJ4PFXFJ3TL96TFXMATEMT7KJHUAI","","null","<img src=""img/food5.png"" style=""width:200px; border:14px solid green;"">","null","","","","","","",""
"","image-keyboard-response","50","33738","0.0-50.0","3WQQ9FUS6BGUG3PORZEM2ORCCR3B8T","A1AYQ8E01NSY5Z","3VJ4PFXFJ3TL96TFXMATEMT7KJHUAI","","354","img/food5.png","74","354","1","1","2","1,0.7,0,1,0.7,0,0.7,0,1","",""
"","html-keyboard-response","51","34053","0.0-51.0","3WQQ9FUS6BGUG3PORZEM2ORCCR3B8T","A1AYQ8E01NSY5Z","3VJ4PFXFJ3TL96TFXMATEMT7KJHUAI","","null","<img src=""img/food5.png"" style=""width:200px; border:14px solid green;"">","null","","","","","","",""
"","image-keyboard-response","52","34699","0.0-52.0","3WQQ9FUS6BGUG3PORZEM2ORCCR3B8T","A1AYQ8E01NSY5Z","3VJ4PFXFJ3TL96TFXMATEMT7KJHUAI","","644","img/food6.png","76","646","3","1","3","1,0.7,0,1,0.7,0,0.7,0,1","",""
"","html-keyboard-response","53","35004","0.0-53.0","3WQQ9FUS6BGUG3PORZEM2ORCCR3B8T","A1AYQ8E01NSY5Z","3VJ4PFXFJ3TL96TFXMATEMT7KJHUAI","","null","<img src=""img/food6.png"" style=""width:200px; border:14px solid green;"">","null","","","","","","",""
"","image-keyboard-response","54","35570","0.0-54.0","3WQQ9FUS6BGUG3PORZEM2ORCCR3B8T","A1AYQ8E01NSY5Z","3VJ4PFXFJ3TL96TFXMATEMT7KJHUAI","","565","img/food5.png","74","566","1","1","2","1,0.7,0,1,0.7,0,0.7,0,1","",""
"","html-keyboard-response","55","35872","0.0-55.0","3WQQ9FUS6BGUG3PORZEM2ORCCR3B8T","A1AYQ8E01NSY5Z","3VJ4PFXFJ3TL96TFXMATEMT7KJHUAI","","null","<img src=""img/food5.png"" style=""width:200px; border:14px solid green;"">","null","","","","","","",""
"","image-keyboard-response","56","36748","0.0-56.0","3WQQ9FUS6BGUG3PORZEM2ORCCR3B8T","A1AYQ8E01NSY5Z","3VJ4PFXFJ3TL96TFXMATEMT7KJHUAI","","873","img/food6.png","76","875","3","1","3","1,0.7,0,1,0.7,0,0.7,0,1","",""
"","html-keyboard-response","57","37059","0.0-57.0","3WQQ9FUS6BGUG3PORZEM2ORCCR3B8T","A1AYQ8E01NSY5Z","3VJ4PFXFJ3TL96TFXMATEMT7KJHUAI","","null","<img src=""img/food6.png"" style=""width:200px; border:14px solid green;"">","null","","","","","","",""
"","image-keyboard-response","58","37724","0.0-58.0","3WQQ9FUS6BGUG3PORZEM2ORCCR3B8T","A1AYQ8E01NSY5Z","3VJ4PFXFJ3TL96TFXMATEMT7KJHUAI","","661","img/food5.png","75","663","2","1","2","1,0.7,0,1,0.7,0,0.7,0,1","",""
"","html-keyboard-response","59","38030","0.0-59.0","3WQQ9FUS6BGUG3PORZEM2ORCCR3B8T","A1AYQ8E01NSY5Z","3VJ4PFXFJ3TL96TFXMATEMT7KJHUAI","","null","<img src=""img/food5.png"" style=""width:200px; border:14px solid green;"">","null","","","","","","",""
"","image-keyboard-response","60","38444","0.0-60.0","3WQQ9FUS6BGUG3PORZEM2ORCCR3B8T","A1AYQ8E01NSY5Z","3VJ4PFXFJ3TL96TFXMATEMT7KJHUAI","","412","img/food5.png","75","413","2","1","2","1,0.7,0,1,0.7,0,0.7,0,1","",""
"","html-keyboard-response","61","38750","0.0-61.0","3WQQ9FUS6BGUG3PORZEM2ORCCR3B8T","A1AYQ8E01NSY5Z","3VJ4PFXFJ3TL96TFXMATEMT7KJHUAI","","null","<img src=""img/food5.png"" style=""width:200px; border:14px solid green;"">","null","","","","","","",""
"","image-keyboard-response","62","39628","0.0-62.0","3WQQ9FUS6BGUG3PORZEM2ORCCR3B8T","A1AYQ8E01NSY5Z","3VJ4PFXFJ3TL96TFXMATEMT7KJHUAI","","875","img/food6.png","76","878","3","1","3","1,0.7,0,1,0.7,0,0.7,0,1","",""
"","html-keyboard-response","63","39935","0.0-63.0","3WQQ9FUS6BGUG3PORZEM2ORCCR3B8T","A1AYQ8E01NSY5Z","3VJ4PFXFJ3TL96TFXMATEMT7KJHUAI","","null","<img src=""img/food6.png"" style=""width:200px; border:14px solid green;"">","null","","","","","","",""
"","image-keyboard-response","64","40610","0.0-64.0","3WQQ9FUS6BGUG3PORZEM2ORCCR3B8T","A1AYQ8E01NSY5Z","3VJ4PFXFJ3TL96TFXMATEMT7KJHUAI","","673","img/food3.png","74","674","1","1","1","1,0.7,0,1,0.7,0,0.7,0,1","",""
"","html-keyboard-response","65","40919","0.0-65.0","3WQQ9FUS6BGUG3PORZEM2ORCCR3B8T","A1AYQ8E01NSY5Z","3VJ4PFXFJ3TL96TFXMATEMT7KJHUAI","","null","<img src=""img/food3.png"" style=""width:200px; border:14px solid green;"">","null","","","","","","",""
"","image-keyboard-response","66","41444","0.0-66.0","3WQQ9FUS6BGUG3PORZEM2ORCCR3B8T","A1AYQ8E01NSY5Z","3VJ4PFXFJ3TL96TFXMATEMT7KJHUAI","","523","img/food3.png","74","524","1","1","1","1,0.7,0,1,0.7,0,0.7,0,1","",""
"","html-keyboard-response","67","41758","0.0-67.0","3WQQ9FUS6BGUG3PORZEM2ORCCR3B8T","A1AYQ8E01NSY5Z","3VJ4PFXFJ3TL96TFXMATEMT7KJHUAI","","null","<img src=""img/food3.png"" style=""width:200px; border:14px solid green;"">","null","","","","","","",""
"","image-keyboard-response","68","42098","0.0-68.0","3WQQ9FUS6BGUG3PORZEM2ORCCR3B8T","A1AYQ8E01NSY5Z","3VJ4PFXFJ3TL96TFXMATEMT7KJHUAI","","338","img/food3.png","74","338","1","1","1","1,0.7,0,1,0.7,0,0.7,0,1","",""
"","html-keyboard-response","69","42411","0.0-69.0","3WQQ9FUS6BGUG3PORZEM2ORCCR3B8T","A1AYQ8E01NSY5Z","3VJ4PFXFJ3TL96TFXMATEMT7KJHUAI","","null","<img src=""img/food3.png"" style=""width:200px; border:14px solid green;"">","null","","","","","","",""
"","image-keyboard-response","70","42757","0.0-70.0","3WQQ9FUS6BGUG3PORZEM2ORCCR3B8T","A1AYQ8E01NSY5Z","3VJ4PFXFJ3TL96TFXMATEMT7KJHUAI","","343","img/food3.png","74","345","1","1","1","1,0.7,0,1,0.7,0,0.7,0,1","",""
"","html-keyboard-response","71","43064","0.0-71.0","3WQQ9FUS6BGUG3PORZEM2ORCCR3B8T","A1AYQ8E01NSY5Z","3VJ4PFXFJ3TL96TFXMATEMT7KJHUAI","","null","<img src=""img/food3.png"" style=""width:200px; border:14px solid green;"">","null","","","","","","",""
"","image-keyboard-response","72","43762","0.0-72.0","3WQQ9FUS6BGUG3PORZEM2ORCCR3B8T","A1AYQ8E01NSY5Z","3VJ4PFXFJ3TL96TFXMATEMT7KJHUAI","","696","img/food5.png","75","697","2","0","2","1,0.7,0,1,0.7,0,0.7,0,1","",""
"","html-keyboard-response","73","44065","0.0-73.0","3WQQ9FUS6BGUG3PORZEM2ORCCR3B8T","A1AYQ8E01NSY5Z","3VJ4PFXFJ3TL96TFXMATEMT7KJHUAI","","null","<img src=""img/food5.png"" style=""width:200px;border:14px solid red;"">","null","","","","","","",""
"","image-keyboard-response","74","44426","0.0-74.0","3WQQ9FUS6BGUG3PORZEM2ORCCR3B8T","A1AYQ8E01NSY5Z","3VJ4PFXFJ3TL96TFXMATEMT7KJHUAI","","359","img/food5.png","74","361","1","1","2","1,0.7,0,1,0.7,0,0.7,0,1","",""
"","html-keyboard-response","75","44734","0.0-75.0","3WQQ9FUS6BGUG3PORZEM2ORCCR3B8T","A1AYQ8E01NSY5Z","3VJ4PFXFJ3TL96TFXMATEMT7KJHUAI","","null","<img src=""img/food5.png"" style=""width:200px; border:14px solid green;"">","null","","","","","","",""
"","image-keyboard-response","76","45371","0.0-76.0","3WQQ9FUS6BGUG3PORZEM2ORCCR3B8T","A1AYQ8E01NSY5Z","3VJ4PFXFJ3TL96TFXMATEMT7KJHUAI","","634","img/food6.png","76","636","3","1","3","1,0.7,0,1,0.7,0,0.7,0,1","",""
"","html-keyboard-response","77","45684","0.0-77.0","3WQQ9FUS6BGUG3PORZEM2ORCCR3B8T","A1AYQ8E01NSY5Z","3VJ4PFXFJ3TL96TFXMATEMT7KJHUAI","","null","<img src=""img/food6.png"" style=""width:200px; border:14px solid green;"">","null","","","","","","",""
"","image-keyboard-response","78","46259","0.0-78.0","3WQQ9FUS6BGUG3PORZEM2ORCCR3B8T","A1AYQ8E01NSY5Z","3VJ4PFXFJ3TL96TFXMATEMT7KJHUAI","","574","img/food3.png","74","575","1","1","1","1,0.7,0,1,0.7,0,0.7,0,1","",""
"","html-keyboard-response","79","46576","0.0-79.0","3WQQ9FUS6BGUG3PORZEM2ORCCR3B8T","A1AYQ8E01NSY5Z","3VJ4PFXFJ3TL96TFXMATEMT7KJHUAI","","null","<img src=""img/food3.png"" style=""width:200px; border:14px solid green;"">","null","","","","","","",""
"","image-keyboard-response","80","47427","0.0-80.0","3WQQ9FUS6BGUG3PORZEM2ORCCR3B8T","A1AYQ8E01NSY5Z","3VJ4PFXFJ3TL96TFXMATEMT7KJHUAI","","849","img/food6.png","76","850","3","1","3","1,0.7,0,1,0.7,0,0.7,0,1","",""
"","html-keyboard-response","81","47734","0.0-81.0","3WQQ9FUS6BGUG3PORZEM2ORCCR3B8T","A1AYQ8E01NSY5Z","3VJ4PFXFJ3TL96TFXMATEMT7KJHUAI","","null","<img src=""img/food6.png"" style=""width:200px; border:14px solid green;"">","null","","","","","","",""
"","image-keyboard-response","82","48452","0.0-82.0","3WQQ9FUS6BGUG3PORZEM2ORCCR3B8T","A1AYQ8E01NSY5Z","3VJ4PFXFJ3TL96TFXMATEMT7KJHUAI","","716","img/food6.png","76","718","3","1","3","1,0.7,0,1,0.7,0,0.7,0,1","",""
"","html-keyboard-response","83","48765","0.0-83.0","3WQQ9FUS6BGUG3PORZEM2ORCCR3B8T","A1AYQ8E01NSY5Z","3VJ4PFXFJ3TL96TFXMATEMT7KJHUAI","","null","<img src=""img/food6.png"" style=""width:200px; border:14px solid green;"">","null","","","","","","",""
"","image-keyboard-response","84","49509","0.0-84.0","3WQQ9FUS6BGUG3PORZEM2ORCCR3B8T","A1AYQ8E01NSY5Z","3VJ4PFXFJ3TL96TFXMATEMT7KJHUAI","","740","img/food5.png","75","742","2","1","2","1,0.7,0,1,0.7,0,0.7,0,1","",""
"","html-keyboard-response","85","49811","0.0-85.0","3WQQ9FUS6BGUG3PORZEM2ORCCR3B8T","A1AYQ8E01NSY5Z","3VJ4PFXFJ3TL96TFXMATEMT7KJHUAI","","null","<img src=""img/food5.png"" style=""width:200px; border:14px solid green;"">","null","","","","","","",""
"","image-keyboard-response","86","50402","0.0-86.0","3WQQ9FUS6BGUG3PORZEM2ORCCR3B8T","A1AYQ8E01NSY5Z","3VJ4PFXFJ3TL96TFXMATEMT7KJHUAI","","589","img/food5.png","75","590","2","1","2","1,0.7,0,1,0.7,0,0.7,0,1","",""
"","html-keyboard-response","87","50717","0.0-87.0","3WQQ9FUS6BGUG3PORZEM2ORCCR3B8T","A1AYQ8E01NSY5Z","3VJ4PFXFJ3TL96TFXMATEMT7KJHUAI","","null","<img src=""img/food5.png"" style=""width:200px; border:14px solid green;"">","null","","","","","","",""
"","image-keyboard-response","88","51411","0.0-88.0","3WQQ9FUS6BGUG3PORZEM2ORCCR3B8T","A1AYQ8E01NSY5Z","3VJ4PFXFJ3TL96TFXMATEMT7KJHUAI","","692","img/food3.png","74","693","1","1","1","1,0.7,0,1,0.7,0,0.7,0,1","",""
"","html-keyboard-response","89","51713","0.0-89.0","3WQQ9FUS6BGUG3PORZEM2ORCCR3B8T","A1AYQ8E01NSY5Z","3VJ4PFXFJ3TL96TFXMATEMT7KJHUAI","","null","<img src=""img/food3.png"" style=""width:200px; border:14px solid green;"">","null","","","","","","",""
"","image-keyboard-response","90","52340","0.0-90.0","3WQQ9FUS6BGUG3PORZEM2ORCCR3B8T","A1AYQ8E01NSY5Z","3VJ4PFXFJ3TL96TFXMATEMT7KJHUAI","","624","img/food3.png","74","626","1","1","1","1,0.7,0,1,0.7,0,0.7,0,1","",""
"","html-keyboard-response","91","52643","0.0-91.0","3WQQ9FUS6BGUG3PORZEM2ORCCR3B8T","A1AYQ8E01NSY5Z","3VJ4PFXFJ3TL96TFXMATEMT7KJHUAI","","null","<img src=""img/food3.png"" style=""width:200px; border:14px solid green;"">","null","","","","","","",""
"","image-keyboard-response","92","53004","0.0-92.0","3WQQ9FUS6BGUG3PORZEM2ORCCR3B8T","A1AYQ8E01NSY5Z","3VJ4PFXFJ3TL96TFXMATEMT7KJHUAI","","360","img/food3.png","74","361","1","1","1","1,0.7,0,1,0.7,0,0.7,0,1","",""
"","html-keyboard-response","93","53313","0.0-93.0","3WQQ9FUS6BGUG3PORZEM2ORCCR3B8T","A1AYQ8E01NSY5Z","3VJ4PFXFJ3TL96TFXMATEMT7KJHUAI","","null","<img src=""img/food3.png"" style=""width:200px; border:14px solid green;"">","null","","","","","","",""
"","image-keyboard-response","94","53930","0.0-94.0","3WQQ9FUS6BGUG3PORZEM2ORCCR3B8T","A1AYQ8E01NSY5Z","3VJ4PFXFJ3TL96TFXMATEMT7KJHUAI","","616","img/food6.png","76","616","3","1","3","1,0.7,0,1,0.7,0,0.7,0,1","",""
"","html-keyboard-response","95","54246","0.0-95.0","3WQQ9FUS6BGUG3PORZEM2ORCCR3B8T","A1AYQ8E01NSY5Z","3VJ4PFXFJ3TL96TFXMATEMT7KJHUAI","","null","<img src=""img/food6.png"" style=""width:200px; border:14px solid green;"">","null","","","","","","",""
"","image-keyboard-response","96","54684","0.0-96.0","3WQQ9FUS6BGUG3PORZEM2ORCCR3B8T","A1AYQ8E01NSY5Z","3VJ4PFXFJ3TL96TFXMATEMT7KJHUAI","","436","img/food6.png","76","438","3","1","3","1,0.7,0,1,0.7,0,0.7,0,1","",""
"","html-keyboard-response","97","54996","0.0-97.0","3WQQ9FUS6BGUG3PORZEM2ORCCR3B8T","A1AYQ8E01NSY5Z","3VJ4PFXFJ3TL96TFXMATEMT7KJHUAI","","null","<img src=""img/food6.png"" style=""width:200px; border:14px solid green;"">","null","","","","","","",""
"","image-keyboard-response","98","55564","0.0-98.0","3WQQ9FUS6BGUG3PORZEM2ORCCR3B8T","A1AYQ8E01NSY5Z","3VJ4PFXFJ3TL96TFXMATEMT7KJHUAI","","565","img/food6.png","76","567","3","1","3","1,0.7,0,1,0.7,0,0.7,0,1","",""
"","html-keyboard-response","99","55872","0.0-99.0","3WQQ9FUS6BGUG3PORZEM2ORCCR3B8T","A1AYQ8E01NSY5Z","3VJ4PFXFJ3TL96TFXMATEMT7KJHUAI","","null","<img src=""img/food6.png"" style=""width:200px; border:14px solid green;"">","null","","","","","","",""
"","image-keyboard-response","100","56363","0.0-100.0","3WQQ9FUS6BGUG3PORZEM2ORCCR3B8T","A1AYQ8E01NSY5Z","3VJ4PFXFJ3TL96TFXMATEMT7KJHUAI","","489","img/food6.png","76","491","3","1","3","1,0.7,0,1,0.7,0,0.7,0,1","",""
"","html-keyboard-response","101","56670","0.0-101.0","3WQQ9FUS6BGUG3PORZEM2ORCCR3B8T","A1AYQ8E01NSY5Z","3VJ4PFXFJ3TL96TFXMATEMT7KJHUAI","","null","<img src=""img/food6.png"" style=""width:200px; border:14px solid green;"">","null","","","","","","",""
"","image-keyboard-response","102","57491","0.0-102.0","3WQQ9FUS6BGUG3PORZEM2ORCCR3B8T","A1AYQ8E01NSY5Z","3VJ4PFXFJ3TL96TFXMATEMT7KJHUAI","","819","img/food5.png","75","821","2","1","2","1,0.7,0,1,0.7,0,0.7,0,1","",""
"","html-keyboard-response","103","57798","0.0-103.0","3WQQ9FUS6BGUG3PORZEM2ORCCR3B8T","A1AYQ8E01NSY5Z","3VJ4PFXFJ3TL96TFXMATEMT7KJHUAI","","null","<img src=""img/food5.png"" style=""width:200px; border:14px solid green;"">","null","","","","","","",""
"","image-keyboard-response","104","58477","0.0-104.0","3WQQ9FUS6BGUG3PORZEM2ORCCR3B8T","A1AYQ8E01NSY5Z","3VJ4PFXFJ3TL96TFXMATEMT7KJHUAI","","677","img/food3.png","74","679","1","1","1","1,0.7,0,1,0.7,0,0.7,0,1","",""
"","html-keyboard-response","105","58790","0.0-105.0","3WQQ9FUS6BGUG3PORZEM2ORCCR3B8T","A1AYQ8E01NSY5Z","3VJ4PFXFJ3TL96TFXMATEMT7KJHUAI","","null","<img src=""img/food3.png"" style=""width:200px; border:14px solid green;"">","null","","","","","","",""
"","image-keyboard-response","106","59571","0.0-106.0","3WQQ9FUS6BGUG3PORZEM2ORCCR3B8T","A1AYQ8E01NSY5Z","3VJ4PFXFJ3TL96TFXMATEMT7KJHUAI","","779","img/food6.png","76","780","3","1","3","1,0.7,0,1,0.7,0,0.7,0,1","",""
"","html-keyboard-response","107","59887","0.0-107.0","3WQQ9FUS6BGUG3PORZEM2ORCCR3B8T","A1AYQ8E01NSY5Z","3VJ4PFXFJ3TL96TFXMATEMT7KJHUAI","","null","<img src=""img/food6.png"" style=""width:200px; border:14px solid green;"">","null","","","","","","",""
"","image-keyboard-response","108","60479","0.0-108.0","3WQQ9FUS6BGUG3PORZEM2ORCCR3B8T","A1AYQ8E01NSY5Z","3VJ4PFXFJ3TL96TFXMATEMT7KJHUAI","","591","img/food5.png","75","592","2","0","2","1,0.7,0,1,0.7,0,0.7,0,1","",""
"","html-keyboard-response","109","60796","0.0-109.0","3WQQ9FUS6BGUG3PORZEM2ORCCR3B8T","A1AYQ8E01NSY5Z","3VJ4PFXFJ3TL96TFXMATEMT7KJHUAI","","null","<img src=""img/food5.png"" style=""width:200px;border:14px solid red;"">","null","","","","","","",""
"","image-keyboard-response","110","61322","0.0-110.0","3WQQ9FUS6BGUG3PORZEM2ORCCR3B8T","A1AYQ8E01NSY5Z","3VJ4PFXFJ3TL96TFXMATEMT7KJHUAI","","524","img/food6.png","74","525","1","1","3","1,0.7,0,1,0.7,0,0.7,0,1","",""
"","html-keyboard-response","111","61628","0.0-111.0","3WQQ9FUS6BGUG3PORZEM2ORCCR3B8T","A1AYQ8E01NSY5Z","3VJ4PFXFJ3TL96TFXMATEMT7KJHUAI","","null","<img src=""img/food6.png"" style=""width:200px; border:14px solid green;"">","null","","","","","","",""
"","image-keyboard-response","112","62067","0.0-112.0","3WQQ9FUS6BGUG3PORZEM2ORCCR3B8T","A1AYQ8E01NSY5Z","3VJ4PFXFJ3TL96TFXMATEMT7KJHUAI","","438","img/food6.png","74","440","1","1","3","1,0.7,0,1,0.7,0,0.7,0,1","",""
"","html-keyboard-response","113","62377","0.0-113.0","3WQQ9FUS6BGUG3PORZEM2ORCCR3B8T","A1AYQ8E01NSY5Z","3VJ4PFXFJ3TL96TFXMATEMT7KJHUAI","","null","<img src=""img/food6.png"" style=""width:200px; border:14px solid green;"">","null","","","","","","",""
"","image-keyboard-response","114","63188","0.0-114.0","3WQQ9FUS6BGUG3PORZEM2ORCCR3B8T","A1AYQ8E01NSY5Z","3VJ4PFXFJ3TL96TFXMATEMT7KJHUAI","","808","img/food3.png","74","811","1","1","1","1,0.7,0,1,0.7,0,0.7,0,1","",""
"","html-keyboard-response","115","63499","0.0-115.0","3WQQ9FUS6BGUG3PORZEM2ORCCR3B8T","A1AYQ8E01NSY5Z","3VJ4PFXFJ3TL96TFXMATEMT7KJHUAI","","null","<img src=""img/food3.png"" style=""width:200px; border:14px solid green;"">","null","","","","","","",""
"","image-keyboard-response","116","64034","0.0-116.0","3WQQ9FUS6BGUG3PORZEM2ORCCR3B8T","A1AYQ8E01NSY5Z","3VJ4PFXFJ3TL96TFXMATEMT7KJHUAI","","532","img/food3.png","74","534","1","1","1","1,0.7,0,1,0.7,0,0.7,0,1","",""
"","html-keyboard-response","117","64342","0.0-117.0","3WQQ9FUS6BGUG3PORZEM2ORCCR3B8T","A1AYQ8E01NSY5Z","3VJ4PFXFJ3TL96TFXMATEMT7KJHUAI","","null","<img src=""img/food3.png"" style=""width:200px; border:14px solid green;"">","null","","","","","","",""
"","image-keyboard-response","118","64954","0.0-118.0","3WQQ9FUS6BGUG3PORZEM2ORCCR3B8T","A1AYQ8E01NSY5Z","3VJ4PFXFJ3TL96TFXMATEMT7KJHUAI","","611","img/food5.png","75","612","2","1","2","1,0.7,0,1,0.7,0,0.7,0,1","",""
"","html-keyboard-response","119","65264","0.0-119.0","3WQQ9FUS6BGUG3PORZEM2ORCCR3B8T","A1AYQ8E01NSY5Z","3VJ4PFXFJ3TL96TFXMATEMT7KJHUAI","","null","<img src=""img/food5.png"" style=""width:200px; border:14px solid green;"">","null","","","","","","",""
"","image-keyboard-response","120","66005","0.0-120.0","3WQQ9FUS6BGUG3PORZEM2ORCCR3B8T","A1AYQ8E01NSY5Z","3VJ4PFXFJ3TL96TFXMATEMT7KJHUAI","","739","img/food3.png","74","741","1","1","1","1,0.7,0,1,0.7,0,0.7,0,1","",""
"","html-keyboard-response","121","66318","0.0-121.0","3WQQ9FUS6BGUG3PORZEM2ORCCR3B8T","A1AYQ8E01NSY5Z","3VJ4PFXFJ3TL96TFXMATEMT7KJHUAI","","null","<img src=""img/food3.png"" style=""width:200px; border:14px solid green;"">","null","","","","","","",""
"","image-keyboard-response","122","67127","0.0-122.0","3WQQ9FUS6BGUG3PORZEM2ORCCR3B8T","A1AYQ8E01NSY5Z","3VJ4PFXFJ3TL96TFXMATEMT7KJHUAI","","802","img/food6.png","76","806","3","1","3","1,0.7,0,1,0.7,0,0.7,0,1","",""
"","html-keyboard-response","123","67435","0.0-123.0","3WQQ9FUS6BGUG3PORZEM2ORCCR3B8T","A1AYQ8E01NSY5Z","3VJ4PFXFJ3TL96TFXMATEMT7KJHUAI","","null","<img src=""img/food6.png"" style=""width:200px; border:14px solid green;"">","null","","","","","","",""
"","image-keyboard-response","124","68105","0.0-124.0","3WQQ9FUS6BGUG3PORZEM2ORCCR3B8T","A1AYQ8E01NSY5Z","3VJ4PFXFJ3TL96TFXMATEMT7KJHUAI","","668","img/food3.png","74","669","1","1","1","1,0.7,0,1,0.7,0,0.7,0,1","",""
"","html-keyboard-response","125","68435","0.0-125.0","3WQQ9FUS6BGUG3PORZEM2ORCCR3B8T","A1AYQ8E01NSY5Z","3VJ4PFXFJ3TL96TFXMATEMT7KJHUAI","","null","<img src=""img/food3.png"" style=""width:200px; border:14px solid green;"">","null","","","","","","",""
"","image-keyboard-response","126","68956","0.0-126.0","3WQQ9FUS6BGUG3PORZEM2ORCCR3B8T","A1AYQ8E01NSY5Z","3VJ4PFXFJ3TL96TFXMATEMT7KJHUAI","","518","img/food3.png","74","522","1","1","1","1,0.7,0,1,0.7,0,0.7,0,1","",""
"","html-keyboard-response","127","69273","0.0-127.0","3WQQ9FUS6BGUG3PORZEM2ORCCR3B8T","A1AYQ8E01NSY5Z","3VJ4PFXFJ3TL96TFXMATEMT7KJHUAI","","null","<img src=""img/food3.png"" style=""width:200px; border:14px solid green;"">","null","","","","","","",""
"","image-keyboard-response","128","69956","0.0-128.0","3WQQ9FUS6BGUG3PORZEM2ORCCR3B8T","A1AYQ8E01NSY5Z","3VJ4PFXFJ3TL96TFXMATEMT7KJHUAI","","680","img/food5.png","75","683","2","1","2","1,0.7,0,1,0.7,0,0.7,0,1","",""
"","html-keyboard-response","129","70291","0.0-129.0","3WQQ9FUS6BGUG3PORZEM2ORCCR3B8T","A1AYQ8E01NSY5Z","3VJ4PFXFJ3TL96TFXMATEMT7KJHUAI","","null","<img src=""img/food5.png"" style=""width:200px; border:14px solid green;"">","null","","","","","","",""
"","image-keyboard-response","130","72027","0.0-130.0","3WQQ9FUS6BGUG3PORZEM2ORCCR3B8T","A1AYQ8E01NSY5Z","3VJ4PFXFJ3TL96TFXMATEMT7KJHUAI","","1734","img/food6.png","74","1736","1","1","3","1,0.7,0,1,0.7,0,0.7,0,1","",""
"","html-keyboard-response","131","72340","0.0-131.0","3WQQ9FUS6BGUG3PORZEM2ORCCR3B8T","A1AYQ8E01NSY5Z","3VJ4PFXFJ3TL96TFXMATEMT7KJHUAI","","null","<img src=""img/food6.png"" style=""width:200px; border:14px solid green;"">","null","","","","","","",""
"","image-keyboard-response","132","73050","0.0-132.0","3WQQ9FUS6BGUG3PORZEM2ORCCR3B8T","A1AYQ8E01NSY5Z","3VJ4PFXFJ3TL96TFXMATEMT7KJHUAI","","708","img/food3.png","74","709","1","1","1","1,0.7,0,1,0.7,0,0.7,0,1","",""
"","html-keyboard-response","133","73355","0.0-133.0","3WQQ9FUS6BGUG3PORZEM2ORCCR3B8T","A1AYQ8E01NSY5Z","3VJ4PFXFJ3TL96TFXMATEMT7KJHUAI","","null","<img src=""img/food3.png"" style=""width:200px; border:14px solid green;"">","null","","","","","","",""
"","image-keyboard-response","134","73988","0.0-134.0","3WQQ9FUS6BGUG3PORZEM2ORCCR3B8T","A1AYQ8E01NSY5Z","3VJ4PFXFJ3TL96TFXMATEMT7KJHUAI","","630","img/food3.png","74","631","1","1","1","1,0.7,0,1,0.7,0,0.7,0,1","",""
"","html-keyboard-response","135","74327","0.0-135.0","3WQQ9FUS6BGUG3PORZEM2ORCCR3B8T","A1AYQ8E01NSY5Z","3VJ4PFXFJ3TL96TFXMATEMT7KJHUAI","","null","<img src=""img/food3.png"" style=""width:200px; border:14px solid green;"">","null","","","","","","",""
"","image-keyboard-response","136","75163","0.0-136.0","3WQQ9FUS6BGUG3PORZEM2ORCCR3B8T","A1AYQ8E01NSY5Z","3VJ4PFXFJ3TL96TFXMATEMT7KJHUAI","","833","img/food6.png","76","836","3","1","3","1,0.7,0,1,0.7,0,0.7,0,1","",""
"","html-keyboard-response","137","75469","0.0-137.0","3WQQ9FUS6BGUG3PORZEM2ORCCR3B8T","A1AYQ8E01NSY5Z","3VJ4PFXFJ3TL96TFXMATEMT7KJHUAI","","null","<img src=""img/food6.png"" style=""width:200px; border:14px solid green;"">","null","","","","","","",""
"","image-keyboard-response","138","76450","0.0-138.0","3WQQ9FUS6BGUG3PORZEM2ORCCR3B8T","A1AYQ8E01NSY5Z","3VJ4PFXFJ3TL96TFXMATEMT7KJHUAI","","980","img/food6.png","76","981","3","1","3","1,0.7,0,1,0.7,0,0.7,0,1","",""
"","html-keyboard-response","139","76763","0.0-139.0","3WQQ9FUS6BGUG3PORZEM2ORCCR3B8T","A1AYQ8E01NSY5Z","3VJ4PFXFJ3TL96TFXMATEMT7KJHUAI","","null","<img src=""img/food6.png"" style=""width:200px; border:14px solid green;"">","null","","","","","","",""
"","image-keyboard-response","140","77531","0.0-140.0","3WQQ9FUS6BGUG3PORZEM2ORCCR3B8T","A1AYQ8E01NSY5Z","3VJ4PFXFJ3TL96TFXMATEMT7KJHUAI","","765","img/food5.png","75","766","2","1","2","1,0.7,0,1,0.7,0,0.7,0,1","",""
"","html-keyboard-response","141","77847","0.0-141.0","3WQQ9FUS6BGUG3PORZEM2ORCCR3B8T","A1AYQ8E01NSY5Z","3VJ4PFXFJ3TL96TFXMATEMT7KJHUAI","","null","<img src=""img/food5.png"" style=""width:200px; border:14px solid green;"">","null","","","","","","",""
"","image-keyboard-response","142","78227","0.0-142.0","3WQQ9FUS6BGUG3PORZEM2ORCCR3B8T","A1AYQ8E01NSY5Z","3VJ4PFXFJ3TL96TFXMATEMT7KJHUAI","","379","img/food5.png","75","381","2","1","2","1,0.7,0,1,0.7,0,0.7,0,1","",""
"","html-keyboard-response","143","78539","0.0-143.0","3WQQ9FUS6BGUG3PORZEM2ORCCR3B8T","A1AYQ8E01NSY5Z","3VJ4PFXFJ3TL96TFXMATEMT7KJHUAI","","null","<img src=""img/food5.png"" style=""width:200px; border:14px solid green;"">","null","","","","","","",""
"","image-keyboard-response","144","79563","0.0-144.0","3WQQ9FUS6BGUG3PORZEM2ORCCR3B8T","A1AYQ8E01NSY5Z","3VJ4PFXFJ3TL96TFXMATEMT7KJHUAI","","1023","img/food6.png","74","1024","1","1","3","1,0.7,0,1,0.7,0,0.7,0,1","",""
"","html-keyboard-response","145","79879","0.0-145.0","3WQQ9FUS6BGUG3PORZEM2ORCCR3B8T","A1AYQ8E01NSY5Z","3VJ4PFXFJ3TL96TFXMATEMT7KJHUAI","","null","<img src=""img/food6.png"" style=""width:200px; border:14px solid green;"">","null","","","","","","",""
"","image-keyboard-response","146","80474","0.0-146.0","3WQQ9FUS6BGUG3PORZEM2ORCCR3B8T","A1AYQ8E01NSY5Z","3VJ4PFXFJ3TL96TFXMATEMT7KJHUAI","","593","img/food6.png","74","593","1","0","3","1,0.7,0,1,0.7,0,0.7,0,1","",""
"","html-keyboard-response","147","80785","0.0-147.0","3WQQ9FUS6BGUG3PORZEM2ORCCR3B8T","A1AYQ8E01NSY5Z","3VJ4PFXFJ3TL96TFXMATEMT7KJHUAI","","null","<img src=""img/food6.png"" style=""width:200px;border:14px solid red;"">","null","","","","","","",""
"","image-keyboard-response","148","81395","0.0-148.0","3WQQ9FUS6BGUG3PORZEM2ORCCR3B8T","A1AYQ8E01NSY5Z","3VJ4PFXFJ3TL96TFXMATEMT7KJHUAI","","608","img/food5.png","75","609","2","1","2","1,0.7,0,1,0.7,0,0.7,0,1","",""
"","html-keyboard-response","149","81707","0.0-149.0","3WQQ9FUS6BGUG3PORZEM2ORCCR3B8T","A1AYQ8E01NSY5Z","3VJ4PFXFJ3TL96TFXMATEMT7KJHUAI","","null","<img src=""img/food5.png"" style=""width:200px; border:14px solid green;"">","null","","","","","","",""
"","image-keyboard-response","150","82196","0.0-150.0","3WQQ9FUS6BGUG3PORZEM2ORCCR3B8T","A1AYQ8E01NSY5Z","3VJ4PFXFJ3TL96TFXMATEMT7KJHUAI","","486","img/food5.png","75","488","2","1","2","1,0.7,0,1,0.7,0,0.7,0,1","",""
"","html-keyboard-response","151","82505","0.0-151.0","3WQQ9FUS6BGUG3PORZEM2ORCCR3B8T","A1AYQ8E01NSY5Z","3VJ4PFXFJ3TL96TFXMATEMT7KJHUAI","","null","<img src=""img/food5.png"" style=""width:200px; border:14px solid green;"">","null","","","","","","",""
"","image-keyboard-response","152","83243","0.0-152.0","3WQQ9FUS6BGUG3PORZEM2ORCCR3B8T","A1AYQ8E01NSY5Z","3VJ4PFXFJ3TL96TFXMATEMT7KJHUAI","","736","img/food3.png","74","736","1","1","1","1,0.7,0,1,0.7,0,0.7,0,1","",""
"","html-keyboard-response","153","83551","0.0-153.0","3WQQ9FUS6BGUG3PORZEM2ORCCR3B8T","A1AYQ8E01NSY5Z","3VJ4PFXFJ3TL96TFXMATEMT7KJHUAI","","null","<img src=""img/food3.png"" style=""width:200px; border:14px solid green;"">","null","","","","","","",""
"","image-keyboard-response","154","84276","0.0-154.0","3WQQ9FUS6BGUG3PORZEM2ORCCR3B8T","A1AYQ8E01NSY5Z","3VJ4PFXFJ3TL96TFXMATEMT7KJHUAI","","723","img/food6.png","76","724","3","1","3","1,0.7,0,1,0.7,0,0.7,0,1","",""
"","html-keyboard-response","155","84580","0.0-155.0","3WQQ9FUS6BGUG3PORZEM2ORCCR3B8T","A1AYQ8E01NSY5Z","3VJ4PFXFJ3TL96TFXMATEMT7KJHUAI","","null","<img src=""img/food6.png"" style=""width:200px; border:14px solid green;"">","null","","","","","","",""
"","image-keyboard-response","156","85188","0.0-156.0","3WQQ9FUS6BGUG3PORZEM2ORCCR3B8T","A1AYQ8E01NSY5Z","3VJ4PFXFJ3TL96TFXMATEMT7KJHUAI","","606","img/food3.png","74","608","1","1","1","1,0.7,0,1,0.7,0,0.7,0,1","",""
"","html-keyboard-response","157","85502","0.0-157.0","3WQQ9FUS6BGUG3PORZEM2ORCCR3B8T","A1AYQ8E01NSY5Z","3VJ4PFXFJ3TL96TFXMATEMT7KJHUAI","","null","<img src=""img/food3.png"" style=""width:200px; border:14px solid green;"">","null","","","","","","",""
"","image-keyboard-response","158","86179","0.0-158.0","3WQQ9FUS6BGUG3PORZEM2ORCCR3B8T","A1AYQ8E01NSY5Z","3VJ4PFXFJ3TL96TFXMATEMT7KJHUAI","","676","img/food5.png","75","677","2","1","2","1,0.7,0,1,0.7,0,0.7,0,1","",""
"","html-keyboard-response","159","86485","0.0-159.0","3WQQ9FUS6BGUG3PORZEM2ORCCR3B8T","A1AYQ8E01NSY5Z","3VJ4PFXFJ3TL96TFXMATEMT7KJHUAI","","null","<img src=""img/food5.png"" style=""width:200px; border:14px solid green;"">","null","","","","","","",""
"","image-keyboard-response","160","87289","0.0-160.0","3WQQ9FUS6BGUG3PORZEM2ORCCR3B8T","A1AYQ8E01NSY5Z","3VJ4PFXFJ3TL96TFXMATEMT7KJHUAI","","802","img/food6.png","76","803","3","1","3","1,0.7,0,1,0.7,0,0.7,0,1","",""
"","html-keyboard-response","161","87594","0.0-161.0","3WQQ9FUS6BGUG3PORZEM2ORCCR3B8T","A1AYQ8E01NSY5Z","3VJ4PFXFJ3TL96TFXMATEMT7KJHUAI","","null","<img src=""img/food6.png"" style=""width:200px; border:14px solid green;"">","null","","","","","","",""
"","image-keyboard-response","162","88251","0.0-162.0","3WQQ9FUS6BGUG3PORZEM2ORCCR3B8T","A1AYQ8E01NSY5Z","3VJ4PFXFJ3TL96TFXMATEMT7KJHUAI","","654","img/food5.png","75","657","2","1","2","1,0.7,0,1,0.7,0,0.7,0,1","",""
"","html-keyboard-response","163","88560","0.0-163.0","3WQQ9FUS6BGUG3PORZEM2ORCCR3B8T","A1AYQ8E01NSY5Z","3VJ4PFXFJ3TL96TFXMATEMT7KJHUAI","","null","<img src=""img/food5.png"" style=""width:200px; border:14px solid green;"">","null","","","","","","",""
"","image-keyboard-response","164","89162","0.0-164.0","3WQQ9FUS6BGUG3PORZEM2ORCCR3B8T","A1AYQ8E01NSY5Z","3VJ4PFXFJ3TL96TFXMATEMT7KJHUAI","","600","img/food5.png","75","601","2","0","2","1,0.7,0,1,0.7,0,0.7,0,1","",""
"","html-keyboard-response","165","89467","0.0-165.0","3WQQ9FUS6BGUG3PORZEM2ORCCR3B8T","A1AYQ8E01NSY5Z","3VJ4PFXFJ3TL96TFXMATEMT7KJHUAI","","null","<img src=""img/food5.png"" style=""width:200px;border:14px solid red;"">","null","","","","","","",""
"","image-keyboard-response","166","89979","0.0-166.0","3WQQ9FUS6BGUG3PORZEM2ORCCR3B8T","A1AYQ8E01NSY5Z","3VJ4PFXFJ3TL96TFXMATEMT7KJHUAI","","511","img/food6.png","74","512","1","0","3","1,0.7,0,1,0.7,0,0.7,0,1","",""
"","html-keyboard-response","167","90293","0.0-167.0","3WQQ9FUS6BGUG3PORZEM2ORCCR3B8T","A1AYQ8E01NSY5Z","3VJ4PFXFJ3TL96TFXMATEMT7KJHUAI","","null","<img src=""img/food6.png"" style=""width:200px;border:14px solid red;"">","null","","","","","","",""
"","image-keyboard-response","168","90732","0.0-168.0","3WQQ9FUS6BGUG3PORZEM2ORCCR3B8T","A1AYQ8E01NSY5Z","3VJ4PFXFJ3TL96TFXMATEMT7KJHUAI","","436","img/food3.png","76","439","3","0","1","1,0.7,0,1,0.7,0,0.7,0,1","",""
"","html-keyboard-response","169","91041","0.0-169.0","3WQQ9FUS6BGUG3PORZEM2ORCCR3B8T","A1AYQ8E01NSY5Z","3VJ4PFXFJ3TL96TFXMATEMT7KJHUAI","","null","<img src=""img/food3.png"" style=""width:200px;border:14px solid red;"">","null","","","","","","",""
"","image-keyboard-response","170","91507","0.0-170.0","3WQQ9FUS6BGUG3PORZEM2ORCCR3B8T","A1AYQ8E01NSY5Z","3VJ4PFXFJ3TL96TFXMATEMT7KJHUAI","","464","img/food3.png","74","464","1","1","1","1,0.7,0,1,0.7,0,0.7,0,1","",""
"","html-keyboard-response","171","91820","0.0-171.0","3WQQ9FUS6BGUG3PORZEM2ORCCR3B8T","A1AYQ8E01NSY5Z","3VJ4PFXFJ3TL96TFXMATEMT7KJHUAI","","null","<img src=""img/food3.png"" style=""width:200px; border:14px solid green;"">","null","","","","","","",""
"","image-keyboard-response","172","92491","0.0-172.0","3WQQ9FUS6BGUG3PORZEM2ORCCR3B8T","A1AYQ8E01NSY5Z","3VJ4PFXFJ3TL96TFXMATEMT7KJHUAI","","670","img/food5.png","75","671","2","0","2","1,0.7,0,1,0.7,0,0.7,0,1","",""
"","html-keyboard-response","173","92800","0.0-173.0","3WQQ9FUS6BGUG3PORZEM2ORCCR3B8T","A1AYQ8E01NSY5Z","3VJ4PFXFJ3TL96TFXMATEMT7KJHUAI","","null","<img src=""img/food5.png"" style=""width:200px;border:14px solid red;"">","null","","","","","","",""
"","image-keyboard-response","174","93459","0.0-174.0","3WQQ9FUS6BGUG3PORZEM2ORCCR3B8T","A1AYQ8E01NSY5Z","3VJ4PFXFJ3TL96TFXMATEMT7KJHUAI","","657","img/food3.png","74","659","1","1","1","1,0.7,0,1,0.7,0,0.7,0,1","",""
"","html-keyboard-response","175","93771","0.0-175.0","3WQQ9FUS6BGUG3PORZEM2ORCCR3B8T","A1AYQ8E01NSY5Z","3VJ4PFXFJ3TL96TFXMATEMT7KJHUAI","","null","<img src=""img/food3.png"" style=""width:200px; border:14px solid green;"">","null","","","","","","",""
"","image-keyboard-response","176","94379","0.0-176.0","3WQQ9FUS6BGUG3PORZEM2ORCCR3B8T","A1AYQ8E01NSY5Z","3VJ4PFXFJ3TL96TFXMATEMT7KJHUAI","","607","img/food6.png","76","609","3","1","3","1,0.7,0,1,0.7,0,0.7,0,1","",""
"","html-keyboard-response","177","94681","0.0-177.0","3WQQ9FUS6BGUG3PORZEM2ORCCR3B8T","A1AYQ8E01NSY5Z","3VJ4PFXFJ3TL96TFXMATEMT7KJHUAI","","null","<img src=""img/food6.png"" style=""width:200px; border:14px solid green;"">","null","","","","","","",""
"","image-keyboard-response","178","95176","0.0-178.0","3WQQ9FUS6BGUG3PORZEM2ORCCR3B8T","A1AYQ8E01NSY5Z","3VJ4PFXFJ3TL96TFXMATEMT7KJHUAI","","492","img/food5.png","74","494","1","1","2","1,0.7,0,1,0.7,0,0.7,0,1","",""
"","html-keyboard-response","179","95490","0.0-179.0","3WQQ9FUS6BGUG3PORZEM2ORCCR3B8T","A1AYQ8E01NSY5Z","3VJ4PFXFJ3TL96TFXMATEMT7KJHUAI","","null","<img src=""img/food5.png"" style=""width:200px; border:14px solid green;"">","null","","","","","","",""
"","image-keyboard-response","180","95899","0.0-180.0","3WQQ9FUS6BGUG3PORZEM2ORCCR3B8T","A1AYQ8E01NSY5Z","3VJ4PFXFJ3TL96TFXMATEMT7KJHUAI","","407","img/food5.png","74","409","1","1","2","1,0.7,0,1,0.7,0,0.7,0,1","",""
"","html-keyboard-response","181","96204","0.0-181.0","3WQQ9FUS6BGUG3PORZEM2ORCCR3B8T","A1AYQ8E01NSY5Z","3VJ4PFXFJ3TL96TFXMATEMT7KJHUAI","","null","<img src=""img/food5.png"" style=""width:200px; border:14px solid green;"">","null","","","","","","",""
"","html-keyboard-response","182","99652","0.0-182.0","3WQQ9FUS6BGUG3PORZEM2ORCCR3B8T","A1AYQ8E01NSY5Z","3VJ4PFXFJ3TL96TFXMATEMT7KJHUAI","","","","","","","","","","",""
"","instructions","183","112824","0.0-183.0","3WQQ9FUS6BGUG3PORZEM2ORCCR3B8T","A1AYQ8E01NSY5Z","3VJ4PFXFJ3TL96TFXMATEMT7KJHUAI","[{""page_index"":0,""viewing_time"":12184},{""page_index"":1,""viewing_time"":986}]","13170","","","","","","","","",""
"","image-keyboard-response","184","113458","0.0-184.0","3WQQ9FUS6BGUG3PORZEM2ORCCR3B8T","A1AYQ8E01NSY5Z","3VJ4PFXFJ3TL96TFXMATEMT7KJHUAI","","634","img/food4.png","75","634","2","1","2","1,0.7,0,1,0.7,0,0.7,0,1","false",""
"","html-keyboard-response","185","113792","0.0-185.0","3WQQ9FUS6BGUG3PORZEM2ORCCR3B8T","A1AYQ8E01NSY5Z","3VJ4PFXFJ3TL96TFXMATEMT7KJHUAI","","null","<img src=""img/food4.png"" style=""width:200px; border:14px solid green;"">","null","","","","","","",""
"","image-keyboard-response","186","114369","0.0-187.0","3WQQ9FUS6BGUG3PORZEM2ORCCR3B8T","A1AYQ8E01NSY5Z","3VJ4PFXFJ3TL96TFXMATEMT7KJHUAI","","575","img/food1.png","75","576","2","0","1","1,0.7,0,1,0.7,0,0.7,0,1","false",""
"","html-keyboard-response","187","114685","0.0-188.0","3WQQ9FUS6BGUG3PORZEM2ORCCR3B8T","A1AYQ8E01NSY5Z","3VJ4PFXFJ3TL96TFXMATEMT7KJHUAI","","null","<img src=""img/food1.png"" style=""width:200px;border:14px solid red;"">","null","","","","","","",""
"","image-keyboard-response","188","115291","0.0-190.0","3WQQ9FUS6BGUG3PORZEM2ORCCR3B8T","A1AYQ8E01NSY5Z","3VJ4PFXFJ3TL96TFXMATEMT7KJHUAI","","604","img/food4.png","74","606","1","1","2","1,0.7,0,1,0.7,0,0.7,0,1","false",""
"","html-keyboard-response","189","115603","0.0-191.0","3WQQ9FUS6BGUG3PORZEM2ORCCR3B8T","A1AYQ8E01NSY5Z","3VJ4PFXFJ3TL96TFXMATEMT7KJHUAI","","null","<img src=""img/food4.png"" style=""width:200px; border:14px solid green;"">","null","","","","","","",""
"","image-keyboard-response","190","116059","0.0-193.0","3WQQ9FUS6BGUG3PORZEM2ORCCR3B8T","A1AYQ8E01NSY5Z","3VJ4PFXFJ3TL96TFXMATEMT7KJHUAI","","453","img/food2.png","74","454","1","1","3","1,0.7,0,1,0.7,0,0.7,0,1","false",""
"","html-keyboard-response","191","116386","0.0-194.0","3WQQ9FUS6BGUG3PORZEM2ORCCR3B8T","A1AYQ8E01NSY5Z","3VJ4PFXFJ3TL96TFXMATEMT7KJHUAI","","null","<img src=""img/food2.png"" style=""width:200px; border:14px solid green;"">","null","","","","","","",""
"","image-keyboard-response","192","116867","0.0-196.0","3WQQ9FUS6BGUG3PORZEM2ORCCR3B8T","A1AYQ8E01NSY5Z","3VJ4PFXFJ3TL96TFXMATEMT7KJHUAI","","480","img/food1.png","76","482","3","0","1","1,0.7,0,1,0.7,0,0.7,0,1","false",""
"","html-keyboard-response","193","117182","0.0-197.0","3WQQ9FUS6BGUG3PORZEM2ORCCR3B8T","A1AYQ8E01NSY5Z","3VJ4PFXFJ3TL96TFXMATEMT7KJHUAI","","null","<img src=""img/food1.png"" style=""width:200px;border:14px solid red;"">","null","","","","","","",""
"","image-keyboard-response","194","117779","0.0-199.0","3WQQ9FUS6BGUG3PORZEM2ORCCR3B8T","A1AYQ8E01NSY5Z","3VJ4PFXFJ3TL96TFXMATEMT7KJHUAI","","593","img/food4.png","74","595","1","1","2","1,0.7,0,1,0.7,0,0.7,0,1","false",""
"","html-keyboard-response","195","118091","0.0-200.0","3WQQ9FUS6BGUG3PORZEM2ORCCR3B8T","A1AYQ8E01NSY5Z","3VJ4PFXFJ3TL96TFXMATEMT7KJHUAI","","null","<img src=""img/food4.png"" style=""width:200px; border:14px solid green;"">","null","","","","","","",""
"","image-keyboard-response","196","118491","0.0-202.0","3WQQ9FUS6BGUG3PORZEM2ORCCR3B8T","A1AYQ8E01NSY5Z","3VJ4PFXFJ3TL96TFXMATEMT7KJHUAI","","397","img/food4.png","74","398","1","1","2","1,0.7,0,1,0.7,0,0.7,0,1","false",""
"","html-keyboard-response","197","118812","0.0-203.0","3WQQ9FUS6BGUG3PORZEM2ORCCR3B8T","A1AYQ8E01NSY5Z","3VJ4PFXFJ3TL96TFXMATEMT7KJHUAI","","null","<img src=""img/food4.png"" style=""width:200px; border:14px solid green;"">","null","","","","","","",""
"","image-keyboard-response","198","119276","0.0-205.0","3WQQ9FUS6BGUG3PORZEM2ORCCR3B8T","A1AYQ8E01NSY5Z","3VJ4PFXFJ3TL96TFXMATEMT7KJHUAI","","459","img/food1.png","75","462","2","0","1","1,0.7,0,1,0.7,0,0.7,0,1","false",""
"","html-keyboard-response","199","119592","0.0-206.0","3WQQ9FUS6BGUG3PORZEM2ORCCR3B8T","A1AYQ8E01NSY5Z","3VJ4PFXFJ3TL96TFXMATEMT7KJHUAI","","null","<img src=""img/food1.png"" style=""width:200px;border:14px solid red;"">","null","","","","","","",""
"","image-keyboard-response","200","120099","0.0-208.0","3WQQ9FUS6BGUG3PORZEM2ORCCR3B8T","A1AYQ8E01NSY5Z","3VJ4PFXFJ3TL96TFXMATEMT7KJHUAI","","505","img/food2.png","74","505","1","1","3","1,0.7,0,1,0.7,0,0.7,0,1","false",""
"","html-keyboard-response","201","120416","0.0-209.0","3WQQ9FUS6BGUG3PORZEM2ORCCR3B8T","A1AYQ8E01NSY5Z","3VJ4PFXFJ3TL96TFXMATEMT7KJHUAI","","null","<img src=""img/food2.png"" style=""width:200px; border:14px solid green;"">","null","","","","","","",""
"","image-keyboard-response","202","120928","0.0-211.0","3WQQ9FUS6BGUG3PORZEM2ORCCR3B8T","A1AYQ8E01NSY5Z","3VJ4PFXFJ3TL96TFXMATEMT7KJHUAI","","509","img/food4.png","76","511","3","0","2","1,0.7,0,1,0.7,0,0.7,0,1","false",""
"","html-keyboard-response","203","121240","0.0-212.0","3WQQ9FUS6BGUG3PORZEM2ORCCR3B8T","A1AYQ8E01NSY5Z","3VJ4PFXFJ3TL96TFXMATEMT7KJHUAI","","null","<img src=""img/food4.png"" style=""width:200px;border:14px solid red;"">","null","","","","","","",""
"","image-keyboard-response","204","121701","0.0-214.0","3WQQ9FUS6BGUG3PORZEM2ORCCR3B8T","A1AYQ8E01NSY5Z","3VJ4PFXFJ3TL96TFXMATEMT7KJHUAI","","459","img/food1.png","74","461","1","1","1","1,0.7,0,1,0.7,0,0.7,0,1","false",""
"","html-keyboard-response","205","122006","0.0-215.0","3WQQ9FUS6BGUG3PORZEM2ORCCR3B8T","A1AYQ8E01NSY5Z","3VJ4PFXFJ3TL96TFXMATEMT7KJHUAI","","null","<img src=""img/food1.png"" style=""width:200px; border:14px solid green;"">","null","","","","","","",""
"","image-keyboard-response","206","122492","0.0-217.0","3WQQ9FUS6BGUG3PORZEM2ORCCR3B8T","A1AYQ8E01NSY5Z","3VJ4PFXFJ3TL96TFXMATEMT7KJHUAI","","483","img/food4.png","74","485","1","1","2","1,0.7,0,1,0.7,0,0.7,0,1","false",""
"","html-keyboard-response","207","122807","0.0-218.0","3WQQ9FUS6BGUG3PORZEM2ORCCR3B8T","A1AYQ8E01NSY5Z","3VJ4PFXFJ3TL96TFXMATEMT7KJHUAI","","null","<img src=""img/food4.png"" style=""width:200px; border:14px solid green;"">","null","","","","","","",""
"","image-keyboard-response","208","123228","0.0-220.0","3WQQ9FUS6BGUG3PORZEM2ORCCR3B8T","A1AYQ8E01NSY5Z","3VJ4PFXFJ3TL96TFXMATEMT7KJHUAI","","418","img/food4.png","74","419","1","1","2","1,0.7,0,1,0.7,0,0.7,0,1","false",""
"","html-keyboard-response","209","123542","0.0-221.0","3WQQ9FUS6BGUG3PORZEM2ORCCR3B8T","A1AYQ8E01NSY5Z","3VJ4PFXFJ3TL96TFXMATEMT7KJHUAI","","null","<img src=""img/food4.png"" style=""width:200px; border:14px solid green;"">","null","","","","","","",""
"","image-keyboard-response","210","124211","0.0-223.0","3WQQ9FUS6BGUG3PORZEM2ORCCR3B8T","A1AYQ8E01NSY5Z","3VJ4PFXFJ3TL96TFXMATEMT7KJHUAI","","667","img/food1.png","74","669","1","1","1","1,0.7,0,1,0.7,0,0.7,0,1","false",""
"","html-keyboard-response","211","124547","0.0-224.0","3WQQ9FUS6BGUG3PORZEM2ORCCR3B8T","A1AYQ8E01NSY5Z","3VJ4PFXFJ3TL96TFXMATEMT7KJHUAI","","null","<img src=""img/food1.png"" style=""width:200px; border:14px solid green;"">","null","","","","","","",""
"","image-keyboard-response","212","125235","0.0-226.0","3WQQ9FUS6BGUG3PORZEM2ORCCR3B8T","A1AYQ8E01NSY5Z","3VJ4PFXFJ3TL96TFXMATEMT7KJHUAI","","687","img/food1.png","74","688","1","1","1","1,0.7,0,1,0.7,0,0.7,0,1","false",""
"","html-keyboard-response","213","125562","0.0-227.0","3WQQ9FUS6BGUG3PORZEM2ORCCR3B8T","A1AYQ8E01NSY5Z","3VJ4PFXFJ3TL96TFXMATEMT7KJHUAI","","null","<img src=""img/food1.png"" style=""width:200px; border:14px solid green;"">","null","","","","","","",""
"","image-keyboard-response","214","125907","0.0-229.0","3WQQ9FUS6BGUG3PORZEM2ORCCR3B8T","A1AYQ8E01NSY5Z","3VJ4PFXFJ3TL96TFXMATEMT7KJHUAI","","342","img/food4.png","74","345","1","1","2","1,0.7,0,1,0.7,0,0.7,0,1","false",""
"","html-keyboard-response","215","126213","0.0-230.0","3WQQ9FUS6BGUG3PORZEM2ORCCR3B8T","A1AYQ8E01NSY5Z","3VJ4PFXFJ3TL96TFXMATEMT7KJHUAI","","null","<img src=""img/food4.png"" style=""width:200px; border:14px solid green;"">","null","","","","","","",""
"","image-keyboard-response","216","126659","0.0-232.0","3WQQ9FUS6BGUG3PORZEM2ORCCR3B8T","A1AYQ8E01NSY5Z","3VJ4PFXFJ3TL96TFXMATEMT7KJHUAI","","444","img/food1.png","74","446","1","1","1","1,0.7,0,1,0.7,0,0.7,0,1","false",""
"","html-keyboard-response","217","126963","0.0-233.0","3WQQ9FUS6BGUG3PORZEM2ORCCR3B8T","A1AYQ8E01NSY5Z","3VJ4PFXFJ3TL96TFXMATEMT7KJHUAI","","null","<img src=""img/food1.png"" style=""width:200px; border:14px solid green;"">","null","","","","","","",""
"","image-keyboard-response","218","127490","0.0-235.0","3WQQ9FUS6BGUG3PORZEM2ORCCR3B8T","A1AYQ8E01NSY5Z","3VJ4PFXFJ3TL96TFXMATEMT7KJHUAI","","523","img/food4.png","75","525","2","1","2","1,0.7,0,1,0.7,0,0.7,0,1","false",""
"","html-keyboard-response","219","127793","0.0-236.0","3WQQ9FUS6BGUG3PORZEM2ORCCR3B8T","A1AYQ8E01NSY5Z","3VJ4PFXFJ3TL96TFXMATEMT7KJHUAI","","null","<img src=""img/food4.png"" style=""width:200px; border:14px solid green;"">","null","","","","","","",""
"","image-keyboard-response","220","128196","0.0-238.0","3WQQ9FUS6BGUG3PORZEM2ORCCR3B8T","A1AYQ8E01NSY5Z","3VJ4PFXFJ3TL96TFXMATEMT7KJHUAI","","399","img/food2.png","74","401","1","1","3","1,0.7,0,1,0.7,0,0.7,0,1","false",""
"","html-keyboard-response","221","128511","0.0-239.0","3WQQ9FUS6BGUG3PORZEM2ORCCR3B8T","A1AYQ8E01NSY5Z","3VJ4PFXFJ3TL96TFXMATEMT7KJHUAI","","null","<img src=""img/food2.png"" style=""width:200px; border:14px solid green;"">","null","","","","","","",""
"","image-keyboard-response","222","128859","0.0-241.0","3WQQ9FUS6BGUG3PORZEM2ORCCR3B8T","A1AYQ8E01NSY5Z","3VJ4PFXFJ3TL96TFXMATEMT7KJHUAI","","345","img/food4.png","74","347","1","1","2","1,0.7,0,1,0.7,0,0.7,0,1","false",""
"","html-keyboard-response","223","129164","0.0-242.0","3WQQ9FUS6BGUG3PORZEM2ORCCR3B8T","A1AYQ8E01NSY5Z","3VJ4PFXFJ3TL96TFXMATEMT7KJHUAI","","null","<img src=""img/food4.png"" style=""width:200px; border:14px solid green;"">","null","","","","","","",""
"","image-keyboard-response","224","129716","0.0-244.0","3WQQ9FUS6BGUG3PORZEM2ORCCR3B8T","A1AYQ8E01NSY5Z","3VJ4PFXFJ3TL96TFXMATEMT7KJHUAI","","550","img/food2.png","74","552","1","0","3","1,0.7,0,1,0.7,0,0.7,0,1","false",""
"","html-keyboard-response","225","130024","0.0-245.0","3WQQ9FUS6BGUG3PORZEM2ORCCR3B8T","A1AYQ8E01NSY5Z","3VJ4PFXFJ3TL96TFXMATEMT7KJHUAI","","null","<img src=""img/food2.png"" style=""width:200px;border:14px solid red;"">","null","","","","","","",""
"","image-keyboard-response","226","130771","0.0-247.0","3WQQ9FUS6BGUG3PORZEM2ORCCR3B8T","A1AYQ8E01NSY5Z","3VJ4PFXFJ3TL96TFXMATEMT7KJHUAI","","746","img/food1.png","74","747","1","1","1","1,0.7,0,1,0.7,0,0.7,0,1","false",""
"","html-keyboard-response","227","131087","0.0-248.0","3WQQ9FUS6BGUG3PORZEM2ORCCR3B8T","A1AYQ8E01NSY5Z","3VJ4PFXFJ3TL96TFXMATEMT7KJHUAI","","null","<img src=""img/food1.png"" style=""width:200px; border:14px solid green;"">","null","","","","","","",""
"","image-keyboard-response","228","131585","0.0-250.0","3WQQ9FUS6BGUG3PORZEM2ORCCR3B8T","A1AYQ8E01NSY5Z","3VJ4PFXFJ3TL96TFXMATEMT7KJHUAI","","496","img/food1.png","74","497","1","1","1","1,0.7,0,1,0.7,0,0.7,0,1","false",""
"","html-keyboard-response","229","131901","0.0-251.0","3WQQ9FUS6BGUG3PORZEM2ORCCR3B8T","A1AYQ8E01NSY5Z","3VJ4PFXFJ3TL96TFXMATEMT7KJHUAI","","null","<img src=""img/food1.png"" style=""width:200px; border:14px solid green;"">","null","","","","","","",""
"","image-keyboard-response","230","132291","0.0-253.0","3WQQ9FUS6BGUG3PORZEM2ORCCR3B8T","A1AYQ8E01NSY5Z","3VJ4PFXFJ3TL96TFXMATEMT7KJHUAI","","387","img/food2.png","74","388","1","1","3","1,0.7,0,1,0.7,0,0.7,0,1","false",""
"","html-keyboard-response","231","132606","0.0-254.0","3WQQ9FUS6BGUG3PORZEM2ORCCR3B8T","A1AYQ8E01NSY5Z","3VJ4PFXFJ3TL96TFXMATEMT7KJHUAI","","null","<img src=""img/food2.png"" style=""width:200px; border:14px solid green;"">","null","","","","","","",""
"","image-keyboard-response","232","132966","0.0-256.0","3WQQ9FUS6BGUG3PORZEM2ORCCR3B8T","A1AYQ8E01NSY5Z","3VJ4PFXFJ3TL96TFXMATEMT7KJHUAI","","358","img/food2.png","74","362","1","1","3","1,0.7,0,1,0.7,0,0.7,0,1","false",""
"","html-keyboard-response","233","133278","0.0-257.0","3WQQ9FUS6BGUG3PORZEM2ORCCR3B8T","A1AYQ8E01NSY5Z","3VJ4PFXFJ3TL96TFXMATEMT7KJHUAI","","null","<img src=""img/food2.png"" style=""width:200px; border:14px solid green;"">","null","","","","","","",""
"","image-keyboard-response","234","133627","0.0-259.0","3WQQ9FUS6BGUG3PORZEM2ORCCR3B8T","A1AYQ8E01NSY5Z","3VJ4PFXFJ3TL96TFXMATEMT7KJHUAI","","347","img/food2.png","74","347","1","0","3","1,0.7,0,1,0.7,0,0.7,0,1","false",""
"","html-keyboard-response","235","133949","0.0-260.0","3WQQ9FUS6BGUG3PORZEM2ORCCR3B8T","A1AYQ8E01NSY5Z","3VJ4PFXFJ3TL96TFXMATEMT7KJHUAI","","null","<img src=""img/food2.png"" style=""width:200px;border:14px solid red;"">","null","","","","","","",""
"","image-keyboard-response","236","134283","0.0-262.0","3WQQ9FUS6BGUG3PORZEM2ORCCR3B8T","A1AYQ8E01NSY5Z","3VJ4PFXFJ3TL96TFXMATEMT7KJHUAI","","332","img/food2.png","74","334","1","1","3","1,0.7,0,1,0.7,0,0.7,0,1","false",""
"","html-keyboard-response","237","134591","0.0-263.0","3WQQ9FUS6BGUG3PORZEM2ORCCR3B8T","A1AYQ8E01NSY5Z","3VJ4PFXFJ3TL96TFXMATEMT7KJHUAI","","null","<img src=""img/food2.png"" style=""width:200px; border:14px solid green;"">","null","","","","","","",""
"","image-keyboard-response","238","134907","0.0-265.0","3WQQ9FUS6BGUG3PORZEM2ORCCR3B8T","A1AYQ8E01NSY5Z","3VJ4PFXFJ3TL96TFXMATEMT7KJHUAI","","316","img/food4.png","74","317","1","1","2","1,0.7,0,1,0.7,0,0.7,0,1","false",""
"","html-keyboard-response","239","135218","0.0-266.0","3WQQ9FUS6BGUG3PORZEM2ORCCR3B8T","A1AYQ8E01NSY5Z","3VJ4PFXFJ3TL96TFXMATEMT7KJHUAI","","null","<img src=""img/food4.png"" style=""width:200px; border:14px solid green;"">","null","","","","","","",""
"","image-keyboard-response","240","135516","0.0-268.0","3WQQ9FUS6BGUG3PORZEM2ORCCR3B8T","A1AYQ8E01NSY5Z","3VJ4PFXFJ3TL96TFXMATEMT7KJHUAI","","296","img/food4.png","74","298","1","1","2","1,0.7,0,1,0.7,0,0.7,0,1","false",""
"","html-keyboard-response","241","135826","0.0-269.0","3WQQ9FUS6BGUG3PORZEM2ORCCR3B8T","A1AYQ8E01NSY5Z","3VJ4PFXFJ3TL96TFXMATEMT7KJHUAI","","null","<img src=""img/food4.png"" style=""width:200px; border:14px solid green;"">","null","","","","","","",""
"","image-keyboard-response","242","136332","0.0-271.0","3WQQ9FUS6BGUG3PORZEM2ORCCR3B8T","A1AYQ8E01NSY5Z","3VJ4PFXFJ3TL96TFXMATEMT7KJHUAI","","502","img/food1.png","75","504","2","0","1","1,0.7,0,1,0.7,0,0.7,0,1","false",""
"","html-keyboard-response","243","136638","0.0-272.0","3WQQ9FUS6BGUG3PORZEM2ORCCR3B8T","A1AYQ8E01NSY5Z","3VJ4PFXFJ3TL96TFXMATEMT7KJHUAI","","null","<img src=""img/food1.png"" style=""width:200px;border:14px solid red;"">","null","","","","","","",""
"","image-keyboard-response","244","136779","0.0-274.0","3WQQ9FUS6BGUG3PORZEM2ORCCR3B8T","A1AYQ8E01NSY5Z","3VJ4PFXFJ3TL96TFXMATEMT7KJHUAI","","140","img/food1.png","74","141","1","1","1","1,0.7,0,1,0.7,0,0.7,0,1","false",""
"","html-keyboard-response","245","137087","0.0-275.0","3WQQ9FUS6BGUG3PORZEM2ORCCR3B8T","A1AYQ8E01NSY5Z","3VJ4PFXFJ3TL96TFXMATEMT7KJHUAI","","null","<img src=""img/food1.png"" style=""width:200px; border:14px solid green;"">","null","","","","","","",""
"","image-keyboard-response","246","137178","0.0-277.0","3WQQ9FUS6BGUG3PORZEM2ORCCR3B8T","A1AYQ8E01NSY5Z","3VJ4PFXFJ3TL96TFXMATEMT7KJHUAI","","90","img/food1.png","74","90","1","1","1","1,0.7,0,1,0.7,0,0.7,0,1","false",""
"","html-keyboard-response","247","137524","0.0-278.0","3WQQ9FUS6BGUG3PORZEM2ORCCR3B8T","A1AYQ8E01NSY5Z","3VJ4PFXFJ3TL96TFXMATEMT7KJHUAI","","null","<img src=""img/food1.png"" style=""width:200px; border:14px solid green;"">","null","","","","","","",""
"","image-keyboard-response","248","138068","0.0-280.0","3WQQ9FUS6BGUG3PORZEM2ORCCR3B8T","A1AYQ8E01NSY5Z","3VJ4PFXFJ3TL96TFXMATEMT7KJHUAI","","541","img/food2.png","74","543","1","0","3","1,0.7,0,1,0.7,0,0.7,0,1","false",""
"","html-keyboard-response","249","138384","0.0-281.0","3WQQ9FUS6BGUG3PORZEM2ORCCR3B8T","A1AYQ8E01NSY5Z","3VJ4PFXFJ3TL96TFXMATEMT7KJHUAI","","null","<img src=""img/food2.png"" style=""width:200px;border:14px solid red;"">","null","","","","","","",""
"","image-keyboard-response","250","138770","0.0-283.0","3WQQ9FUS6BGUG3PORZEM2ORCCR3B8T","A1AYQ8E01NSY5Z","3VJ4PFXFJ3TL96TFXMATEMT7KJHUAI","","383","img/food2.png","74","385","1","1","3","1,0.7,0,1,0.7,0,0.7,0,1","false",""
"","html-keyboard-response","251","139085","0.0-284.0","3WQQ9FUS6BGUG3PORZEM2ORCCR3B8T","A1AYQ8E01NSY5Z","3VJ4PFXFJ3TL96TFXMATEMT7KJHUAI","","null","<img src=""img/food2.png"" style=""width:200px; border:14px solid green;"">","null","","","","","","",""
"","image-keyboard-response","252","139387","0.0-286.0","3WQQ9FUS6BGUG3PORZEM2ORCCR3B8T","A1AYQ8E01NSY5Z","3VJ4PFXFJ3TL96TFXMATEMT7KJHUAI","","299","img/food2.png","74","302","1","1","3","1,0.7,0,1,0.7,0,0.7,0,1","false",""
"","html-keyboard-response","253","139695","0.0-287.0","3WQQ9FUS6BGUG3PORZEM2ORCCR3B8T","A1AYQ8E01NSY5Z","3VJ4PFXFJ3TL96TFXMATEMT7KJHUAI","","null","<img src=""img/food2.png"" style=""width:200px; border:14px solid green;"">","null","","","","","","",""
"","image-keyboard-response","254","140045","0.0-289.0","3WQQ9FUS6BGUG3PORZEM2ORCCR3B8T","A1AYQ8E01NSY5Z","3VJ4PFXFJ3TL96TFXMATEMT7KJHUAI","","346","img/food4.png","74","349","1","1","2","1,0.7,0,1,0.7,0,0.7,0,1","false",""
"","html-keyboard-response","255","140353","0.0-290.0","3WQQ9FUS6BGUG3PORZEM2ORCCR3B8T","A1AYQ8E01NSY5Z","3VJ4PFXFJ3TL96TFXMATEMT7KJHUAI","","null","<img src=""img/food4.png"" style=""width:200px; border:14px solid green;"">","null","","","","","","",""
"","image-keyboard-response","256","140923","0.0-292.0","3WQQ9FUS6BGUG3PORZEM2ORCCR3B8T","A1AYQ8E01NSY5Z","3VJ4PFXFJ3TL96TFXMATEMT7KJHUAI","","567","img/food2.png","74","568","1","1","3","1,0.7,0,1,0.7,0,0.7,0,1","false",""
"","html-keyboard-response","257","141232","0.0-293.0","3WQQ9FUS6BGUG3PORZEM2ORCCR3B8T","A1AYQ8E01NSY5Z","3VJ4PFXFJ3TL96TFXMATEMT7KJHUAI","","null","<img src=""img/food2.png"" style=""width:200px; border:14px solid green;"">","null","","","","","","",""
"","image-keyboard-response","258","141546","0.0-295.0","3WQQ9FUS6BGUG3PORZEM2ORCCR3B8T","A1AYQ8E01NSY5Z","3VJ4PFXFJ3TL96TFXMATEMT7KJHUAI","","311","img/food2.png","74","312","1","0","3","1,0.7,0,1,0.7,0,0.7,0,1","false",""
"","html-keyboard-response","259","141860","0.0-296.0","3WQQ9FUS6BGUG3PORZEM2ORCCR3B8T","A1AYQ8E01NSY5Z","3VJ4PFXFJ3TL96TFXMATEMT7KJHUAI","","null","<img src=""img/food2.png"" style=""width:200px;border:14px solid red;"">","null","","","","","","",""
"","image-keyboard-response","260","142546","0.0-298.0","3WQQ9FUS6BGUG3PORZEM2ORCCR3B8T","A1AYQ8E01NSY5Z","3VJ4PFXFJ3TL96TFXMATEMT7KJHUAI","","685","img/food1.png","76","685","3","0","1","1,0.7,0,1,0.7,0,0.7,0,1","false",""
"","html-keyboard-response","261","142874","0.0-299.0","3WQQ9FUS6BGUG3PORZEM2ORCCR3B8T","A1AYQ8E01NSY5Z","3VJ4PFXFJ3TL96TFXMATEMT7KJHUAI","","null","<img src=""img/food1.png"" style=""width:200px;border:14px solid red;"">","null","","","","","","",""
"","image-keyboard-response","262","143242","0.0-301.0","3WQQ9FUS6BGUG3PORZEM2ORCCR3B8T","A1AYQ8E01NSY5Z","3VJ4PFXFJ3TL96TFXMATEMT7KJHUAI","","367","img/food1.png","74","367","1","1","1","1,0.7,0,1,0.7,0,0.7,0,1","false",""
"","html-keyboard-response","263","143544","0.0-302.0","3WQQ9FUS6BGUG3PORZEM2ORCCR3B8T","A1AYQ8E01NSY5Z","3VJ4PFXFJ3TL96TFXMATEMT7KJHUAI","","null","<img src=""img/food1.png"" style=""width:200px; border:14px solid green;"">","null","","","","","","",""
"","image-keyboard-response","264","143868","0.0-304.0","3WQQ9FUS6BGUG3PORZEM2ORCCR3B8T","A1AYQ8E01NSY5Z","3VJ4PFXFJ3TL96TFXMATEMT7KJHUAI","","320","img/food2.png","75","324","2","0","3","1,0.7,0,1,0.7,0,0.7,0,1","false",""
"","html-keyboard-response","265","144189","0.0-305.0","3WQQ9FUS6BGUG3PORZEM2ORCCR3B8T","A1AYQ8E01NSY5Z","3VJ4PFXFJ3TL96TFXMATEMT7KJHUAI","","null","<img src=""img/food2.png"" style=""width:200px;border:14px solid red;"">","null","","","","","","",""
"","image-keyboard-response","266","144347","0.0-307.0","3WQQ9FUS6BGUG3PORZEM2ORCCR3B8T","A1AYQ8E01NSY5Z","3VJ4PFXFJ3TL96TFXMATEMT7KJHUAI","","154","img/food1.png","74","156","1","1","1","1,0.7,0,1,0.7,0,0.7,0,1","false",""
"","html-keyboard-response","267","144657","0.0-308.0","3WQQ9FUS6BGUG3PORZEM2ORCCR3B8T","A1AYQ8E01NSY5Z","3VJ4PFXFJ3TL96TFXMATEMT7KJHUAI","","null","<img src=""img/food1.png"" style=""width:200px; border:14px solid green;"">","null","","","","","","",""
"","image-keyboard-response","268","144924","0.0-310.0","3WQQ9FUS6BGUG3PORZEM2ORCCR3B8T","A1AYQ8E01NSY5Z","3VJ4PFXFJ3TL96TFXMATEMT7KJHUAI","","263","img/food1.png","74","265","1","1","1","1,0.7,0,1,0.7,0,0.7,0,1","false",""
"","html-keyboard-response","269","145234","0.0-311.0","3WQQ9FUS6BGUG3PORZEM2ORCCR3B8T","A1AYQ8E01NSY5Z","3VJ4PFXFJ3TL96TFXMATEMT7KJHUAI","","null","<img src=""img/food1.png"" style=""width:200px; border:14px solid green;"">","null","","","","","","",""
"","image-keyboard-response","270","145379","0.0-313.0","3WQQ9FUS6BGUG3PORZEM2ORCCR3B8T","A1AYQ8E01NSY5Z","3VJ4PFXFJ3TL96TFXMATEMT7KJHUAI","","142","img/food2.png","74","144","1","0","3","1,0.7,0,1,0.7,0,0.7,0,1","false",""
"","html-keyboard-response","271","145687","0.0-314.0","3WQQ9FUS6BGUG3PORZEM2ORCCR3B8T","A1AYQ8E01NSY5Z","3VJ4PFXFJ3TL96TFXMATEMT7KJHUAI","","null","<img src=""img/food2.png"" style=""width:200px;border:14px solid red;"">","null","","","","","","",""
"","image-keyboard-response","272","146043","0.0-316.0","3WQQ9FUS6BGUG3PORZEM2ORCCR3B8T","A1AYQ8E01NSY5Z","3VJ4PFXFJ3TL96TFXMATEMT7KJHUAI","","354","img/food2.png","74","355","1","1","3","1,0.7,0,1,0.7,0,0.7,0,1","false",""
"","html-keyboard-response","273","146358","0.0-317.0","3WQQ9FUS6BGUG3PORZEM2ORCCR3B8T","A1AYQ8E01NSY5Z","3VJ4PFXFJ3TL96TFXMATEMT7KJHUAI","","null","<img src=""img/food2.png"" style=""width:200px; border:14px solid green;"">","null","","","","","","",""
"","image-keyboard-response","274","146650","0.0-319.0","3WQQ9FUS6BGUG3PORZEM2ORCCR3B8T","A1AYQ8E01NSY5Z","3VJ4PFXFJ3TL96TFXMATEMT7KJHUAI","","291","img/food4.png","74","293","1","1","2","1,0.7,0,1,0.7,0,0.7,0,1","false",""
"","html-keyboard-response","275","146966","0.0-320.0","3WQQ9FUS6BGUG3PORZEM2ORCCR3B8T","A1AYQ8E01NSY5Z","3VJ4PFXFJ3TL96TFXMATEMT7KJHUAI","","null","<img src=""img/food4.png"" style=""width:200px; border:14px solid green;"">","null","","","","","","",""
"","image-keyboard-response","276","147300","0.0-322.0","3WQQ9FUS6BGUG3PORZEM2ORCCR3B8T","A1AYQ8E01NSY5Z","3VJ4PFXFJ3TL96TFXMATEMT7KJHUAI","","331","img/food2.png","74","332","1","0","3","1,0.7,0,1,0.7,0,0.7,0,1","false",""
"","html-keyboard-response","277","147607","0.0-323.0","3WQQ9FUS6BGUG3PORZEM2ORCCR3B8T","A1AYQ8E01NSY5Z","3VJ4PFXFJ3TL96TFXMATEMT7KJHUAI","","null","<img src=""img/food2.png"" style=""width:200px;border:14px solid red;"">","null","","","","","","",""
"","image-keyboard-response","278","147884","0.0-325.0","3WQQ9FUS6BGUG3PORZEM2ORCCR3B8T","A1AYQ8E01NSY5Z","3VJ4PFXFJ3TL96TFXMATEMT7KJHUAI","","271","img/food1.png","74","275","1","1","1","1,0.7,0,1,0.7,0,0.7,0,1","false",""
"","html-keyboard-response","279","148186","0.0-326.0","3WQQ9FUS6BGUG3PORZEM2ORCCR3B8T","A1AYQ8E01NSY5Z","3VJ4PFXFJ3TL96TFXMATEMT7KJHUAI","","null","<img src=""img/food1.png"" style=""width:200px; border:14px solid green;"">","null","","","","","","",""
"","image-keyboard-response","280","148521","0.0-328.0","3WQQ9FUS6BGUG3PORZEM2ORCCR3B8T","A1AYQ8E01NSY5Z","3VJ4PFXFJ3TL96TFXMATEMT7KJHUAI","","332","img/food1.png","74","335","1","1","1","1,0.7,0,1,0.7,0,0.7,0,1","false",""
"","html-keyboard-response","281","148824","0.0-329.0","3WQQ9FUS6BGUG3PORZEM2ORCCR3B8T","A1AYQ8E01NSY5Z","3VJ4PFXFJ3TL96TFXMATEMT7KJHUAI","","null","<img src=""img/food1.png"" style=""width:200px; border:14px solid green;"">","null","","","","","","",""
"","image-keyboard-response","282","149025","0.0-331.0","3WQQ9FUS6BGUG3PORZEM2ORCCR3B8T","A1AYQ8E01NSY5Z","3VJ4PFXFJ3TL96TFXMATEMT7KJHUAI","","199","img/food1.png","74","200","1","1","1","1,0.7,0,1,0.7,0,0.7,0,1","false",""
"","html-keyboard-response","283","149337","0.0-332.0","3WQQ9FUS6BGUG3PORZEM2ORCCR3B8T","A1AYQ8E01NSY5Z","3VJ4PFXFJ3TL96TFXMATEMT7KJHUAI","","null","<img src=""img/food1.png"" style=""width:200px; border:14px solid green;"">","null","","","","","","",""
"","image-keyboard-response","284","149674","0.0-334.0","3WQQ9FUS6BGUG3PORZEM2ORCCR3B8T","A1AYQ8E01NSY5Z","3VJ4PFXFJ3TL96TFXMATEMT7KJHUAI","","334","img/food1.png","74","335","1","1","1","1,0.7,0,1,0.7,0,0.7,0,1","false",""
"","html-keyboard-response","285","149990","0.0-335.0","3WQQ9FUS6BGUG3PORZEM2ORCCR3B8T","A1AYQ8E01NSY5Z","3VJ4PFXFJ3TL96TFXMATEMT7KJHUAI","","null","<img src=""img/food1.png"" style=""width:200px; border:14px solid green;"">","null","","","","","","",""
"","image-keyboard-response","286","150193","0.0-337.0","3WQQ9FUS6BGUG3PORZEM2ORCCR3B8T","A1AYQ8E01NSY5Z","3VJ4PFXFJ3TL96TFXMATEMT7KJHUAI","","202","img/food1.png","74","203","1","1","1","1,0.7,0,1,0.7,0,0.7,0,1","false",""
"","html-keyboard-response","287","150507","0.0-338.0","3WQQ9FUS6BGUG3PORZEM2ORCCR3B8T","A1AYQ8E01NSY5Z","3VJ4PFXFJ3TL96TFXMATEMT7KJHUAI","","null","<img src=""img/food1.png"" style=""width:200px; border:14px solid green;"">","null","","","","","","",""
"","image-keyboard-response","288","151012","0.0-340.0","3WQQ9FUS6BGUG3PORZEM2ORCCR3B8T","A1AYQ8E01NSY5Z","3VJ4PFXFJ3TL96TFXMATEMT7KJHUAI","","502","img/food2.png","76","504","3","1","3","1,0.7,0,1,0.7,0,0.7,0,1","false",""
"","html-keyboard-response","289","151315","0.0-341.0","3WQQ9FUS6BGUG3PORZEM2ORCCR3B8T","A1AYQ8E01NSY5Z","3VJ4PFXFJ3TL96TFXMATEMT7KJHUAI","","null","<img src=""img/food2.png"" style=""width:200px; border:14px solid green;"">","null","","","","","","",""
"","image-keyboard-response","290","151740","0.0-343.0","3WQQ9FUS6BGUG3PORZEM2ORCCR3B8T","A1AYQ8E01NSY5Z","3VJ4PFXFJ3TL96TFXMATEMT7KJHUAI","","422","img/food4.png","74","424","1","1","2","1,0.7,0,1,0.7,0,0.7,0,1","false",""
"","html-keyboard-response","291","152045","0.0-344.0","3WQQ9FUS6BGUG3PORZEM2ORCCR3B8T","A1AYQ8E01NSY5Z","3VJ4PFXFJ3TL96TFXMATEMT7KJHUAI","","null","<img src=""img/food4.png"" style=""width:200px; border:14px solid green;"">","null","","","","","","",""
"","image-keyboard-response","292","152525","0.0-346.0","3WQQ9FUS6BGUG3PORZEM2ORCCR3B8T","A1AYQ8E01NSY5Z","3VJ4PFXFJ3TL96TFXMATEMT7KJHUAI","","476","img/food2.png","74","480","1","1","3","1,0.7,0,1,0.7,0,0.7,0,1","false",""
"","html-keyboard-response","293","152829","0.0-347.0","3WQQ9FUS6BGUG3PORZEM2ORCCR3B8T","A1AYQ8E01NSY5Z","3VJ4PFXFJ3TL96TFXMATEMT7KJHUAI","","null","<img src=""img/food2.png"" style=""width:200px; border:14px solid green;"">","null","","","","","","",""
"","image-keyboard-response","294","153147","0.0-349.0","3WQQ9FUS6BGUG3PORZEM2ORCCR3B8T","A1AYQ8E01NSY5Z","3VJ4PFXFJ3TL96TFXMATEMT7KJHUAI","","315","img/food4.png","74","318","1","1","2","1,0.7,0,1,0.7,0,0.7,0,1","false",""
"","html-keyboard-response","295","153460","0.0-350.0","3WQQ9FUS6BGUG3PORZEM2ORCCR3B8T","A1AYQ8E01NSY5Z","3VJ4PFXFJ3TL96TFXMATEMT7KJHUAI","","null","<img src=""img/food4.png"" style=""width:200px; border:14px solid green;"">","null","","","","","","",""
"","image-keyboard-response","296","153763","0.0-352.0","3WQQ9FUS6BGUG3PORZEM2ORCCR3B8T","A1AYQ8E01NSY5Z","3VJ4PFXFJ3TL96TFXMATEMT7KJHUAI","","301","img/food4.png","74","302","1","1","2","1,0.7,0,1,0.7,0,0.7,0,1","false",""
"","html-keyboard-response","297","154071","0.0-353.0","3WQQ9FUS6BGUG3PORZEM2ORCCR3B8T","A1AYQ8E01NSY5Z","3VJ4PFXFJ3TL96TFXMATEMT7KJHUAI","","null","<img src=""img/food4.png"" style=""width:200px; border:14px solid green;"">","null","","","","","","",""
"","image-keyboard-response","298","154371","0.0-355.0","3WQQ9FUS6BGUG3PORZEM2ORCCR3B8T","A1AYQ8E01NSY5Z","3VJ4PFXFJ3TL96TFXMATEMT7KJHUAI","","298","img/food2.png","74","300","1","1","3","1,0.7,0,1,0.7,0,0.7,0,1","false",""
"","html-keyboard-response","299","154681","0.0-356.0","3WQQ9FUS6BGUG3PORZEM2ORCCR3B8T","A1AYQ8E01NSY5Z","3VJ4PFXFJ3TL96TFXMATEMT7KJHUAI","","null","<img src=""img/food2.png"" style=""width:200px; border:14px solid green;"">","null","","","","","","",""
"","image-keyboard-response","300","155059","0.0-358.0","3WQQ9FUS6BGUG3PORZEM2ORCCR3B8T","A1AYQ8E01NSY5Z","3VJ4PFXFJ3TL96TFXMATEMT7KJHUAI","","376","img/food4.png","74","377","1","1","2","1,0.7,0,1,0.7,0,0.7,0,1","false",""
"","html-keyboard-response","301","155366","0.0-359.0","3WQQ9FUS6BGUG3PORZEM2ORCCR3B8T","A1AYQ8E01NSY5Z","3VJ4PFXFJ3TL96TFXMATEMT7KJHUAI","","null","<img src=""img/food4.png"" style=""width:200px; border:14px solid green;"">","null","","","","","","",""
"","image-keyboard-response","302","155923","0.0-361.0","3WQQ9FUS6BGUG3PORZEM2ORCCR3B8T","A1AYQ8E01NSY5Z","3VJ4PFXFJ3TL96TFXMATEMT7KJHUAI","","555","img/food2.png","76","557","3","1","3","1,0.7,0,1,0.7,0,0.7,0,1","false",""
"","html-keyboard-response","303","156239","0.0-362.0","3WQQ9FUS6BGUG3PORZEM2ORCCR3B8T","A1AYQ8E01NSY5Z","3VJ4PFXFJ3TL96TFXMATEMT7KJHUAI","","null","<img src=""img/food2.png"" style=""width:200px; border:14px solid green;"">","null","","","","","","",""
"","image-keyboard-response","304","156569","0.0-364.0","3WQQ9FUS6BGUG3PORZEM2ORCCR3B8T","A1AYQ8E01NSY5Z","3VJ4PFXFJ3TL96TFXMATEMT7KJHUAI","","330","img/food4.png","74","330","1","1","2","1,0.7,0,1,0.7,0,0.7,0,1","false",""
"","html-keyboard-response","305","156871","0.0-365.0","3WQQ9FUS6BGUG3PORZEM2ORCCR3B8T","A1AYQ8E01NSY5Z","3VJ4PFXFJ3TL96TFXMATEMT7KJHUAI","","null","<img src=""img/food4.png"" style=""width:200px; border:14px solid green;"">","null","","","","","","",""
"","image-keyboard-response","306","157232","0.0-367.0","3WQQ9FUS6BGUG3PORZEM2ORCCR3B8T","A1AYQ8E01NSY5Z","3VJ4PFXFJ3TL96TFXMATEMT7KJHUAI","","357","img/food2.png","74","360","1","1","3","1,0.7,0,1,0.7,0,0.7,0,1","false",""
"","html-keyboard-response","307","157544","0.0-368.0","3WQQ9FUS6BGUG3PORZEM2ORCCR3B8T","A1AYQ8E01NSY5Z","3VJ4PFXFJ3TL96TFXMATEMT7KJHUAI","","null","<img src=""img/food2.png"" style=""width:200px; border:14px solid green;"">","null","","","","","","",""
"","image-keyboard-response","308","158091","0.0-370.0","3WQQ9FUS6BGUG3PORZEM2ORCCR3B8T","A1AYQ8E01NSY5Z","3VJ4PFXFJ3TL96TFXMATEMT7KJHUAI","","544","img/food1.png","74","546","1","1","1","1,0.7,0,1,0.7,0,0.7,0,1","false",""
"","html-keyboard-response","309","158406","0.0-371.0","3WQQ9FUS6BGUG3PORZEM2ORCCR3B8T","A1AYQ8E01NSY5Z","3VJ4PFXFJ3TL96TFXMATEMT7KJHUAI","","null","<img src=""img/food1.png"" style=""width:200px; border:14px solid green;"">","null","","","","","","",""
"","image-keyboard-response","310","158851","0.0-373.0","3WQQ9FUS6BGUG3PORZEM2ORCCR3B8T","A1AYQ8E01NSY5Z","3VJ4PFXFJ3TL96TFXMATEMT7KJHUAI","","444","img/food4.png","74","445","1","1","2","1,0.7,0,1,0.7,0,0.7,0,1","false",""
"","html-keyboard-response","311","159158","0.0-374.0","3WQQ9FUS6BGUG3PORZEM2ORCCR3B8T","A1AYQ8E01NSY5Z","3VJ4PFXFJ3TL96TFXMATEMT7KJHUAI","","null","<img src=""img/food4.png"" style=""width:200px; border:14px solid green;"">","null","","","","","","",""
"","image-keyboard-response","312","159523","0.0-376.0","3WQQ9FUS6BGUG3PORZEM2ORCCR3B8T","A1AYQ8E01NSY5Z","3VJ4PFXFJ3TL96TFXMATEMT7KJHUAI","","361","img/food4.png","74","364","1","1","2","1,0.7,0,1,0.7,0,0.7,0,1","false",""
"","html-keyboard-response","313","159827","0.0-377.0","3WQQ9FUS6BGUG3PORZEM2ORCCR3B8T","A1AYQ8E01NSY5Z","3VJ4PFXFJ3TL96TFXMATEMT7KJHUAI","","null","<img src=""img/food4.png"" style=""width:200px; border:14px solid green;"">","null","","","","","","",""
"","image-keyboard-response","314","160108","0.0-379.0","3WQQ9FUS6BGUG3PORZEM2ORCCR3B8T","A1AYQ8E01NSY5Z","3VJ4PFXFJ3TL96TFXMATEMT7KJHUAI","","277","img/food4.png","74","280","1","1","2","1,0.7,0,1,0.7,0,0.7,0,1","false",""
"","html-keyboard-response","315","160423","0.0-380.0","3WQQ9FUS6BGUG3PORZEM2ORCCR3B8T","A1AYQ8E01NSY5Z","3VJ4PFXFJ3TL96TFXMATEMT7KJHUAI","","null","<img src=""img/food4.png"" style=""width:200px; border:14px solid green;"">","null","","","","","","",""
"","image-keyboard-response","316","160611","0.0-382.0","3WQQ9FUS6BGUG3PORZEM2ORCCR3B8T","A1AYQ8E01NSY5Z","3VJ4PFXFJ3TL96TFXMATEMT7KJHUAI","","184","img/food1.png","74","186","1","1","1","1,0.7,0,1,0.7,0,0.7,0,1","false",""
"","html-keyboard-response","317","160921","0.0-383.0","3WQQ9FUS6BGUG3PORZEM2ORCCR3B8T","A1AYQ8E01NSY5Z","3VJ4PFXFJ3TL96TFXMATEMT7KJHUAI","","null","<img src=""img/food1.png"" style=""width:200px; border:14px solid green;"">","null","","","","","","",""
"","image-keyboard-response","318","161284","0.0-385.0","3WQQ9FUS6BGUG3PORZEM2ORCCR3B8T","A1AYQ8E01NSY5Z","3VJ4PFXFJ3TL96TFXMATEMT7KJHUAI","","360","img/food2.png","74","362","1","1","3","1,0.7,0,1,0.7,0,0.7,0,1","false",""
"","html-keyboard-response","319","161591","0.0-386.0","3WQQ9FUS6BGUG3PORZEM2ORCCR3B8T","A1AYQ8E01NSY5Z","3VJ4PFXFJ3TL96TFXMATEMT7KJHUAI","","null","<img src=""img/food2.png"" style=""width:200px; border:14px solid green;"">","null","","","","","","",""
"","image-keyboard-response","320","161875","0.0-388.0","3WQQ9FUS6BGUG3PORZEM2ORCCR3B8T","A1AYQ8E01NSY5Z","3VJ4PFXFJ3TL96TFXMATEMT7KJHUAI","","282","img/food2.png","74","284","1","1","3","1,0.7,0,1,0.7,0,0.7,0,1","false",""
"","html-keyboard-response","321","162182","0.0-389.0","3WQQ9FUS6BGUG3PORZEM2ORCCR3B8T","A1AYQ8E01NSY5Z","3VJ4PFXFJ3TL96TFXMATEMT7KJHUAI","","null","<img src=""img/food2.png"" style=""width:200px; border:14px solid green;"">","null","","","","","","",""
"","image-keyboard-response","322","162476","0.0-391.0","3WQQ9FUS6BGUG3PORZEM2ORCCR3B8T","A1AYQ8E01NSY5Z","3VJ4PFXFJ3TL96TFXMATEMT7KJHUAI","","291","img/food4.png","74","292","1","1","2","1,0.7,0,1,0.7,0,0.7,0,1","false",""
"","html-keyboard-response","323","162789","0.0-392.0","3WQQ9FUS6BGUG3PORZEM2ORCCR3B8T","A1AYQ8E01NSY5Z","3VJ4PFXFJ3TL96TFXMATEMT7KJHUAI","","null","<img src=""img/food4.png"" style=""width:200px; border:14px solid green;"">","null","","","","","","",""
"","image-keyboard-response","324","163018","0.0-394.0","3WQQ9FUS6BGUG3PORZEM2ORCCR3B8T","A1AYQ8E01NSY5Z","3VJ4PFXFJ3TL96TFXMATEMT7KJHUAI","","226","img/food1.png","74","227","1","1","1","1,0.7,0,1,0.7,0,0.7,0,1","false",""
"","html-keyboard-response","325","163319","0.0-395.0","3WQQ9FUS6BGUG3PORZEM2ORCCR3B8T","A1AYQ8E01NSY5Z","3VJ4PFXFJ3TL96TFXMATEMT7KJHUAI","","null","<img src=""img/food1.png"" style=""width:200px; border:14px solid green;"">","null","","","","","","",""
"","image-keyboard-response","326","163650","0.0-397.0","3WQQ9FUS6BGUG3PORZEM2ORCCR3B8T","A1AYQ8E01NSY5Z","3VJ4PFXFJ3TL96TFXMATEMT7KJHUAI","","329","img/food1.png","74","332","1","1","1","1,0.7,0,1,0.7,0,0.7,0,1","false",""
"","html-keyboard-response","327","163956","0.0-398.0","3WQQ9FUS6BGUG3PORZEM2ORCCR3B8T","A1AYQ8E01NSY5Z","3VJ4PFXFJ3TL96TFXMATEMT7KJHUAI","","null","<img src=""img/food1.png"" style=""width:200px; border:14px solid green;"">","null","","","","","","",""
"","image-keyboard-response","328","164323","0.0-400.0","3WQQ9FUS6BGUG3PORZEM2ORCCR3B8T","A1AYQ8E01NSY5Z","3VJ4PFXFJ3TL96TFXMATEMT7KJHUAI","","366","img/food4.png","74","367","1","1","2","1,0.7,0,1,0.7,0,0.7,0,1","false",""
"","html-keyboard-response","329","164626","0.0-401.0","3WQQ9FUS6BGUG3PORZEM2ORCCR3B8T","A1AYQ8E01NSY5Z","3VJ4PFXFJ3TL96TFXMATEMT7KJHUAI","","null","<img src=""img/food4.png"" style=""width:200px; border:14px solid green;"">","null","","","","","","",""
"","image-keyboard-response","330","165051","0.0-403.0","3WQQ9FUS6BGUG3PORZEM2ORCCR3B8T","A1AYQ8E01NSY5Z","3VJ4PFXFJ3TL96TFXMATEMT7KJHUAI","","422","img/food1.png","74","424","1","1","1","1,0.7,0,1,0.7,0,0.7,0,1","false",""
"","html-keyboard-response","331","165357","0.0-404.0","3WQQ9FUS6BGUG3PORZEM2ORCCR3B8T","A1AYQ8E01NSY5Z","3VJ4PFXFJ3TL96TFXMATEMT7KJHUAI","","null","<img src=""img/food1.png"" style=""width:200px; border:14px solid green;"">","null","","","","","","",""
"","image-keyboard-response","332","165625","0.0-406.0","3WQQ9FUS6BGUG3PORZEM2ORCCR3B8T","A1AYQ8E01NSY5Z","3VJ4PFXFJ3TL96TFXMATEMT7KJHUAI","","266","img/food4.png","74","267","1","1","2","1,0.7,0,1,0.7,0,0.7,0,1","false",""
"","html-keyboard-response","333","165934","0.0-407.0","3WQQ9FUS6BGUG3PORZEM2ORCCR3B8T","A1AYQ8E01NSY5Z","3VJ4PFXFJ3TL96TFXMATEMT7KJHUAI","","null","<img src=""img/food4.png"" style=""width:200px; border:14px solid green;"">","null","","","","","","",""
"","image-keyboard-response","334","166236","0.0-409.0","3WQQ9FUS6BGUG3PORZEM2ORCCR3B8T","A1AYQ8E01NSY5Z","3VJ4PFXFJ3TL96TFXMATEMT7KJHUAI","","299","img/food2.png","74","301","1","0","3","1,0.7,0,1,0.7,0,0.7,0,1","false",""
"","html-keyboard-response","335","166551","0.0-410.0","3WQQ9FUS6BGUG3PORZEM2ORCCR3B8T","A1AYQ8E01NSY5Z","3VJ4PFXFJ3TL96TFXMATEMT7KJHUAI","","null","<img src=""img/food2.png"" style=""width:200px;border:14px solid red;"">","null","","","","","","",""
"","image-keyboard-response","336","167235","0.0-412.0","3WQQ9FUS6BGUG3PORZEM2ORCCR3B8T","A1AYQ8E01NSY5Z","3VJ4PFXFJ3TL96TFXMATEMT7KJHUAI","","682","img/food2.png","76","684","3","1","3","1,0.7,0,1,0.7,0,0.7,0,1","false",""
"","html-keyboard-response","337","167538","0.0-413.0","3WQQ9FUS6BGUG3PORZEM2ORCCR3B8T","A1AYQ8E01NSY5Z","3VJ4PFXFJ3TL96TFXMATEMT7KJHUAI","","null","<img src=""img/food2.png"" style=""width:200px; border:14px solid green;"">","null","","","","","","",""
"","image-keyboard-response","338","168003","0.0-415.0","3WQQ9FUS6BGUG3PORZEM2ORCCR3B8T","A1AYQ8E01NSY5Z","3VJ4PFXFJ3TL96TFXMATEMT7KJHUAI","","462","img/food4.png","74","464","1","1","2","1,0.7,0,1,0.7,0,0.7,0,1","false",""
"","html-keyboard-response","339","168306","0.0-416.0","3WQQ9FUS6BGUG3PORZEM2ORCCR3B8T","A1AYQ8E01NSY5Z","3VJ4PFXFJ3TL96TFXMATEMT7KJHUAI","","null","<img src=""img/food4.png"" style=""width:200px; border:14px solid green;"">","null","","","","","","",""
"","image-keyboard-response","340","169084","0.0-418.0","3WQQ9FUS6BGUG3PORZEM2ORCCR3B8T","A1AYQ8E01NSY5Z","3VJ4PFXFJ3TL96TFXMATEMT7KJHUAI","","774","img/food2.png","76","776","3","1","3","1,0.7,0,1,0.7,0,0.7,0,1","false",""
"","html-keyboard-response","341","169398","0.0-419.0","3WQQ9FUS6BGUG3PORZEM2ORCCR3B8T","A1AYQ8E01NSY5Z","3VJ4PFXFJ3TL96TFXMATEMT7KJHUAI","","null","<img src=""img/food2.png"" style=""width:200px; border:14px solid green;"">","null","","","","","","",""
"","image-keyboard-response","342","169833","0.0-421.0","3WQQ9FUS6BGUG3PORZEM2ORCCR3B8T","A1AYQ8E01NSY5Z","3VJ4PFXFJ3TL96TFXMATEMT7KJHUAI","","433","img/food4.png","74","434","1","1","2","1,0.7,0,1,0.7,0,0.7,0,1","false",""
"","html-keyboard-response","343","170136","0.0-422.0","3WQQ9FUS6BGUG3PORZEM2ORCCR3B8T","A1AYQ8E01NSY5Z","3VJ4PFXFJ3TL96TFXMATEMT7KJHUAI","","null","<img src=""img/food4.png"" style=""width:200px; border:14px solid green;"">","null","","","","","","",""
"","image-keyboard-response","344","170331","0.0-424.0","3WQQ9FUS6BGUG3PORZEM2ORCCR3B8T","A1AYQ8E01NSY5Z","3VJ4PFXFJ3TL96TFXMATEMT7KJHUAI","","193","img/food2.png","74","194","1","0","3","1,0.7,0,1,0.7,0,0.7,0,1","false",""
"","html-keyboard-response","345","170649","0.0-425.0","3WQQ9FUS6BGUG3PORZEM2ORCCR3B8T","A1AYQ8E01NSY5Z","3VJ4PFXFJ3TL96TFXMATEMT7KJHUAI","","null","<img src=""img/food2.png"" style=""width:200px;border:14px solid red;"">","null","","","","","","",""
"","image-keyboard-response","346","171436","0.0-427.0","3WQQ9FUS6BGUG3PORZEM2ORCCR3B8T","A1AYQ8E01NSY5Z","3VJ4PFXFJ3TL96TFXMATEMT7KJHUAI","","784","img/food4.png","74","786","1","1","2","1,0.7,0,1,0.7,0,0.7,0,1","false",""
"","html-keyboard-response","347","171746","0.0-428.0","3WQQ9FUS6BGUG3PORZEM2ORCCR3B8T","A1AYQ8E01NSY5Z","3VJ4PFXFJ3TL96TFXMATEMT7KJHUAI","","null","<img src=""img/food4.png"" style=""width:200px; border:14px solid green;"">","null","","","","","","",""
"","image-keyboard-response","348","172138","0.0-430.0","3WQQ9FUS6BGUG3PORZEM2ORCCR3B8T","A1AYQ8E01NSY5Z","3VJ4PFXFJ3TL96TFXMATEMT7KJHUAI","","389","img/food2.png","76","392","3","1","3","1,0.7,0,1,0.7,0,0.7,0,1","false",""
"","html-keyboard-response","349","172466","0.0-431.0","3WQQ9FUS6BGUG3PORZEM2ORCCR3B8T","A1AYQ8E01NSY5Z","3VJ4PFXFJ3TL96TFXMATEMT7KJHUAI","","null","<img src=""img/food2.png"" style=""width:200px; border:14px solid green;"">","null","","","","","","",""
"","image-keyboard-response","350","173027","0.0-433.0","3WQQ9FUS6BGUG3PORZEM2ORCCR3B8T","A1AYQ8E01NSY5Z","3VJ4PFXFJ3TL96TFXMATEMT7KJHUAI","","558","img/food2.png","76","560","3","1","3","1,0.7,0,1,0.7,0,0.7,0,1","false",""
"","html-keyboard-response","351","173336","0.0-434.0","3WQQ9FUS6BGUG3PORZEM2ORCCR3B8T","A1AYQ8E01NSY5Z","3VJ4PFXFJ3TL96TFXMATEMT7KJHUAI","","null","<img src=""img/food2.png"" style=""width:200px; border:14px solid green;"">","null","","","","","","",""
"","image-keyboard-response","352","173890","0.0-436.0","3WQQ9FUS6BGUG3PORZEM2ORCCR3B8T","A1AYQ8E01NSY5Z","3VJ4PFXFJ3TL96TFXMATEMT7KJHUAI","","552","img/food1.png","74","552","1","1","1","1,0.7,0,1,0.7,0,0.7,0,1","false",""
"","html-keyboard-response","353","174196","0.0-437.0","3WQQ9FUS6BGUG3PORZEM2ORCCR3B8T","A1AYQ8E01NSY5Z","3VJ4PFXFJ3TL96TFXMATEMT7KJHUAI","","null","<img src=""img/food1.png"" style=""width:200px; border:14px solid green;"">","null","","","","","","",""
"","image-keyboard-response","354","174844","0.0-439.0","3WQQ9FUS6BGUG3PORZEM2ORCCR3B8T","A1AYQ8E01NSY5Z","3VJ4PFXFJ3TL96TFXMATEMT7KJHUAI","","645","img/food4.png","74","647","1","1","2","1,0.7,0,1,0.7,0,0.7,0,1","false",""
"","html-keyboard-response","355","175148","0.0-440.0","3WQQ9FUS6BGUG3PORZEM2ORCCR3B8T","A1AYQ8E01NSY5Z","3VJ4PFXFJ3TL96TFXMATEMT7KJHUAI","","null","<img src=""img/food4.png"" style=""width:200px; border:14px solid green;"">","null","","","","","","",""
"","image-keyboard-response","356","175507","0.0-442.0","3WQQ9FUS6BGUG3PORZEM2ORCCR3B8T","A1AYQ8E01NSY5Z","3VJ4PFXFJ3TL96TFXMATEMT7KJHUAI","","357","img/food4.png","74","358","1","1","2","1,0.7,0,1,0.7,0,0.7,0,1","false",""
"","html-keyboard-response","357","175820","0.0-443.0","3WQQ9FUS6BGUG3PORZEM2ORCCR3B8T","A1AYQ8E01NSY5Z","3VJ4PFXFJ3TL96TFXMATEMT7KJHUAI","","null","<img src=""img/food4.png"" style=""width:200px; border:14px solid green;"">","null","","","","","","",""
"","image-keyboard-response","358","175938","0.0-445.0","3WQQ9FUS6BGUG3PORZEM2ORCCR3B8T","A1AYQ8E01NSY5Z","3VJ4PFXFJ3TL96TFXMATEMT7KJHUAI","","114","img/food1.png","74","116","1","1","1","1,0.7,0,1,0.7,0,0.7,0,1","false",""
"","html-keyboard-response","359","176243","0.0-446.0","3WQQ9FUS6BGUG3PORZEM2ORCCR3B8T","A1AYQ8E01NSY5Z","3VJ4PFXFJ3TL96TFXMATEMT7KJHUAI","","null","<img src=""img/food1.png"" style=""width:200px; border:14px solid green;"">","null","","","","","","",""
"","image-keyboard-response","360","176514","0.0-448.0","3WQQ9FUS6BGUG3PORZEM2ORCCR3B8T","A1AYQ8E01NSY5Z","3VJ4PFXFJ3TL96TFXMATEMT7KJHUAI","","270","img/food1.png","74","271","1","1","1","1,0.7,0,1,0.7,0,0.7,0,1","false",""
"","html-keyboard-response","361","176820","0.0-449.0","3WQQ9FUS6BGUG3PORZEM2ORCCR3B8T","A1AYQ8E01NSY5Z","3VJ4PFXFJ3TL96TFXMATEMT7KJHUAI","","null","<img src=""img/food1.png"" style=""width:200px; border:14px solid green;"">","null","","","","","","",""
"","image-keyboard-response","362","177148","0.0-451.0","3WQQ9FUS6BGUG3PORZEM2ORCCR3B8T","A1AYQ8E01NSY5Z","3VJ4PFXFJ3TL96TFXMATEMT7KJHUAI","","323","img/food1.png","74","324","1","1","1","1,0.7,0,1,0.7,0,0.7,0,1","false",""
"","html-keyboard-response","363","177462","0.0-452.0","3WQQ9FUS6BGUG3PORZEM2ORCCR3B8T","A1AYQ8E01NSY5Z","3VJ4PFXFJ3TL96TFXMATEMT7KJHUAI","","null","<img src=""img/food1.png"" style=""width:200px; border:14px solid green;"">","null","","","","","","",""
"","instructions","364","180227","0.0-454.0","3WQQ9FUS6BGUG3PORZEM2ORCCR3B8T","A1AYQ8E01NSY5Z","3VJ4PFXFJ3TL96TFXMATEMT7KJHUAI","[{""page_index"":0,""viewing_time"":2763}]","2763","","","","","","","","",""
"","survey-text","365","183046","0.0-455.0","3WQQ9FUS6BGUG3PORZEM2ORCCR3B8T","A1AYQ8E01NSY5Z","3VJ4PFXFJ3TL96TFXMATEMT7KJHUAI","","2816","","","","","","","","","{""Q0"":""A1AYQ8E01NSY5Z""}"
