"success","trial_type","trial_index","time_elapsed","internal_node_id","assignmentID","mturkID","hitID","view_history","rt","stimulus","key_press","reactionTime","a","r","s","cond","reward_cond","reward_cond_actual","reward_matrix_idx","warning","responses"
"true","fullscreen","0","55171","0.0-0.0","3TOK3KHVJU4AZJ9ELZR2U8VG8DT7OX","A1BJFYHXK6YDX1","3THR0FZ95PF7SK0MYRNAOUHTWA4OLV","","","","","","","","","","","","","",""
"","instructions","1","65732","0.0-1.0","3TOK3KHVJU4AZJ9ELZR2U8VG8DT7OX","A1BJFYHXK6YDX1","3THR0FZ95PF7SK0MYRNAOUHTWA4OLV","[{""page_index"":0,""viewing_time"":1696.8999999761581},{""page_index"":1,""viewing_time"":738.3999999761581},{""page_index"":2,""viewing_time"":456.2000000476837},{""page_index"":3,""viewing_time"":3531.699999988079},{""page_index"":4,""viewing_time"":1900.199999988079},{""page_index"":5,""viewing_time"":1211},{""page_index"":6,""viewing_time"":1023.1999999880791}]","10558.399999976158","","","","","","","","","","","",""
"","image-keyboard-response","2","67646","0.0-2.0","3TOK3KHVJU4AZJ9ELZR2U8VG8DT7OX","A1BJFYHXK6YDX1","3THR0FZ95PF7SK0MYRNAOUHTWA4OLV","","1912.1000000238419","img/food2.png","75","1913.6000000238419","2","1","2","1","1,0.7,0,1,0.7,0,0.7,0,1","1,0.7,0,1,0.7,0,0.7,0,1","1","",""
"","html-keyboard-response","3","67955","0.0-3.0","3TOK3KHVJU4AZJ9ELZR2U8VG8DT7OX","A1BJFYHXK6YDX1","3THR0FZ95PF7SK0MYRNAOUHTWA4OLV","","null","<img src=""img/food2.png"" style=""width:200px; border:14px solid green;"">","null","","","","","","","","","",""
"","image-keyboard-response","4","69054","0.0-4.0","3TOK3KHVJU4AZJ9ELZR2U8VG8DT7OX","A1BJFYHXK6YDX1","3THR0FZ95PF7SK0MYRNAOUHTWA4OLV","","1097.699999988079","img/food6.png","76","1099","3","0","1","1","1,0.7,0,1,0.7,0,0.7,0,1","1,0.7,0,1,0.7,0,0.7,0,1","1","",""
"","html-keyboard-response","5","69359","0.0-5.0","3TOK3KHVJU4AZJ9ELZR2U8VG8DT7OX","A1BJFYHXK6YDX1","3THR0FZ95PF7SK0MYRNAOUHTWA4OLV","","null","<img src=""img/food6.png"" style=""width:200px;border:14px solid red;"">","null","","","","","","","","","",""
"","image-keyboard-response","6","71181","0.0-6.0","3TOK3KHVJU4AZJ9ELZR2U8VG8DT7OX","A1BJFYHXK6YDX1","3THR0FZ95PF7SK0MYRNAOUHTWA4OLV","","1819.9000000357628","img/food2.png","75","1821.300000011921","2","0","2","1","1,0.7,0,1,0.7,0,0.7,0,1","1,0.7,0,1,0.7,0,0.7,0,1","1","",""
"","html-keyboard-response","7","71487","0.0-7.0","3TOK3KHVJU4AZJ9ELZR2U8VG8DT7OX","A1BJFYHXK6YDX1","3THR0FZ95PF7SK0MYRNAOUHTWA4OLV","","null","<img src=""img/food2.png"" style=""width:200px;border:14px solid red;"">","null","","","","","","","","","",""
"","image-keyboard-response","8","72548","0.0-8.0","3TOK3KHVJU4AZJ9ELZR2U8VG8DT7OX","A1BJFYHXK6YDX1","3THR0FZ95PF7SK0MYRNAOUHTWA4OLV","","1058.5","img/food6.png","74","1059.9000000357628","1","1","1","1","1,0.7,0,1,0.7,0,0.7,0,1","1,0.7,0,1,0.7,0,0.7,0,1","1","",""
"","html-keyboard-response","9","72854","0.0-9.0","3TOK3KHVJU4AZJ9ELZR2U8VG8DT7OX","A1BJFYHXK6YDX1","3THR0FZ95PF7SK0MYRNAOUHTWA4OLV","","null","<img src=""img/food6.png"" style=""width:200px; border:14px solid green;"">","null","","","","","","","","","",""
"","image-keyboard-response","10","74439","0.0-10.0","3TOK3KHVJU4AZJ9ELZR2U8VG8DT7OX","A1BJFYHXK6YDX1","3THR0FZ95PF7SK0MYRNAOUHTWA4OLV","","1583.5","img/food1.png","76","1584.6000000238419","3","1","3","1","1,0.7,0,1,0.7,0,0.7,0,1","1,0.7,0,1,0.7,0,0.7,0,1","1","",""
"","html-keyboard-response","11","74748","0.0-11.0","3TOK3KHVJU4AZJ9ELZR2U8VG8DT7OX","A1BJFYHXK6YDX1","3THR0FZ95PF7SK0MYRNAOUHTWA4OLV","","null","<img src=""img/food1.png"" style=""width:200px; border:14px solid green;"">","null","","","","","","","","","",""
"","image-keyboard-response","12","75508","0.0-12.0","3TOK3KHVJU4AZJ9ELZR2U8VG8DT7OX","A1BJFYHXK6YDX1","3THR0FZ95PF7SK0MYRNAOUHTWA4OLV","","758","img/food2.png","75","759.1999999880791","2","1","2","1","1,0.7,0,1,0.7,0,0.7,0,1","1,0.7,0,1,0.7,0,0.7,0,1","1","",""
"","html-keyboard-response","13","75818","0.0-13.0","3TOK3KHVJU4AZJ9ELZR2U8VG8DT7OX","A1BJFYHXK6YDX1","3THR0FZ95PF7SK0MYRNAOUHTWA4OLV","","null","<img src=""img/food2.png"" style=""width:200px; border:14px solid green;"">","null","","","","","","","","","",""
"","image-keyboard-response","14","76339","0.0-14.0","3TOK3KHVJU4AZJ9ELZR2U8VG8DT7OX","A1BJFYHXK6YDX1","3THR0FZ95PF7SK0MYRNAOUHTWA4OLV","","519.6999999880791","img/food6.png","74","521.0999999642372","1","1","1","1","1,0.7,0,1,0.7,0,0.7,0,1","1,0.7,0,1,0.7,0,0.7,0,1","1","",""
"","html-keyboard-response","15","76646","0.0-15.0","3TOK3KHVJU4AZJ9ELZR2U8VG8DT7OX","A1BJFYHXK6YDX1","3THR0FZ95PF7SK0MYRNAOUHTWA4OLV","","null","<img src=""img/food6.png"" style=""width:200px; border:14px solid green;"">","null","","","","","","","","","",""
"","image-keyboard-response","16","77372","0.0-16.0","3TOK3KHVJU4AZJ9ELZR2U8VG8DT7OX","A1BJFYHXK6YDX1","3THR0FZ95PF7SK0MYRNAOUHTWA4OLV","","724.3000000119209","img/food1.png","76","725.8000000119209","3","1","3","1","1,0.7,0,1,0.7,0,0.7,0,1","1,0.7,0,1,0.7,0,0.7,0,1","1","",""
"","html-keyboard-response","17","77675","0.0-17.0","3TOK3KHVJU4AZJ9ELZR2U8VG8DT7OX","A1BJFYHXK6YDX1","3THR0FZ95PF7SK0MYRNAOUHTWA4OLV","","null","<img src=""img/food1.png"" style=""width:200px; border:14px solid green;"">","null","","","","","","","","","",""
"","image-keyboard-response","18","78269","0.0-18.0","3TOK3KHVJU4AZJ9ELZR2U8VG8DT7OX","A1BJFYHXK6YDX1","3THR0FZ95PF7SK0MYRNAOUHTWA4OLV","","592.5","img/food2.png","75","593.8999999761581","2","1","2","1","1,0.7,0,1,0.7,0,0.7,0,1","1,0.7,0,1,0.7,0,0.7,0,1","1","",""
"","html-keyboard-response","19","78577","0.0-19.0","3TOK3KHVJU4AZJ9ELZR2U8VG8DT7OX","A1BJFYHXK6YDX1","3THR0FZ95PF7SK0MYRNAOUHTWA4OLV","","null","<img src=""img/food2.png"" style=""width:200px; border:14px solid green;"">","null","","","","","","","","","",""
"","image-keyboard-response","20","79162","0.0-20.0","3TOK3KHVJU4AZJ9ELZR2U8VG8DT7OX","A1BJFYHXK6YDX1","3THR0FZ95PF7SK0MYRNAOUHTWA4OLV","","583.5","img/food6.png","74","585","1","1","1","1","1,0.7,0,1,0.7,0,0.7,0,1","1,0.7,0,1,0.7,0,0.7,0,1","1","",""
"","html-keyboard-response","21","79468","0.0-21.0","3TOK3KHVJU4AZJ9ELZR2U8VG8DT7OX","A1BJFYHXK6YDX1","3THR0FZ95PF7SK0MYRNAOUHTWA4OLV","","null","<img src=""img/food6.png"" style=""width:200px; border:14px solid green;"">","null","","","","","","","","","",""
"","image-keyboard-response","22","79914","0.0-22.0","3TOK3KHVJU4AZJ9ELZR2U8VG8DT7OX","A1BJFYHXK6YDX1","3THR0FZ95PF7SK0MYRNAOUHTWA4OLV","","444.30000001192093","img/food6.png","74","445.5","1","1","1","1","1,0.7,0,1,0.7,0,0.7,0,1","1,0.7,0,1,0.7,0,0.7,0,1","1","",""
"","html-keyboard-response","23","80233","0.0-23.0","3TOK3KHVJU4AZJ9ELZR2U8VG8DT7OX","A1BJFYHXK6YDX1","3THR0FZ95PF7SK0MYRNAOUHTWA4OLV","","null","<img src=""img/food6.png"" style=""width:200px; border:14px solid green;"">","null","","","","","","","","","",""
"","image-keyboard-response","24","80747","0.0-24.0","3TOK3KHVJU4AZJ9ELZR2U8VG8DT7OX","A1BJFYHXK6YDX1","3THR0FZ95PF7SK0MYRNAOUHTWA4OLV","","512.8000000119209","img/food1.png","76","513.6999999880791","3","1","3","1","1,0.7,0,1,0.7,0,0.7,0,1","1,0.7,0,1,0.7,0,0.7,0,1","1","",""
"","html-keyboard-response","25","81056","0.0-25.0","3TOK3KHVJU4AZJ9ELZR2U8VG8DT7OX","A1BJFYHXK6YDX1","3THR0FZ95PF7SK0MYRNAOUHTWA4OLV","","null","<img src=""img/food1.png"" style=""width:200px; border:14px solid green;"">","null","","","","","","","","","",""
"","image-keyboard-response","26","81542","0.0-26.0","3TOK3KHVJU4AZJ9ELZR2U8VG8DT7OX","A1BJFYHXK6YDX1","3THR0FZ95PF7SK0MYRNAOUHTWA4OLV","","485","img/food6.png","74","486.19999998807907","1","1","1","1","1,0.7,0,1,0.7,0,0.7,0,1","1,0.7,0,1,0.7,0,0.7,0,1","1","",""
"","html-keyboard-response","27","81850","0.0-27.0","3TOK3KHVJU4AZJ9ELZR2U8VG8DT7OX","A1BJFYHXK6YDX1","3THR0FZ95PF7SK0MYRNAOUHTWA4OLV","","null","<img src=""img/food6.png"" style=""width:200px; border:14px solid green;"">","null","","","","","","","","","",""
"","image-keyboard-response","28","82321","0.0-28.0","3TOK3KHVJU4AZJ9ELZR2U8VG8DT7OX","A1BJFYHXK6YDX1","3THR0FZ95PF7SK0MYRNAOUHTWA4OLV","","469.30000001192093","img/food1.png","76","470.30000001192093","3","1","3","1","1,0.7,0,1,0.7,0,0.7,0,1","1,0.7,0,1,0.7,0,0.7,0,1","1","",""
"","html-keyboard-response","29","82626","0.0-29.0","3TOK3KHVJU4AZJ9ELZR2U8VG8DT7OX","A1BJFYHXK6YDX1","3THR0FZ95PF7SK0MYRNAOUHTWA4OLV","","null","<img src=""img/food1.png"" style=""width:200px; border:14px solid green;"">","null","","","","","","","","","",""
"","image-keyboard-response","30","83043","0.0-30.0","3TOK3KHVJU4AZJ9ELZR2U8VG8DT7OX","A1BJFYHXK6YDX1","3THR0FZ95PF7SK0MYRNAOUHTWA4OLV","","415.0999999642372","img/food1.png","76","416.39999997615814","3","1","3","1","1,0.7,0,1,0.7,0,0.7,0,1","1,0.7,0,1,0.7,0,0.7,0,1","1","",""
"","html-keyboard-response","31","83347","0.0-31.0","3TOK3KHVJU4AZJ9ELZR2U8VG8DT7OX","A1BJFYHXK6YDX1","3THR0FZ95PF7SK0MYRNAOUHTWA4OLV","","null","<img src=""img/food1.png"" style=""width:200px; border:14px solid green;"">","null","","","","","","","","","",""
"","image-keyboard-response","32","83798","0.0-32.0","3TOK3KHVJU4AZJ9ELZR2U8VG8DT7OX","A1BJFYHXK6YDX1","3THR0FZ95PF7SK0MYRNAOUHTWA4OLV","","449.69999998807907","img/food6.png","74","451","1","1","1","1","1,0.7,0,1,0.7,0,0.7,0,1","1,0.7,0,1,0.7,0,0.7,0,1","1","",""
"","html-keyboard-response","33","84103","0.0-33.0","3TOK3KHVJU4AZJ9ELZR2U8VG8DT7OX","A1BJFYHXK6YDX1","3THR0FZ95PF7SK0MYRNAOUHTWA4OLV","","null","<img src=""img/food6.png"" style=""width:200px; border:14px solid green;"">","null","","","","","","","","","",""
"","image-keyboard-response","34","84479","0.0-34.0","3TOK3KHVJU4AZJ9ELZR2U8VG8DT7OX","A1BJFYHXK6YDX1","3THR0FZ95PF7SK0MYRNAOUHTWA4OLV","","373.89999997615814","img/food6.png","74","375.10000002384186","1","1","1","1","1,0.7,0,1,0.7,0,0.7,0,1","1,0.7,0,1,0.7,0,0.7,0,1","1","",""
"","html-keyboard-response","35","84784","0.0-35.0","3TOK3KHVJU4AZJ9ELZR2U8VG8DT7OX","A1BJFYHXK6YDX1","3THR0FZ95PF7SK0MYRNAOUHTWA4OLV","","null","<img src=""img/food6.png"" style=""width:200px; border:14px solid green;"">","null","","","","","","","","","",""
"","image-keyboard-response","36","85139","0.0-36.0","3TOK3KHVJU4AZJ9ELZR2U8VG8DT7OX","A1BJFYHXK6YDX1","3THR0FZ95PF7SK0MYRNAOUHTWA4OLV","","353.10000002384186","img/food6.png","74","354.69999998807907","1","1","1","1","1,0.7,0,1,0.7,0,0.7,0,1","1,0.7,0,1,0.7,0,0.7,0,1","1","",""
"","html-keyboard-response","37","85449","0.0-37.0","3TOK3KHVJU4AZJ9ELZR2U8VG8DT7OX","A1BJFYHXK6YDX1","3THR0FZ95PF7SK0MYRNAOUHTWA4OLV","","null","<img src=""img/food6.png"" style=""width:200px; border:14px solid green;"">","null","","","","","","","","","",""
"","image-keyboard-response","38","85781","0.0-38.0","3TOK3KHVJU4AZJ9ELZR2U8VG8DT7OX","A1BJFYHXK6YDX1","3THR0FZ95PF7SK0MYRNAOUHTWA4OLV","","330.19999998807907","img/food6.png","74","331.30000001192093","1","1","1","1","1,0.7,0,1,0.7,0,0.7,0,1","1,0.7,0,1,0.7,0,0.7,0,1","1","",""
"","html-keyboard-response","39","86083","0.0-39.0","3TOK3KHVJU4AZJ9ELZR2U8VG8DT7OX","A1BJFYHXK6YDX1","3THR0FZ95PF7SK0MYRNAOUHTWA4OLV","","null","<img src=""img/food6.png"" style=""width:200px; border:14px solid green;"">","null","","","","","","","","","",""
"","image-keyboard-response","40","86453","0.0-40.0","3TOK3KHVJU4AZJ9ELZR2U8VG8DT7OX","A1BJFYHXK6YDX1","3THR0FZ95PF7SK0MYRNAOUHTWA4OLV","","367.5","img/food6.png","74","368.80000001192093","1","1","1","1","1,0.7,0,1,0.7,0,0.7,0,1","1,0.7,0,1,0.7,0,0.7,0,1","1","",""
"","html-keyboard-response","41","86762","0.0-41.0","3TOK3KHVJU4AZJ9ELZR2U8VG8DT7OX","A1BJFYHXK6YDX1","3THR0FZ95PF7SK0MYRNAOUHTWA4OLV","","null","<img src=""img/food6.png"" style=""width:200px; border:14px solid green;"">","null","","","","","","","","","",""
"","image-keyboard-response","42","87459","0.0-42.0","3TOK3KHVJU4AZJ9ELZR2U8VG8DT7OX","A1BJFYHXK6YDX1","3THR0FZ95PF7SK0MYRNAOUHTWA4OLV","","695.5999999642372","img/food1.png","76","696.8000000119209","3","1","3","1","1,0.7,0,1,0.7,0,0.7,0,1","1,0.7,0,1,0.7,0,0.7,0,1","1","",""
"","html-keyboard-response","43","87767","0.0-43.0","3TOK3KHVJU4AZJ9ELZR2U8VG8DT7OX","A1BJFYHXK6YDX1","3THR0FZ95PF7SK0MYRNAOUHTWA4OLV","","null","<img src=""img/food1.png"" style=""width:200px; border:14px solid green;"">","null","","","","","","","","","",""
"","image-keyboard-response","44","88429","0.0-44.0","3TOK3KHVJU4AZJ9ELZR2U8VG8DT7OX","A1BJFYHXK6YDX1","3THR0FZ95PF7SK0MYRNAOUHTWA4OLV","","660.9000000357628","img/food2.png","75","662","2","1","2","1","1,0.7,0,1,0.7,0,0.7,0,1","1,0.7,0,1,0.7,0,0.7,0,1","1","",""
"","html-keyboard-response","45","88740","0.0-45.0","3TOK3KHVJU4AZJ9ELZR2U8VG8DT7OX","A1BJFYHXK6YDX1","3THR0FZ95PF7SK0MYRNAOUHTWA4OLV","","null","<img src=""img/food2.png"" style=""width:200px; border:14px solid green;"">","null","","","","","","","","","",""
"","image-keyboard-response","46","89304","0.0-46.0","3TOK3KHVJU4AZJ9ELZR2U8VG8DT7OX","A1BJFYHXK6YDX1","3THR0FZ95PF7SK0MYRNAOUHTWA4OLV","","562.2999999523163","img/food1.png","74","563.3999999761581","1","0","3","1","1,0.7,0,1,0.7,0,0.7,0,1","1,0.7,0,1,0.7,0,0.7,0,1","1","",""
"","html-keyboard-response","47","89607","0.0-47.0","3TOK3KHVJU4AZJ9ELZR2U8VG8DT7OX","A1BJFYHXK6YDX1","3THR0FZ95PF7SK0MYRNAOUHTWA4OLV","","null","<img src=""img/food1.png"" style=""width:200px;border:14px solid red;"">","null","","","","","","","","","",""
"","image-keyboard-response","48","90569","0.0-48.0","3TOK3KHVJU4AZJ9ELZR2U8VG8DT7OX","A1BJFYHXK6YDX1","3THR0FZ95PF7SK0MYRNAOUHTWA4OLV","","961.3000000119209","img/food2.png","74","962.5","1","1","2","1","1,0.7,0,1,0.7,0,0.7,0,1","1,0.7,0,1,0.7,0,0.7,0,1","1","",""
"","html-keyboard-response","49","90876","0.0-49.0","3TOK3KHVJU4AZJ9ELZR2U8VG8DT7OX","A1BJFYHXK6YDX1","3THR0FZ95PF7SK0MYRNAOUHTWA4OLV","","null","<img src=""img/food2.png"" style=""width:200px; border:14px solid green;"">","null","","","","","","","","","",""
"","image-keyboard-response","50","91593","0.0-50.0","3TOK3KHVJU4AZJ9ELZR2U8VG8DT7OX","A1BJFYHXK6YDX1","3THR0FZ95PF7SK0MYRNAOUHTWA4OLV","","715.5","img/food1.png","76","716.8000000119209","3","1","3","1","1,0.7,0,1,0.7,0,0.7,0,1","1,0.7,0,1,0.7,0,0.7,0,1","1","",""
"","html-keyboard-response","51","91897","0.0-51.0","3TOK3KHVJU4AZJ9ELZR2U8VG8DT7OX","A1BJFYHXK6YDX1","3THR0FZ95PF7SK0MYRNAOUHTWA4OLV","","null","<img src=""img/food1.png"" style=""width:200px; border:14px solid green;"">","null","","","","","","","","","",""
"","image-keyboard-response","52","92274","0.0-52.0","3TOK3KHVJU4AZJ9ELZR2U8VG8DT7OX","A1BJFYHXK6YDX1","3THR0FZ95PF7SK0MYRNAOUHTWA4OLV","","375.80000001192093","img/food1.png","76","377.0999999642372","3","1","3","1","1,0.7,0,1,0.7,0,0.7,0,1","1,0.7,0,1,0.7,0,0.7,0,1","1","",""
"","html-keyboard-response","53","92582","0.0-53.0","3TOK3KHVJU4AZJ9ELZR2U8VG8DT7OX","A1BJFYHXK6YDX1","3THR0FZ95PF7SK0MYRNAOUHTWA4OLV","","null","<img src=""img/food1.png"" style=""width:200px; border:14px solid green;"">","null","","","","","","","","","",""
"","image-keyboard-response","54","93294","0.0-54.0","3TOK3KHVJU4AZJ9ELZR2U8VG8DT7OX","A1BJFYHXK6YDX1","3THR0FZ95PF7SK0MYRNAOUHTWA4OLV","","711.3000000119209","img/food2.png","75","712.2999999523163","2","1","2","1","1,0.7,0,1,0.7,0,0.7,0,1","1,0.7,0,1,0.7,0,0.7,0,1","1","",""
"","html-keyboard-response","55","93608","0.0-55.0","3TOK3KHVJU4AZJ9ELZR2U8VG8DT7OX","A1BJFYHXK6YDX1","3THR0FZ95PF7SK0MYRNAOUHTWA4OLV","","null","<img src=""img/food2.png"" style=""width:200px; border:14px solid green;"">","null","","","","","","","","","",""
"","image-keyboard-response","56","94231","0.0-56.0","3TOK3KHVJU4AZJ9ELZR2U8VG8DT7OX","A1BJFYHXK6YDX1","3THR0FZ95PF7SK0MYRNAOUHTWA4OLV","","621.3000000119209","img/food1.png","76","622.3999999761581","3","1","3","1","1,0.7,0,1,0.7,0,0.7,0,1","1,0.7,0,1,0.7,0,0.7,0,1","1","",""
"","html-keyboard-response","57","94535","0.0-57.0","3TOK3KHVJU4AZJ9ELZR2U8VG8DT7OX","A1BJFYHXK6YDX1","3THR0FZ95PF7SK0MYRNAOUHTWA4OLV","","null","<img src=""img/food1.png"" style=""width:200px; border:14px solid green;"">","null","","","","","","","","","",""
"","image-keyboard-response","58","95088","0.0-58.0","3TOK3KHVJU4AZJ9ELZR2U8VG8DT7OX","A1BJFYHXK6YDX1","3THR0FZ95PF7SK0MYRNAOUHTWA4OLV","","551.4000000357628","img/food1.png","76","552.6999999880791","3","1","3","1","1,0.7,0,1,0.7,0,0.7,0,1","1,0.7,0,1,0.7,0,0.7,0,1","1","",""
"","html-keyboard-response","59","95394","0.0-59.0","3TOK3KHVJU4AZJ9ELZR2U8VG8DT7OX","A1BJFYHXK6YDX1","3THR0FZ95PF7SK0MYRNAOUHTWA4OLV","","null","<img src=""img/food1.png"" style=""width:200px; border:14px solid green;"">","null","","","","","","","","","",""
"","image-keyboard-response","60","95772","0.0-60.0","3TOK3KHVJU4AZJ9ELZR2U8VG8DT7OX","A1BJFYHXK6YDX1","3THR0FZ95PF7SK0MYRNAOUHTWA4OLV","","376.9000000357628","img/food1.png","76","378.0999999642372","3","1","3","1","1,0.7,0,1,0.7,0,0.7,0,1","1,0.7,0,1,0.7,0,0.7,0,1","1","",""
"","html-keyboard-response","61","96077","0.0-61.0","3TOK3KHVJU4AZJ9ELZR2U8VG8DT7OX","A1BJFYHXK6YDX1","3THR0FZ95PF7SK0MYRNAOUHTWA4OLV","","null","<img src=""img/food1.png"" style=""width:200px; border:14px solid green;"">","null","","","","","","","","","",""
"","image-keyboard-response","62","96449","0.0-62.0","3TOK3KHVJU4AZJ9ELZR2U8VG8DT7OX","A1BJFYHXK6YDX1","3THR0FZ95PF7SK0MYRNAOUHTWA4OLV","","370.2000000476837","img/food1.png","76","371.30000001192093","3","1","3","1","1,0.7,0,1,0.7,0,0.7,0,1","1,0.7,0,1,0.7,0,0.7,0,1","1","",""
"","html-keyboard-response","63","96752","0.0-63.0","3TOK3KHVJU4AZJ9ELZR2U8VG8DT7OX","A1BJFYHXK6YDX1","3THR0FZ95PF7SK0MYRNAOUHTWA4OLV","","null","<img src=""img/food1.png"" style=""width:200px; border:14px solid green;"">","null","","","","","","","","","",""
"","image-keyboard-response","64","97412","0.0-64.0","3TOK3KHVJU4AZJ9ELZR2U8VG8DT7OX","A1BJFYHXK6YDX1","3THR0FZ95PF7SK0MYRNAOUHTWA4OLV","","658.8999999761581","img/food6.png","74","660.5999999642372","1","1","1","1","1,0.7,0,1,0.7,0,0.7,0,1","1,0.7,0,1,0.7,0,0.7,0,1","1","",""
"","html-keyboard-response","65","97716","0.0-65.0","3TOK3KHVJU4AZJ9ELZR2U8VG8DT7OX","A1BJFYHXK6YDX1","3THR0FZ95PF7SK0MYRNAOUHTWA4OLV","","null","<img src=""img/food6.png"" style=""width:200px; border:14px solid green;"">","null","","","","","","","","","",""
"","image-keyboard-response","66","98196","0.0-66.0","3TOK3KHVJU4AZJ9ELZR2U8VG8DT7OX","A1BJFYHXK6YDX1","3THR0FZ95PF7SK0MYRNAOUHTWA4OLV","","478.4000000357628","img/food6.png","74","479.60000002384186","1","1","1","1","1,0.7,0,1,0.7,0,0.7,0,1","1,0.7,0,1,0.7,0,0.7,0,1","1","",""
"","html-keyboard-response","67","98506","0.0-67.0","3TOK3KHVJU4AZJ9ELZR2U8VG8DT7OX","A1BJFYHXK6YDX1","3THR0FZ95PF7SK0MYRNAOUHTWA4OLV","","null","<img src=""img/food6.png"" style=""width:200px; border:14px solid green;"">","null","","","","","","","","","",""
"","image-keyboard-response","68","99130","0.0-68.0","3TOK3KHVJU4AZJ9ELZR2U8VG8DT7OX","A1BJFYHXK6YDX1","3THR0FZ95PF7SK0MYRNAOUHTWA4OLV","","622.8000000119209","img/food2.png","75","623.6999999880791","2","1","2","1","1,0.7,0,1,0.7,0,0.7,0,1","1,0.7,0,1,0.7,0,0.7,0,1","1","",""
"","html-keyboard-response","69","99436","0.0-69.0","3TOK3KHVJU4AZJ9ELZR2U8VG8DT7OX","A1BJFYHXK6YDX1","3THR0FZ95PF7SK0MYRNAOUHTWA4OLV","","null","<img src=""img/food2.png"" style=""width:200px; border:14px solid green;"">","null","","","","","","","","","",""
"","image-keyboard-response","70","99807","0.0-70.0","3TOK3KHVJU4AZJ9ELZR2U8VG8DT7OX","A1BJFYHXK6YDX1","3THR0FZ95PF7SK0MYRNAOUHTWA4OLV","","369.10000002384186","img/food2.png","75","370.30000001192093","2","1","2","1","1,0.7,0,1,0.7,0,0.7,0,1","1,0.7,0,1,0.7,0,0.7,0,1","1","",""
"","html-keyboard-response","71","100117","0.0-71.0","3TOK3KHVJU4AZJ9ELZR2U8VG8DT7OX","A1BJFYHXK6YDX1","3THR0FZ95PF7SK0MYRNAOUHTWA4OLV","","null","<img src=""img/food2.png"" style=""width:200px; border:14px solid green;"">","null","","","","","","","","","",""
"","image-keyboard-response","72","100438","0.0-72.0","3TOK3KHVJU4AZJ9ELZR2U8VG8DT7OX","A1BJFYHXK6YDX1","3THR0FZ95PF7SK0MYRNAOUHTWA4OLV","","319.10000002384186","img/food2.png","75","320.39999997615814","2","1","2","1","1,0.7,0,1,0.7,0,0.7,0,1","1,0.7,0,1,0.7,0,0.7,0,1","1","",""
"","html-keyboard-response","73","100745","0.0-73.0","3TOK3KHVJU4AZJ9ELZR2U8VG8DT7OX","A1BJFYHXK6YDX1","3THR0FZ95PF7SK0MYRNAOUHTWA4OLV","","null","<img src=""img/food2.png"" style=""width:200px; border:14px solid green;"">","null","","","","","","","","","",""
"","image-keyboard-response","74","101098","0.0-74.0","3TOK3KHVJU4AZJ9ELZR2U8VG8DT7OX","A1BJFYHXK6YDX1","3THR0FZ95PF7SK0MYRNAOUHTWA4OLV","","351.2999999523163","img/food2.png","75","352.60000002384186","2","1","2","1","1,0.7,0,1,0.7,0,0.7,0,1","1,0.7,0,1,0.7,0,0.7,0,1","1","",""
"","html-keyboard-response","75","101404","0.0-75.0","3TOK3KHVJU4AZJ9ELZR2U8VG8DT7OX","A1BJFYHXK6YDX1","3THR0FZ95PF7SK0MYRNAOUHTWA4OLV","","null","<img src=""img/food2.png"" style=""width:200px; border:14px solid green;"">","null","","","","","","","","","",""
"","image-keyboard-response","76","101790","0.0-76.0","3TOK3KHVJU4AZJ9ELZR2U8VG8DT7OX","A1BJFYHXK6YDX1","3THR0FZ95PF7SK0MYRNAOUHTWA4OLV","","384.5","img/food2.png","75","385.5999999642372","2","1","2","1","1,0.7,0,1,0.7,0,0.7,0,1","1,0.7,0,1,0.7,0,0.7,0,1","1","",""
"","html-keyboard-response","77","102097","0.0-77.0","3TOK3KHVJU4AZJ9ELZR2U8VG8DT7OX","A1BJFYHXK6YDX1","3THR0FZ95PF7SK0MYRNAOUHTWA4OLV","","null","<img src=""img/food2.png"" style=""width:200px; border:14px solid green;"">","null","","","","","","","","","",""
"","image-keyboard-response","78","102554","0.0-78.0","3TOK3KHVJU4AZJ9ELZR2U8VG8DT7OX","A1BJFYHXK6YDX1","3THR0FZ95PF7SK0MYRNAOUHTWA4OLV","","454.69999998807907","img/food6.png","75","456","2","0","1","1","1,0.7,0,1,0.7,0,0.7,0,1","1,0.7,0,1,0.7,0,0.7,0,1","1","",""
"","html-keyboard-response","79","102861","0.0-79.0","3TOK3KHVJU4AZJ9ELZR2U8VG8DT7OX","A1BJFYHXK6YDX1","3THR0FZ95PF7SK0MYRNAOUHTWA4OLV","","null","<img src=""img/food6.png"" style=""width:200px;border:14px solid red;"">","null","","","","","","","","","",""
"","image-keyboard-response","80","103633","0.0-80.0","3TOK3KHVJU4AZJ9ELZR2U8VG8DT7OX","A1BJFYHXK6YDX1","3THR0FZ95PF7SK0MYRNAOUHTWA4OLV","","771.3999999761581","img/food6.png","74","772.5","1","1","1","1","1,0.7,0,1,0.7,0,0.7,0,1","1,0.7,0,1,0.7,0,0.7,0,1","1","",""
"","html-keyboard-response","81","103944","0.0-81.0","3TOK3KHVJU4AZJ9ELZR2U8VG8DT7OX","A1BJFYHXK6YDX1","3THR0FZ95PF7SK0MYRNAOUHTWA4OLV","","null","<img src=""img/food6.png"" style=""width:200px; border:14px solid green;"">","null","","","","","","","","","",""
"","image-keyboard-response","82","104249","0.0-82.0","3TOK3KHVJU4AZJ9ELZR2U8VG8DT7OX","A1BJFYHXK6YDX1","3THR0FZ95PF7SK0MYRNAOUHTWA4OLV","","303.39999997615814","img/food6.png","74","304.80000001192093","1","1","1","1","1,0.7,0,1,0.7,0,0.7,0,1","1,0.7,0,1,0.7,0,0.7,0,1","1","",""
"","html-keyboard-response","83","104553","0.0-83.0","3TOK3KHVJU4AZJ9ELZR2U8VG8DT7OX","A1BJFYHXK6YDX1","3THR0FZ95PF7SK0MYRNAOUHTWA4OLV","","null","<img src=""img/food6.png"" style=""width:200px; border:14px solid green;"">","null","","","","","","","","","",""
"","image-keyboard-response","84","105456","0.0-84.0","3TOK3KHVJU4AZJ9ELZR2U8VG8DT7OX","A1BJFYHXK6YDX1","3THR0FZ95PF7SK0MYRNAOUHTWA4OLV","","900.8000000119209","img/food2.png","76","902","3","0","2","1","1,0.7,0,1,0.7,0,0.7,0,1","1,0.7,0,1,0.7,0,0.7,0,1","1","",""
"","html-keyboard-response","85","105766","0.0-85.0","3TOK3KHVJU4AZJ9ELZR2U8VG8DT7OX","A1BJFYHXK6YDX1","3THR0FZ95PF7SK0MYRNAOUHTWA4OLV","","null","<img src=""img/food2.png"" style=""width:200px;border:14px solid red;"">","null","","","","","","","","","",""
"","image-keyboard-response","86","106563","0.0-86.0","3TOK3KHVJU4AZJ9ELZR2U8VG8DT7OX","A1BJFYHXK6YDX1","3THR0FZ95PF7SK0MYRNAOUHTWA4OLV","","795.8999999761581","img/food6.png","74","797.0999999642372","1","1","1","1","1,0.7,0,1,0.7,0,0.7,0,1","1,0.7,0,1,0.7,0,0.7,0,1","1","",""
"","html-keyboard-response","87","106872","0.0-87.0","3TOK3KHVJU4AZJ9ELZR2U8VG8DT7OX","A1BJFYHXK6YDX1","3THR0FZ95PF7SK0MYRNAOUHTWA4OLV","","null","<img src=""img/food6.png"" style=""width:200px; border:14px solid green;"">","null","","","","","","","","","",""
"","image-keyboard-response","88","107192","0.0-88.0","3TOK3KHVJU4AZJ9ELZR2U8VG8DT7OX","A1BJFYHXK6YDX1","3THR0FZ95PF7SK0MYRNAOUHTWA4OLV","","319","img/food6.png","74","320.19999998807907","1","1","1","1","1,0.7,0,1,0.7,0,0.7,0,1","1,0.7,0,1,0.7,0,0.7,0,1","1","",""
"","html-keyboard-response","89","107496","0.0-89.0","3TOK3KHVJU4AZJ9ELZR2U8VG8DT7OX","A1BJFYHXK6YDX1","3THR0FZ95PF7SK0MYRNAOUHTWA4OLV","","null","<img src=""img/food6.png"" style=""width:200px; border:14px solid green;"">","null","","","","","","","","","",""
"","image-keyboard-response","90","108157","0.0-90.0","3TOK3KHVJU4AZJ9ELZR2U8VG8DT7OX","A1BJFYHXK6YDX1","3THR0FZ95PF7SK0MYRNAOUHTWA4OLV","","653.5","img/food2.png","75","654.8000000119209","2","1","2","1","1,0.7,0,1,0.7,0,0.7,0,1","1,0.7,0,1,0.7,0,0.7,0,1","1","",""
"","html-keyboard-response","91","108461","0.0-91.0","3TOK3KHVJU4AZJ9ELZR2U8VG8DT7OX","A1BJFYHXK6YDX1","3THR0FZ95PF7SK0MYRNAOUHTWA4OLV","","null","<img src=""img/food2.png"" style=""width:200px; border:14px solid green;"">","null","","","","","","","","","",""
"","image-keyboard-response","92","109057","0.0-92.0","3TOK3KHVJU4AZJ9ELZR2U8VG8DT7OX","A1BJFYHXK6YDX1","3THR0FZ95PF7SK0MYRNAOUHTWA4OLV","","594.3999999761581","img/food6.png","74","595.6999999880791","1","1","1","1","1,0.7,0,1,0.7,0,0.7,0,1","1,0.7,0,1,0.7,0,0.7,0,1","1","",""
"","html-keyboard-response","93","109360","0.0-93.0","3TOK3KHVJU4AZJ9ELZR2U8VG8DT7OX","A1BJFYHXK6YDX1","3THR0FZ95PF7SK0MYRNAOUHTWA4OLV","","null","<img src=""img/food6.png"" style=""width:200px; border:14px solid green;"">","null","","","","","","","","","",""
"","image-keyboard-response","94","110106","0.0-94.0","3TOK3KHVJU4AZJ9ELZR2U8VG8DT7OX","A1BJFYHXK6YDX1","3THR0FZ95PF7SK0MYRNAOUHTWA4OLV","","744.5","img/food1.png","76","745.6000000238419","3","1","3","1","1,0.7,0,1,0.7,0,0.7,0,1","1,0.7,0,1,0.7,0,0.7,0,1","1","",""
"","html-keyboard-response","95","110415","0.0-95.0","3TOK3KHVJU4AZJ9ELZR2U8VG8DT7OX","A1BJFYHXK6YDX1","3THR0FZ95PF7SK0MYRNAOUHTWA4OLV","","null","<img src=""img/food1.png"" style=""width:200px; border:14px solid green;"">","null","","","","","","","","","",""
"","image-keyboard-response","96","111090","0.0-96.0","3TOK3KHVJU4AZJ9ELZR2U8VG8DT7OX","A1BJFYHXK6YDX1","3THR0FZ95PF7SK0MYRNAOUHTWA4OLV","","672.8999999761581","img/food2.png","75","674.5","2","1","2","1","1,0.7,0,1,0.7,0,0.7,0,1","1,0.7,0,1,0.7,0,0.7,0,1","1","",""
"","html-keyboard-response","97","111392","0.0-97.0","3TOK3KHVJU4AZJ9ELZR2U8VG8DT7OX","A1BJFYHXK6YDX1","3THR0FZ95PF7SK0MYRNAOUHTWA4OLV","","null","<img src=""img/food2.png"" style=""width:200px; border:14px solid green;"">","null","","","","","","","","","",""
"","image-keyboard-response","98","111709","0.0-98.0","3TOK3KHVJU4AZJ9ELZR2U8VG8DT7OX","A1BJFYHXK6YDX1","3THR0FZ95PF7SK0MYRNAOUHTWA4OLV","","314.69999998807907","img/food2.png","75","315.80000001192093","2","1","2","1","1,0.7,0,1,0.7,0,0.7,0,1","1,0.7,0,1,0.7,0,0.7,0,1","1","",""
"","html-keyboard-response","99","112011","0.0-99.0","3TOK3KHVJU4AZJ9ELZR2U8VG8DT7OX","A1BJFYHXK6YDX1","3THR0FZ95PF7SK0MYRNAOUHTWA4OLV","","null","<img src=""img/food2.png"" style=""width:200px; border:14px solid green;"">","null","","","","","","","","","",""
"","image-keyboard-response","100","112604","0.0-100.0","3TOK3KHVJU4AZJ9ELZR2U8VG8DT7OX","A1BJFYHXK6YDX1","3THR0FZ95PF7SK0MYRNAOUHTWA4OLV","","591.5","img/food6.png","74","592.6999999880791","1","1","1","1","1,0.7,0,1,0.7,0,0.7,0,1","1,0.7,0,1,0.7,0,0.7,0,1","1","",""
"","html-keyboard-response","101","112919","0.0-101.0","3TOK3KHVJU4AZJ9ELZR2U8VG8DT7OX","A1BJFYHXK6YDX1","3THR0FZ95PF7SK0MYRNAOUHTWA4OLV","","null","<img src=""img/food6.png"" style=""width:200px; border:14px solid green;"">","null","","","","","","","","","",""
"","image-keyboard-response","102","113651","0.0-102.0","3TOK3KHVJU4AZJ9ELZR2U8VG8DT7OX","A1BJFYHXK6YDX1","3THR0FZ95PF7SK0MYRNAOUHTWA4OLV","","730.1999999880791","img/food1.png","76","731.5","3","1","3","1","1,0.7,0,1,0.7,0,0.7,0,1","1,0.7,0,1,0.7,0,0.7,0,1","1","",""
"","html-keyboard-response","103","113955","0.0-103.0","3TOK3KHVJU4AZJ9ELZR2U8VG8DT7OX","A1BJFYHXK6YDX1","3THR0FZ95PF7SK0MYRNAOUHTWA4OLV","","null","<img src=""img/food1.png"" style=""width:200px; border:14px solid green;"">","null","","","","","","","","","",""
"","image-keyboard-response","104","114364","0.0-104.0","3TOK3KHVJU4AZJ9ELZR2U8VG8DT7OX","A1BJFYHXK6YDX1","3THR0FZ95PF7SK0MYRNAOUHTWA4OLV","","407.89999997615814","img/food1.png","76","409","3","1","3","1","1,0.7,0,1,0.7,0,0.7,0,1","1,0.7,0,1,0.7,0,0.7,0,1","1","",""
"","html-keyboard-response","105","114668","0.0-105.0","3TOK3KHVJU4AZJ9ELZR2U8VG8DT7OX","A1BJFYHXK6YDX1","3THR0FZ95PF7SK0MYRNAOUHTWA4OLV","","null","<img src=""img/food1.png"" style=""width:200px; border:14px solid green;"">","null","","","","","","","","","",""
"","image-keyboard-response","106","115404","0.0-106.0","3TOK3KHVJU4AZJ9ELZR2U8VG8DT7OX","A1BJFYHXK6YDX1","3THR0FZ95PF7SK0MYRNAOUHTWA4OLV","","734.6000000238419","img/food2.png","75","735.8000000119209","2","1","2","1","1,0.7,0,1,0.7,0,0.7,0,1","1,0.7,0,1,0.7,0,0.7,0,1","1","",""
"","html-keyboard-response","107","115718","0.0-107.0","3TOK3KHVJU4AZJ9ELZR2U8VG8DT7OX","A1BJFYHXK6YDX1","3THR0FZ95PF7SK0MYRNAOUHTWA4OLV","","null","<img src=""img/food2.png"" style=""width:200px; border:14px solid green;"">","null","","","","","","","","","",""
"","image-keyboard-response","108","116091","0.0-108.0","3TOK3KHVJU4AZJ9ELZR2U8VG8DT7OX","A1BJFYHXK6YDX1","3THR0FZ95PF7SK0MYRNAOUHTWA4OLV","","371.60000002384186","img/food2.png","75","373","2","1","2","1","1,0.7,0,1,0.7,0,0.7,0,1","1,0.7,0,1,0.7,0,0.7,0,1","1","",""
"","html-keyboard-response","109","116403","0.0-109.0","3TOK3KHVJU4AZJ9ELZR2U8VG8DT7OX","A1BJFYHXK6YDX1","3THR0FZ95PF7SK0MYRNAOUHTWA4OLV","","null","<img src=""img/food2.png"" style=""width:200px; border:14px solid green;"">","null","","","","","","","","","",""
"","image-keyboard-response","110","117117","0.0-110.0","3TOK3KHVJU4AZJ9ELZR2U8VG8DT7OX","A1BJFYHXK6YDX1","3THR0FZ95PF7SK0MYRNAOUHTWA4OLV","","711.8999999761581","img/food6.png","74","713.1000000238419","1","1","1","1","1,0.7,0,1,0.7,0,0.7,0,1","1,0.7,0,1,0.7,0,0.7,0,1","1","",""
"","html-keyboard-response","111","117425","0.0-111.0","3TOK3KHVJU4AZJ9ELZR2U8VG8DT7OX","A1BJFYHXK6YDX1","3THR0FZ95PF7SK0MYRNAOUHTWA4OLV","","null","<img src=""img/food6.png"" style=""width:200px; border:14px solid green;"">","null","","","","","","","","","",""
"","image-keyboard-response","112","118373","0.0-112.0","3TOK3KHVJU4AZJ9ELZR2U8VG8DT7OX","A1BJFYHXK6YDX1","3THR0FZ95PF7SK0MYRNAOUHTWA4OLV","","945.6999999880791","img/food2.png","75","947.8999999761581","2","1","2","1","1,0.7,0,1,0.7,0,0.7,0,1","1,0.7,0,1,0.7,0,0.7,0,1","1","",""
"","html-keyboard-response","113","118682","0.0-113.0","3TOK3KHVJU4AZJ9ELZR2U8VG8DT7OX","A1BJFYHXK6YDX1","3THR0FZ95PF7SK0MYRNAOUHTWA4OLV","","null","<img src=""img/food2.png"" style=""width:200px; border:14px solid green;"">","null","","","","","","","","","",""
"","image-keyboard-response","114","119061","0.0-114.0","3TOK3KHVJU4AZJ9ELZR2U8VG8DT7OX","A1BJFYHXK6YDX1","3THR0FZ95PF7SK0MYRNAOUHTWA4OLV","","377.60000002384186","img/food2.png","75","378.7000000476837","2","1","2","1","1,0.7,0,1,0.7,0,0.7,0,1","1,0.7,0,1,0.7,0,0.7,0,1","1","",""
"","html-keyboard-response","115","119371","0.0-115.0","3TOK3KHVJU4AZJ9ELZR2U8VG8DT7OX","A1BJFYHXK6YDX1","3THR0FZ95PF7SK0MYRNAOUHTWA4OLV","","null","<img src=""img/food2.png"" style=""width:200px; border:14px solid green;"">","null","","","","","","","","","",""
"","image-keyboard-response","116","120130","0.0-116.0","3TOK3KHVJU4AZJ9ELZR2U8VG8DT7OX","A1BJFYHXK6YDX1","3THR0FZ95PF7SK0MYRNAOUHTWA4OLV","","757.2000000476837","img/food1.png","76","758.4000000357628","3","1","3","1","1,0.7,0,1,0.7,0,0.7,0,1","1,0.7,0,1,0.7,0,0.7,0,1","1","",""
"","html-keyboard-response","117","120439","0.0-117.0","3TOK3KHVJU4AZJ9ELZR2U8VG8DT7OX","A1BJFYHXK6YDX1","3THR0FZ95PF7SK0MYRNAOUHTWA4OLV","","null","<img src=""img/food1.png"" style=""width:200px; border:14px solid green;"">","null","","","","","","","","","",""
"","image-keyboard-response","118","120801","0.0-118.0","3TOK3KHVJU4AZJ9ELZR2U8VG8DT7OX","A1BJFYHXK6YDX1","3THR0FZ95PF7SK0MYRNAOUHTWA4OLV","","360.60000002384186","img/food1.png","76","361.80000001192093","3","1","3","1","1,0.7,0,1,0.7,0,0.7,0,1","1,0.7,0,1,0.7,0,0.7,0,1","1","",""
"","html-keyboard-response","119","121104","0.0-119.0","3TOK3KHVJU4AZJ9ELZR2U8VG8DT7OX","A1BJFYHXK6YDX1","3THR0FZ95PF7SK0MYRNAOUHTWA4OLV","","null","<img src=""img/food1.png"" style=""width:200px; border:14px solid green;"">","null","","","","","","","","","",""
"","image-keyboard-response","120","121774","0.0-120.0","3TOK3KHVJU4AZJ9ELZR2U8VG8DT7OX","A1BJFYHXK6YDX1","3THR0FZ95PF7SK0MYRNAOUHTWA4OLV","","667.8000000119209","img/food6.png","74","669.1000000238419","1","1","1","1","1,0.7,0,1,0.7,0,0.7,0,1","1,0.7,0,1,0.7,0,0.7,0,1","1","",""
"","html-keyboard-response","121","122079","0.0-121.0","3TOK3KHVJU4AZJ9ELZR2U8VG8DT7OX","A1BJFYHXK6YDX1","3THR0FZ95PF7SK0MYRNAOUHTWA4OLV","","null","<img src=""img/food6.png"" style=""width:200px; border:14px solid green;"">","null","","","","","","","","","",""
"","image-keyboard-response","122","122728","0.0-122.0","3TOK3KHVJU4AZJ9ELZR2U8VG8DT7OX","A1BJFYHXK6YDX1","3THR0FZ95PF7SK0MYRNAOUHTWA4OLV","","648.1000000238419","img/food2.png","75","649.1999999880791","2","0","2","1","1,0.7,0,1,0.7,0,0.7,0,1","1,0.7,0,1,0.7,0,0.7,0,1","1","",""
"","html-keyboard-response","123","123036","0.0-123.0","3TOK3KHVJU4AZJ9ELZR2U8VG8DT7OX","A1BJFYHXK6YDX1","3THR0FZ95PF7SK0MYRNAOUHTWA4OLV","","null","<img src=""img/food2.png"" style=""width:200px;border:14px solid red;"">","null","","","","","","","","","",""
"","image-keyboard-response","124","123764","0.0-124.0","3TOK3KHVJU4AZJ9ELZR2U8VG8DT7OX","A1BJFYHXK6YDX1","3THR0FZ95PF7SK0MYRNAOUHTWA4OLV","","726.1999999880791","img/food6.png","74","727.5","1","1","1","1","1,0.7,0,1,0.7,0,0.7,0,1","1,0.7,0,1,0.7,0,0.7,0,1","1","",""
"","html-keyboard-response","125","124073","0.0-125.0","3TOK3KHVJU4AZJ9ELZR2U8VG8DT7OX","A1BJFYHXK6YDX1","3THR0FZ95PF7SK0MYRNAOUHTWA4OLV","","null","<img src=""img/food6.png"" style=""width:200px; border:14px solid green;"">","null","","","","","","","","","",""
"","image-keyboard-response","126","124757","0.0-126.0","3TOK3KHVJU4AZJ9ELZR2U8VG8DT7OX","A1BJFYHXK6YDX1","3THR0FZ95PF7SK0MYRNAOUHTWA4OLV","","683.3000000119209","img/food1.png","76","684.3000000119209","3","1","3","1","1,0.7,0,1,0.7,0,0.7,0,1","1,0.7,0,1,0.7,0,0.7,0,1","1","",""
"","html-keyboard-response","127","125069","0.0-127.0","3TOK3KHVJU4AZJ9ELZR2U8VG8DT7OX","A1BJFYHXK6YDX1","3THR0FZ95PF7SK0MYRNAOUHTWA4OLV","","null","<img src=""img/food1.png"" style=""width:200px; border:14px solid green;"">","null","","","","","","","","","",""
"","image-keyboard-response","128","126486","0.0-128.0","3TOK3KHVJU4AZJ9ELZR2U8VG8DT7OX","A1BJFYHXK6YDX1","3THR0FZ95PF7SK0MYRNAOUHTWA4OLV","","1415.3999999761581","img/food2.png","75","1416.800000011921","2","1","2","1","1,0.7,0,1,0.7,0,0.7,0,1","1,0.7,0,1,0.7,0,0.7,0,1","1","",""
"","html-keyboard-response","129","126796","0.0-129.0","3TOK3KHVJU4AZJ9ELZR2U8VG8DT7OX","A1BJFYHXK6YDX1","3THR0FZ95PF7SK0MYRNAOUHTWA4OLV","","null","<img src=""img/food2.png"" style=""width:200px; border:14px solid green;"">","null","","","","","","","","","",""
"","image-keyboard-response","130","127135","0.0-130.0","3TOK3KHVJU4AZJ9ELZR2U8VG8DT7OX","A1BJFYHXK6YDX1","3THR0FZ95PF7SK0MYRNAOUHTWA4OLV","","337.4000000357628","img/food2.png","75","338.7000000476837","2","1","2","1","1,0.7,0,1,0.7,0,0.7,0,1","1,0.7,0,1,0.7,0,0.7,0,1","1","",""
"","html-keyboard-response","131","127452","0.0-131.0","3TOK3KHVJU4AZJ9ELZR2U8VG8DT7OX","A1BJFYHXK6YDX1","3THR0FZ95PF7SK0MYRNAOUHTWA4OLV","","null","<img src=""img/food2.png"" style=""width:200px; border:14px solid green;"">","null","","","","","","","","","",""
"","image-keyboard-response","132","128069","0.0-132.0","3TOK3KHVJU4AZJ9ELZR2U8VG8DT7OX","A1BJFYHXK6YDX1","3THR0FZ95PF7SK0MYRNAOUHTWA4OLV","","615.5","img/food1.png","76","616.5999999642372","3","1","3","1","1,0.7,0,1,0.7,0,0.7,0,1","1,0.7,0,1,0.7,0,0.7,0,1","1","",""
"","html-keyboard-response","133","128374","0.0-133.0","3TOK3KHVJU4AZJ9ELZR2U8VG8DT7OX","A1BJFYHXK6YDX1","3THR0FZ95PF7SK0MYRNAOUHTWA4OLV","","null","<img src=""img/food1.png"" style=""width:200px; border:14px solid green;"">","null","","","","","","","","","",""
"","image-keyboard-response","134","128878","0.0-134.0","3TOK3KHVJU4AZJ9ELZR2U8VG8DT7OX","A1BJFYHXK6YDX1","3THR0FZ95PF7SK0MYRNAOUHTWA4OLV","","501.80000001192093","img/food6.png","74","503.30000001192093","1","1","1","1","1,0.7,0,1,0.7,0,0.7,0,1","1,0.7,0,1,0.7,0,0.7,0,1","1","",""
"","html-keyboard-response","135","129182","0.0-135.0","3TOK3KHVJU4AZJ9ELZR2U8VG8DT7OX","A1BJFYHXK6YDX1","3THR0FZ95PF7SK0MYRNAOUHTWA4OLV","","null","<img src=""img/food6.png"" style=""width:200px; border:14px solid green;"">","null","","","","","","","","","",""
"","image-keyboard-response","136","129764","0.0-136.0","3TOK3KHVJU4AZJ9ELZR2U8VG8DT7OX","A1BJFYHXK6YDX1","3THR0FZ95PF7SK0MYRNAOUHTWA4OLV","","580.2999999523163","img/food1.png","76","581.5","3","1","3","1","1,0.7,0,1,0.7,0,0.7,0,1","1,0.7,0,1,0.7,0,0.7,0,1","1","",""
"","html-keyboard-response","137","130081","0.0-137.0","3TOK3KHVJU4AZJ9ELZR2U8VG8DT7OX","A1BJFYHXK6YDX1","3THR0FZ95PF7SK0MYRNAOUHTWA4OLV","","null","<img src=""img/food1.png"" style=""width:200px; border:14px solid green;"">","null","","","","","","","","","",""
"","image-keyboard-response","138","130715","0.0-138.0","3TOK3KHVJU4AZJ9ELZR2U8VG8DT7OX","A1BJFYHXK6YDX1","3THR0FZ95PF7SK0MYRNAOUHTWA4OLV","","631.7999999523163","img/food6.png","74","633.0999999642372","1","1","1","1","1,0.7,0,1,0.7,0,0.7,0,1","1,0.7,0,1,0.7,0,0.7,0,1","1","",""
"","html-keyboard-response","139","131020","0.0-139.0","3TOK3KHVJU4AZJ9ELZR2U8VG8DT7OX","A1BJFYHXK6YDX1","3THR0FZ95PF7SK0MYRNAOUHTWA4OLV","","null","<img src=""img/food6.png"" style=""width:200px; border:14px solid green;"">","null","","","","","","","","","",""
"","image-keyboard-response","140","131600","0.0-140.0","3TOK3KHVJU4AZJ9ELZR2U8VG8DT7OX","A1BJFYHXK6YDX1","3THR0FZ95PF7SK0MYRNAOUHTWA4OLV","","578.5","img/food1.png","76","579.6999999880791","3","1","3","1","1,0.7,0,1,0.7,0,0.7,0,1","1,0.7,0,1,0.7,0,0.7,0,1","1","",""
"","html-keyboard-response","141","131904","0.0-141.0","3TOK3KHVJU4AZJ9ELZR2U8VG8DT7OX","A1BJFYHXK6YDX1","3THR0FZ95PF7SK0MYRNAOUHTWA4OLV","","null","<img src=""img/food1.png"" style=""width:200px; border:14px solid green;"">","null","","","","","","","","","",""
"","image-keyboard-response","142","132294","0.0-142.0","3TOK3KHVJU4AZJ9ELZR2U8VG8DT7OX","A1BJFYHXK6YDX1","3THR0FZ95PF7SK0MYRNAOUHTWA4OLV","","388.80000001192093","img/food1.png","76","390.10000002384186","3","1","3","1","1,0.7,0,1,0.7,0,0.7,0,1","1,0.7,0,1,0.7,0,0.7,0,1","1","",""
"","html-keyboard-response","143","132611","0.0-143.0","3TOK3KHVJU4AZJ9ELZR2U8VG8DT7OX","A1BJFYHXK6YDX1","3THR0FZ95PF7SK0MYRNAOUHTWA4OLV","","null","<img src=""img/food1.png"" style=""width:200px; border:14px solid green;"">","null","","","","","","","","","",""
"","image-keyboard-response","144","133198","0.0-144.0","3TOK3KHVJU4AZJ9ELZR2U8VG8DT7OX","A1BJFYHXK6YDX1","3THR0FZ95PF7SK0MYRNAOUHTWA4OLV","","585.4000000357628","img/food6.png","74","586.6999999880791","1","1","1","1","1,0.7,0,1,0.7,0,0.7,0,1","1,0.7,0,1,0.7,0,0.7,0,1","1","",""
"","html-keyboard-response","145","133501","0.0-145.0","3TOK3KHVJU4AZJ9ELZR2U8VG8DT7OX","A1BJFYHXK6YDX1","3THR0FZ95PF7SK0MYRNAOUHTWA4OLV","","null","<img src=""img/food6.png"" style=""width:200px; border:14px solid green;"">","null","","","","","","","","","",""
"","image-keyboard-response","146","134093","0.0-146.0","3TOK3KHVJU4AZJ9ELZR2U8VG8DT7OX","A1BJFYHXK6YDX1","3THR0FZ95PF7SK0MYRNAOUHTWA4OLV","","590.1000000238419","img/food2.png","75","591.3999999761581","2","1","2","1","1,0.7,0,1,0.7,0,0.7,0,1","1,0.7,0,1,0.7,0,0.7,0,1","1","",""
"","html-keyboard-response","147","134402","0.0-147.0","3TOK3KHVJU4AZJ9ELZR2U8VG8DT7OX","A1BJFYHXK6YDX1","3THR0FZ95PF7SK0MYRNAOUHTWA4OLV","","null","<img src=""img/food2.png"" style=""width:200px; border:14px solid green;"">","null","","","","","","","","","",""
"","image-keyboard-response","148","134750","0.0-148.0","3TOK3KHVJU4AZJ9ELZR2U8VG8DT7OX","A1BJFYHXK6YDX1","3THR0FZ95PF7SK0MYRNAOUHTWA4OLV","","347.4000000357628","img/food2.png","75","348.5","2","1","2","1","1,0.7,0,1,0.7,0,0.7,0,1","1,0.7,0,1,0.7,0,0.7,0,1","1","",""
"","html-keyboard-response","149","135061","0.0-149.0","3TOK3KHVJU4AZJ9ELZR2U8VG8DT7OX","A1BJFYHXK6YDX1","3THR0FZ95PF7SK0MYRNAOUHTWA4OLV","","null","<img src=""img/food2.png"" style=""width:200px; border:14px solid green;"">","null","","","","","","","","","",""
"","image-keyboard-response","150","135810","0.0-150.0","3TOK3KHVJU4AZJ9ELZR2U8VG8DT7OX","A1BJFYHXK6YDX1","3THR0FZ95PF7SK0MYRNAOUHTWA4OLV","","747.1999999880791","img/food1.png","76","748.2999999523163","3","1","3","1","1,0.7,0,1,0.7,0,0.7,0,1","1,0.7,0,1,0.7,0,0.7,0,1","1","",""
"","html-keyboard-response","151","136118","0.0-151.0","3TOK3KHVJU4AZJ9ELZR2U8VG8DT7OX","A1BJFYHXK6YDX1","3THR0FZ95PF7SK0MYRNAOUHTWA4OLV","","null","<img src=""img/food1.png"" style=""width:200px; border:14px solid green;"">","null","","","","","","","","","",""
"","image-keyboard-response","152","136548","0.0-152.0","3TOK3KHVJU4AZJ9ELZR2U8VG8DT7OX","A1BJFYHXK6YDX1","3THR0FZ95PF7SK0MYRNAOUHTWA4OLV","","429","img/food1.png","76","430.10000002384186","3","1","3","1","1,0.7,0,1,0.7,0,0.7,0,1","1,0.7,0,1,0.7,0,0.7,0,1","1","",""
"","html-keyboard-response","153","136860","0.0-153.0","3TOK3KHVJU4AZJ9ELZR2U8VG8DT7OX","A1BJFYHXK6YDX1","3THR0FZ95PF7SK0MYRNAOUHTWA4OLV","","null","<img src=""img/food1.png"" style=""width:200px; border:14px solid green;"">","null","","","","","","","","","",""
"","image-keyboard-response","154","137330","0.0-154.0","3TOK3KHVJU4AZJ9ELZR2U8VG8DT7OX","A1BJFYHXK6YDX1","3THR0FZ95PF7SK0MYRNAOUHTWA4OLV","","468.80000001192093","img/food6.png","74","470.19999998807907","1","1","1","1","1,0.7,0,1,0.7,0,0.7,0,1","1,0.7,0,1,0.7,0,0.7,0,1","1","",""
"","html-keyboard-response","155","137633","0.0-155.0","3TOK3KHVJU4AZJ9ELZR2U8VG8DT7OX","A1BJFYHXK6YDX1","3THR0FZ95PF7SK0MYRNAOUHTWA4OLV","","null","<img src=""img/food6.png"" style=""width:200px; border:14px solid green;"">","null","","","","","","","","","",""
"","image-keyboard-response","156","138432","0.0-156.0","3TOK3KHVJU4AZJ9ELZR2U8VG8DT7OX","A1BJFYHXK6YDX1","3THR0FZ95PF7SK0MYRNAOUHTWA4OLV","","797.3999999761581","img/food1.png","76","798.5","3","1","3","1","1,0.7,0,1,0.7,0,0.7,0,1","1,0.7,0,1,0.7,0,0.7,0,1","1","",""
"","html-keyboard-response","157","138735","0.0-157.0","3TOK3KHVJU4AZJ9ELZR2U8VG8DT7OX","A1BJFYHXK6YDX1","3THR0FZ95PF7SK0MYRNAOUHTWA4OLV","","null","<img src=""img/food1.png"" style=""width:200px; border:14px solid green;"">","null","","","","","","","","","",""
"","image-keyboard-response","158","139675","0.0-158.0","3TOK3KHVJU4AZJ9ELZR2U8VG8DT7OX","A1BJFYHXK6YDX1","3THR0FZ95PF7SK0MYRNAOUHTWA4OLV","","938.3000000119209","img/food6.png","74","939.3000000119209","1","1","1","1","1,0.7,0,1,0.7,0,0.7,0,1","1,0.7,0,1,0.7,0,0.7,0,1","1","",""
"","html-keyboard-response","159","139981","0.0-159.0","3TOK3KHVJU4AZJ9ELZR2U8VG8DT7OX","A1BJFYHXK6YDX1","3THR0FZ95PF7SK0MYRNAOUHTWA4OLV","","null","<img src=""img/food6.png"" style=""width:200px; border:14px solid green;"">","null","","","","","","","","","",""
"","image-keyboard-response","160","140346","0.0-160.0","3TOK3KHVJU4AZJ9ELZR2U8VG8DT7OX","A1BJFYHXK6YDX1","3THR0FZ95PF7SK0MYRNAOUHTWA4OLV","","363.5","img/food6.png","74","364.69999998807907","1","1","1","1","1,0.7,0,1,0.7,0,0.7,0,1","1,0.7,0,1,0.7,0,0.7,0,1","1","",""
"","html-keyboard-response","161","140662","0.0-161.0","3TOK3KHVJU4AZJ9ELZR2U8VG8DT7OX","A1BJFYHXK6YDX1","3THR0FZ95PF7SK0MYRNAOUHTWA4OLV","","null","<img src=""img/food6.png"" style=""width:200px; border:14px solid green;"">","null","","","","","","","","","",""
"","image-keyboard-response","162","140974","0.0-162.0","3TOK3KHVJU4AZJ9ELZR2U8VG8DT7OX","A1BJFYHXK6YDX1","3THR0FZ95PF7SK0MYRNAOUHTWA4OLV","","309.30000001192093","img/food6.png","74","310.9000000357628","1","1","1","1","1,0.7,0,1,0.7,0,0.7,0,1","1,0.7,0,1,0.7,0,0.7,0,1","1","",""
"","html-keyboard-response","163","141284","0.0-163.0","3TOK3KHVJU4AZJ9ELZR2U8VG8DT7OX","A1BJFYHXK6YDX1","3THR0FZ95PF7SK0MYRNAOUHTWA4OLV","","null","<img src=""img/food6.png"" style=""width:200px; border:14px solid green;"">","null","","","","","","","","","",""
"","image-keyboard-response","164","141873","0.0-164.0","3TOK3KHVJU4AZJ9ELZR2U8VG8DT7OX","A1BJFYHXK6YDX1","3THR0FZ95PF7SK0MYRNAOUHTWA4OLV","","587.3000000119209","img/food1.png","76","588.6000000238419","3","1","3","1","1,0.7,0,1,0.7,0,0.7,0,1","1,0.7,0,1,0.7,0,0.7,0,1","1","",""
"","html-keyboard-response","165","142181","0.0-165.0","3TOK3KHVJU4AZJ9ELZR2U8VG8DT7OX","A1BJFYHXK6YDX1","3THR0FZ95PF7SK0MYRNAOUHTWA4OLV","","null","<img src=""img/food1.png"" style=""width:200px; border:14px solid green;"">","null","","","","","","","","","",""
"","image-keyboard-response","166","142632","0.0-166.0","3TOK3KHVJU4AZJ9ELZR2U8VG8DT7OX","A1BJFYHXK6YDX1","3THR0FZ95PF7SK0MYRNAOUHTWA4OLV","","449.89999997615814","img/food1.png","76","451.19999998807907","3","1","3","1","1,0.7,0,1,0.7,0,0.7,0,1","1,0.7,0,1,0.7,0,0.7,0,1","1","",""
"","html-keyboard-response","167","142942","0.0-167.0","3TOK3KHVJU4AZJ9ELZR2U8VG8DT7OX","A1BJFYHXK6YDX1","3THR0FZ95PF7SK0MYRNAOUHTWA4OLV","","null","<img src=""img/food1.png"" style=""width:200px; border:14px solid green;"">","null","","","","","","","","","",""
"","image-keyboard-response","168","143554","0.0-168.0","3TOK3KHVJU4AZJ9ELZR2U8VG8DT7OX","A1BJFYHXK6YDX1","3THR0FZ95PF7SK0MYRNAOUHTWA4OLV","","610.0999999642372","img/food2.png","75","611.3999999761581","2","1","2","1","1,0.7,0,1,0.7,0,0.7,0,1","1,0.7,0,1,0.7,0,0.7,0,1","1","",""
"","html-keyboard-response","169","143863","0.0-169.0","3TOK3KHVJU4AZJ9ELZR2U8VG8DT7OX","A1BJFYHXK6YDX1","3THR0FZ95PF7SK0MYRNAOUHTWA4OLV","","null","<img src=""img/food2.png"" style=""width:200px; border:14px solid green;"">","null","","","","","","","","","",""
"","image-keyboard-response","170","144584","0.0-170.0","3TOK3KHVJU4AZJ9ELZR2U8VG8DT7OX","A1BJFYHXK6YDX1","3THR0FZ95PF7SK0MYRNAOUHTWA4OLV","","720","img/food1.png","76","721.2999999523163","3","1","3","1","1,0.7,0,1,0.7,0,0.7,0,1","1,0.7,0,1,0.7,0,0.7,0,1","1","",""
"","html-keyboard-response","171","144890","0.0-171.0","3TOK3KHVJU4AZJ9ELZR2U8VG8DT7OX","A1BJFYHXK6YDX1","3THR0FZ95PF7SK0MYRNAOUHTWA4OLV","","null","<img src=""img/food1.png"" style=""width:200px; border:14px solid green;"">","null","","","","","","","","","",""
"","image-keyboard-response","172","145333","0.0-172.0","3TOK3KHVJU4AZJ9ELZR2U8VG8DT7OX","A1BJFYHXK6YDX1","3THR0FZ95PF7SK0MYRNAOUHTWA4OLV","","440.7999999523163","img/food2.png","76","442.5","3","0","2","1","1,0.7,0,1,0.7,0,0.7,0,1","1,0.7,0,1,0.7,0,0.7,0,1","1","",""
"","html-keyboard-response","173","145637","0.0-173.0","3TOK3KHVJU4AZJ9ELZR2U8VG8DT7OX","A1BJFYHXK6YDX1","3THR0FZ95PF7SK0MYRNAOUHTWA4OLV","","null","<img src=""img/food2.png"" style=""width:200px;border:14px solid red;"">","null","","","","","","","","","",""
"","image-keyboard-response","174","146380","0.0-174.0","3TOK3KHVJU4AZJ9ELZR2U8VG8DT7OX","A1BJFYHXK6YDX1","3THR0FZ95PF7SK0MYRNAOUHTWA4OLV","","741.3999999761581","img/food1.png","76","742.6999999880791","3","1","3","1","1,0.7,0,1,0.7,0,0.7,0,1","1,0.7,0,1,0.7,0,0.7,0,1","1","",""
"","html-keyboard-response","175","146686","0.0-175.0","3TOK3KHVJU4AZJ9ELZR2U8VG8DT7OX","A1BJFYHXK6YDX1","3THR0FZ95PF7SK0MYRNAOUHTWA4OLV","","null","<img src=""img/food1.png"" style=""width:200px; border:14px solid green;"">","null","","","","","","","","","",""
"","image-keyboard-response","176","147696","0.0-176.0","3TOK3KHVJU4AZJ9ELZR2U8VG8DT7OX","A1BJFYHXK6YDX1","3THR0FZ95PF7SK0MYRNAOUHTWA4OLV","","1007.9000000357628","img/food2.png","75","1009.0999999642372","2","1","2","1","1,0.7,0,1,0.7,0,0.7,0,1","1,0.7,0,1,0.7,0,0.7,0,1","1","",""
"","html-keyboard-response","177","148004","0.0-177.0","3TOK3KHVJU4AZJ9ELZR2U8VG8DT7OX","A1BJFYHXK6YDX1","3THR0FZ95PF7SK0MYRNAOUHTWA4OLV","","null","<img src=""img/food2.png"" style=""width:200px; border:14px solid green;"">","null","","","","","","","","","",""
"","image-keyboard-response","178","148290","0.0-178.0","3TOK3KHVJU4AZJ9ELZR2U8VG8DT7OX","A1BJFYHXK6YDX1","3THR0FZ95PF7SK0MYRNAOUHTWA4OLV","","284.60000002384186","img/food2.png","75","285.9000000357628","2","0","2","1","1,0.7,0,1,0.7,0,0.7,0,1","1,0.7,0,1,0.7,0,0.7,0,1","1","",""
"","html-keyboard-response","179","148595","0.0-179.0","3TOK3KHVJU4AZJ9ELZR2U8VG8DT7OX","A1BJFYHXK6YDX1","3THR0FZ95PF7SK0MYRNAOUHTWA4OLV","","null","<img src=""img/food2.png"" style=""width:200px;border:14px solid red;"">","null","","","","","","","","","",""
"","image-keyboard-response","180","149587","0.0-180.0","3TOK3KHVJU4AZJ9ELZR2U8VG8DT7OX","A1BJFYHXK6YDX1","3THR0FZ95PF7SK0MYRNAOUHTWA4OLV","","990.3000000119209","img/food2.png","75","991.6000000238419","2","0","2","1","1,0.7,0,1,0.7,0,0.7,0,1","1,0.7,0,1,0.7,0,0.7,0,1","1","",""
"","html-keyboard-response","181","149892","0.0-181.0","3TOK3KHVJU4AZJ9ELZR2U8VG8DT7OX","A1BJFYHXK6YDX1","3THR0FZ95PF7SK0MYRNAOUHTWA4OLV","","null","<img src=""img/food2.png"" style=""width:200px;border:14px solid red;"">","null","","","","","","","","","",""
"","html-keyboard-response","182","152715","0.0-182.0","3TOK3KHVJU4AZJ9ELZR2U8VG8DT7OX","A1BJFYHXK6YDX1","3THR0FZ95PF7SK0MYRNAOUHTWA4OLV","","","","","","","","","","","","","",""
"","instructions","183","155692","0.0-183.0","3TOK3KHVJU4AZJ9ELZR2U8VG8DT7OX","A1BJFYHXK6YDX1","3THR0FZ95PF7SK0MYRNAOUHTWA4OLV","[{""page_index"":0,""viewing_time"":1668.9000000357628},{""page_index"":1,""viewing_time"":1307.7999999523163}]","2977","","","","","","","","","","","",""
"","image-keyboard-response","184","156705","0.0-184.0","3TOK3KHVJU4AZJ9ELZR2U8VG8DT7OX","A1BJFYHXK6YDX1","3THR0FZ95PF7SK0MYRNAOUHTWA4OLV","","","img/food5.png","","1012.5999999642372","-1","0","2","2","1,0.7,0,1,0.7,0,0.7,0,1","0,1,0.7,0,1,0.7,1,0.7,0","3","true",""
"","html-keyboard-response","185","157012","0.0-185.0","3TOK3KHVJU4AZJ9ELZR2U8VG8DT7OX","A1BJFYHXK6YDX1","3THR0FZ95PF7SK0MYRNAOUHTWA4OLV","","null","<img src=""img/food5.png"" style=""width:200px;border:14px solid red;"">","null","","","","","","","","","",""
"","html-keyboard-response","186","163261","0.0-186.0-0.0","3TOK3KHVJU4AZJ9ELZR2U8VG8DT7OX","A1BJFYHXK6YDX1","3THR0FZ95PF7SK0MYRNAOUHTWA4OLV","","","","","","","","","","","","","",""
"","image-keyboard-response","187","163664","0.0-187.0","3TOK3KHVJU4AZJ9ELZR2U8VG8DT7OX","A1BJFYHXK6YDX1","3THR0FZ95PF7SK0MYRNAOUHTWA4OLV","","402.2999999523163","img/food4.png","75","403.60000002384186","2","1","3","2","1,0.7,0,1,0.7,0,0.7,0,1","0,1,0.7,0,1,0.7,1,0.7,0","3","false",""
"","html-keyboard-response","188","163974","0.0-188.0","3TOK3KHVJU4AZJ9ELZR2U8VG8DT7OX","A1BJFYHXK6YDX1","3THR0FZ95PF7SK0MYRNAOUHTWA4OLV","","null","<img src=""img/food4.png"" style=""width:200px; border:14px solid green;"">","null","","","","","","","","","",""
"","image-keyboard-response","189","164881","0.0-190.0","3TOK3KHVJU4AZJ9ELZR2U8VG8DT7OX","A1BJFYHXK6YDX1","3THR0FZ95PF7SK0MYRNAOUHTWA4OLV","","905.3999999761581","img/food3.png","74","906.6999999880791","1","0","1","2","1,0.7,0,1,0.7,0,0.7,0,1","0,1,0.7,0,1,0.7,1,0.7,0","3","false",""
"","html-keyboard-response","190","165190","0.0-191.0","3TOK3KHVJU4AZJ9ELZR2U8VG8DT7OX","A1BJFYHXK6YDX1","3THR0FZ95PF7SK0MYRNAOUHTWA4OLV","","null","<img src=""img/food3.png"" style=""width:200px;border:14px solid red;"">","null","","","","","","","","","",""
"","image-keyboard-response","191","166082","0.0-193.0","3TOK3KHVJU4AZJ9ELZR2U8VG8DT7OX","A1BJFYHXK6YDX1","3THR0FZ95PF7SK0MYRNAOUHTWA4OLV","","889.6999999880791","img/food5.png","74","891.4000000357628","1","0","2","2","1,0.7,0,1,0.7,0,0.7,0,1","0,1,0.7,0,1,0.7,1,0.7,0","3","false",""
"","html-keyboard-response","192","166390","0.0-194.0","3TOK3KHVJU4AZJ9ELZR2U8VG8DT7OX","A1BJFYHXK6YDX1","3THR0FZ95PF7SK0MYRNAOUHTWA4OLV","","null","<img src=""img/food5.png"" style=""width:200px;border:14px solid red;"">","null","","","","","","","","","",""
"","image-keyboard-response","193","167324","0.0-196.0","3TOK3KHVJU4AZJ9ELZR2U8VG8DT7OX","A1BJFYHXK6YDX1","3THR0FZ95PF7SK0MYRNAOUHTWA4OLV","","932.6999999880791","img/food5.png","76","934.1000000238419","3","1","2","2","1,0.7,0,1,0.7,0,0.7,0,1","0,1,0.7,0,1,0.7,1,0.7,0","3","false",""
"","html-keyboard-response","194","167630","0.0-197.0","3TOK3KHVJU4AZJ9ELZR2U8VG8DT7OX","A1BJFYHXK6YDX1","3THR0FZ95PF7SK0MYRNAOUHTWA4OLV","","null","<img src=""img/food5.png"" style=""width:200px; border:14px solid green;"">","null","","","","","","","","","",""
"","image-keyboard-response","195","168220","0.0-199.0","3TOK3KHVJU4AZJ9ELZR2U8VG8DT7OX","A1BJFYHXK6YDX1","3THR0FZ95PF7SK0MYRNAOUHTWA4OLV","","592.6999999880791","img/food3.png","75","594","2","1","1","2","1,0.7,0,1,0.7,0,0.7,0,1","0,1,0.7,0,1,0.7,1,0.7,0","3","false",""
"","html-keyboard-response","196","168533","0.0-200.0","3TOK3KHVJU4AZJ9ELZR2U8VG8DT7OX","A1BJFYHXK6YDX1","3THR0FZ95PF7SK0MYRNAOUHTWA4OLV","","null","<img src=""img/food3.png"" style=""width:200px; border:14px solid green;"">","null","","","","","","","","","",""
"","image-keyboard-response","197","169158","0.0-202.0","3TOK3KHVJU4AZJ9ELZR2U8VG8DT7OX","A1BJFYHXK6YDX1","3THR0FZ95PF7SK0MYRNAOUHTWA4OLV","","624","img/food4.png","74","625.5","1","1","3","2","1,0.7,0,1,0.7,0,0.7,0,1","0,1,0.7,0,1,0.7,1,0.7,0","3","false",""
"","html-keyboard-response","198","169469","0.0-203.0","3TOK3KHVJU4AZJ9ELZR2U8VG8DT7OX","A1BJFYHXK6YDX1","3THR0FZ95PF7SK0MYRNAOUHTWA4OLV","","null","<img src=""img/food4.png"" style=""width:200px; border:14px solid green;"">","null","","","","","","","","","",""
"","image-keyboard-response","199","170271","0.0-205.0","3TOK3KHVJU4AZJ9ELZR2U8VG8DT7OX","A1BJFYHXK6YDX1","3THR0FZ95PF7SK0MYRNAOUHTWA4OLV","","800.1000000238419","img/food5.png","75","801.5","2","1","2","2","1,0.7,0,1,0.7,0,0.7,0,1","0,1,0.7,0,1,0.7,1,0.7,0","3","false",""
"","html-keyboard-response","200","170579","0.0-206.0","3TOK3KHVJU4AZJ9ELZR2U8VG8DT7OX","A1BJFYHXK6YDX1","3THR0FZ95PF7SK0MYRNAOUHTWA4OLV","","null","<img src=""img/food5.png"" style=""width:200px; border:14px solid green;"">","null","","","","","","","","","",""
"","image-keyboard-response","201","171349","0.0-208.0","3TOK3KHVJU4AZJ9ELZR2U8VG8DT7OX","A1BJFYHXK6YDX1","3THR0FZ95PF7SK0MYRNAOUHTWA4OLV","","768.6000000238419","img/food4.png","74","769.8999999761581","1","1","3","2","1,0.7,0,1,0.7,0,0.7,0,1","0,1,0.7,0,1,0.7,1,0.7,0","3","false",""
"","html-keyboard-response","202","171658","0.0-209.0","3TOK3KHVJU4AZJ9ELZR2U8VG8DT7OX","A1BJFYHXK6YDX1","3THR0FZ95PF7SK0MYRNAOUHTWA4OLV","","null","<img src=""img/food4.png"" style=""width:200px; border:14px solid green;"">","null","","","","","","","","","",""
"","image-keyboard-response","203","172044","0.0-211.0","3TOK3KHVJU4AZJ9ELZR2U8VG8DT7OX","A1BJFYHXK6YDX1","3THR0FZ95PF7SK0MYRNAOUHTWA4OLV","","384.2000000476837","img/food4.png","74","385.4000000357628","1","1","3","2","1,0.7,0,1,0.7,0,0.7,0,1","0,1,0.7,0,1,0.7,1,0.7,0","3","false",""
"","html-keyboard-response","204","172350","0.0-212.0","3TOK3KHVJU4AZJ9ELZR2U8VG8DT7OX","A1BJFYHXK6YDX1","3THR0FZ95PF7SK0MYRNAOUHTWA4OLV","","null","<img src=""img/food4.png"" style=""width:200px; border:14px solid green;"">","null","","","","","","","","","",""
"","image-keyboard-response","205","173057","0.0-214.0","3TOK3KHVJU4AZJ9ELZR2U8VG8DT7OX","A1BJFYHXK6YDX1","3THR0FZ95PF7SK0MYRNAOUHTWA4OLV","","704.9000000357628","img/food3.png","76","706.4000000357628","3","1","1","2","1,0.7,0,1,0.7,0,0.7,0,1","0,1,0.7,0,1,0.7,1,0.7,0","3","false",""
"","html-keyboard-response","206","173367","0.0-215.0","3TOK3KHVJU4AZJ9ELZR2U8VG8DT7OX","A1BJFYHXK6YDX1","3THR0FZ95PF7SK0MYRNAOUHTWA4OLV","","null","<img src=""img/food3.png"" style=""width:200px; border:14px solid green;"">","null","","","","","","","","","",""
"","image-keyboard-response","207","173924","0.0-217.0","3TOK3KHVJU4AZJ9ELZR2U8VG8DT7OX","A1BJFYHXK6YDX1","3THR0FZ95PF7SK0MYRNAOUHTWA4OLV","","555.1999999880791","img/food4.png","74","556.8000000119209","1","1","3","2","1,0.7,0,1,0.7,0,0.7,0,1","0,1,0.7,0,1,0.7,1,0.7,0","3","false",""
"","html-keyboard-response","208","174236","0.0-218.0","3TOK3KHVJU4AZJ9ELZR2U8VG8DT7OX","A1BJFYHXK6YDX1","3THR0FZ95PF7SK0MYRNAOUHTWA4OLV","","null","<img src=""img/food4.png"" style=""width:200px; border:14px solid green;"">","null","","","","","","","","","",""
"","image-keyboard-response","209","174794","0.0-220.0","3TOK3KHVJU4AZJ9ELZR2U8VG8DT7OX","A1BJFYHXK6YDX1","3THR0FZ95PF7SK0MYRNAOUHTWA4OLV","","555.6000000238419","img/food3.png","76","557.1000000238419","3","1","1","2","1,0.7,0,1,0.7,0,0.7,0,1","0,1,0.7,0,1,0.7,1,0.7,0","3","false",""
"","html-keyboard-response","210","175104","0.0-221.0","3TOK3KHVJU4AZJ9ELZR2U8VG8DT7OX","A1BJFYHXK6YDX1","3THR0FZ95PF7SK0MYRNAOUHTWA4OLV","","null","<img src=""img/food3.png"" style=""width:200px; border:14px solid green;"">","null","","","","","","","","","",""
"","image-keyboard-response","211","175566","0.0-223.0","3TOK3KHVJU4AZJ9ELZR2U8VG8DT7OX","A1BJFYHXK6YDX1","3THR0FZ95PF7SK0MYRNAOUHTWA4OLV","","460.5","img/food3.png","76","461.69999998807907","3","1","1","2","1,0.7,0,1,0.7,0,0.7,0,1","0,1,0.7,0,1,0.7,1,0.7,0","3","false",""
"","html-keyboard-response","212","175881","0.0-224.0","3TOK3KHVJU4AZJ9ELZR2U8VG8DT7OX","A1BJFYHXK6YDX1","3THR0FZ95PF7SK0MYRNAOUHTWA4OLV","","null","<img src=""img/food3.png"" style=""width:200px; border:14px solid green;"">","null","","","","","","","","","",""
"","image-keyboard-response","213","176310","0.0-226.0","3TOK3KHVJU4AZJ9ELZR2U8VG8DT7OX","A1BJFYHXK6YDX1","3THR0FZ95PF7SK0MYRNAOUHTWA4OLV","","427.0999999642372","img/food3.png","76","428.39999997615814","3","1","1","2","1,0.7,0,1,0.7,0,0.7,0,1","0,1,0.7,0,1,0.7,1,0.7,0","3","false",""
"","html-keyboard-response","214","176621","0.0-227.0","3TOK3KHVJU4AZJ9ELZR2U8VG8DT7OX","A1BJFYHXK6YDX1","3THR0FZ95PF7SK0MYRNAOUHTWA4OLV","","null","<img src=""img/food3.png"" style=""width:200px; border:14px solid green;"">","null","","","","","","","","","",""
"","image-keyboard-response","215","177116","0.0-229.0","3TOK3KHVJU4AZJ9ELZR2U8VG8DT7OX","A1BJFYHXK6YDX1","3THR0FZ95PF7SK0MYRNAOUHTWA4OLV","","493.39999997615814","img/food4.png","74","494.80000001192093","1","1","3","2","1,0.7,0,1,0.7,0,0.7,0,1","0,1,0.7,0,1,0.7,1,0.7,0","3","false",""
"","html-keyboard-response","216","177420","0.0-230.0","3TOK3KHVJU4AZJ9ELZR2U8VG8DT7OX","A1BJFYHXK6YDX1","3THR0FZ95PF7SK0MYRNAOUHTWA4OLV","","null","<img src=""img/food4.png"" style=""width:200px; border:14px solid green;"">","null","","","","","","","","","",""
"","image-keyboard-response","217","178133","0.0-232.0","3TOK3KHVJU4AZJ9ELZR2U8VG8DT7OX","A1BJFYHXK6YDX1","3THR0FZ95PF7SK0MYRNAOUHTWA4OLV","","711.5999999642372","img/food5.png","75","712.9000000357628","2","1","2","2","1,0.7,0,1,0.7,0,0.7,0,1","0,1,0.7,0,1,0.7,1,0.7,0","3","false",""
"","html-keyboard-response","218","178440","0.0-233.0","3TOK3KHVJU4AZJ9ELZR2U8VG8DT7OX","A1BJFYHXK6YDX1","3THR0FZ95PF7SK0MYRNAOUHTWA4OLV","","null","<img src=""img/food5.png"" style=""width:200px; border:14px solid green;"">","null","","","","","","","","","",""
"","image-keyboard-response","219","179204","0.0-235.0","3TOK3KHVJU4AZJ9ELZR2U8VG8DT7OX","A1BJFYHXK6YDX1","3THR0FZ95PF7SK0MYRNAOUHTWA4OLV","","762.4000000357628","img/food4.png","74","763.6999999880791","1","1","3","2","1,0.7,0,1,0.7,0,0.7,0,1","0,1,0.7,0,1,0.7,1,0.7,0","3","false",""
"","html-keyboard-response","220","179513","0.0-236.0","3TOK3KHVJU4AZJ9ELZR2U8VG8DT7OX","A1BJFYHXK6YDX1","3THR0FZ95PF7SK0MYRNAOUHTWA4OLV","","null","<img src=""img/food4.png"" style=""width:200px; border:14px solid green;"">","null","","","","","","","","","",""
"","image-keyboard-response","221","179996","0.0-238.0","3TOK3KHVJU4AZJ9ELZR2U8VG8DT7OX","A1BJFYHXK6YDX1","3THR0FZ95PF7SK0MYRNAOUHTWA4OLV","","481.30000001192093","img/food3.png","75","482.5","2","1","1","2","1,0.7,0,1,0.7,0,0.7,0,1","0,1,0.7,0,1,0.7,1,0.7,0","3","false",""
"","html-keyboard-response","222","180305","0.0-239.0","3TOK3KHVJU4AZJ9ELZR2U8VG8DT7OX","A1BJFYHXK6YDX1","3THR0FZ95PF7SK0MYRNAOUHTWA4OLV","","null","<img src=""img/food3.png"" style=""width:200px; border:14px solid green;"">","null","","","","","","","","","",""
"","image-keyboard-response","223","181135","0.0-241.0","3TOK3KHVJU4AZJ9ELZR2U8VG8DT7OX","A1BJFYHXK6YDX1","3THR0FZ95PF7SK0MYRNAOUHTWA4OLV","","828","img/food4.png","74","830","1","1","3","2","1,0.7,0,1,0.7,0,0.7,0,1","0,1,0.7,0,1,0.7,1,0.7,0","3","false",""
"","html-keyboard-response","224","181441","0.0-242.0","3TOK3KHVJU4AZJ9ELZR2U8VG8DT7OX","A1BJFYHXK6YDX1","3THR0FZ95PF7SK0MYRNAOUHTWA4OLV","","null","<img src=""img/food4.png"" style=""width:200px; border:14px solid green;"">","null","","","","","","","","","",""
"","image-keyboard-response","225","182007","0.0-244.0","3TOK3KHVJU4AZJ9ELZR2U8VG8DT7OX","A1BJFYHXK6YDX1","3THR0FZ95PF7SK0MYRNAOUHTWA4OLV","","564.8000000119209","img/food3.png","75","566.0999999642372","2","1","1","2","1,0.7,0,1,0.7,0,0.7,0,1","0,1,0.7,0,1,0.7,1,0.7,0","3","false",""
"","html-keyboard-response","226","182312","0.0-245.0","3TOK3KHVJU4AZJ9ELZR2U8VG8DT7OX","A1BJFYHXK6YDX1","3THR0FZ95PF7SK0MYRNAOUHTWA4OLV","","null","<img src=""img/food3.png"" style=""width:200px; border:14px solid green;"">","null","","","","","","","","","",""
"","image-keyboard-response","227","182914","0.0-247.0","3TOK3KHVJU4AZJ9ELZR2U8VG8DT7OX","A1BJFYHXK6YDX1","3THR0FZ95PF7SK0MYRNAOUHTWA4OLV","","599.5999999642372","img/food5.png","74","600.9000000357628","1","0","2","2","1,0.7,0,1,0.7,0,0.7,0,1","0,1,0.7,0,1,0.7,1,0.7,0","3","false",""
"","html-keyboard-response","228","183221","0.0-248.0","3TOK3KHVJU4AZJ9ELZR2U8VG8DT7OX","A1BJFYHXK6YDX1","3THR0FZ95PF7SK0MYRNAOUHTWA4OLV","","null","<img src=""img/food5.png"" style=""width:200px;border:14px solid red;"">","null","","","","","","","","","",""
"","image-keyboard-response","229","183996","0.0-250.0","3TOK3KHVJU4AZJ9ELZR2U8VG8DT7OX","A1BJFYHXK6YDX1","3THR0FZ95PF7SK0MYRNAOUHTWA4OLV","","773.6000000238419","img/food4.png","74","775","1","1","3","2","1,0.7,0,1,0.7,0,0.7,0,1","0,1,0.7,0,1,0.7,1,0.7,0","3","false",""
"","html-keyboard-response","230","184303","0.0-251.0","3TOK3KHVJU4AZJ9ELZR2U8VG8DT7OX","A1BJFYHXK6YDX1","3THR0FZ95PF7SK0MYRNAOUHTWA4OLV","","null","<img src=""img/food4.png"" style=""width:200px; border:14px solid green;"">","null","","","","","","","","","",""
"","image-keyboard-response","231","184670","0.0-253.0","3TOK3KHVJU4AZJ9ELZR2U8VG8DT7OX","A1BJFYHXK6YDX1","3THR0FZ95PF7SK0MYRNAOUHTWA4OLV","","364.69999998807907","img/food4.png","74","366","1","1","3","2","1,0.7,0,1,0.7,0,0.7,0,1","0,1,0.7,0,1,0.7,1,0.7,0","3","false",""
"","html-keyboard-response","232","184975","0.0-254.0","3TOK3KHVJU4AZJ9ELZR2U8VG8DT7OX","A1BJFYHXK6YDX1","3THR0FZ95PF7SK0MYRNAOUHTWA4OLV","","null","<img src=""img/food4.png"" style=""width:200px; border:14px solid green;"">","null","","","","","","","","","",""
"","image-keyboard-response","233","185319","0.0-256.0","3TOK3KHVJU4AZJ9ELZR2U8VG8DT7OX","A1BJFYHXK6YDX1","3THR0FZ95PF7SK0MYRNAOUHTWA4OLV","","342.60000002384186","img/food4.png","74","343.89999997615814","1","1","3","2","1,0.7,0,1,0.7,0,0.7,0,1","0,1,0.7,0,1,0.7,1,0.7,0","3","false",""
"","html-keyboard-response","234","185634","0.0-257.0","3TOK3KHVJU4AZJ9ELZR2U8VG8DT7OX","A1BJFYHXK6YDX1","3THR0FZ95PF7SK0MYRNAOUHTWA4OLV","","null","<img src=""img/food4.png"" style=""width:200px; border:14px solid green;"">","null","","","","","","","","","",""
"","image-keyboard-response","235","186172","0.0-259.0","3TOK3KHVJU4AZJ9ELZR2U8VG8DT7OX","A1BJFYHXK6YDX1","3THR0FZ95PF7SK0MYRNAOUHTWA4OLV","","535.5","img/food5.png","75","537.8000000119209","2","1","2","2","1,0.7,0,1,0.7,0,0.7,0,1","0,1,0.7,0,1,0.7,1,0.7,0","3","false",""
"","html-keyboard-response","236","186487","0.0-260.0","3TOK3KHVJU4AZJ9ELZR2U8VG8DT7OX","A1BJFYHXK6YDX1","3THR0FZ95PF7SK0MYRNAOUHTWA4OLV","","null","<img src=""img/food5.png"" style=""width:200px; border:14px solid green;"">","null","","","","","","","","","",""
"","image-keyboard-response","237","187078","0.0-262.0","3TOK3KHVJU4AZJ9ELZR2U8VG8DT7OX","A1BJFYHXK6YDX1","3THR0FZ95PF7SK0MYRNAOUHTWA4OLV","","588.8000000119209","img/food3.png","74","590.1000000238419","1","0","1","2","1,0.7,0,1,0.7,0,0.7,0,1","0,1,0.7,0,1,0.7,1,0.7,0","3","false",""
"","html-keyboard-response","238","187387","0.0-263.0","3TOK3KHVJU4AZJ9ELZR2U8VG8DT7OX","A1BJFYHXK6YDX1","3THR0FZ95PF7SK0MYRNAOUHTWA4OLV","","null","<img src=""img/food3.png"" style=""width:200px;border:14px solid red;"">","null","","","","","","","","","",""
"","image-keyboard-response","239","188028","0.0-265.0","3TOK3KHVJU4AZJ9ELZR2U8VG8DT7OX","A1BJFYHXK6YDX1","3THR0FZ95PF7SK0MYRNAOUHTWA4OLV","","639.5","img/food3.png","76","640.8999999761581","3","0","1","2","1,0.7,0,1,0.7,0,0.7,0,1","0,1,0.7,0,1,0.7,1,0.7,0","3","false",""
"","html-keyboard-response","240","188343","0.0-266.0","3TOK3KHVJU4AZJ9ELZR2U8VG8DT7OX","A1BJFYHXK6YDX1","3THR0FZ95PF7SK0MYRNAOUHTWA4OLV","","null","<img src=""img/food3.png"" style=""width:200px;border:14px solid red;"">","null","","","","","","","","","",""
"","image-keyboard-response","241","188929","0.0-268.0","3TOK3KHVJU4AZJ9ELZR2U8VG8DT7OX","A1BJFYHXK6YDX1","3THR0FZ95PF7SK0MYRNAOUHTWA4OLV","","585.1000000238419","img/food5.png","75","586.1999999880791","2","1","2","2","1,0.7,0,1,0.7,0,0.7,0,1","0,1,0.7,0,1,0.7,1,0.7,0","3","false",""
"","html-keyboard-response","242","189247","0.0-269.0","3TOK3KHVJU4AZJ9ELZR2U8VG8DT7OX","A1BJFYHXK6YDX1","3THR0FZ95PF7SK0MYRNAOUHTWA4OLV","","null","<img src=""img/food5.png"" style=""width:200px; border:14px solid green;"">","null","","","","","","","","","",""
"","image-keyboard-response","243","189543","0.0-271.0","3TOK3KHVJU4AZJ9ELZR2U8VG8DT7OX","A1BJFYHXK6YDX1","3THR0FZ95PF7SK0MYRNAOUHTWA4OLV","","294.10000002384186","img/food5.png","75","295.5","2","1","2","2","1,0.7,0,1,0.7,0,0.7,0,1","0,1,0.7,0,1,0.7,1,0.7,0","3","false",""
"","html-keyboard-response","244","189848","0.0-272.0","3TOK3KHVJU4AZJ9ELZR2U8VG8DT7OX","A1BJFYHXK6YDX1","3THR0FZ95PF7SK0MYRNAOUHTWA4OLV","","null","<img src=""img/food5.png"" style=""width:200px; border:14px solid green;"">","null","","","","","","","","","",""
"","image-keyboard-response","245","190194","0.0-274.0","3TOK3KHVJU4AZJ9ELZR2U8VG8DT7OX","A1BJFYHXK6YDX1","3THR0FZ95PF7SK0MYRNAOUHTWA4OLV","","343.80000001192093","img/food5.png","75","345.39999997615814","2","1","2","2","1,0.7,0,1,0.7,0,0.7,0,1","0,1,0.7,0,1,0.7,1,0.7,0","3","false",""
"","html-keyboard-response","246","190502","0.0-275.0","3TOK3KHVJU4AZJ9ELZR2U8VG8DT7OX","A1BJFYHXK6YDX1","3THR0FZ95PF7SK0MYRNAOUHTWA4OLV","","null","<img src=""img/food5.png"" style=""width:200px; border:14px solid green;"">","null","","","","","","","","","",""
"","image-keyboard-response","247","190807","0.0-277.0","3TOK3KHVJU4AZJ9ELZR2U8VG8DT7OX","A1BJFYHXK6YDX1","3THR0FZ95PF7SK0MYRNAOUHTWA4OLV","","303.4000000357628","img/food5.png","75","304.5","2","1","2","2","1,0.7,0,1,0.7,0,0.7,0,1","0,1,0.7,0,1,0.7,1,0.7,0","3","false",""
"","html-keyboard-response","248","191110","0.0-278.0","3TOK3KHVJU4AZJ9ELZR2U8VG8DT7OX","A1BJFYHXK6YDX1","3THR0FZ95PF7SK0MYRNAOUHTWA4OLV","","null","<img src=""img/food5.png"" style=""width:200px; border:14px solid green;"">","null","","","","","","","","","",""
"","image-keyboard-response","249","191855","0.0-280.0","3TOK3KHVJU4AZJ9ELZR2U8VG8DT7OX","A1BJFYHXK6YDX1","3THR0FZ95PF7SK0MYRNAOUHTWA4OLV","","743.1000000238419","img/food3.png","74","744.3999999761581","1","0","1","2","1,0.7,0,1,0.7,0,0.7,0,1","0,1,0.7,0,1,0.7,1,0.7,0","3","false",""
"","html-keyboard-response","250","192166","0.0-281.0","3TOK3KHVJU4AZJ9ELZR2U8VG8DT7OX","A1BJFYHXK6YDX1","3THR0FZ95PF7SK0MYRNAOUHTWA4OLV","","null","<img src=""img/food3.png"" style=""width:200px;border:14px solid red;"">","null","","","","","","","","","",""
"","image-keyboard-response","251","192875","0.0-283.0","3TOK3KHVJU4AZJ9ELZR2U8VG8DT7OX","A1BJFYHXK6YDX1","3THR0FZ95PF7SK0MYRNAOUHTWA4OLV","","707.1999999880791","img/food3.png","76","708.5","3","1","1","2","1,0.7,0,1,0.7,0,0.7,0,1","0,1,0.7,0,1,0.7,1,0.7,0","3","false",""
"","html-keyboard-response","252","193185","0.0-284.0","3TOK3KHVJU4AZJ9ELZR2U8VG8DT7OX","A1BJFYHXK6YDX1","3THR0FZ95PF7SK0MYRNAOUHTWA4OLV","","null","<img src=""img/food3.png"" style=""width:200px; border:14px solid green;"">","null","","","","","","","","","",""
"","image-keyboard-response","253","193792","0.0-286.0","3TOK3KHVJU4AZJ9ELZR2U8VG8DT7OX","A1BJFYHXK6YDX1","3THR0FZ95PF7SK0MYRNAOUHTWA4OLV","","604.5","img/food5.png","75","605.8999999761581","2","1","2","2","1,0.7,0,1,0.7,0,0.7,0,1","0,1,0.7,0,1,0.7,1,0.7,0","3","false",""
"","html-keyboard-response","254","194099","0.0-287.0","3TOK3KHVJU4AZJ9ELZR2U8VG8DT7OX","A1BJFYHXK6YDX1","3THR0FZ95PF7SK0MYRNAOUHTWA4OLV","","null","<img src=""img/food5.png"" style=""width:200px; border:14px solid green;"">","null","","","","","","","","","",""
"","image-keyboard-response","255","194482","0.0-289.0","3TOK3KHVJU4AZJ9ELZR2U8VG8DT7OX","A1BJFYHXK6YDX1","3THR0FZ95PF7SK0MYRNAOUHTWA4OLV","","381.19999998807907","img/food5.png","75","382.7000000476837","2","1","2","2","1,0.7,0,1,0.7,0,0.7,0,1","0,1,0.7,0,1,0.7,1,0.7,0","3","false",""
"","html-keyboard-response","256","194787","0.0-290.0","3TOK3KHVJU4AZJ9ELZR2U8VG8DT7OX","A1BJFYHXK6YDX1","3THR0FZ95PF7SK0MYRNAOUHTWA4OLV","","null","<img src=""img/food5.png"" style=""width:200px; border:14px solid green;"">","null","","","","","","","","","",""
"","image-keyboard-response","257","195477","0.0-292.0","3TOK3KHVJU4AZJ9ELZR2U8VG8DT7OX","A1BJFYHXK6YDX1","3THR0FZ95PF7SK0MYRNAOUHTWA4OLV","","688.5","img/food3.png","76","690.0999999642372","3","1","1","2","1,0.7,0,1,0.7,0,0.7,0,1","0,1,0.7,0,1,0.7,1,0.7,0","3","false",""
"","html-keyboard-response","258","195782","0.0-293.0","3TOK3KHVJU4AZJ9ELZR2U8VG8DT7OX","A1BJFYHXK6YDX1","3THR0FZ95PF7SK0MYRNAOUHTWA4OLV","","null","<img src=""img/food3.png"" style=""width:200px; border:14px solid green;"">","null","","","","","","","","","",""
"","image-keyboard-response","259","196132","0.0-295.0","3TOK3KHVJU4AZJ9ELZR2U8VG8DT7OX","A1BJFYHXK6YDX1","3THR0FZ95PF7SK0MYRNAOUHTWA4OLV","","348.60000002384186","img/food3.png","76","350","3","1","1","2","1,0.7,0,1,0.7,0,0.7,0,1","0,1,0.7,0,1,0.7,1,0.7,0","3","false",""
"","html-keyboard-response","260","196448","0.0-296.0","3TOK3KHVJU4AZJ9ELZR2U8VG8DT7OX","A1BJFYHXK6YDX1","3THR0FZ95PF7SK0MYRNAOUHTWA4OLV","","null","<img src=""img/food3.png"" style=""width:200px; border:14px solid green;"">","null","","","","","","","","","",""
"","image-keyboard-response","261","196727","0.0-298.0","3TOK3KHVJU4AZJ9ELZR2U8VG8DT7OX","A1BJFYHXK6YDX1","3THR0FZ95PF7SK0MYRNAOUHTWA4OLV","","277.10000002384186","img/food3.png","76","278.5","3","0","1","2","1,0.7,0,1,0.7,0,0.7,0,1","0,1,0.7,0,1,0.7,1,0.7,0","3","false",""
"","html-keyboard-response","262","197030","0.0-299.0","3TOK3KHVJU4AZJ9ELZR2U8VG8DT7OX","A1BJFYHXK6YDX1","3THR0FZ95PF7SK0MYRNAOUHTWA4OLV","","null","<img src=""img/food3.png"" style=""width:200px;border:14px solid red;"">","null","","","","","","","","","",""
"","image-keyboard-response","263","197865","0.0-301.0","3TOK3KHVJU4AZJ9ELZR2U8VG8DT7OX","A1BJFYHXK6YDX1","3THR0FZ95PF7SK0MYRNAOUHTWA4OLV","","833.5","img/food4.png","74","834.8000000119209","1","1","3","2","1,0.7,0,1,0.7,0,0.7,0,1","0,1,0.7,0,1,0.7,1,0.7,0","3","false",""
"","html-keyboard-response","264","198175","0.0-302.0","3TOK3KHVJU4AZJ9ELZR2U8VG8DT7OX","A1BJFYHXK6YDX1","3THR0FZ95PF7SK0MYRNAOUHTWA4OLV","","null","<img src=""img/food4.png"" style=""width:200px; border:14px solid green;"">","null","","","","","","","","","",""
"","image-keyboard-response","265","198515","0.0-304.0","3TOK3KHVJU4AZJ9ELZR2U8VG8DT7OX","A1BJFYHXK6YDX1","3THR0FZ95PF7SK0MYRNAOUHTWA4OLV","","337.69999998807907","img/food4.png","74","339.5","1","1","3","2","1,0.7,0,1,0.7,0,0.7,0,1","0,1,0.7,0,1,0.7,1,0.7,0","3","false",""
"","html-keyboard-response","266","198822","0.0-305.0","3TOK3KHVJU4AZJ9ELZR2U8VG8DT7OX","A1BJFYHXK6YDX1","3THR0FZ95PF7SK0MYRNAOUHTWA4OLV","","null","<img src=""img/food4.png"" style=""width:200px; border:14px solid green;"">","null","","","","","","","","","",""
"","image-keyboard-response","267","199196","0.0-307.0","3TOK3KHVJU4AZJ9ELZR2U8VG8DT7OX","A1BJFYHXK6YDX1","3THR0FZ95PF7SK0MYRNAOUHTWA4OLV","","372.10000002384186","img/food4.png","74","373.69999998807907","1","1","3","2","1,0.7,0,1,0.7,0,0.7,0,1","0,1,0.7,0,1,0.7,1,0.7,0","3","false",""
"","html-keyboard-response","268","199505","0.0-308.0","3TOK3KHVJU4AZJ9ELZR2U8VG8DT7OX","A1BJFYHXK6YDX1","3THR0FZ95PF7SK0MYRNAOUHTWA4OLV","","null","<img src=""img/food4.png"" style=""width:200px; border:14px solid green;"">","null","","","","","","","","","",""
"","image-keyboard-response","269","199975","0.0-310.0","3TOK3KHVJU4AZJ9ELZR2U8VG8DT7OX","A1BJFYHXK6YDX1","3THR0FZ95PF7SK0MYRNAOUHTWA4OLV","","467.7999999523163","img/food3.png","75","469.10000002384186","2","1","1","2","1,0.7,0,1,0.7,0,0.7,0,1","0,1,0.7,0,1,0.7,1,0.7,0","3","false",""
"","html-keyboard-response","270","200278","0.0-311.0","3TOK3KHVJU4AZJ9ELZR2U8VG8DT7OX","A1BJFYHXK6YDX1","3THR0FZ95PF7SK0MYRNAOUHTWA4OLV","","null","<img src=""img/food3.png"" style=""width:200px; border:14px solid green;"">","null","","","","","","","","","",""
"","image-keyboard-response","271","200818","0.0-313.0","3TOK3KHVJU4AZJ9ELZR2U8VG8DT7OX","A1BJFYHXK6YDX1","3THR0FZ95PF7SK0MYRNAOUHTWA4OLV","","537.9000000357628","img/food4.png","74","539.3000000119209","1","1","3","2","1,0.7,0,1,0.7,0,0.7,0,1","0,1,0.7,0,1,0.7,1,0.7,0","3","false",""
"","html-keyboard-response","272","201128","0.0-314.0","3TOK3KHVJU4AZJ9ELZR2U8VG8DT7OX","A1BJFYHXK6YDX1","3THR0FZ95PF7SK0MYRNAOUHTWA4OLV","","null","<img src=""img/food4.png"" style=""width:200px; border:14px solid green;"">","null","","","","","","","","","",""
"","image-keyboard-response","273","201702","0.0-316.0","3TOK3KHVJU4AZJ9ELZR2U8VG8DT7OX","A1BJFYHXK6YDX1","3THR0FZ95PF7SK0MYRNAOUHTWA4OLV","","570.8000000119209","img/food3.png","75","572.1999999880791","2","1","1","2","1,0.7,0,1,0.7,0,0.7,0,1","0,1,0.7,0,1,0.7,1,0.7,0","3","false",""
"","html-keyboard-response","274","202020","0.0-317.0","3TOK3KHVJU4AZJ9ELZR2U8VG8DT7OX","A1BJFYHXK6YDX1","3THR0FZ95PF7SK0MYRNAOUHTWA4OLV","","null","<img src=""img/food3.png"" style=""width:200px; border:14px solid green;"">","null","","","","","","","","","",""
"","image-keyboard-response","275","202460","0.0-319.0","3TOK3KHVJU4AZJ9ELZR2U8VG8DT7OX","A1BJFYHXK6YDX1","3THR0FZ95PF7SK0MYRNAOUHTWA4OLV","","438.60000002384186","img/food3.png","75","440","2","1","1","2","1,0.7,0,1,0.7,0,0.7,0,1","0,1,0.7,0,1,0.7,1,0.7,0","3","false",""
"","html-keyboard-response","276","202763","0.0-320.0","3TOK3KHVJU4AZJ9ELZR2U8VG8DT7OX","A1BJFYHXK6YDX1","3THR0FZ95PF7SK0MYRNAOUHTWA4OLV","","null","<img src=""img/food3.png"" style=""width:200px; border:14px solid green;"">","null","","","","","","","","","",""
"","image-keyboard-response","277","203488","0.0-322.0","3TOK3KHVJU4AZJ9ELZR2U8VG8DT7OX","A1BJFYHXK6YDX1","3THR0FZ95PF7SK0MYRNAOUHTWA4OLV","","722.4000000357628","img/food5.png","75","723.6999999880791","2","1","2","2","1,0.7,0,1,0.7,0,0.7,0,1","0,1,0.7,0,1,0.7,1,0.7,0","3","false",""
"","html-keyboard-response","278","203793","0.0-323.0","3TOK3KHVJU4AZJ9ELZR2U8VG8DT7OX","A1BJFYHXK6YDX1","3THR0FZ95PF7SK0MYRNAOUHTWA4OLV","","null","<img src=""img/food5.png"" style=""width:200px; border:14px solid green;"">","null","","","","","","","","","",""
"","image-keyboard-response","279","204160","0.0-325.0","3TOK3KHVJU4AZJ9ELZR2U8VG8DT7OX","A1BJFYHXK6YDX1","3THR0FZ95PF7SK0MYRNAOUHTWA4OLV","","365.69999998807907","img/food5.png","75","367.0999999642372","2","1","2","2","1,0.7,0,1,0.7,0,0.7,0,1","0,1,0.7,0,1,0.7,1,0.7,0","3","false",""
"","html-keyboard-response","280","204466","0.0-326.0","3TOK3KHVJU4AZJ9ELZR2U8VG8DT7OX","A1BJFYHXK6YDX1","3THR0FZ95PF7SK0MYRNAOUHTWA4OLV","","null","<img src=""img/food5.png"" style=""width:200px; border:14px solid green;"">","null","","","","","","","","","",""
"","image-keyboard-response","281","205149","0.0-328.0","3TOK3KHVJU4AZJ9ELZR2U8VG8DT7OX","A1BJFYHXK6YDX1","3THR0FZ95PF7SK0MYRNAOUHTWA4OLV","","680.8999999761581","img/food3.png","75","682.3999999761581","2","1","1","2","1,0.7,0,1,0.7,0,0.7,0,1","0,1,0.7,0,1,0.7,1,0.7,0","3","false",""
"","html-keyboard-response","282","205457","0.0-329.0","3TOK3KHVJU4AZJ9ELZR2U8VG8DT7OX","A1BJFYHXK6YDX1","3THR0FZ95PF7SK0MYRNAOUHTWA4OLV","","null","<img src=""img/food3.png"" style=""width:200px; border:14px solid green;"">","null","","","","","","","","","",""
"","image-keyboard-response","283","205931","0.0-331.0","3TOK3KHVJU4AZJ9ELZR2U8VG8DT7OX","A1BJFYHXK6YDX1","3THR0FZ95PF7SK0MYRNAOUHTWA4OLV","","472.19999998807907","img/food5.png","75","473.2999999523163","2","1","2","2","1,0.7,0,1,0.7,0,0.7,0,1","0,1,0.7,0,1,0.7,1,0.7,0","3","false",""
"","html-keyboard-response","284","206244","0.0-332.0","3TOK3KHVJU4AZJ9ELZR2U8VG8DT7OX","A1BJFYHXK6YDX1","3THR0FZ95PF7SK0MYRNAOUHTWA4OLV","","null","<img src=""img/food5.png"" style=""width:200px; border:14px solid green;"">","null","","","","","","","","","",""
"","image-keyboard-response","285","206622","0.0-334.0","3TOK3KHVJU4AZJ9ELZR2U8VG8DT7OX","A1BJFYHXK6YDX1","3THR0FZ95PF7SK0MYRNAOUHTWA4OLV","","376.69999998807907","img/food5.png","75","378.19999998807907","2","1","2","2","1,0.7,0,1,0.7,0,0.7,0,1","0,1,0.7,0,1,0.7,1,0.7,0","3","false",""
"","html-keyboard-response","286","206927","0.0-335.0","3TOK3KHVJU4AZJ9ELZR2U8VG8DT7OX","A1BJFYHXK6YDX1","3THR0FZ95PF7SK0MYRNAOUHTWA4OLV","","null","<img src=""img/food5.png"" style=""width:200px; border:14px solid green;"">","null","","","","","","","","","",""
"","image-keyboard-response","287","207550","0.0-337.0","3TOK3KHVJU4AZJ9ELZR2U8VG8DT7OX","A1BJFYHXK6YDX1","3THR0FZ95PF7SK0MYRNAOUHTWA4OLV","","621.1000000238419","img/food4.png","74","622.4000000357628","1","1","3","2","1,0.7,0,1,0.7,0,0.7,0,1","0,1,0.7,0,1,0.7,1,0.7,0","3","false",""
"","html-keyboard-response","288","207859","0.0-338.0","3TOK3KHVJU4AZJ9ELZR2U8VG8DT7OX","A1BJFYHXK6YDX1","3THR0FZ95PF7SK0MYRNAOUHTWA4OLV","","null","<img src=""img/food4.png"" style=""width:200px; border:14px solid green;"">","null","","","","","","","","","",""
"","image-keyboard-response","289","208312","0.0-340.0","3TOK3KHVJU4AZJ9ELZR2U8VG8DT7OX","A1BJFYHXK6YDX1","3THR0FZ95PF7SK0MYRNAOUHTWA4OLV","","450.5","img/food4.png","74","451.80000001192093","1","1","3","2","1,0.7,0,1,0.7,0,0.7,0,1","0,1,0.7,0,1,0.7,1,0.7,0","3","false",""
"","html-keyboard-response","290","208626","0.0-341.0","3TOK3KHVJU4AZJ9ELZR2U8VG8DT7OX","A1BJFYHXK6YDX1","3THR0FZ95PF7SK0MYRNAOUHTWA4OLV","","null","<img src=""img/food4.png"" style=""width:200px; border:14px solid green;"">","null","","","","","","","","","",""
"","image-keyboard-response","291","209104","0.0-343.0","3TOK3KHVJU4AZJ9ELZR2U8VG8DT7OX","A1BJFYHXK6YDX1","3THR0FZ95PF7SK0MYRNAOUHTWA4OLV","","475.5999999642372","img/food3.png","75","477","2","1","1","2","1,0.7,0,1,0.7,0,0.7,0,1","0,1,0.7,0,1,0.7,1,0.7,0","3","false",""
"","html-keyboard-response","292","209417","0.0-344.0","3TOK3KHVJU4AZJ9ELZR2U8VG8DT7OX","A1BJFYHXK6YDX1","3THR0FZ95PF7SK0MYRNAOUHTWA4OLV","","null","<img src=""img/food3.png"" style=""width:200px; border:14px solid green;"">","null","","","","","","","","","",""
"","image-keyboard-response","293","209884","0.0-346.0","3TOK3KHVJU4AZJ9ELZR2U8VG8DT7OX","A1BJFYHXK6YDX1","3THR0FZ95PF7SK0MYRNAOUHTWA4OLV","","465.30000001192093","img/food4.png","75","467.10000002384186","2","1","3","2","1,0.7,0,1,0.7,0,0.7,0,1","0,1,0.7,0,1,0.7,1,0.7,0","3","false",""
"","html-keyboard-response","294","210187","0.0-347.0","3TOK3KHVJU4AZJ9ELZR2U8VG8DT7OX","A1BJFYHXK6YDX1","3THR0FZ95PF7SK0MYRNAOUHTWA4OLV","","null","<img src=""img/food4.png"" style=""width:200px; border:14px solid green;"">","null","","","","","","","","","",""
"","image-keyboard-response","295","210804","0.0-349.0","3TOK3KHVJU4AZJ9ELZR2U8VG8DT7OX","A1BJFYHXK6YDX1","3THR0FZ95PF7SK0MYRNAOUHTWA4OLV","","615.6999999880791","img/food4.png","74","616.8999999761581","1","1","3","2","1,0.7,0,1,0.7,0,0.7,0,1","0,1,0.7,0,1,0.7,1,0.7,0","3","false",""
"","html-keyboard-response","296","211112","0.0-350.0","3TOK3KHVJU4AZJ9ELZR2U8VG8DT7OX","A1BJFYHXK6YDX1","3THR0FZ95PF7SK0MYRNAOUHTWA4OLV","","null","<img src=""img/food4.png"" style=""width:200px; border:14px solid green;"">","null","","","","","","","","","",""
"","image-keyboard-response","297","211478","0.0-352.0","3TOK3KHVJU4AZJ9ELZR2U8VG8DT7OX","A1BJFYHXK6YDX1","3THR0FZ95PF7SK0MYRNAOUHTWA4OLV","","364","img/food4.png","74","365.39999997615814","1","1","3","2","1,0.7,0,1,0.7,0,0.7,0,1","0,1,0.7,0,1,0.7,1,0.7,0","3","false",""
"","html-keyboard-response","298","211786","0.0-353.0","3TOK3KHVJU4AZJ9ELZR2U8VG8DT7OX","A1BJFYHXK6YDX1","3THR0FZ95PF7SK0MYRNAOUHTWA4OLV","","null","<img src=""img/food4.png"" style=""width:200px; border:14px solid green;"">","null","","","","","","","","","",""
"","image-keyboard-response","299","212292","0.0-355.0","3TOK3KHVJU4AZJ9ELZR2U8VG8DT7OX","A1BJFYHXK6YDX1","3THR0FZ95PF7SK0MYRNAOUHTWA4OLV","","504.10000002384186","img/food3.png","75","505.30000001192093","2","1","1","2","1,0.7,0,1,0.7,0,0.7,0,1","0,1,0.7,0,1,0.7,1,0.7,0","3","false",""
"","html-keyboard-response","300","212598","0.0-356.0","3TOK3KHVJU4AZJ9ELZR2U8VG8DT7OX","A1BJFYHXK6YDX1","3THR0FZ95PF7SK0MYRNAOUHTWA4OLV","","null","<img src=""img/food3.png"" style=""width:200px; border:14px solid green;"">","null","","","","","","","","","",""
"","image-keyboard-response","301","213050","0.0-358.0","3TOK3KHVJU4AZJ9ELZR2U8VG8DT7OX","A1BJFYHXK6YDX1","3THR0FZ95PF7SK0MYRNAOUHTWA4OLV","","449.5999999642372","img/food4.png","75","450.80000001192093","2","1","3","2","1,0.7,0,1,0.7,0,0.7,0,1","0,1,0.7,0,1,0.7,1,0.7,0","3","false",""
"","html-keyboard-response","302","213364","0.0-359.0","3TOK3KHVJU4AZJ9ELZR2U8VG8DT7OX","A1BJFYHXK6YDX1","3THR0FZ95PF7SK0MYRNAOUHTWA4OLV","","null","<img src=""img/food4.png"" style=""width:200px; border:14px solid green;"">","null","","","","","","","","","",""
"","image-keyboard-response","303","214103","0.0-361.0","3TOK3KHVJU4AZJ9ELZR2U8VG8DT7OX","A1BJFYHXK6YDX1","3THR0FZ95PF7SK0MYRNAOUHTWA4OLV","","737.8000000119209","img/food3.png","74","739.1000000238419","1","0","1","2","1,0.7,0,1,0.7,0,0.7,0,1","0,1,0.7,0,1,0.7,1,0.7,0","3","false",""
"","html-keyboard-response","304","214414","0.0-362.0","3TOK3KHVJU4AZJ9ELZR2U8VG8DT7OX","A1BJFYHXK6YDX1","3THR0FZ95PF7SK0MYRNAOUHTWA4OLV","","null","<img src=""img/food3.png"" style=""width:200px;border:14px solid red;"">","null","","","","","","","","","",""
"","image-keyboard-response","305","215030","0.0-364.0","3TOK3KHVJU4AZJ9ELZR2U8VG8DT7OX","A1BJFYHXK6YDX1","3THR0FZ95PF7SK0MYRNAOUHTWA4OLV","","613.2000000476837","img/food5.png","75","614.7999999523163","2","1","2","2","1,0.7,0,1,0.7,0,0.7,0,1","0,1,0.7,0,1,0.7,1,0.7,0","3","false",""
"","html-keyboard-response","306","215333","0.0-365.0","3TOK3KHVJU4AZJ9ELZR2U8VG8DT7OX","A1BJFYHXK6YDX1","3THR0FZ95PF7SK0MYRNAOUHTWA4OLV","","null","<img src=""img/food5.png"" style=""width:200px; border:14px solid green;"">","null","","","","","","","","","",""
"","image-keyboard-response","307","216153","0.0-367.0","3TOK3KHVJU4AZJ9ELZR2U8VG8DT7OX","A1BJFYHXK6YDX1","3THR0FZ95PF7SK0MYRNAOUHTWA4OLV","","818","img/food3.png","76","819.4000000357628","3","1","1","2","1,0.7,0,1,0.7,0,0.7,0,1","0,1,0.7,0,1,0.7,1,0.7,0","3","false",""
"","html-keyboard-response","308","216465","0.0-368.0","3TOK3KHVJU4AZJ9ELZR2U8VG8DT7OX","A1BJFYHXK6YDX1","3THR0FZ95PF7SK0MYRNAOUHTWA4OLV","","null","<img src=""img/food3.png"" style=""width:200px; border:14px solid green;"">","null","","","","","","","","","",""
"","image-keyboard-response","309","217028","0.0-370.0","3TOK3KHVJU4AZJ9ELZR2U8VG8DT7OX","A1BJFYHXK6YDX1","3THR0FZ95PF7SK0MYRNAOUHTWA4OLV","","560.8000000119209","img/food5.png","75","562.1999999880791","2","1","2","2","1,0.7,0,1,0.7,0,0.7,0,1","0,1,0.7,0,1,0.7,1,0.7,0","3","false",""
"","html-keyboard-response","310","217337","0.0-371.0","3TOK3KHVJU4AZJ9ELZR2U8VG8DT7OX","A1BJFYHXK6YDX1","3THR0FZ95PF7SK0MYRNAOUHTWA4OLV","","null","<img src=""img/food5.png"" style=""width:200px; border:14px solid green;"">","null","","","","","","","","","",""
"","image-keyboard-response","311","217925","0.0-373.0","3TOK3KHVJU4AZJ9ELZR2U8VG8DT7OX","A1BJFYHXK6YDX1","3THR0FZ95PF7SK0MYRNAOUHTWA4OLV","","586","img/food3.png","76","588.3000000119209","3","1","1","2","1,0.7,0,1,0.7,0,0.7,0,1","0,1,0.7,0,1,0.7,1,0.7,0","3","false",""
"","html-keyboard-response","312","218235","0.0-374.0","3TOK3KHVJU4AZJ9ELZR2U8VG8DT7OX","A1BJFYHXK6YDX1","3THR0FZ95PF7SK0MYRNAOUHTWA4OLV","","null","<img src=""img/food3.png"" style=""width:200px; border:14px solid green;"">","null","","","","","","","","","",""
"","image-keyboard-response","313","218788","0.0-376.0","3TOK3KHVJU4AZJ9ELZR2U8VG8DT7OX","A1BJFYHXK6YDX1","3THR0FZ95PF7SK0MYRNAOUHTWA4OLV","","550.8999999761581","img/food5.png","75","552","2","1","2","2","1,0.7,0,1,0.7,0,0.7,0,1","0,1,0.7,0,1,0.7,1,0.7,0","3","false",""
"","html-keyboard-response","314","219091","0.0-377.0","3TOK3KHVJU4AZJ9ELZR2U8VG8DT7OX","A1BJFYHXK6YDX1","3THR0FZ95PF7SK0MYRNAOUHTWA4OLV","","null","<img src=""img/food5.png"" style=""width:200px; border:14px solid green;"">","null","","","","","","","","","",""
"","image-keyboard-response","315","219764","0.0-379.0","3TOK3KHVJU4AZJ9ELZR2U8VG8DT7OX","A1BJFYHXK6YDX1","3THR0FZ95PF7SK0MYRNAOUHTWA4OLV","","671.1000000238419","img/food4.png","74","672.3000000119209","1","1","3","2","1,0.7,0,1,0.7,0,0.7,0,1","0,1,0.7,0,1,0.7,1,0.7,0","3","false",""
"","html-keyboard-response","316","220067","0.0-380.0","3TOK3KHVJU4AZJ9ELZR2U8VG8DT7OX","A1BJFYHXK6YDX1","3THR0FZ95PF7SK0MYRNAOUHTWA4OLV","","null","<img src=""img/food4.png"" style=""width:200px; border:14px solid green;"">","null","","","","","","","","","",""
"","image-keyboard-response","317","220928","0.0-382.0","3TOK3KHVJU4AZJ9ELZR2U8VG8DT7OX","A1BJFYHXK6YDX1","3THR0FZ95PF7SK0MYRNAOUHTWA4OLV","","859.6999999880791","img/food5.png","76","861.1000000238419","3","0","2","2","1,0.7,0,1,0.7,0,0.7,0,1","0,1,0.7,0,1,0.7,1,0.7,0","3","false",""
"","html-keyboard-response","318","221235","0.0-383.0","3TOK3KHVJU4AZJ9ELZR2U8VG8DT7OX","A1BJFYHXK6YDX1","3THR0FZ95PF7SK0MYRNAOUHTWA4OLV","","null","<img src=""img/food5.png"" style=""width:200px;border:14px solid red;"">","null","","","","","","","","","",""
"","image-keyboard-response","319","222242","0.0-385.0","3TOK3KHVJU4AZJ9ELZR2U8VG8DT7OX","A1BJFYHXK6YDX1","3THR0FZ95PF7SK0MYRNAOUHTWA4OLV","","","img/food4.png","","1006.6000000238419","-1","0","3","2","1,0.7,0,1,0.7,0,0.7,0,1","0,1,0.7,0,1,0.7,1,0.7,0","3","true",""
"","html-keyboard-response","320","222551","0.0-386.0","3TOK3KHVJU4AZJ9ELZR2U8VG8DT7OX","A1BJFYHXK6YDX1","3THR0FZ95PF7SK0MYRNAOUHTWA4OLV","","null","<img src=""img/food4.png"" style=""width:200px;border:14px solid red;"">","null","","","","","","","","","",""
"","html-keyboard-response","321","224388","0.0-387.0-0.0","3TOK3KHVJU4AZJ9ELZR2U8VG8DT7OX","A1BJFYHXK6YDX1","3THR0FZ95PF7SK0MYRNAOUHTWA4OLV","","","","","","","","","","","","","",""
"","image-keyboard-response","322","225405","0.0-388.0","3TOK3KHVJU4AZJ9ELZR2U8VG8DT7OX","A1BJFYHXK6YDX1","3THR0FZ95PF7SK0MYRNAOUHTWA4OLV","","","img/food3.png","","1016.6999999880791","-1","0","1","2","1,0.7,0,1,0.7,0,0.7,0,1","0,1,0.7,0,1,0.7,1,0.7,0","3","true",""
"","html-keyboard-response","323","225724","0.0-389.0","3TOK3KHVJU4AZJ9ELZR2U8VG8DT7OX","A1BJFYHXK6YDX1","3THR0FZ95PF7SK0MYRNAOUHTWA4OLV","","null","<img src=""img/food3.png"" style=""width:200px;border:14px solid red;"">","null","","","","","","","","","",""
"","html-keyboard-response","324","227984","0.0-390.0-0.0","3TOK3KHVJU4AZJ9ELZR2U8VG8DT7OX","A1BJFYHXK6YDX1","3THR0FZ95PF7SK0MYRNAOUHTWA4OLV","","","","","","","","","","","","","",""
"","image-keyboard-response","325","228423","0.0-391.0","3TOK3KHVJU4AZJ9ELZR2U8VG8DT7OX","A1BJFYHXK6YDX1","3THR0FZ95PF7SK0MYRNAOUHTWA4OLV","","437.5","img/food4.png","74","439.60000002384186","1","1","3","2","1,0.7,0,1,0.7,0,0.7,0,1","0,1,0.7,0,1,0.7,1,0.7,0","3","false",""
"","html-keyboard-response","326","228734","0.0-392.0","3TOK3KHVJU4AZJ9ELZR2U8VG8DT7OX","A1BJFYHXK6YDX1","3THR0FZ95PF7SK0MYRNAOUHTWA4OLV","","null","<img src=""img/food4.png"" style=""width:200px; border:14px solid green;"">","null","","","","","","","","","",""
"","image-keyboard-response","327","229335","0.0-394.0","3TOK3KHVJU4AZJ9ELZR2U8VG8DT7OX","A1BJFYHXK6YDX1","3THR0FZ95PF7SK0MYRNAOUHTWA4OLV","","600.3000000119209","img/food3.png","76","601.6000000238419","3","0","1","2","1,0.7,0,1,0.7,0,0.7,0,1","0,1,0.7,0,1,0.7,1,0.7,0","3","false",""
"","html-keyboard-response","328","229640","0.0-395.0","3TOK3KHVJU4AZJ9ELZR2U8VG8DT7OX","A1BJFYHXK6YDX1","3THR0FZ95PF7SK0MYRNAOUHTWA4OLV","","null","<img src=""img/food3.png"" style=""width:200px;border:14px solid red;"">","null","","","","","","","","","",""
"","image-keyboard-response","329","230097","0.0-397.0","3TOK3KHVJU4AZJ9ELZR2U8VG8DT7OX","A1BJFYHXK6YDX1","3THR0FZ95PF7SK0MYRNAOUHTWA4OLV","","455.5","img/food3.png","75","456.7999999523163","2","1","1","2","1,0.7,0,1,0.7,0,0.7,0,1","0,1,0.7,0,1,0.7,1,0.7,0","3","false",""
"","html-keyboard-response","330","230407","0.0-398.0","3TOK3KHVJU4AZJ9ELZR2U8VG8DT7OX","A1BJFYHXK6YDX1","3THR0FZ95PF7SK0MYRNAOUHTWA4OLV","","null","<img src=""img/food3.png"" style=""width:200px; border:14px solid green;"">","null","","","","","","","","","",""
"","image-keyboard-response","331","230707","0.0-400.0","3TOK3KHVJU4AZJ9ELZR2U8VG8DT7OX","A1BJFYHXK6YDX1","3THR0FZ95PF7SK0MYRNAOUHTWA4OLV","","298.19999998807907","img/food3.png","75","299.69999998807907","2","1","1","2","1,0.7,0,1,0.7,0,0.7,0,1","0,1,0.7,0,1,0.7,1,0.7,0","3","false",""
"","html-keyboard-response","332","231010","0.0-401.0","3TOK3KHVJU4AZJ9ELZR2U8VG8DT7OX","A1BJFYHXK6YDX1","3THR0FZ95PF7SK0MYRNAOUHTWA4OLV","","null","<img src=""img/food3.png"" style=""width:200px; border:14px solid green;"">","null","","","","","","","","","",""
"","image-keyboard-response","333","231182","0.0-403.0","3TOK3KHVJU4AZJ9ELZR2U8VG8DT7OX","A1BJFYHXK6YDX1","3THR0FZ95PF7SK0MYRNAOUHTWA4OLV","","170.5","img/food5.png","75","171.80000001192093","2","1","2","2","1,0.7,0,1,0.7,0,0.7,0,1","0,1,0.7,0,1,0.7,1,0.7,0","3","false",""
"","html-keyboard-response","334","231486","0.0-404.0","3TOK3KHVJU4AZJ9ELZR2U8VG8DT7OX","A1BJFYHXK6YDX1","3THR0FZ95PF7SK0MYRNAOUHTWA4OLV","","null","<img src=""img/food5.png"" style=""width:200px; border:14px solid green;"">","null","","","","","","","","","",""
"","image-keyboard-response","335","232005","0.0-406.0","3TOK3KHVJU4AZJ9ELZR2U8VG8DT7OX","A1BJFYHXK6YDX1","3THR0FZ95PF7SK0MYRNAOUHTWA4OLV","","517.6999999880791","img/food5.png","75","519.1999999880791","2","1","2","2","1,0.7,0,1,0.7,0,0.7,0,1","0,1,0.7,0,1,0.7,1,0.7,0","3","false",""
"","html-keyboard-response","336","232314","0.0-407.0","3TOK3KHVJU4AZJ9ELZR2U8VG8DT7OX","A1BJFYHXK6YDX1","3THR0FZ95PF7SK0MYRNAOUHTWA4OLV","","null","<img src=""img/food5.png"" style=""width:200px; border:14px solid green;"">","null","","","","","","","","","",""
"","image-keyboard-response","337","232669","0.0-409.0","3TOK3KHVJU4AZJ9ELZR2U8VG8DT7OX","A1BJFYHXK6YDX1","3THR0FZ95PF7SK0MYRNAOUHTWA4OLV","","352.80000001192093","img/food5.png","75","354.19999998807907","2","1","2","2","1,0.7,0,1,0.7,0,0.7,0,1","0,1,0.7,0,1,0.7,1,0.7,0","3","false",""
"","html-keyboard-response","338","232978","0.0-410.0","3TOK3KHVJU4AZJ9ELZR2U8VG8DT7OX","A1BJFYHXK6YDX1","3THR0FZ95PF7SK0MYRNAOUHTWA4OLV","","null","<img src=""img/food5.png"" style=""width:200px; border:14px solid green;"">","null","","","","","","","","","",""
"","image-keyboard-response","339","233710","0.0-412.0","3TOK3KHVJU4AZJ9ELZR2U8VG8DT7OX","A1BJFYHXK6YDX1","3THR0FZ95PF7SK0MYRNAOUHTWA4OLV","","729.7999999523163","img/food3.png","76","731.1999999880791","3","0","1","2","1,0.7,0,1,0.7,0,0.7,0,1","0,1,0.7,0,1,0.7,1,0.7,0","3","false",""
"","html-keyboard-response","340","234028","0.0-413.0","3TOK3KHVJU4AZJ9ELZR2U8VG8DT7OX","A1BJFYHXK6YDX1","3THR0FZ95PF7SK0MYRNAOUHTWA4OLV","","null","<img src=""img/food3.png"" style=""width:200px;border:14px solid red;"">","null","","","","","","","","","",""
"","image-keyboard-response","341","234601","0.0-415.0","3TOK3KHVJU4AZJ9ELZR2U8VG8DT7OX","A1BJFYHXK6YDX1","3THR0FZ95PF7SK0MYRNAOUHTWA4OLV","","571.3000000119209","img/food5.png","75","573.0999999642372","2","1","2","2","1,0.7,0,1,0.7,0,0.7,0,1","0,1,0.7,0,1,0.7,1,0.7,0","3","false",""
"","html-keyboard-response","342","234907","0.0-416.0","3TOK3KHVJU4AZJ9ELZR2U8VG8DT7OX","A1BJFYHXK6YDX1","3THR0FZ95PF7SK0MYRNAOUHTWA4OLV","","null","<img src=""img/food5.png"" style=""width:200px; border:14px solid green;"">","null","","","","","","","","","",""
"","image-keyboard-response","343","234961","0.0-418.0","3TOK3KHVJU4AZJ9ELZR2U8VG8DT7OX","A1BJFYHXK6YDX1","3THR0FZ95PF7SK0MYRNAOUHTWA4OLV","","52.40000003576279","img/food3.png","75","53.69999998807907","2","1","1","2","1,0.7,0,1,0.7,0,0.7,0,1","0,1,0.7,0,1,0.7,1,0.7,0","3","false",""
"","html-keyboard-response","344","235270","0.0-419.0","3TOK3KHVJU4AZJ9ELZR2U8VG8DT7OX","A1BJFYHXK6YDX1","3THR0FZ95PF7SK0MYRNAOUHTWA4OLV","","null","<img src=""img/food3.png"" style=""width:200px; border:14px solid green;"">","null","","","","","","","","","",""
"","image-keyboard-response","345","235856","0.0-421.0","3TOK3KHVJU4AZJ9ELZR2U8VG8DT7OX","A1BJFYHXK6YDX1","3THR0FZ95PF7SK0MYRNAOUHTWA4OLV","","584.1999999880791","img/food4.png","74","585.6999999880791","1","1","3","2","1,0.7,0,1,0.7,0,0.7,0,1","0,1,0.7,0,1,0.7,1,0.7,0","3","false",""
"","html-keyboard-response","346","236161","0.0-422.0","3TOK3KHVJU4AZJ9ELZR2U8VG8DT7OX","A1BJFYHXK6YDX1","3THR0FZ95PF7SK0MYRNAOUHTWA4OLV","","null","<img src=""img/food4.png"" style=""width:200px; border:14px solid green;"">","null","","","","","","","","","",""
"","image-keyboard-response","347","236570","0.0-424.0","3TOK3KHVJU4AZJ9ELZR2U8VG8DT7OX","A1BJFYHXK6YDX1","3THR0FZ95PF7SK0MYRNAOUHTWA4OLV","","407","img/food5.png","74","408.2000000476837","1","0","2","2","1,0.7,0,1,0.7,0,0.7,0,1","0,1,0.7,0,1,0.7,1,0.7,0","3","false",""
"","html-keyboard-response","348","236875","0.0-425.0","3TOK3KHVJU4AZJ9ELZR2U8VG8DT7OX","A1BJFYHXK6YDX1","3THR0FZ95PF7SK0MYRNAOUHTWA4OLV","","null","<img src=""img/food5.png"" style=""width:200px;border:14px solid red;"">","null","","","","","","","","","",""
"","image-keyboard-response","349","237442","0.0-427.0","3TOK3KHVJU4AZJ9ELZR2U8VG8DT7OX","A1BJFYHXK6YDX1","3THR0FZ95PF7SK0MYRNAOUHTWA4OLV","","565.2000000476837","img/food5.png","75","566.3000000119209","2","1","2","2","1,0.7,0,1,0.7,0,0.7,0,1","0,1,0.7,0,1,0.7,1,0.7,0","3","false",""
"","html-keyboard-response","350","237747","0.0-428.0","3TOK3KHVJU4AZJ9ELZR2U8VG8DT7OX","A1BJFYHXK6YDX1","3THR0FZ95PF7SK0MYRNAOUHTWA4OLV","","null","<img src=""img/food5.png"" style=""width:200px; border:14px solid green;"">","null","","","","","","","","","",""
"","image-keyboard-response","351","238568","0.0-430.0","3TOK3KHVJU4AZJ9ELZR2U8VG8DT7OX","A1BJFYHXK6YDX1","3THR0FZ95PF7SK0MYRNAOUHTWA4OLV","","819.1999999880791","img/food4.png","74","820.5","1","1","3","2","1,0.7,0,1,0.7,0,0.7,0,1","0,1,0.7,0,1,0.7,1,0.7,0","3","false",""
"","html-keyboard-response","352","238875","0.0-431.0","3TOK3KHVJU4AZJ9ELZR2U8VG8DT7OX","A1BJFYHXK6YDX1","3THR0FZ95PF7SK0MYRNAOUHTWA4OLV","","null","<img src=""img/food4.png"" style=""width:200px; border:14px solid green;"">","null","","","","","","","","","",""
"","image-keyboard-response","353","239252","0.0-433.0","3TOK3KHVJU4AZJ9ELZR2U8VG8DT7OX","A1BJFYHXK6YDX1","3THR0FZ95PF7SK0MYRNAOUHTWA4OLV","","376","img/food4.png","74","377.30000001192093","1","1","3","2","1,0.7,0,1,0.7,0,0.7,0,1","0,1,0.7,0,1,0.7,1,0.7,0","3","false",""
"","html-keyboard-response","354","239566","0.0-434.0","3TOK3KHVJU4AZJ9ELZR2U8VG8DT7OX","A1BJFYHXK6YDX1","3THR0FZ95PF7SK0MYRNAOUHTWA4OLV","","null","<img src=""img/food4.png"" style=""width:200px; border:14px solid green;"">","null","","","","","","","","","",""
"","image-keyboard-response","355","239979","0.0-436.0","3TOK3KHVJU4AZJ9ELZR2U8VG8DT7OX","A1BJFYHXK6YDX1","3THR0FZ95PF7SK0MYRNAOUHTWA4OLV","","410.60000002384186","img/food5.png","75","412","2","1","2","2","1,0.7,0,1,0.7,0,0.7,0,1","0,1,0.7,0,1,0.7,1,0.7,0","3","false",""
"","html-keyboard-response","356","240286","0.0-437.0","3TOK3KHVJU4AZJ9ELZR2U8VG8DT7OX","A1BJFYHXK6YDX1","3THR0FZ95PF7SK0MYRNAOUHTWA4OLV","","null","<img src=""img/food5.png"" style=""width:200px; border:14px solid green;"">","null","","","","","","","","","",""
"","image-keyboard-response","357","240575","0.0-439.0","3TOK3KHVJU4AZJ9ELZR2U8VG8DT7OX","A1BJFYHXK6YDX1","3THR0FZ95PF7SK0MYRNAOUHTWA4OLV","","287.39999997615814","img/food5.png","75","288.7000000476837","2","1","2","2","1,0.7,0,1,0.7,0,0.7,0,1","0,1,0.7,0,1,0.7,1,0.7,0","3","false",""
"","html-keyboard-response","358","240887","0.0-440.0","3TOK3KHVJU4AZJ9ELZR2U8VG8DT7OX","A1BJFYHXK6YDX1","3THR0FZ95PF7SK0MYRNAOUHTWA4OLV","","null","<img src=""img/food5.png"" style=""width:200px; border:14px solid green;"">","null","","","","","","","","","",""
"","image-keyboard-response","359","241210","0.0-442.0","3TOK3KHVJU4AZJ9ELZR2U8VG8DT7OX","A1BJFYHXK6YDX1","3THR0FZ95PF7SK0MYRNAOUHTWA4OLV","","321.60000002384186","img/food5.png","75","322.9000000357628","2","1","2","2","1,0.7,0,1,0.7,0,0.7,0,1","0,1,0.7,0,1,0.7,1,0.7,0","3","false",""
"","html-keyboard-response","360","241515","0.0-443.0","3TOK3KHVJU4AZJ9ELZR2U8VG8DT7OX","A1BJFYHXK6YDX1","3THR0FZ95PF7SK0MYRNAOUHTWA4OLV","","null","<img src=""img/food5.png"" style=""width:200px; border:14px solid green;"">","null","","","","","","","","","",""
"","image-keyboard-response","361","242184","0.0-445.0","3TOK3KHVJU4AZJ9ELZR2U8VG8DT7OX","A1BJFYHXK6YDX1","3THR0FZ95PF7SK0MYRNAOUHTWA4OLV","","667.1000000238419","img/food4.png","74","668.6000000238419","1","1","3","2","1,0.7,0,1,0.7,0,0.7,0,1","0,1,0.7,0,1,0.7,1,0.7,0","3","false",""
"","html-keyboard-response","362","242497","0.0-446.0","3TOK3KHVJU4AZJ9ELZR2U8VG8DT7OX","A1BJFYHXK6YDX1","3THR0FZ95PF7SK0MYRNAOUHTWA4OLV","","null","<img src=""img/food4.png"" style=""width:200px; border:14px solid green;"">","null","","","","","","","","","",""
"","image-keyboard-response","363","242856","0.0-448.0","3TOK3KHVJU4AZJ9ELZR2U8VG8DT7OX","A1BJFYHXK6YDX1","3THR0FZ95PF7SK0MYRNAOUHTWA4OLV","","357","img/food4.png","74","358.4000000357628","1","1","3","2","1,0.7,0,1,0.7,0,0.7,0,1","0,1,0.7,0,1,0.7,1,0.7,0","3","false",""
"","html-keyboard-response","364","243162","0.0-449.0","3TOK3KHVJU4AZJ9ELZR2U8VG8DT7OX","A1BJFYHXK6YDX1","3THR0FZ95PF7SK0MYRNAOUHTWA4OLV","","null","<img src=""img/food4.png"" style=""width:200px; border:14px solid green;"">","null","","","","","","","","","",""
"","image-keyboard-response","365","243476","0.0-451.0","3TOK3KHVJU4AZJ9ELZR2U8VG8DT7OX","A1BJFYHXK6YDX1","3THR0FZ95PF7SK0MYRNAOUHTWA4OLV","","312.5","img/food4.png","74","313.80000001192093","1","1","3","2","1,0.7,0,1,0.7,0,0.7,0,1","0,1,0.7,0,1,0.7,1,0.7,0","3","false",""
"","html-keyboard-response","366","243778","0.0-452.0","3TOK3KHVJU4AZJ9ELZR2U8VG8DT7OX","A1BJFYHXK6YDX1","3THR0FZ95PF7SK0MYRNAOUHTWA4OLV","","null","<img src=""img/food4.png"" style=""width:200px; border:14px solid green;"">","null","","","","","","","","","",""
"","instructions","367","246192","0.0-454.0","3TOK3KHVJU4AZJ9ELZR2U8VG8DT7OX","A1BJFYHXK6YDX1","3THR0FZ95PF7SK0MYRNAOUHTWA4OLV","[{""page_index"":0,""viewing_time"":2412.599999964237}]","2413","","","","","","","","","","","",""
"","survey-text","368","249101","0.0-455.0","3TOK3KHVJU4AZJ9ELZR2U8VG8DT7OX","A1BJFYHXK6YDX1","3THR0FZ95PF7SK0MYRNAOUHTWA4OLV","","2905.599999964237","","","","","","","","","","","","{""Q0"":""A1BJFYHXK6YDX1""}"
