"success","trial_type","trial_index","time_elapsed","internal_node_id","assignmentID","mturkID","hitID","view_history","rt","stimulus","key_press","reactionTime","a","r","warning","s","cond","reward_cond","reward_cond_actual","reward_matrix_idx","responses"
"true","fullscreen","0","3347","0.0-0.0","3Q5C1WP23NNAGNOUR4EUKS4CPOW15I","A1BM57TUNAQIXM","3UDTAB6HH6LRO17U79I9TKUGYFV09C","","","","","","","","","","","","","",""
"","instructions","1","37102","0.0-1.0","3Q5C1WP23NNAGNOUR4EUKS4CPOW15I","A1BM57TUNAQIXM","3UDTAB6HH6LRO17U79I9TKUGYFV09C","[{""page_index"":0,""viewing_time"":2004.4000000059605},{""page_index"":1,""viewing_time"":1160.5999999940395},{""page_index"":2,""viewing_time"":671.2999999970198},{""page_index"":3,""viewing_time"":1517.5},{""page_index"":4,""viewing_time"":1363.1000000089407},{""page_index"":5,""viewing_time"":25831.19999998808},{""page_index"":6,""viewing_time"":1204.9000000059605}]","33753.29999999702","","","","","","","","","","","",""
"","instructions","2","40275","0.0-2.0","3Q5C1WP23NNAGNOUR4EUKS4CPOW15I","A1BM57TUNAQIXM","3UDTAB6HH6LRO17U79I9TKUGYFV09C","[{""page_index"":0,""viewing_time"":2493.3999999910593},{""page_index"":1,""viewing_time"":678.1000000089407}]","3171.7999999970198","","","","","","","","","","","",""
"","image-keyboard-response","3","40928","0.0-3.0","3Q5C1WP23NNAGNOUR4EUKS4CPOW15I","A1BM57TUNAQIXM","3UDTAB6HH6LRO17U79I9TKUGYFV09C","","651.1000000089407","img/food3.png","75","653.2999999970198","2","0","false","3","2","1,0.5,0,1,0.5,0,0.5,0,1","0,1,0.5,0,1,0.5,1,0.5,0","3",""
"","html-keyboard-response","4","41232","0.0-4.0","3Q5C1WP23NNAGNOUR4EUKS4CPOW15I","A1BM57TUNAQIXM","3UDTAB6HH6LRO17U79I9TKUGYFV09C","","null","<img src=""img/food3.png"" style=""width:200px;border:14px solid red;"">","null","","","","","","","","","",""
"","image-keyboard-response","5","42117","0.0-6.0","3Q5C1WP23NNAGNOUR4EUKS4CPOW15I","A1BM57TUNAQIXM","3UDTAB6HH6LRO17U79I9TKUGYFV09C","","883.2999999970198","img/food2.png","75","884.3999999910593","2","1","false","2","2","1,0.5,0,1,0.5,0,0.5,0,1","0,1,0.5,0,1,0.5,1,0.5,0","3",""
"","html-keyboard-response","6","42419","0.0-7.0","3Q5C1WP23NNAGNOUR4EUKS4CPOW15I","A1BM57TUNAQIXM","3UDTAB6HH6LRO17U79I9TKUGYFV09C","","null","<img src=""img/food2.png"" style=""width:200px; border:14px solid green;"">","null","","","","","","","","","",""
"","image-keyboard-response","7","43081","0.0-9.0","3Q5C1WP23NNAGNOUR4EUKS4CPOW15I","A1BM57TUNAQIXM","3UDTAB6HH6LRO17U79I9TKUGYFV09C","","661.0999999940395","img/food3.png","76","661.7999999970198","3","0","false","3","2","1,0.5,0,1,0.5,0,0.5,0,1","0,1,0.5,0,1,0.5,1,0.5,0","3",""
"","html-keyboard-response","8","43383","0.0-10.0","3Q5C1WP23NNAGNOUR4EUKS4CPOW15I","A1BM57TUNAQIXM","3UDTAB6HH6LRO17U79I9TKUGYFV09C","","null","<img src=""img/food3.png"" style=""width:200px;border:14px solid red;"">","null","","","","","","","","","",""
"","image-keyboard-response","9","43884","0.0-12.0","3Q5C1WP23NNAGNOUR4EUKS4CPOW15I","A1BM57TUNAQIXM","3UDTAB6HH6LRO17U79I9TKUGYFV09C","","499.8999999910593","img/food2.png","75","501.70000000298023","2","1","false","2","2","1,0.5,0,1,0.5,0,0.5,0,1","0,1,0.5,0,1,0.5,1,0.5,0","3",""
"","html-keyboard-response","10","44188","0.0-13.0","3Q5C1WP23NNAGNOUR4EUKS4CPOW15I","A1BM57TUNAQIXM","3UDTAB6HH6LRO17U79I9TKUGYFV09C","","null","<img src=""img/food2.png"" style=""width:200px; border:14px solid green;"">","null","","","","","","","","","",""
"","image-keyboard-response","11","44641","0.0-15.0","3Q5C1WP23NNAGNOUR4EUKS4CPOW15I","A1BM57TUNAQIXM","3UDTAB6HH6LRO17U79I9TKUGYFV09C","","451.5","img/food4.png","74","453","1","0","false","1","2","1,0.5,0,1,0.5,0,0.5,0,1","0,1,0.5,0,1,0.5,1,0.5,0","3",""
"","html-keyboard-response","12","44944","0.0-16.0","3Q5C1WP23NNAGNOUR4EUKS4CPOW15I","A1BM57TUNAQIXM","3UDTAB6HH6LRO17U79I9TKUGYFV09C","","null","<img src=""img/food4.png"" style=""width:200px;border:14px solid red;"">","null","","","","","","","","","",""
"","image-keyboard-response","13","45680","0.0-18.0","3Q5C1WP23NNAGNOUR4EUKS4CPOW15I","A1BM57TUNAQIXM","3UDTAB6HH6LRO17U79I9TKUGYFV09C","","733.2000000029802","img/food2.png","75","735.2999999970198","2","1","false","2","2","1,0.5,0,1,0.5,0,0.5,0,1","0,1,0.5,0,1,0.5,1,0.5,0","3",""
"","html-keyboard-response","14","45983","0.0-19.0","3Q5C1WP23NNAGNOUR4EUKS4CPOW15I","A1BM57TUNAQIXM","3UDTAB6HH6LRO17U79I9TKUGYFV09C","","null","<img src=""img/food2.png"" style=""width:200px; border:14px solid green;"">","null","","","","","","","","","",""
"","image-keyboard-response","15","46573","0.0-21.0","3Q5C1WP23NNAGNOUR4EUKS4CPOW15I","A1BM57TUNAQIXM","3UDTAB6HH6LRO17U79I9TKUGYFV09C","","587.0999999940395","img/food3.png","74","589.2999999970198","1","1","false","3","2","1,0.5,0,1,0.5,0,0.5,0,1","0,1,0.5,0,1,0.5,1,0.5,0","3",""
"","html-keyboard-response","16","46876","0.0-22.0","3Q5C1WP23NNAGNOUR4EUKS4CPOW15I","A1BM57TUNAQIXM","3UDTAB6HH6LRO17U79I9TKUGYFV09C","","null","<img src=""img/food3.png"" style=""width:200px; border:14px solid green;"">","null","","","","","","","","","",""
"","image-keyboard-response","17","47425","0.0-24.0","3Q5C1WP23NNAGNOUR4EUKS4CPOW15I","A1BM57TUNAQIXM","3UDTAB6HH6LRO17U79I9TKUGYFV09C","","546.5","img/food3.png","74","548","1","1","false","3","2","1,0.5,0,1,0.5,0,0.5,0,1","0,1,0.5,0,1,0.5,1,0.5,0","3",""
"","html-keyboard-response","18","47727","0.0-25.0","3Q5C1WP23NNAGNOUR4EUKS4CPOW15I","A1BM57TUNAQIXM","3UDTAB6HH6LRO17U79I9TKUGYFV09C","","null","<img src=""img/food3.png"" style=""width:200px; border:14px solid green;"">","null","","","","","","","","","",""
"","image-keyboard-response","19","48238","0.0-27.0","3Q5C1WP23NNAGNOUR4EUKS4CPOW15I","A1BM57TUNAQIXM","3UDTAB6HH6LRO17U79I9TKUGYFV09C","","508.19999998807907","img/food2.png","75","510.5","2","1","false","2","2","1,0.5,0,1,0.5,0,0.5,0,1","0,1,0.5,0,1,0.5,1,0.5,0","3",""
"","html-keyboard-response","20","48541","0.0-28.0","3Q5C1WP23NNAGNOUR4EUKS4CPOW15I","A1BM57TUNAQIXM","3UDTAB6HH6LRO17U79I9TKUGYFV09C","","null","<img src=""img/food2.png"" style=""width:200px; border:14px solid green;"">","null","","","","","","","","","",""
"","image-keyboard-response","21","49022","0.0-30.0","3Q5C1WP23NNAGNOUR4EUKS4CPOW15I","A1BM57TUNAQIXM","3UDTAB6HH6LRO17U79I9TKUGYFV09C","","477.90000000596046","img/food4.png","76","480.09999999403954","3","1","false","1","2","1,0.5,0,1,0.5,0,0.5,0,1","0,1,0.5,0,1,0.5,1,0.5,0","3",""
"","html-keyboard-response","22","49326","0.0-31.0","3Q5C1WP23NNAGNOUR4EUKS4CPOW15I","A1BM57TUNAQIXM","3UDTAB6HH6LRO17U79I9TKUGYFV09C","","null","<img src=""img/food4.png"" style=""width:200px; border:14px solid green;"">","null","","","","","","","","","",""
"","image-keyboard-response","23","49862","0.0-33.0","3Q5C1WP23NNAGNOUR4EUKS4CPOW15I","A1BM57TUNAQIXM","3UDTAB6HH6LRO17U79I9TKUGYFV09C","","534","img/food3.png","75","535.3999999910593","2","1","false","3","2","1,0.5,0,1,0.5,0,0.5,0,1","0,1,0.5,0,1,0.5,1,0.5,0","3",""
"","html-keyboard-response","24","50164","0.0-34.0","3Q5C1WP23NNAGNOUR4EUKS4CPOW15I","A1BM57TUNAQIXM","3UDTAB6HH6LRO17U79I9TKUGYFV09C","","null","<img src=""img/food3.png"" style=""width:200px; border:14px solid green;"">","null","","","","","","","","","",""
"","image-keyboard-response","25","50732","0.0-36.0","3Q5C1WP23NNAGNOUR4EUKS4CPOW15I","A1BM57TUNAQIXM","3UDTAB6HH6LRO17U79I9TKUGYFV09C","","565.2999999970198","img/food2.png","74","567.2000000029802","1","0","false","2","2","1,0.5,0,1,0.5,0,0.5,0,1","0,1,0.5,0,1,0.5,1,0.5,0","3",""
"","html-keyboard-response","26","51036","0.0-37.0","3Q5C1WP23NNAGNOUR4EUKS4CPOW15I","A1BM57TUNAQIXM","3UDTAB6HH6LRO17U79I9TKUGYFV09C","","null","<img src=""img/food2.png"" style=""width:200px;border:14px solid red;"">","null","","","","","","","","","",""
"","image-keyboard-response","27","51441","0.0-39.0","3Q5C1WP23NNAGNOUR4EUKS4CPOW15I","A1BM57TUNAQIXM","3UDTAB6HH6LRO17U79I9TKUGYFV09C","","402.5","img/food2.png","74","404.09999999403954","1","0","false","2","2","1,0.5,0,1,0.5,0,0.5,0,1","0,1,0.5,0,1,0.5,1,0.5,0","3",""
"","html-keyboard-response","28","51743","0.0-40.0","3Q5C1WP23NNAGNOUR4EUKS4CPOW15I","A1BM57TUNAQIXM","3UDTAB6HH6LRO17U79I9TKUGYFV09C","","null","<img src=""img/food2.png"" style=""width:200px;border:14px solid red;"">","null","","","","","","","","","",""
"","image-keyboard-response","29","52427","0.0-42.0","3Q5C1WP23NNAGNOUR4EUKS4CPOW15I","A1BM57TUNAQIXM","3UDTAB6HH6LRO17U79I9TKUGYFV09C","","683","img/food4.png","76","683.7999999970198","3","1","false","1","2","1,0.5,0,1,0.5,0,0.5,0,1","0,1,0.5,0,1,0.5,1,0.5,0","3",""
"","html-keyboard-response","30","52729","0.0-43.0","3Q5C1WP23NNAGNOUR4EUKS4CPOW15I","A1BM57TUNAQIXM","3UDTAB6HH6LRO17U79I9TKUGYFV09C","","null","<img src=""img/food4.png"" style=""width:200px; border:14px solid green;"">","null","","","","","","","","","",""
"","image-keyboard-response","31","53087","0.0-45.0","3Q5C1WP23NNAGNOUR4EUKS4CPOW15I","A1BM57TUNAQIXM","3UDTAB6HH6LRO17U79I9TKUGYFV09C","","356.20000000298023","img/food4.png","76","357.59999999403954","3","1","false","1","2","1,0.5,0,1,0.5,0,0.5,0,1","0,1,0.5,0,1,0.5,1,0.5,0","3",""
"","html-keyboard-response","32","53390","0.0-46.0","3Q5C1WP23NNAGNOUR4EUKS4CPOW15I","A1BM57TUNAQIXM","3UDTAB6HH6LRO17U79I9TKUGYFV09C","","null","<img src=""img/food4.png"" style=""width:200px; border:14px solid green;"">","null","","","","","","","","","",""
"","image-keyboard-response","33","53780","0.0-48.0","3Q5C1WP23NNAGNOUR4EUKS4CPOW15I","A1BM57TUNAQIXM","3UDTAB6HH6LRO17U79I9TKUGYFV09C","","388.80000001192093","img/food4.png","76","390","3","0","false","1","2","1,0.5,0,1,0.5,0,0.5,0,1","0,1,0.5,0,1,0.5,1,0.5,0","3",""
"","html-keyboard-response","34","54082","0.0-49.0","3Q5C1WP23NNAGNOUR4EUKS4CPOW15I","A1BM57TUNAQIXM","3UDTAB6HH6LRO17U79I9TKUGYFV09C","","null","<img src=""img/food4.png"" style=""width:200px;border:14px solid red;"">","null","","","","","","","","","",""
"","image-keyboard-response","35","54779","0.0-51.0","3Q5C1WP23NNAGNOUR4EUKS4CPOW15I","A1BM57TUNAQIXM","3UDTAB6HH6LRO17U79I9TKUGYFV09C","","695.2000000029802","img/food3.png","75","696.2000000029802","2","1","false","3","2","1,0.5,0,1,0.5,0,0.5,0,1","0,1,0.5,0,1,0.5,1,0.5,0","3",""
"","html-keyboard-response","36","55082","0.0-52.0","3Q5C1WP23NNAGNOUR4EUKS4CPOW15I","A1BM57TUNAQIXM","3UDTAB6HH6LRO17U79I9TKUGYFV09C","","null","<img src=""img/food3.png"" style=""width:200px; border:14px solid green;"">","null","","","","","","","","","",""
"","image-keyboard-response","37","55448","0.0-54.0","3Q5C1WP23NNAGNOUR4EUKS4CPOW15I","A1BM57TUNAQIXM","3UDTAB6HH6LRO17U79I9TKUGYFV09C","","364.20000000298023","img/food3.png","75","365.59999999403954","2","1","false","3","2","1,0.5,0,1,0.5,0,0.5,0,1","0,1,0.5,0,1,0.5,1,0.5,0","3",""
"","html-keyboard-response","38","55750","0.0-55.0","3Q5C1WP23NNAGNOUR4EUKS4CPOW15I","A1BM57TUNAQIXM","3UDTAB6HH6LRO17U79I9TKUGYFV09C","","null","<img src=""img/food3.png"" style=""width:200px; border:14px solid green;"">","null","","","","","","","","","",""
"","image-keyboard-response","39","56470","0.0-57.0","3Q5C1WP23NNAGNOUR4EUKS4CPOW15I","A1BM57TUNAQIXM","3UDTAB6HH6LRO17U79I9TKUGYFV09C","","717.7999999970198","img/food2.png","75","718.7999999970198","2","1","false","2","2","1,0.5,0,1,0.5,0,0.5,0,1","0,1,0.5,0,1,0.5,1,0.5,0","3",""
"","html-keyboard-response","40","56773","0.0-58.0","3Q5C1WP23NNAGNOUR4EUKS4CPOW15I","A1BM57TUNAQIXM","3UDTAB6HH6LRO17U79I9TKUGYFV09C","","null","<img src=""img/food2.png"" style=""width:200px; border:14px solid green;"">","null","","","","","","","","","",""
"","image-keyboard-response","41","57377","0.0-60.0","3Q5C1WP23NNAGNOUR4EUKS4CPOW15I","A1BM57TUNAQIXM","3UDTAB6HH6LRO17U79I9TKUGYFV09C","","601.9000000059605","img/food4.png","76","603.1999999880791","3","0","false","1","2","1,0.5,0,1,0.5,0,0.5,0,1","0,1,0.5,0,1,0.5,1,0.5,0","3",""
"","html-keyboard-response","42","57680","0.0-61.0","3Q5C1WP23NNAGNOUR4EUKS4CPOW15I","A1BM57TUNAQIXM","3UDTAB6HH6LRO17U79I9TKUGYFV09C","","null","<img src=""img/food4.png"" style=""width:200px;border:14px solid red;"">","null","","","","","","","","","",""
"","image-keyboard-response","43","58366","0.0-63.0","3Q5C1WP23NNAGNOUR4EUKS4CPOW15I","A1BM57TUNAQIXM","3UDTAB6HH6LRO17U79I9TKUGYFV09C","","684.1999999880791","img/food3.png","75","685.7000000029802","2","1","false","3","2","1,0.5,0,1,0.5,0,0.5,0,1","0,1,0.5,0,1,0.5,1,0.5,0","3",""
"","html-keyboard-response","44","58675","0.0-64.0","3Q5C1WP23NNAGNOUR4EUKS4CPOW15I","A1BM57TUNAQIXM","3UDTAB6HH6LRO17U79I9TKUGYFV09C","","null","<img src=""img/food3.png"" style=""width:200px; border:14px solid green;"">","null","","","","","","","","","",""
"","image-keyboard-response","45","59006","0.0-66.0","3Q5C1WP23NNAGNOUR4EUKS4CPOW15I","A1BM57TUNAQIXM","3UDTAB6HH6LRO17U79I9TKUGYFV09C","","328.30000001192093","img/food3.png","75","330.19999998807907","2","0","false","3","2","1,0.5,0,1,0.5,0,0.5,0,1","0,1,0.5,0,1,0.5,1,0.5,0","3",""
"","html-keyboard-response","46","59309","0.0-67.0","3Q5C1WP23NNAGNOUR4EUKS4CPOW15I","A1BM57TUNAQIXM","3UDTAB6HH6LRO17U79I9TKUGYFV09C","","null","<img src=""img/food3.png"" style=""width:200px;border:14px solid red;"">","null","","","","","","","","","",""
"","image-keyboard-response","47","59942","0.0-69.0","3Q5C1WP23NNAGNOUR4EUKS4CPOW15I","A1BM57TUNAQIXM","3UDTAB6HH6LRO17U79I9TKUGYFV09C","","631.0999999940395","img/food4.png","76","632.9000000059605","3","1","false","1","2","1,0.5,0,1,0.5,0,0.5,0,1","0,1,0.5,0,1,0.5,1,0.5,0","3",""
"","html-keyboard-response","48","60245","0.0-70.0","3Q5C1WP23NNAGNOUR4EUKS4CPOW15I","A1BM57TUNAQIXM","3UDTAB6HH6LRO17U79I9TKUGYFV09C","","null","<img src=""img/food4.png"" style=""width:200px; border:14px solid green;"">","null","","","","","","","","","",""
"","image-keyboard-response","49","60809","0.0-72.0","3Q5C1WP23NNAGNOUR4EUKS4CPOW15I","A1BM57TUNAQIXM","3UDTAB6HH6LRO17U79I9TKUGYFV09C","","561.5","img/food3.png","75","562.9000000059605","2","1","false","3","2","1,0.5,0,1,0.5,0,0.5,0,1","0,1,0.5,0,1,0.5,1,0.5,0","3",""
"","html-keyboard-response","50","61111","0.0-73.0","3Q5C1WP23NNAGNOUR4EUKS4CPOW15I","A1BM57TUNAQIXM","3UDTAB6HH6LRO17U79I9TKUGYFV09C","","null","<img src=""img/food3.png"" style=""width:200px; border:14px solid green;"">","null","","","","","","","","","",""
"","image-keyboard-response","51","61459","0.0-75.0","3Q5C1WP23NNAGNOUR4EUKS4CPOW15I","A1BM57TUNAQIXM","3UDTAB6HH6LRO17U79I9TKUGYFV09C","","345.70000000298023","img/food3.png","75","347.3999999910593","2","1","false","3","2","1,0.5,0,1,0.5,0,0.5,0,1","0,1,0.5,0,1,0.5,1,0.5,0","3",""
"","html-keyboard-response","52","61761","0.0-76.0","3Q5C1WP23NNAGNOUR4EUKS4CPOW15I","A1BM57TUNAQIXM","3UDTAB6HH6LRO17U79I9TKUGYFV09C","","null","<img src=""img/food3.png"" style=""width:200px; border:14px solid green;"">","null","","","","","","","","","",""
"","image-keyboard-response","53","62264","0.0-78.0","3Q5C1WP23NNAGNOUR4EUKS4CPOW15I","A1BM57TUNAQIXM","3UDTAB6HH6LRO17U79I9TKUGYFV09C","","499.8999999910593","img/food4.png","76","501.90000000596046","3","0","false","1","2","1,0.5,0,1,0.5,0,0.5,0,1","0,1,0.5,0,1,0.5,1,0.5,0","3",""
"","html-keyboard-response","54","62567","0.0-79.0","3Q5C1WP23NNAGNOUR4EUKS4CPOW15I","A1BM57TUNAQIXM","3UDTAB6HH6LRO17U79I9TKUGYFV09C","","null","<img src=""img/food4.png"" style=""width:200px;border:14px solid red;"">","null","","","","","","","","","",""
"","image-keyboard-response","55","63065","0.0-81.0","3Q5C1WP23NNAGNOUR4EUKS4CPOW15I","A1BM57TUNAQIXM","3UDTAB6HH6LRO17U79I9TKUGYFV09C","","494.5","img/food3.png","75","496.5","2","0","false","3","2","1,0.5,0,1,0.5,0,0.5,0,1","0,1,0.5,0,1,0.5,1,0.5,0","3",""
"","html-keyboard-response","56","63368","0.0-82.0","3Q5C1WP23NNAGNOUR4EUKS4CPOW15I","A1BM57TUNAQIXM","3UDTAB6HH6LRO17U79I9TKUGYFV09C","","null","<img src=""img/food3.png"" style=""width:200px;border:14px solid red;"">","null","","","","","","","","","",""
"","image-keyboard-response","57","63752","0.0-84.0","3Q5C1WP23NNAGNOUR4EUKS4CPOW15I","A1BM57TUNAQIXM","3UDTAB6HH6LRO17U79I9TKUGYFV09C","","382.79999999701977","img/food3.png","75","383.69999998807907","2","0","false","3","2","1,0.5,0,1,0.5,0,0.5,0,1","0,1,0.5,0,1,0.5,1,0.5,0","3",""
"","html-keyboard-response","58","64055","0.0-85.0","3Q5C1WP23NNAGNOUR4EUKS4CPOW15I","A1BM57TUNAQIXM","3UDTAB6HH6LRO17U79I9TKUGYFV09C","","null","<img src=""img/food3.png"" style=""width:200px;border:14px solid red;"">","null","","","","","","","","","",""
"","image-keyboard-response","59","65056","0.0-87.0","3Q5C1WP23NNAGNOUR4EUKS4CPOW15I","A1BM57TUNAQIXM","3UDTAB6HH6LRO17U79I9TKUGYFV09C","","","img/food4.png","","1001.5999999940395","-1","0","true","1","2","1,0.5,0,1,0.5,0,0.5,0,1","0,1,0.5,0,1,0.5,1,0.5,0","3",""
"","html-keyboard-response","60","65360","0.0-88.0","3Q5C1WP23NNAGNOUR4EUKS4CPOW15I","A1BM57TUNAQIXM","3UDTAB6HH6LRO17U79I9TKUGYFV09C","","null","<img src=""img/food4.png"" style=""width:200px;border:14px solid red;"">","null","","","","","","","","","",""
"","html-keyboard-response","61","67390","0.0-89.0-0.0","3Q5C1WP23NNAGNOUR4EUKS4CPOW15I","A1BM57TUNAQIXM","3UDTAB6HH6LRO17U79I9TKUGYFV09C","","","","","","","","","","","","","",""
"","image-keyboard-response","62","68121","0.0-90.0","3Q5C1WP23NNAGNOUR4EUKS4CPOW15I","A1BM57TUNAQIXM","3UDTAB6HH6LRO17U79I9TKUGYFV09C","","729.1000000089407","img/food2.png","75","730.7000000029802","2","1","false","2","2","1,0.5,0,1,0.5,0,0.5,0,1","0,1,0.5,0,1,0.5,1,0.5,0","3",""
"","html-keyboard-response","63","68423","0.0-91.0","3Q5C1WP23NNAGNOUR4EUKS4CPOW15I","A1BM57TUNAQIXM","3UDTAB6HH6LRO17U79I9TKUGYFV09C","","null","<img src=""img/food2.png"" style=""width:200px; border:14px solid green;"">","null","","","","","","","","","",""
"","image-keyboard-response","64","68766","0.0-93.0","3Q5C1WP23NNAGNOUR4EUKS4CPOW15I","A1BM57TUNAQIXM","3UDTAB6HH6LRO17U79I9TKUGYFV09C","","341.29999999701977","img/food2.png","75","342.70000000298023","2","1","false","2","2","1,0.5,0,1,0.5,0,0.5,0,1","0,1,0.5,0,1,0.5,1,0.5,0","3",""
"","html-keyboard-response","65","69070","0.0-94.0","3Q5C1WP23NNAGNOUR4EUKS4CPOW15I","A1BM57TUNAQIXM","3UDTAB6HH6LRO17U79I9TKUGYFV09C","","null","<img src=""img/food2.png"" style=""width:200px; border:14px solid green;"">","null","","","","","","","","","",""
"","image-keyboard-response","66","69686","0.0-96.0","3Q5C1WP23NNAGNOUR4EUKS4CPOW15I","A1BM57TUNAQIXM","3UDTAB6HH6LRO17U79I9TKUGYFV09C","","612.5999999940395","img/food4.png","76","615","3","1","false","1","2","1,0.5,0,1,0.5,0,0.5,0,1","0,1,0.5,0,1,0.5,1,0.5,0","3",""
"","html-keyboard-response","67","69990","0.0-97.0","3Q5C1WP23NNAGNOUR4EUKS4CPOW15I","A1BM57TUNAQIXM","3UDTAB6HH6LRO17U79I9TKUGYFV09C","","null","<img src=""img/food4.png"" style=""width:200px; border:14px solid green;"">","null","","","","","","","","","",""
"","image-keyboard-response","68","70315","0.0-99.0","3Q5C1WP23NNAGNOUR4EUKS4CPOW15I","A1BM57TUNAQIXM","3UDTAB6HH6LRO17U79I9TKUGYFV09C","","322.59999999403954","img/food4.png","76","324.5","3","1","false","1","2","1,0.5,0,1,0.5,0,0.5,0,1","0,1,0.5,0,1,0.5,1,0.5,0","3",""
"","html-keyboard-response","69","70617","0.0-100.0","3Q5C1WP23NNAGNOUR4EUKS4CPOW15I","A1BM57TUNAQIXM","3UDTAB6HH6LRO17U79I9TKUGYFV09C","","null","<img src=""img/food4.png"" style=""width:200px; border:14px solid green;"">","null","","","","","","","","","",""
"","image-keyboard-response","70","71173","0.0-102.0","3Q5C1WP23NNAGNOUR4EUKS4CPOW15I","A1BM57TUNAQIXM","3UDTAB6HH6LRO17U79I9TKUGYFV09C","","554.6000000089407","img/food2.png","75","555.7000000029802","2","1","false","2","2","1,0.5,0,1,0.5,0,0.5,0,1","0,1,0.5,0,1,0.5,1,0.5,0","3",""
"","html-keyboard-response","71","71487","0.0-103.0","3Q5C1WP23NNAGNOUR4EUKS4CPOW15I","A1BM57TUNAQIXM","3UDTAB6HH6LRO17U79I9TKUGYFV09C","","null","<img src=""img/food2.png"" style=""width:200px; border:14px solid green;"">","null","","","","","","","","","",""
"","image-keyboard-response","72","71813","0.0-105.0","3Q5C1WP23NNAGNOUR4EUKS4CPOW15I","A1BM57TUNAQIXM","3UDTAB6HH6LRO17U79I9TKUGYFV09C","","323.90000000596046","img/food2.png","75","325.20000000298023","2","1","false","2","2","1,0.5,0,1,0.5,0,0.5,0,1","0,1,0.5,0,1,0.5,1,0.5,0","3",""
"","html-keyboard-response","73","72116","0.0-106.0","3Q5C1WP23NNAGNOUR4EUKS4CPOW15I","A1BM57TUNAQIXM","3UDTAB6HH6LRO17U79I9TKUGYFV09C","","null","<img src=""img/food2.png"" style=""width:200px; border:14px solid green;"">","null","","","","","","","","","",""
"","image-keyboard-response","74","72436","0.0-108.0","3Q5C1WP23NNAGNOUR4EUKS4CPOW15I","A1BM57TUNAQIXM","3UDTAB6HH6LRO17U79I9TKUGYFV09C","","318.79999999701977","img/food2.png","75","319.59999999403954","2","1","false","2","2","1,0.5,0,1,0.5,0,0.5,0,1","0,1,0.5,0,1,0.5,1,0.5,0","3",""
"","html-keyboard-response","75","72737","0.0-109.0","3Q5C1WP23NNAGNOUR4EUKS4CPOW15I","A1BM57TUNAQIXM","3UDTAB6HH6LRO17U79I9TKUGYFV09C","","null","<img src=""img/food2.png"" style=""width:200px; border:14px solid green;"">","null","","","","","","","","","",""
"","image-keyboard-response","76","73057","0.0-111.0","3Q5C1WP23NNAGNOUR4EUKS4CPOW15I","A1BM57TUNAQIXM","3UDTAB6HH6LRO17U79I9TKUGYFV09C","","317.70000000298023","img/food2.png","75","319.20000000298023","2","1","false","2","2","1,0.5,0,1,0.5,0,0.5,0,1","0,1,0.5,0,1,0.5,1,0.5,0","3",""
"","html-keyboard-response","77","73359","0.0-112.0","3Q5C1WP23NNAGNOUR4EUKS4CPOW15I","A1BM57TUNAQIXM","3UDTAB6HH6LRO17U79I9TKUGYFV09C","","null","<img src=""img/food2.png"" style=""width:200px; border:14px solid green;"">","null","","","","","","","","","",""
"","image-keyboard-response","78","73803","0.0-114.0","3Q5C1WP23NNAGNOUR4EUKS4CPOW15I","A1BM57TUNAQIXM","3UDTAB6HH6LRO17U79I9TKUGYFV09C","","441.90000000596046","img/food3.png","74","443.09999999403954","1","1","false","3","2","1,0.5,0,1,0.5,0,0.5,0,1","0,1,0.5,0,1,0.5,1,0.5,0","3",""
"","html-keyboard-response","79","74105","0.0-115.0","3Q5C1WP23NNAGNOUR4EUKS4CPOW15I","A1BM57TUNAQIXM","3UDTAB6HH6LRO17U79I9TKUGYFV09C","","null","<img src=""img/food3.png"" style=""width:200px; border:14px solid green;"">","null","","","","","","","","","",""
"","image-keyboard-response","80","74623","0.0-117.0","3Q5C1WP23NNAGNOUR4EUKS4CPOW15I","A1BM57TUNAQIXM","3UDTAB6HH6LRO17U79I9TKUGYFV09C","","516.1999999880791","img/food2.png","75","517.5","2","1","false","2","2","1,0.5,0,1,0.5,0,0.5,0,1","0,1,0.5,0,1,0.5,1,0.5,0","3",""
"","html-keyboard-response","81","74926","0.0-118.0","3Q5C1WP23NNAGNOUR4EUKS4CPOW15I","A1BM57TUNAQIXM","3UDTAB6HH6LRO17U79I9TKUGYFV09C","","null","<img src=""img/food2.png"" style=""width:200px; border:14px solid green;"">","null","","","","","","","","","",""
"","image-keyboard-response","82","75467","0.0-120.0","3Q5C1WP23NNAGNOUR4EUKS4CPOW15I","A1BM57TUNAQIXM","3UDTAB6HH6LRO17U79I9TKUGYFV09C","","538.4000000059605","img/food3.png","74","540.3999999910593","1","1","false","3","2","1,0.5,0,1,0.5,0,0.5,0,1","0,1,0.5,0,1,0.5,1,0.5,0","3",""
"","html-keyboard-response","83","75770","0.0-121.0","3Q5C1WP23NNAGNOUR4EUKS4CPOW15I","A1BM57TUNAQIXM","3UDTAB6HH6LRO17U79I9TKUGYFV09C","","null","<img src=""img/food3.png"" style=""width:200px; border:14px solid green;"">","null","","","","","","","","","",""
"","image-keyboard-response","84","76312","0.0-123.0","3Q5C1WP23NNAGNOUR4EUKS4CPOW15I","A1BM57TUNAQIXM","3UDTAB6HH6LRO17U79I9TKUGYFV09C","","539.5","img/food4.png","76","541.5","3","0","false","1","2","1,0.5,0,1,0.5,0,0.5,0,1","0,1,0.5,0,1,0.5,1,0.5,0","3",""
"","html-keyboard-response","85","76620","0.0-124.0","3Q5C1WP23NNAGNOUR4EUKS4CPOW15I","A1BM57TUNAQIXM","3UDTAB6HH6LRO17U79I9TKUGYFV09C","","null","<img src=""img/food4.png"" style=""width:200px;border:14px solid red;"">","null","","","","","","","","","",""
"","image-keyboard-response","86","76958","0.0-126.0","3Q5C1WP23NNAGNOUR4EUKS4CPOW15I","A1BM57TUNAQIXM","3UDTAB6HH6LRO17U79I9TKUGYFV09C","","337.09999999403954","img/food4.png","76","338.69999998807907","3","0","false","1","2","1,0.5,0,1,0.5,0,0.5,0,1","0,1,0.5,0,1,0.5,1,0.5,0","3",""
"","html-keyboard-response","87","77261","0.0-127.0","3Q5C1WP23NNAGNOUR4EUKS4CPOW15I","A1BM57TUNAQIXM","3UDTAB6HH6LRO17U79I9TKUGYFV09C","","null","<img src=""img/food4.png"" style=""width:200px;border:14px solid red;"">","null","","","","","","","","","",""
"","image-keyboard-response","88","77828","0.0-129.0","3Q5C1WP23NNAGNOUR4EUKS4CPOW15I","A1BM57TUNAQIXM","3UDTAB6HH6LRO17U79I9TKUGYFV09C","","564.7999999970198","img/food3.png","75","566.2000000029802","2","0","false","3","2","1,0.5,0,1,0.5,0,0.5,0,1","0,1,0.5,0,1,0.5,1,0.5,0","3",""
"","html-keyboard-response","89","78131","0.0-130.0","3Q5C1WP23NNAGNOUR4EUKS4CPOW15I","A1BM57TUNAQIXM","3UDTAB6HH6LRO17U79I9TKUGYFV09C","","null","<img src=""img/food3.png"" style=""width:200px;border:14px solid red;"">","null","","","","","","","","","",""
"","image-keyboard-response","90","78527","0.0-132.0","3Q5C1WP23NNAGNOUR4EUKS4CPOW15I","A1BM57TUNAQIXM","3UDTAB6HH6LRO17U79I9TKUGYFV09C","","392.69999998807907","img/food3.png","75","394.90000000596046","2","1","false","3","2","1,0.5,0,1,0.5,0,0.5,0,1","0,1,0.5,0,1,0.5,1,0.5,0","3",""
"","html-keyboard-response","91","78830","0.0-133.0","3Q5C1WP23NNAGNOUR4EUKS4CPOW15I","A1BM57TUNAQIXM","3UDTAB6HH6LRO17U79I9TKUGYFV09C","","null","<img src=""img/food3.png"" style=""width:200px; border:14px solid green;"">","null","","","","","","","","","",""
"","image-keyboard-response","92","79341","0.0-135.0","3Q5C1WP23NNAGNOUR4EUKS4CPOW15I","A1BM57TUNAQIXM","3UDTAB6HH6LRO17U79I9TKUGYFV09C","","508.5","img/food2.png","76","509.8999999910593","3","1","false","2","2","1,0.5,0,1,0.5,0,0.5,0,1","0,1,0.5,0,1,0.5,1,0.5,0","3",""
"","html-keyboard-response","93","79644","0.0-136.0","3Q5C1WP23NNAGNOUR4EUKS4CPOW15I","A1BM57TUNAQIXM","3UDTAB6HH6LRO17U79I9TKUGYFV09C","","null","<img src=""img/food2.png"" style=""width:200px; border:14px solid green;"">","null","","","","","","","","","",""
"","image-keyboard-response","94","79909","0.0-138.0","3Q5C1WP23NNAGNOUR4EUKS4CPOW15I","A1BM57TUNAQIXM","3UDTAB6HH6LRO17U79I9TKUGYFV09C","","264.29999999701977","img/food3.png","76","265.09999999403954","3","0","false","3","2","1,0.5,0,1,0.5,0,0.5,0,1","0,1,0.5,0,1,0.5,1,0.5,0","3",""
"","html-keyboard-response","95","80211","0.0-139.0","3Q5C1WP23NNAGNOUR4EUKS4CPOW15I","A1BM57TUNAQIXM","3UDTAB6HH6LRO17U79I9TKUGYFV09C","","null","<img src=""img/food3.png"" style=""width:200px;border:14px solid red;"">","null","","","","","","","","","",""
"","image-keyboard-response","96","80860","0.0-141.0","3Q5C1WP23NNAGNOUR4EUKS4CPOW15I","A1BM57TUNAQIXM","3UDTAB6HH6LRO17U79I9TKUGYFV09C","","647.4000000059605","img/food2.png","75","649.0999999940395","2","1","false","2","2","1,0.5,0,1,0.5,0,0.5,0,1","0,1,0.5,0,1,0.5,1,0.5,0","3",""
"","html-keyboard-response","97","81167","0.0-142.0","3Q5C1WP23NNAGNOUR4EUKS4CPOW15I","A1BM57TUNAQIXM","3UDTAB6HH6LRO17U79I9TKUGYFV09C","","null","<img src=""img/food2.png"" style=""width:200px; border:14px solid green;"">","null","","","","","","","","","",""
"","image-keyboard-response","98","81552","0.0-144.0","3Q5C1WP23NNAGNOUR4EUKS4CPOW15I","A1BM57TUNAQIXM","3UDTAB6HH6LRO17U79I9TKUGYFV09C","","384.40000000596046","img/food2.png","75","385.5","2","1","false","2","2","1,0.5,0,1,0.5,0,0.5,0,1","0,1,0.5,0,1,0.5,1,0.5,0","3",""
"","html-keyboard-response","99","81855","0.0-145.0","3Q5C1WP23NNAGNOUR4EUKS4CPOW15I","A1BM57TUNAQIXM","3UDTAB6HH6LRO17U79I9TKUGYFV09C","","null","<img src=""img/food2.png"" style=""width:200px; border:14px solid green;"">","null","","","","","","","","","",""
"","image-keyboard-response","100","82183","0.0-147.0","3Q5C1WP23NNAGNOUR4EUKS4CPOW15I","A1BM57TUNAQIXM","3UDTAB6HH6LRO17U79I9TKUGYFV09C","","326.5","img/food2.png","75","327.20000000298023","2","1","false","2","2","1,0.5,0,1,0.5,0,0.5,0,1","0,1,0.5,0,1,0.5,1,0.5,0","3",""
"","html-keyboard-response","101","82498","0.0-148.0","3Q5C1WP23NNAGNOUR4EUKS4CPOW15I","A1BM57TUNAQIXM","3UDTAB6HH6LRO17U79I9TKUGYFV09C","","null","<img src=""img/food2.png"" style=""width:200px; border:14px solid green;"">","null","","","","","","","","","",""
"","image-keyboard-response","102","82829","0.0-150.0","3Q5C1WP23NNAGNOUR4EUKS4CPOW15I","A1BM57TUNAQIXM","3UDTAB6HH6LRO17U79I9TKUGYFV09C","","330.09999999403954","img/food2.png","75","331.09999999403954","2","1","false","2","2","1,0.5,0,1,0.5,0,0.5,0,1","0,1,0.5,0,1,0.5,1,0.5,0","3",""
"","html-keyboard-response","103","83132","0.0-151.0","3Q5C1WP23NNAGNOUR4EUKS4CPOW15I","A1BM57TUNAQIXM","3UDTAB6HH6LRO17U79I9TKUGYFV09C","","null","<img src=""img/food2.png"" style=""width:200px; border:14px solid green;"">","null","","","","","","","","","",""
"","image-keyboard-response","104","83746","0.0-153.0","3Q5C1WP23NNAGNOUR4EUKS4CPOW15I","A1BM57TUNAQIXM","3UDTAB6HH6LRO17U79I9TKUGYFV09C","","611.2000000029802","img/food3.png","75","613.0999999940395","2","1","false","3","2","1,0.5,0,1,0.5,0,0.5,0,1","0,1,0.5,0,1,0.5,1,0.5,0","3",""
"","html-keyboard-response","105","84050","0.0-154.0","3Q5C1WP23NNAGNOUR4EUKS4CPOW15I","A1BM57TUNAQIXM","3UDTAB6HH6LRO17U79I9TKUGYFV09C","","null","<img src=""img/food3.png"" style=""width:200px; border:14px solid green;"">","null","","","","","","","","","",""
"","image-keyboard-response","106","84650","0.0-156.0","3Q5C1WP23NNAGNOUR4EUKS4CPOW15I","A1BM57TUNAQIXM","3UDTAB6HH6LRO17U79I9TKUGYFV09C","","598.2000000029802","img/food4.png","76","599.5999999940395","3","1","false","1","2","1,0.5,0,1,0.5,0,0.5,0,1","0,1,0.5,0,1,0.5,1,0.5,0","3",""
"","html-keyboard-response","107","84952","0.0-157.0","3Q5C1WP23NNAGNOUR4EUKS4CPOW15I","A1BM57TUNAQIXM","3UDTAB6HH6LRO17U79I9TKUGYFV09C","","null","<img src=""img/food4.png"" style=""width:200px; border:14px solid green;"">","null","","","","","","","","","",""
"","image-keyboard-response","108","85521","0.0-159.0","3Q5C1WP23NNAGNOUR4EUKS4CPOW15I","A1BM57TUNAQIXM","3UDTAB6HH6LRO17U79I9TKUGYFV09C","","566.0999999940395","img/food4.png","76","568","3","1","false","1","2","1,0.5,0,1,0.5,0,0.5,0,1","0,1,0.5,0,1,0.5,1,0.5,0","3",""
"","html-keyboard-response","109","85824","0.0-160.0","3Q5C1WP23NNAGNOUR4EUKS4CPOW15I","A1BM57TUNAQIXM","3UDTAB6HH6LRO17U79I9TKUGYFV09C","","null","<img src=""img/food4.png"" style=""width:200px; border:14px solid green;"">","null","","","","","","","","","",""
"","image-keyboard-response","110","86121","0.0-162.0","3Q5C1WP23NNAGNOUR4EUKS4CPOW15I","A1BM57TUNAQIXM","3UDTAB6HH6LRO17U79I9TKUGYFV09C","","294.90000000596046","img/food4.png","76","296","3","1","false","1","2","1,0.5,0,1,0.5,0,0.5,0,1","0,1,0.5,0,1,0.5,1,0.5,0","3",""
"","html-keyboard-response","111","86423","0.0-163.0","3Q5C1WP23NNAGNOUR4EUKS4CPOW15I","A1BM57TUNAQIXM","3UDTAB6HH6LRO17U79I9TKUGYFV09C","","null","<img src=""img/food4.png"" style=""width:200px; border:14px solid green;"">","null","","","","","","","","","",""
"","image-keyboard-response","112","86872","0.0-165.0","3Q5C1WP23NNAGNOUR4EUKS4CPOW15I","A1BM57TUNAQIXM","3UDTAB6HH6LRO17U79I9TKUGYFV09C","","446.8999999910593","img/food3.png","74","448.1000000089407","1","1","false","3","2","1,0.5,0,1,0.5,0,0.5,0,1","0,1,0.5,0,1,0.5,1,0.5,0","3",""
"","html-keyboard-response","113","87174","0.0-166.0","3Q5C1WP23NNAGNOUR4EUKS4CPOW15I","A1BM57TUNAQIXM","3UDTAB6HH6LRO17U79I9TKUGYFV09C","","null","<img src=""img/food3.png"" style=""width:200px; border:14px solid green;"">","null","","","","","","","","","",""
"","image-keyboard-response","114","87793","0.0-168.0","3Q5C1WP23NNAGNOUR4EUKS4CPOW15I","A1BM57TUNAQIXM","3UDTAB6HH6LRO17U79I9TKUGYFV09C","","615.6000000089407","img/food2.png","75","618","2","1","false","2","2","1,0.5,0,1,0.5,0,0.5,0,1","0,1,0.5,0,1,0.5,1,0.5,0","3",""
"","html-keyboard-response","115","88110","0.0-169.0","3Q5C1WP23NNAGNOUR4EUKS4CPOW15I","A1BM57TUNAQIXM","3UDTAB6HH6LRO17U79I9TKUGYFV09C","","null","<img src=""img/food2.png"" style=""width:200px; border:14px solid green;"">","null","","","","","","","","","",""
"","image-keyboard-response","116","88494","0.0-171.0","3Q5C1WP23NNAGNOUR4EUKS4CPOW15I","A1BM57TUNAQIXM","3UDTAB6HH6LRO17U79I9TKUGYFV09C","","382.5","img/food3.png","74","383.59999999403954","1","1","false","3","2","1,0.5,0,1,0.5,0,0.5,0,1","0,1,0.5,0,1,0.5,1,0.5,0","3",""
"","html-keyboard-response","117","88796","0.0-172.0","3Q5C1WP23NNAGNOUR4EUKS4CPOW15I","A1BM57TUNAQIXM","3UDTAB6HH6LRO17U79I9TKUGYFV09C","","null","<img src=""img/food3.png"" style=""width:200px; border:14px solid green;"">","null","","","","","","","","","",""
"","image-keyboard-response","118","89344","0.0-174.0","3Q5C1WP23NNAGNOUR4EUKS4CPOW15I","A1BM57TUNAQIXM","3UDTAB6HH6LRO17U79I9TKUGYFV09C","","545.5999999940395","img/food4.png","76","547.2000000029802","3","0","false","1","2","1,0.5,0,1,0.5,0,0.5,0,1","0,1,0.5,0,1,0.5,1,0.5,0","3",""
"","html-keyboard-response","119","89647","0.0-175.0","3Q5C1WP23NNAGNOUR4EUKS4CPOW15I","A1BM57TUNAQIXM","3UDTAB6HH6LRO17U79I9TKUGYFV09C","","null","<img src=""img/food4.png"" style=""width:200px;border:14px solid red;"">","null","","","","","","","","","",""
"","image-keyboard-response","120","90244","0.0-177.0","3Q5C1WP23NNAGNOUR4EUKS4CPOW15I","A1BM57TUNAQIXM","3UDTAB6HH6LRO17U79I9TKUGYFV09C","","595.6000000089407","img/food2.png","75","597","2","1","false","2","2","1,0.5,0,1,0.5,0,0.5,0,1","0,1,0.5,0,1,0.5,1,0.5,0","3",""
"","html-keyboard-response","121","90547","0.0-178.0","3Q5C1WP23NNAGNOUR4EUKS4CPOW15I","A1BM57TUNAQIXM","3UDTAB6HH6LRO17U79I9TKUGYFV09C","","null","<img src=""img/food2.png"" style=""width:200px; border:14px solid green;"">","null","","","","","","","","","",""
"","image-keyboard-response","122","90959","0.0-180.0","3Q5C1WP23NNAGNOUR4EUKS4CPOW15I","A1BM57TUNAQIXM","3UDTAB6HH6LRO17U79I9TKUGYFV09C","","409.90000000596046","img/food3.png","74","410.90000000596046","1","1","false","3","2","1,0.5,0,1,0.5,0,0.5,0,1","0,1,0.5,0,1,0.5,1,0.5,0","3",""
"","html-keyboard-response","123","91261","0.0-181.0","3Q5C1WP23NNAGNOUR4EUKS4CPOW15I","A1BM57TUNAQIXM","3UDTAB6HH6LRO17U79I9TKUGYFV09C","","null","<img src=""img/food3.png"" style=""width:200px; border:14px solid green;"">","null","","","","","","","","","",""
"","image-keyboard-response","124","91720","0.0-183.0","3Q5C1WP23NNAGNOUR4EUKS4CPOW15I","A1BM57TUNAQIXM","3UDTAB6HH6LRO17U79I9TKUGYFV09C","","456.40000000596046","img/food4.png","75","458.40000000596046","2","1","false","1","2","1,0.5,0,1,0.5,0,0.5,0,1","0,1,0.5,0,1,0.5,1,0.5,0","3",""
"","html-keyboard-response","125","92024","0.0-184.0","3Q5C1WP23NNAGNOUR4EUKS4CPOW15I","A1BM57TUNAQIXM","3UDTAB6HH6LRO17U79I9TKUGYFV09C","","null","<img src=""img/food4.png"" style=""width:200px; border:14px solid green;"">","null","","","","","","","","","",""
"","image-keyboard-response","126","92615","0.0-186.0","3Q5C1WP23NNAGNOUR4EUKS4CPOW15I","A1BM57TUNAQIXM","3UDTAB6HH6LRO17U79I9TKUGYFV09C","","588.5999999940395","img/food3.png","75","590.0999999940395","2","1","false","3","2","1,0.5,0,1,0.5,0,0.5,0,1","0,1,0.5,0,1,0.5,1,0.5,0","3",""
"","html-keyboard-response","127","92916","0.0-187.0","3Q5C1WP23NNAGNOUR4EUKS4CPOW15I","A1BM57TUNAQIXM","3UDTAB6HH6LRO17U79I9TKUGYFV09C","","null","<img src=""img/food3.png"" style=""width:200px; border:14px solid green;"">","null","","","","","","","","","",""
"","image-keyboard-response","128","93572","0.0-189.0","3Q5C1WP23NNAGNOUR4EUKS4CPOW15I","A1BM57TUNAQIXM","3UDTAB6HH6LRO17U79I9TKUGYFV09C","","653.0999999940395","img/food2.png","75","655.4000000059605","2","1","false","2","2","1,0.5,0,1,0.5,0,0.5,0,1","0,1,0.5,0,1,0.5,1,0.5,0","3",""
"","html-keyboard-response","129","93875","0.0-190.0","3Q5C1WP23NNAGNOUR4EUKS4CPOW15I","A1BM57TUNAQIXM","3UDTAB6HH6LRO17U79I9TKUGYFV09C","","null","<img src=""img/food2.png"" style=""width:200px; border:14px solid green;"">","null","","","","","","","","","",""
"","image-keyboard-response","130","94379","0.0-192.0","3Q5C1WP23NNAGNOUR4EUKS4CPOW15I","A1BM57TUNAQIXM","3UDTAB6HH6LRO17U79I9TKUGYFV09C","","501.19999998807907","img/food4.png","76","502.70000000298023","3","0","false","1","2","1,0.5,0,1,0.5,0,0.5,0,1","0,1,0.5,0,1,0.5,1,0.5,0","3",""
"","html-keyboard-response","131","94681","0.0-193.0","3Q5C1WP23NNAGNOUR4EUKS4CPOW15I","A1BM57TUNAQIXM","3UDTAB6HH6LRO17U79I9TKUGYFV09C","","null","<img src=""img/food4.png"" style=""width:200px;border:14px solid red;"">","null","","","","","","","","","",""
"","image-keyboard-response","132","95488","0.0-195.0","3Q5C1WP23NNAGNOUR4EUKS4CPOW15I","A1BM57TUNAQIXM","3UDTAB6HH6LRO17U79I9TKUGYFV09C","","804.0999999940395","img/food2.png","75","806.2000000029802","2","1","false","2","2","1,0.5,0,1,0.5,0,0.5,0,1","0,1,0.5,0,1,0.5,1,0.5,0","3",""
"","html-keyboard-response","133","95791","0.0-196.0","3Q5C1WP23NNAGNOUR4EUKS4CPOW15I","A1BM57TUNAQIXM","3UDTAB6HH6LRO17U79I9TKUGYFV09C","","null","<img src=""img/food2.png"" style=""width:200px; border:14px solid green;"">","null","","","","","","","","","",""
"","image-keyboard-response","134","96330","0.0-198.0","3Q5C1WP23NNAGNOUR4EUKS4CPOW15I","A1BM57TUNAQIXM","3UDTAB6HH6LRO17U79I9TKUGYFV09C","","536.8999999910593","img/food3.png","74","538.8999999910593","1","1","false","3","2","1,0.5,0,1,0.5,0,0.5,0,1","0,1,0.5,0,1,0.5,1,0.5,0","3",""
"","html-keyboard-response","135","96633","0.0-199.0","3Q5C1WP23NNAGNOUR4EUKS4CPOW15I","A1BM57TUNAQIXM","3UDTAB6HH6LRO17U79I9TKUGYFV09C","","null","<img src=""img/food3.png"" style=""width:200px; border:14px solid green;"">","null","","","","","","","","","",""
"","image-keyboard-response","136","97061","0.0-201.0","3Q5C1WP23NNAGNOUR4EUKS4CPOW15I","A1BM57TUNAQIXM","3UDTAB6HH6LRO17U79I9TKUGYFV09C","","426.59999999403954","img/food2.png","76","427.90000000596046","3","0","false","2","2","1,0.5,0,1,0.5,0,0.5,0,1","0,1,0.5,0,1,0.5,1,0.5,0","3",""
"","html-keyboard-response","137","97363","0.0-202.0","3Q5C1WP23NNAGNOUR4EUKS4CPOW15I","A1BM57TUNAQIXM","3UDTAB6HH6LRO17U79I9TKUGYFV09C","","null","<img src=""img/food2.png"" style=""width:200px;border:14px solid red;"">","null","","","","","","","","","",""
"","image-keyboard-response","138","97750","0.0-204.0","3Q5C1WP23NNAGNOUR4EUKS4CPOW15I","A1BM57TUNAQIXM","3UDTAB6HH6LRO17U79I9TKUGYFV09C","","385.29999999701977","img/food3.png","75","386.40000000596046","2","0","false","3","2","1,0.5,0,1,0.5,0,0.5,0,1","0,1,0.5,0,1,0.5,1,0.5,0","3",""
"","html-keyboard-response","139","98052","0.0-205.0","3Q5C1WP23NNAGNOUR4EUKS4CPOW15I","A1BM57TUNAQIXM","3UDTAB6HH6LRO17U79I9TKUGYFV09C","","null","<img src=""img/food3.png"" style=""width:200px;border:14px solid red;"">","null","","","","","","","","","",""
"","image-keyboard-response","140","98425","0.0-207.0","3Q5C1WP23NNAGNOUR4EUKS4CPOW15I","A1BM57TUNAQIXM","3UDTAB6HH6LRO17U79I9TKUGYFV09C","","370.6000000089407","img/food3.png","75","372.5","2","0","false","3","2","1,0.5,0,1,0.5,0,0.5,0,1","0,1,0.5,0,1,0.5,1,0.5,0","3",""
"","html-keyboard-response","141","98729","0.0-208.0","3Q5C1WP23NNAGNOUR4EUKS4CPOW15I","A1BM57TUNAQIXM","3UDTAB6HH6LRO17U79I9TKUGYFV09C","","null","<img src=""img/food3.png"" style=""width:200px;border:14px solid red;"">","null","","","","","","","","","",""
"","image-keyboard-response","142","99551","0.0-210.0","3Q5C1WP23NNAGNOUR4EUKS4CPOW15I","A1BM57TUNAQIXM","3UDTAB6HH6LRO17U79I9TKUGYFV09C","","820.0999999940395","img/food2.png","74","821.3000000119209","1","0","false","2","2","1,0.5,0,1,0.5,0,0.5,0,1","0,1,0.5,0,1,0.5,1,0.5,0","3",""
"","html-keyboard-response","143","99853","0.0-211.0","3Q5C1WP23NNAGNOUR4EUKS4CPOW15I","A1BM57TUNAQIXM","3UDTAB6HH6LRO17U79I9TKUGYFV09C","","null","<img src=""img/food2.png"" style=""width:200px;border:14px solid red;"">","null","","","","","","","","","",""
"","image-keyboard-response","144","100384","0.0-213.0","3Q5C1WP23NNAGNOUR4EUKS4CPOW15I","A1BM57TUNAQIXM","3UDTAB6HH6LRO17U79I9TKUGYFV09C","","528.2999999970198","img/food4.png","76","529.6999999880791","3","1","false","1","2","1,0.5,0,1,0.5,0,0.5,0,1","0,1,0.5,0,1,0.5,1,0.5,0","3",""
"","html-keyboard-response","145","100698","0.0-214.0","3Q5C1WP23NNAGNOUR4EUKS4CPOW15I","A1BM57TUNAQIXM","3UDTAB6HH6LRO17U79I9TKUGYFV09C","","null","<img src=""img/food4.png"" style=""width:200px; border:14px solid green;"">","null","","","","","","","","","",""
"","image-keyboard-response","146","101431","0.0-216.0","3Q5C1WP23NNAGNOUR4EUKS4CPOW15I","A1BM57TUNAQIXM","3UDTAB6HH6LRO17U79I9TKUGYFV09C","","731.7999999970198","img/food3.png","74","732.9000000059605","1","1","false","3","2","1,0.5,0,1,0.5,0,0.5,0,1","0,1,0.5,0,1,0.5,1,0.5,0","3",""
"","html-keyboard-response","147","101733","0.0-217.0","3Q5C1WP23NNAGNOUR4EUKS4CPOW15I","A1BM57TUNAQIXM","3UDTAB6HH6LRO17U79I9TKUGYFV09C","","null","<img src=""img/food3.png"" style=""width:200px; border:14px solid green;"">","null","","","","","","","","","",""
"","image-keyboard-response","148","102104","0.0-219.0","3Q5C1WP23NNAGNOUR4EUKS4CPOW15I","A1BM57TUNAQIXM","3UDTAB6HH6LRO17U79I9TKUGYFV09C","","368.40000000596046","img/food2.png","75","370.09999999403954","2","1","false","2","2","1,0.5,0,1,0.5,0,0.5,0,1","0,1,0.5,0,1,0.5,1,0.5,0","3",""
"","html-keyboard-response","149","102405","0.0-220.0","3Q5C1WP23NNAGNOUR4EUKS4CPOW15I","A1BM57TUNAQIXM","3UDTAB6HH6LRO17U79I9TKUGYFV09C","","null","<img src=""img/food2.png"" style=""width:200px; border:14px solid green;"">","null","","","","","","","","","",""
"","image-keyboard-response","150","102747","0.0-222.0","3Q5C1WP23NNAGNOUR4EUKS4CPOW15I","A1BM57TUNAQIXM","3UDTAB6HH6LRO17U79I9TKUGYFV09C","","340.70000000298023","img/food2.png","75","341.8999999910593","2","1","false","2","2","1,0.5,0,1,0.5,0,0.5,0,1","0,1,0.5,0,1,0.5,1,0.5,0","3",""
"","html-keyboard-response","151","103051","0.0-223.0","3Q5C1WP23NNAGNOUR4EUKS4CPOW15I","A1BM57TUNAQIXM","3UDTAB6HH6LRO17U79I9TKUGYFV09C","","null","<img src=""img/food2.png"" style=""width:200px; border:14px solid green;"">","null","","","","","","","","","",""
"","image-keyboard-response","152","103543","0.0-225.0","3Q5C1WP23NNAGNOUR4EUKS4CPOW15I","A1BM57TUNAQIXM","3UDTAB6HH6LRO17U79I9TKUGYFV09C","","488.79999999701977","img/food4.png","76","491.20000000298023","3","0","false","1","2","1,0.5,0,1,0.5,0,0.5,0,1","0,1,0.5,0,1,0.5,1,0.5,0","3",""
"","html-keyboard-response","153","103846","0.0-226.0","3Q5C1WP23NNAGNOUR4EUKS4CPOW15I","A1BM57TUNAQIXM","3UDTAB6HH6LRO17U79I9TKUGYFV09C","","null","<img src=""img/food4.png"" style=""width:200px;border:14px solid red;"">","null","","","","","","","","","",""
"","image-keyboard-response","154","104206","0.0-228.0","3Q5C1WP23NNAGNOUR4EUKS4CPOW15I","A1BM57TUNAQIXM","3UDTAB6HH6LRO17U79I9TKUGYFV09C","","356.90000000596046","img/food4.png","76","358.69999998807907","3","1","false","1","2","1,0.5,0,1,0.5,0,0.5,0,1","0,1,0.5,0,1,0.5,1,0.5,0","3",""
"","html-keyboard-response","155","104510","0.0-229.0","3Q5C1WP23NNAGNOUR4EUKS4CPOW15I","A1BM57TUNAQIXM","3UDTAB6HH6LRO17U79I9TKUGYFV09C","","null","<img src=""img/food4.png"" style=""width:200px; border:14px solid green;"">","null","","","","","","","","","",""
"","image-keyboard-response","156","105375","0.0-231.0","3Q5C1WP23NNAGNOUR4EUKS4CPOW15I","A1BM57TUNAQIXM","3UDTAB6HH6LRO17U79I9TKUGYFV09C","","864.5","img/food3.png","74","865.2000000029802","1","1","false","3","2","1,0.5,0,1,0.5,0,0.5,0,1","0,1,0.5,0,1,0.5,1,0.5,0","3",""
"","html-keyboard-response","157","105677","0.0-232.0","3Q5C1WP23NNAGNOUR4EUKS4CPOW15I","A1BM57TUNAQIXM","3UDTAB6HH6LRO17U79I9TKUGYFV09C","","null","<img src=""img/food3.png"" style=""width:200px; border:14px solid green;"">","null","","","","","","","","","",""
"","image-keyboard-response","158","106051","0.0-234.0","3Q5C1WP23NNAGNOUR4EUKS4CPOW15I","A1BM57TUNAQIXM","3UDTAB6HH6LRO17U79I9TKUGYFV09C","","371.79999999701977","img/food3.png","74","373.6000000089407","1","1","false","3","2","1,0.5,0,1,0.5,0,0.5,0,1","0,1,0.5,0,1,0.5,1,0.5,0","3",""
"","html-keyboard-response","159","106354","0.0-235.0","3Q5C1WP23NNAGNOUR4EUKS4CPOW15I","A1BM57TUNAQIXM","3UDTAB6HH6LRO17U79I9TKUGYFV09C","","null","<img src=""img/food3.png"" style=""width:200px; border:14px solid green;"">","null","","","","","","","","","",""
"","image-keyboard-response","160","106808","0.0-237.0","3Q5C1WP23NNAGNOUR4EUKS4CPOW15I","A1BM57TUNAQIXM","3UDTAB6HH6LRO17U79I9TKUGYFV09C","","452.1000000089407","img/food4.png","75","453.30000001192093","2","1","false","1","2","1,0.5,0,1,0.5,0,0.5,0,1","0,1,0.5,0,1,0.5,1,0.5,0","3",""
"","html-keyboard-response","161","107111","0.0-238.0","3Q5C1WP23NNAGNOUR4EUKS4CPOW15I","A1BM57TUNAQIXM","3UDTAB6HH6LRO17U79I9TKUGYFV09C","","null","<img src=""img/food4.png"" style=""width:200px; border:14px solid green;"">","null","","","","","","","","","",""
"","image-keyboard-response","162","107406","0.0-240.0","3Q5C1WP23NNAGNOUR4EUKS4CPOW15I","A1BM57TUNAQIXM","3UDTAB6HH6LRO17U79I9TKUGYFV09C","","293.30000001192093","img/food4.png","76","294.70000000298023","3","0","false","1","2","1,0.5,0,1,0.5,0,0.5,0,1","0,1,0.5,0,1,0.5,1,0.5,0","3",""
"","html-keyboard-response","163","107709","0.0-241.0","3Q5C1WP23NNAGNOUR4EUKS4CPOW15I","A1BM57TUNAQIXM","3UDTAB6HH6LRO17U79I9TKUGYFV09C","","null","<img src=""img/food4.png"" style=""width:200px;border:14px solid red;"">","null","","","","","","","","","",""
"","image-keyboard-response","164","107938","0.0-243.0","3Q5C1WP23NNAGNOUR4EUKS4CPOW15I","A1BM57TUNAQIXM","3UDTAB6HH6LRO17U79I9TKUGYFV09C","","226.3999999910593","img/food3.png","76","228.1000000089407","3","0","false","3","2","1,0.5,0,1,0.5,0,0.5,0,1","0,1,0.5,0,1,0.5,1,0.5,0","3",""
"","html-keyboard-response","165","108242","0.0-244.0","3Q5C1WP23NNAGNOUR4EUKS4CPOW15I","A1BM57TUNAQIXM","3UDTAB6HH6LRO17U79I9TKUGYFV09C","","null","<img src=""img/food3.png"" style=""width:200px;border:14px solid red;"">","null","","","","","","","","","",""
"","image-keyboard-response","166","108819","0.0-246.0","3Q5C1WP23NNAGNOUR4EUKS4CPOW15I","A1BM57TUNAQIXM","3UDTAB6HH6LRO17U79I9TKUGYFV09C","","575","img/food4.png","76","576.4000000059605","3","1","false","1","2","1,0.5,0,1,0.5,0,0.5,0,1","0,1,0.5,0,1,0.5,1,0.5,0","3",""
"","html-keyboard-response","167","109121","0.0-247.0","3Q5C1WP23NNAGNOUR4EUKS4CPOW15I","A1BM57TUNAQIXM","3UDTAB6HH6LRO17U79I9TKUGYFV09C","","null","<img src=""img/food4.png"" style=""width:200px; border:14px solid green;"">","null","","","","","","","","","",""
"","image-keyboard-response","168","109515","0.0-249.0","3Q5C1WP23NNAGNOUR4EUKS4CPOW15I","A1BM57TUNAQIXM","3UDTAB6HH6LRO17U79I9TKUGYFV09C","","391","img/food4.png","76","392.90000000596046","3","0","false","1","2","1,0.5,0,1,0.5,0,0.5,0,1","0,1,0.5,0,1,0.5,1,0.5,0","3",""
"","html-keyboard-response","169","109819","0.0-250.0","3Q5C1WP23NNAGNOUR4EUKS4CPOW15I","A1BM57TUNAQIXM","3UDTAB6HH6LRO17U79I9TKUGYFV09C","","null","<img src=""img/food4.png"" style=""width:200px;border:14px solid red;"">","null","","","","","","","","","",""
"","image-keyboard-response","170","110410","0.0-252.0","3Q5C1WP23NNAGNOUR4EUKS4CPOW15I","A1BM57TUNAQIXM","3UDTAB6HH6LRO17U79I9TKUGYFV09C","","589.5","img/food2.png","75","590.9000000059605","2","1","false","2","2","1,0.5,0,1,0.5,0,0.5,0,1","0,1,0.5,0,1,0.5,1,0.5,0","3",""
"","html-keyboard-response","171","110712","0.0-253.0","3Q5C1WP23NNAGNOUR4EUKS4CPOW15I","A1BM57TUNAQIXM","3UDTAB6HH6LRO17U79I9TKUGYFV09C","","null","<img src=""img/food2.png"" style=""width:200px; border:14px solid green;"">","null","","","","","","","","","",""
"","image-keyboard-response","172","111020","0.0-255.0","3Q5C1WP23NNAGNOUR4EUKS4CPOW15I","A1BM57TUNAQIXM","3UDTAB6HH6LRO17U79I9TKUGYFV09C","","305.40000000596046","img/food2.png","75","307.09999999403954","2","1","false","2","2","1,0.5,0,1,0.5,0,0.5,0,1","0,1,0.5,0,1,0.5,1,0.5,0","3",""
"","html-keyboard-response","173","111325","0.0-256.0","3Q5C1WP23NNAGNOUR4EUKS4CPOW15I","A1BM57TUNAQIXM","3UDTAB6HH6LRO17U79I9TKUGYFV09C","","null","<img src=""img/food2.png"" style=""width:200px; border:14px solid green;"">","null","","","","","","","","","",""
"","image-keyboard-response","174","111898","0.0-258.0","3Q5C1WP23NNAGNOUR4EUKS4CPOW15I","A1BM57TUNAQIXM","3UDTAB6HH6LRO17U79I9TKUGYFV09C","","572","img/food4.png","76","573.2999999970198","3","0","false","1","2","1,0.5,0,1,0.5,0,0.5,0,1","0,1,0.5,0,1,0.5,1,0.5,0","3",""
"","html-keyboard-response","175","112201","0.0-259.0","3Q5C1WP23NNAGNOUR4EUKS4CPOW15I","A1BM57TUNAQIXM","3UDTAB6HH6LRO17U79I9TKUGYFV09C","","null","<img src=""img/food4.png"" style=""width:200px;border:14px solid red;"">","null","","","","","","","","","",""
"","image-keyboard-response","176","112549","0.0-261.0","3Q5C1WP23NNAGNOUR4EUKS4CPOW15I","A1BM57TUNAQIXM","3UDTAB6HH6LRO17U79I9TKUGYFV09C","","345.80000001192093","img/food4.png","76","347.59999999403954","3","0","false","1","2","1,0.5,0,1,0.5,0,0.5,0,1","0,1,0.5,0,1,0.5,1,0.5,0","3",""
"","html-keyboard-response","177","112852","0.0-262.0","3Q5C1WP23NNAGNOUR4EUKS4CPOW15I","A1BM57TUNAQIXM","3UDTAB6HH6LRO17U79I9TKUGYFV09C","","null","<img src=""img/food4.png"" style=""width:200px;border:14px solid red;"">","null","","","","","","","","","",""
"","image-keyboard-response","178","113487","0.0-264.0","3Q5C1WP23NNAGNOUR4EUKS4CPOW15I","A1BM57TUNAQIXM","3UDTAB6HH6LRO17U79I9TKUGYFV09C","","633.0999999940395","img/food2.png","75","634.5","2","1","false","2","2","1,0.5,0,1,0.5,0,0.5,0,1","0,1,0.5,0,1,0.5,1,0.5,0","3",""
"","html-keyboard-response","179","113790","0.0-265.0","3Q5C1WP23NNAGNOUR4EUKS4CPOW15I","A1BM57TUNAQIXM","3UDTAB6HH6LRO17U79I9TKUGYFV09C","","null","<img src=""img/food2.png"" style=""width:200px; border:14px solid green;"">","null","","","","","","","","","",""
"","image-keyboard-response","180","114248","0.0-267.0","3Q5C1WP23NNAGNOUR4EUKS4CPOW15I","A1BM57TUNAQIXM","3UDTAB6HH6LRO17U79I9TKUGYFV09C","","456.59999999403954","img/food4.png","76","457.90000000596046","3","1","false","1","2","1,0.5,0,1,0.5,0,0.5,0,1","0,1,0.5,0,1,0.5,1,0.5,0","3",""
"","html-keyboard-response","181","114551","0.0-268.0","3Q5C1WP23NNAGNOUR4EUKS4CPOW15I","A1BM57TUNAQIXM","3UDTAB6HH6LRO17U79I9TKUGYFV09C","","null","<img src=""img/food4.png"" style=""width:200px; border:14px solid green;"">","null","","","","","","","","","",""
"","image-keyboard-response","182","114918","0.0-270.0","3Q5C1WP23NNAGNOUR4EUKS4CPOW15I","A1BM57TUNAQIXM","3UDTAB6HH6LRO17U79I9TKUGYFV09C","","364.90000000596046","img/food4.png","76","366.5","3","1","false","1","2","1,0.5,0,1,0.5,0,0.5,0,1","0,1,0.5,0,1,0.5,1,0.5,0","3",""
"","html-keyboard-response","183","115220","0.0-271.0","3Q5C1WP23NNAGNOUR4EUKS4CPOW15I","A1BM57TUNAQIXM","3UDTAB6HH6LRO17U79I9TKUGYFV09C","","null","<img src=""img/food4.png"" style=""width:200px; border:14px solid green;"">","null","","","","","","","","","",""
"","instructions","184","119369","0.0-273.0","3Q5C1WP23NNAGNOUR4EUKS4CPOW15I","A1BM57TUNAQIXM","3UDTAB6HH6LRO17U79I9TKUGYFV09C","[{""page_index"":0,""viewing_time"":3324.7999999970198},{""page_index"":1,""viewing_time"":823.3000000119209}]","4148.29999999702","","","","","","","","","","","",""
"","image-keyboard-response","185","120260","0.0-274.0","3Q5C1WP23NNAGNOUR4EUKS4CPOW15I","A1BM57TUNAQIXM","3UDTAB6HH6LRO17U79I9TKUGYFV09C","","890.2000000029802","img/food1.png","74","891.7999999970198","1","1","","3","1","1,0.5,0,1,0.5,0,0.5,0,1","0,1,0.5,0,1,0.5,1,0.5,0","3",""
"","html-keyboard-response","186","120565","0.0-275.0","3Q5C1WP23NNAGNOUR4EUKS4CPOW15I","A1BM57TUNAQIXM","3UDTAB6HH6LRO17U79I9TKUGYFV09C","","null","<img src=""img/food1.png"" style=""width:200px; border:14px solid green;"">","null","","","","","","","","","",""
"","image-keyboard-response","187","121070","0.0-276.0","3Q5C1WP23NNAGNOUR4EUKS4CPOW15I","A1BM57TUNAQIXM","3UDTAB6HH6LRO17U79I9TKUGYFV09C","","503.20000000298023","img/food6.png","75","505.1000000089407","2","1","","1","1","1,0.5,0,1,0.5,0,0.5,0,1","0,1,0.5,0,1,0.5,1,0.5,0","3",""
"","html-keyboard-response","188","121374","0.0-277.0","3Q5C1WP23NNAGNOUR4EUKS4CPOW15I","A1BM57TUNAQIXM","3UDTAB6HH6LRO17U79I9TKUGYFV09C","","null","<img src=""img/food6.png"" style=""width:200px; border:14px solid green;"">","null","","","","","","","","","",""
"","image-keyboard-response","189","121836","0.0-278.0","3Q5C1WP23NNAGNOUR4EUKS4CPOW15I","A1BM57TUNAQIXM","3UDTAB6HH6LRO17U79I9TKUGYFV09C","","460.59999999403954","img/food1.png","74","461.29999999701977","1","1","","3","1","1,0.5,0,1,0.5,0,0.5,0,1","0,1,0.5,0,1,0.5,1,0.5,0","3",""
"","html-keyboard-response","190","122139","0.0-279.0","3Q5C1WP23NNAGNOUR4EUKS4CPOW15I","A1BM57TUNAQIXM","3UDTAB6HH6LRO17U79I9TKUGYFV09C","","null","<img src=""img/food1.png"" style=""width:200px; border:14px solid green;"">","null","","","","","","","","","",""
"","image-keyboard-response","191","122669","0.0-280.0","3Q5C1WP23NNAGNOUR4EUKS4CPOW15I","A1BM57TUNAQIXM","3UDTAB6HH6LRO17U79I9TKUGYFV09C","","527.5999999940395","img/food5.png","76","529.6000000089407","3","0","","2","1","1,0.5,0,1,0.5,0,0.5,0,1","0,1,0.5,0,1,0.5,1,0.5,0","3",""
"","html-keyboard-response","192","122985","0.0-281.0","3Q5C1WP23NNAGNOUR4EUKS4CPOW15I","A1BM57TUNAQIXM","3UDTAB6HH6LRO17U79I9TKUGYFV09C","","null","<img src=""img/food5.png"" style=""width:200px;border:14px solid red;"">","null","","","","","","","","","",""
"","image-keyboard-response","193","123537","0.0-282.0","3Q5C1WP23NNAGNOUR4EUKS4CPOW15I","A1BM57TUNAQIXM","3UDTAB6HH6LRO17U79I9TKUGYFV09C","","549.4000000059605","img/food6.png","75","551.2999999970198","2","1","","1","1","1,0.5,0,1,0.5,0,0.5,0,1","0,1,0.5,0,1,0.5,1,0.5,0","3",""
"","html-keyboard-response","194","123840","0.0-283.0","3Q5C1WP23NNAGNOUR4EUKS4CPOW15I","A1BM57TUNAQIXM","3UDTAB6HH6LRO17U79I9TKUGYFV09C","","null","<img src=""img/food6.png"" style=""width:200px; border:14px solid green;"">","null","","","","","","","","","",""
"","image-keyboard-response","195","124276","0.0-284.0","3Q5C1WP23NNAGNOUR4EUKS4CPOW15I","A1BM57TUNAQIXM","3UDTAB6HH6LRO17U79I9TKUGYFV09C","","432.59999999403954","img/food1.png","74","434.70000000298023","1","1","","3","1","1,0.5,0,1,0.5,0,0.5,0,1","0,1,0.5,0,1,0.5,1,0.5,0","3",""
"","html-keyboard-response","196","124579","0.0-285.0","3Q5C1WP23NNAGNOUR4EUKS4CPOW15I","A1BM57TUNAQIXM","3UDTAB6HH6LRO17U79I9TKUGYFV09C","","null","<img src=""img/food1.png"" style=""width:200px; border:14px solid green;"">","null","","","","","","","","","",""
"","image-keyboard-response","197","125123","0.0-286.0","3Q5C1WP23NNAGNOUR4EUKS4CPOW15I","A1BM57TUNAQIXM","3UDTAB6HH6LRO17U79I9TKUGYFV09C","","542.5","img/food5.png","75","543.7999999970198","2","1","","2","1","1,0.5,0,1,0.5,0,0.5,0,1","0,1,0.5,0,1,0.5,1,0.5,0","3",""
"","html-keyboard-response","198","125435","0.0-287.0","3Q5C1WP23NNAGNOUR4EUKS4CPOW15I","A1BM57TUNAQIXM","3UDTAB6HH6LRO17U79I9TKUGYFV09C","","null","<img src=""img/food5.png"" style=""width:200px; border:14px solid green;"">","null","","","","","","","","","",""
"","image-keyboard-response","199","125977","0.0-288.0","3Q5C1WP23NNAGNOUR4EUKS4CPOW15I","A1BM57TUNAQIXM","3UDTAB6HH6LRO17U79I9TKUGYFV09C","","540.2000000029802","img/food6.png","76","541.6000000089407","3","1","","1","1","1,0.5,0,1,0.5,0,0.5,0,1","0,1,0.5,0,1,0.5,1,0.5,0","3",""
"","html-keyboard-response","200","126280","0.0-289.0","3Q5C1WP23NNAGNOUR4EUKS4CPOW15I","A1BM57TUNAQIXM","3UDTAB6HH6LRO17U79I9TKUGYFV09C","","null","<img src=""img/food6.png"" style=""width:200px; border:14px solid green;"">","null","","","","","","","","","",""
"","image-keyboard-response","201","126822","0.0-290.0","3Q5C1WP23NNAGNOUR4EUKS4CPOW15I","A1BM57TUNAQIXM","3UDTAB6HH6LRO17U79I9TKUGYFV09C","","539","img/food1.png","74","540.5999999940395","1","1","","3","1","1,0.5,0,1,0.5,0,0.5,0,1","0,1,0.5,0,1,0.5,1,0.5,0","3",""
"","html-keyboard-response","202","127124","0.0-291.0","3Q5C1WP23NNAGNOUR4EUKS4CPOW15I","A1BM57TUNAQIXM","3UDTAB6HH6LRO17U79I9TKUGYFV09C","","null","<img src=""img/food1.png"" style=""width:200px; border:14px solid green;"">","null","","","","","","","","","",""
"","image-keyboard-response","203","127655","0.0-292.0","3Q5C1WP23NNAGNOUR4EUKS4CPOW15I","A1BM57TUNAQIXM","3UDTAB6HH6LRO17U79I9TKUGYFV09C","","529.3999999910593","img/food6.png","75","531.0999999940395","2","1","","1","1","1,0.5,0,1,0.5,0,0.5,0,1","0,1,0.5,0,1,0.5,1,0.5,0","3",""
"","html-keyboard-response","204","127958","0.0-293.0","3Q5C1WP23NNAGNOUR4EUKS4CPOW15I","A1BM57TUNAQIXM","3UDTAB6HH6LRO17U79I9TKUGYFV09C","","null","<img src=""img/food6.png"" style=""width:200px; border:14px solid green;"">","null","","","","","","","","","",""
"","image-keyboard-response","205","128559","0.0-294.0","3Q5C1WP23NNAGNOUR4EUKS4CPOW15I","A1BM57TUNAQIXM","3UDTAB6HH6LRO17U79I9TKUGYFV09C","","598.5999999940395","img/food5.png","76","600.5","3","1","","2","1","1,0.5,0,1,0.5,0,0.5,0,1","0,1,0.5,0,1,0.5,1,0.5,0","3",""
"","html-keyboard-response","206","128862","0.0-295.0","3Q5C1WP23NNAGNOUR4EUKS4CPOW15I","A1BM57TUNAQIXM","3UDTAB6HH6LRO17U79I9TKUGYFV09C","","null","<img src=""img/food5.png"" style=""width:200px; border:14px solid green;"">","null","","","","","","","","","",""
"","image-keyboard-response","207","129485","0.0-296.0","3Q5C1WP23NNAGNOUR4EUKS4CPOW15I","A1BM57TUNAQIXM","3UDTAB6HH6LRO17U79I9TKUGYFV09C","","621","img/food1.png","74","622.5999999940395","1","1","","3","1","1,0.5,0,1,0.5,0,0.5,0,1","0,1,0.5,0,1,0.5,1,0.5,0","3",""
"","html-keyboard-response","208","129788","0.0-297.0","3Q5C1WP23NNAGNOUR4EUKS4CPOW15I","A1BM57TUNAQIXM","3UDTAB6HH6LRO17U79I9TKUGYFV09C","","null","<img src=""img/food1.png"" style=""width:200px; border:14px solid green;"">","null","","","","","","","","","",""
"","image-keyboard-response","209","130310","0.0-298.0","3Q5C1WP23NNAGNOUR4EUKS4CPOW15I","A1BM57TUNAQIXM","3UDTAB6HH6LRO17U79I9TKUGYFV09C","","519.2999999970198","img/food6.png","75","521.0999999940395","2","1","","1","1","1,0.5,0,1,0.5,0,0.5,0,1","0,1,0.5,0,1,0.5,1,0.5,0","3",""
"","html-keyboard-response","210","130612","0.0-299.0","3Q5C1WP23NNAGNOUR4EUKS4CPOW15I","A1BM57TUNAQIXM","3UDTAB6HH6LRO17U79I9TKUGYFV09C","","null","<img src=""img/food6.png"" style=""width:200px; border:14px solid green;"">","null","","","","","","","","","",""
"","image-keyboard-response","211","131098","0.0-300.0","3Q5C1WP23NNAGNOUR4EUKS4CPOW15I","A1BM57TUNAQIXM","3UDTAB6HH6LRO17U79I9TKUGYFV09C","","483.90000000596046","img/food1.png","74","485.20000000298023","1","1","","3","1","1,0.5,0,1,0.5,0,0.5,0,1","0,1,0.5,0,1,0.5,1,0.5,0","3",""
"","html-keyboard-response","212","131401","0.0-301.0","3Q5C1WP23NNAGNOUR4EUKS4CPOW15I","A1BM57TUNAQIXM","3UDTAB6HH6LRO17U79I9TKUGYFV09C","","null","<img src=""img/food1.png"" style=""width:200px; border:14px solid green;"">","null","","","","","","","","","",""
"","image-keyboard-response","213","131813","0.0-302.0","3Q5C1WP23NNAGNOUR4EUKS4CPOW15I","A1BM57TUNAQIXM","3UDTAB6HH6LRO17U79I9TKUGYFV09C","","411.90000000596046","img/food1.png","74","412.79999999701977","1","1","","3","1","1,0.5,0,1,0.5,0,0.5,0,1","0,1,0.5,0,1,0.5,1,0.5,0","3",""
"","html-keyboard-response","214","132118","0.0-303.0","3Q5C1WP23NNAGNOUR4EUKS4CPOW15I","A1BM57TUNAQIXM","3UDTAB6HH6LRO17U79I9TKUGYFV09C","","null","<img src=""img/food1.png"" style=""width:200px; border:14px solid green;"">","null","","","","","","","","","",""
"","image-keyboard-response","215","132621","0.0-304.0","3Q5C1WP23NNAGNOUR4EUKS4CPOW15I","A1BM57TUNAQIXM","3UDTAB6HH6LRO17U79I9TKUGYFV09C","","501.19999998807907","img/food5.png","75","502.5","2","1","","2","1","1,0.5,0,1,0.5,0,0.5,0,1","0,1,0.5,0,1,0.5,1,0.5,0","3",""
"","html-keyboard-response","216","132923","0.0-305.0","3Q5C1WP23NNAGNOUR4EUKS4CPOW15I","A1BM57TUNAQIXM","3UDTAB6HH6LRO17U79I9TKUGYFV09C","","null","<img src=""img/food5.png"" style=""width:200px; border:14px solid green;"">","null","","","","","","","","","",""
"","image-keyboard-response","217","133616","0.0-306.0","3Q5C1WP23NNAGNOUR4EUKS4CPOW15I","A1BM57TUNAQIXM","3UDTAB6HH6LRO17U79I9TKUGYFV09C","","691.0999999940395","img/food1.png","74","692.6000000089407","1","1","","3","1","1,0.5,0,1,0.5,0,0.5,0,1","0,1,0.5,0,1,0.5,1,0.5,0","3",""
"","html-keyboard-response","218","133918","0.0-307.0","3Q5C1WP23NNAGNOUR4EUKS4CPOW15I","A1BM57TUNAQIXM","3UDTAB6HH6LRO17U79I9TKUGYFV09C","","null","<img src=""img/food1.png"" style=""width:200px; border:14px solid green;"">","null","","","","","","","","","",""
"","image-keyboard-response","219","134514","0.0-308.0","3Q5C1WP23NNAGNOUR4EUKS4CPOW15I","A1BM57TUNAQIXM","3UDTAB6HH6LRO17U79I9TKUGYFV09C","","593.8000000119209","img/food1.png","75","595.5999999940395","2","0","","3","1","1,0.5,0,1,0.5,0,0.5,0,1","0,1,0.5,0,1,0.5,1,0.5,0","3",""
"","html-keyboard-response","220","134818","0.0-309.0","3Q5C1WP23NNAGNOUR4EUKS4CPOW15I","A1BM57TUNAQIXM","3UDTAB6HH6LRO17U79I9TKUGYFV09C","","null","<img src=""img/food1.png"" style=""width:200px;border:14px solid red;"">","null","","","","","","","","","",""
"","image-keyboard-response","221","135274","0.0-310.0","3Q5C1WP23NNAGNOUR4EUKS4CPOW15I","A1BM57TUNAQIXM","3UDTAB6HH6LRO17U79I9TKUGYFV09C","","453.6000000089407","img/food1.png","74","455.09999999403954","1","1","","3","1","1,0.5,0,1,0.5,0,0.5,0,1","0,1,0.5,0,1,0.5,1,0.5,0","3",""
"","html-keyboard-response","222","135576","0.0-311.0","3Q5C1WP23NNAGNOUR4EUKS4CPOW15I","A1BM57TUNAQIXM","3UDTAB6HH6LRO17U79I9TKUGYFV09C","","null","<img src=""img/food1.png"" style=""width:200px; border:14px solid green;"">","null","","","","","","","","","",""
"","image-keyboard-response","223","136203","0.0-312.0","3Q5C1WP23NNAGNOUR4EUKS4CPOW15I","A1BM57TUNAQIXM","3UDTAB6HH6LRO17U79I9TKUGYFV09C","","625.2000000029802","img/food5.png","76","626.5","3","0","","2","1","1,0.5,0,1,0.5,0,0.5,0,1","0,1,0.5,0,1,0.5,1,0.5,0","3",""
"","html-keyboard-response","224","136507","0.0-313.0","3Q5C1WP23NNAGNOUR4EUKS4CPOW15I","A1BM57TUNAQIXM","3UDTAB6HH6LRO17U79I9TKUGYFV09C","","null","<img src=""img/food5.png"" style=""width:200px;border:14px solid red;"">","null","","","","","","","","","",""
"","image-keyboard-response","225","137094","0.0-314.0","3Q5C1WP23NNAGNOUR4EUKS4CPOW15I","A1BM57TUNAQIXM","3UDTAB6HH6LRO17U79I9TKUGYFV09C","","585.0999999940395","img/food6.png","75","587.0999999940395","2","1","","1","1","1,0.5,0,1,0.5,0,0.5,0,1","0,1,0.5,0,1,0.5,1,0.5,0","3",""
"","html-keyboard-response","226","137398","0.0-315.0","3Q5C1WP23NNAGNOUR4EUKS4CPOW15I","A1BM57TUNAQIXM","3UDTAB6HH6LRO17U79I9TKUGYFV09C","","null","<img src=""img/food6.png"" style=""width:200px; border:14px solid green;"">","null","","","","","","","","","",""
"","image-keyboard-response","227","137920","0.0-316.0","3Q5C1WP23NNAGNOUR4EUKS4CPOW15I","A1BM57TUNAQIXM","3UDTAB6HH6LRO17U79I9TKUGYFV09C","","520","img/food1.png","74","522.2999999970198","1","1","","3","1","1,0.5,0,1,0.5,0,0.5,0,1","0,1,0.5,0,1,0.5,1,0.5,0","3",""
"","html-keyboard-response","228","138223","0.0-317.0","3Q5C1WP23NNAGNOUR4EUKS4CPOW15I","A1BM57TUNAQIXM","3UDTAB6HH6LRO17U79I9TKUGYFV09C","","null","<img src=""img/food1.png"" style=""width:200px; border:14px solid green;"">","null","","","","","","","","","",""
"","image-keyboard-response","229","139011","0.0-318.0","3Q5C1WP23NNAGNOUR4EUKS4CPOW15I","A1BM57TUNAQIXM","3UDTAB6HH6LRO17U79I9TKUGYFV09C","","785.7000000029802","img/food5.png","76","787.6000000089407","3","1","","2","1","1,0.5,0,1,0.5,0,0.5,0,1","0,1,0.5,0,1,0.5,1,0.5,0","3",""
"","html-keyboard-response","230","139315","0.0-319.0","3Q5C1WP23NNAGNOUR4EUKS4CPOW15I","A1BM57TUNAQIXM","3UDTAB6HH6LRO17U79I9TKUGYFV09C","","null","<img src=""img/food5.png"" style=""width:200px; border:14px solid green;"">","null","","","","","","","","","",""
"","image-keyboard-response","231","139697","0.0-320.0","3Q5C1WP23NNAGNOUR4EUKS4CPOW15I","A1BM57TUNAQIXM","3UDTAB6HH6LRO17U79I9TKUGYFV09C","","379.69999998807907","img/food5.png","76","381.8999999910593","3","0","","2","1","1,0.5,0,1,0.5,0,0.5,0,1","0,1,0.5,0,1,0.5,1,0.5,0","3",""
"","html-keyboard-response","232","140000","0.0-321.0","3Q5C1WP23NNAGNOUR4EUKS4CPOW15I","A1BM57TUNAQIXM","3UDTAB6HH6LRO17U79I9TKUGYFV09C","","null","<img src=""img/food5.png"" style=""width:200px;border:14px solid red;"">","null","","","","","","","","","",""
"","image-keyboard-response","233","140578","0.0-322.0","3Q5C1WP23NNAGNOUR4EUKS4CPOW15I","A1BM57TUNAQIXM","3UDTAB6HH6LRO17U79I9TKUGYFV09C","","575.0999999940395","img/food6.png","75","576.5","2","1","","1","1","1,0.5,0,1,0.5,0,0.5,0,1","0,1,0.5,0,1,0.5,1,0.5,0","3",""
"","html-keyboard-response","234","140880","0.0-323.0","3Q5C1WP23NNAGNOUR4EUKS4CPOW15I","A1BM57TUNAQIXM","3UDTAB6HH6LRO17U79I9TKUGYFV09C","","null","<img src=""img/food6.png"" style=""width:200px; border:14px solid green;"">","null","","","","","","","","","",""
"","image-keyboard-response","235","141490","0.0-324.0","3Q5C1WP23NNAGNOUR4EUKS4CPOW15I","A1BM57TUNAQIXM","3UDTAB6HH6LRO17U79I9TKUGYFV09C","","608.2000000029802","img/food6.png","74","609.5999999940395","1","0","","1","1","1,0.5,0,1,0.5,0,0.5,0,1","0,1,0.5,0,1,0.5,1,0.5,0","3",""
"","html-keyboard-response","236","141792","0.0-325.0","3Q5C1WP23NNAGNOUR4EUKS4CPOW15I","A1BM57TUNAQIXM","3UDTAB6HH6LRO17U79I9TKUGYFV09C","","null","<img src=""img/food6.png"" style=""width:200px;border:14px solid red;"">","null","","","","","","","","","",""
"","image-keyboard-response","237","142087","0.0-326.0","3Q5C1WP23NNAGNOUR4EUKS4CPOW15I","A1BM57TUNAQIXM","3UDTAB6HH6LRO17U79I9TKUGYFV09C","","293.70000000298023","img/food6.png","75","294.5","2","1","","1","1","1,0.5,0,1,0.5,0,0.5,0,1","0,1,0.5,0,1,0.5,1,0.5,0","3",""
"","html-keyboard-response","238","142388","0.0-327.0","3Q5C1WP23NNAGNOUR4EUKS4CPOW15I","A1BM57TUNAQIXM","3UDTAB6HH6LRO17U79I9TKUGYFV09C","","null","<img src=""img/food6.png"" style=""width:200px; border:14px solid green;"">","null","","","","","","","","","",""
"","image-keyboard-response","239","142810","0.0-328.0","3Q5C1WP23NNAGNOUR4EUKS4CPOW15I","A1BM57TUNAQIXM","3UDTAB6HH6LRO17U79I9TKUGYFV09C","","420.6000000089407","img/food6.png","75","421.59999999403954","2","1","","1","1","1,0.5,0,1,0.5,0,0.5,0,1","0,1,0.5,0,1,0.5,1,0.5,0","3",""
"","html-keyboard-response","240","143114","0.0-329.0","3Q5C1WP23NNAGNOUR4EUKS4CPOW15I","A1BM57TUNAQIXM","3UDTAB6HH6LRO17U79I9TKUGYFV09C","","null","<img src=""img/food6.png"" style=""width:200px; border:14px solid green;"">","null","","","","","","","","","",""
"","image-keyboard-response","241","143617","0.0-330.0","3Q5C1WP23NNAGNOUR4EUKS4CPOW15I","A1BM57TUNAQIXM","3UDTAB6HH6LRO17U79I9TKUGYFV09C","","502.90000000596046","img/food1.png","74","503.5","1","1","","3","1","1,0.5,0,1,0.5,0,0.5,0,1","0,1,0.5,0,1,0.5,1,0.5,0","3",""
"","html-keyboard-response","242","143919","0.0-331.0","3Q5C1WP23NNAGNOUR4EUKS4CPOW15I","A1BM57TUNAQIXM","3UDTAB6HH6LRO17U79I9TKUGYFV09C","","null","<img src=""img/food1.png"" style=""width:200px; border:14px solid green;"">","null","","","","","","","","","",""
"","image-keyboard-response","243","144243","0.0-332.0","3Q5C1WP23NNAGNOUR4EUKS4CPOW15I","A1BM57TUNAQIXM","3UDTAB6HH6LRO17U79I9TKUGYFV09C","","322","img/food1.png","74","323.69999998807907","1","1","","3","1","1,0.5,0,1,0.5,0,0.5,0,1","0,1,0.5,0,1,0.5,1,0.5,0","3",""
"","html-keyboard-response","244","144555","0.0-333.0","3Q5C1WP23NNAGNOUR4EUKS4CPOW15I","A1BM57TUNAQIXM","3UDTAB6HH6LRO17U79I9TKUGYFV09C","","null","<img src=""img/food1.png"" style=""width:200px; border:14px solid green;"">","null","","","","","","","","","",""
"","image-keyboard-response","245","145170","0.0-334.0","3Q5C1WP23NNAGNOUR4EUKS4CPOW15I","A1BM57TUNAQIXM","3UDTAB6HH6LRO17U79I9TKUGYFV09C","","613.4000000059605","img/food5.png","76","614.7999999970198","3","1","","2","1","1,0.5,0,1,0.5,0,0.5,0,1","0,1,0.5,0,1,0.5,1,0.5,0","3",""
"","html-keyboard-response","246","145473","0.0-335.0","3Q5C1WP23NNAGNOUR4EUKS4CPOW15I","A1BM57TUNAQIXM","3UDTAB6HH6LRO17U79I9TKUGYFV09C","","null","<img src=""img/food5.png"" style=""width:200px; border:14px solid green;"">","null","","","","","","","","","",""
"","image-keyboard-response","247","146077","0.0-336.0","3Q5C1WP23NNAGNOUR4EUKS4CPOW15I","A1BM57TUNAQIXM","3UDTAB6HH6LRO17U79I9TKUGYFV09C","","602.7999999970198","img/food1.png","75","603.7999999970198","2","0","","3","1","1,0.5,0,1,0.5,0,0.5,0,1","0,1,0.5,0,1,0.5,1,0.5,0","3",""
"","html-keyboard-response","248","146379","0.0-337.0","3Q5C1WP23NNAGNOUR4EUKS4CPOW15I","A1BM57TUNAQIXM","3UDTAB6HH6LRO17U79I9TKUGYFV09C","","null","<img src=""img/food1.png"" style=""width:200px;border:14px solid red;"">","null","","","","","","","","","",""
"","image-keyboard-response","249","147122","0.0-338.0","3Q5C1WP23NNAGNOUR4EUKS4CPOW15I","A1BM57TUNAQIXM","3UDTAB6HH6LRO17U79I9TKUGYFV09C","","742.5999999940395","img/food6.png","75","743.4000000059605","2","1","","1","1","1,0.5,0,1,0.5,0,0.5,0,1","0,1,0.5,0,1,0.5,1,0.5,0","3",""
"","html-keyboard-response","250","147425","0.0-339.0","3Q5C1WP23NNAGNOUR4EUKS4CPOW15I","A1BM57TUNAQIXM","3UDTAB6HH6LRO17U79I9TKUGYFV09C","","null","<img src=""img/food6.png"" style=""width:200px; border:14px solid green;"">","null","","","","","","","","","",""
"","image-keyboard-response","251","147823","0.0-340.0","3Q5C1WP23NNAGNOUR4EUKS4CPOW15I","A1BM57TUNAQIXM","3UDTAB6HH6LRO17U79I9TKUGYFV09C","","395.79999999701977","img/food6.png","75","397.29999999701977","2","1","","1","1","1,0.5,0,1,0.5,0,0.5,0,1","0,1,0.5,0,1,0.5,1,0.5,0","3",""
"","html-keyboard-response","252","148127","0.0-341.0","3Q5C1WP23NNAGNOUR4EUKS4CPOW15I","A1BM57TUNAQIXM","3UDTAB6HH6LRO17U79I9TKUGYFV09C","","null","<img src=""img/food6.png"" style=""width:200px; border:14px solid green;"">","null","","","","","","","","","",""
"","image-keyboard-response","253","148466","0.0-342.0","3Q5C1WP23NNAGNOUR4EUKS4CPOW15I","A1BM57TUNAQIXM","3UDTAB6HH6LRO17U79I9TKUGYFV09C","","336.79999999701977","img/food6.png","75","338.5","2","1","","1","1","1,0.5,0,1,0.5,0,0.5,0,1","0,1,0.5,0,1,0.5,1,0.5,0","3",""
"","html-keyboard-response","254","148768","0.0-343.0","3Q5C1WP23NNAGNOUR4EUKS4CPOW15I","A1BM57TUNAQIXM","3UDTAB6HH6LRO17U79I9TKUGYFV09C","","null","<img src=""img/food6.png"" style=""width:200px; border:14px solid green;"">","null","","","","","","","","","",""
"","image-keyboard-response","255","149131","0.0-344.0","3Q5C1WP23NNAGNOUR4EUKS4CPOW15I","A1BM57TUNAQIXM","3UDTAB6HH6LRO17U79I9TKUGYFV09C","","360.79999999701977","img/food6.png","75","362.09999999403954","2","1","","1","1","1,0.5,0,1,0.5,0,0.5,0,1","0,1,0.5,0,1,0.5,1,0.5,0","3",""
"","html-keyboard-response","256","149432","0.0-345.0","3Q5C1WP23NNAGNOUR4EUKS4CPOW15I","A1BM57TUNAQIXM","3UDTAB6HH6LRO17U79I9TKUGYFV09C","","null","<img src=""img/food6.png"" style=""width:200px; border:14px solid green;"">","null","","","","","","","","","",""
"","image-keyboard-response","257","149936","0.0-346.0","3Q5C1WP23NNAGNOUR4EUKS4CPOW15I","A1BM57TUNAQIXM","3UDTAB6HH6LRO17U79I9TKUGYFV09C","","501.1000000089407","img/food5.png","76","503","3","1","","2","1","1,0.5,0,1,0.5,0,0.5,0,1","0,1,0.5,0,1,0.5,1,0.5,0","3",""
"","html-keyboard-response","258","150239","0.0-347.0","3Q5C1WP23NNAGNOUR4EUKS4CPOW15I","A1BM57TUNAQIXM","3UDTAB6HH6LRO17U79I9TKUGYFV09C","","null","<img src=""img/food5.png"" style=""width:200px; border:14px solid green;"">","null","","","","","","","","","",""
"","image-keyboard-response","259","150965","0.0-348.0","3Q5C1WP23NNAGNOUR4EUKS4CPOW15I","A1BM57TUNAQIXM","3UDTAB6HH6LRO17U79I9TKUGYFV09C","","724.3000000119209","img/food6.png","75","725.7999999970198","2","1","","1","1","1,0.5,0,1,0.5,0,0.5,0,1","0,1,0.5,0,1,0.5,1,0.5,0","3",""
"","html-keyboard-response","260","151268","0.0-349.0","3Q5C1WP23NNAGNOUR4EUKS4CPOW15I","A1BM57TUNAQIXM","3UDTAB6HH6LRO17U79I9TKUGYFV09C","","null","<img src=""img/food6.png"" style=""width:200px; border:14px solid green;"">","null","","","","","","","","","",""
"","image-keyboard-response","261","151888","0.0-350.0","3Q5C1WP23NNAGNOUR4EUKS4CPOW15I","A1BM57TUNAQIXM","3UDTAB6HH6LRO17U79I9TKUGYFV09C","","617.5","img/food5.png","76","619.7999999970198","3","0","","2","1","1,0.5,0,1,0.5,0,0.5,0,1","0,1,0.5,0,1,0.5,1,0.5,0","3",""
"","html-keyboard-response","262","152191","0.0-351.0","3Q5C1WP23NNAGNOUR4EUKS4CPOW15I","A1BM57TUNAQIXM","3UDTAB6HH6LRO17U79I9TKUGYFV09C","","null","<img src=""img/food5.png"" style=""width:200px;border:14px solid red;"">","null","","","","","","","","","",""
"","image-keyboard-response","263","152907","0.0-352.0","3Q5C1WP23NNAGNOUR4EUKS4CPOW15I","A1BM57TUNAQIXM","3UDTAB6HH6LRO17U79I9TKUGYFV09C","","713.7000000029802","img/food5.png","76","715.2000000029802","3","1","","2","1","1,0.5,0,1,0.5,0,0.5,0,1","0,1,0.5,0,1,0.5,1,0.5,0","3",""
"","html-keyboard-response","264","153209","0.0-353.0","3Q5C1WP23NNAGNOUR4EUKS4CPOW15I","A1BM57TUNAQIXM","3UDTAB6HH6LRO17U79I9TKUGYFV09C","","null","<img src=""img/food5.png"" style=""width:200px; border:14px solid green;"">","null","","","","","","","","","",""
"","image-keyboard-response","265","153964","0.0-354.0","3Q5C1WP23NNAGNOUR4EUKS4CPOW15I","A1BM57TUNAQIXM","3UDTAB6HH6LRO17U79I9TKUGYFV09C","","752.1000000089407","img/food6.png","75","754","2","1","","1","1","1,0.5,0,1,0.5,0,0.5,0,1","0,1,0.5,0,1,0.5,1,0.5,0","3",""
"","html-keyboard-response","266","154268","0.0-355.0","3Q5C1WP23NNAGNOUR4EUKS4CPOW15I","A1BM57TUNAQIXM","3UDTAB6HH6LRO17U79I9TKUGYFV09C","","null","<img src=""img/food6.png"" style=""width:200px; border:14px solid green;"">","null","","","","","","","","","",""
"","image-keyboard-response","267","154616","0.0-356.0","3Q5C1WP23NNAGNOUR4EUKS4CPOW15I","A1BM57TUNAQIXM","3UDTAB6HH6LRO17U79I9TKUGYFV09C","","345.69999998807907","img/food6.png","75","347.09999999403954","2","1","","1","1","1,0.5,0,1,0.5,0,0.5,0,1","0,1,0.5,0,1,0.5,1,0.5,0","3",""
"","html-keyboard-response","268","154917","0.0-357.0","3Q5C1WP23NNAGNOUR4EUKS4CPOW15I","A1BM57TUNAQIXM","3UDTAB6HH6LRO17U79I9TKUGYFV09C","","null","<img src=""img/food6.png"" style=""width:200px; border:14px solid green;"">","null","","","","","","","","","",""
"","image-keyboard-response","269","155596","0.0-358.0","3Q5C1WP23NNAGNOUR4EUKS4CPOW15I","A1BM57TUNAQIXM","3UDTAB6HH6LRO17U79I9TKUGYFV09C","","677","img/food5.png","76","678.4000000059605","3","0","","2","1","1,0.5,0,1,0.5,0,0.5,0,1","0,1,0.5,0,1,0.5,1,0.5,0","3",""
"","html-keyboard-response","270","155898","0.0-359.0","3Q5C1WP23NNAGNOUR4EUKS4CPOW15I","A1BM57TUNAQIXM","3UDTAB6HH6LRO17U79I9TKUGYFV09C","","null","<img src=""img/food5.png"" style=""width:200px;border:14px solid red;"">","null","","","","","","","","","",""
"","image-keyboard-response","271","156408","0.0-360.0","3Q5C1WP23NNAGNOUR4EUKS4CPOW15I","A1BM57TUNAQIXM","3UDTAB6HH6LRO17U79I9TKUGYFV09C","","507.69999998807907","img/food6.png","75","510.90000000596046","2","1","","1","1","1,0.5,0,1,0.5,0,0.5,0,1","0,1,0.5,0,1,0.5,1,0.5,0","3",""
"","html-keyboard-response","272","156717","0.0-361.0","3Q5C1WP23NNAGNOUR4EUKS4CPOW15I","A1BM57TUNAQIXM","3UDTAB6HH6LRO17U79I9TKUGYFV09C","","null","<img src=""img/food6.png"" style=""width:200px; border:14px solid green;"">","null","","","","","","","","","",""
"","image-keyboard-response","273","157294","0.0-362.0","3Q5C1WP23NNAGNOUR4EUKS4CPOW15I","A1BM57TUNAQIXM","3UDTAB6HH6LRO17U79I9TKUGYFV09C","","574","img/food1.png","74","575.7999999970198","1","1","","3","1","1,0.5,0,1,0.5,0,0.5,0,1","0,1,0.5,0,1,0.5,1,0.5,0","3",""
"","html-keyboard-response","274","157596","0.0-363.0","3Q5C1WP23NNAGNOUR4EUKS4CPOW15I","A1BM57TUNAQIXM","3UDTAB6HH6LRO17U79I9TKUGYFV09C","","null","<img src=""img/food1.png"" style=""width:200px; border:14px solid green;"">","null","","","","","","","","","",""
"","image-keyboard-response","275","158162","0.0-364.0","3Q5C1WP23NNAGNOUR4EUKS4CPOW15I","A1BM57TUNAQIXM","3UDTAB6HH6LRO17U79I9TKUGYFV09C","","564.4000000059605","img/food5.png","76","566","3","0","","2","1","1,0.5,0,1,0.5,0,0.5,0,1","0,1,0.5,0,1,0.5,1,0.5,0","3",""
"","html-keyboard-response","276","158465","0.0-365.0","3Q5C1WP23NNAGNOUR4EUKS4CPOW15I","A1BM57TUNAQIXM","3UDTAB6HH6LRO17U79I9TKUGYFV09C","","null","<img src=""img/food5.png"" style=""width:200px;border:14px solid red;"">","null","","","","","","","","","",""
"","image-keyboard-response","277","158935","0.0-366.0","3Q5C1WP23NNAGNOUR4EUKS4CPOW15I","A1BM57TUNAQIXM","3UDTAB6HH6LRO17U79I9TKUGYFV09C","","467.5","img/food6.png","75","469.6000000089407","2","1","","1","1","1,0.5,0,1,0.5,0,0.5,0,1","0,1,0.5,0,1,0.5,1,0.5,0","3",""
"","html-keyboard-response","278","159249","0.0-367.0","3Q5C1WP23NNAGNOUR4EUKS4CPOW15I","A1BM57TUNAQIXM","3UDTAB6HH6LRO17U79I9TKUGYFV09C","","null","<img src=""img/food6.png"" style=""width:200px; border:14px solid green;"">","null","","","","","","","","","",""
"","image-keyboard-response","279","159801","0.0-368.0","3Q5C1WP23NNAGNOUR4EUKS4CPOW15I","A1BM57TUNAQIXM","3UDTAB6HH6LRO17U79I9TKUGYFV09C","","549.1999999880791","img/food5.png","76","551","3","0","","2","1","1,0.5,0,1,0.5,0,0.5,0,1","0,1,0.5,0,1,0.5,1,0.5,0","3",""
"","html-keyboard-response","280","160103","0.0-369.0","3Q5C1WP23NNAGNOUR4EUKS4CPOW15I","A1BM57TUNAQIXM","3UDTAB6HH6LRO17U79I9TKUGYFV09C","","null","<img src=""img/food5.png"" style=""width:200px;border:14px solid red;"">","null","","","","","","","","","",""
"","image-keyboard-response","281","160519","0.0-370.0","3Q5C1WP23NNAGNOUR4EUKS4CPOW15I","A1BM57TUNAQIXM","3UDTAB6HH6LRO17U79I9TKUGYFV09C","","415","img/food5.png","76","415.70000000298023","3","0","","2","1","1,0.5,0,1,0.5,0,0.5,0,1","0,1,0.5,0,1,0.5,1,0.5,0","3",""
"","html-keyboard-response","282","160821","0.0-371.0","3Q5C1WP23NNAGNOUR4EUKS4CPOW15I","A1BM57TUNAQIXM","3UDTAB6HH6LRO17U79I9TKUGYFV09C","","null","<img src=""img/food5.png"" style=""width:200px;border:14px solid red;"">","null","","","","","","","","","",""
"","image-keyboard-response","283","161337","0.0-372.0","3Q5C1WP23NNAGNOUR4EUKS4CPOW15I","A1BM57TUNAQIXM","3UDTAB6HH6LRO17U79I9TKUGYFV09C","","513.5999999940395","img/food5.png","75","515.2999999970198","2","1","","2","1","1,0.5,0,1,0.5,0,0.5,0,1","0,1,0.5,0,1,0.5,1,0.5,0","3",""
"","html-keyboard-response","284","161639","0.0-373.0","3Q5C1WP23NNAGNOUR4EUKS4CPOW15I","A1BM57TUNAQIXM","3UDTAB6HH6LRO17U79I9TKUGYFV09C","","null","<img src=""img/food5.png"" style=""width:200px; border:14px solid green;"">","null","","","","","","","","","",""
"","image-keyboard-response","285","162487","0.0-374.0","3Q5C1WP23NNAGNOUR4EUKS4CPOW15I","A1BM57TUNAQIXM","3UDTAB6HH6LRO17U79I9TKUGYFV09C","","846.8000000119209","img/food6.png","75","847.5999999940395","2","1","","1","1","1,0.5,0,1,0.5,0,0.5,0,1","0,1,0.5,0,1,0.5,1,0.5,0","3",""
"","html-keyboard-response","286","162789","0.0-375.0","3Q5C1WP23NNAGNOUR4EUKS4CPOW15I","A1BM57TUNAQIXM","3UDTAB6HH6LRO17U79I9TKUGYFV09C","","null","<img src=""img/food6.png"" style=""width:200px; border:14px solid green;"">","null","","","","","","","","","",""
"","image-keyboard-response","287","163448","0.0-376.0","3Q5C1WP23NNAGNOUR4EUKS4CPOW15I","A1BM57TUNAQIXM","3UDTAB6HH6LRO17U79I9TKUGYFV09C","","657.8000000119209","img/food1.png","74","658.5","1","1","","3","1","1,0.5,0,1,0.5,0,0.5,0,1","0,1,0.5,0,1,0.5,1,0.5,0","3",""
"","html-keyboard-response","288","163749","0.0-377.0","3Q5C1WP23NNAGNOUR4EUKS4CPOW15I","A1BM57TUNAQIXM","3UDTAB6HH6LRO17U79I9TKUGYFV09C","","null","<img src=""img/food1.png"" style=""width:200px; border:14px solid green;"">","null","","","","","","","","","",""
"","image-keyboard-response","289","164434","0.0-378.0","3Q5C1WP23NNAGNOUR4EUKS4CPOW15I","A1BM57TUNAQIXM","3UDTAB6HH6LRO17U79I9TKUGYFV09C","","682.7000000029802","img/food5.png","76","683.5999999940395","3","1","","2","1","1,0.5,0,1,0.5,0,0.5,0,1","0,1,0.5,0,1,0.5,1,0.5,0","3",""
"","html-keyboard-response","290","164735","0.0-379.0","3Q5C1WP23NNAGNOUR4EUKS4CPOW15I","A1BM57TUNAQIXM","3UDTAB6HH6LRO17U79I9TKUGYFV09C","","null","<img src=""img/food5.png"" style=""width:200px; border:14px solid green;"">","null","","","","","","","","","",""
"","image-keyboard-response","291","165280","0.0-380.0","3Q5C1WP23NNAGNOUR4EUKS4CPOW15I","A1BM57TUNAQIXM","3UDTAB6HH6LRO17U79I9TKUGYFV09C","","543","img/food1.png","74","544.4000000059605","1","1","","3","1","1,0.5,0,1,0.5,0,0.5,0,1","0,1,0.5,0,1,0.5,1,0.5,0","3",""
"","html-keyboard-response","292","165582","0.0-381.0","3Q5C1WP23NNAGNOUR4EUKS4CPOW15I","A1BM57TUNAQIXM","3UDTAB6HH6LRO17U79I9TKUGYFV09C","","null","<img src=""img/food1.png"" style=""width:200px; border:14px solid green;"">","null","","","","","","","","","",""
"","image-keyboard-response","293","166027","0.0-382.0","3Q5C1WP23NNAGNOUR4EUKS4CPOW15I","A1BM57TUNAQIXM","3UDTAB6HH6LRO17U79I9TKUGYFV09C","","444.29999999701977","img/food1.png","74","445.69999998807907","1","1","","3","1","1,0.5,0,1,0.5,0,0.5,0,1","0,1,0.5,0,1,0.5,1,0.5,0","3",""
"","html-keyboard-response","294","166332","0.0-383.0","3Q5C1WP23NNAGNOUR4EUKS4CPOW15I","A1BM57TUNAQIXM","3UDTAB6HH6LRO17U79I9TKUGYFV09C","","null","<img src=""img/food1.png"" style=""width:200px; border:14px solid green;"">","null","","","","","","","","","",""
"","image-keyboard-response","295","166721","0.0-384.0","3Q5C1WP23NNAGNOUR4EUKS4CPOW15I","A1BM57TUNAQIXM","3UDTAB6HH6LRO17U79I9TKUGYFV09C","","388.79999999701977","img/food6.png","75","389.59999999403954","2","1","","1","1","1,0.5,0,1,0.5,0,0.5,0,1","0,1,0.5,0,1,0.5,1,0.5,0","3",""
"","html-keyboard-response","296","167023","0.0-385.0","3Q5C1WP23NNAGNOUR4EUKS4CPOW15I","A1BM57TUNAQIXM","3UDTAB6HH6LRO17U79I9TKUGYFV09C","","null","<img src=""img/food6.png"" style=""width:200px; border:14px solid green;"">","null","","","","","","","","","",""
"","image-keyboard-response","297","167733","0.0-386.0","3Q5C1WP23NNAGNOUR4EUKS4CPOW15I","A1BM57TUNAQIXM","3UDTAB6HH6LRO17U79I9TKUGYFV09C","","707.2999999970198","img/food1.png","74","709.2999999970198","1","1","","3","1","1,0.5,0,1,0.5,0,0.5,0,1","0,1,0.5,0,1,0.5,1,0.5,0","3",""
"","html-keyboard-response","298","168037","0.0-387.0","3Q5C1WP23NNAGNOUR4EUKS4CPOW15I","A1BM57TUNAQIXM","3UDTAB6HH6LRO17U79I9TKUGYFV09C","","null","<img src=""img/food1.png"" style=""width:200px; border:14px solid green;"">","null","","","","","","","","","",""
"","image-keyboard-response","299","168572","0.0-388.0","3Q5C1WP23NNAGNOUR4EUKS4CPOW15I","A1BM57TUNAQIXM","3UDTAB6HH6LRO17U79I9TKUGYFV09C","","532.6000000089407","img/food5.png","76","534","3","1","","2","1","1,0.5,0,1,0.5,0,0.5,0,1","0,1,0.5,0,1,0.5,1,0.5,0","3",""
"","html-keyboard-response","300","168874","0.0-389.0","3Q5C1WP23NNAGNOUR4EUKS4CPOW15I","A1BM57TUNAQIXM","3UDTAB6HH6LRO17U79I9TKUGYFV09C","","null","<img src=""img/food5.png"" style=""width:200px; border:14px solid green;"">","null","","","","","","","","","",""
"","image-keyboard-response","301","169333","0.0-390.0","3Q5C1WP23NNAGNOUR4EUKS4CPOW15I","A1BM57TUNAQIXM","3UDTAB6HH6LRO17U79I9TKUGYFV09C","","456.79999999701977","img/food5.png","76","458.70000000298023","3","0","","2","1","1,0.5,0,1,0.5,0,0.5,0,1","0,1,0.5,0,1,0.5,1,0.5,0","3",""
"","html-keyboard-response","302","169636","0.0-391.0","3Q5C1WP23NNAGNOUR4EUKS4CPOW15I","A1BM57TUNAQIXM","3UDTAB6HH6LRO17U79I9TKUGYFV09C","","null","<img src=""img/food5.png"" style=""width:200px;border:14px solid red;"">","null","","","","","","","","","",""
"","image-keyboard-response","303","170292","0.0-392.0","3Q5C1WP23NNAGNOUR4EUKS4CPOW15I","A1BM57TUNAQIXM","3UDTAB6HH6LRO17U79I9TKUGYFV09C","","654.5","img/food5.png","76","655.7999999970198","3","0","","2","1","1,0.5,0,1,0.5,0,0.5,0,1","0,1,0.5,0,1,0.5,1,0.5,0","3",""
"","html-keyboard-response","304","170596","0.0-393.0","3Q5C1WP23NNAGNOUR4EUKS4CPOW15I","A1BM57TUNAQIXM","3UDTAB6HH6LRO17U79I9TKUGYFV09C","","null","<img src=""img/food5.png"" style=""width:200px;border:14px solid red;"">","null","","","","","","","","","",""
"","image-keyboard-response","305","171270","0.0-394.0","3Q5C1WP23NNAGNOUR4EUKS4CPOW15I","A1BM57TUNAQIXM","3UDTAB6HH6LRO17U79I9TKUGYFV09C","","672.2000000029802","img/food1.png","74","673.5","1","1","","3","1","1,0.5,0,1,0.5,0,0.5,0,1","0,1,0.5,0,1,0.5,1,0.5,0","3",""
"","html-keyboard-response","306","171572","0.0-395.0","3Q5C1WP23NNAGNOUR4EUKS4CPOW15I","A1BM57TUNAQIXM","3UDTAB6HH6LRO17U79I9TKUGYFV09C","","null","<img src=""img/food1.png"" style=""width:200px; border:14px solid green;"">","null","","","","","","","","","",""
"","image-keyboard-response","307","171993","0.0-396.0","3Q5C1WP23NNAGNOUR4EUKS4CPOW15I","A1BM57TUNAQIXM","3UDTAB6HH6LRO17U79I9TKUGYFV09C","","419.09999999403954","img/food6.png","75","420.40000000596046","2","1","","1","1","1,0.5,0,1,0.5,0,0.5,0,1","0,1,0.5,0,1,0.5,1,0.5,0","3",""
"","html-keyboard-response","308","172296","0.0-397.0","3Q5C1WP23NNAGNOUR4EUKS4CPOW15I","A1BM57TUNAQIXM","3UDTAB6HH6LRO17U79I9TKUGYFV09C","","null","<img src=""img/food6.png"" style=""width:200px; border:14px solid green;"">","null","","","","","","","","","",""
"","image-keyboard-response","309","172721","0.0-398.0","3Q5C1WP23NNAGNOUR4EUKS4CPOW15I","A1BM57TUNAQIXM","3UDTAB6HH6LRO17U79I9TKUGYFV09C","","422.5","img/food5.png","76","424.6000000089407","3","0","","2","1","1,0.5,0,1,0.5,0,0.5,0,1","0,1,0.5,0,1,0.5,1,0.5,0","3",""
"","html-keyboard-response","310","173024","0.0-399.0","3Q5C1WP23NNAGNOUR4EUKS4CPOW15I","A1BM57TUNAQIXM","3UDTAB6HH6LRO17U79I9TKUGYFV09C","","null","<img src=""img/food5.png"" style=""width:200px;border:14px solid red;"">","null","","","","","","","","","",""
"","image-keyboard-response","311","173643","0.0-400.0","3Q5C1WP23NNAGNOUR4EUKS4CPOW15I","A1BM57TUNAQIXM","3UDTAB6HH6LRO17U79I9TKUGYFV09C","","613.7000000029802","img/food1.png","74","615.2999999970198","1","1","","3","1","1,0.5,0,1,0.5,0,0.5,0,1","0,1,0.5,0,1,0.5,1,0.5,0","3",""
"","html-keyboard-response","312","173945","0.0-401.0","3Q5C1WP23NNAGNOUR4EUKS4CPOW15I","A1BM57TUNAQIXM","3UDTAB6HH6LRO17U79I9TKUGYFV09C","","null","<img src=""img/food1.png"" style=""width:200px; border:14px solid green;"">","null","","","","","","","","","",""
"","image-keyboard-response","313","174362","0.0-402.0","3Q5C1WP23NNAGNOUR4EUKS4CPOW15I","A1BM57TUNAQIXM","3UDTAB6HH6LRO17U79I9TKUGYFV09C","","415.40000000596046","img/food1.png","74","416.5","1","1","","3","1","1,0.5,0,1,0.5,0,0.5,0,1","0,1,0.5,0,1,0.5,1,0.5,0","3",""
"","html-keyboard-response","314","174665","0.0-403.0","3Q5C1WP23NNAGNOUR4EUKS4CPOW15I","A1BM57TUNAQIXM","3UDTAB6HH6LRO17U79I9TKUGYFV09C","","null","<img src=""img/food1.png"" style=""width:200px; border:14px solid green;"">","null","","","","","","","","","",""
"","image-keyboard-response","315","175263","0.0-404.0","3Q5C1WP23NNAGNOUR4EUKS4CPOW15I","A1BM57TUNAQIXM","3UDTAB6HH6LRO17U79I9TKUGYFV09C","","596.2999999970198","img/food5.png","76","597.5","3","1","","2","1","1,0.5,0,1,0.5,0,0.5,0,1","0,1,0.5,0,1,0.5,1,0.5,0","3",""
"","html-keyboard-response","316","175565","0.0-405.0","3Q5C1WP23NNAGNOUR4EUKS4CPOW15I","A1BM57TUNAQIXM","3UDTAB6HH6LRO17U79I9TKUGYFV09C","","null","<img src=""img/food5.png"" style=""width:200px; border:14px solid green;"">","null","","","","","","","","","",""
"","image-keyboard-response","317","176139","0.0-406.0","3Q5C1WP23NNAGNOUR4EUKS4CPOW15I","A1BM57TUNAQIXM","3UDTAB6HH6LRO17U79I9TKUGYFV09C","","571.4000000059605","img/food6.png","75","573.2000000029802","2","1","","1","1","1,0.5,0,1,0.5,0,0.5,0,1","0,1,0.5,0,1,0.5,1,0.5,0","3",""
"","html-keyboard-response","318","176442","0.0-407.0","3Q5C1WP23NNAGNOUR4EUKS4CPOW15I","A1BM57TUNAQIXM","3UDTAB6HH6LRO17U79I9TKUGYFV09C","","null","<img src=""img/food6.png"" style=""width:200px; border:14px solid green;"">","null","","","","","","","","","",""
"","image-keyboard-response","319","176983","0.0-408.0","3Q5C1WP23NNAGNOUR4EUKS4CPOW15I","A1BM57TUNAQIXM","3UDTAB6HH6LRO17U79I9TKUGYFV09C","","539.2999999970198","img/food5.png","76","540.7999999970198","3","1","","2","1","1,0.5,0,1,0.5,0,0.5,0,1","0,1,0.5,0,1,0.5,1,0.5,0","3",""
"","html-keyboard-response","320","177287","0.0-409.0","3Q5C1WP23NNAGNOUR4EUKS4CPOW15I","A1BM57TUNAQIXM","3UDTAB6HH6LRO17U79I9TKUGYFV09C","","null","<img src=""img/food5.png"" style=""width:200px; border:14px solid green;"">","null","","","","","","","","","",""
"","image-keyboard-response","321","177861","0.0-410.0","3Q5C1WP23NNAGNOUR4EUKS4CPOW15I","A1BM57TUNAQIXM","3UDTAB6HH6LRO17U79I9TKUGYFV09C","","571.5","img/food1.png","74","573.2999999970198","1","1","","3","1","1,0.5,0,1,0.5,0,0.5,0,1","0,1,0.5,0,1,0.5,1,0.5,0","3",""
"","html-keyboard-response","322","178164","0.0-411.0","3Q5C1WP23NNAGNOUR4EUKS4CPOW15I","A1BM57TUNAQIXM","3UDTAB6HH6LRO17U79I9TKUGYFV09C","","null","<img src=""img/food1.png"" style=""width:200px; border:14px solid green;"">","null","","","","","","","","","",""
"","image-keyboard-response","323","178596","0.0-412.0","3Q5C1WP23NNAGNOUR4EUKS4CPOW15I","A1BM57TUNAQIXM","3UDTAB6HH6LRO17U79I9TKUGYFV09C","","429.20000000298023","img/food1.png","74","430.59999999403954","1","1","","3","1","1,0.5,0,1,0.5,0,0.5,0,1","0,1,0.5,0,1,0.5,1,0.5,0","3",""
"","html-keyboard-response","324","178898","0.0-413.0","3Q5C1WP23NNAGNOUR4EUKS4CPOW15I","A1BM57TUNAQIXM","3UDTAB6HH6LRO17U79I9TKUGYFV09C","","null","<img src=""img/food1.png"" style=""width:200px; border:14px solid green;"">","null","","","","","","","","","",""
"","image-keyboard-response","325","179305","0.0-414.0","3Q5C1WP23NNAGNOUR4EUKS4CPOW15I","A1BM57TUNAQIXM","3UDTAB6HH6LRO17U79I9TKUGYFV09C","","404.70000000298023","img/food1.png","74","406.09999999403954","1","1","","3","1","1,0.5,0,1,0.5,0,0.5,0,1","0,1,0.5,0,1,0.5,1,0.5,0","3",""
"","html-keyboard-response","326","179608","0.0-415.0","3Q5C1WP23NNAGNOUR4EUKS4CPOW15I","A1BM57TUNAQIXM","3UDTAB6HH6LRO17U79I9TKUGYFV09C","","null","<img src=""img/food1.png"" style=""width:200px; border:14px solid green;"">","null","","","","","","","","","",""
"","image-keyboard-response","327","180104","0.0-416.0","3Q5C1WP23NNAGNOUR4EUKS4CPOW15I","A1BM57TUNAQIXM","3UDTAB6HH6LRO17U79I9TKUGYFV09C","","495.59999999403954","img/food6.png","75","496.29999999701977","2","1","","1","1","1,0.5,0,1,0.5,0,0.5,0,1","0,1,0.5,0,1,0.5,1,0.5,0","3",""
"","html-keyboard-response","328","180407","0.0-417.0","3Q5C1WP23NNAGNOUR4EUKS4CPOW15I","A1BM57TUNAQIXM","3UDTAB6HH6LRO17U79I9TKUGYFV09C","","null","<img src=""img/food6.png"" style=""width:200px; border:14px solid green;"">","null","","","","","","","","","",""
"","image-keyboard-response","329","180956","0.0-418.0","3Q5C1WP23NNAGNOUR4EUKS4CPOW15I","A1BM57TUNAQIXM","3UDTAB6HH6LRO17U79I9TKUGYFV09C","","548","img/food1.png","74","549.2000000029802","1","1","","3","1","1,0.5,0,1,0.5,0,0.5,0,1","0,1,0.5,0,1,0.5,1,0.5,0","3",""
"","html-keyboard-response","330","181260","0.0-419.0","3Q5C1WP23NNAGNOUR4EUKS4CPOW15I","A1BM57TUNAQIXM","3UDTAB6HH6LRO17U79I9TKUGYFV09C","","null","<img src=""img/food1.png"" style=""width:200px; border:14px solid green;"">","null","","","","","","","","","",""
"","image-keyboard-response","331","181732","0.0-420.0","3Q5C1WP23NNAGNOUR4EUKS4CPOW15I","A1BM57TUNAQIXM","3UDTAB6HH6LRO17U79I9TKUGYFV09C","","470.1000000089407","img/food6.png","75","471.40000000596046","2","1","","1","1","1,0.5,0,1,0.5,0,0.5,0,1","0,1,0.5,0,1,0.5,1,0.5,0","3",""
"","html-keyboard-response","332","182034","0.0-421.0","3Q5C1WP23NNAGNOUR4EUKS4CPOW15I","A1BM57TUNAQIXM","3UDTAB6HH6LRO17U79I9TKUGYFV09C","","null","<img src=""img/food6.png"" style=""width:200px; border:14px solid green;"">","null","","","","","","","","","",""
"","image-keyboard-response","333","182440","0.0-422.0","3Q5C1WP23NNAGNOUR4EUKS4CPOW15I","A1BM57TUNAQIXM","3UDTAB6HH6LRO17U79I9TKUGYFV09C","","404.1000000089407","img/food6.png","75","405.59999999403954","2","1","","1","1","1,0.5,0,1,0.5,0,0.5,0,1","0,1,0.5,0,1,0.5,1,0.5,0","3",""
"","html-keyboard-response","334","182743","0.0-423.0","3Q5C1WP23NNAGNOUR4EUKS4CPOW15I","A1BM57TUNAQIXM","3UDTAB6HH6LRO17U79I9TKUGYFV09C","","null","<img src=""img/food6.png"" style=""width:200px; border:14px solid green;"">","null","","","","","","","","","",""
"","image-keyboard-response","335","183340","0.0-424.0","3Q5C1WP23NNAGNOUR4EUKS4CPOW15I","A1BM57TUNAQIXM","3UDTAB6HH6LRO17U79I9TKUGYFV09C","","596.5999999940395","img/food5.png","76","597.7999999970198","3","1","","2","1","1,0.5,0,1,0.5,0,0.5,0,1","0,1,0.5,0,1,0.5,1,0.5,0","3",""
"","html-keyboard-response","336","183643","0.0-425.0","3Q5C1WP23NNAGNOUR4EUKS4CPOW15I","A1BM57TUNAQIXM","3UDTAB6HH6LRO17U79I9TKUGYFV09C","","null","<img src=""img/food5.png"" style=""width:200px; border:14px solid green;"">","null","","","","","","","","","",""
"","image-keyboard-response","337","184312","0.0-426.0","3Q5C1WP23NNAGNOUR4EUKS4CPOW15I","A1BM57TUNAQIXM","3UDTAB6HH6LRO17U79I9TKUGYFV09C","","667.5","img/food1.png","74","668.5999999940395","1","1","","3","1","1,0.5,0,1,0.5,0,0.5,0,1","0,1,0.5,0,1,0.5,1,0.5,0","3",""
"","html-keyboard-response","338","184615","0.0-427.0","3Q5C1WP23NNAGNOUR4EUKS4CPOW15I","A1BM57TUNAQIXM","3UDTAB6HH6LRO17U79I9TKUGYFV09C","","null","<img src=""img/food1.png"" style=""width:200px; border:14px solid green;"">","null","","","","","","","","","",""
"","image-keyboard-response","339","185103","0.0-428.0","3Q5C1WP23NNAGNOUR4EUKS4CPOW15I","A1BM57TUNAQIXM","3UDTAB6HH6LRO17U79I9TKUGYFV09C","","487.20000000298023","img/food1.png","74","488.6000000089407","1","1","","3","1","1,0.5,0,1,0.5,0,0.5,0,1","0,1,0.5,0,1,0.5,1,0.5,0","3",""
"","html-keyboard-response","340","185407","0.0-429.0","3Q5C1WP23NNAGNOUR4EUKS4CPOW15I","A1BM57TUNAQIXM","3UDTAB6HH6LRO17U79I9TKUGYFV09C","","null","<img src=""img/food1.png"" style=""width:200px; border:14px solid green;"">","null","","","","","","","","","",""
"","image-keyboard-response","341","186012","0.0-430.0","3Q5C1WP23NNAGNOUR4EUKS4CPOW15I","A1BM57TUNAQIXM","3UDTAB6HH6LRO17U79I9TKUGYFV09C","","604.4000000059605","img/food5.png","76","605.7000000029802","3","0","","2","1","1,0.5,0,1,0.5,0,0.5,0,1","0,1,0.5,0,1,0.5,1,0.5,0","3",""
"","html-keyboard-response","342","186316","0.0-431.0","3Q5C1WP23NNAGNOUR4EUKS4CPOW15I","A1BM57TUNAQIXM","3UDTAB6HH6LRO17U79I9TKUGYFV09C","","null","<img src=""img/food5.png"" style=""width:200px;border:14px solid red;"">","null","","","","","","","","","",""
"","image-keyboard-response","343","186872","0.0-432.0","3Q5C1WP23NNAGNOUR4EUKS4CPOW15I","A1BM57TUNAQIXM","3UDTAB6HH6LRO17U79I9TKUGYFV09C","","552.7999999970198","img/food6.png","75","555","2","1","","1","1","1,0.5,0,1,0.5,0,0.5,0,1","0,1,0.5,0,1,0.5,1,0.5,0","3",""
"","html-keyboard-response","344","187175","0.0-433.0","3Q5C1WP23NNAGNOUR4EUKS4CPOW15I","A1BM57TUNAQIXM","3UDTAB6HH6LRO17U79I9TKUGYFV09C","","null","<img src=""img/food6.png"" style=""width:200px; border:14px solid green;"">","null","","","","","","","","","",""
"","image-keyboard-response","345","187564","0.0-434.0","3Q5C1WP23NNAGNOUR4EUKS4CPOW15I","A1BM57TUNAQIXM","3UDTAB6HH6LRO17U79I9TKUGYFV09C","","385.90000000596046","img/food6.png","75","387.29999999701977","2","1","","1","1","1,0.5,0,1,0.5,0,0.5,0,1","0,1,0.5,0,1,0.5,1,0.5,0","3",""
"","html-keyboard-response","346","187865","0.0-435.0","3Q5C1WP23NNAGNOUR4EUKS4CPOW15I","A1BM57TUNAQIXM","3UDTAB6HH6LRO17U79I9TKUGYFV09C","","null","<img src=""img/food6.png"" style=""width:200px; border:14px solid green;"">","null","","","","","","","","","",""
"","image-keyboard-response","347","188231","0.0-436.0","3Q5C1WP23NNAGNOUR4EUKS4CPOW15I","A1BM57TUNAQIXM","3UDTAB6HH6LRO17U79I9TKUGYFV09C","","362.90000000596046","img/food6.png","75","365.20000000298023","2","1","","1","1","1,0.5,0,1,0.5,0,0.5,0,1","0,1,0.5,0,1,0.5,1,0.5,0","3",""
"","html-keyboard-response","348","188534","0.0-437.0","3Q5C1WP23NNAGNOUR4EUKS4CPOW15I","A1BM57TUNAQIXM","3UDTAB6HH6LRO17U79I9TKUGYFV09C","","null","<img src=""img/food6.png"" style=""width:200px; border:14px solid green;"">","null","","","","","","","","","",""
"","image-keyboard-response","349","189102","0.0-438.0","3Q5C1WP23NNAGNOUR4EUKS4CPOW15I","A1BM57TUNAQIXM","3UDTAB6HH6LRO17U79I9TKUGYFV09C","","567.0999999940395","img/food5.png","76","568.4000000059605","3","0","","2","1","1,0.5,0,1,0.5,0,0.5,0,1","0,1,0.5,0,1,0.5,1,0.5,0","3",""
"","html-keyboard-response","350","189406","0.0-439.0","3Q5C1WP23NNAGNOUR4EUKS4CPOW15I","A1BM57TUNAQIXM","3UDTAB6HH6LRO17U79I9TKUGYFV09C","","null","<img src=""img/food5.png"" style=""width:200px;border:14px solid red;"">","null","","","","","","","","","",""
"","image-keyboard-response","351","190037","0.0-440.0","3Q5C1WP23NNAGNOUR4EUKS4CPOW15I","A1BM57TUNAQIXM","3UDTAB6HH6LRO17U79I9TKUGYFV09C","","629.2000000029802","img/food1.png","74","631.2000000029802","1","1","","3","1","1,0.5,0,1,0.5,0,0.5,0,1","0,1,0.5,0,1,0.5,1,0.5,0","3",""
"","html-keyboard-response","352","190345","0.0-441.0","3Q5C1WP23NNAGNOUR4EUKS4CPOW15I","A1BM57TUNAQIXM","3UDTAB6HH6LRO17U79I9TKUGYFV09C","","null","<img src=""img/food1.png"" style=""width:200px; border:14px solid green;"">","null","","","","","","","","","",""
"","image-keyboard-response","353","190950","0.0-442.0","3Q5C1WP23NNAGNOUR4EUKS4CPOW15I","A1BM57TUNAQIXM","3UDTAB6HH6LRO17U79I9TKUGYFV09C","","603.0999999940395","img/food6.png","75","605.1999999880791","2","1","","1","1","1,0.5,0,1,0.5,0,0.5,0,1","0,1,0.5,0,1,0.5,1,0.5,0","3",""
"","html-keyboard-response","354","191254","0.0-443.0","3Q5C1WP23NNAGNOUR4EUKS4CPOW15I","A1BM57TUNAQIXM","3UDTAB6HH6LRO17U79I9TKUGYFV09C","","null","<img src=""img/food6.png"" style=""width:200px; border:14px solid green;"">","null","","","","","","","","","",""
"","image-keyboard-response","355","192006","0.0-444.0","3Q5C1WP23NNAGNOUR4EUKS4CPOW15I","A1BM57TUNAQIXM","3UDTAB6HH6LRO17U79I9TKUGYFV09C","","750","img/food5.png","74","752.2000000029802","1","0","","2","1","1,0.5,0,1,0.5,0,0.5,0,1","0,1,0.5,0,1,0.5,1,0.5,0","3",""
"","html-keyboard-response","356","192310","0.0-445.0","3Q5C1WP23NNAGNOUR4EUKS4CPOW15I","A1BM57TUNAQIXM","3UDTAB6HH6LRO17U79I9TKUGYFV09C","","null","<img src=""img/food5.png"" style=""width:200px;border:14px solid red;"">","null","","","","","","","","","",""
"","image-keyboard-response","357","192878","0.0-446.0","3Q5C1WP23NNAGNOUR4EUKS4CPOW15I","A1BM57TUNAQIXM","3UDTAB6HH6LRO17U79I9TKUGYFV09C","","565.5999999940395","img/food5.png","76","567.7000000029802","3","1","","2","1","1,0.5,0,1,0.5,0,0.5,0,1","0,1,0.5,0,1,0.5,1,0.5,0","3",""
"","html-keyboard-response","358","193181","0.0-447.0","3Q5C1WP23NNAGNOUR4EUKS4CPOW15I","A1BM57TUNAQIXM","3UDTAB6HH6LRO17U79I9TKUGYFV09C","","null","<img src=""img/food5.png"" style=""width:200px; border:14px solid green;"">","null","","","","","","","","","",""
"","image-keyboard-response","359","193572","0.0-448.0","3Q5C1WP23NNAGNOUR4EUKS4CPOW15I","A1BM57TUNAQIXM","3UDTAB6HH6LRO17U79I9TKUGYFV09C","","388.09999999403954","img/food5.png","76","390.20000000298023","3","1","","2","1","1,0.5,0,1,0.5,0,0.5,0,1","0,1,0.5,0,1,0.5,1,0.5,0","3",""
"","html-keyboard-response","360","193875","0.0-449.0","3Q5C1WP23NNAGNOUR4EUKS4CPOW15I","A1BM57TUNAQIXM","3UDTAB6HH6LRO17U79I9TKUGYFV09C","","null","<img src=""img/food5.png"" style=""width:200px; border:14px solid green;"">","null","","","","","","","","","",""
"","image-keyboard-response","361","194286","0.0-450.0","3Q5C1WP23NNAGNOUR4EUKS4CPOW15I","A1BM57TUNAQIXM","3UDTAB6HH6LRO17U79I9TKUGYFV09C","","409.5","img/food5.png","76","411.20000000298023","3","0","","2","1","1,0.5,0,1,0.5,0,0.5,0,1","0,1,0.5,0,1,0.5,1,0.5,0","3",""
"","html-keyboard-response","362","194589","0.0-451.0","3Q5C1WP23NNAGNOUR4EUKS4CPOW15I","A1BM57TUNAQIXM","3UDTAB6HH6LRO17U79I9TKUGYFV09C","","null","<img src=""img/food5.png"" style=""width:200px;border:14px solid red;"">","null","","","","","","","","","",""
"","image-keyboard-response","363","195250","0.0-452.0","3Q5C1WP23NNAGNOUR4EUKS4CPOW15I","A1BM57TUNAQIXM","3UDTAB6HH6LRO17U79I9TKUGYFV09C","","659.7999999970198","img/food1.png","74","660.5","1","1","","3","1","1,0.5,0,1,0.5,0,0.5,0,1","0,1,0.5,0,1,0.5,1,0.5,0","3",""
"","html-keyboard-response","364","195553","0.0-453.0","3Q5C1WP23NNAGNOUR4EUKS4CPOW15I","A1BM57TUNAQIXM","3UDTAB6HH6LRO17U79I9TKUGYFV09C","","null","<img src=""img/food1.png"" style=""width:200px; border:14px solid green;"">","null","","","","","","","","","",""
"","html-keyboard-response","365","198197","0.0-454.0","3Q5C1WP23NNAGNOUR4EUKS4CPOW15I","A1BM57TUNAQIXM","3UDTAB6HH6LRO17U79I9TKUGYFV09C","","","","","","","","","","","","","",""
"","instructions","366","199635","0.0-455.0","3Q5C1WP23NNAGNOUR4EUKS4CPOW15I","A1BM57TUNAQIXM","3UDTAB6HH6LRO17U79I9TKUGYFV09C","[{""page_index"":0,""viewing_time"":1437.5999999940395}]","1437.8999999910593","","","","","","","","","","","",""
"","survey-text","367","203560","0.0-456.0","3Q5C1WP23NNAGNOUR4EUKS4CPOW15I","A1BM57TUNAQIXM","3UDTAB6HH6LRO17U79I9TKUGYFV09C","","3921.2000000029802","","","","","","","","","","","","{""Q0"":""A1BM57TUNAQIXM""}"
