"success","trial_type","trial_index","time_elapsed","internal_node_id","assignmentID","mturkID","hitID","view_history","rt","stimulus","key_press","reactionTime","a","r","warning","s","cond","reward_cond","reward_cond_actual","reward_matrix_idx","responses"
"true","fullscreen","0","2211","0.0-0.0","32M8BPYGAU8JWQ9CG7IRGOCNWYNIG9","A1BWS5AD2T4NIR","3HUR21WDDUBEMSLDIXZW1FAIHVWXYO","","","","","","","","","","","","","",""
"","instructions","1","61760","0.0-1.0","32M8BPYGAU8JWQ9CG7IRGOCNWYNIG9","A1BWS5AD2T4NIR","3HUR21WDDUBEMSLDIXZW1FAIHVWXYO","[{""page_index"":0,""viewing_time"":12037.89999999851},{""page_index"":1,""viewing_time"":1782.6999999955297},{""page_index"":2,""viewing_time"":2056.3000000044703},{""page_index"":3,""viewing_time"":3294.2999999970198},{""page_index"":4,""viewing_time"":9477.80000000447},{""page_index"":5,""viewing_time"":27627.19999999553},{""page_index"":6,""viewing_time"":3265.89999999851}]","59545","","","","","","","","","","","",""
"","instructions","2","77392","0.0-2.0","32M8BPYGAU8JWQ9CG7IRGOCNWYNIG9","A1BWS5AD2T4NIR","3HUR21WDDUBEMSLDIXZW1FAIHVWXYO","[{""page_index"":0,""viewing_time"":13010.20000000298},{""page_index"":1,""viewing_time"":2618.39999999851}]","15629.40000000596","","","","","","","","","","","",""
"","image-keyboard-response","3","78331","0.0-3.0","32M8BPYGAU8JWQ9CG7IRGOCNWYNIG9","A1BWS5AD2T4NIR","3HUR21WDDUBEMSLDIXZW1FAIHVWXYO","","935.8999999985099","img/food1.png","74","939.1000000014901","1","1","false","3","2","1,0.5,0,1,0.5,0,0.5,0,1","0,1,0.5,0,1,0.5,1,0.5,0","3",""
"","html-keyboard-response","4","78635","0.0-4.0","32M8BPYGAU8JWQ9CG7IRGOCNWYNIG9","A1BWS5AD2T4NIR","3HUR21WDDUBEMSLDIXZW1FAIHVWXYO","","null","<img src=""img/food1.png"" style=""width:200px; border:14px solid green;"">","null","","","","","","","","","",""
"","image-keyboard-response","5","79487","0.0-6.0","32M8BPYGAU8JWQ9CG7IRGOCNWYNIG9","A1BWS5AD2T4NIR","3HUR21WDDUBEMSLDIXZW1FAIHVWXYO","","848.5","img/food1.png","74","850.6000000014901","1","1","false","3","2","1,0.5,0,1,0.5,0,0.5,0,1","0,1,0.5,0,1,0.5,1,0.5,0","3",""
"","html-keyboard-response","6","79789","0.0-7.0","32M8BPYGAU8JWQ9CG7IRGOCNWYNIG9","A1BWS5AD2T4NIR","3HUR21WDDUBEMSLDIXZW1FAIHVWXYO","","null","<img src=""img/food1.png"" style=""width:200px; border:14px solid green;"">","null","","","","","","","","","",""
"","image-keyboard-response","7","80559","0.0-9.0","32M8BPYGAU8JWQ9CG7IRGOCNWYNIG9","A1BWS5AD2T4NIR","3HUR21WDDUBEMSLDIXZW1FAIHVWXYO","","767.7000000029802","img/food2.png","75","769.2000000029802","2","1","false","2","2","1,0.5,0,1,0.5,0,0.5,0,1","0,1,0.5,0,1,0.5,1,0.5,0","3",""
"","html-keyboard-response","8","80861","0.0-10.0","32M8BPYGAU8JWQ9CG7IRGOCNWYNIG9","A1BWS5AD2T4NIR","3HUR21WDDUBEMSLDIXZW1FAIHVWXYO","","null","<img src=""img/food2.png"" style=""width:200px; border:14px solid green;"">","null","","","","","","","","","",""
"","image-keyboard-response","9","81623","0.0-12.0","32M8BPYGAU8JWQ9CG7IRGOCNWYNIG9","A1BWS5AD2T4NIR","3HUR21WDDUBEMSLDIXZW1FAIHVWXYO","","759.7000000029802","img/food4.png","76","761.6000000014901","3","1","false","1","2","1,0.5,0,1,0.5,0,0.5,0,1","0,1,0.5,0,1,0.5,1,0.5,0","3",""
"","html-keyboard-response","10","81925","0.0-13.0","32M8BPYGAU8JWQ9CG7IRGOCNWYNIG9","A1BWS5AD2T4NIR","3HUR21WDDUBEMSLDIXZW1FAIHVWXYO","","null","<img src=""img/food4.png"" style=""width:200px; border:14px solid green;"">","null","","","","","","","","","",""
"","image-keyboard-response","11","82599","0.0-15.0","32M8BPYGAU8JWQ9CG7IRGOCNWYNIG9","A1BWS5AD2T4NIR","3HUR21WDDUBEMSLDIXZW1FAIHVWXYO","","671.8000000044703","img/food1.png","75","673.2999999970198","2","0","false","3","2","1,0.5,0,1,0.5,0,0.5,0,1","0,1,0.5,0,1,0.5,1,0.5,0","3",""
"","html-keyboard-response","12","82901","0.0-16.0","32M8BPYGAU8JWQ9CG7IRGOCNWYNIG9","A1BWS5AD2T4NIR","3HUR21WDDUBEMSLDIXZW1FAIHVWXYO","","null","<img src=""img/food1.png"" style=""width:200px;border:14px solid red;"">","null","","","","","","","","","",""
"","image-keyboard-response","13","83895","0.0-18.0","32M8BPYGAU8JWQ9CG7IRGOCNWYNIG9","A1BWS5AD2T4NIR","3HUR21WDDUBEMSLDIXZW1FAIHVWXYO","","991.5","img/food2.png","75","993.1000000014901","2","1","false","2","2","1,0.5,0,1,0.5,0,0.5,0,1","0,1,0.5,0,1,0.5,1,0.5,0","3",""
"","html-keyboard-response","14","84197","0.0-19.0","32M8BPYGAU8JWQ9CG7IRGOCNWYNIG9","A1BWS5AD2T4NIR","3HUR21WDDUBEMSLDIXZW1FAIHVWXYO","","null","<img src=""img/food2.png"" style=""width:200px; border:14px solid green;"">","null","","","","","","","","","",""
"","image-keyboard-response","15","84795","0.0-21.0","32M8BPYGAU8JWQ9CG7IRGOCNWYNIG9","A1BWS5AD2T4NIR","3HUR21WDDUBEMSLDIXZW1FAIHVWXYO","","596.3999999985099","img/food4.png","76","598","3","0","false","1","2","1,0.5,0,1,0.5,0,0.5,0,1","0,1,0.5,0,1,0.5,1,0.5,0","3",""
"","html-keyboard-response","16","85097","0.0-22.0","32M8BPYGAU8JWQ9CG7IRGOCNWYNIG9","A1BWS5AD2T4NIR","3HUR21WDDUBEMSLDIXZW1FAIHVWXYO","","null","<img src=""img/food4.png"" style=""width:200px;border:14px solid red;"">","null","","","","","","","","","",""
"","image-keyboard-response","17","85855","0.0-24.0","32M8BPYGAU8JWQ9CG7IRGOCNWYNIG9","A1BWS5AD2T4NIR","3HUR21WDDUBEMSLDIXZW1FAIHVWXYO","","756.6000000014901","img/food1.png","75","758","2","1","false","3","2","1,0.5,0,1,0.5,0,0.5,0,1","0,1,0.5,0,1,0.5,1,0.5,0","3",""
"","html-keyboard-response","18","86158","0.0-25.0","32M8BPYGAU8JWQ9CG7IRGOCNWYNIG9","A1BWS5AD2T4NIR","3HUR21WDDUBEMSLDIXZW1FAIHVWXYO","","null","<img src=""img/food1.png"" style=""width:200px; border:14px solid green;"">","null","","","","","","","","","",""
"","image-keyboard-response","19","86783","0.0-27.0","32M8BPYGAU8JWQ9CG7IRGOCNWYNIG9","A1BWS5AD2T4NIR","3HUR21WDDUBEMSLDIXZW1FAIHVWXYO","","623","img/food1.png","75","624.5999999940395","2","0","false","3","2","1,0.5,0,1,0.5,0,0.5,0,1","0,1,0.5,0,1,0.5,1,0.5,0","3",""
"","html-keyboard-response","20","87085","0.0-28.0","32M8BPYGAU8JWQ9CG7IRGOCNWYNIG9","A1BWS5AD2T4NIR","3HUR21WDDUBEMSLDIXZW1FAIHVWXYO","","null","<img src=""img/food1.png"" style=""width:200px;border:14px solid red;"">","null","","","","","","","","","",""
"","image-keyboard-response","21","87696","0.0-30.0","32M8BPYGAU8JWQ9CG7IRGOCNWYNIG9","A1BWS5AD2T4NIR","3HUR21WDDUBEMSLDIXZW1FAIHVWXYO","","609.1000000014901","img/food4.png","76","610.5","3","0","false","1","2","1,0.5,0,1,0.5,0,0.5,0,1","0,1,0.5,0,1,0.5,1,0.5,0","3",""
"","html-keyboard-response","22","87998","0.0-31.0","32M8BPYGAU8JWQ9CG7IRGOCNWYNIG9","A1BWS5AD2T4NIR","3HUR21WDDUBEMSLDIXZW1FAIHVWXYO","","null","<img src=""img/food4.png"" style=""width:200px;border:14px solid red;"">","null","","","","","","","","","",""
"","image-keyboard-response","23","88831","0.0-33.0","32M8BPYGAU8JWQ9CG7IRGOCNWYNIG9","A1BWS5AD2T4NIR","3HUR21WDDUBEMSLDIXZW1FAIHVWXYO","","831","img/food2.png","75","832.2000000029802","2","1","false","2","2","1,0.5,0,1,0.5,0,0.5,0,1","0,1,0.5,0,1,0.5,1,0.5,0","3",""
"","html-keyboard-response","24","89133","0.0-34.0","32M8BPYGAU8JWQ9CG7IRGOCNWYNIG9","A1BWS5AD2T4NIR","3HUR21WDDUBEMSLDIXZW1FAIHVWXYO","","null","<img src=""img/food2.png"" style=""width:200px; border:14px solid green;"">","null","","","","","","","","","",""
"","image-keyboard-response","25","90039","0.0-36.0","32M8BPYGAU8JWQ9CG7IRGOCNWYNIG9","A1BWS5AD2T4NIR","3HUR21WDDUBEMSLDIXZW1FAIHVWXYO","","903.7999999970198","img/food4.png","76","905.2999999970198","3","0","false","1","2","1,0.5,0,1,0.5,0,0.5,0,1","0,1,0.5,0,1,0.5,1,0.5,0","3",""
"","html-keyboard-response","26","90341","0.0-37.0","32M8BPYGAU8JWQ9CG7IRGOCNWYNIG9","A1BWS5AD2T4NIR","3HUR21WDDUBEMSLDIXZW1FAIHVWXYO","","null","<img src=""img/food4.png"" style=""width:200px;border:14px solid red;"">","null","","","","","","","","","",""
"","image-keyboard-response","27","91215","0.0-39.0","32M8BPYGAU8JWQ9CG7IRGOCNWYNIG9","A1BWS5AD2T4NIR","3HUR21WDDUBEMSLDIXZW1FAIHVWXYO","","871.5","img/food2.png","75","873.2000000029802","2","1","false","2","2","1,0.5,0,1,0.5,0,0.5,0,1","0,1,0.5,0,1,0.5,1,0.5,0","3",""
"","html-keyboard-response","28","91517","0.0-40.0","32M8BPYGAU8JWQ9CG7IRGOCNWYNIG9","A1BWS5AD2T4NIR","3HUR21WDDUBEMSLDIXZW1FAIHVWXYO","","null","<img src=""img/food2.png"" style=""width:200px; border:14px solid green;"">","null","","","","","","","","","",""
"","image-keyboard-response","29","92438","0.0-42.0","32M8BPYGAU8JWQ9CG7IRGOCNWYNIG9","A1BWS5AD2T4NIR","3HUR21WDDUBEMSLDIXZW1FAIHVWXYO","","919.5","img/food4.png","76","921.1000000014901","3","0","false","1","2","1,0.5,0,1,0.5,0,0.5,0,1","0,1,0.5,0,1,0.5,1,0.5,0","3",""
"","html-keyboard-response","30","92741","0.0-43.0","32M8BPYGAU8JWQ9CG7IRGOCNWYNIG9","A1BWS5AD2T4NIR","3HUR21WDDUBEMSLDIXZW1FAIHVWXYO","","null","<img src=""img/food4.png"" style=""width:200px;border:14px solid red;"">","null","","","","","","","","","",""
"","image-keyboard-response","31","93591","0.0-45.0","32M8BPYGAU8JWQ9CG7IRGOCNWYNIG9","A1BWS5AD2T4NIR","3HUR21WDDUBEMSLDIXZW1FAIHVWXYO","","848","img/food2.png","75","849.5","2","1","false","2","2","1,0.5,0,1,0.5,0,0.5,0,1","0,1,0.5,0,1,0.5,1,0.5,0","3",""
"","html-keyboard-response","32","93893","0.0-46.0","32M8BPYGAU8JWQ9CG7IRGOCNWYNIG9","A1BWS5AD2T4NIR","3HUR21WDDUBEMSLDIXZW1FAIHVWXYO","","null","<img src=""img/food2.png"" style=""width:200px; border:14px solid green;"">","null","","","","","","","","","",""
"","image-keyboard-response","33","94767","0.0-48.0","32M8BPYGAU8JWQ9CG7IRGOCNWYNIG9","A1BWS5AD2T4NIR","3HUR21WDDUBEMSLDIXZW1FAIHVWXYO","","872.1000000014901","img/food1.png","75","873.3999999985099","2","0","false","3","2","1,0.5,0,1,0.5,0,0.5,0,1","0,1,0.5,0,1,0.5,1,0.5,0","3",""
"","html-keyboard-response","34","95069","0.0-49.0","32M8BPYGAU8JWQ9CG7IRGOCNWYNIG9","A1BWS5AD2T4NIR","3HUR21WDDUBEMSLDIXZW1FAIHVWXYO","","null","<img src=""img/food1.png"" style=""width:200px;border:14px solid red;"">","null","","","","","","","","","",""
"","image-keyboard-response","35","95708","0.0-51.0","32M8BPYGAU8JWQ9CG7IRGOCNWYNIG9","A1BWS5AD2T4NIR","3HUR21WDDUBEMSLDIXZW1FAIHVWXYO","","637.0999999940395","img/food1.png","75","638.6999999955297","2","1","false","3","2","1,0.5,0,1,0.5,0,0.5,0,1","0,1,0.5,0,1,0.5,1,0.5,0","3",""
"","html-keyboard-response","36","96010","0.0-52.0","32M8BPYGAU8JWQ9CG7IRGOCNWYNIG9","A1BWS5AD2T4NIR","3HUR21WDDUBEMSLDIXZW1FAIHVWXYO","","null","<img src=""img/food1.png"" style=""width:200px; border:14px solid green;"">","null","","","","","","","","","",""
"","image-keyboard-response","37","96975","0.0-54.0","32M8BPYGAU8JWQ9CG7IRGOCNWYNIG9","A1BWS5AD2T4NIR","3HUR21WDDUBEMSLDIXZW1FAIHVWXYO","","962.7999999970198","img/food4.png","74","964.2000000029802","1","0","false","1","2","1,0.5,0,1,0.5,0,0.5,0,1","0,1,0.5,0,1,0.5,1,0.5,0","3",""
"","html-keyboard-response","38","97277","0.0-55.0","32M8BPYGAU8JWQ9CG7IRGOCNWYNIG9","A1BWS5AD2T4NIR","3HUR21WDDUBEMSLDIXZW1FAIHVWXYO","","null","<img src=""img/food4.png"" style=""width:200px;border:14px solid red;"">","null","","","","","","","","","",""
"","image-keyboard-response","39","97990","0.0-57.0","32M8BPYGAU8JWQ9CG7IRGOCNWYNIG9","A1BWS5AD2T4NIR","3HUR21WDDUBEMSLDIXZW1FAIHVWXYO","","711.5","img/food1.png","75","713.1000000014901","2","1","false","3","2","1,0.5,0,1,0.5,0,0.5,0,1","0,1,0.5,0,1,0.5,1,0.5,0","3",""
"","html-keyboard-response","40","98293","0.0-58.0","32M8BPYGAU8JWQ9CG7IRGOCNWYNIG9","A1BWS5AD2T4NIR","3HUR21WDDUBEMSLDIXZW1FAIHVWXYO","","null","<img src=""img/food1.png"" style=""width:200px; border:14px solid green;"">","null","","","","","","","","","",""
"","image-keyboard-response","41","99030","0.0-60.0","32M8BPYGAU8JWQ9CG7IRGOCNWYNIG9","A1BWS5AD2T4NIR","3HUR21WDDUBEMSLDIXZW1FAIHVWXYO","","735.5","img/food2.png","74","737.2999999970198","1","0","false","2","2","1,0.5,0,1,0.5,0,0.5,0,1","0,1,0.5,0,1,0.5,1,0.5,0","3",""
"","html-keyboard-response","42","99333","0.0-61.0","32M8BPYGAU8JWQ9CG7IRGOCNWYNIG9","A1BWS5AD2T4NIR","3HUR21WDDUBEMSLDIXZW1FAIHVWXYO","","null","<img src=""img/food2.png"" style=""width:200px;border:14px solid red;"">","null","","","","","","","","","",""
"","image-keyboard-response","43","100198","0.0-63.0","32M8BPYGAU8JWQ9CG7IRGOCNWYNIG9","A1BWS5AD2T4NIR","3HUR21WDDUBEMSLDIXZW1FAIHVWXYO","","863.8999999985099","img/food1.png","75","865.3999999985099","2","0","false","3","2","1,0.5,0,1,0.5,0,0.5,0,1","0,1,0.5,0,1,0.5,1,0.5,0","3",""
"","html-keyboard-response","44","100501","0.0-64.0","32M8BPYGAU8JWQ9CG7IRGOCNWYNIG9","A1BWS5AD2T4NIR","3HUR21WDDUBEMSLDIXZW1FAIHVWXYO","","null","<img src=""img/food1.png"" style=""width:200px;border:14px solid red;"">","null","","","","","","","","","",""
"","image-keyboard-response","45","101463","0.0-66.0","32M8BPYGAU8JWQ9CG7IRGOCNWYNIG9","A1BWS5AD2T4NIR","3HUR21WDDUBEMSLDIXZW1FAIHVWXYO","","959.7999999970198","img/food2.png","75","961.5","2","1","false","2","2","1,0.5,0,1,0.5,0,0.5,0,1","0,1,0.5,0,1,0.5,1,0.5,0","3",""
"","html-keyboard-response","46","101764","0.0-67.0","32M8BPYGAU8JWQ9CG7IRGOCNWYNIG9","A1BWS5AD2T4NIR","3HUR21WDDUBEMSLDIXZW1FAIHVWXYO","","null","<img src=""img/food2.png"" style=""width:200px; border:14px solid green;"">","null","","","","","","","","","",""
"","image-keyboard-response","47","102510","0.0-69.0","32M8BPYGAU8JWQ9CG7IRGOCNWYNIG9","A1BWS5AD2T4NIR","3HUR21WDDUBEMSLDIXZW1FAIHVWXYO","","744.2999999970198","img/food2.png","75","745.6000000014901","2","1","false","2","2","1,0.5,0,1,0.5,0,0.5,0,1","0,1,0.5,0,1,0.5,1,0.5,0","3",""
"","html-keyboard-response","48","102812","0.0-70.0","32M8BPYGAU8JWQ9CG7IRGOCNWYNIG9","A1BWS5AD2T4NIR","3HUR21WDDUBEMSLDIXZW1FAIHVWXYO","","null","<img src=""img/food2.png"" style=""width:200px; border:14px solid green;"">","null","","","","","","","","","",""
"","image-keyboard-response","49","103758","0.0-72.0","32M8BPYGAU8JWQ9CG7IRGOCNWYNIG9","A1BWS5AD2T4NIR","3HUR21WDDUBEMSLDIXZW1FAIHVWXYO","","944.1999999955297","img/food4.png","76","945.6000000014901","3","1","false","1","2","1,0.5,0,1,0.5,0,0.5,0,1","0,1,0.5,0,1,0.5,1,0.5,0","3",""
"","html-keyboard-response","50","104061","0.0-73.0","32M8BPYGAU8JWQ9CG7IRGOCNWYNIG9","A1BWS5AD2T4NIR","3HUR21WDDUBEMSLDIXZW1FAIHVWXYO","","null","<img src=""img/food4.png"" style=""width:200px; border:14px solid green;"">","null","","","","","","","","","",""
"","image-keyboard-response","51","104798","0.0-75.0","32M8BPYGAU8JWQ9CG7IRGOCNWYNIG9","A1BWS5AD2T4NIR","3HUR21WDDUBEMSLDIXZW1FAIHVWXYO","","735.6999999955297","img/food1.png","75","737.2999999970198","2","1","false","3","2","1,0.5,0,1,0.5,0,0.5,0,1","0,1,0.5,0,1,0.5,1,0.5,0","3",""
"","html-keyboard-response","52","105100","0.0-76.0","32M8BPYGAU8JWQ9CG7IRGOCNWYNIG9","A1BWS5AD2T4NIR","3HUR21WDDUBEMSLDIXZW1FAIHVWXYO","","null","<img src=""img/food1.png"" style=""width:200px; border:14px solid green;"">","null","","","","","","","","","",""
"","image-keyboard-response","53","105875","0.0-78.0","32M8BPYGAU8JWQ9CG7IRGOCNWYNIG9","A1BWS5AD2T4NIR","3HUR21WDDUBEMSLDIXZW1FAIHVWXYO","","772.5","img/food1.png","75","773.9000000059605","2","1","false","3","2","1,0.5,0,1,0.5,0,0.5,0,1","0,1,0.5,0,1,0.5,1,0.5,0","3",""
"","html-keyboard-response","54","106177","0.0-79.0","32M8BPYGAU8JWQ9CG7IRGOCNWYNIG9","A1BWS5AD2T4NIR","3HUR21WDDUBEMSLDIXZW1FAIHVWXYO","","null","<img src=""img/food1.png"" style=""width:200px; border:14px solid green;"">","null","","","","","","","","","",""
"","image-keyboard-response","55","106935","0.0-81.0","32M8BPYGAU8JWQ9CG7IRGOCNWYNIG9","A1BWS5AD2T4NIR","3HUR21WDDUBEMSLDIXZW1FAIHVWXYO","","756.3999999985099","img/food1.png","75","757.7999999970198","2","0","false","3","2","1,0.5,0,1,0.5,0,0.5,0,1","0,1,0.5,0,1,0.5,1,0.5,0","3",""
"","html-keyboard-response","56","107237","0.0-82.0","32M8BPYGAU8JWQ9CG7IRGOCNWYNIG9","A1BWS5AD2T4NIR","3HUR21WDDUBEMSLDIXZW1FAIHVWXYO","","null","<img src=""img/food1.png"" style=""width:200px;border:14px solid red;"">","null","","","","","","","","","",""
"","image-keyboard-response","57","107878","0.0-84.0","32M8BPYGAU8JWQ9CG7IRGOCNWYNIG9","A1BWS5AD2T4NIR","3HUR21WDDUBEMSLDIXZW1FAIHVWXYO","","639.1000000014901","img/food1.png","75","640.7999999970198","2","0","false","3","2","1,0.5,0,1,0.5,0,0.5,0,1","0,1,0.5,0,1,0.5,1,0.5,0","3",""
"","html-keyboard-response","58","108181","0.0-85.0","32M8BPYGAU8JWQ9CG7IRGOCNWYNIG9","A1BWS5AD2T4NIR","3HUR21WDDUBEMSLDIXZW1FAIHVWXYO","","null","<img src=""img/food1.png"" style=""width:200px;border:14px solid red;"">","null","","","","","","","","","",""
"","image-keyboard-response","59","108902","0.0-87.0","32M8BPYGAU8JWQ9CG7IRGOCNWYNIG9","A1BWS5AD2T4NIR","3HUR21WDDUBEMSLDIXZW1FAIHVWXYO","","719.6999999955297","img/food1.png","75","721.2999999970198","2","0","false","3","2","1,0.5,0,1,0.5,0,0.5,0,1","0,1,0.5,0,1,0.5,1,0.5,0","3",""
"","html-keyboard-response","60","109205","0.0-88.0","32M8BPYGAU8JWQ9CG7IRGOCNWYNIG9","A1BWS5AD2T4NIR","3HUR21WDDUBEMSLDIXZW1FAIHVWXYO","","null","<img src=""img/food1.png"" style=""width:200px;border:14px solid red;"">","null","","","","","","","","","",""
"","image-keyboard-response","61","109998","0.0-90.0","32M8BPYGAU8JWQ9CG7IRGOCNWYNIG9","A1BWS5AD2T4NIR","3HUR21WDDUBEMSLDIXZW1FAIHVWXYO","","791.6999999955297","img/food4.png","76","793.2999999970198","3","0","false","1","2","1,0.5,0,1,0.5,0,0.5,0,1","0,1,0.5,0,1,0.5,1,0.5,0","3",""
"","html-keyboard-response","62","110301","0.0-91.0","32M8BPYGAU8JWQ9CG7IRGOCNWYNIG9","A1BWS5AD2T4NIR","3HUR21WDDUBEMSLDIXZW1FAIHVWXYO","","null","<img src=""img/food4.png"" style=""width:200px;border:14px solid red;"">","null","","","","","","","","","",""
"","image-keyboard-response","63","111303","0.0-93.0","32M8BPYGAU8JWQ9CG7IRGOCNWYNIG9","A1BWS5AD2T4NIR","3HUR21WDDUBEMSLDIXZW1FAIHVWXYO","","","img/food2.png","","1002","-1","0","true","2","2","1,0.5,0,1,0.5,0,0.5,0,1","0,1,0.5,0,1,0.5,1,0.5,0","3",""
"","html-keyboard-response","64","111606","0.0-94.0","32M8BPYGAU8JWQ9CG7IRGOCNWYNIG9","A1BWS5AD2T4NIR","3HUR21WDDUBEMSLDIXZW1FAIHVWXYO","","null","<img src=""img/food2.png"" style=""width:200px;border:14px solid red;"">","null","","","","","","","","","",""
"","html-keyboard-response","65","119013","0.0-95.0-0.0","32M8BPYGAU8JWQ9CG7IRGOCNWYNIG9","A1BWS5AD2T4NIR","3HUR21WDDUBEMSLDIXZW1FAIHVWXYO","","","","","","","","","","","","","",""
"","image-keyboard-response","66","119982","0.0-96.0","32M8BPYGAU8JWQ9CG7IRGOCNWYNIG9","A1BWS5AD2T4NIR","3HUR21WDDUBEMSLDIXZW1FAIHVWXYO","","966.6000000014901","img/food2.png","75","968.6999999955297","2","1","false","2","2","1,0.5,0,1,0.5,0,0.5,0,1","0,1,0.5,0,1,0.5,1,0.5,0","3",""
"","html-keyboard-response","67","120285","0.0-97.0","32M8BPYGAU8JWQ9CG7IRGOCNWYNIG9","A1BWS5AD2T4NIR","3HUR21WDDUBEMSLDIXZW1FAIHVWXYO","","null","<img src=""img/food2.png"" style=""width:200px; border:14px solid green;"">","null","","","","","","","","","",""
"","image-keyboard-response","68","120842","0.0-99.0","32M8BPYGAU8JWQ9CG7IRGOCNWYNIG9","A1BWS5AD2T4NIR","3HUR21WDDUBEMSLDIXZW1FAIHVWXYO","","554.6000000014901","img/food2.png","75","556.6000000014901","2","1","false","2","2","1,0.5,0,1,0.5,0,0.5,0,1","0,1,0.5,0,1,0.5,1,0.5,0","3",""
"","html-keyboard-response","69","121145","0.0-100.0","32M8BPYGAU8JWQ9CG7IRGOCNWYNIG9","A1BWS5AD2T4NIR","3HUR21WDDUBEMSLDIXZW1FAIHVWXYO","","null","<img src=""img/food2.png"" style=""width:200px; border:14px solid green;"">","null","","","","","","","","","",""
"","image-keyboard-response","70","122015","0.0-102.0","32M8BPYGAU8JWQ9CG7IRGOCNWYNIG9","A1BWS5AD2T4NIR","3HUR21WDDUBEMSLDIXZW1FAIHVWXYO","","868.1000000014901","img/food4.png","76","869.8000000044703","3","0","false","1","2","1,0.5,0,1,0.5,0,0.5,0,1","0,1,0.5,0,1,0.5,1,0.5,0","3",""
"","html-keyboard-response","71","122317","0.0-103.0","32M8BPYGAU8JWQ9CG7IRGOCNWYNIG9","A1BWS5AD2T4NIR","3HUR21WDDUBEMSLDIXZW1FAIHVWXYO","","null","<img src=""img/food4.png"" style=""width:200px;border:14px solid red;"">","null","","","","","","","","","",""
"","image-keyboard-response","72","122958","0.0-105.0","32M8BPYGAU8JWQ9CG7IRGOCNWYNIG9","A1BWS5AD2T4NIR","3HUR21WDDUBEMSLDIXZW1FAIHVWXYO","","639","img/food2.png","75","640.7999999970198","2","1","false","2","2","1,0.5,0,1,0.5,0,0.5,0,1","0,1,0.5,0,1,0.5,1,0.5,0","3",""
"","html-keyboard-response","73","123260","0.0-106.0","32M8BPYGAU8JWQ9CG7IRGOCNWYNIG9","A1BWS5AD2T4NIR","3HUR21WDDUBEMSLDIXZW1FAIHVWXYO","","null","<img src=""img/food2.png"" style=""width:200px; border:14px solid green;"">","null","","","","","","","","","",""
"","image-keyboard-response","74","123942","0.0-108.0","32M8BPYGAU8JWQ9CG7IRGOCNWYNIG9","A1BWS5AD2T4NIR","3HUR21WDDUBEMSLDIXZW1FAIHVWXYO","","679.7000000029802","img/food1.png","75","681.3999999985099","2","1","false","3","2","1,0.5,0,1,0.5,0,0.5,0,1","0,1,0.5,0,1,0.5,1,0.5,0","3",""
"","html-keyboard-response","75","124245","0.0-109.0","32M8BPYGAU8JWQ9CG7IRGOCNWYNIG9","A1BWS5AD2T4NIR","3HUR21WDDUBEMSLDIXZW1FAIHVWXYO","","null","<img src=""img/food1.png"" style=""width:200px; border:14px solid green;"">","null","","","","","","","","","",""
"","image-keyboard-response","76","124990","0.0-111.0","32M8BPYGAU8JWQ9CG7IRGOCNWYNIG9","A1BWS5AD2T4NIR","3HUR21WDDUBEMSLDIXZW1FAIHVWXYO","","743.5999999940395","img/food4.png","76","745.1999999955297","3","0","false","1","2","1,0.5,0,1,0.5,0,0.5,0,1","0,1,0.5,0,1,0.5,1,0.5,0","3",""
"","html-keyboard-response","77","125293","0.0-112.0","32M8BPYGAU8JWQ9CG7IRGOCNWYNIG9","A1BWS5AD2T4NIR","3HUR21WDDUBEMSLDIXZW1FAIHVWXYO","","null","<img src=""img/food4.png"" style=""width:200px;border:14px solid red;"">","null","","","","","","","","","",""
"","image-keyboard-response","78","125902","0.0-114.0","32M8BPYGAU8JWQ9CG7IRGOCNWYNIG9","A1BWS5AD2T4NIR","3HUR21WDDUBEMSLDIXZW1FAIHVWXYO","","607.0999999940395","img/food4.png","76","608.8999999985099","3","0","false","1","2","1,0.5,0,1,0.5,0,0.5,0,1","0,1,0.5,0,1,0.5,1,0.5,0","3",""
"","html-keyboard-response","79","126205","0.0-115.0","32M8BPYGAU8JWQ9CG7IRGOCNWYNIG9","A1BWS5AD2T4NIR","3HUR21WDDUBEMSLDIXZW1FAIHVWXYO","","null","<img src=""img/food4.png"" style=""width:200px;border:14px solid red;"">","null","","","","","","","","","",""
"","image-keyboard-response","80","126870","0.0-117.0","32M8BPYGAU8JWQ9CG7IRGOCNWYNIG9","A1BWS5AD2T4NIR","3HUR21WDDUBEMSLDIXZW1FAIHVWXYO","","663.7999999970198","img/food1.png","75","665.3999999985099","2","1","false","3","2","1,0.5,0,1,0.5,0,0.5,0,1","0,1,0.5,0,1,0.5,1,0.5,0","3",""
"","html-keyboard-response","81","127173","0.0-118.0","32M8BPYGAU8JWQ9CG7IRGOCNWYNIG9","A1BWS5AD2T4NIR","3HUR21WDDUBEMSLDIXZW1FAIHVWXYO","","null","<img src=""img/food1.png"" style=""width:200px; border:14px solid green;"">","null","","","","","","","","","",""
"","image-keyboard-response","82","127758","0.0-120.0","32M8BPYGAU8JWQ9CG7IRGOCNWYNIG9","A1BWS5AD2T4NIR","3HUR21WDDUBEMSLDIXZW1FAIHVWXYO","","583.5","img/food4.png","76","585.2000000029802","3","0","false","1","2","1,0.5,0,1,0.5,0,0.5,0,1","0,1,0.5,0,1,0.5,1,0.5,0","3",""
"","html-keyboard-response","83","128060","0.0-121.0","32M8BPYGAU8JWQ9CG7IRGOCNWYNIG9","A1BWS5AD2T4NIR","3HUR21WDDUBEMSLDIXZW1FAIHVWXYO","","null","<img src=""img/food4.png"" style=""width:200px;border:14px solid red;"">","null","","","","","","","","","",""
"","image-keyboard-response","84","128758","0.0-123.0","32M8BPYGAU8JWQ9CG7IRGOCNWYNIG9","A1BWS5AD2T4NIR","3HUR21WDDUBEMSLDIXZW1FAIHVWXYO","","695.8999999985099","img/food1.png","75","697.5","2","1","false","3","2","1,0.5,0,1,0.5,0,0.5,0,1","0,1,0.5,0,1,0.5,1,0.5,0","3",""
"","html-keyboard-response","85","129060","0.0-124.0","32M8BPYGAU8JWQ9CG7IRGOCNWYNIG9","A1BWS5AD2T4NIR","3HUR21WDDUBEMSLDIXZW1FAIHVWXYO","","null","<img src=""img/food1.png"" style=""width:200px; border:14px solid green;"">","null","","","","","","","","","",""
"","image-keyboard-response","86","129499","0.0-126.0","32M8BPYGAU8JWQ9CG7IRGOCNWYNIG9","A1BWS5AD2T4NIR","3HUR21WDDUBEMSLDIXZW1FAIHVWXYO","","436.30000000447035","img/food4.png","74","437.70000000298023","1","0","false","1","2","1,0.5,0,1,0.5,0,0.5,0,1","0,1,0.5,0,1,0.5,1,0.5,0","3",""
"","html-keyboard-response","87","129801","0.0-127.0","32M8BPYGAU8JWQ9CG7IRGOCNWYNIG9","A1BWS5AD2T4NIR","3HUR21WDDUBEMSLDIXZW1FAIHVWXYO","","null","<img src=""img/food4.png"" style=""width:200px;border:14px solid red;"">","null","","","","","","","","","",""
"","image-keyboard-response","88","130462","0.0-129.0","32M8BPYGAU8JWQ9CG7IRGOCNWYNIG9","A1BWS5AD2T4NIR","3HUR21WDDUBEMSLDIXZW1FAIHVWXYO","","660.1000000014901","img/food1.png","75","661.3999999985099","2","1","false","3","2","1,0.5,0,1,0.5,0,0.5,0,1","0,1,0.5,0,1,0.5,1,0.5,0","3",""
"","html-keyboard-response","89","130764","0.0-130.0","32M8BPYGAU8JWQ9CG7IRGOCNWYNIG9","A1BWS5AD2T4NIR","3HUR21WDDUBEMSLDIXZW1FAIHVWXYO","","null","<img src=""img/food1.png"" style=""width:200px; border:14px solid green;"">","null","","","","","","","","","",""
"","image-keyboard-response","90","131270","0.0-132.0","32M8BPYGAU8JWQ9CG7IRGOCNWYNIG9","A1BWS5AD2T4NIR","3HUR21WDDUBEMSLDIXZW1FAIHVWXYO","","504.6000000014901","img/food4.png","74","505.69999999552965","1","0","false","1","2","1,0.5,0,1,0.5,0,0.5,0,1","0,1,0.5,0,1,0.5,1,0.5,0","3",""
"","html-keyboard-response","91","131573","0.0-133.0","32M8BPYGAU8JWQ9CG7IRGOCNWYNIG9","A1BWS5AD2T4NIR","3HUR21WDDUBEMSLDIXZW1FAIHVWXYO","","null","<img src=""img/food4.png"" style=""width:200px;border:14px solid red;"">","null","","","","","","","","","",""
"","image-keyboard-response","92","132198","0.0-135.0","32M8BPYGAU8JWQ9CG7IRGOCNWYNIG9","A1BWS5AD2T4NIR","3HUR21WDDUBEMSLDIXZW1FAIHVWXYO","","623.6999999955297","img/food2.png","75","625.2999999970198","2","1","false","2","2","1,0.5,0,1,0.5,0,0.5,0,1","0,1,0.5,0,1,0.5,1,0.5,0","3",""
"","html-keyboard-response","93","132501","0.0-136.0","32M8BPYGAU8JWQ9CG7IRGOCNWYNIG9","A1BWS5AD2T4NIR","3HUR21WDDUBEMSLDIXZW1FAIHVWXYO","","null","<img src=""img/food2.png"" style=""width:200px; border:14px solid green;"">","null","","","","","","","","","",""
"","image-keyboard-response","94","133079","0.0-138.0","32M8BPYGAU8JWQ9CG7IRGOCNWYNIG9","A1BWS5AD2T4NIR","3HUR21WDDUBEMSLDIXZW1FAIHVWXYO","","576","img/food4.png","74","577.6000000014901","1","0","false","1","2","1,0.5,0,1,0.5,0,0.5,0,1","0,1,0.5,0,1,0.5,1,0.5,0","3",""
"","html-keyboard-response","95","133381","0.0-139.0","32M8BPYGAU8JWQ9CG7IRGOCNWYNIG9","A1BWS5AD2T4NIR","3HUR21WDDUBEMSLDIXZW1FAIHVWXYO","","null","<img src=""img/food4.png"" style=""width:200px;border:14px solid red;"">","null","","","","","","","","","",""
"","image-keyboard-response","96","134054","0.0-141.0","32M8BPYGAU8JWQ9CG7IRGOCNWYNIG9","A1BWS5AD2T4NIR","3HUR21WDDUBEMSLDIXZW1FAIHVWXYO","","671.5","img/food4.png","74","673.2000000029802","1","0","false","1","2","1,0.5,0,1,0.5,0,0.5,0,1","0,1,0.5,0,1,0.5,1,0.5,0","3",""
"","html-keyboard-response","97","134357","0.0-142.0","32M8BPYGAU8JWQ9CG7IRGOCNWYNIG9","A1BWS5AD2T4NIR","3HUR21WDDUBEMSLDIXZW1FAIHVWXYO","","null","<img src=""img/food4.png"" style=""width:200px;border:14px solid red;"">","null","","","","","","","","","",""
"","image-keyboard-response","98","135046","0.0-144.0","32M8BPYGAU8JWQ9CG7IRGOCNWYNIG9","A1BWS5AD2T4NIR","3HUR21WDDUBEMSLDIXZW1FAIHVWXYO","","687.7000000029802","img/food2.png","75","689","2","1","false","2","2","1,0.5,0,1,0.5,0,0.5,0,1","0,1,0.5,0,1,0.5,1,0.5,0","3",""
"","html-keyboard-response","99","135348","0.0-145.0","32M8BPYGAU8JWQ9CG7IRGOCNWYNIG9","A1BWS5AD2T4NIR","3HUR21WDDUBEMSLDIXZW1FAIHVWXYO","","null","<img src=""img/food2.png"" style=""width:200px; border:14px solid green;"">","null","","","","","","","","","",""
"","image-keyboard-response","100","136102","0.0-147.0","32M8BPYGAU8JWQ9CG7IRGOCNWYNIG9","A1BWS5AD2T4NIR","3HUR21WDDUBEMSLDIXZW1FAIHVWXYO","","752.7999999970198","img/food1.png","75","754.1000000014901","2","1","false","3","2","1,0.5,0,1,0.5,0,0.5,0,1","0,1,0.5,0,1,0.5,1,0.5,0","3",""
"","html-keyboard-response","101","136404","0.0-148.0","32M8BPYGAU8JWQ9CG7IRGOCNWYNIG9","A1BWS5AD2T4NIR","3HUR21WDDUBEMSLDIXZW1FAIHVWXYO","","null","<img src=""img/food1.png"" style=""width:200px; border:14px solid green;"">","null","","","","","","","","","",""
"","image-keyboard-response","102","137014","0.0-150.0","32M8BPYGAU8JWQ9CG7IRGOCNWYNIG9","A1BWS5AD2T4NIR","3HUR21WDDUBEMSLDIXZW1FAIHVWXYO","","607.8999999985099","img/food1.png","75","609.5","2","1","false","3","2","1,0.5,0,1,0.5,0,0.5,0,1","0,1,0.5,0,1,0.5,1,0.5,0","3",""
"","html-keyboard-response","103","137317","0.0-151.0","32M8BPYGAU8JWQ9CG7IRGOCNWYNIG9","A1BWS5AD2T4NIR","3HUR21WDDUBEMSLDIXZW1FAIHVWXYO","","null","<img src=""img/food1.png"" style=""width:200px; border:14px solid green;"">","null","","","","","","","","","",""
"","image-keyboard-response","104","137943","0.0-153.0","32M8BPYGAU8JWQ9CG7IRGOCNWYNIG9","A1BWS5AD2T4NIR","3HUR21WDDUBEMSLDIXZW1FAIHVWXYO","","623.8000000044703","img/food4.png","76","625.5","3","1","false","1","2","1,0.5,0,1,0.5,0,0.5,0,1","0,1,0.5,0,1,0.5,1,0.5,0","3",""
"","html-keyboard-response","105","138245","0.0-154.0","32M8BPYGAU8JWQ9CG7IRGOCNWYNIG9","A1BWS5AD2T4NIR","3HUR21WDDUBEMSLDIXZW1FAIHVWXYO","","null","<img src=""img/food4.png"" style=""width:200px; border:14px solid green;"">","null","","","","","","","","","",""
"","image-keyboard-response","106","139063","0.0-156.0","32M8BPYGAU8JWQ9CG7IRGOCNWYNIG9","A1BWS5AD2T4NIR","3HUR21WDDUBEMSLDIXZW1FAIHVWXYO","","815.7999999970198","img/food1.png","75","817.2999999970198","2","0","false","3","2","1,0.5,0,1,0.5,0,0.5,0,1","0,1,0.5,0,1,0.5,1,0.5,0","3",""
"","html-keyboard-response","107","139365","0.0-157.0","32M8BPYGAU8JWQ9CG7IRGOCNWYNIG9","A1BWS5AD2T4NIR","3HUR21WDDUBEMSLDIXZW1FAIHVWXYO","","null","<img src=""img/food1.png"" style=""width:200px;border:14px solid red;"">","null","","","","","","","","","",""
"","image-keyboard-response","108","140188","0.0-159.0","32M8BPYGAU8JWQ9CG7IRGOCNWYNIG9","A1BWS5AD2T4NIR","3HUR21WDDUBEMSLDIXZW1FAIHVWXYO","","820.5","img/food2.png","74","822.1000000014901","1","0","false","2","2","1,0.5,0,1,0.5,0,0.5,0,1","0,1,0.5,0,1,0.5,1,0.5,0","3",""
"","html-keyboard-response","109","140490","0.0-160.0","32M8BPYGAU8JWQ9CG7IRGOCNWYNIG9","A1BWS5AD2T4NIR","3HUR21WDDUBEMSLDIXZW1FAIHVWXYO","","null","<img src=""img/food2.png"" style=""width:200px;border:14px solid red;"">","null","","","","","","","","","",""
"","image-keyboard-response","110","141006","0.0-162.0","32M8BPYGAU8JWQ9CG7IRGOCNWYNIG9","A1BWS5AD2T4NIR","3HUR21WDDUBEMSLDIXZW1FAIHVWXYO","","513.8999999985099","img/food2.png","74","515.7000000029802","1","0","false","2","2","1,0.5,0,1,0.5,0,0.5,0,1","0,1,0.5,0,1,0.5,1,0.5,0","3",""
"","html-keyboard-response","111","141308","0.0-163.0","32M8BPYGAU8JWQ9CG7IRGOCNWYNIG9","A1BWS5AD2T4NIR","3HUR21WDDUBEMSLDIXZW1FAIHVWXYO","","null","<img src=""img/food2.png"" style=""width:200px;border:14px solid red;"">","null","","","","","","","","","",""
"","image-keyboard-response","112","141950","0.0-165.0","32M8BPYGAU8JWQ9CG7IRGOCNWYNIG9","A1BWS5AD2T4NIR","3HUR21WDDUBEMSLDIXZW1FAIHVWXYO","","639.7000000029802","img/food1.png","75","641.2000000029802","2","1","false","3","2","1,0.5,0,1,0.5,0,0.5,0,1","0,1,0.5,0,1,0.5,1,0.5,0","3",""
"","html-keyboard-response","113","142252","0.0-166.0","32M8BPYGAU8JWQ9CG7IRGOCNWYNIG9","A1BWS5AD2T4NIR","3HUR21WDDUBEMSLDIXZW1FAIHVWXYO","","null","<img src=""img/food1.png"" style=""width:200px; border:14px solid green;"">","null","","","","","","","","","",""
"","image-keyboard-response","114","142926","0.0-168.0","32M8BPYGAU8JWQ9CG7IRGOCNWYNIG9","A1BWS5AD2T4NIR","3HUR21WDDUBEMSLDIXZW1FAIHVWXYO","","671.6000000014901","img/food2.png","75","673.2000000029802","2","1","false","2","2","1,0.5,0,1,0.5,0,0.5,0,1","0,1,0.5,0,1,0.5,1,0.5,0","3",""
"","html-keyboard-response","115","143228","0.0-169.0","32M8BPYGAU8JWQ9CG7IRGOCNWYNIG9","A1BWS5AD2T4NIR","3HUR21WDDUBEMSLDIXZW1FAIHVWXYO","","null","<img src=""img/food2.png"" style=""width:200px; border:14px solid green;"">","null","","","","","","","","","",""
"","image-keyboard-response","116","143838","0.0-171.0","32M8BPYGAU8JWQ9CG7IRGOCNWYNIG9","A1BWS5AD2T4NIR","3HUR21WDDUBEMSLDIXZW1FAIHVWXYO","","607.6000000014901","img/food4.png","76","609.2000000029802","3","0","false","1","2","1,0.5,0,1,0.5,0,0.5,0,1","0,1,0.5,0,1,0.5,1,0.5,0","3",""
"","html-keyboard-response","117","144141","0.0-172.0","32M8BPYGAU8JWQ9CG7IRGOCNWYNIG9","A1BWS5AD2T4NIR","3HUR21WDDUBEMSLDIXZW1FAIHVWXYO","","null","<img src=""img/food4.png"" style=""width:200px;border:14px solid red;"">","null","","","","","","","","","",""
"","image-keyboard-response","118","144863","0.0-174.0","32M8BPYGAU8JWQ9CG7IRGOCNWYNIG9","A1BWS5AD2T4NIR","3HUR21WDDUBEMSLDIXZW1FAIHVWXYO","","718.2999999970198","img/food1.png","75","720.7000000029802","2","0","false","3","2","1,0.5,0,1,0.5,0,0.5,0,1","0,1,0.5,0,1,0.5,1,0.5,0","3",""
"","html-keyboard-response","119","145165","0.0-175.0","32M8BPYGAU8JWQ9CG7IRGOCNWYNIG9","A1BWS5AD2T4NIR","3HUR21WDDUBEMSLDIXZW1FAIHVWXYO","","null","<img src=""img/food1.png"" style=""width:200px;border:14px solid red;"">","null","","","","","","","","","",""
"","image-keyboard-response","120","145919","0.0-177.0","32M8BPYGAU8JWQ9CG7IRGOCNWYNIG9","A1BWS5AD2T4NIR","3HUR21WDDUBEMSLDIXZW1FAIHVWXYO","","751.7999999970198","img/food2.png","75","753.3999999985099","2","1","false","2","2","1,0.5,0,1,0.5,0,0.5,0,1","0,1,0.5,0,1,0.5,1,0.5,0","3",""
"","html-keyboard-response","121","146221","0.0-178.0","32M8BPYGAU8JWQ9CG7IRGOCNWYNIG9","A1BWS5AD2T4NIR","3HUR21WDDUBEMSLDIXZW1FAIHVWXYO","","null","<img src=""img/food2.png"" style=""width:200px; border:14px solid green;"">","null","","","","","","","","","",""
"","image-keyboard-response","122","146830","0.0-180.0","32M8BPYGAU8JWQ9CG7IRGOCNWYNIG9","A1BWS5AD2T4NIR","3HUR21WDDUBEMSLDIXZW1FAIHVWXYO","","607.5","img/food1.png","75","609","2","0","false","3","2","1,0.5,0,1,0.5,0,0.5,0,1","0,1,0.5,0,1,0.5,1,0.5,0","3",""
"","html-keyboard-response","123","147133","0.0-181.0","32M8BPYGAU8JWQ9CG7IRGOCNWYNIG9","A1BWS5AD2T4NIR","3HUR21WDDUBEMSLDIXZW1FAIHVWXYO","","null","<img src=""img/food1.png"" style=""width:200px;border:14px solid red;"">","null","","","","","","","","","",""
"","image-keyboard-response","124","147774","0.0-183.0","32M8BPYGAU8JWQ9CG7IRGOCNWYNIG9","A1BWS5AD2T4NIR","3HUR21WDDUBEMSLDIXZW1FAIHVWXYO","","639.8000000044703","img/food1.png","75","641.1999999955297","2","1","false","3","2","1,0.5,0,1,0.5,0,0.5,0,1","0,1,0.5,0,1,0.5,1,0.5,0","3",""
"","html-keyboard-response","125","148076","0.0-184.0","32M8BPYGAU8JWQ9CG7IRGOCNWYNIG9","A1BWS5AD2T4NIR","3HUR21WDDUBEMSLDIXZW1FAIHVWXYO","","null","<img src=""img/food1.png"" style=""width:200px; border:14px solid green;"">","null","","","","","","","","","",""
"","image-keyboard-response","126","148846","0.0-186.0","32M8BPYGAU8JWQ9CG7IRGOCNWYNIG9","A1BWS5AD2T4NIR","3HUR21WDDUBEMSLDIXZW1FAIHVWXYO","","768.2000000029802","img/food2.png","75","769.4000000059605","2","1","false","2","2","1,0.5,0,1,0.5,0,0.5,0,1","0,1,0.5,0,1,0.5,1,0.5,0","3",""
"","html-keyboard-response","127","149149","0.0-187.0","32M8BPYGAU8JWQ9CG7IRGOCNWYNIG9","A1BWS5AD2T4NIR","3HUR21WDDUBEMSLDIXZW1FAIHVWXYO","","null","<img src=""img/food2.png"" style=""width:200px; border:14px solid green;"">","null","","","","","","","","","",""
"","image-keyboard-response","128","149798","0.0-189.0","32M8BPYGAU8JWQ9CG7IRGOCNWYNIG9","A1BWS5AD2T4NIR","3HUR21WDDUBEMSLDIXZW1FAIHVWXYO","","647.7000000029802","img/food4.png","76","649.2999999970198","3","0","false","1","2","1,0.5,0,1,0.5,0,0.5,0,1","0,1,0.5,0,1,0.5,1,0.5,0","3",""
"","html-keyboard-response","129","150100","0.0-190.0","32M8BPYGAU8JWQ9CG7IRGOCNWYNIG9","A1BWS5AD2T4NIR","3HUR21WDDUBEMSLDIXZW1FAIHVWXYO","","null","<img src=""img/food4.png"" style=""width:200px;border:14px solid red;"">","null","","","","","","","","","",""
"","image-keyboard-response","130","150626","0.0-192.0","32M8BPYGAU8JWQ9CG7IRGOCNWYNIG9","A1BWS5AD2T4NIR","3HUR21WDDUBEMSLDIXZW1FAIHVWXYO","","524.1999999955297","img/food2.png","75","525.5999999940395","2","1","false","2","2","1,0.5,0,1,0.5,0,0.5,0,1","0,1,0.5,0,1,0.5,1,0.5,0","3",""
"","html-keyboard-response","131","150928","0.0-193.0","32M8BPYGAU8JWQ9CG7IRGOCNWYNIG9","A1BWS5AD2T4NIR","3HUR21WDDUBEMSLDIXZW1FAIHVWXYO","","null","<img src=""img/food2.png"" style=""width:200px; border:14px solid green;"">","null","","","","","","","","","",""
"","image-keyboard-response","132","151518","0.0-195.0","32M8BPYGAU8JWQ9CG7IRGOCNWYNIG9","A1BWS5AD2T4NIR","3HUR21WDDUBEMSLDIXZW1FAIHVWXYO","","587.8999999985099","img/food4.png","75","589.5","2","1","false","1","2","1,0.5,0,1,0.5,0,0.5,0,1","0,1,0.5,0,1,0.5,1,0.5,0","3",""
"","html-keyboard-response","133","151820","0.0-196.0","32M8BPYGAU8JWQ9CG7IRGOCNWYNIG9","A1BWS5AD2T4NIR","3HUR21WDDUBEMSLDIXZW1FAIHVWXYO","","null","<img src=""img/food4.png"" style=""width:200px; border:14px solid green;"">","null","","","","","","","","","",""
"","image-keyboard-response","134","152750","0.0-198.0","32M8BPYGAU8JWQ9CG7IRGOCNWYNIG9","A1BWS5AD2T4NIR","3HUR21WDDUBEMSLDIXZW1FAIHVWXYO","","928.3000000044703","img/food2.png","75","929.7000000029802","2","1","false","2","2","1,0.5,0,1,0.5,0,0.5,0,1","0,1,0.5,0,1,0.5,1,0.5,0","3",""
"","html-keyboard-response","135","153053","0.0-199.0","32M8BPYGAU8JWQ9CG7IRGOCNWYNIG9","A1BWS5AD2T4NIR","3HUR21WDDUBEMSLDIXZW1FAIHVWXYO","","null","<img src=""img/food2.png"" style=""width:200px; border:14px solid green;"">","null","","","","","","","","","",""
"","image-keyboard-response","136","153670","0.0-201.0","32M8BPYGAU8JWQ9CG7IRGOCNWYNIG9","A1BWS5AD2T4NIR","3HUR21WDDUBEMSLDIXZW1FAIHVWXYO","","615.6000000014901","img/food2.png","75","617.2999999970198","2","1","false","2","2","1,0.5,0,1,0.5,0,0.5,0,1","0,1,0.5,0,1,0.5,1,0.5,0","3",""
"","html-keyboard-response","137","153972","0.0-202.0","32M8BPYGAU8JWQ9CG7IRGOCNWYNIG9","A1BWS5AD2T4NIR","3HUR21WDDUBEMSLDIXZW1FAIHVWXYO","","null","<img src=""img/food2.png"" style=""width:200px; border:14px solid green;"">","null","","","","","","","","","",""
"","image-keyboard-response","138","154686","0.0-204.0","32M8BPYGAU8JWQ9CG7IRGOCNWYNIG9","A1BWS5AD2T4NIR","3HUR21WDDUBEMSLDIXZW1FAIHVWXYO","","712.1999999955297","img/food4.png","75","713.6000000014901","2","1","false","1","2","1,0.5,0,1,0.5,0,0.5,0,1","0,1,0.5,0,1,0.5,1,0.5,0","3",""
"","html-keyboard-response","139","154989","0.0-205.0","32M8BPYGAU8JWQ9CG7IRGOCNWYNIG9","A1BWS5AD2T4NIR","3HUR21WDDUBEMSLDIXZW1FAIHVWXYO","","null","<img src=""img/food4.png"" style=""width:200px; border:14px solid green;"">","null","","","","","","","","","",""
"","image-keyboard-response","140","155630","0.0-207.0","32M8BPYGAU8JWQ9CG7IRGOCNWYNIG9","A1BWS5AD2T4NIR","3HUR21WDDUBEMSLDIXZW1FAIHVWXYO","","639.3000000044703","img/food4.png","75","641.0999999940395","2","1","false","1","2","1,0.5,0,1,0.5,0,0.5,0,1","0,1,0.5,0,1,0.5,1,0.5,0","3",""
"","html-keyboard-response","141","155932","0.0-208.0","32M8BPYGAU8JWQ9CG7IRGOCNWYNIG9","A1BWS5AD2T4NIR","3HUR21WDDUBEMSLDIXZW1FAIHVWXYO","","null","<img src=""img/food4.png"" style=""width:200px; border:14px solid green;"">","null","","","","","","","","","",""
"","image-keyboard-response","142","156726","0.0-210.0","32M8BPYGAU8JWQ9CG7IRGOCNWYNIG9","A1BWS5AD2T4NIR","3HUR21WDDUBEMSLDIXZW1FAIHVWXYO","","792.1999999955297","img/food2.png","75","793.6000000014901","2","1","false","2","2","1,0.5,0,1,0.5,0,0.5,0,1","0,1,0.5,0,1,0.5,1,0.5,0","3",""
"","html-keyboard-response","143","157029","0.0-211.0","32M8BPYGAU8JWQ9CG7IRGOCNWYNIG9","A1BWS5AD2T4NIR","3HUR21WDDUBEMSLDIXZW1FAIHVWXYO","","null","<img src=""img/food2.png"" style=""width:200px; border:14px solid green;"">","null","","","","","","","","","",""
"","image-keyboard-response","144","157662","0.0-213.0","32M8BPYGAU8JWQ9CG7IRGOCNWYNIG9","A1BWS5AD2T4NIR","3HUR21WDDUBEMSLDIXZW1FAIHVWXYO","","632","img/food1.png","75","633.2999999970198","2","0","false","3","2","1,0.5,0,1,0.5,0,0.5,0,1","0,1,0.5,0,1,0.5,1,0.5,0","3",""
"","html-keyboard-response","145","157965","0.0-214.0","32M8BPYGAU8JWQ9CG7IRGOCNWYNIG9","A1BWS5AD2T4NIR","3HUR21WDDUBEMSLDIXZW1FAIHVWXYO","","null","<img src=""img/food1.png"" style=""width:200px;border:14px solid red;"">","null","","","","","","","","","",""
"","image-keyboard-response","146","158622","0.0-216.0","32M8BPYGAU8JWQ9CG7IRGOCNWYNIG9","A1BWS5AD2T4NIR","3HUR21WDDUBEMSLDIXZW1FAIHVWXYO","","653.1000000014901","img/food4.png","75","657.1000000014901","2","1","false","1","2","1,0.5,0,1,0.5,0,0.5,0,1","0,1,0.5,0,1,0.5,1,0.5,0","3",""
"","html-keyboard-response","147","158924","0.0-217.0","32M8BPYGAU8JWQ9CG7IRGOCNWYNIG9","A1BWS5AD2T4NIR","3HUR21WDDUBEMSLDIXZW1FAIHVWXYO","","null","<img src=""img/food4.png"" style=""width:200px; border:14px solid green;"">","null","","","","","","","","","",""
"","image-keyboard-response","148","159511","0.0-219.0","32M8BPYGAU8JWQ9CG7IRGOCNWYNIG9","A1BWS5AD2T4NIR","3HUR21WDDUBEMSLDIXZW1FAIHVWXYO","","584.3999999985099","img/food4.png","75","585.8999999985099","2","1","false","1","2","1,0.5,0,1,0.5,0,0.5,0,1","0,1,0.5,0,1,0.5,1,0.5,0","3",""
"","html-keyboard-response","149","159813","0.0-220.0","32M8BPYGAU8JWQ9CG7IRGOCNWYNIG9","A1BWS5AD2T4NIR","3HUR21WDDUBEMSLDIXZW1FAIHVWXYO","","null","<img src=""img/food4.png"" style=""width:200px; border:14px solid green;"">","null","","","","","","","","","",""
"","image-keyboard-response","150","160454","0.0-222.0","32M8BPYGAU8JWQ9CG7IRGOCNWYNIG9","A1BWS5AD2T4NIR","3HUR21WDDUBEMSLDIXZW1FAIHVWXYO","","640.1000000014901","img/food1.png","75","641.1999999955297","2","1","false","3","2","1,0.5,0,1,0.5,0,0.5,0,1","0,1,0.5,0,1,0.5,1,0.5,0","3",""
"","html-keyboard-response","151","160756","0.0-223.0","32M8BPYGAU8JWQ9CG7IRGOCNWYNIG9","A1BWS5AD2T4NIR","3HUR21WDDUBEMSLDIXZW1FAIHVWXYO","","null","<img src=""img/food1.png"" style=""width:200px; border:14px solid green;"">","null","","","","","","","","","",""
"","image-keyboard-response","152","161388","0.0-225.0","32M8BPYGAU8JWQ9CG7IRGOCNWYNIG9","A1BWS5AD2T4NIR","3HUR21WDDUBEMSLDIXZW1FAIHVWXYO","","629.7000000029802","img/food2.png","75","630.8000000044703","2","1","false","2","2","1,0.5,0,1,0.5,0,0.5,0,1","0,1,0.5,0,1,0.5,1,0.5,0","3",""
"","html-keyboard-response","153","161690","0.0-226.0","32M8BPYGAU8JWQ9CG7IRGOCNWYNIG9","A1BWS5AD2T4NIR","3HUR21WDDUBEMSLDIXZW1FAIHVWXYO","","null","<img src=""img/food2.png"" style=""width:200px; border:14px solid green;"">","null","","","","","","","","","",""
"","image-keyboard-response","154","162382","0.0-228.0","32M8BPYGAU8JWQ9CG7IRGOCNWYNIG9","A1BWS5AD2T4NIR","3HUR21WDDUBEMSLDIXZW1FAIHVWXYO","","690","img/food2.png","75","691.7000000029802","2","1","false","2","2","1,0.5,0,1,0.5,0,0.5,0,1","0,1,0.5,0,1,0.5,1,0.5,0","3",""
"","html-keyboard-response","155","162684","0.0-229.0","32M8BPYGAU8JWQ9CG7IRGOCNWYNIG9","A1BWS5AD2T4NIR","3HUR21WDDUBEMSLDIXZW1FAIHVWXYO","","null","<img src=""img/food2.png"" style=""width:200px; border:14px solid green;"">","null","","","","","","","","","",""
"","image-keyboard-response","156","163302","0.0-231.0","32M8BPYGAU8JWQ9CG7IRGOCNWYNIG9","A1BWS5AD2T4NIR","3HUR21WDDUBEMSLDIXZW1FAIHVWXYO","","615.8000000044703","img/food4.png","75","617.4000000059605","2","1","false","1","2","1,0.5,0,1,0.5,0,0.5,0,1","0,1,0.5,0,1,0.5,1,0.5,0","3",""
"","html-keyboard-response","157","163604","0.0-232.0","32M8BPYGAU8JWQ9CG7IRGOCNWYNIG9","A1BWS5AD2T4NIR","3HUR21WDDUBEMSLDIXZW1FAIHVWXYO","","null","<img src=""img/food4.png"" style=""width:200px; border:14px solid green;"">","null","","","","","","","","","",""
"","image-keyboard-response","158","164246","0.0-234.0","32M8BPYGAU8JWQ9CG7IRGOCNWYNIG9","A1BWS5AD2T4NIR","3HUR21WDDUBEMSLDIXZW1FAIHVWXYO","","640.1000000014901","img/food2.png","75","641.3999999985099","2","1","false","2","2","1,0.5,0,1,0.5,0,0.5,0,1","0,1,0.5,0,1,0.5,1,0.5,0","3",""
"","html-keyboard-response","159","164548","0.0-235.0","32M8BPYGAU8JWQ9CG7IRGOCNWYNIG9","A1BWS5AD2T4NIR","3HUR21WDDUBEMSLDIXZW1FAIHVWXYO","","null","<img src=""img/food2.png"" style=""width:200px; border:14px solid green;"">","null","","","","","","","","","",""
"","image-keyboard-response","160","165110","0.0-237.0","32M8BPYGAU8JWQ9CG7IRGOCNWYNIG9","A1BWS5AD2T4NIR","3HUR21WDDUBEMSLDIXZW1FAIHVWXYO","","559.6000000014901","img/food4.png","75","561","2","1","false","1","2","1,0.5,0,1,0.5,0,0.5,0,1","0,1,0.5,0,1,0.5,1,0.5,0","3",""
"","html-keyboard-response","161","165412","0.0-238.0","32M8BPYGAU8JWQ9CG7IRGOCNWYNIG9","A1BWS5AD2T4NIR","3HUR21WDDUBEMSLDIXZW1FAIHVWXYO","","null","<img src=""img/food4.png"" style=""width:200px; border:14px solid green;"">","null","","","","","","","","","",""
"","image-keyboard-response","162","166006","0.0-240.0","32M8BPYGAU8JWQ9CG7IRGOCNWYNIG9","A1BWS5AD2T4NIR","3HUR21WDDUBEMSLDIXZW1FAIHVWXYO","","592.1000000014901","img/food4.png","75","593.9000000059605","2","1","false","1","2","1,0.5,0,1,0.5,0,0.5,0,1","0,1,0.5,0,1,0.5,1,0.5,0","3",""
"","html-keyboard-response","163","166309","0.0-241.0","32M8BPYGAU8JWQ9CG7IRGOCNWYNIG9","A1BWS5AD2T4NIR","3HUR21WDDUBEMSLDIXZW1FAIHVWXYO","","null","<img src=""img/food4.png"" style=""width:200px; border:14px solid green;"">","null","","","","","","","","","",""
"","image-keyboard-response","164","166854","0.0-243.0","32M8BPYGAU8JWQ9CG7IRGOCNWYNIG9","A1BWS5AD2T4NIR","3HUR21WDDUBEMSLDIXZW1FAIHVWXYO","","543.5","img/food2.png","75","545","2","1","false","2","2","1,0.5,0,1,0.5,0,0.5,0,1","0,1,0.5,0,1,0.5,1,0.5,0","3",""
"","html-keyboard-response","165","167156","0.0-244.0","32M8BPYGAU8JWQ9CG7IRGOCNWYNIG9","A1BWS5AD2T4NIR","3HUR21WDDUBEMSLDIXZW1FAIHVWXYO","","null","<img src=""img/food2.png"" style=""width:200px; border:14px solid green;"">","null","","","","","","","","","",""
"","image-keyboard-response","166","167662","0.0-246.0","32M8BPYGAU8JWQ9CG7IRGOCNWYNIG9","A1BWS5AD2T4NIR","3HUR21WDDUBEMSLDIXZW1FAIHVWXYO","","503.6000000014901","img/food4.png","75","505.30000000447035","2","1","false","1","2","1,0.5,0,1,0.5,0,0.5,0,1","0,1,0.5,0,1,0.5,1,0.5,0","3",""
"","html-keyboard-response","167","167964","0.0-247.0","32M8BPYGAU8JWQ9CG7IRGOCNWYNIG9","A1BWS5AD2T4NIR","3HUR21WDDUBEMSLDIXZW1FAIHVWXYO","","null","<img src=""img/food4.png"" style=""width:200px; border:14px solid green;"">","null","","","","","","","","","",""
"","image-keyboard-response","168","168606","0.0-249.0","32M8BPYGAU8JWQ9CG7IRGOCNWYNIG9","A1BWS5AD2T4NIR","3HUR21WDDUBEMSLDIXZW1FAIHVWXYO","","640.1000000014901","img/food4.png","75","641.5","2","1","false","1","2","1,0.5,0,1,0.5,0,0.5,0,1","0,1,0.5,0,1,0.5,1,0.5,0","3",""
"","html-keyboard-response","169","168908","0.0-250.0","32M8BPYGAU8JWQ9CG7IRGOCNWYNIG9","A1BWS5AD2T4NIR","3HUR21WDDUBEMSLDIXZW1FAIHVWXYO","","null","<img src=""img/food4.png"" style=""width:200px; border:14px solid green;"">","null","","","","","","","","","",""
"","image-keyboard-response","170","169462","0.0-252.0","32M8BPYGAU8JWQ9CG7IRGOCNWYNIG9","A1BWS5AD2T4NIR","3HUR21WDDUBEMSLDIXZW1FAIHVWXYO","","552.3999999985099","img/food2.png","75","553.8999999985099","2","1","false","2","2","1,0.5,0,1,0.5,0,0.5,0,1","0,1,0.5,0,1,0.5,1,0.5,0","3",""
"","html-keyboard-response","171","169764","0.0-253.0","32M8BPYGAU8JWQ9CG7IRGOCNWYNIG9","A1BWS5AD2T4NIR","3HUR21WDDUBEMSLDIXZW1FAIHVWXYO","","null","<img src=""img/food2.png"" style=""width:200px; border:14px solid green;"">","null","","","","","","","","","",""
"","image-keyboard-response","172","170374","0.0-255.0","32M8BPYGAU8JWQ9CG7IRGOCNWYNIG9","A1BWS5AD2T4NIR","3HUR21WDDUBEMSLDIXZW1FAIHVWXYO","","608","img/food2.png","75","609.3000000044703","2","1","false","2","2","1,0.5,0,1,0.5,0,0.5,0,1","0,1,0.5,0,1,0.5,1,0.5,0","3",""
"","html-keyboard-response","173","170676","0.0-256.0","32M8BPYGAU8JWQ9CG7IRGOCNWYNIG9","A1BWS5AD2T4NIR","3HUR21WDDUBEMSLDIXZW1FAIHVWXYO","","null","<img src=""img/food2.png"" style=""width:200px; border:14px solid green;"">","null","","","","","","","","","",""
"","image-keyboard-response","174","171350","0.0-258.0","32M8BPYGAU8JWQ9CG7IRGOCNWYNIG9","A1BWS5AD2T4NIR","3HUR21WDDUBEMSLDIXZW1FAIHVWXYO","","671.6000000014901","img/food1.png","75","673.3000000044703","2","0","false","3","2","1,0.5,0,1,0.5,0,0.5,0,1","0,1,0.5,0,1,0.5,1,0.5,0","3",""
"","html-keyboard-response","175","171652","0.0-259.0","32M8BPYGAU8JWQ9CG7IRGOCNWYNIG9","A1BWS5AD2T4NIR","3HUR21WDDUBEMSLDIXZW1FAIHVWXYO","","null","<img src=""img/food1.png"" style=""width:200px;border:14px solid red;"">","null","","","","","","","","","",""
"","image-keyboard-response","176","172363","0.0-261.0","32M8BPYGAU8JWQ9CG7IRGOCNWYNIG9","A1BWS5AD2T4NIR","3HUR21WDDUBEMSLDIXZW1FAIHVWXYO","","708.8999999985099","img/food4.png","75","710.3999999985099","2","1","false","1","2","1,0.5,0,1,0.5,0,0.5,0,1","0,1,0.5,0,1,0.5,1,0.5,0","3",""
"","html-keyboard-response","177","172665","0.0-262.0","32M8BPYGAU8JWQ9CG7IRGOCNWYNIG9","A1BWS5AD2T4NIR","3HUR21WDDUBEMSLDIXZW1FAIHVWXYO","","null","<img src=""img/food4.png"" style=""width:200px; border:14px solid green;"">","null","","","","","","","","","",""
"","image-keyboard-response","178","173182","0.0-264.0","32M8BPYGAU8JWQ9CG7IRGOCNWYNIG9","A1BWS5AD2T4NIR","3HUR21WDDUBEMSLDIXZW1FAIHVWXYO","","514.8999999985099","img/food2.png","75","516.2000000029802","2","1","false","2","2","1,0.5,0,1,0.5,0,0.5,0,1","0,1,0.5,0,1,0.5,1,0.5,0","3",""
"","html-keyboard-response","179","173485","0.0-265.0","32M8BPYGAU8JWQ9CG7IRGOCNWYNIG9","A1BWS5AD2T4NIR","3HUR21WDDUBEMSLDIXZW1FAIHVWXYO","","null","<img src=""img/food2.png"" style=""width:200px; border:14px solid green;"">","null","","","","","","","","","",""
"","image-keyboard-response","180","174147","0.0-267.0","32M8BPYGAU8JWQ9CG7IRGOCNWYNIG9","A1BWS5AD2T4NIR","3HUR21WDDUBEMSLDIXZW1FAIHVWXYO","","660.2999999970198","img/food1.png","75","662.1000000014901","2","1","false","3","2","1,0.5,0,1,0.5,0,0.5,0,1","0,1,0.5,0,1,0.5,1,0.5,0","3",""
"","html-keyboard-response","181","174450","0.0-268.0","32M8BPYGAU8JWQ9CG7IRGOCNWYNIG9","A1BWS5AD2T4NIR","3HUR21WDDUBEMSLDIXZW1FAIHVWXYO","","null","<img src=""img/food1.png"" style=""width:200px; border:14px solid green;"">","null","","","","","","","","","",""
"","image-keyboard-response","182","175022","0.0-270.0","32M8BPYGAU8JWQ9CG7IRGOCNWYNIG9","A1BWS5AD2T4NIR","3HUR21WDDUBEMSLDIXZW1FAIHVWXYO","","570.1999999955297","img/food1.png","75","571.7999999970198","2","1","false","3","2","1,0.5,0,1,0.5,0,0.5,0,1","0,1,0.5,0,1,0.5,1,0.5,0","3",""
"","html-keyboard-response","183","175324","0.0-271.0","32M8BPYGAU8JWQ9CG7IRGOCNWYNIG9","A1BWS5AD2T4NIR","3HUR21WDDUBEMSLDIXZW1FAIHVWXYO","","null","<img src=""img/food1.png"" style=""width:200px; border:14px solid green;"">","null","","","","","","","","","",""
"","instructions","184","188730","0.0-273.0","32M8BPYGAU8JWQ9CG7IRGOCNWYNIG9","A1BWS5AD2T4NIR","3HUR21WDDUBEMSLDIXZW1FAIHVWXYO","[{""page_index"":0,""viewing_time"":12108.89999999851},{""page_index"":1,""viewing_time"":1295.6000000014901}]","13405","","","","","","","","","","","",""
"","image-keyboard-response","185","190054","0.0-274.0","32M8BPYGAU8JWQ9CG7IRGOCNWYNIG9","A1BWS5AD2T4NIR","3HUR21WDDUBEMSLDIXZW1FAIHVWXYO","","1322","img/food3.png","74","1324.1000000014901","1","1","","1","1","1,0.5,0,1,0.5,0,0.5,0,1","0.5,0,1,0.5,0,1,0,1,0.5","2",""
"","html-keyboard-response","186","190358","0.0-275.0","32M8BPYGAU8JWQ9CG7IRGOCNWYNIG9","A1BWS5AD2T4NIR","3HUR21WDDUBEMSLDIXZW1FAIHVWXYO","","null","<img src=""img/food3.png"" style=""width:200px; border:14px solid green;"">","null","","","","","","","","","",""
"","image-keyboard-response","187","191198","0.0-276.0","32M8BPYGAU8JWQ9CG7IRGOCNWYNIG9","A1BWS5AD2T4NIR","3HUR21WDDUBEMSLDIXZW1FAIHVWXYO","","838.8999999985099","img/food6.png","75","840.2999999970198","2","1","","3","1","1,0.5,0,1,0.5,0,0.5,0,1","0.5,0,1,0.5,0,1,0,1,0.5","2",""
"","html-keyboard-response","188","191501","0.0-277.0","32M8BPYGAU8JWQ9CG7IRGOCNWYNIG9","A1BWS5AD2T4NIR","3HUR21WDDUBEMSLDIXZW1FAIHVWXYO","","null","<img src=""img/food6.png"" style=""width:200px; border:14px solid green;"">","null","","","","","","","","","",""
"","image-keyboard-response","189","192318","0.0-278.0","32M8BPYGAU8JWQ9CG7IRGOCNWYNIG9","A1BWS5AD2T4NIR","3HUR21WDDUBEMSLDIXZW1FAIHVWXYO","","815.5","img/food3.png","74","817.2000000029802","1","0","","1","1","1,0.5,0,1,0.5,0,0.5,0,1","0.5,0,1,0.5,0,1,0,1,0.5","2",""
"","html-keyboard-response","190","192620","0.0-279.0","32M8BPYGAU8JWQ9CG7IRGOCNWYNIG9","A1BWS5AD2T4NIR","3HUR21WDDUBEMSLDIXZW1FAIHVWXYO","","null","<img src=""img/food3.png"" style=""width:200px;border:14px solid red;"">","null","","","","","","","","","",""
"","image-keyboard-response","191","193230","0.0-280.0","32M8BPYGAU8JWQ9CG7IRGOCNWYNIG9","A1BWS5AD2T4NIR","3HUR21WDDUBEMSLDIXZW1FAIHVWXYO","","607.6999999955297","img/food3.png","74","609.3999999985099","1","0","","1","1","1,0.5,0,1,0.5,0,0.5,0,1","0.5,0,1,0.5,0,1,0,1,0.5","2",""
"","html-keyboard-response","192","193532","0.0-281.0","32M8BPYGAU8JWQ9CG7IRGOCNWYNIG9","A1BWS5AD2T4NIR","3HUR21WDDUBEMSLDIXZW1FAIHVWXYO","","null","<img src=""img/food3.png"" style=""width:200px;border:14px solid red;"">","null","","","","","","","","","",""
"","image-keyboard-response","193","194230","0.0-282.0","32M8BPYGAU8JWQ9CG7IRGOCNWYNIG9","A1BWS5AD2T4NIR","3HUR21WDDUBEMSLDIXZW1FAIHVWXYO","","695.8999999985099","img/food6.png","75","697.8999999985099","2","1","","3","1","1,0.5,0,1,0.5,0,0.5,0,1","0.5,0,1,0.5,0,1,0,1,0.5","2",""
"","html-keyboard-response","194","194533","0.0-283.0","32M8BPYGAU8JWQ9CG7IRGOCNWYNIG9","A1BWS5AD2T4NIR","3HUR21WDDUBEMSLDIXZW1FAIHVWXYO","","null","<img src=""img/food6.png"" style=""width:200px; border:14px solid green;"">","null","","","","","","","","","",""
"","image-keyboard-response","195","195310","0.0-284.0","32M8BPYGAU8JWQ9CG7IRGOCNWYNIG9","A1BWS5AD2T4NIR","3HUR21WDDUBEMSLDIXZW1FAIHVWXYO","","775.2999999970198","img/food3.png","74","776.8999999985099","1","0","","1","1","1,0.5,0,1,0.5,0,0.5,0,1","0.5,0,1,0.5,0,1,0,1,0.5","2",""
"","html-keyboard-response","196","195612","0.0-285.0","32M8BPYGAU8JWQ9CG7IRGOCNWYNIG9","A1BWS5AD2T4NIR","3HUR21WDDUBEMSLDIXZW1FAIHVWXYO","","null","<img src=""img/food3.png"" style=""width:200px;border:14px solid red;"">","null","","","","","","","","","",""
"","image-keyboard-response","197","196222","0.0-286.0","32M8BPYGAU8JWQ9CG7IRGOCNWYNIG9","A1BWS5AD2T4NIR","3HUR21WDDUBEMSLDIXZW1FAIHVWXYO","","608","img/food6.png","75","609.6000000014901","2","1","","3","1","1,0.5,0,1,0.5,0,0.5,0,1","0.5,0,1,0.5,0,1,0,1,0.5","2",""
"","html-keyboard-response","198","196524","0.0-287.0","32M8BPYGAU8JWQ9CG7IRGOCNWYNIG9","A1BWS5AD2T4NIR","3HUR21WDDUBEMSLDIXZW1FAIHVWXYO","","null","<img src=""img/food6.png"" style=""width:200px; border:14px solid green;"">","null","","","","","","","","","",""
"","image-keyboard-response","199","197126","0.0-288.0","32M8BPYGAU8JWQ9CG7IRGOCNWYNIG9","A1BWS5AD2T4NIR","3HUR21WDDUBEMSLDIXZW1FAIHVWXYO","","599.1000000014901","img/food3.png","76","601.3000000044703","3","1","","1","1","1,0.5,0,1,0.5,0,0.5,0,1","0.5,0,1,0.5,0,1,0,1,0.5","2",""
"","html-keyboard-response","200","197429","0.0-289.0","32M8BPYGAU8JWQ9CG7IRGOCNWYNIG9","A1BWS5AD2T4NIR","3HUR21WDDUBEMSLDIXZW1FAIHVWXYO","","null","<img src=""img/food3.png"" style=""width:200px; border:14px solid green;"">","null","","","","","","","","","",""
"","image-keyboard-response","201","198123","0.0-290.0","32M8BPYGAU8JWQ9CG7IRGOCNWYNIG9","A1BWS5AD2T4NIR","3HUR21WDDUBEMSLDIXZW1FAIHVWXYO","","692.1000000014901","img/food6.png","75","694.1000000014901","2","1","","3","1","1,0.5,0,1,0.5,0,0.5,0,1","0.5,0,1,0.5,0,1,0,1,0.5","2",""
"","html-keyboard-response","202","198426","0.0-291.0","32M8BPYGAU8JWQ9CG7IRGOCNWYNIG9","A1BWS5AD2T4NIR","3HUR21WDDUBEMSLDIXZW1FAIHVWXYO","","null","<img src=""img/food6.png"" style=""width:200px; border:14px solid green;"">","null","","","","","","","","","",""
"","image-keyboard-response","203","198998","0.0-292.0","32M8BPYGAU8JWQ9CG7IRGOCNWYNIG9","A1BWS5AD2T4NIR","3HUR21WDDUBEMSLDIXZW1FAIHVWXYO","","570.3999999985099","img/food6.png","75","572.1000000014901","2","1","","3","1","1,0.5,0,1,0.5,0,0.5,0,1","0.5,0,1,0.5,0,1,0,1,0.5","2",""
"","html-keyboard-response","204","199300","0.0-293.0","32M8BPYGAU8JWQ9CG7IRGOCNWYNIG9","A1BWS5AD2T4NIR","3HUR21WDDUBEMSLDIXZW1FAIHVWXYO","","null","<img src=""img/food6.png"" style=""width:200px; border:14px solid green;"">","null","","","","","","","","","",""
"","image-keyboard-response","205","199982","0.0-294.0","32M8BPYGAU8JWQ9CG7IRGOCNWYNIG9","A1BWS5AD2T4NIR","3HUR21WDDUBEMSLDIXZW1FAIHVWXYO","","679.7999999970198","img/food5.png","74","681.3999999985099","1","1","","2","1","1,0.5,0,1,0.5,0,0.5,0,1","0.5,0,1,0.5,0,1,0,1,0.5","2",""
"","html-keyboard-response","206","200284","0.0-295.0","32M8BPYGAU8JWQ9CG7IRGOCNWYNIG9","A1BWS5AD2T4NIR","3HUR21WDDUBEMSLDIXZW1FAIHVWXYO","","null","<img src=""img/food5.png"" style=""width:200px; border:14px solid green;"">","null","","","","","","","","","",""
"","image-keyboard-response","207","200750","0.0-296.0","32M8BPYGAU8JWQ9CG7IRGOCNWYNIG9","A1BWS5AD2T4NIR","3HUR21WDDUBEMSLDIXZW1FAIHVWXYO","","463.6000000014901","img/food5.png","74","465.29999999701977","1","0","","2","1","1,0.5,0,1,0.5,0,0.5,0,1","0.5,0,1,0.5,0,1,0,1,0.5","2",""
"","html-keyboard-response","208","201052","0.0-297.0","32M8BPYGAU8JWQ9CG7IRGOCNWYNIG9","A1BWS5AD2T4NIR","3HUR21WDDUBEMSLDIXZW1FAIHVWXYO","","null","<img src=""img/food5.png"" style=""width:200px;border:14px solid red;"">","null","","","","","","","","","",""
"","image-keyboard-response","209","201846","0.0-298.0","32M8BPYGAU8JWQ9CG7IRGOCNWYNIG9","A1BWS5AD2T4NIR","3HUR21WDDUBEMSLDIXZW1FAIHVWXYO","","791.7999999970198","img/food3.png","76","793.3999999985099","3","1","","1","1","1,0.5,0,1,0.5,0,0.5,0,1","0.5,0,1,0.5,0,1,0,1,0.5","2",""
"","html-keyboard-response","210","202151","0.0-299.0","32M8BPYGAU8JWQ9CG7IRGOCNWYNIG9","A1BWS5AD2T4NIR","3HUR21WDDUBEMSLDIXZW1FAIHVWXYO","","null","<img src=""img/food3.png"" style=""width:200px; border:14px solid green;"">","null","","","","","","","","","",""
"","image-keyboard-response","211","202822","0.0-300.0","32M8BPYGAU8JWQ9CG7IRGOCNWYNIG9","A1BWS5AD2T4NIR","3HUR21WDDUBEMSLDIXZW1FAIHVWXYO","","669.2000000029802","img/food5.png","75","670.8999999985099","2","0","","2","1","1,0.5,0,1,0.5,0,0.5,0,1","0.5,0,1,0.5,0,1,0,1,0.5","2",""
"","html-keyboard-response","212","203124","0.0-301.0","32M8BPYGAU8JWQ9CG7IRGOCNWYNIG9","A1BWS5AD2T4NIR","3HUR21WDDUBEMSLDIXZW1FAIHVWXYO","","null","<img src=""img/food5.png"" style=""width:200px;border:14px solid red;"">","null","","","","","","","","","",""
"","image-keyboard-response","213","203246","0.0-302.0","32M8BPYGAU8JWQ9CG7IRGOCNWYNIG9","A1BWS5AD2T4NIR","3HUR21WDDUBEMSLDIXZW1FAIHVWXYO","","120.10000000149012","img/food6.png","74","121.80000000447035","1","0","","3","1","1,0.5,0,1,0.5,0,0.5,0,1","0.5,0,1,0.5,0,1,0,1,0.5","2",""
"","html-keyboard-response","214","203548","0.0-303.0","32M8BPYGAU8JWQ9CG7IRGOCNWYNIG9","A1BWS5AD2T4NIR","3HUR21WDDUBEMSLDIXZW1FAIHVWXYO","","null","<img src=""img/food6.png"" style=""width:200px;border:14px solid red;"">","null","","","","","","","","","",""
"","image-keyboard-response","215","204559","0.0-304.0","32M8BPYGAU8JWQ9CG7IRGOCNWYNIG9","A1BWS5AD2T4NIR","3HUR21WDDUBEMSLDIXZW1FAIHVWXYO","","1008.5999999940395","img/food5.png","74","1010.1999999955297","1","1","","2","1","1,0.5,0,1,0.5,0,0.5,0,1","0.5,0,1,0.5,0,1,0,1,0.5","2",""
"","html-keyboard-response","216","204861","0.0-305.0","32M8BPYGAU8JWQ9CG7IRGOCNWYNIG9","A1BWS5AD2T4NIR","3HUR21WDDUBEMSLDIXZW1FAIHVWXYO","","null","<img src=""img/food5.png"" style=""width:200px; border:14px solid green;"">","null","","","","","","","","","",""
"","image-keyboard-response","217","205446","0.0-306.0","32M8BPYGAU8JWQ9CG7IRGOCNWYNIG9","A1BWS5AD2T4NIR","3HUR21WDDUBEMSLDIXZW1FAIHVWXYO","","582.7999999970198","img/food5.png","74","584.5","1","0","","2","1","1,0.5,0,1,0.5,0,0.5,0,1","0.5,0,1,0.5,0,1,0,1,0.5","2",""
"","html-keyboard-response","218","205748","0.0-307.0","32M8BPYGAU8JWQ9CG7IRGOCNWYNIG9","A1BWS5AD2T4NIR","3HUR21WDDUBEMSLDIXZW1FAIHVWXYO","","null","<img src=""img/food5.png"" style=""width:200px;border:14px solid red;"">","null","","","","","","","","","",""
"","image-keyboard-response","219","206366","0.0-308.0","32M8BPYGAU8JWQ9CG7IRGOCNWYNIG9","A1BWS5AD2T4NIR","3HUR21WDDUBEMSLDIXZW1FAIHVWXYO","","615.8999999985099","img/food5.png","74","617.3999999985099","1","1","","2","1","1,0.5,0,1,0.5,0,0.5,0,1","0.5,0,1,0.5,0,1,0,1,0.5","2",""
"","html-keyboard-response","220","206668","0.0-309.0","32M8BPYGAU8JWQ9CG7IRGOCNWYNIG9","A1BWS5AD2T4NIR","3HUR21WDDUBEMSLDIXZW1FAIHVWXYO","","null","<img src=""img/food5.png"" style=""width:200px; border:14px solid green;"">","null","","","","","","","","","",""
"","image-keyboard-response","221","207462","0.0-310.0","32M8BPYGAU8JWQ9CG7IRGOCNWYNIG9","A1BWS5AD2T4NIR","3HUR21WDDUBEMSLDIXZW1FAIHVWXYO","","791.7000000029802","img/food3.png","76","793.3000000044703","3","1","","1","1","1,0.5,0,1,0.5,0,0.5,0,1","0.5,0,1,0.5,0,1,0,1,0.5","2",""
"","html-keyboard-response","222","207764","0.0-311.0","32M8BPYGAU8JWQ9CG7IRGOCNWYNIG9","A1BWS5AD2T4NIR","3HUR21WDDUBEMSLDIXZW1FAIHVWXYO","","null","<img src=""img/food3.png"" style=""width:200px; border:14px solid green;"">","null","","","","","","","","","",""
"","image-keyboard-response","223","208243","0.0-312.0","32M8BPYGAU8JWQ9CG7IRGOCNWYNIG9","A1BWS5AD2T4NIR","3HUR21WDDUBEMSLDIXZW1FAIHVWXYO","","477.5","img/food3.png","76","479.19999999552965","3","1","","1","1","1,0.5,0,1,0.5,0,0.5,0,1","0.5,0,1,0.5,0,1,0,1,0.5","2",""
"","html-keyboard-response","224","208546","0.0-313.0","32M8BPYGAU8JWQ9CG7IRGOCNWYNIG9","A1BWS5AD2T4NIR","3HUR21WDDUBEMSLDIXZW1FAIHVWXYO","","null","<img src=""img/food3.png"" style=""width:200px; border:14px solid green;"">","null","","","","","","","","","",""
"","image-keyboard-response","225","209198","0.0-314.0","32M8BPYGAU8JWQ9CG7IRGOCNWYNIG9","A1BWS5AD2T4NIR","3HUR21WDDUBEMSLDIXZW1FAIHVWXYO","","650.3999999985099","img/food5.png","74","651.7999999970198","1","0","","2","1","1,0.5,0,1,0.5,0,0.5,0,1","0.5,0,1,0.5,0,1,0,1,0.5","2",""
"","html-keyboard-response","226","209500","0.0-315.0","32M8BPYGAU8JWQ9CG7IRGOCNWYNIG9","A1BWS5AD2T4NIR","3HUR21WDDUBEMSLDIXZW1FAIHVWXYO","","null","<img src=""img/food5.png"" style=""width:200px;border:14px solid red;"">","null","","","","","","","","","",""
"","image-keyboard-response","227","210622","0.0-316.0","32M8BPYGAU8JWQ9CG7IRGOCNWYNIG9","A1BWS5AD2T4NIR","3HUR21WDDUBEMSLDIXZW1FAIHVWXYO","","1119.8999999985099","img/food3.png","76","1121.3999999985099","3","1","","1","1","1,0.5,0,1,0.5,0,0.5,0,1","0.5,0,1,0.5,0,1,0,1,0.5","2",""
"","html-keyboard-response","228","210924","0.0-317.0","32M8BPYGAU8JWQ9CG7IRGOCNWYNIG9","A1BWS5AD2T4NIR","3HUR21WDDUBEMSLDIXZW1FAIHVWXYO","","null","<img src=""img/food3.png"" style=""width:200px; border:14px solid green;"">","null","","","","","","","","","",""
"","image-keyboard-response","229","211470","0.0-318.0","32M8BPYGAU8JWQ9CG7IRGOCNWYNIG9","A1BWS5AD2T4NIR","3HUR21WDDUBEMSLDIXZW1FAIHVWXYO","","543.5","img/food3.png","76","545.2000000029802","3","1","","1","1","1,0.5,0,1,0.5,0,0.5,0,1","0.5,0,1,0.5,0,1,0,1,0.5","2",""
"","html-keyboard-response","230","211772","0.0-319.0","32M8BPYGAU8JWQ9CG7IRGOCNWYNIG9","A1BWS5AD2T4NIR","3HUR21WDDUBEMSLDIXZW1FAIHVWXYO","","null","<img src=""img/food3.png"" style=""width:200px; border:14px solid green;"">","null","","","","","","","","","",""
"","image-keyboard-response","231","212582","0.0-320.0","32M8BPYGAU8JWQ9CG7IRGOCNWYNIG9","A1BWS5AD2T4NIR","3HUR21WDDUBEMSLDIXZW1FAIHVWXYO","","808","img/food6.png","75","809.6999999955297","2","1","","3","1","1,0.5,0,1,0.5,0,0.5,0,1","0.5,0,1,0.5,0,1,0,1,0.5","2",""
"","html-keyboard-response","232","212884","0.0-321.0","32M8BPYGAU8JWQ9CG7IRGOCNWYNIG9","A1BWS5AD2T4NIR","3HUR21WDDUBEMSLDIXZW1FAIHVWXYO","","null","<img src=""img/food6.png"" style=""width:200px; border:14px solid green;"">","null","","","","","","","","","",""
"","image-keyboard-response","233","213694","0.0-322.0","32M8BPYGAU8JWQ9CG7IRGOCNWYNIG9","A1BWS5AD2T4NIR","3HUR21WDDUBEMSLDIXZW1FAIHVWXYO","","808.5999999940395","img/food5.png","74","810","1","0","","2","1","1,0.5,0,1,0.5,0,0.5,0,1","0.5,0,1,0.5,0,1,0,1,0.5","2",""
"","html-keyboard-response","234","213996","0.0-323.0","32M8BPYGAU8JWQ9CG7IRGOCNWYNIG9","A1BWS5AD2T4NIR","3HUR21WDDUBEMSLDIXZW1FAIHVWXYO","","null","<img src=""img/food5.png"" style=""width:200px;border:14px solid red;"">","null","","","","","","","","","",""
"","image-keyboard-response","235","214446","0.0-324.0","32M8BPYGAU8JWQ9CG7IRGOCNWYNIG9","A1BWS5AD2T4NIR","3HUR21WDDUBEMSLDIXZW1FAIHVWXYO","","448.19999999552965","img/food5.png","74","449.6000000014901","1","0","","2","1","1,0.5,0,1,0.5,0,0.5,0,1","0.5,0,1,0.5,0,1,0,1,0.5","2",""
"","html-keyboard-response","236","214748","0.0-325.0","32M8BPYGAU8JWQ9CG7IRGOCNWYNIG9","A1BWS5AD2T4NIR","3HUR21WDDUBEMSLDIXZW1FAIHVWXYO","","null","<img src=""img/food5.png"" style=""width:200px;border:14px solid red;"">","null","","","","","","","","","",""
"","image-keyboard-response","237","215758","0.0-326.0","32M8BPYGAU8JWQ9CG7IRGOCNWYNIG9","A1BWS5AD2T4NIR","3HUR21WDDUBEMSLDIXZW1FAIHVWXYO","","1007.8999999985099","img/food3.png","76","1009.7000000029802","3","1","","1","1","1,0.5,0,1,0.5,0,0.5,0,1","0.5,0,1,0.5,0,1,0,1,0.5","2",""
"","html-keyboard-response","238","216060","0.0-327.0","32M8BPYGAU8JWQ9CG7IRGOCNWYNIG9","A1BWS5AD2T4NIR","3HUR21WDDUBEMSLDIXZW1FAIHVWXYO","","null","<img src=""img/food3.png"" style=""width:200px; border:14px solid green;"">","null","","","","","","","","","",""
"","image-keyboard-response","239","216742","0.0-328.0","32M8BPYGAU8JWQ9CG7IRGOCNWYNIG9","A1BWS5AD2T4NIR","3HUR21WDDUBEMSLDIXZW1FAIHVWXYO","","679.7000000029802","img/food6.png","75","681.2999999970198","2","1","","3","1","1,0.5,0,1,0.5,0,0.5,0,1","0.5,0,1,0.5,0,1,0,1,0.5","2",""
"","html-keyboard-response","240","217044","0.0-329.0","32M8BPYGAU8JWQ9CG7IRGOCNWYNIG9","A1BWS5AD2T4NIR","3HUR21WDDUBEMSLDIXZW1FAIHVWXYO","","null","<img src=""img/food6.png"" style=""width:200px; border:14px solid green;"">","null","","","","","","","","","",""
"","image-keyboard-response","241","217710","0.0-330.0","32M8BPYGAU8JWQ9CG7IRGOCNWYNIG9","A1BWS5AD2T4NIR","3HUR21WDDUBEMSLDIXZW1FAIHVWXYO","","663.5999999940395","img/food5.png","76","665.1999999955297","3","1","","2","1","1,0.5,0,1,0.5,0,0.5,0,1","0.5,0,1,0.5,0,1,0,1,0.5","2",""
"","html-keyboard-response","242","218012","0.0-331.0","32M8BPYGAU8JWQ9CG7IRGOCNWYNIG9","A1BWS5AD2T4NIR","3HUR21WDDUBEMSLDIXZW1FAIHVWXYO","","null","<img src=""img/food5.png"" style=""width:200px; border:14px solid green;"">","null","","","","","","","","","",""
"","image-keyboard-response","243","218618","0.0-332.0","32M8BPYGAU8JWQ9CG7IRGOCNWYNIG9","A1BWS5AD2T4NIR","3HUR21WDDUBEMSLDIXZW1FAIHVWXYO","","604.1999999955297","img/food5.png","76","605.8999999985099","3","1","","2","1","1,0.5,0,1,0.5,0,0.5,0,1","0.5,0,1,0.5,0,1,0,1,0.5","2",""
"","html-keyboard-response","244","218920","0.0-333.0","32M8BPYGAU8JWQ9CG7IRGOCNWYNIG9","A1BWS5AD2T4NIR","3HUR21WDDUBEMSLDIXZW1FAIHVWXYO","","null","<img src=""img/food5.png"" style=""width:200px; border:14px solid green;"">","null","","","","","","","","","",""
"","image-keyboard-response","245","219710","0.0-334.0","32M8BPYGAU8JWQ9CG7IRGOCNWYNIG9","A1BWS5AD2T4NIR","3HUR21WDDUBEMSLDIXZW1FAIHVWXYO","","788.1000000014901","img/food3.png","76","789.3000000044703","3","1","","1","1","1,0.5,0,1,0.5,0,0.5,0,1","0.5,0,1,0.5,0,1,0,1,0.5","2",""
"","html-keyboard-response","246","220012","0.0-335.0","32M8BPYGAU8JWQ9CG7IRGOCNWYNIG9","A1BWS5AD2T4NIR","3HUR21WDDUBEMSLDIXZW1FAIHVWXYO","","null","<img src=""img/food3.png"" style=""width:200px; border:14px solid green;"">","null","","","","","","","","","",""
"","image-keyboard-response","247","220870","0.0-336.0","32M8BPYGAU8JWQ9CG7IRGOCNWYNIG9","A1BWS5AD2T4NIR","3HUR21WDDUBEMSLDIXZW1FAIHVWXYO","","856","img/food5.png","76","857.5","3","1","","2","1","1,0.5,0,1,0.5,0,0.5,0,1","0.5,0,1,0.5,0,1,0,1,0.5","2",""
"","html-keyboard-response","248","221172","0.0-337.0","32M8BPYGAU8JWQ9CG7IRGOCNWYNIG9","A1BWS5AD2T4NIR","3HUR21WDDUBEMSLDIXZW1FAIHVWXYO","","null","<img src=""img/food5.png"" style=""width:200px; border:14px solid green;"">","null","","","","","","","","","",""
"","image-keyboard-response","249","221895","0.0-338.0","32M8BPYGAU8JWQ9CG7IRGOCNWYNIG9","A1BWS5AD2T4NIR","3HUR21WDDUBEMSLDIXZW1FAIHVWXYO","","721","img/food3.png","76","722.6000000014901","3","1","","1","1","1,0.5,0,1,0.5,0,0.5,0,1","0.5,0,1,0.5,0,1,0,1,0.5","2",""
"","html-keyboard-response","250","222197","0.0-339.0","32M8BPYGAU8JWQ9CG7IRGOCNWYNIG9","A1BWS5AD2T4NIR","3HUR21WDDUBEMSLDIXZW1FAIHVWXYO","","null","<img src=""img/food3.png"" style=""width:200px; border:14px solid green;"">","null","","","","","","","","","",""
"","image-keyboard-response","251","222830","0.0-340.0","32M8BPYGAU8JWQ9CG7IRGOCNWYNIG9","A1BWS5AD2T4NIR","3HUR21WDDUBEMSLDIXZW1FAIHVWXYO","","630.3000000044703","img/food6.png","75","632.0999999940395","2","1","","3","1","1,0.5,0,1,0.5,0,0.5,0,1","0.5,0,1,0.5,0,1,0,1,0.5","2",""
"","html-keyboard-response","252","223132","0.0-341.0","32M8BPYGAU8JWQ9CG7IRGOCNWYNIG9","A1BWS5AD2T4NIR","3HUR21WDDUBEMSLDIXZW1FAIHVWXYO","","null","<img src=""img/food6.png"" style=""width:200px; border:14px solid green;"">","null","","","","","","","","","",""
"","image-keyboard-response","253","223654","0.0-342.0","32M8BPYGAU8JWQ9CG7IRGOCNWYNIG9","A1BWS5AD2T4NIR","3HUR21WDDUBEMSLDIXZW1FAIHVWXYO","","519.3999999985099","img/food5.png","76","521","3","1","","2","1","1,0.5,0,1,0.5,0,0.5,0,1","0.5,0,1,0.5,0,1,0,1,0.5","2",""
"","html-keyboard-response","254","223956","0.0-343.0","32M8BPYGAU8JWQ9CG7IRGOCNWYNIG9","A1BWS5AD2T4NIR","3HUR21WDDUBEMSLDIXZW1FAIHVWXYO","","null","<img src=""img/food5.png"" style=""width:200px; border:14px solid green;"">","null","","","","","","","","","",""
"","image-keyboard-response","255","224534","0.0-344.0","32M8BPYGAU8JWQ9CG7IRGOCNWYNIG9","A1BWS5AD2T4NIR","3HUR21WDDUBEMSLDIXZW1FAIHVWXYO","","575.5","img/food5.png","76","577.2000000029802","3","1","","2","1","1,0.5,0,1,0.5,0,0.5,0,1","0.5,0,1,0.5,0,1,0,1,0.5","2",""
"","html-keyboard-response","256","224836","0.0-345.0","32M8BPYGAU8JWQ9CG7IRGOCNWYNIG9","A1BWS5AD2T4NIR","3HUR21WDDUBEMSLDIXZW1FAIHVWXYO","","null","<img src=""img/food5.png"" style=""width:200px; border:14px solid green;"">","null","","","","","","","","","",""
"","image-keyboard-response","257","225406","0.0-346.0","32M8BPYGAU8JWQ9CG7IRGOCNWYNIG9","A1BWS5AD2T4NIR","3HUR21WDDUBEMSLDIXZW1FAIHVWXYO","","567.7000000029802","img/food6.png","75","569.2999999970198","2","1","","3","1","1,0.5,0,1,0.5,0,0.5,0,1","0.5,0,1,0.5,0,1,0,1,0.5","2",""
"","html-keyboard-response","258","225708","0.0-347.0","32M8BPYGAU8JWQ9CG7IRGOCNWYNIG9","A1BWS5AD2T4NIR","3HUR21WDDUBEMSLDIXZW1FAIHVWXYO","","null","<img src=""img/food6.png"" style=""width:200px; border:14px solid green;"">","null","","","","","","","","","",""
"","image-keyboard-response","259","226246","0.0-348.0","32M8BPYGAU8JWQ9CG7IRGOCNWYNIG9","A1BWS5AD2T4NIR","3HUR21WDDUBEMSLDIXZW1FAIHVWXYO","","536.3999999985099","img/food6.png","75","538.2000000029802","2","1","","3","1","1,0.5,0,1,0.5,0,0.5,0,1","0.5,0,1,0.5,0,1,0,1,0.5","2",""
"","html-keyboard-response","260","226549","0.0-349.0","32M8BPYGAU8JWQ9CG7IRGOCNWYNIG9","A1BWS5AD2T4NIR","3HUR21WDDUBEMSLDIXZW1FAIHVWXYO","","null","<img src=""img/food6.png"" style=""width:200px; border:14px solid green;"">","null","","","","","","","","","",""
"","image-keyboard-response","261","227134","0.0-350.0","32M8BPYGAU8JWQ9CG7IRGOCNWYNIG9","A1BWS5AD2T4NIR","3HUR21WDDUBEMSLDIXZW1FAIHVWXYO","","583.6999999955297","img/food3.png","76","585.3000000044703","3","1","","1","1","1,0.5,0,1,0.5,0,0.5,0,1","0.5,0,1,0.5,0,1,0,1,0.5","2",""
"","html-keyboard-response","262","227436","0.0-351.0","32M8BPYGAU8JWQ9CG7IRGOCNWYNIG9","A1BWS5AD2T4NIR","3HUR21WDDUBEMSLDIXZW1FAIHVWXYO","","null","<img src=""img/food3.png"" style=""width:200px; border:14px solid green;"">","null","","","","","","","","","",""
"","image-keyboard-response","263","228366","0.0-352.0","32M8BPYGAU8JWQ9CG7IRGOCNWYNIG9","A1BWS5AD2T4NIR","3HUR21WDDUBEMSLDIXZW1FAIHVWXYO","","927.9000000059605","img/food5.png","76","929.1999999955297","3","1","","2","1","1,0.5,0,1,0.5,0,0.5,0,1","0.5,0,1,0.5,0,1,0,1,0.5","2",""
"","html-keyboard-response","264","228668","0.0-353.0","32M8BPYGAU8JWQ9CG7IRGOCNWYNIG9","A1BWS5AD2T4NIR","3HUR21WDDUBEMSLDIXZW1FAIHVWXYO","","null","<img src=""img/food5.png"" style=""width:200px; border:14px solid green;"">","null","","","","","","","","","",""
"","image-keyboard-response","265","229204","0.0-354.0","32M8BPYGAU8JWQ9CG7IRGOCNWYNIG9","A1BWS5AD2T4NIR","3HUR21WDDUBEMSLDIXZW1FAIHVWXYO","","533.1999999955297","img/food5.png","76","535.1999999955297","3","1","","2","1","1,0.5,0,1,0.5,0,0.5,0,1","0.5,0,1,0.5,0,1,0,1,0.5","2",""
"","html-keyboard-response","266","229507","0.0-355.0","32M8BPYGAU8JWQ9CG7IRGOCNWYNIG9","A1BWS5AD2T4NIR","3HUR21WDDUBEMSLDIXZW1FAIHVWXYO","","null","<img src=""img/food5.png"" style=""width:200px; border:14px solid green;"">","null","","","","","","","","","",""
"","image-keyboard-response","267","230190","0.0-356.0","32M8BPYGAU8JWQ9CG7IRGOCNWYNIG9","A1BWS5AD2T4NIR","3HUR21WDDUBEMSLDIXZW1FAIHVWXYO","","680.9000000059605","img/food5.png","76","682.5","3","1","","2","1","1,0.5,0,1,0.5,0,0.5,0,1","0.5,0,1,0.5,0,1,0,1,0.5","2",""
"","html-keyboard-response","268","230492","0.0-357.0","32M8BPYGAU8JWQ9CG7IRGOCNWYNIG9","A1BWS5AD2T4NIR","3HUR21WDDUBEMSLDIXZW1FAIHVWXYO","","null","<img src=""img/food5.png"" style=""width:200px; border:14px solid green;"">","null","","","","","","","","","",""
"","image-keyboard-response","269","230990","0.0-358.0","32M8BPYGAU8JWQ9CG7IRGOCNWYNIG9","A1BWS5AD2T4NIR","3HUR21WDDUBEMSLDIXZW1FAIHVWXYO","","495.6000000014901","img/food6.png","75","497.1000000014901","2","1","","3","1","1,0.5,0,1,0.5,0,0.5,0,1","0.5,0,1,0.5,0,1,0,1,0.5","2",""
"","html-keyboard-response","270","231291","0.0-359.0","32M8BPYGAU8JWQ9CG7IRGOCNWYNIG9","A1BWS5AD2T4NIR","3HUR21WDDUBEMSLDIXZW1FAIHVWXYO","","null","<img src=""img/food6.png"" style=""width:200px; border:14px solid green;"">","null","","","","","","","","","",""
"","image-keyboard-response","271","232134","0.0-360.0","32M8BPYGAU8JWQ9CG7IRGOCNWYNIG9","A1BWS5AD2T4NIR","3HUR21WDDUBEMSLDIXZW1FAIHVWXYO","","840.1000000014901","img/food3.png","76","844.3999999985099","3","1","","1","1","1,0.5,0,1,0.5,0,0.5,0,1","0.5,0,1,0.5,0,1,0,1,0.5","2",""
"","html-keyboard-response","272","232439","0.0-361.0","32M8BPYGAU8JWQ9CG7IRGOCNWYNIG9","A1BWS5AD2T4NIR","3HUR21WDDUBEMSLDIXZW1FAIHVWXYO","","null","<img src=""img/food3.png"" style=""width:200px; border:14px solid green;"">","null","","","","","","","","","",""
"","image-keyboard-response","273","233118","0.0-362.0","32M8BPYGAU8JWQ9CG7IRGOCNWYNIG9","A1BWS5AD2T4NIR","3HUR21WDDUBEMSLDIXZW1FAIHVWXYO","","677","img/food5.png","76","678.8999999985099","3","1","","2","1","1,0.5,0,1,0.5,0,0.5,0,1","0.5,0,1,0.5,0,1,0,1,0.5","2",""
"","html-keyboard-response","274","233420","0.0-363.0","32M8BPYGAU8JWQ9CG7IRGOCNWYNIG9","A1BWS5AD2T4NIR","3HUR21WDDUBEMSLDIXZW1FAIHVWXYO","","null","<img src=""img/food5.png"" style=""width:200px; border:14px solid green;"">","null","","","","","","","","","",""
"","image-keyboard-response","275","233982","0.0-364.0","32M8BPYGAU8JWQ9CG7IRGOCNWYNIG9","A1BWS5AD2T4NIR","3HUR21WDDUBEMSLDIXZW1FAIHVWXYO","","559.3000000044703","img/food5.png","76","561","3","1","","2","1","1,0.5,0,1,0.5,0,0.5,0,1","0.5,0,1,0.5,0,1,0,1,0.5","2",""
"","html-keyboard-response","276","234284","0.0-365.0","32M8BPYGAU8JWQ9CG7IRGOCNWYNIG9","A1BWS5AD2T4NIR","3HUR21WDDUBEMSLDIXZW1FAIHVWXYO","","null","<img src=""img/food5.png"" style=""width:200px; border:14px solid green;"">","null","","","","","","","","","",""
"","image-keyboard-response","277","234886","0.0-366.0","32M8BPYGAU8JWQ9CG7IRGOCNWYNIG9","A1BWS5AD2T4NIR","3HUR21WDDUBEMSLDIXZW1FAIHVWXYO","","599.7000000029802","img/food5.png","76","601.5","3","1","","2","1","1,0.5,0,1,0.5,0,0.5,0,1","0.5,0,1,0.5,0,1,0,1,0.5","2",""
"","html-keyboard-response","278","235188","0.0-367.0","32M8BPYGAU8JWQ9CG7IRGOCNWYNIG9","A1BWS5AD2T4NIR","3HUR21WDDUBEMSLDIXZW1FAIHVWXYO","","null","<img src=""img/food5.png"" style=""width:200px; border:14px solid green;"">","null","","","","","","","","","",""
"","image-keyboard-response","279","235750","0.0-368.0","32M8BPYGAU8JWQ9CG7IRGOCNWYNIG9","A1BWS5AD2T4NIR","3HUR21WDDUBEMSLDIXZW1FAIHVWXYO","","559.5","img/food5.png","76","561.2999999970198","3","1","","2","1","1,0.5,0,1,0.5,0,0.5,0,1","0.5,0,1,0.5,0,1,0,1,0.5","2",""
"","html-keyboard-response","280","236052","0.0-369.0","32M8BPYGAU8JWQ9CG7IRGOCNWYNIG9","A1BWS5AD2T4NIR","3HUR21WDDUBEMSLDIXZW1FAIHVWXYO","","null","<img src=""img/food5.png"" style=""width:200px; border:14px solid green;"">","null","","","","","","","","","",""
"","image-keyboard-response","281","236614","0.0-370.0","32M8BPYGAU8JWQ9CG7IRGOCNWYNIG9","A1BWS5AD2T4NIR","3HUR21WDDUBEMSLDIXZW1FAIHVWXYO","","559.6000000014901","img/food3.png","76","561.4000000059605","3","1","","1","1","1,0.5,0,1,0.5,0,0.5,0,1","0.5,0,1,0.5,0,1,0,1,0.5","2",""
"","html-keyboard-response","282","236916","0.0-371.0","32M8BPYGAU8JWQ9CG7IRGOCNWYNIG9","A1BWS5AD2T4NIR","3HUR21WDDUBEMSLDIXZW1FAIHVWXYO","","null","<img src=""img/food3.png"" style=""width:200px; border:14px solid green;"">","null","","","","","","","","","",""
"","image-keyboard-response","283","237478","0.0-372.0","32M8BPYGAU8JWQ9CG7IRGOCNWYNIG9","A1BWS5AD2T4NIR","3HUR21WDDUBEMSLDIXZW1FAIHVWXYO","","560.3000000044703","img/food6.png","75","561.7999999970198","2","1","","3","1","1,0.5,0,1,0.5,0,0.5,0,1","0.5,0,1,0.5,0,1,0,1,0.5","2",""
"","html-keyboard-response","284","237780","0.0-373.0","32M8BPYGAU8JWQ9CG7IRGOCNWYNIG9","A1BWS5AD2T4NIR","3HUR21WDDUBEMSLDIXZW1FAIHVWXYO","","null","<img src=""img/food6.png"" style=""width:200px; border:14px solid green;"">","null","","","","","","","","","",""
"","image-keyboard-response","285","238430","0.0-374.0","32M8BPYGAU8JWQ9CG7IRGOCNWYNIG9","A1BWS5AD2T4NIR","3HUR21WDDUBEMSLDIXZW1FAIHVWXYO","","647.2999999970198","img/food3.png","76","649.1000000014901","3","1","","1","1","1,0.5,0,1,0.5,0,0.5,0,1","0.5,0,1,0.5,0,1,0,1,0.5","2",""
"","html-keyboard-response","286","238732","0.0-375.0","32M8BPYGAU8JWQ9CG7IRGOCNWYNIG9","A1BWS5AD2T4NIR","3HUR21WDDUBEMSLDIXZW1FAIHVWXYO","","null","<img src=""img/food3.png"" style=""width:200px; border:14px solid green;"">","null","","","","","","","","","",""
"","image-keyboard-response","287","239506","0.0-376.0","32M8BPYGAU8JWQ9CG7IRGOCNWYNIG9","A1BWS5AD2T4NIR","3HUR21WDDUBEMSLDIXZW1FAIHVWXYO","","772.2000000029802","img/food5.png","76","773.8999999985099","3","1","","2","1","1,0.5,0,1,0.5,0,0.5,0,1","0.5,0,1,0.5,0,1,0,1,0.5","2",""
"","html-keyboard-response","288","239808","0.0-377.0","32M8BPYGAU8JWQ9CG7IRGOCNWYNIG9","A1BWS5AD2T4NIR","3HUR21WDDUBEMSLDIXZW1FAIHVWXYO","","null","<img src=""img/food5.png"" style=""width:200px; border:14px solid green;"">","null","","","","","","","","","",""
"","image-keyboard-response","289","240318","0.0-378.0","32M8BPYGAU8JWQ9CG7IRGOCNWYNIG9","A1BWS5AD2T4NIR","3HUR21WDDUBEMSLDIXZW1FAIHVWXYO","","508.40000000596046","img/food5.png","76","509.8999999985099","3","1","","2","1","1,0.5,0,1,0.5,0,0.5,0,1","0.5,0,1,0.5,0,1,0,1,0.5","2",""
"","html-keyboard-response","290","240620","0.0-379.0","32M8BPYGAU8JWQ9CG7IRGOCNWYNIG9","A1BWS5AD2T4NIR","3HUR21WDDUBEMSLDIXZW1FAIHVWXYO","","null","<img src=""img/food5.png"" style=""width:200px; border:14px solid green;"">","null","","","","","","","","","",""
"","image-keyboard-response","291","241206","0.0-380.0","32M8BPYGAU8JWQ9CG7IRGOCNWYNIG9","A1BWS5AD2T4NIR","3HUR21WDDUBEMSLDIXZW1FAIHVWXYO","","583.3999999985099","img/food6.png","75","585.1000000014901","2","1","","3","1","1,0.5,0,1,0.5,0,0.5,0,1","0.5,0,1,0.5,0,1,0,1,0.5","2",""
"","html-keyboard-response","292","241508","0.0-381.0","32M8BPYGAU8JWQ9CG7IRGOCNWYNIG9","A1BWS5AD2T4NIR","3HUR21WDDUBEMSLDIXZW1FAIHVWXYO","","null","<img src=""img/food6.png"" style=""width:200px; border:14px solid green;"">","null","","","","","","","","","",""
"","image-keyboard-response","293","241998","0.0-382.0","32M8BPYGAU8JWQ9CG7IRGOCNWYNIG9","A1BWS5AD2T4NIR","3HUR21WDDUBEMSLDIXZW1FAIHVWXYO","","488","img/food6.png","75","489.70000000298023","2","1","","3","1","1,0.5,0,1,0.5,0,0.5,0,1","0.5,0,1,0.5,0,1,0,1,0.5","2",""
"","html-keyboard-response","294","242300","0.0-383.0","32M8BPYGAU8JWQ9CG7IRGOCNWYNIG9","A1BWS5AD2T4NIR","3HUR21WDDUBEMSLDIXZW1FAIHVWXYO","","null","<img src=""img/food6.png"" style=""width:200px; border:14px solid green;"">","null","","","","","","","","","",""
"","image-keyboard-response","295","242838","0.0-384.0","32M8BPYGAU8JWQ9CG7IRGOCNWYNIG9","A1BWS5AD2T4NIR","3HUR21WDDUBEMSLDIXZW1FAIHVWXYO","","535.3000000044703","img/food5.png","76","537","3","1","","2","1","1,0.5,0,1,0.5,0,0.5,0,1","0.5,0,1,0.5,0,1,0,1,0.5","2",""
"","html-keyboard-response","296","243140","0.0-385.0","32M8BPYGAU8JWQ9CG7IRGOCNWYNIG9","A1BWS5AD2T4NIR","3HUR21WDDUBEMSLDIXZW1FAIHVWXYO","","null","<img src=""img/food5.png"" style=""width:200px; border:14px solid green;"">","null","","","","","","","","","",""
"","image-keyboard-response","297","243742","0.0-386.0","32M8BPYGAU8JWQ9CG7IRGOCNWYNIG9","A1BWS5AD2T4NIR","3HUR21WDDUBEMSLDIXZW1FAIHVWXYO","","599.7000000029802","img/food6.png","75","601.5","2","1","","3","1","1,0.5,0,1,0.5,0,0.5,0,1","0.5,0,1,0.5,0,1,0,1,0.5","2",""
"","html-keyboard-response","298","244044","0.0-387.0","32M8BPYGAU8JWQ9CG7IRGOCNWYNIG9","A1BWS5AD2T4NIR","3HUR21WDDUBEMSLDIXZW1FAIHVWXYO","","null","<img src=""img/food6.png"" style=""width:200px; border:14px solid green;"">","null","","","","","","","","","",""
"","image-keyboard-response","299","244558","0.0-388.0","32M8BPYGAU8JWQ9CG7IRGOCNWYNIG9","A1BWS5AD2T4NIR","3HUR21WDDUBEMSLDIXZW1FAIHVWXYO","","511.8999999985099","img/food3.png","76","513.5","3","1","","1","1","1,0.5,0,1,0.5,0,0.5,0,1","0.5,0,1,0.5,0,1,0,1,0.5","2",""
"","html-keyboard-response","300","244860","0.0-389.0","32M8BPYGAU8JWQ9CG7IRGOCNWYNIG9","A1BWS5AD2T4NIR","3HUR21WDDUBEMSLDIXZW1FAIHVWXYO","","null","<img src=""img/food3.png"" style=""width:200px; border:14px solid green;"">","null","","","","","","","","","",""
"","image-keyboard-response","301","245446","0.0-390.0","32M8BPYGAU8JWQ9CG7IRGOCNWYNIG9","A1BWS5AD2T4NIR","3HUR21WDDUBEMSLDIXZW1FAIHVWXYO","","584","img/food3.png","76","585.5999999940395","3","1","","1","1","1,0.5,0,1,0.5,0,0.5,0,1","0.5,0,1,0.5,0,1,0,1,0.5","2",""
"","html-keyboard-response","302","245748","0.0-391.0","32M8BPYGAU8JWQ9CG7IRGOCNWYNIG9","A1BWS5AD2T4NIR","3HUR21WDDUBEMSLDIXZW1FAIHVWXYO","","null","<img src=""img/food3.png"" style=""width:200px; border:14px solid green;"">","null","","","","","","","","","",""
"","image-keyboard-response","303","246294","0.0-392.0","32M8BPYGAU8JWQ9CG7IRGOCNWYNIG9","A1BWS5AD2T4NIR","3HUR21WDDUBEMSLDIXZW1FAIHVWXYO","","543.7000000029802","img/food3.png","76","545.3999999985099","3","1","","1","1","1,0.5,0,1,0.5,0,0.5,0,1","0.5,0,1,0.5,0,1,0,1,0.5","2",""
"","html-keyboard-response","304","246596","0.0-393.0","32M8BPYGAU8JWQ9CG7IRGOCNWYNIG9","A1BWS5AD2T4NIR","3HUR21WDDUBEMSLDIXZW1FAIHVWXYO","","null","<img src=""img/food3.png"" style=""width:200px; border:14px solid green;"">","null","","","","","","","","","",""
"","image-keyboard-response","305","247350","0.0-394.0","32M8BPYGAU8JWQ9CG7IRGOCNWYNIG9","A1BWS5AD2T4NIR","3HUR21WDDUBEMSLDIXZW1FAIHVWXYO","","752.0999999940395","img/food5.png","76","753.7999999970198","3","1","","2","1","1,0.5,0,1,0.5,0,0.5,0,1","0.5,0,1,0.5,0,1,0,1,0.5","2",""
"","html-keyboard-response","306","247653","0.0-395.0","32M8BPYGAU8JWQ9CG7IRGOCNWYNIG9","A1BWS5AD2T4NIR","3HUR21WDDUBEMSLDIXZW1FAIHVWXYO","","null","<img src=""img/food5.png"" style=""width:200px; border:14px solid green;"">","null","","","","","","","","","",""
"","image-keyboard-response","307","248119","0.0-396.0","32M8BPYGAU8JWQ9CG7IRGOCNWYNIG9","A1BWS5AD2T4NIR","3HUR21WDDUBEMSLDIXZW1FAIHVWXYO","","464","img/food6.png","75","465.6000000014901","2","1","","3","1","1,0.5,0,1,0.5,0,0.5,0,1","0.5,0,1,0.5,0,1,0,1,0.5","2",""
"","html-keyboard-response","308","248421","0.0-397.0","32M8BPYGAU8JWQ9CG7IRGOCNWYNIG9","A1BWS5AD2T4NIR","3HUR21WDDUBEMSLDIXZW1FAIHVWXYO","","null","<img src=""img/food6.png"" style=""width:200px; border:14px solid green;"">","null","","","","","","","","","",""
"","image-keyboard-response","309","248974","0.0-398.0","32M8BPYGAU8JWQ9CG7IRGOCNWYNIG9","A1BWS5AD2T4NIR","3HUR21WDDUBEMSLDIXZW1FAIHVWXYO","","551","img/food6.png","75","552.7999999970198","2","1","","3","1","1,0.5,0,1,0.5,0,0.5,0,1","0.5,0,1,0.5,0,1,0,1,0.5","2",""
"","html-keyboard-response","310","249276","0.0-399.0","32M8BPYGAU8JWQ9CG7IRGOCNWYNIG9","A1BWS5AD2T4NIR","3HUR21WDDUBEMSLDIXZW1FAIHVWXYO","","null","<img src=""img/food6.png"" style=""width:200px; border:14px solid green;"">","null","","","","","","","","","",""
"","image-keyboard-response","311","249739","0.0-400.0","32M8BPYGAU8JWQ9CG7IRGOCNWYNIG9","A1BWS5AD2T4NIR","3HUR21WDDUBEMSLDIXZW1FAIHVWXYO","","460.5","img/food6.png","75","462.40000000596046","2","1","","3","1","1,0.5,0,1,0.5,0,0.5,0,1","0.5,0,1,0.5,0,1,0,1,0.5","2",""
"","html-keyboard-response","312","250042","0.0-401.0","32M8BPYGAU8JWQ9CG7IRGOCNWYNIG9","A1BWS5AD2T4NIR","3HUR21WDDUBEMSLDIXZW1FAIHVWXYO","","null","<img src=""img/food6.png"" style=""width:200px; border:14px solid green;"">","null","","","","","","","","","",""
"","image-keyboard-response","313","250662","0.0-402.0","32M8BPYGAU8JWQ9CG7IRGOCNWYNIG9","A1BWS5AD2T4NIR","3HUR21WDDUBEMSLDIXZW1FAIHVWXYO","","618.3000000044703","img/food3.png","76","619.5999999940395","3","1","","1","1","1,0.5,0,1,0.5,0,0.5,0,1","0.5,0,1,0.5,0,1,0,1,0.5","2",""
"","html-keyboard-response","314","250964","0.0-403.0","32M8BPYGAU8JWQ9CG7IRGOCNWYNIG9","A1BWS5AD2T4NIR","3HUR21WDDUBEMSLDIXZW1FAIHVWXYO","","null","<img src=""img/food3.png"" style=""width:200px; border:14px solid green;"">","null","","","","","","","","","",""
"","image-keyboard-response","315","251574","0.0-404.0","32M8BPYGAU8JWQ9CG7IRGOCNWYNIG9","A1BWS5AD2T4NIR","3HUR21WDDUBEMSLDIXZW1FAIHVWXYO","","607.6000000014901","img/food6.png","76","609.2000000029802","3","0","","3","1","1,0.5,0,1,0.5,0,0.5,0,1","0.5,0,1,0.5,0,1,0,1,0.5","2",""
"","html-keyboard-response","316","251876","0.0-405.0","32M8BPYGAU8JWQ9CG7IRGOCNWYNIG9","A1BWS5AD2T4NIR","3HUR21WDDUBEMSLDIXZW1FAIHVWXYO","","null","<img src=""img/food6.png"" style=""width:200px;border:14px solid red;"">","null","","","","","","","","","",""
"","image-keyboard-response","317","252398","0.0-406.0","32M8BPYGAU8JWQ9CG7IRGOCNWYNIG9","A1BWS5AD2T4NIR","3HUR21WDDUBEMSLDIXZW1FAIHVWXYO","","520.2999999970198","img/food6.png","75","521.7000000029802","2","1","","3","1","1,0.5,0,1,0.5,0,0.5,0,1","0.5,0,1,0.5,0,1,0,1,0.5","2",""
"","html-keyboard-response","318","252700","0.0-407.0","32M8BPYGAU8JWQ9CG7IRGOCNWYNIG9","A1BWS5AD2T4NIR","3HUR21WDDUBEMSLDIXZW1FAIHVWXYO","","null","<img src=""img/food6.png"" style=""width:200px; border:14px solid green;"">","null","","","","","","","","","",""
"","image-keyboard-response","319","253254","0.0-408.0","32M8BPYGAU8JWQ9CG7IRGOCNWYNIG9","A1BWS5AD2T4NIR","3HUR21WDDUBEMSLDIXZW1FAIHVWXYO","","551.7000000029802","img/food5.png","76","553.5","3","1","","2","1","1,0.5,0,1,0.5,0,0.5,0,1","0.5,0,1,0.5,0,1,0,1,0.5","2",""
"","html-keyboard-response","320","253556","0.0-409.0","32M8BPYGAU8JWQ9CG7IRGOCNWYNIG9","A1BWS5AD2T4NIR","3HUR21WDDUBEMSLDIXZW1FAIHVWXYO","","null","<img src=""img/food5.png"" style=""width:200px; border:14px solid green;"">","null","","","","","","","","","",""
"","image-keyboard-response","321","254238","0.0-410.0","32M8BPYGAU8JWQ9CG7IRGOCNWYNIG9","A1BWS5AD2T4NIR","3HUR21WDDUBEMSLDIXZW1FAIHVWXYO","","679.5","img/food3.png","76","681.3999999985099","3","1","","1","1","1,0.5,0,1,0.5,0,0.5,0,1","0.5,0,1,0.5,0,1,0,1,0.5","2",""
"","html-keyboard-response","322","254541","0.0-411.0","32M8BPYGAU8JWQ9CG7IRGOCNWYNIG9","A1BWS5AD2T4NIR","3HUR21WDDUBEMSLDIXZW1FAIHVWXYO","","null","<img src=""img/food3.png"" style=""width:200px; border:14px solid green;"">","null","","","","","","","","","",""
"","image-keyboard-response","323","255077","0.0-412.0","32M8BPYGAU8JWQ9CG7IRGOCNWYNIG9","A1BWS5AD2T4NIR","3HUR21WDDUBEMSLDIXZW1FAIHVWXYO","","534.5","img/food3.png","76","536.1999999955297","3","1","","1","1","1,0.5,0,1,0.5,0,0.5,0,1","0.5,0,1,0.5,0,1,0,1,0.5","2",""
"","html-keyboard-response","324","255380","0.0-413.0","32M8BPYGAU8JWQ9CG7IRGOCNWYNIG9","A1BWS5AD2T4NIR","3HUR21WDDUBEMSLDIXZW1FAIHVWXYO","","null","<img src=""img/food3.png"" style=""width:200px; border:14px solid green;"">","null","","","","","","","","","",""
"","image-keyboard-response","325","255894","0.0-414.0","32M8BPYGAU8JWQ9CG7IRGOCNWYNIG9","A1BWS5AD2T4NIR","3HUR21WDDUBEMSLDIXZW1FAIHVWXYO","","512.2999999970198","img/food6.png","75","514","2","1","","3","1","1,0.5,0,1,0.5,0,0.5,0,1","0.5,0,1,0.5,0,1,0,1,0.5","2",""
"","html-keyboard-response","326","256196","0.0-415.0","32M8BPYGAU8JWQ9CG7IRGOCNWYNIG9","A1BWS5AD2T4NIR","3HUR21WDDUBEMSLDIXZW1FAIHVWXYO","","null","<img src=""img/food6.png"" style=""width:200px; border:14px solid green;"">","null","","","","","","","","","",""
"","image-keyboard-response","327","256670","0.0-416.0","32M8BPYGAU8JWQ9CG7IRGOCNWYNIG9","A1BWS5AD2T4NIR","3HUR21WDDUBEMSLDIXZW1FAIHVWXYO","","471.5","img/food3.png","76","473.1000000014901","3","1","","1","1","1,0.5,0,1,0.5,0,0.5,0,1","0.5,0,1,0.5,0,1,0,1,0.5","2",""
"","html-keyboard-response","328","256972","0.0-417.0","32M8BPYGAU8JWQ9CG7IRGOCNWYNIG9","A1BWS5AD2T4NIR","3HUR21WDDUBEMSLDIXZW1FAIHVWXYO","","null","<img src=""img/food3.png"" style=""width:200px; border:14px solid green;"">","null","","","","","","","","","",""
"","image-keyboard-response","329","257478","0.0-418.0","32M8BPYGAU8JWQ9CG7IRGOCNWYNIG9","A1BWS5AD2T4NIR","3HUR21WDDUBEMSLDIXZW1FAIHVWXYO","","503.29999999701977","img/food6.png","75","505","2","1","","3","1","1,0.5,0,1,0.5,0,0.5,0,1","0.5,0,1,0.5,0,1,0,1,0.5","2",""
"","html-keyboard-response","330","257780","0.0-419.0","32M8BPYGAU8JWQ9CG7IRGOCNWYNIG9","A1BWS5AD2T4NIR","3HUR21WDDUBEMSLDIXZW1FAIHVWXYO","","null","<img src=""img/food6.png"" style=""width:200px; border:14px solid green;"">","null","","","","","","","","","",""
"","image-keyboard-response","331","258390","0.0-420.0","32M8BPYGAU8JWQ9CG7IRGOCNWYNIG9","A1BWS5AD2T4NIR","3HUR21WDDUBEMSLDIXZW1FAIHVWXYO","","607.7000000029802","img/food5.png","76","609.4000000059605","3","1","","2","1","1,0.5,0,1,0.5,0,0.5,0,1","0.5,0,1,0.5,0,1,0,1,0.5","2",""
"","html-keyboard-response","332","258692","0.0-421.0","32M8BPYGAU8JWQ9CG7IRGOCNWYNIG9","A1BWS5AD2T4NIR","3HUR21WDDUBEMSLDIXZW1FAIHVWXYO","","null","<img src=""img/food5.png"" style=""width:200px; border:14px solid green;"">","null","","","","","","","","","",""
"","image-keyboard-response","333","259246","0.0-422.0","32M8BPYGAU8JWQ9CG7IRGOCNWYNIG9","A1BWS5AD2T4NIR","3HUR21WDDUBEMSLDIXZW1FAIHVWXYO","","551.7000000029802","img/food3.png","76","553.3000000044703","3","1","","1","1","1,0.5,0,1,0.5,0,0.5,0,1","0.5,0,1,0.5,0,1,0,1,0.5","2",""
"","html-keyboard-response","334","259548","0.0-423.0","32M8BPYGAU8JWQ9CG7IRGOCNWYNIG9","A1BWS5AD2T4NIR","3HUR21WDDUBEMSLDIXZW1FAIHVWXYO","","null","<img src=""img/food3.png"" style=""width:200px; border:14px solid green;"">","null","","","","","","","","","",""
"","image-keyboard-response","335","260019","0.0-424.0","32M8BPYGAU8JWQ9CG7IRGOCNWYNIG9","A1BWS5AD2T4NIR","3HUR21WDDUBEMSLDIXZW1FAIHVWXYO","","468.70000000298023","img/food3.png","76","470.30000000447035","3","1","","1","1","1,0.5,0,1,0.5,0,0.5,0,1","0.5,0,1,0.5,0,1,0,1,0.5","2",""
"","html-keyboard-response","336","260321","0.0-425.0","32M8BPYGAU8JWQ9CG7IRGOCNWYNIG9","A1BWS5AD2T4NIR","3HUR21WDDUBEMSLDIXZW1FAIHVWXYO","","null","<img src=""img/food3.png"" style=""width:200px; border:14px solid green;"">","null","","","","","","","","","",""
"","image-keyboard-response","337","260862","0.0-426.0","32M8BPYGAU8JWQ9CG7IRGOCNWYNIG9","A1BWS5AD2T4NIR","3HUR21WDDUBEMSLDIXZW1FAIHVWXYO","","538.6000000014901","img/food6.png","75","540.3000000044703","2","1","","3","1","1,0.5,0,1,0.5,0,0.5,0,1","0.5,0,1,0.5,0,1,0,1,0.5","2",""
"","html-keyboard-response","338","261164","0.0-427.0","32M8BPYGAU8JWQ9CG7IRGOCNWYNIG9","A1BWS5AD2T4NIR","3HUR21WDDUBEMSLDIXZW1FAIHVWXYO","","null","<img src=""img/food6.png"" style=""width:200px; border:14px solid green;"">","null","","","","","","","","","",""
"","image-keyboard-response","339","261750","0.0-428.0","32M8BPYGAU8JWQ9CG7IRGOCNWYNIG9","A1BWS5AD2T4NIR","3HUR21WDDUBEMSLDIXZW1FAIHVWXYO","","583.8000000044703","img/food6.png","75","585.4000000059605","2","1","","3","1","1,0.5,0,1,0.5,0,0.5,0,1","0.5,0,1,0.5,0,1,0,1,0.5","2",""
"","html-keyboard-response","340","262052","0.0-429.0","32M8BPYGAU8JWQ9CG7IRGOCNWYNIG9","A1BWS5AD2T4NIR","3HUR21WDDUBEMSLDIXZW1FAIHVWXYO","","null","<img src=""img/food6.png"" style=""width:200px; border:14px solid green;"">","null","","","","","","","","","",""
"","image-keyboard-response","341","262638","0.0-430.0","32M8BPYGAU8JWQ9CG7IRGOCNWYNIG9","A1BWS5AD2T4NIR","3HUR21WDDUBEMSLDIXZW1FAIHVWXYO","","584.7000000029802","img/food3.png","76","586.1000000014901","3","1","","1","1","1,0.5,0,1,0.5,0,0.5,0,1","0.5,0,1,0.5,0,1,0,1,0.5","2",""
"","html-keyboard-response","342","262941","0.0-431.0","32M8BPYGAU8JWQ9CG7IRGOCNWYNIG9","A1BWS5AD2T4NIR","3HUR21WDDUBEMSLDIXZW1FAIHVWXYO","","null","<img src=""img/food3.png"" style=""width:200px; border:14px solid green;"">","null","","","","","","","","","",""
"","image-keyboard-response","343","263453","0.0-432.0","32M8BPYGAU8JWQ9CG7IRGOCNWYNIG9","A1BWS5AD2T4NIR","3HUR21WDDUBEMSLDIXZW1FAIHVWXYO","","510.6000000014901","img/food3.png","76","512.3999999985099","3","1","","1","1","1,0.5,0,1,0.5,0,0.5,0,1","0.5,0,1,0.5,0,1,0,1,0.5","2",""
"","html-keyboard-response","344","263756","0.0-433.0","32M8BPYGAU8JWQ9CG7IRGOCNWYNIG9","A1BWS5AD2T4NIR","3HUR21WDDUBEMSLDIXZW1FAIHVWXYO","","null","<img src=""img/food3.png"" style=""width:200px; border:14px solid green;"">","null","","","","","","","","","",""
"","image-keyboard-response","345","264454","0.0-434.0","32M8BPYGAU8JWQ9CG7IRGOCNWYNIG9","A1BWS5AD2T4NIR","3HUR21WDDUBEMSLDIXZW1FAIHVWXYO","","695.6000000014901","img/food5.png","76","697.4000000059605","3","1","","2","1","1,0.5,0,1,0.5,0,0.5,0,1","0.5,0,1,0.5,0,1,0,1,0.5","2",""
"","html-keyboard-response","346","264756","0.0-435.0","32M8BPYGAU8JWQ9CG7IRGOCNWYNIG9","A1BWS5AD2T4NIR","3HUR21WDDUBEMSLDIXZW1FAIHVWXYO","","null","<img src=""img/food5.png"" style=""width:200px; border:14px solid green;"">","null","","","","","","","","","",""
"","image-keyboard-response","347","265238","0.0-436.0","32M8BPYGAU8JWQ9CG7IRGOCNWYNIG9","A1BWS5AD2T4NIR","3HUR21WDDUBEMSLDIXZW1FAIHVWXYO","","479.8999999985099","img/food3.png","76","481.30000000447035","3","1","","1","1","1,0.5,0,1,0.5,0,0.5,0,1","0.5,0,1,0.5,0,1,0,1,0.5","2",""
"","html-keyboard-response","348","265540","0.0-437.0","32M8BPYGAU8JWQ9CG7IRGOCNWYNIG9","A1BWS5AD2T4NIR","3HUR21WDDUBEMSLDIXZW1FAIHVWXYO","","null","<img src=""img/food3.png"" style=""width:200px; border:14px solid green;"">","null","","","","","","","","","",""
"","image-keyboard-response","349","265958","0.0-438.0","32M8BPYGAU8JWQ9CG7IRGOCNWYNIG9","A1BWS5AD2T4NIR","3HUR21WDDUBEMSLDIXZW1FAIHVWXYO","","415.3999999985099","img/food6.png","75","417.30000000447035","2","1","","3","1","1,0.5,0,1,0.5,0,0.5,0,1","0.5,0,1,0.5,0,1,0,1,0.5","2",""
"","html-keyboard-response","350","266260","0.0-439.0","32M8BPYGAU8JWQ9CG7IRGOCNWYNIG9","A1BWS5AD2T4NIR","3HUR21WDDUBEMSLDIXZW1FAIHVWXYO","","null","<img src=""img/food6.png"" style=""width:200px; border:14px solid green;"">","null","","","","","","","","","",""
"","image-keyboard-response","351","266822","0.0-440.0","32M8BPYGAU8JWQ9CG7IRGOCNWYNIG9","A1BWS5AD2T4NIR","3HUR21WDDUBEMSLDIXZW1FAIHVWXYO","","559.5","img/food6.png","75","561.3000000044703","2","1","","3","1","1,0.5,0,1,0.5,0,0.5,0,1","0.5,0,1,0.5,0,1,0,1,0.5","2",""
"","html-keyboard-response","352","267124","0.0-441.0","32M8BPYGAU8JWQ9CG7IRGOCNWYNIG9","A1BWS5AD2T4NIR","3HUR21WDDUBEMSLDIXZW1FAIHVWXYO","","null","<img src=""img/food6.png"" style=""width:200px; border:14px solid green;"">","null","","","","","","","","","",""
"","image-keyboard-response","353","267606","0.0-442.0","32M8BPYGAU8JWQ9CG7IRGOCNWYNIG9","A1BWS5AD2T4NIR","3HUR21WDDUBEMSLDIXZW1FAIHVWXYO","","480.1000000014901","img/food3.png","76","481.69999999552965","3","1","","1","1","1,0.5,0,1,0.5,0,0.5,0,1","0.5,0,1,0.5,0,1,0,1,0.5","2",""
"","html-keyboard-response","354","267908","0.0-443.0","32M8BPYGAU8JWQ9CG7IRGOCNWYNIG9","A1BWS5AD2T4NIR","3HUR21WDDUBEMSLDIXZW1FAIHVWXYO","","null","<img src=""img/food3.png"" style=""width:200px; border:14px solid green;"">","null","","","","","","","","","",""
"","image-keyboard-response","355","268430","0.0-444.0","32M8BPYGAU8JWQ9CG7IRGOCNWYNIG9","A1BWS5AD2T4NIR","3HUR21WDDUBEMSLDIXZW1FAIHVWXYO","","519.7999999970198","img/food5.png","76","521.3999999985099","3","1","","2","1","1,0.5,0,1,0.5,0,0.5,0,1","0.5,0,1,0.5,0,1,0,1,0.5","2",""
"","html-keyboard-response","356","268732","0.0-445.0","32M8BPYGAU8JWQ9CG7IRGOCNWYNIG9","A1BWS5AD2T4NIR","3HUR21WDDUBEMSLDIXZW1FAIHVWXYO","","null","<img src=""img/food5.png"" style=""width:200px; border:14px solid green;"">","null","","","","","","","","","",""
"","image-keyboard-response","357","269301","0.0-446.0","32M8BPYGAU8JWQ9CG7IRGOCNWYNIG9","A1BWS5AD2T4NIR","3HUR21WDDUBEMSLDIXZW1FAIHVWXYO","","567.8999999985099","img/food6.png","75","569.6000000014901","2","1","","3","1","1,0.5,0,1,0.5,0,0.5,0,1","0.5,0,1,0.5,0,1,0,1,0.5","2",""
"","html-keyboard-response","358","269604","0.0-447.0","32M8BPYGAU8JWQ9CG7IRGOCNWYNIG9","A1BWS5AD2T4NIR","3HUR21WDDUBEMSLDIXZW1FAIHVWXYO","","null","<img src=""img/food6.png"" style=""width:200px; border:14px solid green;"">","null","","","","","","","","","",""
"","image-keyboard-response","359","270050","0.0-448.0","32M8BPYGAU8JWQ9CG7IRGOCNWYNIG9","A1BWS5AD2T4NIR","3HUR21WDDUBEMSLDIXZW1FAIHVWXYO","","445","img/food6.png","75","446.40000000596046","2","1","","3","1","1,0.5,0,1,0.5,0,0.5,0,1","0.5,0,1,0.5,0,1,0,1,0.5","2",""
"","html-keyboard-response","360","270352","0.0-449.0","32M8BPYGAU8JWQ9CG7IRGOCNWYNIG9","A1BWS5AD2T4NIR","3HUR21WDDUBEMSLDIXZW1FAIHVWXYO","","null","<img src=""img/food6.png"" style=""width:200px; border:14px solid green;"">","null","","","","","","","","","",""
"","image-keyboard-response","361","270822","0.0-450.0","32M8BPYGAU8JWQ9CG7IRGOCNWYNIG9","A1BWS5AD2T4NIR","3HUR21WDDUBEMSLDIXZW1FAIHVWXYO","","467.40000000596046","img/food5.png","76","469.19999999552965","3","1","","2","1","1,0.5,0,1,0.5,0,0.5,0,1","0.5,0,1,0.5,0,1,0,1,0.5","2",""
"","html-keyboard-response","362","271124","0.0-451.0","32M8BPYGAU8JWQ9CG7IRGOCNWYNIG9","A1BWS5AD2T4NIR","3HUR21WDDUBEMSLDIXZW1FAIHVWXYO","","null","<img src=""img/food5.png"" style=""width:200px; border:14px solid green;"">","null","","","","","","","","","",""
"","image-keyboard-response","363","271630","0.0-452.0","32M8BPYGAU8JWQ9CG7IRGOCNWYNIG9","A1BWS5AD2T4NIR","3HUR21WDDUBEMSLDIXZW1FAIHVWXYO","","503.6000000014901","img/food6.png","75","505.20000000298023","2","1","","3","1","1,0.5,0,1,0.5,0,0.5,0,1","0.5,0,1,0.5,0,1,0,1,0.5","2",""
"","html-keyboard-response","364","271932","0.0-453.0","32M8BPYGAU8JWQ9CG7IRGOCNWYNIG9","A1BWS5AD2T4NIR","3HUR21WDDUBEMSLDIXZW1FAIHVWXYO","","null","<img src=""img/food6.png"" style=""width:200px; border:14px solid green;"">","null","","","","","","","","","",""
"","html-keyboard-response","365","286565","0.0-454.0","32M8BPYGAU8JWQ9CG7IRGOCNWYNIG9","A1BWS5AD2T4NIR","3HUR21WDDUBEMSLDIXZW1FAIHVWXYO","","","","","","","","","","","","","",""
"","instructions","366","294613","0.0-455.0","32M8BPYGAU8JWQ9CG7IRGOCNWYNIG9","A1BWS5AD2T4NIR","3HUR21WDDUBEMSLDIXZW1FAIHVWXYO","[{""page_index"":0,""viewing_time"":8046.10000000149}]","8046.70000000298","","","","","","","","","","","",""
"","survey-text","367","309847","0.0-456.0","32M8BPYGAU8JWQ9CG7IRGOCNWYNIG9","A1BWS5AD2T4NIR","3HUR21WDDUBEMSLDIXZW1FAIHVWXYO","","15225.5","","","","","","","","","","","","{""Q0"":""A1BWS5AD2T4NIR""}"
