"success","trial_type","trial_index","time_elapsed","internal_node_id","assignmentID","mturkID","hitID","view_history","rt","stimulus","key_press","reactionTime","a","r","s","cond","reward_cond","reward_cond_actual","reward_matrix_idx","warning","responses"
"true","fullscreen","0","4167","0.0-0.0","","","","","","","","","","","","","","","","",""
"","instructions","1","18194","0.0-1.0","","","","[{""page_index"":0,""viewing_time"":1296},{""page_index"":1,""viewing_time"":1720},{""page_index"":2,""viewing_time"":755},{""page_index"":3,""viewing_time"":1749},{""page_index"":4,""viewing_time"":6116},{""page_index"":5,""viewing_time"":1358},{""page_index"":6,""viewing_time"":1031}]","14026","","","","","","","","","","","",""
"","image-keyboard-response","2","20201","0.0-2.0","","","","","","img/food6.png","","2007","-1","0","3","1","1,0.7,0,1,0.7,0,0.7,0,1","0.7,0,1,0.7,0,1,0,1,0.7","2","",""
"","html-keyboard-response","3","20505","0.0-3.0","","","","","null","<img src=""img/food6.png"" style=""width:200px;border:14px solid red;"">","null","","","","","","","","","",""
"","image-keyboard-response","4","21091","0.0-4.0","","","","","585","img/food6.png","74","586","1","0","3","1","1,0.7,0,1,0.7,0,0.7,0,1","0.7,0,1,0.7,0,1,0,1,0.7","2","",""
"","html-keyboard-response","5","21392","0.0-5.0","","","","","null","<img src=""img/food6.png"" style=""width:200px;border:14px solid red;"">","null","","","","","","","","","",""
"","image-keyboard-response","6","22377","0.0-6.0","","","","","984","img/food6.png","75","984","2","1","3","1","1,0.7,0,1,0.7,0,0.7,0,1","0.7,0,1,0.7,0,1,0,1,0.7","2","",""
"","html-keyboard-response","7","22681","0.0-7.0","","","","","null","<img src=""img/food6.png"" style=""width:200px; border:14px solid green;"">","null","","","","","","","","","",""
"","image-keyboard-response","8","23558","0.0-8.0","","","","","875","img/food6.png","75","876","2","1","3","1","1,0.7,0,1,0.7,0,0.7,0,1","0.7,0,1,0.7,0,1,0,1,0.7","2","",""
"","html-keyboard-response","9","23898","0.0-9.0","","","","","null","<img src=""img/food6.png"" style=""width:200px; border:14px solid green;"">","null","","","","","","","","","",""
"","image-keyboard-response","10","25989","0.0-10.0","","","","","","img/food2.png","","2091","-1","0","2","1","1,0.7,0,1,0.7,0,0.7,0,1","0.7,0,1,0.7,0,1,0,1,0.7","2","",""
"","html-keyboard-response","11","26294","0.0-11.0","","","","","null","<img src=""img/food2.png"" style=""width:200px;border:14px solid red;"">","null","","","","","","","","","",""
"","image-keyboard-response","12","26447","0.0-12.0","","","","","149","img/food6.png","75","153","2","1","3","1","1,0.7,0,1,0.7,0,0.7,0,1","0.7,0,1,0.7,0,1,0,1,0.7","2","",""
"","html-keyboard-response","13","26748","0.0-13.0","","","","","null","<img src=""img/food6.png"" style=""width:200px; border:14px solid green;"">","null","","","","","","","","","",""
"","image-keyboard-response","14","27968","0.0-14.0","","","","","1218","img/food6.png","75","1219","2","1","3","1","1,0.7,0,1,0.7,0,0.7,0,1","0.7,0,1,0.7,0,1,0,1,0.7","2","",""
"","html-keyboard-response","15","28292","0.0-15.0","","","","","null","<img src=""img/food6.png"" style=""width:200px; border:14px solid green;"">","null","","","","","","","","","",""
"","image-keyboard-response","16","28934","0.0-16.0","","","","","642","img/food6.png","75","642","2","1","3","1","1,0.7,0,1,0.7,0,0.7,0,1","0.7,0,1,0.7,0,1,0,1,0.7","2","",""
"","html-keyboard-response","17","29237","0.0-17.0","","","","","null","<img src=""img/food6.png"" style=""width:200px; border:14px solid green;"">","null","","","","","","","","","",""
"","image-keyboard-response","18","31242","0.0-18.0","","","","","","img/food2.png","","2004","-1","0","2","1","1,0.7,0,1,0.7,0,0.7,0,1","0.7,0,1,0.7,0,1,0,1,0.7","2","",""
"","html-keyboard-response","19","31546","0.0-19.0","","","","","null","<img src=""img/food2.png"" style=""width:200px;border:14px solid red;"">","null","","","","","","","","","",""
"","image-keyboard-response","20","33551","0.0-20.0","","","","","","img/food6.png","","2005","-1","0","3","1","1,0.7,0,1,0.7,0,0.7,0,1","0.7,0,1,0.7,0,1,0,1,0.7","2","",""
"","html-keyboard-response","21","33864","0.0-21.0","","","","","null","<img src=""img/food6.png"" style=""width:200px;border:14px solid red;"">","null","","","","","","","","","",""
"","image-keyboard-response","22","34804","0.0-22.0","","","","","937","img/food1.png","75","940","2","0","1","1","1,0.7,0,1,0.7,0,0.7,0,1","0.7,0,1,0.7,0,1,0,1,0.7","2","",""
"","html-keyboard-response","23","35104","0.0-23.0","","","","","null","<img src=""img/food1.png"" style=""width:200px;border:14px solid red;"">","null","","","","","","","","","",""
"","image-keyboard-response","24","35915","0.0-24.0","","","","","810","img/food6.png","76","811","3","0","3","1","1,0.7,0,1,0.7,0,0.7,0,1","0.7,0,1,0.7,0,1,0,1,0.7","2","",""
"","html-keyboard-response","25","36219","0.0-25.0","","","","","null","<img src=""img/food6.png"" style=""width:200px;border:14px solid red;"">","null","","","","","","","","","",""
"","image-keyboard-response","26","37255","0.0-26.0","","","","","1033","img/food2.png","74","1035","1","0","2","1","1,0.7,0,1,0.7,0,0.7,0,1","0.7,0,1,0.7,0,1,0,1,0.7","2","",""
"","html-keyboard-response","27","37568","0.0-27.0","","","","","null","<img src=""img/food2.png"" style=""width:200px;border:14px solid red;"">","null","","","","","","","","","",""
"","image-keyboard-response","28","38386","0.0-28.0","","","","","817","img/food6.png","75","818","2","1","3","1","1,0.7,0,1,0.7,0,0.7,0,1","0.7,0,1,0.7,0,1,0,1,0.7","2","",""
"","html-keyboard-response","29","38688","0.0-29.0","","","","","null","<img src=""img/food6.png"" style=""width:200px; border:14px solid green;"">","null","","","","","","","","","",""
"","image-keyboard-response","30","39749","0.0-30.0","","","","","1060","img/food1.png","75","1061","2","0","1","1","1,0.7,0,1,0.7,0,0.7,0,1","0.7,0,1,0.7,0,1,0,1,0.7","2","",""
"","html-keyboard-response","31","40057","0.0-31.0","","","","","null","<img src=""img/food1.png"" style=""width:200px;border:14px solid red;"">","null","","","","","","","","","",""
"","image-keyboard-response","32","41068","0.0-32.0","","","","","1011","img/food2.png","75","1011","2","0","2","1","1,0.7,0,1,0.7,0,0.7,0,1","0.7,0,1,0.7,0,1,0,1,0.7","2","",""
"","html-keyboard-response","33","41375","0.0-33.0","","","","","null","<img src=""img/food2.png"" style=""width:200px;border:14px solid red;"">","null","","","","","","","","","",""
"","image-keyboard-response","34","42301","0.0-34.0","","","","","925","img/food6.png","75","926","2","1","3","1","1,0.7,0,1,0.7,0,0.7,0,1","0.7,0,1,0.7,0,1,0,1,0.7","2","",""
"","html-keyboard-response","35","42605","0.0-35.0","","","","","null","<img src=""img/food6.png"" style=""width:200px; border:14px solid green;"">","null","","","","","","","","","",""
"","image-keyboard-response","36","43360","0.0-36.0","","","","","754","img/food6.png","75","755","2","1","3","1","1,0.7,0,1,0.7,0,0.7,0,1","0.7,0,1,0.7,0,1,0,1,0.7","2","",""
"","html-keyboard-response","37","43807","0.0-37.0","","","","","null","<img src=""img/food6.png"" style=""width:200px; border:14px solid green;"">","null","","","","","","","","","",""
"","image-keyboard-response","38","44595","0.0-38.0","","","","","788","img/food6.png","75","788","2","1","3","1","1,0.7,0,1,0.7,0,0.7,0,1","0.7,0,1,0.7,0,1,0,1,0.7","2","",""
"","html-keyboard-response","39","44899","0.0-39.0","","","","","null","<img src=""img/food6.png"" style=""width:200px; border:14px solid green;"">","null","","","","","","","","","",""
"","image-keyboard-response","40","45901","0.0-40.0","","","","","1002","img/food1.png","76","1002","3","1","1","1","1,0.7,0,1,0.7,0,0.7,0,1","0.7,0,1,0.7,0,1,0,1,0.7","2","",""
"","html-keyboard-response","41","46205","0.0-41.0","","","","","null","<img src=""img/food1.png"" style=""width:200px; border:14px solid green;"">","null","","","","","","","","","",""
"","image-keyboard-response","42","47079","0.0-42.0","","","","","872","img/food1.png","76","874","3","1","1","1","1,0.7,0,1,0.7,0,0.7,0,1","0.7,0,1,0.7,0,1,0,1,0.7","2","",""
"","html-keyboard-response","43","47385","0.0-43.0","","","","","null","<img src=""img/food1.png"" style=""width:200px; border:14px solid green;"">","null","","","","","","","","","",""
"","image-keyboard-response","44","48932","0.0-44.0","","","","","1545","img/food6.png","76","1547","3","0","3","1","1,0.7,0,1,0.7,0,0.7,0,1","0.7,0,1,0.7,0,1,0,1,0.7","2","",""
"","html-keyboard-response","45","49240","0.0-45.0","","","","","null","<img src=""img/food6.png"" style=""width:200px;border:14px solid red;"">","null","","","","","","","","","",""
"","image-keyboard-response","46","50526","0.0-46.0","","","","","1284","img/food1.png","76","1285","3","1","1","1","1,0.7,0,1,0.7,0,0.7,0,1","0.7,0,1,0.7,0,1,0,1,0.7","2","",""
"","html-keyboard-response","47","50828","0.0-47.0","","","","","null","<img src=""img/food1.png"" style=""width:200px; border:14px solid green;"">","null","","","","","","","","","",""
"","image-keyboard-response","48","51972","0.0-48.0","","","","","1143","img/food2.png","74","1144","1","1","2","1","1,0.7,0,1,0.7,0,0.7,0,1","0.7,0,1,0.7,0,1,0,1,0.7","2","",""
"","html-keyboard-response","49","52276","0.0-49.0","","","","","null","<img src=""img/food2.png"" style=""width:200px; border:14px solid green;"">","null","","","","","","","","","",""
"","image-keyboard-response","50","53350","0.0-50.0","","","","","1073","img/food6.png","75","1074","2","1","3","1","1,0.7,0,1,0.7,0,0.7,0,1","0.7,0,1,0.7,0,1,0,1,0.7","2","",""
"","html-keyboard-response","51","53651","0.0-51.0","","","","","null","<img src=""img/food6.png"" style=""width:200px; border:14px solid green;"">","null","","","","","","","","","",""
"","image-keyboard-response","52","54769","0.0-52.0","","","","","1116","img/food2.png","76","1118","3","1","2","1","1,0.7,0,1,0.7,0,0.7,0,1","0.7,0,1,0.7,0,1,0,1,0.7","2","",""
"","html-keyboard-response","53","55075","0.0-53.0","","","","","null","<img src=""img/food2.png"" style=""width:200px; border:14px solid green;"">","null","","","","","","","","","",""
"","image-keyboard-response","54","55906","0.0-54.0","","","","","830","img/food6.png","75","831","2","1","3","1","1,0.7,0,1,0.7,0,0.7,0,1","0.7,0,1,0.7,0,1,0,1,0.7","2","",""
"","html-keyboard-response","55","56207","0.0-55.0","","","","","null","<img src=""img/food6.png"" style=""width:200px; border:14px solid green;"">","null","","","","","","","","","",""
"","image-keyboard-response","56","57107","0.0-56.0","","","","","899","img/food2.png","74","900","1","1","2","1","1,0.7,0,1,0.7,0,0.7,0,1","0.7,0,1,0.7,0,1,0,1,0.7","2","",""
"","html-keyboard-response","57","57411","0.0-57.0","","","","","null","<img src=""img/food2.png"" style=""width:200px; border:14px solid green;"">","null","","","","","","","","","",""
"","image-keyboard-response","58","58478","0.0-58.0","","","","","1066","img/food1.png","76","1067","3","1","1","1","1,0.7,0,1,0.7,0,0.7,0,1","0.7,0,1,0.7,0,1,0,1,0.7","2","",""
"","html-keyboard-response","59","58781","0.0-59.0","","","","","null","<img src=""img/food1.png"" style=""width:200px; border:14px solid green;"">","null","","","","","","","","","",""
"","image-keyboard-response","60","59685","0.0-60.0","","","","","904","img/food6.png","75","905","2","1","3","1","1,0.7,0,1,0.7,0,0.7,0,1","0.7,0,1,0.7,0,1,0,1,0.7","2","",""
"","html-keyboard-response","61","60027","0.0-61.0","","","","","null","<img src=""img/food6.png"" style=""width:200px; border:14px solid green;"">","null","","","","","","","","","",""
"","image-keyboard-response","62","61163","0.0-62.0","","","","","1136","img/food2.png","74","1136","1","1","2","1","1,0.7,0,1,0.7,0,0.7,0,1","0.7,0,1,0.7,0,1,0,1,0.7","2","",""
"","html-keyboard-response","63","61469","0.0-63.0","","","","","null","<img src=""img/food2.png"" style=""width:200px; border:14px solid green;"">","null","","","","","","","","","",""
"","image-keyboard-response","64","62475","0.0-64.0","","","","","1005","img/food1.png","76","1006","3","1","1","1","1,0.7,0,1,0.7,0,0.7,0,1","0.7,0,1,0.7,0,1,0,1,0.7","2","",""
"","html-keyboard-response","65","62781","0.0-65.0","","","","","null","<img src=""img/food1.png"" style=""width:200px; border:14px solid green;"">","null","","","","","","","","","",""
"","image-keyboard-response","66","63599","0.0-66.0","","","","","818","img/food1.png","76","818","3","1","1","1","1,0.7,0,1,0.7,0,0.7,0,1","0.7,0,1,0.7,0,1,0,1,0.7","2","",""
"","html-keyboard-response","67","63905","0.0-67.0","","","","","null","<img src=""img/food1.png"" style=""width:200px; border:14px solid green;"">","null","","","","","","","","","",""
"","image-keyboard-response","68","64883","0.0-68.0","","","","","977","img/food6.png","75","978","2","1","3","1","1,0.7,0,1,0.7,0,0.7,0,1","0.7,0,1,0.7,0,1,0,1,0.7","2","",""
"","html-keyboard-response","69","65189","0.0-69.0","","","","","null","<img src=""img/food6.png"" style=""width:200px; border:14px solid green;"">","null","","","","","","","","","",""
"","image-keyboard-response","70","66285","0.0-70.0","","","","","1095","img/food1.png","76","1097","3","1","1","1","1,0.7,0,1,0.7,0,0.7,0,1","0.7,0,1,0.7,0,1,0,1,0.7","2","",""
"","html-keyboard-response","71","66591","0.0-71.0","","","","","null","<img src=""img/food1.png"" style=""width:200px; border:14px solid green;"">","null","","","","","","","","","",""
"","image-keyboard-response","72","67495","0.0-72.0","","","","","903","img/food1.png","76","904","3","1","1","1","1,0.7,0,1,0.7,0,0.7,0,1","0.7,0,1,0.7,0,1,0,1,0.7","2","",""
"","html-keyboard-response","73","67796","0.0-73.0","","","","","null","<img src=""img/food1.png"" style=""width:200px; border:14px solid green;"">","null","","","","","","","","","",""
"","image-keyboard-response","74","68524","0.0-74.0","","","","","726","img/food1.png","76","728","3","1","1","1","1,0.7,0,1,0.7,0,0.7,0,1","0.7,0,1,0.7,0,1,0,1,0.7","2","",""
"","html-keyboard-response","75","68827","0.0-75.0","","","","","null","<img src=""img/food1.png"" style=""width:200px; border:14px solid green;"">","null","","","","","","","","","",""
"","image-keyboard-response","76","70504","0.0-76.0","","","","","1676","img/food1.png","76","1677","3","1","1","1","1,0.7,0,1,0.7,0,0.7,0,1","0.7,0,1,0.7,0,1,0,1,0.7","2","",""
"","html-keyboard-response","77","71017","0.0-77.0","","","","","null","<img src=""img/food1.png"" style=""width:200px; border:14px solid green;"">","null","","","","","","","","","",""
"","image-keyboard-response","78","71917","0.0-78.0","","","","","895","img/food2.png","74","899","1","1","2","1","1,0.7,0,1,0.7,0,0.7,0,1","0.7,0,1,0.7,0,1,0,1,0.7","2","",""
"","html-keyboard-response","79","72223","0.0-79.0","","","","","null","<img src=""img/food2.png"" style=""width:200px; border:14px solid green;"">","null","","","","","","","","","",""
"","image-keyboard-response","80","73159","0.0-80.0","","","","","935","img/food1.png","76","936","3","1","1","1","1,0.7,0,1,0.7,0,0.7,0,1","0.7,0,1,0.7,0,1,0,1,0.7","2","",""
"","html-keyboard-response","81","73461","0.0-81.0","","","","","null","<img src=""img/food1.png"" style=""width:200px; border:14px solid green;"">","null","","","","","","","","","",""
"","image-keyboard-response","82","74318","0.0-82.0","","","","","856","img/food2.png","76","857","3","1","2","1","1,0.7,0,1,0.7,0,0.7,0,1","0.7,0,1,0.7,0,1,0,1,0.7","2","",""
"","html-keyboard-response","83","74671","0.0-83.0","","","","","null","<img src=""img/food2.png"" style=""width:200px; border:14px solid green;"">","null","","","","","","","","","",""
"","image-keyboard-response","84","75610","0.0-84.0","","","","","935","img/food1.png","76","939","3","1","1","1","1,0.7,0,1,0.7,0,0.7,0,1","0.7,0,1,0.7,0,1,0,1,0.7","2","",""
"","html-keyboard-response","85","75914","0.0-85.0","","","","","null","<img src=""img/food1.png"" style=""width:200px; border:14px solid green;"">","null","","","","","","","","","",""
"","image-keyboard-response","86","76524","0.0-86.0","","","","","607","img/food1.png","76","609","3","1","1","1","1,0.7,0,1,0.7,0,0.7,0,1","0.7,0,1,0.7,0,1,0,1,0.7","2","",""
"","html-keyboard-response","87","76828","0.0-87.0","","","","","null","<img src=""img/food1.png"" style=""width:200px; border:14px solid green;"">","null","","","","","","","","","",""
"","image-keyboard-response","88","77935","0.0-88.0","","","","","1105","img/food6.png","75","1106","2","1","3","1","1,0.7,0,1,0.7,0,0.7,0,1","0.7,0,1,0.7,0,1,0,1,0.7","2","",""
"","html-keyboard-response","89","78241","0.0-89.0","","","","","null","<img src=""img/food6.png"" style=""width:200px; border:14px solid green;"">","null","","","","","","","","","",""
"","image-keyboard-response","90","79203","0.0-90.0","","","","","961","img/food2.png","74","962","1","1","2","1","1,0.7,0,1,0.7,0,0.7,0,1","0.7,0,1,0.7,0,1,0,1,0.7","2","",""
"","html-keyboard-response","91","79506","0.0-91.0","","","","","null","<img src=""img/food2.png"" style=""width:200px; border:14px solid green;"">","null","","","","","","","","","",""
"","image-keyboard-response","92","80407","0.0-92.0","","","","","899","img/food1.png","76","901","3","1","1","1","1,0.7,0,1,0.7,0,0.7,0,1","0.7,0,1,0.7,0,1,0,1,0.7","2","",""
"","html-keyboard-response","93","80716","0.0-93.0","","","","","null","<img src=""img/food1.png"" style=""width:200px; border:14px solid green;"">","null","","","","","","","","","",""
"","image-keyboard-response","94","81534","0.0-94.0","","","","","816","img/food1.png","76","818","3","1","1","1","1,0.7,0,1,0.7,0,0.7,0,1","0.7,0,1,0.7,0,1,0,1,0.7","2","",""
"","html-keyboard-response","95","81837","0.0-95.0","","","","","null","<img src=""img/food1.png"" style=""width:200px; border:14px solid green;"">","null","","","","","","","","","",""
"","image-keyboard-response","96","82464","0.0-96.0","","","","","627","img/food1.png","76","627","3","1","1","1","1,0.7,0,1,0.7,0,0.7,0,1","0.7,0,1,0.7,0,1,0,1,0.7","2","",""
"","html-keyboard-response","97","82766","0.0-97.0","","","","","null","<img src=""img/food1.png"" style=""width:200px; border:14px solid green;"">","null","","","","","","","","","",""
"","image-keyboard-response","98","83783","0.0-98.0","","","","","1004","img/food6.png","75","1017","2","1","3","1","1,0.7,0,1,0.7,0,0.7,0,1","0.7,0,1,0.7,0,1,0,1,0.7","2","",""
"","html-keyboard-response","99","84089","0.0-99.0","","","","","null","<img src=""img/food6.png"" style=""width:200px; border:14px solid green;"">","null","","","","","","","","","",""
"","image-keyboard-response","100","85116","0.0-100.0","","","","","1025","img/food2.png","74","1027","1","1","2","1","1,0.7,0,1,0.7,0,0.7,0,1","0.7,0,1,0.7,0,1,0,1,0.7","2","",""
"","html-keyboard-response","101","85418","0.0-101.0","","","","","null","<img src=""img/food2.png"" style=""width:200px; border:14px solid green;"">","null","","","","","","","","","",""
"","image-keyboard-response","102","86284","0.0-102.0","","","","","864","img/food1.png","76","866","3","1","1","1","1,0.7,0,1,0.7,0,0.7,0,1","0.7,0,1,0.7,0,1,0,1,0.7","2","",""
"","html-keyboard-response","103","86586","0.0-103.0","","","","","null","<img src=""img/food1.png"" style=""width:200px; border:14px solid green;"">","null","","","","","","","","","",""
"","image-keyboard-response","104","87622","0.0-104.0","","","","","1034","img/food2.png","75","1035","2","0","2","1","1,0.7,0,1,0.7,0,0.7,0,1","0.7,0,1,0.7,0,1,0,1,0.7","2","",""
"","html-keyboard-response","105","87926","0.0-105.0","","","","","null","<img src=""img/food2.png"" style=""width:200px;border:14px solid red;"">","null","","","","","","","","","",""
"","image-keyboard-response","106","88769","0.0-106.0","","","","","841","img/food6.png","74","842","1","0","3","1","1,0.7,0,1,0.7,0,0.7,0,1","0.7,0,1,0.7,0,1,0,1,0.7","2","",""
"","html-keyboard-response","107","89111","0.0-107.0","","","","","null","<img src=""img/food6.png"" style=""width:200px;border:14px solid red;"">","null","","","","","","","","","",""
"","image-keyboard-response","108","90153","0.0-108.0","","","","","1040","img/food2.png","74","1042","1","1","2","1","1,0.7,0,1,0.7,0,0.7,0,1","0.7,0,1,0.7,0,1,0,1,0.7","2","",""
"","html-keyboard-response","109","90453","0.0-109.0","","","","","null","<img src=""img/food2.png"" style=""width:200px; border:14px solid green;"">","null","","","","","","","","","",""
"","image-keyboard-response","110","91263","0.0-110.0","","","","","808","img/food2.png","74","810","1","0","2","1","1,0.7,0,1,0.7,0,0.7,0,1","0.7,0,1,0.7,0,1,0,1,0.7","2","",""
"","html-keyboard-response","111","91570","0.0-111.0","","","","","null","<img src=""img/food2.png"" style=""width:200px;border:14px solid red;"">","null","","","","","","","","","",""
"","image-keyboard-response","112","92434","0.0-112.0","","","","","848","img/food1.png","75","864","2","0","1","1","1,0.7,0,1,0.7,0,0.7,0,1","0.7,0,1,0.7,0,1,0,1,0.7","2","",""
"","html-keyboard-response","113","92746","0.0-113.0","","","","","null","<img src=""img/food1.png"" style=""width:200px;border:14px solid red;"">","null","","","","","","","","","",""
"","image-keyboard-response","114","93756","0.0-114.0","","","","","1010","img/food2.png","74","1010","1","1","2","1","1,0.7,0,1,0.7,0,0.7,0,1","0.7,0,1,0.7,0,1,0,1,0.7","2","",""
"","html-keyboard-response","115","94062","0.0-115.0","","","","","null","<img src=""img/food2.png"" style=""width:200px; border:14px solid green;"">","null","","","","","","","","","",""
"","image-keyboard-response","116","95243","0.0-116.0","","","","","1179","img/food2.png","74","1181","1","1","2","1","1,0.7,0,1,0.7,0,0.7,0,1","0.7,0,1,0.7,0,1,0,1,0.7","2","",""
"","html-keyboard-response","117","95545","0.0-117.0","","","","","null","<img src=""img/food2.png"" style=""width:200px; border:14px solid green;"">","null","","","","","","","","","",""
"","image-keyboard-response","118","96380","0.0-118.0","","","","","834","img/food1.png","76","835","3","1","1","1","1,0.7,0,1,0.7,0,0.7,0,1","0.7,0,1,0.7,0,1,0,1,0.7","2","",""
"","html-keyboard-response","119","96727","0.0-119.0","","","","","null","<img src=""img/food1.png"" style=""width:200px; border:14px solid green;"">","null","","","","","","","","","",""
"","image-keyboard-response","120","97821","0.0-120.0","","","","","1088","img/food2.png","75","1093","2","0","2","1","1,0.7,0,1,0.7,0,0.7,0,1","0.7,0,1,0.7,0,1,0,1,0.7","2","",""
"","html-keyboard-response","121","98130","0.0-121.0","","","","","null","<img src=""img/food2.png"" style=""width:200px;border:14px solid red;"">","null","","","","","","","","","",""
"","image-keyboard-response","122","99106","0.0-122.0","","","","","976","img/food2.png","74","976","1","1","2","1","1,0.7,0,1,0.7,0,0.7,0,1","0.7,0,1,0.7,0,1,0,1,0.7","2","",""
"","html-keyboard-response","123","99407","0.0-123.0","","","","","null","<img src=""img/food2.png"" style=""width:200px; border:14px solid green;"">","null","","","","","","","","","",""
"","image-keyboard-response","124","100331","0.0-124.0","","","","","921","img/food1.png","76","924","3","1","1","1","1,0.7,0,1,0.7,0,0.7,0,1","0.7,0,1,0.7,0,1,0,1,0.7","2","",""
"","html-keyboard-response","125","100659","0.0-125.0","","","","","null","<img src=""img/food1.png"" style=""width:200px; border:14px solid green;"">","null","","","","","","","","","",""
"","image-keyboard-response","126","101633","0.0-126.0","","","","","971","img/food2.png","74","973","1","0","2","1","1,0.7,0,1,0.7,0,0.7,0,1","0.7,0,1,0.7,0,1,0,1,0.7","2","",""
"","html-keyboard-response","127","101936","0.0-127.0","","","","","null","<img src=""img/food2.png"" style=""width:200px;border:14px solid red;"">","null","","","","","","","","","",""
"","image-keyboard-response","128","102889","0.0-128.0","","","","","952","img/food1.png","76","952","3","1","1","1","1,0.7,0,1,0.7,0,0.7,0,1","0.7,0,1,0.7,0,1,0,1,0.7","2","",""
"","html-keyboard-response","129","103192","0.0-129.0","","","","","null","<img src=""img/food1.png"" style=""width:200px; border:14px solid green;"">","null","","","","","","","","","",""
"","image-keyboard-response","130","104019","0.0-130.0","","","","","824","img/food1.png","76","827","3","1","1","1","1,0.7,0,1,0.7,0,0.7,0,1","0.7,0,1,0.7,0,1,0,1,0.7","2","",""
"","html-keyboard-response","131","104323","0.0-131.0","","","","","null","<img src=""img/food1.png"" style=""width:200px; border:14px solid green;"">","null","","","","","","","","","",""
"","image-keyboard-response","132","104973","0.0-132.0","","","","","650","img/food1.png","76","650","3","1","1","1","1,0.7,0,1,0.7,0,0.7,0,1","0.7,0,1,0.7,0,1,0,1,0.7","2","",""
"","html-keyboard-response","133","105279","0.0-133.0","","","","","null","<img src=""img/food1.png"" style=""width:200px; border:14px solid green;"">","null","","","","","","","","","",""
"","image-keyboard-response","134","106260","0.0-134.0","","","","","980","img/food2.png","75","981","2","0","2","1","1,0.7,0,1,0.7,0,0.7,0,1","0.7,0,1,0.7,0,1,0,1,0.7","2","",""
"","html-keyboard-response","135","106568","0.0-135.0","","","","","null","<img src=""img/food2.png"" style=""width:200px;border:14px solid red;"">","null","","","","","","","","","",""
"","image-keyboard-response","136","107763","0.0-136.0","","","","","1193","img/food6.png","75","1195","2","1","3","1","1,0.7,0,1,0.7,0,0.7,0,1","0.7,0,1,0.7,0,1,0,1,0.7","2","",""
"","html-keyboard-response","137","108064","0.0-137.0","","","","","null","<img src=""img/food6.png"" style=""width:200px; border:14px solid green;"">","null","","","","","","","","","",""
"","image-keyboard-response","138","109218","0.0-138.0","","","","","1150","img/food2.png","74","1154","1","1","2","1","1,0.7,0,1,0.7,0,0.7,0,1","0.7,0,1,0.7,0,1,0,1,0.7","2","",""
"","html-keyboard-response","139","109524","0.0-139.0","","","","","null","<img src=""img/food2.png"" style=""width:200px; border:14px solid green;"">","null","","","","","","","","","",""
"","image-keyboard-response","140","110411","0.0-140.0","","","","","885","img/food6.png","75","887","2","1","3","1","1,0.7,0,1,0.7,0,0.7,0,1","0.7,0,1,0.7,0,1,0,1,0.7","2","",""
"","html-keyboard-response","141","110723","0.0-141.0","","","","","null","<img src=""img/food6.png"" style=""width:200px; border:14px solid green;"">","null","","","","","","","","","",""
"","image-keyboard-response","142","111682","0.0-142.0","","","","","959","img/food1.png","76","959","3","1","1","1","1,0.7,0,1,0.7,0,0.7,0,1","0.7,0,1,0.7,0,1,0,1,0.7","2","",""
"","html-keyboard-response","143","111984","0.0-143.0","","","","","null","<img src=""img/food1.png"" style=""width:200px; border:14px solid green;"">","null","","","","","","","","","",""
"","image-keyboard-response","144","113104","0.0-144.0","","","","","1119","img/food2.png","74","1120","1","1","2","1","1,0.7,0,1,0.7,0,0.7,0,1","0.7,0,1,0.7,0,1,0,1,0.7","2","",""
"","html-keyboard-response","145","113406","0.0-145.0","","","","","null","<img src=""img/food2.png"" style=""width:200px; border:14px solid green;"">","null","","","","","","","","","",""
"","image-keyboard-response","146","114297","0.0-146.0","","","","","890","img/food2.png","74","891","1","0","2","1","1,0.7,0,1,0.7,0,0.7,0,1","0.7,0,1,0.7,0,1,0,1,0.7","2","",""
"","html-keyboard-response","147","114599","0.0-147.0","","","","","null","<img src=""img/food2.png"" style=""width:200px;border:14px solid red;"">","null","","","","","","","","","",""
"","image-keyboard-response","148","116601","0.0-148.0","","","","","","img/food6.png","","2002","-1","0","3","1","1,0.7,0,1,0.7,0,0.7,0,1","0.7,0,1,0.7,0,1,0,1,0.7","2","",""
"","html-keyboard-response","149","116908","0.0-149.0","","","","","null","<img src=""img/food6.png"" style=""width:200px;border:14px solid red;"">","null","","","","","","","","","",""
"","image-keyboard-response","150","118911","0.0-150.0","","","","","","img/food2.png","","2004","-1","0","2","1","1,0.7,0,1,0.7,0,0.7,0,1","0.7,0,1,0.7,0,1,0,1,0.7","2","",""
"","html-keyboard-response","151","119270","0.0-151.0","","","","","null","<img src=""img/food2.png"" style=""width:200px;border:14px solid red;"">","null","","","","","","","","","",""
"","image-keyboard-response","152","121398","0.0-152.0","","","","","","img/food2.png","","2129","-1","0","2","1","1,0.7,0,1,0.7,0,0.7,0,1","0.7,0,1,0.7,0,1,0,1,0.7","2","",""
"","html-keyboard-response","153","121721","0.0-153.0","","","","","null","<img src=""img/food2.png"" style=""width:200px;border:14px solid red;"">","null","","","","","","","","","",""
"","image-keyboard-response","154","123375","0.0-154.0","","","","","1653","img/food6.png","74","1653","1","0","3","1","1,0.7,0,1,0.7,0,0.7,0,1","0.7,0,1,0.7,0,1,0,1,0.7","2","",""
"","html-keyboard-response","155","123683","0.0-155.0","","","","","null","<img src=""img/food6.png"" style=""width:200px;border:14px solid red;"">","null","","","","","","","","","",""
"","image-keyboard-response","156","124523","0.0-156.0","","","","","837","img/food1.png","75","840","2","0","1","1","1,0.7,0,1,0.7,0,0.7,0,1","0.7,0,1,0.7,0,1,0,1,0.7","2","",""
"","html-keyboard-response","157","124827","0.0-157.0","","","","","null","<img src=""img/food1.png"" style=""width:200px;border:14px solid red;"">","null","","","","","","","","","",""
"","image-keyboard-response","158","126051","0.0-158.0","","","","","1211","img/food6.png","76","1223","3","1","3","1","1,0.7,0,1,0.7,0,0.7,0,1","0.7,0,1,0.7,0,1,0,1,0.7","2","",""
"","html-keyboard-response","159","126352","0.0-159.0","","","","","null","<img src=""img/food6.png"" style=""width:200px; border:14px solid green;"">","null","","","","","","","","","",""
"","image-keyboard-response","160","127190","0.0-160.0","","","","","837","img/food1.png","76","838","3","1","1","1","1,0.7,0,1,0.7,0,0.7,0,1","0.7,0,1,0.7,0,1,0,1,0.7","2","",""
"","html-keyboard-response","161","127493","0.0-161.0","","","","","null","<img src=""img/food1.png"" style=""width:200px; border:14px solid green;"">","null","","","","","","","","","",""
"","image-keyboard-response","162","128235","0.0-162.0","","","","","741","img/food6.png","76","742","3","0","3","1","1,0.7,0,1,0.7,0,0.7,0,1","0.7,0,1,0.7,0,1,0,1,0.7","2","",""
"","html-keyboard-response","163","128542","0.0-163.0","","","","","null","<img src=""img/food6.png"" style=""width:200px;border:14px solid red;"">","null","","","","","","","","","",""
"","image-keyboard-response","164","129648","0.0-164.0","","","","","1105","img/food2.png","74","1106","1","1","2","1","1,0.7,0,1,0.7,0,0.7,0,1","0.7,0,1,0.7,0,1,0,1,0.7","2","",""
"","html-keyboard-response","165","129953","0.0-165.0","","","","","null","<img src=""img/food2.png"" style=""width:200px; border:14px solid green;"">","null","","","","","","","","","",""
"","image-keyboard-response","166","131008","0.0-166.0","","","","","1053","img/food1.png","76","1055","3","1","1","1","1,0.7,0,1,0.7,0,0.7,0,1","0.7,0,1,0.7,0,1,0,1,0.7","2","",""
"","html-keyboard-response","167","131312","0.0-167.0","","","","","null","<img src=""img/food1.png"" style=""width:200px; border:14px solid green;"">","null","","","","","","","","","",""
"","image-keyboard-response","168","132228","0.0-168.0","","","","","915","img/food1.png","76","916","3","1","1","1","1,0.7,0,1,0.7,0,0.7,0,1","0.7,0,1,0.7,0,1,0,1,0.7","2","",""
"","html-keyboard-response","169","132538","0.0-169.0","","","","","null","<img src=""img/food1.png"" style=""width:200px; border:14px solid green;"">","null","","","","","","","","","",""
"","image-keyboard-response","170","133548","0.0-170.0","","","","","1008","img/food6.png","75","1010","2","1","3","1","1,0.7,0,1,0.7,0,0.7,0,1","0.7,0,1,0.7,0,1,0,1,0.7","2","",""
"","html-keyboard-response","171","133853","0.0-171.0","","","","","null","<img src=""img/food6.png"" style=""width:200px; border:14px solid green;"">","null","","","","","","","","","",""
"","image-keyboard-response","172","134808","0.0-172.0","","","","","953","img/food6.png","75","954","2","1","3","1","1,0.7,0,1,0.7,0,0.7,0,1","0.7,0,1,0.7,0,1,0,1,0.7","2","",""
"","html-keyboard-response","173","135115","0.0-173.0","","","","","null","<img src=""img/food6.png"" style=""width:200px; border:14px solid green;"">","null","","","","","","","","","",""
"","image-keyboard-response","174","135975","0.0-174.0","","","","","859","img/food2.png","74","860","1","1","2","1","1,0.7,0,1,0.7,0,0.7,0,1","0.7,0,1,0.7,0,1,0,1,0.7","2","",""
"","html-keyboard-response","175","136280","0.0-175.0","","","","","null","<img src=""img/food2.png"" style=""width:200px; border:14px solid green;"">","null","","","","","","","","","",""
"","image-keyboard-response","176","137101","0.0-176.0","","","","","819","img/food2.png","74","821","1","1","2","1","1,0.7,0,1,0.7,0,0.7,0,1","0.7,0,1,0.7,0,1,0,1,0.7","2","",""
"","html-keyboard-response","177","137407","0.0-177.0","","","","","null","<img src=""img/food2.png"" style=""width:200px; border:14px solid green;"">","null","","","","","","","","","",""
"","image-keyboard-response","178","138591","0.0-178.0","","","","","1184","img/food6.png","76","1184","3","0","3","1","1,0.7,0,1,0.7,0,0.7,0,1","0.7,0,1,0.7,0,1,0,1,0.7","2","",""
"","html-keyboard-response","179","138892","0.0-179.0","","","","","null","<img src=""img/food6.png"" style=""width:200px;border:14px solid red;"">","null","","","","","","","","","",""
"","image-keyboard-response","180","139773","0.0-180.0","","","","","879","img/food2.png","74","881","1","1","2","1","1,0.7,0,1,0.7,0,0.7,0,1","0.7,0,1,0.7,0,1,0,1,0.7","2","",""
"","html-keyboard-response","181","140076","0.0-181.0","","","","","null","<img src=""img/food2.png"" style=""width:200px; border:14px solid green;"">","null","","","","","","","","","",""
"","html-keyboard-response","182","143211","0.0-182.0","","","","","","","","","","","","","","","","",""
"","instructions","183","146180","0.0-183.0","","","","[{""page_index"":0,""viewing_time"":1670},{""page_index"":1,""viewing_time"":1298}]","2968","","","","","","","","","","","",""
"","image-keyboard-response","184","147181","0.0-184.0","","","","","998","img/food4.png","76","1002","3","0","3","2","1,0.7,0,1,0.7,0,0.7,0,1","0,1,0.7,0,1,0.7,1,0.7,0","3","false",""
"","html-keyboard-response","185","147488","0.0-185.0","","","","","null","<img src=""img/food4.png"" style=""width:200px;border:14px solid red;"">","null","","","","","","","","","",""
"","image-keyboard-response","186","148492","0.0-187.0","","","","","","img/food5.png","","1004","-1","0","2","2","1,0.7,0,1,0.7,0,0.7,0,1","0,1,0.7,0,1,0.7,1,0.7,0","3","true",""
"","html-keyboard-response","187","148811","0.0-188.0","","","","","null","<img src=""img/food5.png"" style=""width:200px;border:14px solid red;"">","null","","","","","","","","","",""
"","html-keyboard-response","188","151406","0.0-189.0-0.0","","","","","","","","","","","","","","","","",""
"","image-keyboard-response","189","152350","0.0-190.0","","","","","940","img/food4.png","76","944","3","0","3","2","1,0.7,0,1,0.7,0,0.7,0,1","0,1,0.7,0,1,0.7,1,0.7,0","3","false",""
"","html-keyboard-response","190","152652","0.0-191.0","","","","","null","<img src=""img/food4.png"" style=""width:200px;border:14px solid red;"">","null","","","","","","","","","",""
"","image-keyboard-response","191","153652","0.0-193.0","","","","","","img/food3.png","","1000","-1","0","1","2","1,0.7,0,1,0.7,0,0.7,0,1","0,1,0.7,0,1,0.7,1,0.7,0","3","true",""
"","html-keyboard-response","192","153956","0.0-194.0","","","","","null","<img src=""img/food3.png"" style=""width:200px;border:14px solid red;"">","null","","","","","","","","","",""
"","html-keyboard-response","193","155102","0.0-195.0-0.0","","","","","","","","","","","","","","","","",""
"","image-keyboard-response","194","156106","0.0-196.0","","","","","","img/food5.png","","1003","-1","0","2","2","1,0.7,0,1,0.7,0,0.7,0,1","0,1,0.7,0,1,0.7,1,0.7,0","3","true",""
"","html-keyboard-response","195","156409","0.0-197.0","","","","","null","<img src=""img/food5.png"" style=""width:200px;border:14px solid red;"">","null","","","","","","","","","",""
"","html-keyboard-response","196","157540","0.0-198.0-0.0","","","","","","","","","","","","","","","","",""
"","image-keyboard-response","197","158249","0.0-199.0","","","","","708","img/food4.png","74","709","1","1","3","2","1,0.7,0,1,0.7,0,0.7,0,1","0,1,0.7,0,1,0.7,1,0.7,0","3","false",""
"","html-keyboard-response","198","158554","0.0-200.0","","","","","null","<img src=""img/food4.png"" style=""width:200px; border:14px solid green;"">","null","","","","","","","","","",""
"","image-keyboard-response","199","159378","0.0-202.0","","","","","823","img/food4.png","74","824","1","1","3","2","1,0.7,0,1,0.7,0,0.7,0,1","0,1,0.7,0,1,0.7,1,0.7,0","3","false",""
"","html-keyboard-response","200","159690","0.0-203.0","","","","","null","<img src=""img/food4.png"" style=""width:200px; border:14px solid green;"">","null","","","","","","","","","",""
"","image-keyboard-response","201","160723","0.0-205.0","","","","","1029","img/food5.png","75","1033","2","1","2","2","1,0.7,0,1,0.7,0,0.7,0,1","0,1,0.7,0,1,0.7,1,0.7,0","3","false",""
"","html-keyboard-response","202","161029","0.0-206.0","","","","","null","<img src=""img/food5.png"" style=""width:200px; border:14px solid green;"">","null","","","","","","","","","",""
"","image-keyboard-response","203","162030","0.0-208.0","","","","","","img/food3.png","","1001","-1","0","1","2","1,0.7,0,1,0.7,0,0.7,0,1","0,1,0.7,0,1,0.7,1,0.7,0","3","true",""
"","html-keyboard-response","204","162338","0.0-209.0","","","","","null","<img src=""img/food3.png"" style=""width:200px;border:14px solid red;"">","null","","","","","","","","","",""
"","html-keyboard-response","205","163441","0.0-210.0-0.0","","","","","","","","","","","","","","","","",""
"","image-keyboard-response","206","164203","0.0-211.0","","","","","759","img/food3.png","74","762","1","0","1","2","1,0.7,0,1,0.7,0,0.7,0,1","0,1,0.7,0,1,0.7,1,0.7,0","3","false",""
"","html-keyboard-response","207","164533","0.0-212.0","","","","","null","<img src=""img/food3.png"" style=""width:200px;border:14px solid red;"">","null","","","","","","","","","",""
"","image-keyboard-response","208","165534","0.0-214.0","","","","","","img/food4.png","","1001","-1","0","3","2","1,0.7,0,1,0.7,0,0.7,0,1","0,1,0.7,0,1,0.7,1,0.7,0","3","true",""
"","html-keyboard-response","209","165838","0.0-215.0","","","","","null","<img src=""img/food4.png"" style=""width:200px;border:14px solid red;"">","null","","","","","","","","","",""
"","html-keyboard-response","210","166835","0.0-216.0-0.0","","","","","","","","","","","","","","","","",""
"","image-keyboard-response","211","167562","0.0-217.0","","","","","726","img/food4.png","74","727","1","1","3","2","1,0.7,0,1,0.7,0,0.7,0,1","0,1,0.7,0,1,0.7,1,0.7,0","3","false",""
"","html-keyboard-response","212","167920","0.0-218.0","","","","","null","<img src=""img/food4.png"" style=""width:200px; border:14px solid green;"">","null","","","","","","","","","",""
"","image-keyboard-response","213","168873","0.0-220.0","","","","","946","img/food5.png","74","949","1","0","2","2","1,0.7,0,1,0.7,0,0.7,0,1","0,1,0.7,0,1,0.7,1,0.7,0","3","false",""
"","html-keyboard-response","214","169182","0.0-221.0","","","","","null","<img src=""img/food5.png"" style=""width:200px;border:14px solid red;"">","null","","","","","","","","","",""
"","image-keyboard-response","215","170121","0.0-223.0","","","","","937","img/food4.png","74","938","1","1","3","2","1,0.7,0,1,0.7,0,0.7,0,1","0,1,0.7,0,1,0.7,1,0.7,0","3","false",""
"","html-keyboard-response","216","170444","0.0-224.0","","","","","null","<img src=""img/food4.png"" style=""width:200px; border:14px solid green;"">","null","","","","","","","","","",""
"","image-keyboard-response","217","171406","0.0-226.0","","","","","961","img/food3.png","75","962","2","1","1","2","1,0.7,0,1,0.7,0,0.7,0,1","0,1,0.7,0,1,0.7,1,0.7,0","3","false",""
"","html-keyboard-response","218","171708","0.0-227.0","","","","","null","<img src=""img/food3.png"" style=""width:200px; border:14px solid green;"">","null","","","","","","","","","",""
"","image-keyboard-response","219","172523","0.0-229.0","","","","","810","img/food3.png","75","814","2","1","1","2","1,0.7,0,1,0.7,0,0.7,0,1","0,1,0.7,0,1,0.7,1,0.7,0","3","false",""
"","html-keyboard-response","220","172839","0.0-230.0","","","","","null","<img src=""img/food3.png"" style=""width:200px; border:14px solid green;"">","null","","","","","","","","","",""
"","image-keyboard-response","221","173832","0.0-232.0","","","","","992","img/food5.png","76","992","3","1","2","2","1,0.7,0,1,0.7,0,0.7,0,1","0,1,0.7,0,1,0.7,1,0.7,0","3","false",""
"","html-keyboard-response","222","174138","0.0-233.0","","","","","null","<img src=""img/food5.png"" style=""width:200px; border:14px solid green;"">","null","","","","","","","","","",""
"","image-keyboard-response","223","175141","0.0-235.0","","","","","","img/food4.png","","1002","-1","0","3","2","1,0.7,0,1,0.7,0,0.7,0,1","0,1,0.7,0,1,0.7,1,0.7,0","3","true",""
"","html-keyboard-response","224","175447","0.0-236.0","","","","","null","<img src=""img/food4.png"" style=""width:200px;border:14px solid red;"">","null","","","","","","","","","",""
"","html-keyboard-response","225","176559","0.0-237.0-0.0","","","","","","","","","","","","","","","","",""
"","image-keyboard-response","226","177565","0.0-238.0","","","","","","img/food3.png","","1006","-1","0","1","2","1,0.7,0,1,0.7,0,0.7,0,1","0,1,0.7,0,1,0.7,1,0.7,0","3","true",""
"","html-keyboard-response","227","177940","0.0-239.0","","","","","null","<img src=""img/food3.png"" style=""width:200px;border:14px solid red;"">","null","","","","","","","","","",""
"","html-keyboard-response","228","178945","0.0-240.0-0.0","","","","","","","","","","","","","","","","",""
"","image-keyboard-response","229","179724","0.0-241.0","","","","","776","img/food5.png","74","778","1","0","2","2","1,0.7,0,1,0.7,0,0.7,0,1","0,1,0.7,0,1,0.7,1,0.7,0","3","false",""
"","html-keyboard-response","230","180027","0.0-242.0","","","","","null","<img src=""img/food5.png"" style=""width:200px;border:14px solid red;"">","null","","","","","","","","","",""
"","image-keyboard-response","231","180823","0.0-244.0","","","","","795","img/food4.png","76","796","3","0","3","2","1,0.7,0,1,0.7,0,0.7,0,1","0,1,0.7,0,1,0.7,1,0.7,0","3","false",""
"","html-keyboard-response","232","181126","0.0-245.0","","","","","null","<img src=""img/food4.png"" style=""width:200px;border:14px solid red;"">","null","","","","","","","","","",""
"","image-keyboard-response","233","181871","0.0-247.0","","","","","744","img/food3.png","75","744","2","1","1","2","1,0.7,0,1,0.7,0,0.7,0,1","0,1,0.7,0,1,0.7,1,0.7,0","3","false",""
"","html-keyboard-response","234","182174","0.0-248.0","","","","","null","<img src=""img/food3.png"" style=""width:200px; border:14px solid green;"">","null","","","","","","","","","",""
"","image-keyboard-response","235","182981","0.0-250.0","","","","","805","img/food5.png","75","807","2","1","2","2","1,0.7,0,1,0.7,0,0.7,0,1","0,1,0.7,0,1,0.7,1,0.7,0","3","false",""
"","html-keyboard-response","236","183283","0.0-251.0","","","","","null","<img src=""img/food5.png"" style=""width:200px; border:14px solid green;"">","null","","","","","","","","","",""
"","image-keyboard-response","237","184003","0.0-253.0","","","","","718","img/food5.png","75","720","2","1","2","2","1,0.7,0,1,0.7,0,0.7,0,1","0,1,0.7,0,1,0.7,1,0.7,0","3","false",""
"","html-keyboard-response","238","184309","0.0-254.0","","","","","null","<img src=""img/food5.png"" style=""width:200px; border:14px solid green;"">","null","","","","","","","","","",""
"","image-keyboard-response","239","185328","0.0-256.0","","","","","","img/food3.png","","1018","-1","0","1","2","1,0.7,0,1,0.7,0,0.7,0,1","0,1,0.7,0,1,0.7,1,0.7,0","3","true",""
"","html-keyboard-response","240","185630","0.0-257.0","","","","","null","<img src=""img/food3.png"" style=""width:200px;border:14px solid red;"">","null","","","","","","","","","",""
"","html-keyboard-response","241","186618","0.0-258.0-0.0","","","","","","","","","","","","","","","","",""
"","image-keyboard-response","242","187445","0.0-259.0","","","","","826","img/food3.png","75","826","2","1","1","2","1,0.7,0,1,0.7,0,0.7,0,1","0,1,0.7,0,1,0.7,1,0.7,0","3","false",""
"","html-keyboard-response","243","187746","0.0-260.0","","","","","null","<img src=""img/food3.png"" style=""width:200px; border:14px solid green;"">","null","","","","","","","","","",""
"","image-keyboard-response","244","188407","0.0-262.0","","","","","657","img/food4.png","75","660","2","1","3","2","1,0.7,0,1,0.7,0,0.7,0,1","0,1,0.7,0,1,0.7,1,0.7,0","3","false",""
"","html-keyboard-response","245","188752","0.0-263.0","","","","","null","<img src=""img/food4.png"" style=""width:200px; border:14px solid green;"">","null","","","","","","","","","",""
"","image-keyboard-response","246","189517","0.0-265.0","","","","","755","img/food4.png","75","762","2","0","3","2","1,0.7,0,1,0.7,0,0.7,0,1","0,1,0.7,0,1,0.7,1,0.7,0","3","false",""
"","html-keyboard-response","247","189820","0.0-266.0","","","","","null","<img src=""img/food4.png"" style=""width:200px;border:14px solid red;"">","null","","","","","","","","","",""
"","image-keyboard-response","248","190808","0.0-268.0","","","","","986","img/food3.png","75","988","2","1","1","2","1,0.7,0,1,0.7,0,0.7,0,1","0,1,0.7,0,1,0.7,1,0.7,0","3","false",""
"","html-keyboard-response","249","191109","0.0-269.0","","","","","null","<img src=""img/food3.png"" style=""width:200px; border:14px solid green;"">","null","","","","","","","","","",""
"","image-keyboard-response","250","191701","0.0-271.0","","","","","590","img/food3.png","75","591","2","1","1","2","1,0.7,0,1,0.7,0,0.7,0,1","0,1,0.7,0,1,0.7,1,0.7,0","3","false",""
"","html-keyboard-response","251","192002","0.0-272.0","","","","","null","<img src=""img/food3.png"" style=""width:200px; border:14px solid green;"">","null","","","","","","","","","",""
"","image-keyboard-response","252","193064","0.0-274.0","","","","","1051","img/food4.png","74","1064","1","1","3","2","1,0.7,0,1,0.7,0,0.7,0,1","0,1,0.7,0,1,0.7,1,0.7,0","3","false",""
"","html-keyboard-response","253","193388","0.0-275.0","","","","","null","<img src=""img/food4.png"" style=""width:200px; border:14px solid green;"">","null","","","","","","","","","",""
"","image-keyboard-response","254","194109","0.0-277.0","","","","","719","img/food4.png","74","721","1","1","3","2","1,0.7,0,1,0.7,0,0.7,0,1","0,1,0.7,0,1,0.7,1,0.7,0","3","false",""
"","html-keyboard-response","255","194410","0.0-278.0","","","","","null","<img src=""img/food4.png"" style=""width:200px; border:14px solid green;"">","null","","","","","","","","","",""
"","image-keyboard-response","256","195384","0.0-280.0","","","","","973","img/food5.png","76","973","3","1","2","2","1,0.7,0,1,0.7,0,0.7,0,1","0,1,0.7,0,1,0.7,1,0.7,0","3","false",""
"","html-keyboard-response","257","195688","0.0-281.0","","","","","null","<img src=""img/food5.png"" style=""width:200px; border:14px solid green;"">","null","","","","","","","","","",""
"","image-keyboard-response","258","196701","0.0-283.0","","","","","","img/food4.png","","1011","-1","0","3","2","1,0.7,0,1,0.7,0,0.7,0,1","0,1,0.7,0,1,0.7,1,0.7,0","3","true",""
"","html-keyboard-response","259","197159","0.0-284.0","","","","","null","<img src=""img/food4.png"" style=""width:200px;border:14px solid red;"">","null","","","","","","","","","",""
"","html-keyboard-response","260","198786","0.0-285.0-0.0","","","","","","","","","","","","","","","","",""
"","image-keyboard-response","261","199442","0.0-286.0","","","","","654","img/food5.png","75","656","2","1","2","2","1,0.7,0,1,0.7,0,0.7,0,1","0,1,0.7,0,1,0.7,1,0.7,0","3","false",""
"","html-keyboard-response","262","199746","0.0-287.0","","","","","null","<img src=""img/food5.png"" style=""width:200px; border:14px solid green;"">","null","","","","","","","","","",""
"","image-keyboard-response","263","200441","0.0-289.0","","","","","693","img/food3.png","75","695","2","1","1","2","1,0.7,0,1,0.7,0,0.7,0,1","0,1,0.7,0,1,0.7,1,0.7,0","3","false",""
"","html-keyboard-response","264","200755","0.0-290.0","","","","","null","<img src=""img/food3.png"" style=""width:200px; border:14px solid green;"">","null","","","","","","","","","",""
"","image-keyboard-response","265","201438","0.0-292.0","","","","","679","img/food5.png","75","680","2","1","2","2","1,0.7,0,1,0.7,0,0.7,0,1","0,1,0.7,0,1,0.7,1,0.7,0","3","false",""
"","html-keyboard-response","266","201739","0.0-293.0","","","","","null","<img src=""img/food5.png"" style=""width:200px; border:14px solid green;"">","null","","","","","","","","","",""
"","image-keyboard-response","267","202452","0.0-295.0","","","","","712","img/food3.png","75","713","2","1","1","2","1,0.7,0,1,0.7,0,0.7,0,1","0,1,0.7,0,1,0.7,1,0.7,0","3","false",""
"","html-keyboard-response","268","202757","0.0-296.0","","","","","null","<img src=""img/food3.png"" style=""width:200px; border:14px solid green;"">","null","","","","","","","","","",""
"","image-keyboard-response","269","203454","0.0-298.0","","","","","695","img/food5.png","75","696","2","1","2","2","1,0.7,0,1,0.7,0,0.7,0,1","0,1,0.7,0,1,0.7,1,0.7,0","3","false",""
"","html-keyboard-response","270","203762","0.0-299.0","","","","","null","<img src=""img/food5.png"" style=""width:200px; border:14px solid green;"">","null","","","","","","","","","",""
"","image-keyboard-response","271","204429","0.0-301.0","","","","","666","img/food3.png","75","667","2","1","1","2","1,0.7,0,1,0.7,0,0.7,0,1","0,1,0.7,0,1,0.7,1,0.7,0","3","false",""
"","html-keyboard-response","272","204740","0.0-302.0","","","","","null","<img src=""img/food3.png"" style=""width:200px; border:14px solid green;"">","null","","","","","","","","","",""
"","image-keyboard-response","273","205392","0.0-304.0","","","","","649","img/food5.png","75","651","2","1","2","2","1,0.7,0,1,0.7,0,0.7,0,1","0,1,0.7,0,1,0.7,1,0.7,0","3","false",""
"","html-keyboard-response","274","205697","0.0-305.0","","","","","null","<img src=""img/food5.png"" style=""width:200px; border:14px solid green;"">","null","","","","","","","","","",""
"","image-keyboard-response","275","206318","0.0-307.0","","","","","618","img/food3.png","75","619","2","1","1","2","1,0.7,0,1,0.7,0,0.7,0,1","0,1,0.7,0,1,0.7,1,0.7,0","3","false",""
"","html-keyboard-response","276","206630","0.0-308.0","","","","","null","<img src=""img/food3.png"" style=""width:200px; border:14px solid green;"">","null","","","","","","","","","",""
"","image-keyboard-response","277","207234","0.0-310.0","","","","","603","img/food4.png","75","603","2","1","3","2","1,0.7,0,1,0.7,0,0.7,0,1","0,1,0.7,0,1,0.7,1,0.7,0","3","false",""
"","html-keyboard-response","278","207535","0.0-311.0","","","","","null","<img src=""img/food4.png"" style=""width:200px; border:14px solid green;"">","null","","","","","","","","","",""
"","image-keyboard-response","279","208101","0.0-313.0","","","","","564","img/food3.png","75","565","2","1","1","2","1,0.7,0,1,0.7,0,0.7,0,1","0,1,0.7,0,1,0.7,1,0.7,0","3","false",""
"","html-keyboard-response","280","208402","0.0-314.0","","","","","null","<img src=""img/food3.png"" style=""width:200px; border:14px solid green;"">","null","","","","","","","","","",""
"","image-keyboard-response","281","208949","0.0-316.0","","","","","545","img/food3.png","75","547","2","1","1","2","1,0.7,0,1,0.7,0,0.7,0,1","0,1,0.7,0,1,0.7,1,0.7,0","3","false",""
"","html-keyboard-response","282","209254","0.0-317.0","","","","","null","<img src=""img/food3.png"" style=""width:200px; border:14px solid green;"">","null","","","","","","","","","",""
"","image-keyboard-response","283","209671","0.0-319.0","","","","","415","img/food5.png","75","416","2","1","2","2","1,0.7,0,1,0.7,0,0.7,0,1","0,1,0.7,0,1,0.7,1,0.7,0","3","false",""
"","html-keyboard-response","284","209975","0.0-320.0","","","","","null","<img src=""img/food5.png"" style=""width:200px; border:14px solid green;"">","null","","","","","","","","","",""
"","image-keyboard-response","285","210518","0.0-322.0","","","","","542","img/food5.png","75","543","2","1","2","2","1,0.7,0,1,0.7,0,0.7,0,1","0,1,0.7,0,1,0.7,1,0.7,0","3","false",""
"","html-keyboard-response","286","210841","0.0-323.0","","","","","null","<img src=""img/food5.png"" style=""width:200px; border:14px solid green;"">","null","","","","","","","","","",""
"","image-keyboard-response","287","211433","0.0-325.0","","","","","589","img/food3.png","75","590","2","1","1","2","1,0.7,0,1,0.7,0,0.7,0,1","0,1,0.7,0,1,0.7,1,0.7,0","3","false",""
"","html-keyboard-response","288","211763","0.0-326.0","","","","","null","<img src=""img/food3.png"" style=""width:200px; border:14px solid green;"">","null","","","","","","","","","",""
"","image-keyboard-response","289","212324","0.0-328.0","","","","","560","img/food3.png","75","561","2","1","1","2","1,0.7,0,1,0.7,0,0.7,0,1","0,1,0.7,0,1,0.7,1,0.7,0","3","false",""
"","html-keyboard-response","290","212666","0.0-329.0","","","","","null","<img src=""img/food3.png"" style=""width:200px; border:14px solid green;"">","null","","","","","","","","","",""
"","image-keyboard-response","291","213284","0.0-331.0","","","","","616","img/food3.png","75","617","2","1","1","2","1,0.7,0,1,0.7,0,0.7,0,1","0,1,0.7,0,1,0.7,1,0.7,0","3","false",""
"","html-keyboard-response","292","213585","0.0-332.0","","","","","null","<img src=""img/food3.png"" style=""width:200px; border:14px solid green;"">","null","","","","","","","","","",""
"","image-keyboard-response","293","214188","0.0-334.0","","","","","602","img/food3.png","75","602","2","1","1","2","1,0.7,0,1,0.7,0,0.7,0,1","0,1,0.7,0,1,0.7,1,0.7,0","3","false",""
"","html-keyboard-response","294","214495","0.0-335.0","","","","","null","<img src=""img/food3.png"" style=""width:200px; border:14px solid green;"">","null","","","","","","","","","",""
"","image-keyboard-response","295","215054","0.0-337.0","","","","","557","img/food3.png","75","558","2","1","1","2","1,0.7,0,1,0.7,0,0.7,0,1","0,1,0.7,0,1,0.7,1,0.7,0","3","false",""
"","html-keyboard-response","296","215359","0.0-338.0","","","","","null","<img src=""img/food3.png"" style=""width:200px; border:14px solid green;"">","null","","","","","","","","","",""
"","image-keyboard-response","297","215907","0.0-340.0","","","","","546","img/food5.png","75","547","2","1","2","2","1,0.7,0,1,0.7,0,0.7,0,1","0,1,0.7,0,1,0.7,1,0.7,0","3","false",""
"","html-keyboard-response","298","216211","0.0-341.0","","","","","null","<img src=""img/food5.png"" style=""width:200px; border:14px solid green;"">","null","","","","","","","","","",""
"","image-keyboard-response","299","216826","0.0-343.0","","","","","613","img/food3.png","75","614","2","1","1","2","1,0.7,0,1,0.7,0,0.7,0,1","0,1,0.7,0,1,0.7,1,0.7,0","3","false",""
"","html-keyboard-response","300","217132","0.0-344.0","","","","","null","<img src=""img/food3.png"" style=""width:200px; border:14px solid green;"">","null","","","","","","","","","",""
"","image-keyboard-response","301","217675","0.0-346.0","","","","","541","img/food5.png","75","543","2","1","2","2","1,0.7,0,1,0.7,0,0.7,0,1","0,1,0.7,0,1,0.7,1,0.7,0","3","false",""
"","html-keyboard-response","302","217976","0.0-347.0","","","","","null","<img src=""img/food5.png"" style=""width:200px; border:14px solid green;"">","null","","","","","","","","","",""
"","image-keyboard-response","303","218537","0.0-349.0","","","","","559","img/food4.png","75","560","2","0","3","2","1,0.7,0,1,0.7,0,0.7,0,1","0,1,0.7,0,1,0.7,1,0.7,0","3","false",""
"","html-keyboard-response","304","218861","0.0-350.0","","","","","null","<img src=""img/food4.png"" style=""width:200px;border:14px solid red;"">","null","","","","","","","","","",""
"","image-keyboard-response","305","219586","0.0-352.0","","","","","720","img/food4.png","74","720","1","1","3","2","1,0.7,0,1,0.7,0,0.7,0,1","0,1,0.7,0,1,0.7,1,0.7,0","3","false",""
"","html-keyboard-response","306","219946","0.0-353.0","","","","","null","<img src=""img/food4.png"" style=""width:200px; border:14px solid green;"">","null","","","","","","","","","",""
"","image-keyboard-response","307","220952","0.0-355.0","","","","","","img/food5.png","","1006","-1","0","2","2","1,0.7,0,1,0.7,0,0.7,0,1","0,1,0.7,0,1,0.7,1,0.7,0","3","true",""
"","html-keyboard-response","308","221254","0.0-356.0","","","","","null","<img src=""img/food5.png"" style=""width:200px;border:14px solid red;"">","null","","","","","","","","","",""
"","html-keyboard-response","309","223735","0.0-357.0-0.0","","","","","","","","","","","","","","","","",""
"","image-keyboard-response","310","224516","0.0-358.0","","","","","777","img/food4.png","74","781","1","1","3","2","1,0.7,0,1,0.7,0,0.7,0,1","0,1,0.7,0,1,0.7,1,0.7,0","3","false",""
"","html-keyboard-response","311","224819","0.0-359.0","","","","","null","<img src=""img/food4.png"" style=""width:200px; border:14px solid green;"">","null","","","","","","","","","",""
"","image-keyboard-response","312","225538","0.0-361.0","","","","","717","img/food4.png","74","718","1","1","3","2","1,0.7,0,1,0.7,0,0.7,0,1","0,1,0.7,0,1,0.7,1,0.7,0","3","false",""
"","html-keyboard-response","313","225904","0.0-362.0","","","","","null","<img src=""img/food4.png"" style=""width:200px; border:14px solid green;"">","null","","","","","","","","","",""
"","image-keyboard-response","314","226599","0.0-364.0","","","","","692","img/food4.png","74","694","1","1","3","2","1,0.7,0,1,0.7,0,0.7,0,1","0,1,0.7,0,1,0.7,1,0.7,0","3","false",""
"","html-keyboard-response","315","226910","0.0-365.0","","","","","null","<img src=""img/food4.png"" style=""width:200px; border:14px solid green;"">","null","","","","","","","","","",""
"","image-keyboard-response","316","227925","0.0-367.0","","","","","","img/food3.png","","1016","-1","0","1","2","1,0.7,0,1,0.7,0,0.7,0,1","0,1,0.7,0,1,0.7,1,0.7,0","3","true",""
"","html-keyboard-response","317","228231","0.0-368.0","","","","","null","<img src=""img/food3.png"" style=""width:200px;border:14px solid red;"">","null","","","","","","","","","",""
"","html-keyboard-response","318","230704","0.0-369.0-0.0","","","","","","","","","","","","","","","","",""
"","image-keyboard-response","319","231706","0.0-370.0","","","","","","img/food5.png","","1002","-1","0","2","2","1,0.7,0,1,0.7,0,0.7,0,1","0,1,0.7,0,1,0.7,1,0.7,0","3","true",""
"","html-keyboard-response","320","232011","0.0-371.0","","","","","null","<img src=""img/food5.png"" style=""width:200px;border:14px solid red;"">","null","","","","","","","","","",""
"","html-keyboard-response","321","238794","0.0-372.0-0.0","","","","","","","","","","","","","","","","",""
"","image-keyboard-response","322","239796","0.0-373.0","","","","","","img/food5.png","","1001","-1","0","2","2","1,0.7,0,1,0.7,0,0.7,0,1","0,1,0.7,0,1,0.7,1,0.7,0","3","true",""
"","html-keyboard-response","323","240097","0.0-374.0","","","","","null","<img src=""img/food5.png"" style=""width:200px;border:14px solid red;"">","null","","","","","","","","","",""
"","html-keyboard-response","324","242746","0.0-375.0-0.0","","","","","","","","","","","","","","","","",""
"","image-keyboard-response","325","243488","0.0-376.0","","","","","742","img/food3.png","74","743","1","0","1","2","1,0.7,0,1,0.7,0,0.7,0,1","0,1,0.7,0,1,0.7,1,0.7,0","3","false",""
"","html-keyboard-response","326","243790","0.0-377.0","","","","","null","<img src=""img/food3.png"" style=""width:200px;border:14px solid red;"">","null","","","","","","","","","",""
"","image-keyboard-response","327","244418","0.0-379.0","","","","","627","img/food4.png","75","628","2","1","3","2","1,0.7,0,1,0.7,0,0.7,0,1","0,1,0.7,0,1,0.7,1,0.7,0","3","false",""
"","html-keyboard-response","328","244765","0.0-380.0","","","","","null","<img src=""img/food4.png"" style=""width:200px; border:14px solid green;"">","null","","","","","","","","","",""
"","image-keyboard-response","329","245352","0.0-382.0","","","","","587","img/food3.png","75","587","2","1","1","2","1,0.7,0,1,0.7,0,0.7,0,1","0,1,0.7,0,1,0.7,1,0.7,0","3","false",""
"","html-keyboard-response","330","245658","0.0-383.0","","","","","null","<img src=""img/food3.png"" style=""width:200px; border:14px solid green;"">","null","","","","","","","","","",""
"","image-keyboard-response","331","246303","0.0-385.0","","","","","645","img/food5.png","75","646","2","1","2","2","1,0.7,0,1,0.7,0,0.7,0,1","0,1,0.7,0,1,0.7,1,0.7,0","3","false",""
"","html-keyboard-response","332","246607","0.0-386.0","","","","","null","<img src=""img/food5.png"" style=""width:200px; border:14px solid green;"">","null","","","","","","","","","",""
"","image-keyboard-response","333","247234","0.0-388.0","","","","","625","img/food5.png","75","627","2","1","2","2","1,0.7,0,1,0.7,0,0.7,0,1","0,1,0.7,0,1,0.7,1,0.7,0","3","false",""
"","html-keyboard-response","334","247535","0.0-389.0","","","","","null","<img src=""img/food5.png"" style=""width:200px; border:14px solid green;"">","null","","","","","","","","","",""
"","image-keyboard-response","335","248193","0.0-391.0","","","","","657","img/food3.png","75","658","2","1","1","2","1,0.7,0,1,0.7,0,0.7,0,1","0,1,0.7,0,1,0.7,1,0.7,0","3","false",""
"","html-keyboard-response","336","248494","0.0-392.0","","","","","null","<img src=""img/food3.png"" style=""width:200px; border:14px solid green;"">","null","","","","","","","","","",""
"","image-keyboard-response","337","249113","0.0-394.0","","","","","615","img/food5.png","75","618","2","1","2","2","1,0.7,0,1,0.7,0,0.7,0,1","0,1,0.7,0,1,0.7,1,0.7,0","3","false",""
"","html-keyboard-response","338","249423","0.0-395.0","","","","","null","<img src=""img/food5.png"" style=""width:200px; border:14px solid green;"">","null","","","","","","","","","",""
"","image-keyboard-response","339","250067","0.0-397.0","","","","","642","img/food4.png","75","643","2","1","3","2","1,0.7,0,1,0.7,0,0.7,0,1","0,1,0.7,0,1,0.7,1,0.7,0","3","false",""
"","html-keyboard-response","340","250371","0.0-398.0","","","","","null","<img src=""img/food4.png"" style=""width:200px; border:14px solid green;"">","null","","","","","","","","","",""
"","image-keyboard-response","341","250969","0.0-400.0","","","","","598","img/food4.png","75","598","2","1","3","2","1,0.7,0,1,0.7,0,0.7,0,1","0,1,0.7,0,1,0.7,1,0.7,0","3","false",""
"","html-keyboard-response","342","251273","0.0-401.0","","","","","null","<img src=""img/food4.png"" style=""width:200px; border:14px solid green;"">","null","","","","","","","","","",""
"","image-keyboard-response","343","251862","0.0-403.0","","","","","588","img/food4.png","75","590","2","1","3","2","1,0.7,0,1,0.7,0,0.7,0,1","0,1,0.7,0,1,0.7,1,0.7,0","3","false",""
"","html-keyboard-response","344","252166","0.0-404.0","","","","","null","<img src=""img/food4.png"" style=""width:200px; border:14px solid green;"">","null","","","","","","","","","",""
"","image-keyboard-response","345","252783","0.0-406.0","","","","","614","img/food5.png","75","615","2","1","2","2","1,0.7,0,1,0.7,0,0.7,0,1","0,1,0.7,0,1,0.7,1,0.7,0","3","false",""
"","html-keyboard-response","346","253087","0.0-407.0","","","","","null","<img src=""img/food5.png"" style=""width:200px; border:14px solid green;"">","null","","","","","","","","","",""
"","image-keyboard-response","347","253583","0.0-409.0","","","","","493","img/food3.png","75","494","2","1","1","2","1,0.7,0,1,0.7,0,0.7,0,1","0,1,0.7,0,1,0.7,1,0.7,0","3","false",""
"","html-keyboard-response","348","253901","0.0-410.0","","","","","null","<img src=""img/food3.png"" style=""width:200px; border:14px solid green;"">","null","","","","","","","","","",""
"","image-keyboard-response","349","254368","0.0-412.0","","","","","464","img/food4.png","75","465","2","0","3","2","1,0.7,0,1,0.7,0,0.7,0,1","0,1,0.7,0,1,0.7,1,0.7,0","3","false",""
"","html-keyboard-response","350","254764","0.0-413.0","","","","","null","<img src=""img/food4.png"" style=""width:200px;border:14px solid red;"">","null","","","","","","","","","",""
"","image-keyboard-response","351","255637","0.0-415.0","","","","","868","img/food5.png","76","871","3","0","2","2","1,0.7,0,1,0.7,0,0.7,0,1","0,1,0.7,0,1,0.7,1,0.7,0","3","false",""
"","html-keyboard-response","352","255973","0.0-416.0","","","","","null","<img src=""img/food5.png"" style=""width:200px;border:14px solid red;"">","null","","","","","","","","","",""
"","image-keyboard-response","353","256571","0.0-418.0","","","","","598","img/food3.png","75","598","2","1","1","2","1,0.7,0,1,0.7,0,0.7,0,1","0,1,0.7,0,1,0.7,1,0.7,0","3","false",""
"","html-keyboard-response","354","256874","0.0-419.0","","","","","null","<img src=""img/food3.png"" style=""width:200px; border:14px solid green;"">","null","","","","","","","","","",""
"","image-keyboard-response","355","257445","0.0-421.0","","","","","569","img/food4.png","75","571","2","1","3","2","1,0.7,0,1,0.7,0,0.7,0,1","0,1,0.7,0,1,0.7,1,0.7,0","3","false",""
"","html-keyboard-response","356","257748","0.0-422.0","","","","","null","<img src=""img/food4.png"" style=""width:200px; border:14px solid green;"">","null","","","","","","","","","",""
"","image-keyboard-response","357","258327","0.0-424.0","","","","","577","img/food4.png","75","578","2","1","3","2","1,0.7,0,1,0.7,0,0.7,0,1","0,1,0.7,0,1,0.7,1,0.7,0","3","false",""
"","html-keyboard-response","358","258631","0.0-425.0","","","","","null","<img src=""img/food4.png"" style=""width:200px; border:14px solid green;"">","null","","","","","","","","","",""
"","image-keyboard-response","359","259296","0.0-427.0","","","","","664","img/food4.png","75","666","2","1","3","2","1,0.7,0,1,0.7,0,0.7,0,1","0,1,0.7,0,1,0.7,1,0.7,0","3","false",""
"","html-keyboard-response","360","259602","0.0-428.0","","","","","null","<img src=""img/food4.png"" style=""width:200px; border:14px solid green;"">","null","","","","","","","","","",""
"","image-keyboard-response","361","260366","0.0-430.0","","","","","762","img/food4.png","75","763","2","1","3","2","1,0.7,0,1,0.7,0,0.7,0,1","0,1,0.7,0,1,0.7,1,0.7,0","3","false",""
"","html-keyboard-response","362","260669","0.0-431.0","","","","","null","<img src=""img/food4.png"" style=""width:200px; border:14px solid green;"">","null","","","","","","","","","",""
"","image-keyboard-response","363","261354","0.0-433.0","","","","","683","img/food3.png","75","684","2","1","1","2","1,0.7,0,1,0.7,0,0.7,0,1","0,1,0.7,0,1,0.7,1,0.7,0","3","false",""
"","html-keyboard-response","364","261661","0.0-434.0","","","","","null","<img src=""img/food3.png"" style=""width:200px; border:14px solid green;"">","null","","","","","","","","","",""
"","image-keyboard-response","365","262671","0.0-436.0","","","","","","img/food5.png","","1009","-1","0","2","2","1,0.7,0,1,0.7,0,0.7,0,1","0,1,0.7,0,1,0.7,1,0.7,0","3","true",""
"","html-keyboard-response","366","262973","0.0-437.0","","","","","null","<img src=""img/food5.png"" style=""width:200px;border:14px solid red;"">","null","","","","","","","","","",""
"","html-keyboard-response","367","265538","0.0-438.0-0.0","","","","","","","","","","","","","","","","",""
"","image-keyboard-response","368","266526","0.0-439.0","","","","","987","img/food5.png","75","988","2","1","2","2","1,0.7,0,1,0.7,0,0.7,0,1","0,1,0.7,0,1,0.7,1,0.7,0","3","false",""
"","html-keyboard-response","369","266855","0.0-440.0","","","","","null","<img src=""img/food5.png"" style=""width:200px; border:14px solid green;"">","null","","","","","","","","","",""
"","image-keyboard-response","370","267460","0.0-442.0","","","","","604","img/food5.png","74","605","1","0","2","2","1,0.7,0,1,0.7,0,0.7,0,1","0,1,0.7,0,1,0.7,1,0.7,0","3","false",""
"","html-keyboard-response","371","267834","0.0-443.0","","","","","null","<img src=""img/food5.png"" style=""width:200px;border:14px solid red;"">","null","","","","","","","","","",""
"","image-keyboard-response","372","268446","0.0-445.0","","","","","611","img/food4.png","75","611","2","1","3","2","1,0.7,0,1,0.7,0,0.7,0,1","0,1,0.7,0,1,0.7,1,0.7,0","3","false",""
"","html-keyboard-response","373","268781","0.0-446.0","","","","","null","<img src=""img/food4.png"" style=""width:200px; border:14px solid green;"">","null","","","","","","","","","",""
"","image-keyboard-response","374","269392","0.0-448.0","","","","","608","img/food5.png","75","609","2","1","2","2","1,0.7,0,1,0.7,0,0.7,0,1","0,1,0.7,0,1,0.7,1,0.7,0","3","false",""
"","html-keyboard-response","375","269694","0.0-449.0","","","","","null","<img src=""img/food5.png"" style=""width:200px; border:14px solid green;"">","null","","","","","","","","","",""
"","image-keyboard-response","376","270272","0.0-451.0","","","","","577","img/food5.png","75","577","2","1","2","2","1,0.7,0,1,0.7,0,0.7,0,1","0,1,0.7,0,1,0.7,1,0.7,0","3","false",""
"","html-keyboard-response","377","270579","0.0-452.0","","","","","null","<img src=""img/food5.png"" style=""width:200px; border:14px solid green;"">","null","","","","","","","","","",""
"","instructions","378","272774","0.0-454.0","","","","[{""page_index"":0,""viewing_time"":2183}]","2183","","","","","","","","","","","",""
"","survey-text","379","276871","0.0-455.0","","","","","4090","","","","","","","","","","","","{""Q0"":""A1CN1H9UODZ1E6""}"
