"success","trial_type","trial_index","time_elapsed","internal_node_id","assignmentID","mturkID","hitID","view_history","rt","stimulus","key_press","reactionTime","a","r","s","cond","reward_cond","reward_cond_actual","reward_matrix_idx","warning","responses"
"true","fullscreen","0","6180","0.0-0.0","3QRYMNZ7FZ3FFW69XNUQKFNT8Y2NTU","A1DKVUTOBPQH11","3FVBZG9CLJ0K37PD5L6161S4HTM0HN","","","","","","","","","","","","","",""
"","instructions","1","54654","0.0-1.0","3QRYMNZ7FZ3FFW69XNUQKFNT8Y2NTU","A1DKVUTOBPQH11","3FVBZG9CLJ0K37PD5L6161S4HTM0HN","[{""page_index"":0,""viewing_time"":3923.2000000029802},{""page_index"":1,""viewing_time"":2698},{""page_index"":2,""viewing_time"":10731},{""page_index"":3,""viewing_time"":9148.19999999553},{""page_index"":4,""viewing_time"":3600.5},{""page_index"":5,""viewing_time"":12277.5},{""page_index"":6,""viewing_time"":6094}]","48472.60000000149","","","","","","","","","","","",""
"","image-keyboard-response","2","56363","0.0-2.0","3QRYMNZ7FZ3FFW69XNUQKFNT8Y2NTU","A1DKVUTOBPQH11","3FVBZG9CLJ0K37PD5L6161S4HTM0HN","","1707.8999999985099","img/food5.png","74","1708.7999999970198","1","0","2","1","1,0.5,0,1,0.5,0,0.5,0,1","0.5,0,1,0.5,0,1,0,1,0.5","2","",""
"","html-keyboard-response","3","56664","0.0-3.0","3QRYMNZ7FZ3FFW69XNUQKFNT8Y2NTU","A1DKVUTOBPQH11","3FVBZG9CLJ0K37PD5L6161S4HTM0HN","","null","<img src=""img/food5.png"" style=""width:200px;border:14px solid red;"">","null","","","","","","","","","",""
"","image-keyboard-response","4","57718","0.0-4.0","3QRYMNZ7FZ3FFW69XNUQKFNT8Y2NTU","A1DKVUTOBPQH11","3FVBZG9CLJ0K37PD5L6161S4HTM0HN","","1052.6000000014901","img/food5.png","74","1053.2999999970198","1","1","2","1","1,0.5,0,1,0.5,0,0.5,0,1","0.5,0,1,0.5,0,1,0,1,0.5","2","",""
"","html-keyboard-response","5","58020","0.0-5.0","3QRYMNZ7FZ3FFW69XNUQKFNT8Y2NTU","A1DKVUTOBPQH11","3FVBZG9CLJ0K37PD5L6161S4HTM0HN","","null","<img src=""img/food5.png"" style=""width:200px; border:14px solid green;"">","null","","","","","","","","","",""
"","image-keyboard-response","6","59440","0.0-6.0","3QRYMNZ7FZ3FFW69XNUQKFNT8Y2NTU","A1DKVUTOBPQH11","3FVBZG9CLJ0K37PD5L6161S4HTM0HN","","1419.7000000029802","img/food3.png","75","1420.2999999970198","2","0","1","1","1,0.5,0,1,0.5,0,0.5,0,1","0.5,0,1,0.5,0,1,0,1,0.5","2","",""
"","html-keyboard-response","7","59742","0.0-7.0","3QRYMNZ7FZ3FFW69XNUQKFNT8Y2NTU","A1DKVUTOBPQH11","3FVBZG9CLJ0K37PD5L6161S4HTM0HN","","null","<img src=""img/food3.png"" style=""width:200px;border:14px solid red;"">","null","","","","","","","","","",""
"","image-keyboard-response","8","60881","0.0-8.0","3QRYMNZ7FZ3FFW69XNUQKFNT8Y2NTU","A1DKVUTOBPQH11","3FVBZG9CLJ0K37PD5L6161S4HTM0HN","","1138.7999999970198","img/food3.png","76","1139.3999999985099","3","1","1","1","1,0.5,0,1,0.5,0,0.5,0,1","0.5,0,1,0.5,0,1,0,1,0.5","2","",""
"","html-keyboard-response","9","61183","0.0-9.0","3QRYMNZ7FZ3FFW69XNUQKFNT8Y2NTU","A1DKVUTOBPQH11","3FVBZG9CLJ0K37PD5L6161S4HTM0HN","","null","<img src=""img/food3.png"" style=""width:200px; border:14px solid green;"">","null","","","","","","","","","",""
"","image-keyboard-response","10","62502","0.0-10.0","3QRYMNZ7FZ3FFW69XNUQKFNT8Y2NTU","A1DKVUTOBPQH11","3FVBZG9CLJ0K37PD5L6161S4HTM0HN","","1317.7999999970198","img/food1.png","75","1318.5","2","1","3","1","1,0.5,0,1,0.5,0,0.5,0,1","0.5,0,1,0.5,0,1,0,1,0.5","2","",""
"","html-keyboard-response","11","62803","0.0-11.0","3QRYMNZ7FZ3FFW69XNUQKFNT8Y2NTU","A1DKVUTOBPQH11","3FVBZG9CLJ0K37PD5L6161S4HTM0HN","","null","<img src=""img/food1.png"" style=""width:200px; border:14px solid green;"">","null","","","","","","","","","",""
"","image-keyboard-response","12","64088","0.0-12.0","3QRYMNZ7FZ3FFW69XNUQKFNT8Y2NTU","A1DKVUTOBPQH11","3FVBZG9CLJ0K37PD5L6161S4HTM0HN","","1284.2000000029802","img/food5.png","74","1284.6000000014901","1","0","2","1","1,0.5,0,1,0.5,0,0.5,0,1","0.5,0,1,0.5,0,1,0,1,0.5","2","",""
"","html-keyboard-response","13","64389","0.0-13.0","3QRYMNZ7FZ3FFW69XNUQKFNT8Y2NTU","A1DKVUTOBPQH11","3FVBZG9CLJ0K37PD5L6161S4HTM0HN","","null","<img src=""img/food5.png"" style=""width:200px;border:14px solid red;"">","null","","","","","","","","","",""
"","image-keyboard-response","14","65539","0.0-14.0","3QRYMNZ7FZ3FFW69XNUQKFNT8Y2NTU","A1DKVUTOBPQH11","3FVBZG9CLJ0K37PD5L6161S4HTM0HN","","1149.6000000014901","img/food1.png","75","1150.1000000014901","2","1","3","1","1,0.5,0,1,0.5,0,0.5,0,1","0.5,0,1,0.5,0,1,0,1,0.5","2","",""
"","html-keyboard-response","15","65841","0.0-15.0","3QRYMNZ7FZ3FFW69XNUQKFNT8Y2NTU","A1DKVUTOBPQH11","3FVBZG9CLJ0K37PD5L6161S4HTM0HN","","null","<img src=""img/food1.png"" style=""width:200px; border:14px solid green;"">","null","","","","","","","","","",""
"","image-keyboard-response","16","66948","0.0-16.0","3QRYMNZ7FZ3FFW69XNUQKFNT8Y2NTU","A1DKVUTOBPQH11","3FVBZG9CLJ0K37PD5L6161S4HTM0HN","","1106.5","img/food3.png","76","1107","3","1","1","1","1,0.5,0,1,0.5,0,0.5,0,1","0.5,0,1,0.5,0,1,0,1,0.5","2","",""
"","html-keyboard-response","17","67250","0.0-17.0","3QRYMNZ7FZ3FFW69XNUQKFNT8Y2NTU","A1DKVUTOBPQH11","3FVBZG9CLJ0K37PD5L6161S4HTM0HN","","null","<img src=""img/food3.png"" style=""width:200px; border:14px solid green;"">","null","","","","","","","","","",""
"","image-keyboard-response","18","67950","0.0-18.0","3QRYMNZ7FZ3FFW69XNUQKFNT8Y2NTU","A1DKVUTOBPQH11","3FVBZG9CLJ0K37PD5L6161S4HTM0HN","","699.3999999985099","img/food3.png","76","699.8000000044703","3","1","1","1","1,0.5,0,1,0.5,0,0.5,0,1","0.5,0,1,0.5,0,1,0,1,0.5","2","",""
"","html-keyboard-response","19","68252","0.0-19.0","3QRYMNZ7FZ3FFW69XNUQKFNT8Y2NTU","A1DKVUTOBPQH11","3FVBZG9CLJ0K37PD5L6161S4HTM0HN","","null","<img src=""img/food3.png"" style=""width:200px; border:14px solid green;"">","null","","","","","","","","","",""
"","image-keyboard-response","20","68949","0.0-20.0","3QRYMNZ7FZ3FFW69XNUQKFNT8Y2NTU","A1DKVUTOBPQH11","3FVBZG9CLJ0K37PD5L6161S4HTM0HN","","695.6000000014901","img/food1.png","75","696.2999999970198","2","1","3","1","1,0.5,0,1,0.5,0,0.5,0,1","0.5,0,1,0.5,0,1,0,1,0.5","2","",""
"","html-keyboard-response","21","69250","0.0-21.0","3QRYMNZ7FZ3FFW69XNUQKFNT8Y2NTU","A1DKVUTOBPQH11","3FVBZG9CLJ0K37PD5L6161S4HTM0HN","","null","<img src=""img/food1.png"" style=""width:200px; border:14px solid green;"">","null","","","","","","","","","",""
"","image-keyboard-response","22","69760","0.0-22.0","3QRYMNZ7FZ3FFW69XNUQKFNT8Y2NTU","A1DKVUTOBPQH11","3FVBZG9CLJ0K37PD5L6161S4HTM0HN","","509.29999999701977","img/food1.png","75","509.8999999985099","2","1","3","1","1,0.5,0,1,0.5,0,0.5,0,1","0.5,0,1,0.5,0,1,0,1,0.5","2","",""
"","html-keyboard-response","23","70061","0.0-23.0","3QRYMNZ7FZ3FFW69XNUQKFNT8Y2NTU","A1DKVUTOBPQH11","3FVBZG9CLJ0K37PD5L6161S4HTM0HN","","null","<img src=""img/food1.png"" style=""width:200px; border:14px solid green;"">","null","","","","","","","","","",""
"","image-keyboard-response","24","71133","0.0-24.0","3QRYMNZ7FZ3FFW69XNUQKFNT8Y2NTU","A1DKVUTOBPQH11","3FVBZG9CLJ0K37PD5L6161S4HTM0HN","","1071.1000000014901","img/food5.png","75","1071.7999999970198","2","0","2","1","1,0.5,0,1,0.5,0,0.5,0,1","0.5,0,1,0.5,0,1,0,1,0.5","2","",""
"","html-keyboard-response","25","71435","0.0-25.0","3QRYMNZ7FZ3FFW69XNUQKFNT8Y2NTU","A1DKVUTOBPQH11","3FVBZG9CLJ0K37PD5L6161S4HTM0HN","","null","<img src=""img/food5.png"" style=""width:200px;border:14px solid red;"">","null","","","","","","","","","",""
"","image-keyboard-response","26","72972","0.0-26.0","3QRYMNZ7FZ3FFW69XNUQKFNT8Y2NTU","A1DKVUTOBPQH11","3FVBZG9CLJ0K37PD5L6161S4HTM0HN","","1536","img/food1.png","75","1536.5","2","1","3","1","1,0.5,0,1,0.5,0,0.5,0,1","0.5,0,1,0.5,0,1,0,1,0.5","2","",""
"","html-keyboard-response","27","73273","0.0-27.0","3QRYMNZ7FZ3FFW69XNUQKFNT8Y2NTU","A1DKVUTOBPQH11","3FVBZG9CLJ0K37PD5L6161S4HTM0HN","","null","<img src=""img/food1.png"" style=""width:200px; border:14px solid green;"">","null","","","","","","","","","",""
"","image-keyboard-response","28","73900","0.0-28.0","3QRYMNZ7FZ3FFW69XNUQKFNT8Y2NTU","A1DKVUTOBPQH11","3FVBZG9CLJ0K37PD5L6161S4HTM0HN","","626.1000000014901","img/food3.png","76","626.7999999970198","3","1","1","1","1,0.5,0,1,0.5,0,0.5,0,1","0.5,0,1,0.5,0,1,0,1,0.5","2","",""
"","html-keyboard-response","29","74201","0.0-29.0","3QRYMNZ7FZ3FFW69XNUQKFNT8Y2NTU","A1DKVUTOBPQH11","3FVBZG9CLJ0K37PD5L6161S4HTM0HN","","null","<img src=""img/food3.png"" style=""width:200px; border:14px solid green;"">","null","","","","","","","","","",""
"","image-keyboard-response","30","74725","0.0-30.0","3QRYMNZ7FZ3FFW69XNUQKFNT8Y2NTU","A1DKVUTOBPQH11","3FVBZG9CLJ0K37PD5L6161S4HTM0HN","","523.1999999955297","img/food3.png","76","523.7000000029802","3","1","1","1","1,0.5,0,1,0.5,0,0.5,0,1","0.5,0,1,0.5,0,1,0,1,0.5","2","",""
"","html-keyboard-response","31","75026","0.0-31.0","3QRYMNZ7FZ3FFW69XNUQKFNT8Y2NTU","A1DKVUTOBPQH11","3FVBZG9CLJ0K37PD5L6161S4HTM0HN","","null","<img src=""img/food3.png"" style=""width:200px; border:14px solid green;"">","null","","","","","","","","","",""
"","image-keyboard-response","32","75830","0.0-32.0","3QRYMNZ7FZ3FFW69XNUQKFNT8Y2NTU","A1DKVUTOBPQH11","3FVBZG9CLJ0K37PD5L6161S4HTM0HN","","803.5","img/food1.png","75","804.2000000029802","2","1","3","1","1,0.5,0,1,0.5,0,0.5,0,1","0.5,0,1,0.5,0,1,0,1,0.5","2","",""
"","html-keyboard-response","33","76132","0.0-33.0","3QRYMNZ7FZ3FFW69XNUQKFNT8Y2NTU","A1DKVUTOBPQH11","3FVBZG9CLJ0K37PD5L6161S4HTM0HN","","null","<img src=""img/food1.png"" style=""width:200px; border:14px solid green;"">","null","","","","","","","","","",""
"","image-keyboard-response","34","76639","0.0-34.0","3QRYMNZ7FZ3FFW69XNUQKFNT8Y2NTU","A1DKVUTOBPQH11","3FVBZG9CLJ0K37PD5L6161S4HTM0HN","","505.80000000447035","img/food1.png","75","506.70000000298023","2","1","3","1","1,0.5,0,1,0.5,0,0.5,0,1","0.5,0,1,0.5,0,1,0,1,0.5","2","",""
"","html-keyboard-response","35","76940","0.0-35.0","3QRYMNZ7FZ3FFW69XNUQKFNT8Y2NTU","A1DKVUTOBPQH11","3FVBZG9CLJ0K37PD5L6161S4HTM0HN","","null","<img src=""img/food1.png"" style=""width:200px; border:14px solid green;"">","null","","","","","","","","","",""
"","image-keyboard-response","36","77430","0.0-36.0","3QRYMNZ7FZ3FFW69XNUQKFNT8Y2NTU","A1DKVUTOBPQH11","3FVBZG9CLJ0K37PD5L6161S4HTM0HN","","490.1000000014901","img/food1.png","75","490.5","2","1","3","1","1,0.5,0,1,0.5,0,0.5,0,1","0.5,0,1,0.5,0,1,0,1,0.5","2","",""
"","html-keyboard-response","37","77732","0.0-37.0","3QRYMNZ7FZ3FFW69XNUQKFNT8Y2NTU","A1DKVUTOBPQH11","3FVBZG9CLJ0K37PD5L6161S4HTM0HN","","null","<img src=""img/food1.png"" style=""width:200px; border:14px solid green;"">","null","","","","","","","","","",""
"","image-keyboard-response","38","78699","0.0-38.0","3QRYMNZ7FZ3FFW69XNUQKFNT8Y2NTU","A1DKVUTOBPQH11","3FVBZG9CLJ0K37PD5L6161S4HTM0HN","","966.3999999985099","img/food5.png","76","966.7999999970198","3","1","2","1","1,0.5,0,1,0.5,0,0.5,0,1","0.5,0,1,0.5,0,1,0,1,0.5","2","",""
"","html-keyboard-response","39","79001","0.0-39.0","3QRYMNZ7FZ3FFW69XNUQKFNT8Y2NTU","A1DKVUTOBPQH11","3FVBZG9CLJ0K37PD5L6161S4HTM0HN","","null","<img src=""img/food5.png"" style=""width:200px; border:14px solid green;"">","null","","","","","","","","","",""
"","image-keyboard-response","40","79937","0.0-40.0","3QRYMNZ7FZ3FFW69XNUQKFNT8Y2NTU","A1DKVUTOBPQH11","3FVBZG9CLJ0K37PD5L6161S4HTM0HN","","936","img/food3.png","76","936.5","3","1","1","1","1,0.5,0,1,0.5,0,0.5,0,1","0.5,0,1,0.5,0,1,0,1,0.5","2","",""
"","html-keyboard-response","41","80240","0.0-41.0","3QRYMNZ7FZ3FFW69XNUQKFNT8Y2NTU","A1DKVUTOBPQH11","3FVBZG9CLJ0K37PD5L6161S4HTM0HN","","null","<img src=""img/food3.png"" style=""width:200px; border:14px solid green;"">","null","","","","","","","","","",""
"","image-keyboard-response","42","80975","0.0-42.0","3QRYMNZ7FZ3FFW69XNUQKFNT8Y2NTU","A1DKVUTOBPQH11","3FVBZG9CLJ0K37PD5L6161S4HTM0HN","","735.1000000014901","img/food1.png","75","735.7000000029802","2","1","3","1","1,0.5,0,1,0.5,0,0.5,0,1","0.5,0,1,0.5,0,1,0,1,0.5","2","",""
"","html-keyboard-response","43","81277","0.0-43.0","3QRYMNZ7FZ3FFW69XNUQKFNT8Y2NTU","A1DKVUTOBPQH11","3FVBZG9CLJ0K37PD5L6161S4HTM0HN","","null","<img src=""img/food1.png"" style=""width:200px; border:14px solid green;"">","null","","","","","","","","","",""
"","image-keyboard-response","44","82035","0.0-44.0","3QRYMNZ7FZ3FFW69XNUQKFNT8Y2NTU","A1DKVUTOBPQH11","3FVBZG9CLJ0K37PD5L6161S4HTM0HN","","757.7000000029802","img/food3.png","76","758.1000000014901","3","1","1","1","1,0.5,0,1,0.5,0,0.5,0,1","0.5,0,1,0.5,0,1,0,1,0.5","2","",""
"","html-keyboard-response","45","82337","0.0-45.0","3QRYMNZ7FZ3FFW69XNUQKFNT8Y2NTU","A1DKVUTOBPQH11","3FVBZG9CLJ0K37PD5L6161S4HTM0HN","","null","<img src=""img/food3.png"" style=""width:200px; border:14px solid green;"">","null","","","","","","","","","",""
"","image-keyboard-response","46","83011","0.0-46.0","3QRYMNZ7FZ3FFW69XNUQKFNT8Y2NTU","A1DKVUTOBPQH11","3FVBZG9CLJ0K37PD5L6161S4HTM0HN","","673.7999999970198","img/food1.png","75","674.3000000044703","2","1","3","1","1,0.5,0,1,0.5,0,0.5,0,1","0.5,0,1,0.5,0,1,0,1,0.5","2","",""
"","html-keyboard-response","47","83312","0.0-47.0","3QRYMNZ7FZ3FFW69XNUQKFNT8Y2NTU","A1DKVUTOBPQH11","3FVBZG9CLJ0K37PD5L6161S4HTM0HN","","null","<img src=""img/food1.png"" style=""width:200px; border:14px solid green;"">","null","","","","","","","","","",""
"","image-keyboard-response","48","84015","0.0-48.0","3QRYMNZ7FZ3FFW69XNUQKFNT8Y2NTU","A1DKVUTOBPQH11","3FVBZG9CLJ0K37PD5L6161S4HTM0HN","","702.3999999985099","img/food5.png","75","702.8000000044703","2","0","2","1","1,0.5,0,1,0.5,0,0.5,0,1","0.5,0,1,0.5,0,1,0,1,0.5","2","",""
"","html-keyboard-response","49","84317","0.0-49.0","3QRYMNZ7FZ3FFW69XNUQKFNT8Y2NTU","A1DKVUTOBPQH11","3FVBZG9CLJ0K37PD5L6161S4HTM0HN","","null","<img src=""img/food5.png"" style=""width:200px;border:14px solid red;"">","null","","","","","","","","","",""
"","image-keyboard-response","50","84834","0.0-50.0","3QRYMNZ7FZ3FFW69XNUQKFNT8Y2NTU","A1DKVUTOBPQH11","3FVBZG9CLJ0K37PD5L6161S4HTM0HN","","515.8999999985099","img/food5.png","76","516.3999999985099","3","1","2","1","1,0.5,0,1,0.5,0,0.5,0,1","0.5,0,1,0.5,0,1,0,1,0.5","2","",""
"","html-keyboard-response","51","85135","0.0-51.0","3QRYMNZ7FZ3FFW69XNUQKFNT8Y2NTU","A1DKVUTOBPQH11","3FVBZG9CLJ0K37PD5L6161S4HTM0HN","","null","<img src=""img/food5.png"" style=""width:200px; border:14px solid green;"">","null","","","","","","","","","",""
"","image-keyboard-response","52","85603","0.0-52.0","3QRYMNZ7FZ3FFW69XNUQKFNT8Y2NTU","A1DKVUTOBPQH11","3FVBZG9CLJ0K37PD5L6161S4HTM0HN","","467","img/food3.png","76","467.79999999701977","3","1","1","1","1,0.5,0,1,0.5,0,0.5,0,1","0.5,0,1,0.5,0,1,0,1,0.5","2","",""
"","html-keyboard-response","53","85904","0.0-53.0","3QRYMNZ7FZ3FFW69XNUQKFNT8Y2NTU","A1DKVUTOBPQH11","3FVBZG9CLJ0K37PD5L6161S4HTM0HN","","null","<img src=""img/food3.png"" style=""width:200px; border:14px solid green;"">","null","","","","","","","","","",""
"","image-keyboard-response","54","86542","0.0-54.0","3QRYMNZ7FZ3FFW69XNUQKFNT8Y2NTU","A1DKVUTOBPQH11","3FVBZG9CLJ0K37PD5L6161S4HTM0HN","","636.5999999940395","img/food5.png","76","637.1000000014901","3","1","2","1","1,0.5,0,1,0.5,0,0.5,0,1","0.5,0,1,0.5,0,1,0,1,0.5","2","",""
"","html-keyboard-response","55","86843","0.0-55.0","3QRYMNZ7FZ3FFW69XNUQKFNT8Y2NTU","A1DKVUTOBPQH11","3FVBZG9CLJ0K37PD5L6161S4HTM0HN","","null","<img src=""img/food5.png"" style=""width:200px; border:14px solid green;"">","null","","","","","","","","","",""
"","image-keyboard-response","56","87199","0.0-56.0","3QRYMNZ7FZ3FFW69XNUQKFNT8Y2NTU","A1DKVUTOBPQH11","3FVBZG9CLJ0K37PD5L6161S4HTM0HN","","355.6000000014901","img/food5.png","76","356.20000000298023","3","1","2","1","1,0.5,0,1,0.5,0,0.5,0,1","0.5,0,1,0.5,0,1,0,1,0.5","2","",""
"","html-keyboard-response","57","87501","0.0-57.0","3QRYMNZ7FZ3FFW69XNUQKFNT8Y2NTU","A1DKVUTOBPQH11","3FVBZG9CLJ0K37PD5L6161S4HTM0HN","","null","<img src=""img/food5.png"" style=""width:200px; border:14px solid green;"">","null","","","","","","","","","",""
"","image-keyboard-response","58","87871","0.0-58.0","3QRYMNZ7FZ3FFW69XNUQKFNT8Y2NTU","A1DKVUTOBPQH11","3FVBZG9CLJ0K37PD5L6161S4HTM0HN","","368.5","img/food5.png","76","369.30000000447035","3","1","2","1","1,0.5,0,1,0.5,0,0.5,0,1","0.5,0,1,0.5,0,1,0,1,0.5","2","",""
"","html-keyboard-response","59","88172","0.0-59.0","3QRYMNZ7FZ3FFW69XNUQKFNT8Y2NTU","A1DKVUTOBPQH11","3FVBZG9CLJ0K37PD5L6161S4HTM0HN","","null","<img src=""img/food5.png"" style=""width:200px; border:14px solid green;"">","null","","","","","","","","","",""
"","image-keyboard-response","60","88679","0.0-60.0","3QRYMNZ7FZ3FFW69XNUQKFNT8Y2NTU","A1DKVUTOBPQH11","3FVBZG9CLJ0K37PD5L6161S4HTM0HN","","506.29999999701977","img/food3.png","76","506.8999999985099","3","1","1","1","1,0.5,0,1,0.5,0,0.5,0,1","0.5,0,1,0.5,0,1,0,1,0.5","2","",""
"","html-keyboard-response","61","88981","0.0-61.0","3QRYMNZ7FZ3FFW69XNUQKFNT8Y2NTU","A1DKVUTOBPQH11","3FVBZG9CLJ0K37PD5L6161S4HTM0HN","","null","<img src=""img/food3.png"" style=""width:200px; border:14px solid green;"">","null","","","","","","","","","",""
"","image-keyboard-response","62","89544","0.0-62.0","3QRYMNZ7FZ3FFW69XNUQKFNT8Y2NTU","A1DKVUTOBPQH11","3FVBZG9CLJ0K37PD5L6161S4HTM0HN","","562.5","img/food1.png","75","563","2","1","3","1","1,0.5,0,1,0.5,0,0.5,0,1","0.5,0,1,0.5,0,1,0,1,0.5","2","",""
"","html-keyboard-response","63","89845","0.0-63.0","3QRYMNZ7FZ3FFW69XNUQKFNT8Y2NTU","A1DKVUTOBPQH11","3FVBZG9CLJ0K37PD5L6161S4HTM0HN","","null","<img src=""img/food1.png"" style=""width:200px; border:14px solid green;"">","null","","","","","","","","","",""
"","image-keyboard-response","64","90308","0.0-64.0","3QRYMNZ7FZ3FFW69XNUQKFNT8Y2NTU","A1DKVUTOBPQH11","3FVBZG9CLJ0K37PD5L6161S4HTM0HN","","462.5","img/food5.png","76","463","3","1","2","1","1,0.5,0,1,0.5,0,0.5,0,1","0.5,0,1,0.5,0,1,0,1,0.5","2","",""
"","html-keyboard-response","65","90611","0.0-65.0","3QRYMNZ7FZ3FFW69XNUQKFNT8Y2NTU","A1DKVUTOBPQH11","3FVBZG9CLJ0K37PD5L6161S4HTM0HN","","null","<img src=""img/food5.png"" style=""width:200px; border:14px solid green;"">","null","","","","","","","","","",""
"","image-keyboard-response","66","91088","0.0-66.0","3QRYMNZ7FZ3FFW69XNUQKFNT8Y2NTU","A1DKVUTOBPQH11","3FVBZG9CLJ0K37PD5L6161S4HTM0HN","","476.19999999552965","img/food3.png","76","476.8999999985099","3","1","1","1","1,0.5,0,1,0.5,0,0.5,0,1","0.5,0,1,0.5,0,1,0,1,0.5","2","",""
"","html-keyboard-response","67","91388","0.0-67.0","3QRYMNZ7FZ3FFW69XNUQKFNT8Y2NTU","A1DKVUTOBPQH11","3FVBZG9CLJ0K37PD5L6161S4HTM0HN","","null","<img src=""img/food3.png"" style=""width:200px; border:14px solid green;"">","null","","","","","","","","","",""
"","image-keyboard-response","68","91796","0.0-68.0","3QRYMNZ7FZ3FFW69XNUQKFNT8Y2NTU","A1DKVUTOBPQH11","3FVBZG9CLJ0K37PD5L6161S4HTM0HN","","407","img/food3.png","76","407.5","3","1","1","1","1,0.5,0,1,0.5,0,0.5,0,1","0.5,0,1,0.5,0,1,0,1,0.5","2","",""
"","html-keyboard-response","69","92098","0.0-69.0","3QRYMNZ7FZ3FFW69XNUQKFNT8Y2NTU","A1DKVUTOBPQH11","3FVBZG9CLJ0K37PD5L6161S4HTM0HN","","null","<img src=""img/food3.png"" style=""width:200px; border:14px solid green;"">","null","","","","","","","","","",""
"","image-keyboard-response","70","92409","0.0-70.0","3QRYMNZ7FZ3FFW69XNUQKFNT8Y2NTU","A1DKVUTOBPQH11","3FVBZG9CLJ0K37PD5L6161S4HTM0HN","","310.6000000014901","img/food3.png","76","311.1000000014901","3","1","1","1","1,0.5,0,1,0.5,0,0.5,0,1","0.5,0,1,0.5,0,1,0,1,0.5","2","",""
"","html-keyboard-response","71","92710","0.0-71.0","3QRYMNZ7FZ3FFW69XNUQKFNT8Y2NTU","A1DKVUTOBPQH11","3FVBZG9CLJ0K37PD5L6161S4HTM0HN","","null","<img src=""img/food3.png"" style=""width:200px; border:14px solid green;"">","null","","","","","","","","","",""
"","image-keyboard-response","72","93065","0.0-72.0","3QRYMNZ7FZ3FFW69XNUQKFNT8Y2NTU","A1DKVUTOBPQH11","3FVBZG9CLJ0K37PD5L6161S4HTM0HN","","354","img/food3.png","76","354.3999999985099","3","1","1","1","1,0.5,0,1,0.5,0,0.5,0,1","0.5,0,1,0.5,0,1,0,1,0.5","2","",""
"","html-keyboard-response","73","93366","0.0-73.0","3QRYMNZ7FZ3FFW69XNUQKFNT8Y2NTU","A1DKVUTOBPQH11","3FVBZG9CLJ0K37PD5L6161S4HTM0HN","","null","<img src=""img/food3.png"" style=""width:200px; border:14px solid green;"">","null","","","","","","","","","",""
"","image-keyboard-response","74","93756","0.0-74.0","3QRYMNZ7FZ3FFW69XNUQKFNT8Y2NTU","A1DKVUTOBPQH11","3FVBZG9CLJ0K37PD5L6161S4HTM0HN","","389.6000000014901","img/food3.png","76","390.09999999403954","3","1","1","1","1,0.5,0,1,0.5,0,0.5,0,1","0.5,0,1,0.5,0,1,0,1,0.5","2","",""
"","html-keyboard-response","75","94058","0.0-75.0","3QRYMNZ7FZ3FFW69XNUQKFNT8Y2NTU","A1DKVUTOBPQH11","3FVBZG9CLJ0K37PD5L6161S4HTM0HN","","null","<img src=""img/food3.png"" style=""width:200px; border:14px solid green;"">","null","","","","","","","","","",""
"","image-keyboard-response","76","94616","0.0-76.0","3QRYMNZ7FZ3FFW69XNUQKFNT8Y2NTU","A1DKVUTOBPQH11","3FVBZG9CLJ0K37PD5L6161S4HTM0HN","","557.7999999970198","img/food5.png","75","558.3000000044703","2","0","2","1","1,0.5,0,1,0.5,0,0.5,0,1","0.5,0,1,0.5,0,1,0,1,0.5","2","",""
"","html-keyboard-response","77","94917","0.0-77.0","3QRYMNZ7FZ3FFW69XNUQKFNT8Y2NTU","A1DKVUTOBPQH11","3FVBZG9CLJ0K37PD5L6161S4HTM0HN","","null","<img src=""img/food5.png"" style=""width:200px;border:14px solid red;"">","null","","","","","","","","","",""
"","image-keyboard-response","78","95504","0.0-78.0","3QRYMNZ7FZ3FFW69XNUQKFNT8Y2NTU","A1DKVUTOBPQH11","3FVBZG9CLJ0K37PD5L6161S4HTM0HN","","586.1999999955297","img/food3.png","76","586.6000000014901","3","1","1","1","1,0.5,0,1,0.5,0,0.5,0,1","0.5,0,1,0.5,0,1,0,1,0.5","2","",""
"","html-keyboard-response","79","95806","0.0-79.0","3QRYMNZ7FZ3FFW69XNUQKFNT8Y2NTU","A1DKVUTOBPQH11","3FVBZG9CLJ0K37PD5L6161S4HTM0HN","","null","<img src=""img/food3.png"" style=""width:200px; border:14px solid green;"">","null","","","","","","","","","",""
"","image-keyboard-response","80","96377","0.0-80.0","3QRYMNZ7FZ3FFW69XNUQKFNT8Y2NTU","A1DKVUTOBPQH11","3FVBZG9CLJ0K37PD5L6161S4HTM0HN","","571.1000000014901","img/food1.png","75","571.6000000014901","2","1","3","1","1,0.5,0,1,0.5,0,0.5,0,1","0.5,0,1,0.5,0,1,0,1,0.5","2","",""
"","html-keyboard-response","81","96679","0.0-81.0","3QRYMNZ7FZ3FFW69XNUQKFNT8Y2NTU","A1DKVUTOBPQH11","3FVBZG9CLJ0K37PD5L6161S4HTM0HN","","null","<img src=""img/food1.png"" style=""width:200px; border:14px solid green;"">","null","","","","","","","","","",""
"","image-keyboard-response","82","97104","0.0-82.0","3QRYMNZ7FZ3FFW69XNUQKFNT8Y2NTU","A1DKVUTOBPQH11","3FVBZG9CLJ0K37PD5L6161S4HTM0HN","","424.6000000014901","img/food3.png","76","425","3","1","1","1","1,0.5,0,1,0.5,0,0.5,0,1","0.5,0,1,0.5,0,1,0,1,0.5","2","",""
"","html-keyboard-response","83","97406","0.0-83.0","3QRYMNZ7FZ3FFW69XNUQKFNT8Y2NTU","A1DKVUTOBPQH11","3FVBZG9CLJ0K37PD5L6161S4HTM0HN","","null","<img src=""img/food3.png"" style=""width:200px; border:14px solid green;"">","null","","","","","","","","","",""
"","image-keyboard-response","84","99193","0.0-84.0","3QRYMNZ7FZ3FFW69XNUQKFNT8Y2NTU","A1DKVUTOBPQH11","3FVBZG9CLJ0K37PD5L6161S4HTM0HN","","1786.0999999940395","img/food1.png","75","1786.6000000014901","2","1","3","1","1,0.5,0,1,0.5,0,0.5,0,1","0.5,0,1,0.5,0,1,0,1,0.5","2","",""
"","html-keyboard-response","85","99494","0.0-85.0","3QRYMNZ7FZ3FFW69XNUQKFNT8Y2NTU","A1DKVUTOBPQH11","3FVBZG9CLJ0K37PD5L6161S4HTM0HN","","null","<img src=""img/food1.png"" style=""width:200px; border:14px solid green;"">","null","","","","","","","","","",""
"","image-keyboard-response","86","99944","0.0-86.0","3QRYMNZ7FZ3FFW69XNUQKFNT8Y2NTU","A1DKVUTOBPQH11","3FVBZG9CLJ0K37PD5L6161S4HTM0HN","","448.70000000298023","img/food5.png","76","449.3999999985099","3","1","2","1","1,0.5,0,1,0.5,0,0.5,0,1","0.5,0,1,0.5,0,1,0,1,0.5","2","",""
"","html-keyboard-response","87","100257","0.0-87.0","3QRYMNZ7FZ3FFW69XNUQKFNT8Y2NTU","A1DKVUTOBPQH11","3FVBZG9CLJ0K37PD5L6161S4HTM0HN","","null","<img src=""img/food5.png"" style=""width:200px; border:14px solid green;"">","null","","","","","","","","","",""
"","image-keyboard-response","88","101066","0.0-88.0","3QRYMNZ7FZ3FFW69XNUQKFNT8Y2NTU","A1DKVUTOBPQH11","3FVBZG9CLJ0K37PD5L6161S4HTM0HN","","807.6000000014901","img/food1.png","75","808.3999999985099","2","1","3","1","1,0.5,0,1,0.5,0,0.5,0,1","0.5,0,1,0.5,0,1,0,1,0.5","2","",""
"","html-keyboard-response","89","101367","0.0-89.0","3QRYMNZ7FZ3FFW69XNUQKFNT8Y2NTU","A1DKVUTOBPQH11","3FVBZG9CLJ0K37PD5L6161S4HTM0HN","","null","<img src=""img/food1.png"" style=""width:200px; border:14px solid green;"">","null","","","","","","","","","",""
"","image-keyboard-response","90","102047","0.0-90.0","3QRYMNZ7FZ3FFW69XNUQKFNT8Y2NTU","A1DKVUTOBPQH11","3FVBZG9CLJ0K37PD5L6161S4HTM0HN","","679.1000000014901","img/food1.png","75","679.7000000029802","2","1","3","1","1,0.5,0,1,0.5,0,0.5,0,1","0.5,0,1,0.5,0,1,0,1,0.5","2","",""
"","html-keyboard-response","91","102348","0.0-91.0","3QRYMNZ7FZ3FFW69XNUQKFNT8Y2NTU","A1DKVUTOBPQH11","3FVBZG9CLJ0K37PD5L6161S4HTM0HN","","null","<img src=""img/food1.png"" style=""width:200px; border:14px solid green;"">","null","","","","","","","","","",""
"","image-keyboard-response","92","102949","0.0-92.0","3QRYMNZ7FZ3FFW69XNUQKFNT8Y2NTU","A1DKVUTOBPQH11","3FVBZG9CLJ0K37PD5L6161S4HTM0HN","","600.7999999970198","img/food1.png","75","601.5","2","1","3","1","1,0.5,0,1,0.5,0,0.5,0,1","0.5,0,1,0.5,0,1,0,1,0.5","2","",""
"","html-keyboard-response","93","103251","0.0-93.0","3QRYMNZ7FZ3FFW69XNUQKFNT8Y2NTU","A1DKVUTOBPQH11","3FVBZG9CLJ0K37PD5L6161S4HTM0HN","","null","<img src=""img/food1.png"" style=""width:200px; border:14px solid green;"">","null","","","","","","","","","",""
"","image-keyboard-response","94","104005","0.0-94.0","3QRYMNZ7FZ3FFW69XNUQKFNT8Y2NTU","A1DKVUTOBPQH11","3FVBZG9CLJ0K37PD5L6161S4HTM0HN","","753","img/food5.png","76","753.6999999955297","3","1","2","1","1,0.5,0,1,0.5,0,0.5,0,1","0.5,0,1,0.5,0,1,0,1,0.5","2","",""
"","html-keyboard-response","95","104307","0.0-95.0","3QRYMNZ7FZ3FFW69XNUQKFNT8Y2NTU","A1DKVUTOBPQH11","3FVBZG9CLJ0K37PD5L6161S4HTM0HN","","null","<img src=""img/food5.png"" style=""width:200px; border:14px solid green;"">","null","","","","","","","","","",""
"","image-keyboard-response","96","104937","0.0-96.0","3QRYMNZ7FZ3FFW69XNUQKFNT8Y2NTU","A1DKVUTOBPQH11","3FVBZG9CLJ0K37PD5L6161S4HTM0HN","","630.3000000044703","img/food3.png","76","630.7999999970198","3","1","1","1","1,0.5,0,1,0.5,0,0.5,0,1","0.5,0,1,0.5,0,1,0,1,0.5","2","",""
"","html-keyboard-response","97","105239","0.0-97.0","3QRYMNZ7FZ3FFW69XNUQKFNT8Y2NTU","A1DKVUTOBPQH11","3FVBZG9CLJ0K37PD5L6161S4HTM0HN","","null","<img src=""img/food3.png"" style=""width:200px; border:14px solid green;"">","null","","","","","","","","","",""
"","image-keyboard-response","98","106312","0.0-98.0","3QRYMNZ7FZ3FFW69XNUQKFNT8Y2NTU","A1DKVUTOBPQH11","3FVBZG9CLJ0K37PD5L6161S4HTM0HN","","1072.5","img/food5.png","76","1073","3","1","2","1","1,0.5,0,1,0.5,0,0.5,0,1","0.5,0,1,0.5,0,1,0,1,0.5","2","",""
"","html-keyboard-response","99","106614","0.0-99.0","3QRYMNZ7FZ3FFW69XNUQKFNT8Y2NTU","A1DKVUTOBPQH11","3FVBZG9CLJ0K37PD5L6161S4HTM0HN","","null","<img src=""img/food5.png"" style=""width:200px; border:14px solid green;"">","null","","","","","","","","","",""
"","image-keyboard-response","100","107192","0.0-100.0","3QRYMNZ7FZ3FFW69XNUQKFNT8Y2NTU","A1DKVUTOBPQH11","3FVBZG9CLJ0K37PD5L6161S4HTM0HN","","576.8000000044703","img/food1.png","76","577.2999999970198","3","0","3","1","1,0.5,0,1,0.5,0,0.5,0,1","0.5,0,1,0.5,0,1,0,1,0.5","2","",""
"","html-keyboard-response","101","107493","0.0-101.0","3QRYMNZ7FZ3FFW69XNUQKFNT8Y2NTU","A1DKVUTOBPQH11","3FVBZG9CLJ0K37PD5L6161S4HTM0HN","","null","<img src=""img/food1.png"" style=""width:200px;border:14px solid red;"">","null","","","","","","","","","",""
"","image-keyboard-response","102","108392","0.0-102.0","3QRYMNZ7FZ3FFW69XNUQKFNT8Y2NTU","A1DKVUTOBPQH11","3FVBZG9CLJ0K37PD5L6161S4HTM0HN","","897.3000000044703","img/food5.png","76","898","3","1","2","1","1,0.5,0,1,0.5,0,0.5,0,1","0.5,0,1,0.5,0,1,0,1,0.5","2","",""
"","html-keyboard-response","103","108693","0.0-103.0","3QRYMNZ7FZ3FFW69XNUQKFNT8Y2NTU","A1DKVUTOBPQH11","3FVBZG9CLJ0K37PD5L6161S4HTM0HN","","null","<img src=""img/food5.png"" style=""width:200px; border:14px solid green;"">","null","","","","","","","","","",""
"","image-keyboard-response","104","109557","0.0-104.0","3QRYMNZ7FZ3FFW69XNUQKFNT8Y2NTU","A1DKVUTOBPQH11","3FVBZG9CLJ0K37PD5L6161S4HTM0HN","","863.3000000044703","img/food3.png","76","863.8999999985099","3","1","1","1","1,0.5,0,1,0.5,0,0.5,0,1","0.5,0,1,0.5,0,1,0,1,0.5","2","",""
"","html-keyboard-response","105","109859","0.0-105.0","3QRYMNZ7FZ3FFW69XNUQKFNT8Y2NTU","A1DKVUTOBPQH11","3FVBZG9CLJ0K37PD5L6161S4HTM0HN","","null","<img src=""img/food3.png"" style=""width:200px; border:14px solid green;"">","null","","","","","","","","","",""
"","image-keyboard-response","106","110705","0.0-106.0","3QRYMNZ7FZ3FFW69XNUQKFNT8Y2NTU","A1DKVUTOBPQH11","3FVBZG9CLJ0K37PD5L6161S4HTM0HN","","846","img/food5.png","76","846.5","3","1","2","1","1,0.5,0,1,0.5,0,0.5,0,1","0.5,0,1,0.5,0,1,0,1,0.5","2","",""
"","html-keyboard-response","107","111006","0.0-107.0","3QRYMNZ7FZ3FFW69XNUQKFNT8Y2NTU","A1DKVUTOBPQH11","3FVBZG9CLJ0K37PD5L6161S4HTM0HN","","null","<img src=""img/food5.png"" style=""width:200px; border:14px solid green;"">","null","","","","","","","","","",""
"","image-keyboard-response","108","111475","0.0-108.0","3QRYMNZ7FZ3FFW69XNUQKFNT8Y2NTU","A1DKVUTOBPQH11","3FVBZG9CLJ0K37PD5L6161S4HTM0HN","","468.19999999552965","img/food1.png","75","468.90000000596046","2","1","3","1","1,0.5,0,1,0.5,0,0.5,0,1","0.5,0,1,0.5,0,1,0,1,0.5","2","",""
"","html-keyboard-response","109","111776","0.0-109.0","3QRYMNZ7FZ3FFW69XNUQKFNT8Y2NTU","A1DKVUTOBPQH11","3FVBZG9CLJ0K37PD5L6161S4HTM0HN","","null","<img src=""img/food1.png"" style=""width:200px; border:14px solid green;"">","null","","","","","","","","","",""
"","image-keyboard-response","110","112411","0.0-110.0","3QRYMNZ7FZ3FFW69XNUQKFNT8Y2NTU","A1DKVUTOBPQH11","3FVBZG9CLJ0K37PD5L6161S4HTM0HN","","634.3999999985099","img/food5.png","76","635","3","1","2","1","1,0.5,0,1,0.5,0,0.5,0,1","0.5,0,1,0.5,0,1,0,1,0.5","2","",""
"","html-keyboard-response","111","112713","0.0-111.0","3QRYMNZ7FZ3FFW69XNUQKFNT8Y2NTU","A1DKVUTOBPQH11","3FVBZG9CLJ0K37PD5L6161S4HTM0HN","","null","<img src=""img/food5.png"" style=""width:200px; border:14px solid green;"">","null","","","","","","","","","",""
"","image-keyboard-response","112","113422","0.0-112.0","3QRYMNZ7FZ3FFW69XNUQKFNT8Y2NTU","A1DKVUTOBPQH11","3FVBZG9CLJ0K37PD5L6161S4HTM0HN","","707.5","img/food1.png","75","708.1000000014901","2","1","3","1","1,0.5,0,1,0.5,0,0.5,0,1","0.5,0,1,0.5,0,1,0,1,0.5","2","",""
"","html-keyboard-response","113","113722","0.0-113.0","3QRYMNZ7FZ3FFW69XNUQKFNT8Y2NTU","A1DKVUTOBPQH11","3FVBZG9CLJ0K37PD5L6161S4HTM0HN","","null","<img src=""img/food1.png"" style=""width:200px; border:14px solid green;"">","null","","","","","","","","","",""
"","image-keyboard-response","114","114696","0.0-114.0","3QRYMNZ7FZ3FFW69XNUQKFNT8Y2NTU","A1DKVUTOBPQH11","3FVBZG9CLJ0K37PD5L6161S4HTM0HN","","973.1999999955297","img/food5.png","76","973.7000000029802","3","1","2","1","1,0.5,0,1,0.5,0,0.5,0,1","0.5,0,1,0.5,0,1,0,1,0.5","2","",""
"","html-keyboard-response","115","114997","0.0-115.0","3QRYMNZ7FZ3FFW69XNUQKFNT8Y2NTU","A1DKVUTOBPQH11","3FVBZG9CLJ0K37PD5L6161S4HTM0HN","","null","<img src=""img/food5.png"" style=""width:200px; border:14px solid green;"">","null","","","","","","","","","",""
"","image-keyboard-response","116","115630","0.0-116.0","3QRYMNZ7FZ3FFW69XNUQKFNT8Y2NTU","A1DKVUTOBPQH11","3FVBZG9CLJ0K37PD5L6161S4HTM0HN","","632.6000000014901","img/food1.png","76","633","3","1","3","1","1,0.5,0,1,0.5,0,0.5,0,1","0.5,0,1,0.5,0,1,0,1,0.5","2","",""
"","html-keyboard-response","117","115931","0.0-117.0","3QRYMNZ7FZ3FFW69XNUQKFNT8Y2NTU","A1DKVUTOBPQH11","3FVBZG9CLJ0K37PD5L6161S4HTM0HN","","null","<img src=""img/food1.png"" style=""width:200px; border:14px solid green;"">","null","","","","","","","","","",""
"","image-keyboard-response","118","116385","0.0-118.0","3QRYMNZ7FZ3FFW69XNUQKFNT8Y2NTU","A1DKVUTOBPQH11","3FVBZG9CLJ0K37PD5L6161S4HTM0HN","","453.1000000014901","img/food1.png","76","453.5","3","0","3","1","1,0.5,0,1,0.5,0,0.5,0,1","0.5,0,1,0.5,0,1,0,1,0.5","2","",""
"","html-keyboard-response","119","116686","0.0-119.0","3QRYMNZ7FZ3FFW69XNUQKFNT8Y2NTU","A1DKVUTOBPQH11","3FVBZG9CLJ0K37PD5L6161S4HTM0HN","","null","<img src=""img/food1.png"" style=""width:200px;border:14px solid red;"">","null","","","","","","","","","",""
"","image-keyboard-response","120","117249","0.0-120.0","3QRYMNZ7FZ3FFW69XNUQKFNT8Y2NTU","A1DKVUTOBPQH11","3FVBZG9CLJ0K37PD5L6161S4HTM0HN","","563.2000000029802","img/food1.png","75","563.6999999955297","2","1","3","1","1,0.5,0,1,0.5,0,0.5,0,1","0.5,0,1,0.5,0,1,0,1,0.5","2","",""
"","html-keyboard-response","121","117551","0.0-121.0","3QRYMNZ7FZ3FFW69XNUQKFNT8Y2NTU","A1DKVUTOBPQH11","3FVBZG9CLJ0K37PD5L6161S4HTM0HN","","null","<img src=""img/food1.png"" style=""width:200px; border:14px solid green;"">","null","","","","","","","","","",""
"","image-keyboard-response","122","118020","0.0-122.0","3QRYMNZ7FZ3FFW69XNUQKFNT8Y2NTU","A1DKVUTOBPQH11","3FVBZG9CLJ0K37PD5L6161S4HTM0HN","","468.8999999985099","img/food1.png","75","469.59999999403954","2","1","3","1","1,0.5,0,1,0.5,0,0.5,0,1","0.5,0,1,0.5,0,1,0,1,0.5","2","",""
"","html-keyboard-response","123","118322","0.0-123.0","3QRYMNZ7FZ3FFW69XNUQKFNT8Y2NTU","A1DKVUTOBPQH11","3FVBZG9CLJ0K37PD5L6161S4HTM0HN","","null","<img src=""img/food1.png"" style=""width:200px; border:14px solid green;"">","null","","","","","","","","","",""
"","image-keyboard-response","124","118777","0.0-124.0","3QRYMNZ7FZ3FFW69XNUQKFNT8Y2NTU","A1DKVUTOBPQH11","3FVBZG9CLJ0K37PD5L6161S4HTM0HN","","454.5","img/food1.png","75","455.1000000014901","2","1","3","1","1,0.5,0,1,0.5,0,0.5,0,1","0.5,0,1,0.5,0,1,0,1,0.5","2","",""
"","html-keyboard-response","125","119078","0.0-125.0","3QRYMNZ7FZ3FFW69XNUQKFNT8Y2NTU","A1DKVUTOBPQH11","3FVBZG9CLJ0K37PD5L6161S4HTM0HN","","null","<img src=""img/food1.png"" style=""width:200px; border:14px solid green;"">","null","","","","","","","","","",""
"","image-keyboard-response","126","119604","0.0-126.0","3QRYMNZ7FZ3FFW69XNUQKFNT8Y2NTU","A1DKVUTOBPQH11","3FVBZG9CLJ0K37PD5L6161S4HTM0HN","","525.8000000044703","img/food5.png","76","526.2999999970198","3","1","2","1","1,0.5,0,1,0.5,0,0.5,0,1","0.5,0,1,0.5,0,1,0,1,0.5","2","",""
"","html-keyboard-response","127","119906","0.0-127.0","3QRYMNZ7FZ3FFW69XNUQKFNT8Y2NTU","A1DKVUTOBPQH11","3FVBZG9CLJ0K37PD5L6161S4HTM0HN","","null","<img src=""img/food5.png"" style=""width:200px; border:14px solid green;"">","null","","","","","","","","","",""
"","image-keyboard-response","128","120304","0.0-128.0","3QRYMNZ7FZ3FFW69XNUQKFNT8Y2NTU","A1DKVUTOBPQH11","3FVBZG9CLJ0K37PD5L6161S4HTM0HN","","397.8999999985099","img/food3.png","76","398.40000000596046","3","1","1","1","1,0.5,0,1,0.5,0,0.5,0,1","0.5,0,1,0.5,0,1,0,1,0.5","2","",""
"","html-keyboard-response","129","120619","0.0-129.0","3QRYMNZ7FZ3FFW69XNUQKFNT8Y2NTU","A1DKVUTOBPQH11","3FVBZG9CLJ0K37PD5L6161S4HTM0HN","","null","<img src=""img/food3.png"" style=""width:200px; border:14px solid green;"">","null","","","","","","","","","",""
"","image-keyboard-response","130","121079","0.0-130.0","3QRYMNZ7FZ3FFW69XNUQKFNT8Y2NTU","A1DKVUTOBPQH11","3FVBZG9CLJ0K37PD5L6161S4HTM0HN","","459.69999999552965","img/food5.png","76","460.70000000298023","3","1","2","1","1,0.5,0,1,0.5,0,0.5,0,1","0.5,0,1,0.5,0,1,0,1,0.5","2","",""
"","html-keyboard-response","131","121380","0.0-131.0","3QRYMNZ7FZ3FFW69XNUQKFNT8Y2NTU","A1DKVUTOBPQH11","3FVBZG9CLJ0K37PD5L6161S4HTM0HN","","null","<img src=""img/food5.png"" style=""width:200px; border:14px solid green;"">","null","","","","","","","","","",""
"","image-keyboard-response","132","121834","0.0-132.0","3QRYMNZ7FZ3FFW69XNUQKFNT8Y2NTU","A1DKVUTOBPQH11","3FVBZG9CLJ0K37PD5L6161S4HTM0HN","","453.5","img/food3.png","76","454","3","1","1","1","1,0.5,0,1,0.5,0,0.5,0,1","0.5,0,1,0.5,0,1,0,1,0.5","2","",""
"","html-keyboard-response","133","122136","0.0-133.0","3QRYMNZ7FZ3FFW69XNUQKFNT8Y2NTU","A1DKVUTOBPQH11","3FVBZG9CLJ0K37PD5L6161S4HTM0HN","","null","<img src=""img/food3.png"" style=""width:200px; border:14px solid green;"">","null","","","","","","","","","",""
"","image-keyboard-response","134","122561","0.0-134.0","3QRYMNZ7FZ3FFW69XNUQKFNT8Y2NTU","A1DKVUTOBPQH11","3FVBZG9CLJ0K37PD5L6161S4HTM0HN","","425","img/food3.png","76","425.6000000014901","3","1","1","1","1,0.5,0,1,0.5,0,0.5,0,1","0.5,0,1,0.5,0,1,0,1,0.5","2","",""
"","html-keyboard-response","135","122863","0.0-135.0","3QRYMNZ7FZ3FFW69XNUQKFNT8Y2NTU","A1DKVUTOBPQH11","3FVBZG9CLJ0K37PD5L6161S4HTM0HN","","null","<img src=""img/food3.png"" style=""width:200px; border:14px solid green;"">","null","","","","","","","","","",""
"","image-keyboard-response","136","123457","0.0-136.0","3QRYMNZ7FZ3FFW69XNUQKFNT8Y2NTU","A1DKVUTOBPQH11","3FVBZG9CLJ0K37PD5L6161S4HTM0HN","","593","img/food1.png","75","593.6000000014901","2","1","3","1","1,0.5,0,1,0.5,0,0.5,0,1","0.5,0,1,0.5,0,1,0,1,0.5","2","",""
"","html-keyboard-response","137","123758","0.0-137.0","3QRYMNZ7FZ3FFW69XNUQKFNT8Y2NTU","A1DKVUTOBPQH11","3FVBZG9CLJ0K37PD5L6161S4HTM0HN","","null","<img src=""img/food1.png"" style=""width:200px; border:14px solid green;"">","null","","","","","","","","","",""
"","image-keyboard-response","138","124276","0.0-138.0","3QRYMNZ7FZ3FFW69XNUQKFNT8Y2NTU","A1DKVUTOBPQH11","3FVBZG9CLJ0K37PD5L6161S4HTM0HN","","517.7000000029802","img/food1.png","75","518.1999999955297","2","1","3","1","1,0.5,0,1,0.5,0,0.5,0,1","0.5,0,1,0.5,0,1,0,1,0.5","2","",""
"","html-keyboard-response","139","124578","0.0-139.0","3QRYMNZ7FZ3FFW69XNUQKFNT8Y2NTU","A1DKVUTOBPQH11","3FVBZG9CLJ0K37PD5L6161S4HTM0HN","","null","<img src=""img/food1.png"" style=""width:200px; border:14px solid green;"">","null","","","","","","","","","",""
"","image-keyboard-response","140","124953","0.0-140.0","3QRYMNZ7FZ3FFW69XNUQKFNT8Y2NTU","A1DKVUTOBPQH11","3FVBZG9CLJ0K37PD5L6161S4HTM0HN","","374.3999999985099","img/food1.png","75","375","2","1","3","1","1,0.5,0,1,0.5,0,0.5,0,1","0.5,0,1,0.5,0,1,0,1,0.5","2","",""
"","html-keyboard-response","141","125254","0.0-141.0","3QRYMNZ7FZ3FFW69XNUQKFNT8Y2NTU","A1DKVUTOBPQH11","3FVBZG9CLJ0K37PD5L6161S4HTM0HN","","null","<img src=""img/food1.png"" style=""width:200px; border:14px solid green;"">","null","","","","","","","","","",""
"","image-keyboard-response","142","125652","0.0-142.0","3QRYMNZ7FZ3FFW69XNUQKFNT8Y2NTU","A1DKVUTOBPQH11","3FVBZG9CLJ0K37PD5L6161S4HTM0HN","","396.59999999403954","img/food1.png","75","397","2","1","3","1","1,0.5,0,1,0.5,0,0.5,0,1","0.5,0,1,0.5,0,1,0,1,0.5","2","",""
"","html-keyboard-response","143","125953","0.0-143.0","3QRYMNZ7FZ3FFW69XNUQKFNT8Y2NTU","A1DKVUTOBPQH11","3FVBZG9CLJ0K37PD5L6161S4HTM0HN","","null","<img src=""img/food1.png"" style=""width:200px; border:14px solid green;"">","null","","","","","","","","","",""
"","image-keyboard-response","144","126498","0.0-144.0","3QRYMNZ7FZ3FFW69XNUQKFNT8Y2NTU","A1DKVUTOBPQH11","3FVBZG9CLJ0K37PD5L6161S4HTM0HN","","544.1999999955297","img/food5.png","76","544.8000000044703","3","1","2","1","1,0.5,0,1,0.5,0,0.5,0,1","0.5,0,1,0.5,0,1,0,1,0.5","2","",""
"","html-keyboard-response","145","126799","0.0-145.0","3QRYMNZ7FZ3FFW69XNUQKFNT8Y2NTU","A1DKVUTOBPQH11","3FVBZG9CLJ0K37PD5L6161S4HTM0HN","","null","<img src=""img/food5.png"" style=""width:200px; border:14px solid green;"">","null","","","","","","","","","",""
"","image-keyboard-response","146","127207","0.0-146.0","3QRYMNZ7FZ3FFW69XNUQKFNT8Y2NTU","A1DKVUTOBPQH11","3FVBZG9CLJ0K37PD5L6161S4HTM0HN","","407.20000000298023","img/food5.png","76","407.80000000447035","3","1","2","1","1,0.5,0,1,0.5,0,0.5,0,1","0.5,0,1,0.5,0,1,0,1,0.5","2","",""
"","html-keyboard-response","147","127509","0.0-147.0","3QRYMNZ7FZ3FFW69XNUQKFNT8Y2NTU","A1DKVUTOBPQH11","3FVBZG9CLJ0K37PD5L6161S4HTM0HN","","null","<img src=""img/food5.png"" style=""width:200px; border:14px solid green;"">","null","","","","","","","","","",""
"","image-keyboard-response","148","127895","0.0-148.0","3QRYMNZ7FZ3FFW69XNUQKFNT8Y2NTU","A1DKVUTOBPQH11","3FVBZG9CLJ0K37PD5L6161S4HTM0HN","","385.5","img/food5.png","76","386","3","1","2","1","1,0.5,0,1,0.5,0,0.5,0,1","0.5,0,1,0.5,0,1,0,1,0.5","2","",""
"","html-keyboard-response","149","128196","0.0-149.0","3QRYMNZ7FZ3FFW69XNUQKFNT8Y2NTU","A1DKVUTOBPQH11","3FVBZG9CLJ0K37PD5L6161S4HTM0HN","","null","<img src=""img/food5.png"" style=""width:200px; border:14px solid green;"">","null","","","","","","","","","",""
"","image-keyboard-response","150","128564","0.0-150.0","3QRYMNZ7FZ3FFW69XNUQKFNT8Y2NTU","A1DKVUTOBPQH11","3FVBZG9CLJ0K37PD5L6161S4HTM0HN","","367.3999999985099","img/food5.png","76","368.1000000014901","3","1","2","1","1,0.5,0,1,0.5,0,0.5,0,1","0.5,0,1,0.5,0,1,0,1,0.5","2","",""
"","html-keyboard-response","151","128865","0.0-151.0","3QRYMNZ7FZ3FFW69XNUQKFNT8Y2NTU","A1DKVUTOBPQH11","3FVBZG9CLJ0K37PD5L6161S4HTM0HN","","null","<img src=""img/food5.png"" style=""width:200px; border:14px solid green;"">","null","","","","","","","","","",""
"","image-keyboard-response","152","129502","0.0-152.0","3QRYMNZ7FZ3FFW69XNUQKFNT8Y2NTU","A1DKVUTOBPQH11","3FVBZG9CLJ0K37PD5L6161S4HTM0HN","","635.3999999985099","img/food3.png","76","636.1000000014901","3","1","1","1","1,0.5,0,1,0.5,0,0.5,0,1","0.5,0,1,0.5,0,1,0,1,0.5","2","",""
"","html-keyboard-response","153","129803","0.0-153.0","3QRYMNZ7FZ3FFW69XNUQKFNT8Y2NTU","A1DKVUTOBPQH11","3FVBZG9CLJ0K37PD5L6161S4HTM0HN","","null","<img src=""img/food3.png"" style=""width:200px; border:14px solid green;"">","null","","","","","","","","","",""
"","image-keyboard-response","154","130311","0.0-154.0","3QRYMNZ7FZ3FFW69XNUQKFNT8Y2NTU","A1DKVUTOBPQH11","3FVBZG9CLJ0K37PD5L6161S4HTM0HN","","507.3999999985099","img/food3.png","76","508.09999999403954","3","1","1","1","1,0.5,0,1,0.5,0,0.5,0,1","0.5,0,1,0.5,0,1,0,1,0.5","2","",""
"","html-keyboard-response","155","130613","0.0-155.0","3QRYMNZ7FZ3FFW69XNUQKFNT8Y2NTU","A1DKVUTOBPQH11","3FVBZG9CLJ0K37PD5L6161S4HTM0HN","","null","<img src=""img/food3.png"" style=""width:200px; border:14px solid green;"">","null","","","","","","","","","",""
"","image-keyboard-response","156","131444","0.0-156.0","3QRYMNZ7FZ3FFW69XNUQKFNT8Y2NTU","A1DKVUTOBPQH11","3FVBZG9CLJ0K37PD5L6161S4HTM0HN","","830.8000000044703","img/food5.png","76","831.3999999985099","3","1","2","1","1,0.5,0,1,0.5,0,0.5,0,1","0.5,0,1,0.5,0,1,0,1,0.5","2","",""
"","html-keyboard-response","157","131747","0.0-157.0","3QRYMNZ7FZ3FFW69XNUQKFNT8Y2NTU","A1DKVUTOBPQH11","3FVBZG9CLJ0K37PD5L6161S4HTM0HN","","null","<img src=""img/food5.png"" style=""width:200px; border:14px solid green;"">","null","","","","","","","","","",""
"","image-keyboard-response","158","132184","0.0-158.0","3QRYMNZ7FZ3FFW69XNUQKFNT8Y2NTU","A1DKVUTOBPQH11","3FVBZG9CLJ0K37PD5L6161S4HTM0HN","","437.30000000447035","img/food5.png","76","437.69999999552965","3","1","2","1","1,0.5,0,1,0.5,0,0.5,0,1","0.5,0,1,0.5,0,1,0,1,0.5","2","",""
"","html-keyboard-response","159","132486","0.0-159.0","3QRYMNZ7FZ3FFW69XNUQKFNT8Y2NTU","A1DKVUTOBPQH11","3FVBZG9CLJ0K37PD5L6161S4HTM0HN","","null","<img src=""img/food5.png"" style=""width:200px; border:14px solid green;"">","null","","","","","","","","","",""
"","image-keyboard-response","160","133098","0.0-160.0","3QRYMNZ7FZ3FFW69XNUQKFNT8Y2NTU","A1DKVUTOBPQH11","3FVBZG9CLJ0K37PD5L6161S4HTM0HN","","611.7999999970198","img/food3.png","76","612.3999999985099","3","1","1","1","1,0.5,0,1,0.5,0,0.5,0,1","0.5,0,1,0.5,0,1,0,1,0.5","2","",""
"","html-keyboard-response","161","133399","0.0-161.0","3QRYMNZ7FZ3FFW69XNUQKFNT8Y2NTU","A1DKVUTOBPQH11","3FVBZG9CLJ0K37PD5L6161S4HTM0HN","","null","<img src=""img/food3.png"" style=""width:200px; border:14px solid green;"">","null","","","","","","","","","",""
"","image-keyboard-response","162","134084","0.0-162.0","3QRYMNZ7FZ3FFW69XNUQKFNT8Y2NTU","A1DKVUTOBPQH11","3FVBZG9CLJ0K37PD5L6161S4HTM0HN","","684","img/food5.png","76","684.6000000014901","3","1","2","1","1,0.5,0,1,0.5,0,0.5,0,1","0.5,0,1,0.5,0,1,0,1,0.5","2","",""
"","html-keyboard-response","163","134386","0.0-163.0","3QRYMNZ7FZ3FFW69XNUQKFNT8Y2NTU","A1DKVUTOBPQH11","3FVBZG9CLJ0K37PD5L6161S4HTM0HN","","null","<img src=""img/food5.png"" style=""width:200px; border:14px solid green;"">","null","","","","","","","","","",""
"","image-keyboard-response","164","134928","0.0-164.0","3QRYMNZ7FZ3FFW69XNUQKFNT8Y2NTU","A1DKVUTOBPQH11","3FVBZG9CLJ0K37PD5L6161S4HTM0HN","","541.8999999985099","img/food5.png","76","542.3999999985099","3","1","2","1","1,0.5,0,1,0.5,0,0.5,0,1","0.5,0,1,0.5,0,1,0,1,0.5","2","",""
"","html-keyboard-response","165","135229","0.0-165.0","3QRYMNZ7FZ3FFW69XNUQKFNT8Y2NTU","A1DKVUTOBPQH11","3FVBZG9CLJ0K37PD5L6161S4HTM0HN","","null","<img src=""img/food5.png"" style=""width:200px; border:14px solid green;"">","null","","","","","","","","","",""
"","image-keyboard-response","166","135857","0.0-166.0","3QRYMNZ7FZ3FFW69XNUQKFNT8Y2NTU","A1DKVUTOBPQH11","3FVBZG9CLJ0K37PD5L6161S4HTM0HN","","626.7999999970198","img/food3.png","76","627.3999999985099","3","1","1","1","1,0.5,0,1,0.5,0,0.5,0,1","0.5,0,1,0.5,0,1,0,1,0.5","2","",""
"","html-keyboard-response","167","136158","0.0-167.0","3QRYMNZ7FZ3FFW69XNUQKFNT8Y2NTU","A1DKVUTOBPQH11","3FVBZG9CLJ0K37PD5L6161S4HTM0HN","","null","<img src=""img/food3.png"" style=""width:200px; border:14px solid green;"">","null","","","","","","","","","",""
"","image-keyboard-response","168","136780","0.0-168.0","3QRYMNZ7FZ3FFW69XNUQKFNT8Y2NTU","A1DKVUTOBPQH11","3FVBZG9CLJ0K37PD5L6161S4HTM0HN","","621.7999999970198","img/food3.png","76","622.3000000044703","3","1","1","1","1,0.5,0,1,0.5,0,0.5,0,1","0.5,0,1,0.5,0,1,0,1,0.5","2","",""
"","html-keyboard-response","169","137082","0.0-169.0","3QRYMNZ7FZ3FFW69XNUQKFNT8Y2NTU","A1DKVUTOBPQH11","3FVBZG9CLJ0K37PD5L6161S4HTM0HN","","null","<img src=""img/food3.png"" style=""width:200px; border:14px solid green;"">","null","","","","","","","","","",""
"","image-keyboard-response","170","137734","0.0-170.0","3QRYMNZ7FZ3FFW69XNUQKFNT8Y2NTU","A1DKVUTOBPQH11","3FVBZG9CLJ0K37PD5L6161S4HTM0HN","","652.2000000029802","img/food1.png","75","652.6999999955297","2","1","3","1","1,0.5,0,1,0.5,0,0.5,0,1","0.5,0,1,0.5,0,1,0,1,0.5","2","",""
"","html-keyboard-response","171","138036","0.0-171.0","3QRYMNZ7FZ3FFW69XNUQKFNT8Y2NTU","A1DKVUTOBPQH11","3FVBZG9CLJ0K37PD5L6161S4HTM0HN","","null","<img src=""img/food1.png"" style=""width:200px; border:14px solid green;"">","null","","","","","","","","","",""
"","image-keyboard-response","172","139196","0.0-172.0","3QRYMNZ7FZ3FFW69XNUQKFNT8Y2NTU","A1DKVUTOBPQH11","3FVBZG9CLJ0K37PD5L6161S4HTM0HN","","1160.2000000029802","img/food5.png","76","1160.7999999970198","3","1","2","1","1,0.5,0,1,0.5,0,0.5,0,1","0.5,0,1,0.5,0,1,0,1,0.5","2","",""
"","html-keyboard-response","173","139498","0.0-173.0","3QRYMNZ7FZ3FFW69XNUQKFNT8Y2NTU","A1DKVUTOBPQH11","3FVBZG9CLJ0K37PD5L6161S4HTM0HN","","null","<img src=""img/food5.png"" style=""width:200px; border:14px solid green;"">","null","","","","","","","","","",""
"","image-keyboard-response","174","140108","0.0-174.0","3QRYMNZ7FZ3FFW69XNUQKFNT8Y2NTU","A1DKVUTOBPQH11","3FVBZG9CLJ0K37PD5L6161S4HTM0HN","","609.3999999985099","img/food3.png","76","609.8999999985099","3","1","1","1","1,0.5,0,1,0.5,0,0.5,0,1","0.5,0,1,0.5,0,1,0,1,0.5","2","",""
"","html-keyboard-response","175","140409","0.0-175.0","3QRYMNZ7FZ3FFW69XNUQKFNT8Y2NTU","A1DKVUTOBPQH11","3FVBZG9CLJ0K37PD5L6161S4HTM0HN","","null","<img src=""img/food3.png"" style=""width:200px; border:14px solid green;"">","null","","","","","","","","","",""
"","image-keyboard-response","176","141041","0.0-176.0","3QRYMNZ7FZ3FFW69XNUQKFNT8Y2NTU","A1DKVUTOBPQH11","3FVBZG9CLJ0K37PD5L6161S4HTM0HN","","630.8999999985099","img/food1.png","75","631.5999999940395","2","1","3","1","1,0.5,0,1,0.5,0,0.5,0,1","0.5,0,1,0.5,0,1,0,1,0.5","2","",""
"","html-keyboard-response","177","141342","0.0-177.0","3QRYMNZ7FZ3FFW69XNUQKFNT8Y2NTU","A1DKVUTOBPQH11","3FVBZG9CLJ0K37PD5L6161S4HTM0HN","","null","<img src=""img/food1.png"" style=""width:200px; border:14px solid green;"">","null","","","","","","","","","",""
"","image-keyboard-response","178","142034","0.0-178.0","3QRYMNZ7FZ3FFW69XNUQKFNT8Y2NTU","A1DKVUTOBPQH11","3FVBZG9CLJ0K37PD5L6161S4HTM0HN","","691.0999999940395","img/food3.png","76","691.6000000014901","3","1","1","1","1,0.5,0,1,0.5,0,0.5,0,1","0.5,0,1,0.5,0,1,0,1,0.5","2","",""
"","html-keyboard-response","179","142336","0.0-179.0","3QRYMNZ7FZ3FFW69XNUQKFNT8Y2NTU","A1DKVUTOBPQH11","3FVBZG9CLJ0K37PD5L6161S4HTM0HN","","null","<img src=""img/food3.png"" style=""width:200px; border:14px solid green;"">","null","","","","","","","","","",""
"","image-keyboard-response","180","142746","0.0-180.0","3QRYMNZ7FZ3FFW69XNUQKFNT8Y2NTU","A1DKVUTOBPQH11","3FVBZG9CLJ0K37PD5L6161S4HTM0HN","","409.8999999985099","img/food3.png","76","410.59999999403954","3","1","1","1","1,0.5,0,1,0.5,0,0.5,0,1","0.5,0,1,0.5,0,1,0,1,0.5","2","",""
"","html-keyboard-response","181","143048","0.0-181.0","3QRYMNZ7FZ3FFW69XNUQKFNT8Y2NTU","A1DKVUTOBPQH11","3FVBZG9CLJ0K37PD5L6161S4HTM0HN","","null","<img src=""img/food3.png"" style=""width:200px; border:14px solid green;"">","null","","","","","","","","","",""
"","html-keyboard-response","182","146249","0.0-182.0","3QRYMNZ7FZ3FFW69XNUQKFNT8Y2NTU","A1DKVUTOBPQH11","3FVBZG9CLJ0K37PD5L6161S4HTM0HN","","","","","","","","","","","","","",""
"","instructions","183","157641","0.0-183.0","3QRYMNZ7FZ3FFW69XNUQKFNT8Y2NTU","A1DKVUTOBPQH11","3FVBZG9CLJ0K37PD5L6161S4HTM0HN","[{""page_index"":0,""viewing_time"":9644.30000000447},{""page_index"":1,""viewing_time"":1747.8999999985099}]","11392.39999999851","","","","","","","","","","","",""
"","image-keyboard-response","184","158428","0.0-184.0","3QRYMNZ7FZ3FFW69XNUQKFNT8Y2NTU","A1DKVUTOBPQH11","3FVBZG9CLJ0K37PD5L6161S4HTM0HN","","786.1000000014901","img/food4.png","74","786.7999999970198","1","1","3","2","1,0.5,0,1,0.5,0,0.5,0,1","0,1,0.5,0,1,0.5,1,0.5,0","3","false",""
"","html-keyboard-response","185","158729","0.0-185.0","3QRYMNZ7FZ3FFW69XNUQKFNT8Y2NTU","A1DKVUTOBPQH11","3FVBZG9CLJ0K37PD5L6161S4HTM0HN","","null","<img src=""img/food4.png"" style=""width:200px; border:14px solid green;"">","null","","","","","","","","","",""
"","image-keyboard-response","186","159370","0.0-187.0","3QRYMNZ7FZ3FFW69XNUQKFNT8Y2NTU","A1DKVUTOBPQH11","3FVBZG9CLJ0K37PD5L6161S4HTM0HN","","639.7999999970198","img/food2.png","75","640.2999999970198","2","1","2","2","1,0.5,0,1,0.5,0,0.5,0,1","0,1,0.5,0,1,0.5,1,0.5,0","3","false",""
"","html-keyboard-response","187","159671","0.0-188.0","3QRYMNZ7FZ3FFW69XNUQKFNT8Y2NTU","A1DKVUTOBPQH11","3FVBZG9CLJ0K37PD5L6161S4HTM0HN","","null","<img src=""img/food2.png"" style=""width:200px; border:14px solid green;"">","null","","","","","","","","","",""
"","image-keyboard-response","188","160298","0.0-190.0","3QRYMNZ7FZ3FFW69XNUQKFNT8Y2NTU","A1DKVUTOBPQH11","3FVBZG9CLJ0K37PD5L6161S4HTM0HN","","626.2999999970198","img/food6.png","76","626.8000000044703","3","0","1","2","1,0.5,0,1,0.5,0,0.5,0,1","0,1,0.5,0,1,0.5,1,0.5,0","3","false",""
"","html-keyboard-response","189","160600","0.0-191.0","3QRYMNZ7FZ3FFW69XNUQKFNT8Y2NTU","A1DKVUTOBPQH11","3FVBZG9CLJ0K37PD5L6161S4HTM0HN","","null","<img src=""img/food6.png"" style=""width:200px;border:14px solid red;"">","null","","","","","","","","","",""
"","image-keyboard-response","190","161200","0.0-193.0","3QRYMNZ7FZ3FFW69XNUQKFNT8Y2NTU","A1DKVUTOBPQH11","3FVBZG9CLJ0K37PD5L6161S4HTM0HN","","599.7999999970198","img/food4.png","75","600.3999999985099","2","1","3","2","1,0.5,0,1,0.5,0,0.5,0,1","0,1,0.5,0,1,0.5,1,0.5,0","3","false",""
"","html-keyboard-response","191","161502","0.0-194.0","3QRYMNZ7FZ3FFW69XNUQKFNT8Y2NTU","A1DKVUTOBPQH11","3FVBZG9CLJ0K37PD5L6161S4HTM0HN","","null","<img src=""img/food4.png"" style=""width:200px; border:14px solid green;"">","null","","","","","","","","","",""
"","image-keyboard-response","192","162132","0.0-196.0","3QRYMNZ7FZ3FFW69XNUQKFNT8Y2NTU","A1DKVUTOBPQH11","3FVBZG9CLJ0K37PD5L6161S4HTM0HN","","629.2999999970198","img/food4.png","75","630","2","1","3","2","1,0.5,0,1,0.5,0,0.5,0,1","0,1,0.5,0,1,0.5,1,0.5,0","3","false",""
"","html-keyboard-response","193","162434","0.0-197.0","3QRYMNZ7FZ3FFW69XNUQKFNT8Y2NTU","A1DKVUTOBPQH11","3FVBZG9CLJ0K37PD5L6161S4HTM0HN","","null","<img src=""img/food4.png"" style=""width:200px; border:14px solid green;"">","null","","","","","","","","","",""
"","image-keyboard-response","194","163067","0.0-199.0","3QRYMNZ7FZ3FFW69XNUQKFNT8Y2NTU","A1DKVUTOBPQH11","3FVBZG9CLJ0K37PD5L6161S4HTM0HN","","632.3999999985099","img/food4.png","75","632.8999999985099","2","0","3","2","1,0.5,0,1,0.5,0,0.5,0,1","0,1,0.5,0,1,0.5,1,0.5,0","3","false",""
"","html-keyboard-response","195","163369","0.0-200.0","3QRYMNZ7FZ3FFW69XNUQKFNT8Y2NTU","A1DKVUTOBPQH11","3FVBZG9CLJ0K37PD5L6161S4HTM0HN","","null","<img src=""img/food4.png"" style=""width:200px;border:14px solid red;"">","null","","","","","","","","","",""
"","image-keyboard-response","196","163858","0.0-202.0","3QRYMNZ7FZ3FFW69XNUQKFNT8Y2NTU","A1DKVUTOBPQH11","3FVBZG9CLJ0K37PD5L6161S4HTM0HN","","488.09999999403954","img/food4.png","75","488.70000000298023","2","0","3","2","1,0.5,0,1,0.5,0,0.5,0,1","0,1,0.5,0,1,0.5,1,0.5,0","3","false",""
"","html-keyboard-response","197","164159","0.0-203.0","3QRYMNZ7FZ3FFW69XNUQKFNT8Y2NTU","A1DKVUTOBPQH11","3FVBZG9CLJ0K37PD5L6161S4HTM0HN","","null","<img src=""img/food4.png"" style=""width:200px;border:14px solid red;"">","null","","","","","","","","","",""
"","image-keyboard-response","198","165022","0.0-205.0","3QRYMNZ7FZ3FFW69XNUQKFNT8Y2NTU","A1DKVUTOBPQH11","3FVBZG9CLJ0K37PD5L6161S4HTM0HN","","861.5","img/food2.png","74","862.1000000014901","1","0","2","2","1,0.5,0,1,0.5,0,0.5,0,1","0,1,0.5,0,1,0.5,1,0.5,0","3","false",""
"","html-keyboard-response","199","165323","0.0-206.0","3QRYMNZ7FZ3FFW69XNUQKFNT8Y2NTU","A1DKVUTOBPQH11","3FVBZG9CLJ0K37PD5L6161S4HTM0HN","","null","<img src=""img/food2.png"" style=""width:200px;border:14px solid red;"">","null","","","","","","","","","",""
"","image-keyboard-response","200","166128","0.0-208.0","3QRYMNZ7FZ3FFW69XNUQKFNT8Y2NTU","A1DKVUTOBPQH11","3FVBZG9CLJ0K37PD5L6161S4HTM0HN","","803.8999999985099","img/food6.png","76","804.3999999985099","3","1","1","2","1,0.5,0,1,0.5,0,0.5,0,1","0,1,0.5,0,1,0.5,1,0.5,0","3","false",""
"","html-keyboard-response","201","166429","0.0-209.0","3QRYMNZ7FZ3FFW69XNUQKFNT8Y2NTU","A1DKVUTOBPQH11","3FVBZG9CLJ0K37PD5L6161S4HTM0HN","","null","<img src=""img/food6.png"" style=""width:200px; border:14px solid green;"">","null","","","","","","","","","",""
"","image-keyboard-response","202","167074","0.0-211.0","3QRYMNZ7FZ3FFW69XNUQKFNT8Y2NTU","A1DKVUTOBPQH11","3FVBZG9CLJ0K37PD5L6161S4HTM0HN","","643.5","img/food4.png","75","644.3000000044703","2","1","3","2","1,0.5,0,1,0.5,0,0.5,0,1","0,1,0.5,0,1,0.5,1,0.5,0","3","false",""
"","html-keyboard-response","203","167375","0.0-212.0","3QRYMNZ7FZ3FFW69XNUQKFNT8Y2NTU","A1DKVUTOBPQH11","3FVBZG9CLJ0K37PD5L6161S4HTM0HN","","null","<img src=""img/food4.png"" style=""width:200px; border:14px solid green;"">","null","","","","","","","","","",""
"","image-keyboard-response","204","167935","0.0-214.0","3QRYMNZ7FZ3FFW69XNUQKFNT8Y2NTU","A1DKVUTOBPQH11","3FVBZG9CLJ0K37PD5L6161S4HTM0HN","","558.8999999985099","img/food6.png","76","559.5","3","0","1","2","1,0.5,0,1,0.5,0,0.5,0,1","0,1,0.5,0,1,0.5,1,0.5,0","3","false",""
"","html-keyboard-response","205","168245","0.0-215.0","3QRYMNZ7FZ3FFW69XNUQKFNT8Y2NTU","A1DKVUTOBPQH11","3FVBZG9CLJ0K37PD5L6161S4HTM0HN","","null","<img src=""img/food6.png"" style=""width:200px;border:14px solid red;"">","null","","","","","","","","","",""
"","image-keyboard-response","206","169176","0.0-217.0","3QRYMNZ7FZ3FFW69XNUQKFNT8Y2NTU","A1DKVUTOBPQH11","3FVBZG9CLJ0K37PD5L6161S4HTM0HN","","930.3999999985099","img/food2.png","74","930.9000000059605","1","0","2","2","1,0.5,0,1,0.5,0,0.5,0,1","0,1,0.5,0,1,0.5,1,0.5,0","3","false",""
"","html-keyboard-response","207","169478","0.0-218.0","3QRYMNZ7FZ3FFW69XNUQKFNT8Y2NTU","A1DKVUTOBPQH11","3FVBZG9CLJ0K37PD5L6161S4HTM0HN","","null","<img src=""img/food2.png"" style=""width:200px;border:14px solid red;"">","null","","","","","","","","","",""
"","image-keyboard-response","208","170058","0.0-220.0","3QRYMNZ7FZ3FFW69XNUQKFNT8Y2NTU","A1DKVUTOBPQH11","3FVBZG9CLJ0K37PD5L6161S4HTM0HN","","579.5","img/food2.png","74","580.1999999955297","1","0","2","2","1,0.5,0,1,0.5,0,0.5,0,1","0,1,0.5,0,1,0.5,1,0.5,0","3","false",""
"","html-keyboard-response","209","170360","0.0-221.0","3QRYMNZ7FZ3FFW69XNUQKFNT8Y2NTU","A1DKVUTOBPQH11","3FVBZG9CLJ0K37PD5L6161S4HTM0HN","","null","<img src=""img/food2.png"" style=""width:200px;border:14px solid red;"">","null","","","","","","","","","",""
"","image-keyboard-response","210","171088","0.0-223.0","3QRYMNZ7FZ3FFW69XNUQKFNT8Y2NTU","A1DKVUTOBPQH11","3FVBZG9CLJ0K37PD5L6161S4HTM0HN","","727","img/food6.png","75","727.7000000029802","2","1","1","2","1,0.5,0,1,0.5,0,0.5,0,1","0,1,0.5,0,1,0.5,1,0.5,0","3","false",""
"","html-keyboard-response","211","171389","0.0-224.0","3QRYMNZ7FZ3FFW69XNUQKFNT8Y2NTU","A1DKVUTOBPQH11","3FVBZG9CLJ0K37PD5L6161S4HTM0HN","","null","<img src=""img/food6.png"" style=""width:200px; border:14px solid green;"">","null","","","","","","","","","",""
"","image-keyboard-response","212","172349","0.0-226.0","3QRYMNZ7FZ3FFW69XNUQKFNT8Y2NTU","A1DKVUTOBPQH11","3FVBZG9CLJ0K37PD5L6161S4HTM0HN","","959.7000000029802","img/food2.png","76","960.2999999970198","3","0","2","2","1,0.5,0,1,0.5,0,0.5,0,1","0,1,0.5,0,1,0.5,1,0.5,0","3","false",""
"","html-keyboard-response","213","172651","0.0-227.0","3QRYMNZ7FZ3FFW69XNUQKFNT8Y2NTU","A1DKVUTOBPQH11","3FVBZG9CLJ0K37PD5L6161S4HTM0HN","","null","<img src=""img/food2.png"" style=""width:200px;border:14px solid red;"">","null","","","","","","","","","",""
"","image-keyboard-response","214","173447","0.0-229.0","3QRYMNZ7FZ3FFW69XNUQKFNT8Y2NTU","A1DKVUTOBPQH11","3FVBZG9CLJ0K37PD5L6161S4HTM0HN","","795.7000000029802","img/food4.png","76","796.2999999970198","3","0","3","2","1,0.5,0,1,0.5,0,0.5,0,1","0,1,0.5,0,1,0.5,1,0.5,0","3","false",""
"","html-keyboard-response","215","173749","0.0-230.0","3QRYMNZ7FZ3FFW69XNUQKFNT8Y2NTU","A1DKVUTOBPQH11","3FVBZG9CLJ0K37PD5L6161S4HTM0HN","","null","<img src=""img/food4.png"" style=""width:200px;border:14px solid red;"">","null","","","","","","","","","",""
"","image-keyboard-response","216","174184","0.0-232.0","3QRYMNZ7FZ3FFW69XNUQKFNT8Y2NTU","A1DKVUTOBPQH11","3FVBZG9CLJ0K37PD5L6161S4HTM0HN","","434.5","img/food4.png","75","435","2","1","3","2","1,0.5,0,1,0.5,0,0.5,0,1","0,1,0.5,0,1,0.5,1,0.5,0","3","false",""
"","html-keyboard-response","217","174486","0.0-233.0","3QRYMNZ7FZ3FFW69XNUQKFNT8Y2NTU","A1DKVUTOBPQH11","3FVBZG9CLJ0K37PD5L6161S4HTM0HN","","null","<img src=""img/food4.png"" style=""width:200px; border:14px solid green;"">","null","","","","","","","","","",""
"","image-keyboard-response","218","175270","0.0-235.0","3QRYMNZ7FZ3FFW69XNUQKFNT8Y2NTU","A1DKVUTOBPQH11","3FVBZG9CLJ0K37PD5L6161S4HTM0HN","","784","img/food6.png","76","784.6000000014901","3","1","1","2","1,0.5,0,1,0.5,0,0.5,0,1","0,1,0.5,0,1,0.5,1,0.5,0","3","false",""
"","html-keyboard-response","219","175571","0.0-236.0","3QRYMNZ7FZ3FFW69XNUQKFNT8Y2NTU","A1DKVUTOBPQH11","3FVBZG9CLJ0K37PD5L6161S4HTM0HN","","null","<img src=""img/food6.png"" style=""width:200px; border:14px solid green;"">","null","","","","","","","","","",""
"","image-keyboard-response","220","176573","0.0-238.0","3QRYMNZ7FZ3FFW69XNUQKFNT8Y2NTU","A1DKVUTOBPQH11","3FVBZG9CLJ0K37PD5L6161S4HTM0HN","","","img/food2.png","","1001.1999999955297","-1","0","2","2","1,0.5,0,1,0.5,0,0.5,0,1","0,1,0.5,0,1,0.5,1,0.5,0","3","true",""
"","html-keyboard-response","221","176874","0.0-239.0","3QRYMNZ7FZ3FFW69XNUQKFNT8Y2NTU","A1DKVUTOBPQH11","3FVBZG9CLJ0K37PD5L6161S4HTM0HN","","null","<img src=""img/food2.png"" style=""width:200px;border:14px solid red;"">","null","","","","","","","","","",""
"","html-keyboard-response","222","180399","0.0-240.0-0.0","3QRYMNZ7FZ3FFW69XNUQKFNT8Y2NTU","A1DKVUTOBPQH11","3FVBZG9CLJ0K37PD5L6161S4HTM0HN","","","","","","","","","","","","","",""
"","image-keyboard-response","223","181008","0.0-241.0","3QRYMNZ7FZ3FFW69XNUQKFNT8Y2NTU","A1DKVUTOBPQH11","3FVBZG9CLJ0K37PD5L6161S4HTM0HN","","608.1000000014901","img/food4.png","76","608.7999999970198","3","0","3","2","1,0.5,0,1,0.5,0,0.5,0,1","0,1,0.5,0,1,0.5,1,0.5,0","3","false",""
"","html-keyboard-response","224","181309","0.0-242.0","3QRYMNZ7FZ3FFW69XNUQKFNT8Y2NTU","A1DKVUTOBPQH11","3FVBZG9CLJ0K37PD5L6161S4HTM0HN","","null","<img src=""img/food4.png"" style=""width:200px;border:14px solid red;"">","null","","","","","","","","","",""
"","image-keyboard-response","225","181648","0.0-244.0","3QRYMNZ7FZ3FFW69XNUQKFNT8Y2NTU","A1DKVUTOBPQH11","3FVBZG9CLJ0K37PD5L6161S4HTM0HN","","337.6000000014901","img/food4.png","76","338","3","0","3","2","1,0.5,0,1,0.5,0,0.5,0,1","0,1,0.5,0,1,0.5,1,0.5,0","3","false",""
"","html-keyboard-response","226","181949","0.0-245.0","3QRYMNZ7FZ3FFW69XNUQKFNT8Y2NTU","A1DKVUTOBPQH11","3FVBZG9CLJ0K37PD5L6161S4HTM0HN","","null","<img src=""img/food4.png"" style=""width:200px;border:14px solid red;"">","null","","","","","","","","","",""
"","image-keyboard-response","227","182173","0.0-247.0","3QRYMNZ7FZ3FFW69XNUQKFNT8Y2NTU","A1DKVUTOBPQH11","3FVBZG9CLJ0K37PD5L6161S4HTM0HN","","223.90000000596046","img/food2.png","76","224.39999999850988","3","1","2","2","1,0.5,0,1,0.5,0,0.5,0,1","0,1,0.5,0,1,0.5,1,0.5,0","3","false",""
"","html-keyboard-response","228","182475","0.0-248.0","3QRYMNZ7FZ3FFW69XNUQKFNT8Y2NTU","A1DKVUTOBPQH11","3FVBZG9CLJ0K37PD5L6161S4HTM0HN","","null","<img src=""img/food2.png"" style=""width:200px; border:14px solid green;"">","null","","","","","","","","","",""
"","image-keyboard-response","229","182871","0.0-250.0","3QRYMNZ7FZ3FFW69XNUQKFNT8Y2NTU","A1DKVUTOBPQH11","3FVBZG9CLJ0K37PD5L6161S4HTM0HN","","395.19999999552965","img/food6.png","75","395.90000000596046","2","1","1","2","1,0.5,0,1,0.5,0,0.5,0,1","0,1,0.5,0,1,0.5,1,0.5,0","3","false",""
"","html-keyboard-response","230","183172","0.0-251.0","3QRYMNZ7FZ3FFW69XNUQKFNT8Y2NTU","A1DKVUTOBPQH11","3FVBZG9CLJ0K37PD5L6161S4HTM0HN","","null","<img src=""img/food6.png"" style=""width:200px; border:14px solid green;"">","null","","","","","","","","","",""
"","image-keyboard-response","231","183387","0.0-253.0","3QRYMNZ7FZ3FFW69XNUQKFNT8Y2NTU","A1DKVUTOBPQH11","3FVBZG9CLJ0K37PD5L6161S4HTM0HN","","214.19999999552965","img/food6.png","76","214.80000000447035","3","0","1","2","1,0.5,0,1,0.5,0,0.5,0,1","0,1,0.5,0,1,0.5,1,0.5,0","3","false",""
"","html-keyboard-response","232","183688","0.0-254.0","3QRYMNZ7FZ3FFW69XNUQKFNT8Y2NTU","A1DKVUTOBPQH11","3FVBZG9CLJ0K37PD5L6161S4HTM0HN","","null","<img src=""img/food6.png"" style=""width:200px;border:14px solid red;"">","null","","","","","","","","","",""
"","image-keyboard-response","233","183897","0.0-256.0","3QRYMNZ7FZ3FFW69XNUQKFNT8Y2NTU","A1DKVUTOBPQH11","3FVBZG9CLJ0K37PD5L6161S4HTM0HN","","207.89999999850988","img/food6.png","75","208.5","2","1","1","2","1,0.5,0,1,0.5,0,0.5,0,1","0,1,0.5,0,1,0.5,1,0.5,0","3","false",""
"","html-keyboard-response","234","184198","0.0-257.0","3QRYMNZ7FZ3FFW69XNUQKFNT8Y2NTU","A1DKVUTOBPQH11","3FVBZG9CLJ0K37PD5L6161S4HTM0HN","","null","<img src=""img/food6.png"" style=""width:200px; border:14px solid green;"">","null","","","","","","","","","",""
"","image-keyboard-response","235","184395","0.0-259.0","3QRYMNZ7FZ3FFW69XNUQKFNT8Y2NTU","A1DKVUTOBPQH11","3FVBZG9CLJ0K37PD5L6161S4HTM0HN","","196","img/food2.png","75","196.69999999552965","2","1","2","2","1,0.5,0,1,0.5,0,0.5,0,1","0,1,0.5,0,1,0.5,1,0.5,0","3","false",""
"","html-keyboard-response","236","184696","0.0-260.0","3QRYMNZ7FZ3FFW69XNUQKFNT8Y2NTU","A1DKVUTOBPQH11","3FVBZG9CLJ0K37PD5L6161S4HTM0HN","","null","<img src=""img/food2.png"" style=""width:200px; border:14px solid green;"">","null","","","","","","","","","",""
"","image-keyboard-response","237","184924","0.0-262.0","3QRYMNZ7FZ3FFW69XNUQKFNT8Y2NTU","A1DKVUTOBPQH11","3FVBZG9CLJ0K37PD5L6161S4HTM0HN","","227.39999999850988","img/food4.png","74","227.89999999850988","1","1","3","2","1,0.5,0,1,0.5,0,0.5,0,1","0,1,0.5,0,1,0.5,1,0.5,0","3","false",""
"","html-keyboard-response","238","185226","0.0-263.0","3QRYMNZ7FZ3FFW69XNUQKFNT8Y2NTU","A1DKVUTOBPQH11","3FVBZG9CLJ0K37PD5L6161S4HTM0HN","","null","<img src=""img/food4.png"" style=""width:200px; border:14px solid green;"">","null","","","","","","","","","",""
"","image-keyboard-response","239","185638","0.0-265.0","3QRYMNZ7FZ3FFW69XNUQKFNT8Y2NTU","A1DKVUTOBPQH11","3FVBZG9CLJ0K37PD5L6161S4HTM0HN","","411.1000000014901","img/food6.png","74","411.5","1","0","1","2","1,0.5,0,1,0.5,0,0.5,0,1","0,1,0.5,0,1,0.5,1,0.5,0","3","false",""
"","html-keyboard-response","240","185940","0.0-266.0","3QRYMNZ7FZ3FFW69XNUQKFNT8Y2NTU","A1DKVUTOBPQH11","3FVBZG9CLJ0K37PD5L6161S4HTM0HN","","null","<img src=""img/food6.png"" style=""width:200px;border:14px solid red;"">","null","","","","","","","","","",""
"","image-keyboard-response","241","186077","0.0-268.0","3QRYMNZ7FZ3FFW69XNUQKFNT8Y2NTU","A1DKVUTOBPQH11","3FVBZG9CLJ0K37PD5L6161S4HTM0HN","","136.70000000298023","img/food2.png","76","137.39999999850988","3","1","2","2","1,0.5,0,1,0.5,0,0.5,0,1","0,1,0.5,0,1,0.5,1,0.5,0","3","false",""
"","html-keyboard-response","242","186379","0.0-269.0","3QRYMNZ7FZ3FFW69XNUQKFNT8Y2NTU","A1DKVUTOBPQH11","3FVBZG9CLJ0K37PD5L6161S4HTM0HN","","null","<img src=""img/food2.png"" style=""width:200px; border:14px solid green;"">","null","","","","","","","","","",""
"","image-keyboard-response","243","186832","0.0-271.0","3QRYMNZ7FZ3FFW69XNUQKFNT8Y2NTU","A1DKVUTOBPQH11","3FVBZG9CLJ0K37PD5L6161S4HTM0HN","","452.20000000298023","img/food4.png","76","453.1000000014901","3","0","3","2","1,0.5,0,1,0.5,0,0.5,0,1","0,1,0.5,0,1,0.5,1,0.5,0","3","false",""
"","html-keyboard-response","244","187134","0.0-272.0","3QRYMNZ7FZ3FFW69XNUQKFNT8Y2NTU","A1DKVUTOBPQH11","3FVBZG9CLJ0K37PD5L6161S4HTM0HN","","null","<img src=""img/food4.png"" style=""width:200px;border:14px solid red;"">","null","","","","","","","","","",""
"","image-keyboard-response","245","187293","0.0-274.0","3QRYMNZ7FZ3FFW69XNUQKFNT8Y2NTU","A1DKVUTOBPQH11","3FVBZG9CLJ0K37PD5L6161S4HTM0HN","","158.5","img/food6.png","75","159.19999999552965","2","1","1","2","1,0.5,0,1,0.5,0,0.5,0,1","0,1,0.5,0,1,0.5,1,0.5,0","3","false",""
"","html-keyboard-response","246","187595","0.0-275.0","3QRYMNZ7FZ3FFW69XNUQKFNT8Y2NTU","A1DKVUTOBPQH11","3FVBZG9CLJ0K37PD5L6161S4HTM0HN","","null","<img src=""img/food6.png"" style=""width:200px; border:14px solid green;"">","null","","","","","","","","","",""
"","image-keyboard-response","247","187856","0.0-277.0","3QRYMNZ7FZ3FFW69XNUQKFNT8Y2NTU","A1DKVUTOBPQH11","3FVBZG9CLJ0K37PD5L6161S4HTM0HN","","260","img/food4.png","75","260.70000000298023","2","1","3","2","1,0.5,0,1,0.5,0,0.5,0,1","0,1,0.5,0,1,0.5,1,0.5,0","3","false",""
"","html-keyboard-response","248","188157","0.0-278.0","3QRYMNZ7FZ3FFW69XNUQKFNT8Y2NTU","A1DKVUTOBPQH11","3FVBZG9CLJ0K37PD5L6161S4HTM0HN","","null","<img src=""img/food4.png"" style=""width:200px; border:14px solid green;"">","null","","","","","","","","","",""
"","image-keyboard-response","249","188443","0.0-280.0","3QRYMNZ7FZ3FFW69XNUQKFNT8Y2NTU","A1DKVUTOBPQH11","3FVBZG9CLJ0K37PD5L6161S4HTM0HN","","285.29999999701977","img/food6.png","75","286","2","1","1","2","1,0.5,0,1,0.5,0,0.5,0,1","0,1,0.5,0,1,0.5,1,0.5,0","3","false",""
"","html-keyboard-response","250","188745","0.0-281.0","3QRYMNZ7FZ3FFW69XNUQKFNT8Y2NTU","A1DKVUTOBPQH11","3FVBZG9CLJ0K37PD5L6161S4HTM0HN","","null","<img src=""img/food6.png"" style=""width:200px; border:14px solid green;"">","null","","","","","","","","","",""
"","image-keyboard-response","251","189305","0.0-283.0","3QRYMNZ7FZ3FFW69XNUQKFNT8Y2NTU","A1DKVUTOBPQH11","3FVBZG9CLJ0K37PD5L6161S4HTM0HN","","559.1000000014901","img/food2.png","75","559.7000000029802","2","1","2","2","1,0.5,0,1,0.5,0,0.5,0,1","0,1,0.5,0,1,0.5,1,0.5,0","3","false",""
"","html-keyboard-response","252","189607","0.0-284.0","3QRYMNZ7FZ3FFW69XNUQKFNT8Y2NTU","A1DKVUTOBPQH11","3FVBZG9CLJ0K37PD5L6161S4HTM0HN","","null","<img src=""img/food2.png"" style=""width:200px; border:14px solid green;"">","null","","","","","","","","","",""
"","image-keyboard-response","253","189783","0.0-286.0","3QRYMNZ7FZ3FFW69XNUQKFNT8Y2NTU","A1DKVUTOBPQH11","3FVBZG9CLJ0K37PD5L6161S4HTM0HN","","174.89999999850988","img/food2.png","75","175.70000000298023","2","1","2","2","1,0.5,0,1,0.5,0,0.5,0,1","0,1,0.5,0,1,0.5,1,0.5,0","3","false",""
"","html-keyboard-response","254","190099","0.0-287.0","3QRYMNZ7FZ3FFW69XNUQKFNT8Y2NTU","A1DKVUTOBPQH11","3FVBZG9CLJ0K37PD5L6161S4HTM0HN","","null","<img src=""img/food2.png"" style=""width:200px; border:14px solid green;"">","null","","","","","","","","","",""
"","image-keyboard-response","255","190320","0.0-289.0","3QRYMNZ7FZ3FFW69XNUQKFNT8Y2NTU","A1DKVUTOBPQH11","3FVBZG9CLJ0K37PD5L6161S4HTM0HN","","220.39999999850988","img/food6.png","75","221.09999999403954","2","1","1","2","1,0.5,0,1,0.5,0,0.5,0,1","0,1,0.5,0,1,0.5,1,0.5,0","3","false",""
"","html-keyboard-response","256","190622","0.0-290.0","3QRYMNZ7FZ3FFW69XNUQKFNT8Y2NTU","A1DKVUTOBPQH11","3FVBZG9CLJ0K37PD5L6161S4HTM0HN","","null","<img src=""img/food6.png"" style=""width:200px; border:14px solid green;"">","null","","","","","","","","","",""
"","image-keyboard-response","257","190866","0.0-292.0","3QRYMNZ7FZ3FFW69XNUQKFNT8Y2NTU","A1DKVUTOBPQH11","3FVBZG9CLJ0K37PD5L6161S4HTM0HN","","243.30000000447035","img/food4.png","75","244","2","1","3","2","1,0.5,0,1,0.5,0,0.5,0,1","0,1,0.5,0,1,0.5,1,0.5,0","3","false",""
"","html-keyboard-response","258","191168","0.0-293.0","3QRYMNZ7FZ3FFW69XNUQKFNT8Y2NTU","A1DKVUTOBPQH11","3FVBZG9CLJ0K37PD5L6161S4HTM0HN","","null","<img src=""img/food4.png"" style=""width:200px; border:14px solid green;"">","null","","","","","","","","","",""
"","image-keyboard-response","259","191434","0.0-295.0","3QRYMNZ7FZ3FFW69XNUQKFNT8Y2NTU","A1DKVUTOBPQH11","3FVBZG9CLJ0K37PD5L6161S4HTM0HN","","266.1000000014901","img/food2.png","75","267.09999999403954","2","1","2","2","1,0.5,0,1,0.5,0,0.5,0,1","0,1,0.5,0,1,0.5,1,0.5,0","3","false",""
"","html-keyboard-response","260","191736","0.0-296.0","3QRYMNZ7FZ3FFW69XNUQKFNT8Y2NTU","A1DKVUTOBPQH11","3FVBZG9CLJ0K37PD5L6161S4HTM0HN","","null","<img src=""img/food2.png"" style=""width:200px; border:14px solid green;"">","null","","","","","","","","","",""
"","image-keyboard-response","261","192027","0.0-298.0","3QRYMNZ7FZ3FFW69XNUQKFNT8Y2NTU","A1DKVUTOBPQH11","3FVBZG9CLJ0K37PD5L6161S4HTM0HN","","290.19999999552965","img/food2.png","75","290.80000000447035","2","1","2","2","1,0.5,0,1,0.5,0,0.5,0,1","0,1,0.5,0,1,0.5,1,0.5,0","3","false",""
"","html-keyboard-response","262","192329","0.0-299.0","3QRYMNZ7FZ3FFW69XNUQKFNT8Y2NTU","A1DKVUTOBPQH11","3FVBZG9CLJ0K37PD5L6161S4HTM0HN","","null","<img src=""img/food2.png"" style=""width:200px; border:14px solid green;"">","null","","","","","","","","","",""
"","image-keyboard-response","263","192568","0.0-301.0","3QRYMNZ7FZ3FFW69XNUQKFNT8Y2NTU","A1DKVUTOBPQH11","3FVBZG9CLJ0K37PD5L6161S4HTM0HN","","238.5","img/food6.png","75","239","2","1","1","2","1,0.5,0,1,0.5,0,0.5,0,1","0,1,0.5,0,1,0.5,1,0.5,0","3","false",""
"","html-keyboard-response","264","192870","0.0-302.0","3QRYMNZ7FZ3FFW69XNUQKFNT8Y2NTU","A1DKVUTOBPQH11","3FVBZG9CLJ0K37PD5L6161S4HTM0HN","","null","<img src=""img/food6.png"" style=""width:200px; border:14px solid green;"">","null","","","","","","","","","",""
"","image-keyboard-response","265","193148","0.0-304.0","3QRYMNZ7FZ3FFW69XNUQKFNT8Y2NTU","A1DKVUTOBPQH11","3FVBZG9CLJ0K37PD5L6161S4HTM0HN","","277.5","img/food4.png","75","278.1000000014901","2","1","3","2","1,0.5,0,1,0.5,0,0.5,0,1","0,1,0.5,0,1,0.5,1,0.5,0","3","false",""
"","html-keyboard-response","266","193450","0.0-305.0","3QRYMNZ7FZ3FFW69XNUQKFNT8Y2NTU","A1DKVUTOBPQH11","3FVBZG9CLJ0K37PD5L6161S4HTM0HN","","null","<img src=""img/food4.png"" style=""width:200px; border:14px solid green;"">","null","","","","","","","","","",""
"","image-keyboard-response","267","193684","0.0-307.0","3QRYMNZ7FZ3FFW69XNUQKFNT8Y2NTU","A1DKVUTOBPQH11","3FVBZG9CLJ0K37PD5L6161S4HTM0HN","","233.60000000149012","img/food4.png","75","234.20000000298023","2","0","3","2","1,0.5,0,1,0.5,0,0.5,0,1","0,1,0.5,0,1,0.5,1,0.5,0","3","false",""
"","html-keyboard-response","268","193998","0.0-308.0","3QRYMNZ7FZ3FFW69XNUQKFNT8Y2NTU","A1DKVUTOBPQH11","3FVBZG9CLJ0K37PD5L6161S4HTM0HN","","null","<img src=""img/food4.png"" style=""width:200px;border:14px solid red;"">","null","","","","","","","","","",""
"","image-keyboard-response","269","194288","0.0-310.0","3QRYMNZ7FZ3FFW69XNUQKFNT8Y2NTU","A1DKVUTOBPQH11","3FVBZG9CLJ0K37PD5L6161S4HTM0HN","","289.6000000014901","img/food4.png","75","290.1000000014901","2","0","3","2","1,0.5,0,1,0.5,0,0.5,0,1","0,1,0.5,0,1,0.5,1,0.5,0","3","false",""
"","html-keyboard-response","270","194589","0.0-311.0","3QRYMNZ7FZ3FFW69XNUQKFNT8Y2NTU","A1DKVUTOBPQH11","3FVBZG9CLJ0K37PD5L6161S4HTM0HN","","null","<img src=""img/food4.png"" style=""width:200px;border:14px solid red;"">","null","","","","","","","","","",""
"","image-keyboard-response","271","194789","0.0-313.0","3QRYMNZ7FZ3FFW69XNUQKFNT8Y2NTU","A1DKVUTOBPQH11","3FVBZG9CLJ0K37PD5L6161S4HTM0HN","","198.70000000298023","img/food2.png","75","199.59999999403954","2","1","2","2","1,0.5,0,1,0.5,0,0.5,0,1","0,1,0.5,0,1,0.5,1,0.5,0","3","false",""
"","html-keyboard-response","272","195091","0.0-314.0","3QRYMNZ7FZ3FFW69XNUQKFNT8Y2NTU","A1DKVUTOBPQH11","3FVBZG9CLJ0K37PD5L6161S4HTM0HN","","null","<img src=""img/food2.png"" style=""width:200px; border:14px solid green;"">","null","","","","","","","","","",""
"","image-keyboard-response","273","195376","0.0-316.0","3QRYMNZ7FZ3FFW69XNUQKFNT8Y2NTU","A1DKVUTOBPQH11","3FVBZG9CLJ0K37PD5L6161S4HTM0HN","","285","img/food2.png","75","285.69999999552965","2","1","2","2","1,0.5,0,1,0.5,0,0.5,0,1","0,1,0.5,0,1,0.5,1,0.5,0","3","false",""
"","html-keyboard-response","274","195678","0.0-317.0","3QRYMNZ7FZ3FFW69XNUQKFNT8Y2NTU","A1DKVUTOBPQH11","3FVBZG9CLJ0K37PD5L6161S4HTM0HN","","null","<img src=""img/food2.png"" style=""width:200px; border:14px solid green;"">","null","","","","","","","","","",""
"","image-keyboard-response","275","195929","0.0-319.0","3QRYMNZ7FZ3FFW69XNUQKFNT8Y2NTU","A1DKVUTOBPQH11","3FVBZG9CLJ0K37PD5L6161S4HTM0HN","","249.80000000447035","img/food4.png","75","250.39999999850988","2","0","3","2","1,0.5,0,1,0.5,0,0.5,0,1","0,1,0.5,0,1,0.5,1,0.5,0","3","false",""
"","html-keyboard-response","276","196231","0.0-320.0","3QRYMNZ7FZ3FFW69XNUQKFNT8Y2NTU","A1DKVUTOBPQH11","3FVBZG9CLJ0K37PD5L6161S4HTM0HN","","null","<img src=""img/food4.png"" style=""width:200px;border:14px solid red;"">","null","","","","","","","","","",""
"","image-keyboard-response","277","196468","0.0-322.0","3QRYMNZ7FZ3FFW69XNUQKFNT8Y2NTU","A1DKVUTOBPQH11","3FVBZG9CLJ0K37PD5L6161S4HTM0HN","","236.89999999850988","img/food4.png","76","237.39999999850988","3","0","3","2","1,0.5,0,1,0.5,0,0.5,0,1","0,1,0.5,0,1,0.5,1,0.5,0","3","false",""
"","html-keyboard-response","278","196770","0.0-323.0","3QRYMNZ7FZ3FFW69XNUQKFNT8Y2NTU","A1DKVUTOBPQH11","3FVBZG9CLJ0K37PD5L6161S4HTM0HN","","null","<img src=""img/food4.png"" style=""width:200px;border:14px solid red;"">","null","","","","","","","","","",""
"","image-keyboard-response","279","197105","0.0-325.0","3QRYMNZ7FZ3FFW69XNUQKFNT8Y2NTU","A1DKVUTOBPQH11","3FVBZG9CLJ0K37PD5L6161S4HTM0HN","","334.79999999701977","img/food4.png","76","335.40000000596046","3","0","3","2","1,0.5,0,1,0.5,0,0.5,0,1","0,1,0.5,0,1,0.5,1,0.5,0","3","false",""
"","html-keyboard-response","280","197406","0.0-326.0","3QRYMNZ7FZ3FFW69XNUQKFNT8Y2NTU","A1DKVUTOBPQH11","3FVBZG9CLJ0K37PD5L6161S4HTM0HN","","null","<img src=""img/food4.png"" style=""width:200px;border:14px solid red;"">","null","","","","","","","","","",""
"","image-keyboard-response","281","197555","0.0-328.0","3QRYMNZ7FZ3FFW69XNUQKFNT8Y2NTU","A1DKVUTOBPQH11","3FVBZG9CLJ0K37PD5L6161S4HTM0HN","","147.89999999850988","img/food6.png","74","148.59999999403954","1","0","1","2","1,0.5,0,1,0.5,0,0.5,0,1","0,1,0.5,0,1,0.5,1,0.5,0","3","false",""
"","html-keyboard-response","282","197857","0.0-329.0","3QRYMNZ7FZ3FFW69XNUQKFNT8Y2NTU","A1DKVUTOBPQH11","3FVBZG9CLJ0K37PD5L6161S4HTM0HN","","null","<img src=""img/food6.png"" style=""width:200px;border:14px solid red;"">","null","","","","","","","","","",""
"","image-keyboard-response","283","198132","0.0-331.0","3QRYMNZ7FZ3FFW69XNUQKFNT8Y2NTU","A1DKVUTOBPQH11","3FVBZG9CLJ0K37PD5L6161S4HTM0HN","","274.30000000447035","img/food6.png","75","275","2","1","1","2","1,0.5,0,1,0.5,0,0.5,0,1","0,1,0.5,0,1,0.5,1,0.5,0","3","false",""
"","html-keyboard-response","284","198433","0.0-332.0","3QRYMNZ7FZ3FFW69XNUQKFNT8Y2NTU","A1DKVUTOBPQH11","3FVBZG9CLJ0K37PD5L6161S4HTM0HN","","null","<img src=""img/food6.png"" style=""width:200px; border:14px solid green;"">","null","","","","","","","","","",""
"","image-keyboard-response","285","198701","0.0-334.0","3QRYMNZ7FZ3FFW69XNUQKFNT8Y2NTU","A1DKVUTOBPQH11","3FVBZG9CLJ0K37PD5L6161S4HTM0HN","","266.69999999552965","img/food6.png","75","267.20000000298023","2","1","1","2","1,0.5,0,1,0.5,0,0.5,0,1","0,1,0.5,0,1,0.5,1,0.5,0","3","false",""
"","html-keyboard-response","286","199002","0.0-335.0","3QRYMNZ7FZ3FFW69XNUQKFNT8Y2NTU","A1DKVUTOBPQH11","3FVBZG9CLJ0K37PD5L6161S4HTM0HN","","null","<img src=""img/food6.png"" style=""width:200px; border:14px solid green;"">","null","","","","","","","","","",""
"","image-keyboard-response","287","199281","0.0-337.0","3QRYMNZ7FZ3FFW69XNUQKFNT8Y2NTU","A1DKVUTOBPQH11","3FVBZG9CLJ0K37PD5L6161S4HTM0HN","","278.1000000014901","img/food2.png","75","278.6000000014901","2","1","2","2","1,0.5,0,1,0.5,0,0.5,0,1","0,1,0.5,0,1,0.5,1,0.5,0","3","false",""
"","html-keyboard-response","288","199583","0.0-338.0","3QRYMNZ7FZ3FFW69XNUQKFNT8Y2NTU","A1DKVUTOBPQH11","3FVBZG9CLJ0K37PD5L6161S4HTM0HN","","null","<img src=""img/food2.png"" style=""width:200px; border:14px solid green;"">","null","","","","","","","","","",""
"","image-keyboard-response","289","199959","0.0-340.0","3QRYMNZ7FZ3FFW69XNUQKFNT8Y2NTU","A1DKVUTOBPQH11","3FVBZG9CLJ0K37PD5L6161S4HTM0HN","","375.80000000447035","img/food6.png","75","376.20000000298023","2","1","1","2","1,0.5,0,1,0.5,0,0.5,0,1","0,1,0.5,0,1,0.5,1,0.5,0","3","false",""
"","html-keyboard-response","290","200261","0.0-341.0","3QRYMNZ7FZ3FFW69XNUQKFNT8Y2NTU","A1DKVUTOBPQH11","3FVBZG9CLJ0K37PD5L6161S4HTM0HN","","null","<img src=""img/food6.png"" style=""width:200px; border:14px solid green;"">","null","","","","","","","","","",""
"","image-keyboard-response","291","200701","0.0-343.0","3QRYMNZ7FZ3FFW69XNUQKFNT8Y2NTU","A1DKVUTOBPQH11","3FVBZG9CLJ0K37PD5L6161S4HTM0HN","","438.6000000014901","img/food4.png","74","439.5","1","1","3","2","1,0.5,0,1,0.5,0,0.5,0,1","0,1,0.5,0,1,0.5,1,0.5,0","3","false",""
"","html-keyboard-response","292","201001","0.0-344.0","3QRYMNZ7FZ3FFW69XNUQKFNT8Y2NTU","A1DKVUTOBPQH11","3FVBZG9CLJ0K37PD5L6161S4HTM0HN","","null","<img src=""img/food4.png"" style=""width:200px; border:14px solid green;"">","null","","","","","","","","","",""
"","image-keyboard-response","293","201292","0.0-346.0","3QRYMNZ7FZ3FFW69XNUQKFNT8Y2NTU","A1DKVUTOBPQH11","3FVBZG9CLJ0K37PD5L6161S4HTM0HN","","289.29999999701977","img/food4.png","74","290","1","1","3","2","1,0.5,0,1,0.5,0,0.5,0,1","0,1,0.5,0,1,0.5,1,0.5,0","3","false",""
"","html-keyboard-response","294","201593","0.0-347.0","3QRYMNZ7FZ3FFW69XNUQKFNT8Y2NTU","A1DKVUTOBPQH11","3FVBZG9CLJ0K37PD5L6161S4HTM0HN","","null","<img src=""img/food4.png"" style=""width:200px; border:14px solid green;"">","null","","","","","","","","","",""
"","image-keyboard-response","295","201876","0.0-349.0","3QRYMNZ7FZ3FFW69XNUQKFNT8Y2NTU","A1DKVUTOBPQH11","3FVBZG9CLJ0K37PD5L6161S4HTM0HN","","282.3999999985099","img/food4.png","74","283.09999999403954","1","1","3","2","1,0.5,0,1,0.5,0,0.5,0,1","0,1,0.5,0,1,0.5,1,0.5,0","3","false",""
"","html-keyboard-response","296","202178","0.0-350.0","3QRYMNZ7FZ3FFW69XNUQKFNT8Y2NTU","A1DKVUTOBPQH11","3FVBZG9CLJ0K37PD5L6161S4HTM0HN","","null","<img src=""img/food4.png"" style=""width:200px; border:14px solid green;"">","null","","","","","","","","","",""
"","image-keyboard-response","297","202650","0.0-352.0","3QRYMNZ7FZ3FFW69XNUQKFNT8Y2NTU","A1DKVUTOBPQH11","3FVBZG9CLJ0K37PD5L6161S4HTM0HN","","471.70000000298023","img/food2.png","75","472.3999999985099","2","1","2","2","1,0.5,0,1,0.5,0,0.5,0,1","0,1,0.5,0,1,0.5,1,0.5,0","3","false",""
"","html-keyboard-response","298","202952","0.0-353.0","3QRYMNZ7FZ3FFW69XNUQKFNT8Y2NTU","A1DKVUTOBPQH11","3FVBZG9CLJ0K37PD5L6161S4HTM0HN","","null","<img src=""img/food2.png"" style=""width:200px; border:14px solid green;"">","null","","","","","","","","","",""
"","image-keyboard-response","299","203411","0.0-355.0","3QRYMNZ7FZ3FFW69XNUQKFNT8Y2NTU","A1DKVUTOBPQH11","3FVBZG9CLJ0K37PD5L6161S4HTM0HN","","458","img/food6.png","75","458.70000000298023","2","1","1","2","1,0.5,0,1,0.5,0,0.5,0,1","0,1,0.5,0,1,0.5,1,0.5,0","3","false",""
"","html-keyboard-response","300","203713","0.0-356.0","3QRYMNZ7FZ3FFW69XNUQKFNT8Y2NTU","A1DKVUTOBPQH11","3FVBZG9CLJ0K37PD5L6161S4HTM0HN","","null","<img src=""img/food6.png"" style=""width:200px; border:14px solid green;"">","null","","","","","","","","","",""
"","image-keyboard-response","301","204067","0.0-358.0","3QRYMNZ7FZ3FFW69XNUQKFNT8Y2NTU","A1DKVUTOBPQH11","3FVBZG9CLJ0K37PD5L6161S4HTM0HN","","353.8999999985099","img/food6.png","75","354.3999999985099","2","1","1","2","1,0.5,0,1,0.5,0,0.5,0,1","0,1,0.5,0,1,0.5,1,0.5,0","3","false",""
"","html-keyboard-response","302","204369","0.0-359.0","3QRYMNZ7FZ3FFW69XNUQKFNT8Y2NTU","A1DKVUTOBPQH11","3FVBZG9CLJ0K37PD5L6161S4HTM0HN","","null","<img src=""img/food6.png"" style=""width:200px; border:14px solid green;"">","null","","","","","","","","","",""
"","image-keyboard-response","303","204652","0.0-361.0","3QRYMNZ7FZ3FFW69XNUQKFNT8Y2NTU","A1DKVUTOBPQH11","3FVBZG9CLJ0K37PD5L6161S4HTM0HN","","282.5","img/food6.png","75","283","2","1","1","2","1,0.5,0,1,0.5,0,0.5,0,1","0,1,0.5,0,1,0.5,1,0.5,0","3","false",""
"","html-keyboard-response","304","204954","0.0-362.0","3QRYMNZ7FZ3FFW69XNUQKFNT8Y2NTU","A1DKVUTOBPQH11","3FVBZG9CLJ0K37PD5L6161S4HTM0HN","","null","<img src=""img/food6.png"" style=""width:200px; border:14px solid green;"">","null","","","","","","","","","",""
"","image-keyboard-response","305","205493","0.0-364.0","3QRYMNZ7FZ3FFW69XNUQKFNT8Y2NTU","A1DKVUTOBPQH11","3FVBZG9CLJ0K37PD5L6161S4HTM0HN","","537.9000000059605","img/food2.png","74","538.7000000029802","1","0","2","2","1,0.5,0,1,0.5,0,0.5,0,1","0,1,0.5,0,1,0.5,1,0.5,0","3","false",""
"","html-keyboard-response","306","205794","0.0-365.0","3QRYMNZ7FZ3FFW69XNUQKFNT8Y2NTU","A1DKVUTOBPQH11","3FVBZG9CLJ0K37PD5L6161S4HTM0HN","","null","<img src=""img/food2.png"" style=""width:200px;border:14px solid red;"">","null","","","","","","","","","",""
"","image-keyboard-response","307","206250","0.0-367.0","3QRYMNZ7FZ3FFW69XNUQKFNT8Y2NTU","A1DKVUTOBPQH11","3FVBZG9CLJ0K37PD5L6161S4HTM0HN","","455.6000000014901","img/food4.png","75","456.19999999552965","2","0","3","2","1,0.5,0,1,0.5,0,0.5,0,1","0,1,0.5,0,1,0.5,1,0.5,0","3","false",""
"","html-keyboard-response","308","206552","0.0-368.0","3QRYMNZ7FZ3FFW69XNUQKFNT8Y2NTU","A1DKVUTOBPQH11","3FVBZG9CLJ0K37PD5L6161S4HTM0HN","","null","<img src=""img/food4.png"" style=""width:200px;border:14px solid red;"">","null","","","","","","","","","",""
"","image-keyboard-response","309","206808","0.0-370.0","3QRYMNZ7FZ3FFW69XNUQKFNT8Y2NTU","A1DKVUTOBPQH11","3FVBZG9CLJ0K37PD5L6161S4HTM0HN","","255.09999999403954","img/food2.png","74","255.70000000298023","1","0","2","2","1,0.5,0,1,0.5,0,0.5,0,1","0,1,0.5,0,1,0.5,1,0.5,0","3","false",""
"","html-keyboard-response","310","207110","0.0-371.0","3QRYMNZ7FZ3FFW69XNUQKFNT8Y2NTU","A1DKVUTOBPQH11","3FVBZG9CLJ0K37PD5L6161S4HTM0HN","","null","<img src=""img/food2.png"" style=""width:200px;border:14px solid red;"">","null","","","","","","","","","",""
"","image-keyboard-response","311","207488","0.0-373.0","3QRYMNZ7FZ3FFW69XNUQKFNT8Y2NTU","A1DKVUTOBPQH11","3FVBZG9CLJ0K37PD5L6161S4HTM0HN","","377","img/food2.png","75","377.79999999701977","2","1","2","2","1,0.5,0,1,0.5,0,0.5,0,1","0,1,0.5,0,1,0.5,1,0.5,0","3","false",""
"","html-keyboard-response","312","207789","0.0-374.0","3QRYMNZ7FZ3FFW69XNUQKFNT8Y2NTU","A1DKVUTOBPQH11","3FVBZG9CLJ0K37PD5L6161S4HTM0HN","","null","<img src=""img/food2.png"" style=""width:200px; border:14px solid green;"">","null","","","","","","","","","",""
"","image-keyboard-response","313","208039","0.0-376.0","3QRYMNZ7FZ3FFW69XNUQKFNT8Y2NTU","A1DKVUTOBPQH11","3FVBZG9CLJ0K37PD5L6161S4HTM0HN","","249.10000000149012","img/food6.png","75","249.69999999552965","2","1","1","2","1,0.5,0,1,0.5,0,0.5,0,1","0,1,0.5,0,1,0.5,1,0.5,0","3","false",""
"","html-keyboard-response","314","208341","0.0-377.0","3QRYMNZ7FZ3FFW69XNUQKFNT8Y2NTU","A1DKVUTOBPQH11","3FVBZG9CLJ0K37PD5L6161S4HTM0HN","","null","<img src=""img/food6.png"" style=""width:200px; border:14px solid green;"">","null","","","","","","","","","",""
"","image-keyboard-response","315","208725","0.0-379.0","3QRYMNZ7FZ3FFW69XNUQKFNT8Y2NTU","A1DKVUTOBPQH11","3FVBZG9CLJ0K37PD5L6161S4HTM0HN","","383.6000000014901","img/food2.png","75","384.19999999552965","2","1","2","2","1,0.5,0,1,0.5,0,0.5,0,1","0,1,0.5,0,1,0.5,1,0.5,0","3","false",""
"","html-keyboard-response","316","209027","0.0-380.0","3QRYMNZ7FZ3FFW69XNUQKFNT8Y2NTU","A1DKVUTOBPQH11","3FVBZG9CLJ0K37PD5L6161S4HTM0HN","","null","<img src=""img/food2.png"" style=""width:200px; border:14px solid green;"">","null","","","","","","","","","",""
"","image-keyboard-response","317","209403","0.0-382.0","3QRYMNZ7FZ3FFW69XNUQKFNT8Y2NTU","A1DKVUTOBPQH11","3FVBZG9CLJ0K37PD5L6161S4HTM0HN","","375","img/food6.png","75","375.6000000014901","2","1","1","2","1,0.5,0,1,0.5,0,0.5,0,1","0,1,0.5,0,1,0.5,1,0.5,0","3","false",""
"","html-keyboard-response","318","209705","0.0-383.0","3QRYMNZ7FZ3FFW69XNUQKFNT8Y2NTU","A1DKVUTOBPQH11","3FVBZG9CLJ0K37PD5L6161S4HTM0HN","","null","<img src=""img/food6.png"" style=""width:200px; border:14px solid green;"">","null","","","","","","","","","",""
"","image-keyboard-response","319","210046","0.0-385.0","3QRYMNZ7FZ3FFW69XNUQKFNT8Y2NTU","A1DKVUTOBPQH11","3FVBZG9CLJ0K37PD5L6161S4HTM0HN","","340.5","img/food6.png","75","341.19999999552965","2","1","1","2","1,0.5,0,1,0.5,0,0.5,0,1","0,1,0.5,0,1,0.5,1,0.5,0","3","false",""
"","html-keyboard-response","320","210348","0.0-386.0","3QRYMNZ7FZ3FFW69XNUQKFNT8Y2NTU","A1DKVUTOBPQH11","3FVBZG9CLJ0K37PD5L6161S4HTM0HN","","null","<img src=""img/food6.png"" style=""width:200px; border:14px solid green;"">","null","","","","","","","","","",""
"","image-keyboard-response","321","210710","0.0-388.0","3QRYMNZ7FZ3FFW69XNUQKFNT8Y2NTU","A1DKVUTOBPQH11","3FVBZG9CLJ0K37PD5L6161S4HTM0HN","","361.5","img/food6.png","75","362.29999999701977","2","1","1","2","1,0.5,0,1,0.5,0,0.5,0,1","0,1,0.5,0,1,0.5,1,0.5,0","3","false",""
"","html-keyboard-response","322","211012","0.0-389.0","3QRYMNZ7FZ3FFW69XNUQKFNT8Y2NTU","A1DKVUTOBPQH11","3FVBZG9CLJ0K37PD5L6161S4HTM0HN","","null","<img src=""img/food6.png"" style=""width:200px; border:14px solid green;"">","null","","","","","","","","","",""
"","image-keyboard-response","323","211324","0.0-391.0","3QRYMNZ7FZ3FFW69XNUQKFNT8Y2NTU","A1DKVUTOBPQH11","3FVBZG9CLJ0K37PD5L6161S4HTM0HN","","311.3999999985099","img/food6.png","75","312","2","1","1","2","1,0.5,0,1,0.5,0,0.5,0,1","0,1,0.5,0,1,0.5,1,0.5,0","3","false",""
"","html-keyboard-response","324","211626","0.0-392.0","3QRYMNZ7FZ3FFW69XNUQKFNT8Y2NTU","A1DKVUTOBPQH11","3FVBZG9CLJ0K37PD5L6161S4HTM0HN","","null","<img src=""img/food6.png"" style=""width:200px; border:14px solid green;"">","null","","","","","","","","","",""
"","image-keyboard-response","325","211909","0.0-394.0","3QRYMNZ7FZ3FFW69XNUQKFNT8Y2NTU","A1DKVUTOBPQH11","3FVBZG9CLJ0K37PD5L6161S4HTM0HN","","282.19999999552965","img/food6.png","75","282.8999999985099","2","1","1","2","1,0.5,0,1,0.5,0,0.5,0,1","0,1,0.5,0,1,0.5,1,0.5,0","3","false",""
"","html-keyboard-response","326","212212","0.0-395.0","3QRYMNZ7FZ3FFW69XNUQKFNT8Y2NTU","A1DKVUTOBPQH11","3FVBZG9CLJ0K37PD5L6161S4HTM0HN","","null","<img src=""img/food6.png"" style=""width:200px; border:14px solid green;"">","null","","","","","","","","","",""
"","image-keyboard-response","327","212741","0.0-397.0","3QRYMNZ7FZ3FFW69XNUQKFNT8Y2NTU","A1DKVUTOBPQH11","3FVBZG9CLJ0K37PD5L6161S4HTM0HN","","528.4000000059605","img/food4.png","74","528.8999999985099","1","1","3","2","1,0.5,0,1,0.5,0,0.5,0,1","0,1,0.5,0,1,0.5,1,0.5,0","3","false",""
"","html-keyboard-response","328","213043","0.0-398.0","3QRYMNZ7FZ3FFW69XNUQKFNT8Y2NTU","A1DKVUTOBPQH11","3FVBZG9CLJ0K37PD5L6161S4HTM0HN","","null","<img src=""img/food4.png"" style=""width:200px; border:14px solid green;"">","null","","","","","","","","","",""
"","image-keyboard-response","329","213708","0.0-400.0","3QRYMNZ7FZ3FFW69XNUQKFNT8Y2NTU","A1DKVUTOBPQH11","3FVBZG9CLJ0K37PD5L6161S4HTM0HN","","664.6999999955297","img/food6.png","75","665.3000000044703","2","1","1","2","1,0.5,0,1,0.5,0,0.5,0,1","0,1,0.5,0,1,0.5,1,0.5,0","3","false",""
"","html-keyboard-response","330","214010","0.0-401.0","3QRYMNZ7FZ3FFW69XNUQKFNT8Y2NTU","A1DKVUTOBPQH11","3FVBZG9CLJ0K37PD5L6161S4HTM0HN","","null","<img src=""img/food6.png"" style=""width:200px; border:14px solid green;"">","null","","","","","","","","","",""
"","image-keyboard-response","331","214605","0.0-403.0","3QRYMNZ7FZ3FFW69XNUQKFNT8Y2NTU","A1DKVUTOBPQH11","3FVBZG9CLJ0K37PD5L6161S4HTM0HN","","594.1999999955297","img/food4.png","74","594.8999999985099","1","1","3","2","1,0.5,0,1,0.5,0,0.5,0,1","0,1,0.5,0,1,0.5,1,0.5,0","3","false",""
"","html-keyboard-response","332","214907","0.0-404.0","3QRYMNZ7FZ3FFW69XNUQKFNT8Y2NTU","A1DKVUTOBPQH11","3FVBZG9CLJ0K37PD5L6161S4HTM0HN","","null","<img src=""img/food4.png"" style=""width:200px; border:14px solid green;"">","null","","","","","","","","","",""
"","image-keyboard-response","333","215357","0.0-406.0","3QRYMNZ7FZ3FFW69XNUQKFNT8Y2NTU","A1DKVUTOBPQH11","3FVBZG9CLJ0K37PD5L6161S4HTM0HN","","449.90000000596046","img/food6.png","75","450.3999999985099","2","1","1","2","1,0.5,0,1,0.5,0,0.5,0,1","0,1,0.5,0,1,0.5,1,0.5,0","3","false",""
"","html-keyboard-response","334","215659","0.0-407.0","3QRYMNZ7FZ3FFW69XNUQKFNT8Y2NTU","A1DKVUTOBPQH11","3FVBZG9CLJ0K37PD5L6161S4HTM0HN","","null","<img src=""img/food6.png"" style=""width:200px; border:14px solid green;"">","null","","","","","","","","","",""
"","image-keyboard-response","335","216228","0.0-409.0","3QRYMNZ7FZ3FFW69XNUQKFNT8Y2NTU","A1DKVUTOBPQH11","3FVBZG9CLJ0K37PD5L6161S4HTM0HN","","568.2999999970198","img/food4.png","74","568.8000000044703","1","1","3","2","1,0.5,0,1,0.5,0,0.5,0,1","0,1,0.5,0,1,0.5,1,0.5,0","3","false",""
"","html-keyboard-response","336","216530","0.0-410.0","3QRYMNZ7FZ3FFW69XNUQKFNT8Y2NTU","A1DKVUTOBPQH11","3FVBZG9CLJ0K37PD5L6161S4HTM0HN","","null","<img src=""img/food4.png"" style=""width:200px; border:14px solid green;"">","null","","","","","","","","","",""
"","image-keyboard-response","337","216855","0.0-412.0","3QRYMNZ7FZ3FFW69XNUQKFNT8Y2NTU","A1DKVUTOBPQH11","3FVBZG9CLJ0K37PD5L6161S4HTM0HN","","324.6000000014901","img/food2.png","75","325.3999999985099","2","1","2","2","1,0.5,0,1,0.5,0,0.5,0,1","0,1,0.5,0,1,0.5,1,0.5,0","3","false",""
"","html-keyboard-response","338","217157","0.0-413.0","3QRYMNZ7FZ3FFW69XNUQKFNT8Y2NTU","A1DKVUTOBPQH11","3FVBZG9CLJ0K37PD5L6161S4HTM0HN","","null","<img src=""img/food2.png"" style=""width:200px; border:14px solid green;"">","null","","","","","","","","","",""
"","image-keyboard-response","339","217405","0.0-415.0","3QRYMNZ7FZ3FFW69XNUQKFNT8Y2NTU","A1DKVUTOBPQH11","3FVBZG9CLJ0K37PD5L6161S4HTM0HN","","247","img/food2.png","75","247.59999999403954","2","1","2","2","1,0.5,0,1,0.5,0,0.5,0,1","0,1,0.5,0,1,0.5,1,0.5,0","3","false",""
"","html-keyboard-response","340","217707","0.0-416.0","3QRYMNZ7FZ3FFW69XNUQKFNT8Y2NTU","A1DKVUTOBPQH11","3FVBZG9CLJ0K37PD5L6161S4HTM0HN","","null","<img src=""img/food2.png"" style=""width:200px; border:14px solid green;"">","null","","","","","","","","","",""
"","image-keyboard-response","341","218126","0.0-418.0","3QRYMNZ7FZ3FFW69XNUQKFNT8Y2NTU","A1DKVUTOBPQH11","3FVBZG9CLJ0K37PD5L6161S4HTM0HN","","418.3999999985099","img/food6.png","75","418.8999999985099","2","1","1","2","1,0.5,0,1,0.5,0,0.5,0,1","0,1,0.5,0,1,0.5,1,0.5,0","3","false",""
"","html-keyboard-response","342","218427","0.0-419.0","3QRYMNZ7FZ3FFW69XNUQKFNT8Y2NTU","A1DKVUTOBPQH11","3FVBZG9CLJ0K37PD5L6161S4HTM0HN","","null","<img src=""img/food6.png"" style=""width:200px; border:14px solid green;"">","null","","","","","","","","","",""
"","image-keyboard-response","343","218724","0.0-421.0","3QRYMNZ7FZ3FFW69XNUQKFNT8Y2NTU","A1DKVUTOBPQH11","3FVBZG9CLJ0K37PD5L6161S4HTM0HN","","295.5","img/food4.png","75","296.20000000298023","2","1","3","2","1,0.5,0,1,0.5,0,0.5,0,1","0,1,0.5,0,1,0.5,1,0.5,0","3","false",""
"","html-keyboard-response","344","219025","0.0-422.0","3QRYMNZ7FZ3FFW69XNUQKFNT8Y2NTU","A1DKVUTOBPQH11","3FVBZG9CLJ0K37PD5L6161S4HTM0HN","","null","<img src=""img/food4.png"" style=""width:200px; border:14px solid green;"">","null","","","","","","","","","",""
"","image-keyboard-response","345","219381","0.0-424.0","3QRYMNZ7FZ3FFW69XNUQKFNT8Y2NTU","A1DKVUTOBPQH11","3FVBZG9CLJ0K37PD5L6161S4HTM0HN","","355.3999999985099","img/food4.png","75","356.1000000014901","2","0","3","2","1,0.5,0,1,0.5,0,0.5,0,1","0,1,0.5,0,1,0.5,1,0.5,0","3","false",""
"","html-keyboard-response","346","219684","0.0-425.0","3QRYMNZ7FZ3FFW69XNUQKFNT8Y2NTU","A1DKVUTOBPQH11","3FVBZG9CLJ0K37PD5L6161S4HTM0HN","","null","<img src=""img/food4.png"" style=""width:200px;border:14px solid red;"">","null","","","","","","","","","",""
"","image-keyboard-response","347","220343","0.0-427.0","3QRYMNZ7FZ3FFW69XNUQKFNT8Y2NTU","A1DKVUTOBPQH11","3FVBZG9CLJ0K37PD5L6161S4HTM0HN","","659.1000000014901","img/food2.png","74","659.6999999955297","1","0","2","2","1,0.5,0,1,0.5,0,0.5,0,1","0,1,0.5,0,1,0.5,1,0.5,0","3","false",""
"","html-keyboard-response","348","220645","0.0-428.0","3QRYMNZ7FZ3FFW69XNUQKFNT8Y2NTU","A1DKVUTOBPQH11","3FVBZG9CLJ0K37PD5L6161S4HTM0HN","","null","<img src=""img/food2.png"" style=""width:200px;border:14px solid red;"">","null","","","","","","","","","",""
"","image-keyboard-response","349","220974","0.0-430.0","3QRYMNZ7FZ3FFW69XNUQKFNT8Y2NTU","A1DKVUTOBPQH11","3FVBZG9CLJ0K37PD5L6161S4HTM0HN","","327.8999999985099","img/food2.png","75","328.6000000014901","2","1","2","2","1,0.5,0,1,0.5,0,0.5,0,1","0,1,0.5,0,1,0.5,1,0.5,0","3","false",""
"","html-keyboard-response","350","221275","0.0-431.0","3QRYMNZ7FZ3FFW69XNUQKFNT8Y2NTU","A1DKVUTOBPQH11","3FVBZG9CLJ0K37PD5L6161S4HTM0HN","","null","<img src=""img/food2.png"" style=""width:200px; border:14px solid green;"">","null","","","","","","","","","",""
"","image-keyboard-response","351","221840","0.0-433.0","3QRYMNZ7FZ3FFW69XNUQKFNT8Y2NTU","A1DKVUTOBPQH11","3FVBZG9CLJ0K37PD5L6161S4HTM0HN","","564.6000000014901","img/food6.png","75","565.1000000014901","2","1","1","2","1,0.5,0,1,0.5,0,0.5,0,1","0,1,0.5,0,1,0.5,1,0.5,0","3","false",""
"","html-keyboard-response","352","222141","0.0-434.0","3QRYMNZ7FZ3FFW69XNUQKFNT8Y2NTU","A1DKVUTOBPQH11","3FVBZG9CLJ0K37PD5L6161S4HTM0HN","","null","<img src=""img/food6.png"" style=""width:200px; border:14px solid green;"">","null","","","","","","","","","",""
"","image-keyboard-response","353","222602","0.0-436.0","3QRYMNZ7FZ3FFW69XNUQKFNT8Y2NTU","A1DKVUTOBPQH11","3FVBZG9CLJ0K37PD5L6161S4HTM0HN","","459.30000000447035","img/food2.png","75","460","2","1","2","2","1,0.5,0,1,0.5,0,0.5,0,1","0,1,0.5,0,1,0.5,1,0.5,0","3","false",""
"","html-keyboard-response","354","222903","0.0-437.0","3QRYMNZ7FZ3FFW69XNUQKFNT8Y2NTU","A1DKVUTOBPQH11","3FVBZG9CLJ0K37PD5L6161S4HTM0HN","","null","<img src=""img/food2.png"" style=""width:200px; border:14px solid green;"">","null","","","","","","","","","",""
"","image-keyboard-response","355","223257","0.0-439.0","3QRYMNZ7FZ3FFW69XNUQKFNT8Y2NTU","A1DKVUTOBPQH11","3FVBZG9CLJ0K37PD5L6161S4HTM0HN","","353.29999999701977","img/food2.png","75","353.8999999985099","2","1","2","2","1,0.5,0,1,0.5,0,0.5,0,1","0,1,0.5,0,1,0.5,1,0.5,0","3","false",""
"","html-keyboard-response","356","223559","0.0-440.0","3QRYMNZ7FZ3FFW69XNUQKFNT8Y2NTU","A1DKVUTOBPQH11","3FVBZG9CLJ0K37PD5L6161S4HTM0HN","","null","<img src=""img/food2.png"" style=""width:200px; border:14px solid green;"">","null","","","","","","","","","",""
"","image-keyboard-response","357","223896","0.0-442.0","3QRYMNZ7FZ3FFW69XNUQKFNT8Y2NTU","A1DKVUTOBPQH11","3FVBZG9CLJ0K37PD5L6161S4HTM0HN","","336.5","img/food2.png","75","337.1000000014901","2","1","2","2","1,0.5,0,1,0.5,0,0.5,0,1","0,1,0.5,0,1,0.5,1,0.5,0","3","false",""
"","html-keyboard-response","358","224197","0.0-443.0","3QRYMNZ7FZ3FFW69XNUQKFNT8Y2NTU","A1DKVUTOBPQH11","3FVBZG9CLJ0K37PD5L6161S4HTM0HN","","null","<img src=""img/food2.png"" style=""width:200px; border:14px solid green;"">","null","","","","","","","","","",""
"","image-keyboard-response","359","224604","0.0-445.0","3QRYMNZ7FZ3FFW69XNUQKFNT8Y2NTU","A1DKVUTOBPQH11","3FVBZG9CLJ0K37PD5L6161S4HTM0HN","","405.59999999403954","img/food2.png","75","406.30000000447035","2","1","2","2","1,0.5,0,1,0.5,0,0.5,0,1","0,1,0.5,0,1,0.5,1,0.5,0","3","false",""
"","html-keyboard-response","360","224904","0.0-446.0","3QRYMNZ7FZ3FFW69XNUQKFNT8Y2NTU","A1DKVUTOBPQH11","3FVBZG9CLJ0K37PD5L6161S4HTM0HN","","null","<img src=""img/food2.png"" style=""width:200px; border:14px solid green;"">","null","","","","","","","","","",""
"","image-keyboard-response","361","225579","0.0-448.0","3QRYMNZ7FZ3FFW69XNUQKFNT8Y2NTU","A1DKVUTOBPQH11","3FVBZG9CLJ0K37PD5L6161S4HTM0HN","","674","img/food4.png","74","674.5","1","1","3","2","1,0.5,0,1,0.5,0,0.5,0,1","0,1,0.5,0,1,0.5,1,0.5,0","3","false",""
"","html-keyboard-response","362","225881","0.0-449.0","3QRYMNZ7FZ3FFW69XNUQKFNT8Y2NTU","A1DKVUTOBPQH11","3FVBZG9CLJ0K37PD5L6161S4HTM0HN","","null","<img src=""img/food4.png"" style=""width:200px; border:14px solid green;"">","null","","","","","","","","","",""
"","image-keyboard-response","363","226352","0.0-451.0","3QRYMNZ7FZ3FFW69XNUQKFNT8Y2NTU","A1DKVUTOBPQH11","3FVBZG9CLJ0K37PD5L6161S4HTM0HN","","470.40000000596046","img/food2.png","75","471.20000000298023","2","1","2","2","1,0.5,0,1,0.5,0,0.5,0,1","0,1,0.5,0,1,0.5,1,0.5,0","3","false",""
"","html-keyboard-response","364","226653","0.0-452.0","3QRYMNZ7FZ3FFW69XNUQKFNT8Y2NTU","A1DKVUTOBPQH11","3FVBZG9CLJ0K37PD5L6161S4HTM0HN","","null","<img src=""img/food2.png"" style=""width:200px; border:14px solid green;"">","null","","","","","","","","","",""
"","instructions","365","229932","0.0-454.0","3QRYMNZ7FZ3FFW69XNUQKFNT8Y2NTU","A1DKVUTOBPQH11","3FVBZG9CLJ0K37PD5L6161S4HTM0HN","[{""page_index"":0,""viewing_time"":3277.4000000059605}]","3277.7000000029802","","","","","","","","","","","",""
"","survey-text","366","234166","0.0-455.0","3QRYMNZ7FZ3FFW69XNUQKFNT8Y2NTU","A1DKVUTOBPQH11","3FVBZG9CLJ0K37PD5L6161S4HTM0HN","","4232.39999999851","","","","","","","","","","","","{""Q0"":""A1DKVUTOBPQH11""}"
