"success","trial_type","trial_index","time_elapsed","internal_node_id","assignmentID","mturkID","hitID","view_history","rt","stimulus","key_press","reactionTime","a","r","s","cond","reward_cond","reward_cond_actual","reward_matrix_idx","warning","responses"
"true","fullscreen","0","3320","0.0-0.0","3A7Y0R2P2PAQDNO8NZ3VGBRIC9IJX0","A1E3N1Y6XG1898","3I7KR83SNAZT1REYB2SRC49PCEEK9H","","","","","","","","","","","","","",""
"","instructions","1","48384","0.0-1.0","3A7Y0R2P2PAQDNO8NZ3VGBRIC9IJX0","A1E3N1Y6XG1898","3I7KR83SNAZT1REYB2SRC49PCEEK9H","[{""page_index"":0,""viewing_time"":6983.29999999702},{""page_index"":1,""viewing_time"":3305.5},{""page_index"":2,""viewing_time"":7684.70000000298},{""page_index"":3,""viewing_time"":13948.90000000596},{""page_index"":4,""viewing_time"":4019.2000000029802},{""page_index"":5,""viewing_time"":5791},{""page_index"":6,""viewing_time"":3330.2999999970198}]","45063.20000000298","","","","","","","","","","","",""
"","image-keyboard-response","2","51921","0.0-2.0","3A7Y0R2P2PAQDNO8NZ3VGBRIC9IJX0","A1E3N1Y6XG1898","3I7KR83SNAZT1REYB2SRC49PCEEK9H","","3535.2999999970198","img/food2.png","74","3536.5999999940395","1","1","2","1","1,0.5,0,1,0.5,0,0.5,0,1","1,0.5,0,1,0.5,0,0.5,0,1","1","",""
"","html-keyboard-response","3","52226","0.0-3.0","3A7Y0R2P2PAQDNO8NZ3VGBRIC9IJX0","A1E3N1Y6XG1898","3I7KR83SNAZT1REYB2SRC49PCEEK9H","","null","<img src=""img/food2.png"" style=""width:200px; border:14px solid green;"">","null","","","","","","","","","",""
"","image-keyboard-response","4","53819","0.0-4.0","3A7Y0R2P2PAQDNO8NZ3VGBRIC9IJX0","A1E3N1Y6XG1898","3I7KR83SNAZT1REYB2SRC49PCEEK9H","","1591.7999999970198","img/food6.png","75","1592.7000000029802","2","0","3","1","1,0.5,0,1,0.5,0,0.5,0,1","1,0.5,0,1,0.5,0,0.5,0,1","1","",""
"","html-keyboard-response","5","54121","0.0-5.0","3A7Y0R2P2PAQDNO8NZ3VGBRIC9IJX0","A1E3N1Y6XG1898","3I7KR83SNAZT1REYB2SRC49PCEEK9H","","null","<img src=""img/food6.png"" style=""width:200px;border:14px solid red;"">","null","","","","","","","","","",""
"","image-keyboard-response","6","54996","0.0-6.0","3A7Y0R2P2PAQDNO8NZ3VGBRIC9IJX0","A1E3N1Y6XG1898","3I7KR83SNAZT1REYB2SRC49PCEEK9H","","873.6999999880791","img/food4.png","76","874.4000000059605","3","0","1","1","1,0.5,0,1,0.5,0,0.5,0,1","1,0.5,0,1,0.5,0,0.5,0,1","1","",""
"","html-keyboard-response","7","55298","0.0-7.0","3A7Y0R2P2PAQDNO8NZ3VGBRIC9IJX0","A1E3N1Y6XG1898","3I7KR83SNAZT1REYB2SRC49PCEEK9H","","null","<img src=""img/food4.png"" style=""width:200px;border:14px solid red;"">","null","","","","","","","","","",""
"","image-keyboard-response","8","56665","0.0-8.0","3A7Y0R2P2PAQDNO8NZ3VGBRIC9IJX0","A1E3N1Y6XG1898","3I7KR83SNAZT1REYB2SRC49PCEEK9H","","1365.800000011921","img/food2.png","75","1366.5","2","0","2","1","1,0.5,0,1,0.5,0,0.5,0,1","1,0.5,0,1,0.5,0,0.5,0,1","1","",""
"","html-keyboard-response","9","56967","0.0-9.0","3A7Y0R2P2PAQDNO8NZ3VGBRIC9IJX0","A1E3N1Y6XG1898","3I7KR83SNAZT1REYB2SRC49PCEEK9H","","null","<img src=""img/food2.png"" style=""width:200px;border:14px solid red;"">","null","","","","","","","","","",""
"","image-keyboard-response","10","57886","0.0-10.0","3A7Y0R2P2PAQDNO8NZ3VGBRIC9IJX0","A1E3N1Y6XG1898","3I7KR83SNAZT1REYB2SRC49PCEEK9H","","917.3000000119209","img/food4.png","76","918.2999999970198","3","0","1","1","1,0.5,0,1,0.5,0,0.5,0,1","1,0.5,0,1,0.5,0,0.5,0,1","1","",""
"","html-keyboard-response","11","58188","0.0-11.0","3A7Y0R2P2PAQDNO8NZ3VGBRIC9IJX0","A1E3N1Y6XG1898","3I7KR83SNAZT1REYB2SRC49PCEEK9H","","null","<img src=""img/food4.png"" style=""width:200px;border:14px solid red;"">","null","","","","","","","","","",""
"","image-keyboard-response","12","59395","0.0-12.0","3A7Y0R2P2PAQDNO8NZ3VGBRIC9IJX0","A1E3N1Y6XG1898","3I7KR83SNAZT1REYB2SRC49PCEEK9H","","1206","img/food2.png","74","1206.800000011921","1","1","2","1","1,0.5,0,1,0.5,0,0.5,0,1","1,0.5,0,1,0.5,0,0.5,0,1","1","",""
"","html-keyboard-response","13","59696","0.0-13.0","3A7Y0R2P2PAQDNO8NZ3VGBRIC9IJX0","A1E3N1Y6XG1898","3I7KR83SNAZT1REYB2SRC49PCEEK9H","","null","<img src=""img/food2.png"" style=""width:200px; border:14px solid green;"">","null","","","","","","","","","",""
"","image-keyboard-response","14","61128","0.0-14.0","3A7Y0R2P2PAQDNO8NZ3VGBRIC9IJX0","A1E3N1Y6XG1898","3I7KR83SNAZT1REYB2SRC49PCEEK9H","","1430.2000000029802","img/food4.png","75","1431.0999999940395","2","0","1","1","1,0.5,0,1,0.5,0,0.5,0,1","1,0.5,0,1,0.5,0,0.5,0,1","1","",""
"","html-keyboard-response","15","61430","0.0-15.0","3A7Y0R2P2PAQDNO8NZ3VGBRIC9IJX0","A1E3N1Y6XG1898","3I7KR83SNAZT1REYB2SRC49PCEEK9H","","null","<img src=""img/food4.png"" style=""width:200px;border:14px solid red;"">","null","","","","","","","","","",""
"","image-keyboard-response","16","63498","0.0-16.0","3A7Y0R2P2PAQDNO8NZ3VGBRIC9IJX0","A1E3N1Y6XG1898","3I7KR83SNAZT1REYB2SRC49PCEEK9H","","2066.7000000029802","img/food6.png","76","2067.5999999940395","3","1","3","1","1,0.5,0,1,0.5,0,0.5,0,1","1,0.5,0,1,0.5,0,0.5,0,1","1","",""
"","html-keyboard-response","17","63804","0.0-17.0","3A7Y0R2P2PAQDNO8NZ3VGBRIC9IJX0","A1E3N1Y6XG1898","3I7KR83SNAZT1REYB2SRC49PCEEK9H","","null","<img src=""img/food6.png"" style=""width:200px; border:14px solid green;"">","null","","","","","","","","","",""
"","image-keyboard-response","18","66115","0.0-18.0","3A7Y0R2P2PAQDNO8NZ3VGBRIC9IJX0","A1E3N1Y6XG1898","3I7KR83SNAZT1REYB2SRC49PCEEK9H","","2309.7000000029802","img/food2.png","75","2310.5999999940395","2","0","2","1","1,0.5,0,1,0.5,0,0.5,0,1","1,0.5,0,1,0.5,0,0.5,0,1","1","",""
"","html-keyboard-response","19","66418","0.0-19.0","3A7Y0R2P2PAQDNO8NZ3VGBRIC9IJX0","A1E3N1Y6XG1898","3I7KR83SNAZT1REYB2SRC49PCEEK9H","","null","<img src=""img/food2.png"" style=""width:200px;border:14px solid red;"">","null","","","","","","","","","",""
"","image-keyboard-response","20","67153","0.0-20.0","3A7Y0R2P2PAQDNO8NZ3VGBRIC9IJX0","A1E3N1Y6XG1898","3I7KR83SNAZT1REYB2SRC49PCEEK9H","","733.5999999940395","img/food6.png","76","734.5","3","1","3","1","1,0.5,0,1,0.5,0,0.5,0,1","1,0.5,0,1,0.5,0,0.5,0,1","1","",""
"","html-keyboard-response","21","67456","0.0-21.0","3A7Y0R2P2PAQDNO8NZ3VGBRIC9IJX0","A1E3N1Y6XG1898","3I7KR83SNAZT1REYB2SRC49PCEEK9H","","null","<img src=""img/food6.png"" style=""width:200px; border:14px solid green;"">","null","","","","","","","","","",""
"","image-keyboard-response","22","68360","0.0-22.0","3A7Y0R2P2PAQDNO8NZ3VGBRIC9IJX0","A1E3N1Y6XG1898","3I7KR83SNAZT1REYB2SRC49PCEEK9H","","902.7000000029802","img/food4.png","74","903.5","1","1","1","1","1,0.5,0,1,0.5,0,0.5,0,1","1,0.5,0,1,0.5,0,0.5,0,1","1","",""
"","html-keyboard-response","23","68663","0.0-23.0","3A7Y0R2P2PAQDNO8NZ3VGBRIC9IJX0","A1E3N1Y6XG1898","3I7KR83SNAZT1REYB2SRC49PCEEK9H","","null","<img src=""img/food4.png"" style=""width:200px; border:14px solid green;"">","null","","","","","","","","","",""
"","image-keyboard-response","24","70308","0.0-24.0","3A7Y0R2P2PAQDNO8NZ3VGBRIC9IJX0","A1E3N1Y6XG1898","3I7KR83SNAZT1REYB2SRC49PCEEK9H","","1643.2000000029802","img/food4.png","74","1644.1000000089407","1","1","1","1","1,0.5,0,1,0.5,0,0.5,0,1","1,0.5,0,1,0.5,0,0.5,0,1","1","",""
"","html-keyboard-response","25","70609","0.0-25.0","3A7Y0R2P2PAQDNO8NZ3VGBRIC9IJX0","A1E3N1Y6XG1898","3I7KR83SNAZT1REYB2SRC49PCEEK9H","","null","<img src=""img/food4.png"" style=""width:200px; border:14px solid green;"">","null","","","","","","","","","",""
"","image-keyboard-response","26","71812","0.0-26.0","3A7Y0R2P2PAQDNO8NZ3VGBRIC9IJX0","A1E3N1Y6XG1898","3I7KR83SNAZT1REYB2SRC49PCEEK9H","","1201.7999999970198","img/food4.png","74","1202.5","1","1","1","1","1,0.5,0,1,0.5,0,0.5,0,1","1,0.5,0,1,0.5,0,0.5,0,1","1","",""
"","html-keyboard-response","27","72114","0.0-27.0","3A7Y0R2P2PAQDNO8NZ3VGBRIC9IJX0","A1E3N1Y6XG1898","3I7KR83SNAZT1REYB2SRC49PCEEK9H","","null","<img src=""img/food4.png"" style=""width:200px; border:14px solid green;"">","null","","","","","","","","","",""
"","image-keyboard-response","28","72918","0.0-28.0","3A7Y0R2P2PAQDNO8NZ3VGBRIC9IJX0","A1E3N1Y6XG1898","3I7KR83SNAZT1REYB2SRC49PCEEK9H","","802.7999999970198","img/food2.png","75","803.5999999940395","2","1","2","1","1,0.5,0,1,0.5,0,0.5,0,1","1,0.5,0,1,0.5,0,0.5,0,1","1","",""
"","html-keyboard-response","29","73222","0.0-29.0","3A7Y0R2P2PAQDNO8NZ3VGBRIC9IJX0","A1E3N1Y6XG1898","3I7KR83SNAZT1REYB2SRC49PCEEK9H","","null","<img src=""img/food2.png"" style=""width:200px; border:14px solid green;"">","null","","","","","","","","","",""
"","image-keyboard-response","30","74049","0.0-30.0","3A7Y0R2P2PAQDNO8NZ3VGBRIC9IJX0","A1E3N1Y6XG1898","3I7KR83SNAZT1REYB2SRC49PCEEK9H","","826.0999999940395","img/food4.png","74","826.8999999910593","1","1","1","1","1,0.5,0,1,0.5,0,0.5,0,1","1,0.5,0,1,0.5,0,0.5,0,1","1","",""
"","html-keyboard-response","31","74355","0.0-31.0","3A7Y0R2P2PAQDNO8NZ3VGBRIC9IJX0","A1E3N1Y6XG1898","3I7KR83SNAZT1REYB2SRC49PCEEK9H","","null","<img src=""img/food4.png"" style=""width:200px; border:14px solid green;"">","null","","","","","","","","","",""
"","image-keyboard-response","32","75035","0.0-32.0","3A7Y0R2P2PAQDNO8NZ3VGBRIC9IJX0","A1E3N1Y6XG1898","3I7KR83SNAZT1REYB2SRC49PCEEK9H","","678.5999999940395","img/food2.png","75","679.2999999970198","2","1","2","1","1,0.5,0,1,0.5,0,0.5,0,1","1,0.5,0,1,0.5,0,0.5,0,1","1","",""
"","html-keyboard-response","33","75337","0.0-33.0","3A7Y0R2P2PAQDNO8NZ3VGBRIC9IJX0","A1E3N1Y6XG1898","3I7KR83SNAZT1REYB2SRC49PCEEK9H","","null","<img src=""img/food2.png"" style=""width:200px; border:14px solid green;"">","null","","","","","","","","","",""
"","image-keyboard-response","34","75977","0.0-34.0","3A7Y0R2P2PAQDNO8NZ3VGBRIC9IJX0","A1E3N1Y6XG1898","3I7KR83SNAZT1REYB2SRC49PCEEK9H","","638","img/food4.png","74","638.6000000089407","1","1","1","1","1,0.5,0,1,0.5,0,0.5,0,1","1,0.5,0,1,0.5,0,0.5,0,1","1","",""
"","html-keyboard-response","35","76280","0.0-35.0","3A7Y0R2P2PAQDNO8NZ3VGBRIC9IJX0","A1E3N1Y6XG1898","3I7KR83SNAZT1REYB2SRC49PCEEK9H","","null","<img src=""img/food4.png"" style=""width:200px; border:14px solid green;"">","null","","","","","","","","","",""
"","image-keyboard-response","36","77121","0.0-36.0","3A7Y0R2P2PAQDNO8NZ3VGBRIC9IJX0","A1E3N1Y6XG1898","3I7KR83SNAZT1REYB2SRC49PCEEK9H","","840.5","img/food4.png","74","841.0999999940395","1","1","1","1","1,0.5,0,1,0.5,0,0.5,0,1","1,0.5,0,1,0.5,0,0.5,0,1","1","",""
"","html-keyboard-response","37","77427","0.0-37.0","3A7Y0R2P2PAQDNO8NZ3VGBRIC9IJX0","A1E3N1Y6XG1898","3I7KR83SNAZT1REYB2SRC49PCEEK9H","","null","<img src=""img/food4.png"" style=""width:200px; border:14px solid green;"">","null","","","","","","","","","",""
"","image-keyboard-response","38","78135","0.0-38.0","3A7Y0R2P2PAQDNO8NZ3VGBRIC9IJX0","A1E3N1Y6XG1898","3I7KR83SNAZT1REYB2SRC49PCEEK9H","","706.0999999940395","img/food2.png","75","706.9000000059605","2","1","2","1","1,0.5,0,1,0.5,0,0.5,0,1","1,0.5,0,1,0.5,0,0.5,0,1","1","",""
"","html-keyboard-response","39","78440","0.0-39.0","3A7Y0R2P2PAQDNO8NZ3VGBRIC9IJX0","A1E3N1Y6XG1898","3I7KR83SNAZT1REYB2SRC49PCEEK9H","","null","<img src=""img/food2.png"" style=""width:200px; border:14px solid green;"">","null","","","","","","","","","",""
"","image-keyboard-response","40","79092","0.0-40.0","3A7Y0R2P2PAQDNO8NZ3VGBRIC9IJX0","A1E3N1Y6XG1898","3I7KR83SNAZT1REYB2SRC49PCEEK9H","","650.7999999970198","img/food4.png","74","651.5","1","1","1","1","1,0.5,0,1,0.5,0,0.5,0,1","1,0.5,0,1,0.5,0,0.5,0,1","1","",""
"","html-keyboard-response","41","79393","0.0-41.0","3A7Y0R2P2PAQDNO8NZ3VGBRIC9IJX0","A1E3N1Y6XG1898","3I7KR83SNAZT1REYB2SRC49PCEEK9H","","null","<img src=""img/food4.png"" style=""width:200px; border:14px solid green;"">","null","","","","","","","","","",""
"","image-keyboard-response","42","80373","0.0-42.0","3A7Y0R2P2PAQDNO8NZ3VGBRIC9IJX0","A1E3N1Y6XG1898","3I7KR83SNAZT1REYB2SRC49PCEEK9H","","979.2999999970198","img/food2.png","75","979.7999999970198","2","1","2","1","1,0.5,0,1,0.5,0,0.5,0,1","1,0.5,0,1,0.5,0,0.5,0,1","1","",""
"","html-keyboard-response","43","80675","0.0-43.0","3A7Y0R2P2PAQDNO8NZ3VGBRIC9IJX0","A1E3N1Y6XG1898","3I7KR83SNAZT1REYB2SRC49PCEEK9H","","null","<img src=""img/food2.png"" style=""width:200px; border:14px solid green;"">","null","","","","","","","","","",""
"","image-keyboard-response","44","81404","0.0-44.0","3A7Y0R2P2PAQDNO8NZ3VGBRIC9IJX0","A1E3N1Y6XG1898","3I7KR83SNAZT1REYB2SRC49PCEEK9H","","727.7000000029802","img/food2.png","75","728.3999999910593","2","0","2","1","1,0.5,0,1,0.5,0,0.5,0,1","1,0.5,0,1,0.5,0,0.5,0,1","1","",""
"","html-keyboard-response","45","81707","0.0-45.0","3A7Y0R2P2PAQDNO8NZ3VGBRIC9IJX0","A1E3N1Y6XG1898","3I7KR83SNAZT1REYB2SRC49PCEEK9H","","null","<img src=""img/food2.png"" style=""width:200px;border:14px solid red;"">","null","","","","","","","","","",""
"","image-keyboard-response","46","82999","0.0-46.0","3A7Y0R2P2PAQDNO8NZ3VGBRIC9IJX0","A1E3N1Y6XG1898","3I7KR83SNAZT1REYB2SRC49PCEEK9H","","1290.2999999970198","img/food4.png","74","1291","1","1","1","1","1,0.5,0,1,0.5,0,0.5,0,1","1,0.5,0,1,0.5,0,0.5,0,1","1","",""
"","html-keyboard-response","47","83301","0.0-47.0","3A7Y0R2P2PAQDNO8NZ3VGBRIC9IJX0","A1E3N1Y6XG1898","3I7KR83SNAZT1REYB2SRC49PCEEK9H","","null","<img src=""img/food4.png"" style=""width:200px; border:14px solid green;"">","null","","","","","","","","","",""
"","image-keyboard-response","48","84080","0.0-48.0","3A7Y0R2P2PAQDNO8NZ3VGBRIC9IJX0","A1E3N1Y6XG1898","3I7KR83SNAZT1REYB2SRC49PCEEK9H","","777.5999999940395","img/food6.png","76","778.3999999910593","3","1","3","1","1,0.5,0,1,0.5,0,0.5,0,1","1,0.5,0,1,0.5,0,0.5,0,1","1","",""
"","html-keyboard-response","49","84384","0.0-49.0","3A7Y0R2P2PAQDNO8NZ3VGBRIC9IJX0","A1E3N1Y6XG1898","3I7KR83SNAZT1REYB2SRC49PCEEK9H","","null","<img src=""img/food6.png"" style=""width:200px; border:14px solid green;"">","null","","","","","","","","","",""
"","image-keyboard-response","50","85109","0.0-50.0","3A7Y0R2P2PAQDNO8NZ3VGBRIC9IJX0","A1E3N1Y6XG1898","3I7KR83SNAZT1REYB2SRC49PCEEK9H","","724.0999999940395","img/food2.png","75","724.7000000029802","2","0","2","1","1,0.5,0,1,0.5,0,0.5,0,1","1,0.5,0,1,0.5,0,0.5,0,1","1","",""
"","html-keyboard-response","51","85411","0.0-51.0","3A7Y0R2P2PAQDNO8NZ3VGBRIC9IJX0","A1E3N1Y6XG1898","3I7KR83SNAZT1REYB2SRC49PCEEK9H","","null","<img src=""img/food2.png"" style=""width:200px;border:14px solid red;"">","null","","","","","","","","","",""
"","image-keyboard-response","52","86189","0.0-52.0","3A7Y0R2P2PAQDNO8NZ3VGBRIC9IJX0","A1E3N1Y6XG1898","3I7KR83SNAZT1REYB2SRC49PCEEK9H","","778.1000000089407","img/food6.png","76","778.5999999940395","3","1","3","1","1,0.5,0,1,0.5,0,0.5,0,1","1,0.5,0,1,0.5,0,0.5,0,1","1","",""
"","html-keyboard-response","53","86491","0.0-53.0","3A7Y0R2P2PAQDNO8NZ3VGBRIC9IJX0","A1E3N1Y6XG1898","3I7KR83SNAZT1REYB2SRC49PCEEK9H","","null","<img src=""img/food6.png"" style=""width:200px; border:14px solid green;"">","null","","","","","","","","","",""
"","image-keyboard-response","54","87255","0.0-54.0","3A7Y0R2P2PAQDNO8NZ3VGBRIC9IJX0","A1E3N1Y6XG1898","3I7KR83SNAZT1REYB2SRC49PCEEK9H","","762","img/food4.png","74","762.8000000119209","1","1","1","1","1,0.5,0,1,0.5,0,0.5,0,1","1,0.5,0,1,0.5,0,0.5,0,1","1","",""
"","html-keyboard-response","55","87560","0.0-55.0","3A7Y0R2P2PAQDNO8NZ3VGBRIC9IJX0","A1E3N1Y6XG1898","3I7KR83SNAZT1REYB2SRC49PCEEK9H","","null","<img src=""img/food4.png"" style=""width:200px; border:14px solid green;"">","null","","","","","","","","","",""
"","image-keyboard-response","56","88191","0.0-56.0","3A7Y0R2P2PAQDNO8NZ3VGBRIC9IJX0","A1E3N1Y6XG1898","3I7KR83SNAZT1REYB2SRC49PCEEK9H","","630.9000000059605","img/food4.png","74","631.5","1","1","1","1","1,0.5,0,1,0.5,0,0.5,0,1","1,0.5,0,1,0.5,0,0.5,0,1","1","",""
"","html-keyboard-response","57","88493","0.0-57.0","3A7Y0R2P2PAQDNO8NZ3VGBRIC9IJX0","A1E3N1Y6XG1898","3I7KR83SNAZT1REYB2SRC49PCEEK9H","","null","<img src=""img/food4.png"" style=""width:200px; border:14px solid green;"">","null","","","","","","","","","",""
"","image-keyboard-response","58","89293","0.0-58.0","3A7Y0R2P2PAQDNO8NZ3VGBRIC9IJX0","A1E3N1Y6XG1898","3I7KR83SNAZT1REYB2SRC49PCEEK9H","","798.3000000119209","img/food6.png","76","799","3","1","3","1","1,0.5,0,1,0.5,0,0.5,0,1","1,0.5,0,1,0.5,0,0.5,0,1","1","",""
"","html-keyboard-response","59","89597","0.0-59.0","3A7Y0R2P2PAQDNO8NZ3VGBRIC9IJX0","A1E3N1Y6XG1898","3I7KR83SNAZT1REYB2SRC49PCEEK9H","","null","<img src=""img/food6.png"" style=""width:200px; border:14px solid green;"">","null","","","","","","","","","",""
"","image-keyboard-response","60","90382","0.0-60.0","3A7Y0R2P2PAQDNO8NZ3VGBRIC9IJX0","A1E3N1Y6XG1898","3I7KR83SNAZT1REYB2SRC49PCEEK9H","","783.8999999910593","img/food4.png","74","784.6000000089407","1","1","1","1","1,0.5,0,1,0.5,0,0.5,0,1","1,0.5,0,1,0.5,0,0.5,0,1","1","",""
"","html-keyboard-response","61","90685","0.0-61.0","3A7Y0R2P2PAQDNO8NZ3VGBRIC9IJX0","A1E3N1Y6XG1898","3I7KR83SNAZT1REYB2SRC49PCEEK9H","","null","<img src=""img/food4.png"" style=""width:200px; border:14px solid green;"">","null","","","","","","","","","",""
"","image-keyboard-response","62","91357","0.0-62.0","3A7Y0R2P2PAQDNO8NZ3VGBRIC9IJX0","A1E3N1Y6XG1898","3I7KR83SNAZT1REYB2SRC49PCEEK9H","","670.6999999880791","img/food2.png","75","671.5","2","1","2","1","1,0.5,0,1,0.5,0,0.5,0,1","1,0.5,0,1,0.5,0,0.5,0,1","1","",""
"","html-keyboard-response","63","91659","0.0-63.0","3A7Y0R2P2PAQDNO8NZ3VGBRIC9IJX0","A1E3N1Y6XG1898","3I7KR83SNAZT1REYB2SRC49PCEEK9H","","null","<img src=""img/food2.png"" style=""width:200px; border:14px solid green;"">","null","","","","","","","","","",""
"","image-keyboard-response","64","92334","0.0-64.0","3A7Y0R2P2PAQDNO8NZ3VGBRIC9IJX0","A1E3N1Y6XG1898","3I7KR83SNAZT1REYB2SRC49PCEEK9H","","673.7999999970198","img/food2.png","75","674.7000000029802","2","0","2","1","1,0.5,0,1,0.5,0,0.5,0,1","1,0.5,0,1,0.5,0,0.5,0,1","1","",""
"","html-keyboard-response","65","92637","0.0-65.0","3A7Y0R2P2PAQDNO8NZ3VGBRIC9IJX0","A1E3N1Y6XG1898","3I7KR83SNAZT1REYB2SRC49PCEEK9H","","null","<img src=""img/food2.png"" style=""width:200px;border:14px solid red;"">","null","","","","","","","","","",""
"","image-keyboard-response","66","94519","0.0-66.0","3A7Y0R2P2PAQDNO8NZ3VGBRIC9IJX0","A1E3N1Y6XG1898","3I7KR83SNAZT1REYB2SRC49PCEEK9H","","1880.5999999940395","img/food4.png","74","1881.2000000029802","1","1","1","1","1,0.5,0,1,0.5,0,0.5,0,1","1,0.5,0,1,0.5,0,0.5,0,1","1","",""
"","html-keyboard-response","67","94821","0.0-67.0","3A7Y0R2P2PAQDNO8NZ3VGBRIC9IJX0","A1E3N1Y6XG1898","3I7KR83SNAZT1REYB2SRC49PCEEK9H","","null","<img src=""img/food4.png"" style=""width:200px; border:14px solid green;"">","null","","","","","","","","","",""
"","image-keyboard-response","68","95599","0.0-68.0","3A7Y0R2P2PAQDNO8NZ3VGBRIC9IJX0","A1E3N1Y6XG1898","3I7KR83SNAZT1REYB2SRC49PCEEK9H","","776.5999999940395","img/food6.png","76","777.2999999970198","3","1","3","1","1,0.5,0,1,0.5,0,0.5,0,1","1,0.5,0,1,0.5,0,0.5,0,1","1","",""
"","html-keyboard-response","69","95902","0.0-69.0","3A7Y0R2P2PAQDNO8NZ3VGBRIC9IJX0","A1E3N1Y6XG1898","3I7KR83SNAZT1REYB2SRC49PCEEK9H","","null","<img src=""img/food6.png"" style=""width:200px; border:14px solid green;"">","null","","","","","","","","","",""
"","image-keyboard-response","70","96807","0.0-70.0","3A7Y0R2P2PAQDNO8NZ3VGBRIC9IJX0","A1E3N1Y6XG1898","3I7KR83SNAZT1REYB2SRC49PCEEK9H","","903.5","img/food6.png","76","904.0999999940395","3","1","3","1","1,0.5,0,1,0.5,0,0.5,0,1","1,0.5,0,1,0.5,0,0.5,0,1","1","",""
"","html-keyboard-response","71","97111","0.0-71.0","3A7Y0R2P2PAQDNO8NZ3VGBRIC9IJX0","A1E3N1Y6XG1898","3I7KR83SNAZT1REYB2SRC49PCEEK9H","","null","<img src=""img/food6.png"" style=""width:200px; border:14px solid green;"">","null","","","","","","","","","",""
"","image-keyboard-response","72","97887","0.0-72.0","3A7Y0R2P2PAQDNO8NZ3VGBRIC9IJX0","A1E3N1Y6XG1898","3I7KR83SNAZT1REYB2SRC49PCEEK9H","","775.2000000029802","img/food6.png","76","776","3","1","3","1","1,0.5,0,1,0.5,0,0.5,0,1","1,0.5,0,1,0.5,0,0.5,0,1","1","",""
"","html-keyboard-response","73","98189","0.0-73.0","3A7Y0R2P2PAQDNO8NZ3VGBRIC9IJX0","A1E3N1Y6XG1898","3I7KR83SNAZT1REYB2SRC49PCEEK9H","","null","<img src=""img/food6.png"" style=""width:200px; border:14px solid green;"">","null","","","","","","","","","",""
"","image-keyboard-response","74","98979","0.0-74.0","3A7Y0R2P2PAQDNO8NZ3VGBRIC9IJX0","A1E3N1Y6XG1898","3I7KR83SNAZT1REYB2SRC49PCEEK9H","","789.0999999940395","img/food6.png","76","789.9000000059605","3","1","3","1","1,0.5,0,1,0.5,0,0.5,0,1","1,0.5,0,1,0.5,0,0.5,0,1","1","",""
"","html-keyboard-response","75","99282","0.0-75.0","3A7Y0R2P2PAQDNO8NZ3VGBRIC9IJX0","A1E3N1Y6XG1898","3I7KR83SNAZT1REYB2SRC49PCEEK9H","","null","<img src=""img/food6.png"" style=""width:200px; border:14px solid green;"">","null","","","","","","","","","",""
"","image-keyboard-response","76","100186","0.0-76.0","3A7Y0R2P2PAQDNO8NZ3VGBRIC9IJX0","A1E3N1Y6XG1898","3I7KR83SNAZT1REYB2SRC49PCEEK9H","","902.2000000029802","img/food4.png","74","903.0999999940395","1","1","1","1","1,0.5,0,1,0.5,0,0.5,0,1","1,0.5,0,1,0.5,0,0.5,0,1","1","",""
"","html-keyboard-response","77","100489","0.0-77.0","3A7Y0R2P2PAQDNO8NZ3VGBRIC9IJX0","A1E3N1Y6XG1898","3I7KR83SNAZT1REYB2SRC49PCEEK9H","","null","<img src=""img/food4.png"" style=""width:200px; border:14px solid green;"">","null","","","","","","","","","",""
"","image-keyboard-response","78","101208","0.0-78.0","3A7Y0R2P2PAQDNO8NZ3VGBRIC9IJX0","A1E3N1Y6XG1898","3I7KR83SNAZT1REYB2SRC49PCEEK9H","","717.5999999940395","img/food4.png","74","718.4000000059605","1","1","1","1","1,0.5,0,1,0.5,0,0.5,0,1","1,0.5,0,1,0.5,0,0.5,0,1","1","",""
"","html-keyboard-response","79","101512","0.0-79.0","3A7Y0R2P2PAQDNO8NZ3VGBRIC9IJX0","A1E3N1Y6XG1898","3I7KR83SNAZT1REYB2SRC49PCEEK9H","","null","<img src=""img/food4.png"" style=""width:200px; border:14px solid green;"">","null","","","","","","","","","",""
"","image-keyboard-response","80","102189","0.0-80.0","3A7Y0R2P2PAQDNO8NZ3VGBRIC9IJX0","A1E3N1Y6XG1898","3I7KR83SNAZT1REYB2SRC49PCEEK9H","","674.6000000089407","img/food2.png","75","675.5","2","0","2","1","1,0.5,0,1,0.5,0,0.5,0,1","1,0.5,0,1,0.5,0,0.5,0,1","1","",""
"","html-keyboard-response","81","102491","0.0-81.0","3A7Y0R2P2PAQDNO8NZ3VGBRIC9IJX0","A1E3N1Y6XG1898","3I7KR83SNAZT1REYB2SRC49PCEEK9H","","null","<img src=""img/food2.png"" style=""width:200px;border:14px solid red;"">","null","","","","","","","","","",""
"","image-keyboard-response","82","103154","0.0-82.0","3A7Y0R2P2PAQDNO8NZ3VGBRIC9IJX0","A1E3N1Y6XG1898","3I7KR83SNAZT1REYB2SRC49PCEEK9H","","661.6000000089407","img/food2.png","75","662.2000000029802","2","0","2","1","1,0.5,0,1,0.5,0,0.5,0,1","1,0.5,0,1,0.5,0,0.5,0,1","1","",""
"","html-keyboard-response","83","103457","0.0-83.0","3A7Y0R2P2PAQDNO8NZ3VGBRIC9IJX0","A1E3N1Y6XG1898","3I7KR83SNAZT1REYB2SRC49PCEEK9H","","null","<img src=""img/food2.png"" style=""width:200px;border:14px solid red;"">","null","","","","","","","","","",""
"","image-keyboard-response","84","104253","0.0-84.0","3A7Y0R2P2PAQDNO8NZ3VGBRIC9IJX0","A1E3N1Y6XG1898","3I7KR83SNAZT1REYB2SRC49PCEEK9H","","795.1000000089407","img/food4.png","74","795.9000000059605","1","1","1","1","1,0.5,0,1,0.5,0,0.5,0,1","1,0.5,0,1,0.5,0,0.5,0,1","1","",""
"","html-keyboard-response","85","104555","0.0-85.0","3A7Y0R2P2PAQDNO8NZ3VGBRIC9IJX0","A1E3N1Y6XG1898","3I7KR83SNAZT1REYB2SRC49PCEEK9H","","null","<img src=""img/food4.png"" style=""width:200px; border:14px solid green;"">","null","","","","","","","","","",""
"","image-keyboard-response","86","105399","0.0-86.0","3A7Y0R2P2PAQDNO8NZ3VGBRIC9IJX0","A1E3N1Y6XG1898","3I7KR83SNAZT1REYB2SRC49PCEEK9H","","843.0999999940395","img/food2.png","75","843.7999999970198","2","1","2","1","1,0.5,0,1,0.5,0,0.5,0,1","1,0.5,0,1,0.5,0,0.5,0,1","1","",""
"","html-keyboard-response","87","105701","0.0-87.0","3A7Y0R2P2PAQDNO8NZ3VGBRIC9IJX0","A1E3N1Y6XG1898","3I7KR83SNAZT1REYB2SRC49PCEEK9H","","null","<img src=""img/food2.png"" style=""width:200px; border:14px solid green;"">","null","","","","","","","","","",""
"","image-keyboard-response","88","106644","0.0-88.0","3A7Y0R2P2PAQDNO8NZ3VGBRIC9IJX0","A1E3N1Y6XG1898","3I7KR83SNAZT1REYB2SRC49PCEEK9H","","942.5","img/food6.png","76","943.1000000089407","3","1","3","1","1,0.5,0,1,0.5,0,0.5,0,1","1,0.5,0,1,0.5,0,0.5,0,1","1","",""
"","html-keyboard-response","89","106947","0.0-89.0","3A7Y0R2P2PAQDNO8NZ3VGBRIC9IJX0","A1E3N1Y6XG1898","3I7KR83SNAZT1REYB2SRC49PCEEK9H","","null","<img src=""img/food6.png"" style=""width:200px; border:14px solid green;"">","null","","","","","","","","","",""
"","image-keyboard-response","90","107906","0.0-90.0","3A7Y0R2P2PAQDNO8NZ3VGBRIC9IJX0","A1E3N1Y6XG1898","3I7KR83SNAZT1REYB2SRC49PCEEK9H","","957.6999999880791","img/food6.png","76","958.5","3","1","3","1","1,0.5,0,1,0.5,0,0.5,0,1","1,0.5,0,1,0.5,0,0.5,0,1","1","",""
"","html-keyboard-response","91","108208","0.0-91.0","3A7Y0R2P2PAQDNO8NZ3VGBRIC9IJX0","A1E3N1Y6XG1898","3I7KR83SNAZT1REYB2SRC49PCEEK9H","","null","<img src=""img/food6.png"" style=""width:200px; border:14px solid green;"">","null","","","","","","","","","",""
"","image-keyboard-response","92","108999","0.0-92.0","3A7Y0R2P2PAQDNO8NZ3VGBRIC9IJX0","A1E3N1Y6XG1898","3I7KR83SNAZT1REYB2SRC49PCEEK9H","","789","img/food6.png","76","789.7999999970198","3","1","3","1","1,0.5,0,1,0.5,0,0.5,0,1","1,0.5,0,1,0.5,0,0.5,0,1","1","",""
"","html-keyboard-response","93","109302","0.0-93.0","3A7Y0R2P2PAQDNO8NZ3VGBRIC9IJX0","A1E3N1Y6XG1898","3I7KR83SNAZT1REYB2SRC49PCEEK9H","","null","<img src=""img/food6.png"" style=""width:200px; border:14px solid green;"">","null","","","","","","","","","",""
"","image-keyboard-response","94","110044","0.0-94.0","3A7Y0R2P2PAQDNO8NZ3VGBRIC9IJX0","A1E3N1Y6XG1898","3I7KR83SNAZT1REYB2SRC49PCEEK9H","","740.7999999970198","img/food4.png","74","741.5","1","1","1","1","1,0.5,0,1,0.5,0,0.5,0,1","1,0.5,0,1,0.5,0,0.5,0,1","1","",""
"","html-keyboard-response","95","110346","0.0-95.0","3A7Y0R2P2PAQDNO8NZ3VGBRIC9IJX0","A1E3N1Y6XG1898","3I7KR83SNAZT1REYB2SRC49PCEEK9H","","null","<img src=""img/food4.png"" style=""width:200px; border:14px solid green;"">","null","","","","","","","","","",""
"","image-keyboard-response","96","111156","0.0-96.0","3A7Y0R2P2PAQDNO8NZ3VGBRIC9IJX0","A1E3N1Y6XG1898","3I7KR83SNAZT1REYB2SRC49PCEEK9H","","808.7000000029802","img/food4.png","74","809.4000000059605","1","1","1","1","1,0.5,0,1,0.5,0,0.5,0,1","1,0.5,0,1,0.5,0,0.5,0,1","1","",""
"","html-keyboard-response","97","111457","0.0-97.0","3A7Y0R2P2PAQDNO8NZ3VGBRIC9IJX0","A1E3N1Y6XG1898","3I7KR83SNAZT1REYB2SRC49PCEEK9H","","null","<img src=""img/food4.png"" style=""width:200px; border:14px solid green;"">","null","","","","","","","","","",""
"","image-keyboard-response","98","112289","0.0-98.0","3A7Y0R2P2PAQDNO8NZ3VGBRIC9IJX0","A1E3N1Y6XG1898","3I7KR83SNAZT1REYB2SRC49PCEEK9H","","831.1999999880791","img/food6.png","76","831.7999999970198","3","1","3","1","1,0.5,0,1,0.5,0,0.5,0,1","1,0.5,0,1,0.5,0,0.5,0,1","1","",""
"","html-keyboard-response","99","112594","0.0-99.0","3A7Y0R2P2PAQDNO8NZ3VGBRIC9IJX0","A1E3N1Y6XG1898","3I7KR83SNAZT1REYB2SRC49PCEEK9H","","null","<img src=""img/food6.png"" style=""width:200px; border:14px solid green;"">","null","","","","","","","","","",""
"","image-keyboard-response","100","113320","0.0-100.0","3A7Y0R2P2PAQDNO8NZ3VGBRIC9IJX0","A1E3N1Y6XG1898","3I7KR83SNAZT1REYB2SRC49PCEEK9H","","724.3999999910593","img/food6.png","76","725.2000000029802","3","1","3","1","1,0.5,0,1,0.5,0,0.5,0,1","1,0.5,0,1,0.5,0,0.5,0,1","1","",""
"","html-keyboard-response","101","113622","0.0-101.0","3A7Y0R2P2PAQDNO8NZ3VGBRIC9IJX0","A1E3N1Y6XG1898","3I7KR83SNAZT1REYB2SRC49PCEEK9H","","null","<img src=""img/food6.png"" style=""width:200px; border:14px solid green;"">","null","","","","","","","","","",""
"","image-keyboard-response","102","114267","0.0-102.0","3A7Y0R2P2PAQDNO8NZ3VGBRIC9IJX0","A1E3N1Y6XG1898","3I7KR83SNAZT1REYB2SRC49PCEEK9H","","643.5999999940395","img/food4.png","74","644.2999999970198","1","1","1","1","1,0.5,0,1,0.5,0,0.5,0,1","1,0.5,0,1,0.5,0,0.5,0,1","1","",""
"","html-keyboard-response","103","114568","0.0-103.0","3A7Y0R2P2PAQDNO8NZ3VGBRIC9IJX0","A1E3N1Y6XG1898","3I7KR83SNAZT1REYB2SRC49PCEEK9H","","null","<img src=""img/food4.png"" style=""width:200px; border:14px solid green;"">","null","","","","","","","","","",""
"","image-keyboard-response","104","115365","0.0-104.0","3A7Y0R2P2PAQDNO8NZ3VGBRIC9IJX0","A1E3N1Y6XG1898","3I7KR83SNAZT1REYB2SRC49PCEEK9H","","796.0999999940395","img/food6.png","76","796.7999999970198","3","1","3","1","1,0.5,0,1,0.5,0,0.5,0,1","1,0.5,0,1,0.5,0,0.5,0,1","1","",""
"","html-keyboard-response","105","115667","0.0-105.0","3A7Y0R2P2PAQDNO8NZ3VGBRIC9IJX0","A1E3N1Y6XG1898","3I7KR83SNAZT1REYB2SRC49PCEEK9H","","null","<img src=""img/food6.png"" style=""width:200px; border:14px solid green;"">","null","","","","","","","","","",""
"","image-keyboard-response","106","116381","0.0-106.0","3A7Y0R2P2PAQDNO8NZ3VGBRIC9IJX0","A1E3N1Y6XG1898","3I7KR83SNAZT1REYB2SRC49PCEEK9H","","713.5","img/food2.png","75","714.0999999940395","2","1","2","1","1,0.5,0,1,0.5,0,0.5,0,1","1,0.5,0,1,0.5,0,0.5,0,1","1","",""
"","html-keyboard-response","107","116684","0.0-107.0","3A7Y0R2P2PAQDNO8NZ3VGBRIC9IJX0","A1E3N1Y6XG1898","3I7KR83SNAZT1REYB2SRC49PCEEK9H","","null","<img src=""img/food2.png"" style=""width:200px; border:14px solid green;"">","null","","","","","","","","","",""
"","image-keyboard-response","108","117734","0.0-108.0","3A7Y0R2P2PAQDNO8NZ3VGBRIC9IJX0","A1E3N1Y6XG1898","3I7KR83SNAZT1REYB2SRC49PCEEK9H","","1049.5","img/food6.png","76","1050.300000011921","3","1","3","1","1,0.5,0,1,0.5,0,0.5,0,1","1,0.5,0,1,0.5,0,0.5,0,1","1","",""
"","html-keyboard-response","109","118036","0.0-109.0","3A7Y0R2P2PAQDNO8NZ3VGBRIC9IJX0","A1E3N1Y6XG1898","3I7KR83SNAZT1REYB2SRC49PCEEK9H","","null","<img src=""img/food6.png"" style=""width:200px; border:14px solid green;"">","null","","","","","","","","","",""
"","image-keyboard-response","110","118799","0.0-110.0","3A7Y0R2P2PAQDNO8NZ3VGBRIC9IJX0","A1E3N1Y6XG1898","3I7KR83SNAZT1REYB2SRC49PCEEK9H","","762.2000000029802","img/food2.png","75","762.7000000029802","2","0","2","1","1,0.5,0,1,0.5,0,0.5,0,1","1,0.5,0,1,0.5,0,0.5,0,1","1","",""
"","html-keyboard-response","111","119100","0.0-111.0","3A7Y0R2P2PAQDNO8NZ3VGBRIC9IJX0","A1E3N1Y6XG1898","3I7KR83SNAZT1REYB2SRC49PCEEK9H","","null","<img src=""img/food2.png"" style=""width:200px;border:14px solid red;"">","null","","","","","","","","","",""
"","image-keyboard-response","112","119817","0.0-112.0","3A7Y0R2P2PAQDNO8NZ3VGBRIC9IJX0","A1E3N1Y6XG1898","3I7KR83SNAZT1REYB2SRC49PCEEK9H","","715.2000000029802","img/food4.png","74","715.9000000059605","1","1","1","1","1,0.5,0,1,0.5,0,0.5,0,1","1,0.5,0,1,0.5,0,0.5,0,1","1","",""
"","html-keyboard-response","113","120120","0.0-113.0","3A7Y0R2P2PAQDNO8NZ3VGBRIC9IJX0","A1E3N1Y6XG1898","3I7KR83SNAZT1REYB2SRC49PCEEK9H","","null","<img src=""img/food4.png"" style=""width:200px; border:14px solid green;"">","null","","","","","","","","","",""
"","image-keyboard-response","114","120828","0.0-114.0","3A7Y0R2P2PAQDNO8NZ3VGBRIC9IJX0","A1E3N1Y6XG1898","3I7KR83SNAZT1REYB2SRC49PCEEK9H","","707.0999999940395","img/food6.png","76","707.7999999970198","3","1","3","1","1,0.5,0,1,0.5,0,0.5,0,1","1,0.5,0,1,0.5,0,0.5,0,1","1","",""
"","html-keyboard-response","115","121131","0.0-115.0","3A7Y0R2P2PAQDNO8NZ3VGBRIC9IJX0","A1E3N1Y6XG1898","3I7KR83SNAZT1REYB2SRC49PCEEK9H","","null","<img src=""img/food6.png"" style=""width:200px; border:14px solid green;"">","null","","","","","","","","","",""
"","image-keyboard-response","116","121822","0.0-116.0","3A7Y0R2P2PAQDNO8NZ3VGBRIC9IJX0","A1E3N1Y6XG1898","3I7KR83SNAZT1REYB2SRC49PCEEK9H","","689.5999999940395","img/food6.png","76","690.3999999910593","3","1","3","1","1,0.5,0,1,0.5,0,0.5,0,1","1,0.5,0,1,0.5,0,0.5,0,1","1","",""
"","html-keyboard-response","117","122125","0.0-117.0","3A7Y0R2P2PAQDNO8NZ3VGBRIC9IJX0","A1E3N1Y6XG1898","3I7KR83SNAZT1REYB2SRC49PCEEK9H","","null","<img src=""img/food6.png"" style=""width:200px; border:14px solid green;"">","null","","","","","","","","","",""
"","image-keyboard-response","118","122961","0.0-118.0","3A7Y0R2P2PAQDNO8NZ3VGBRIC9IJX0","A1E3N1Y6XG1898","3I7KR83SNAZT1REYB2SRC49PCEEK9H","","835","img/food6.png","76","835.8999999910593","3","1","3","1","1,0.5,0,1,0.5,0,0.5,0,1","1,0.5,0,1,0.5,0,0.5,0,1","1","",""
"","html-keyboard-response","119","123266","0.0-119.0","3A7Y0R2P2PAQDNO8NZ3VGBRIC9IJX0","A1E3N1Y6XG1898","3I7KR83SNAZT1REYB2SRC49PCEEK9H","","null","<img src=""img/food6.png"" style=""width:200px; border:14px solid green;"">","null","","","","","","","","","",""
"","image-keyboard-response","120","124068","0.0-120.0","3A7Y0R2P2PAQDNO8NZ3VGBRIC9IJX0","A1E3N1Y6XG1898","3I7KR83SNAZT1REYB2SRC49PCEEK9H","","801.6000000089407","img/food2.png","75","802.3000000119209","2","0","2","1","1,0.5,0,1,0.5,0,0.5,0,1","1,0.5,0,1,0.5,0,0.5,0,1","1","",""
"","html-keyboard-response","121","124371","0.0-121.0","3A7Y0R2P2PAQDNO8NZ3VGBRIC9IJX0","A1E3N1Y6XG1898","3I7KR83SNAZT1REYB2SRC49PCEEK9H","","null","<img src=""img/food2.png"" style=""width:200px;border:14px solid red;"">","null","","","","","","","","","",""
"","image-keyboard-response","122","126386","0.0-122.0","3A7Y0R2P2PAQDNO8NZ3VGBRIC9IJX0","A1E3N1Y6XG1898","3I7KR83SNAZT1REYB2SRC49PCEEK9H","","2013.7999999970198","img/food2.png","74","2014.5999999940395","1","1","2","1","1,0.5,0,1,0.5,0,0.5,0,1","1,0.5,0,1,0.5,0,0.5,0,1","1","",""
"","html-keyboard-response","123","126690","0.0-123.0","3A7Y0R2P2PAQDNO8NZ3VGBRIC9IJX0","A1E3N1Y6XG1898","3I7KR83SNAZT1REYB2SRC49PCEEK9H","","null","<img src=""img/food2.png"" style=""width:200px; border:14px solid green;"">","null","","","","","","","","","",""
"","image-keyboard-response","124","128661","0.0-124.0","3A7Y0R2P2PAQDNO8NZ3VGBRIC9IJX0","A1E3N1Y6XG1898","3I7KR83SNAZT1REYB2SRC49PCEEK9H","","1969.8999999910593","img/food6.png","76","1970.5999999940395","3","1","3","1","1,0.5,0,1,0.5,0,0.5,0,1","1,0.5,0,1,0.5,0,0.5,0,1","1","",""
"","html-keyboard-response","125","128964","0.0-125.0","3A7Y0R2P2PAQDNO8NZ3VGBRIC9IJX0","A1E3N1Y6XG1898","3I7KR83SNAZT1REYB2SRC49PCEEK9H","","null","<img src=""img/food6.png"" style=""width:200px; border:14px solid green;"">","null","","","","","","","","","",""
"","image-keyboard-response","126","129840","0.0-126.0","3A7Y0R2P2PAQDNO8NZ3VGBRIC9IJX0","A1E3N1Y6XG1898","3I7KR83SNAZT1REYB2SRC49PCEEK9H","","874.7000000029802","img/food6.png","76","875.5","3","1","3","1","1,0.5,0,1,0.5,0,0.5,0,1","1,0.5,0,1,0.5,0,0.5,0,1","1","",""
"","html-keyboard-response","127","130146","0.0-127.0","3A7Y0R2P2PAQDNO8NZ3VGBRIC9IJX0","A1E3N1Y6XG1898","3I7KR83SNAZT1REYB2SRC49PCEEK9H","","null","<img src=""img/food6.png"" style=""width:200px; border:14px solid green;"">","null","","","","","","","","","",""
"","image-keyboard-response","128","130876","0.0-128.0","3A7Y0R2P2PAQDNO8NZ3VGBRIC9IJX0","A1E3N1Y6XG1898","3I7KR83SNAZT1REYB2SRC49PCEEK9H","","729.7999999970198","img/food4.png","74","730.5","1","1","1","1","1,0.5,0,1,0.5,0,0.5,0,1","1,0.5,0,1,0.5,0,0.5,0,1","1","",""
"","html-keyboard-response","129","131180","0.0-129.0","3A7Y0R2P2PAQDNO8NZ3VGBRIC9IJX0","A1E3N1Y6XG1898","3I7KR83SNAZT1REYB2SRC49PCEEK9H","","null","<img src=""img/food4.png"" style=""width:200px; border:14px solid green;"">","null","","","","","","","","","",""
"","image-keyboard-response","130","132045","0.0-130.0","3A7Y0R2P2PAQDNO8NZ3VGBRIC9IJX0","A1E3N1Y6XG1898","3I7KR83SNAZT1REYB2SRC49PCEEK9H","","864","img/food2.png","75","864.7999999970198","2","1","2","1","1,0.5,0,1,0.5,0,0.5,0,1","1,0.5,0,1,0.5,0,0.5,0,1","1","",""
"","html-keyboard-response","131","132349","0.0-131.0","3A7Y0R2P2PAQDNO8NZ3VGBRIC9IJX0","A1E3N1Y6XG1898","3I7KR83SNAZT1REYB2SRC49PCEEK9H","","null","<img src=""img/food2.png"" style=""width:200px; border:14px solid green;"">","null","","","","","","","","","",""
"","image-keyboard-response","132","133178","0.0-132.0","3A7Y0R2P2PAQDNO8NZ3VGBRIC9IJX0","A1E3N1Y6XG1898","3I7KR83SNAZT1REYB2SRC49PCEEK9H","","827.5999999940395","img/food2.png","75","828.3999999910593","2","1","2","1","1,0.5,0,1,0.5,0,0.5,0,1","1,0.5,0,1,0.5,0,0.5,0,1","1","",""
"","html-keyboard-response","133","133481","0.0-133.0","3A7Y0R2P2PAQDNO8NZ3VGBRIC9IJX0","A1E3N1Y6XG1898","3I7KR83SNAZT1REYB2SRC49PCEEK9H","","null","<img src=""img/food2.png"" style=""width:200px; border:14px solid green;"">","null","","","","","","","","","",""
"","image-keyboard-response","134","134345","0.0-134.0","3A7Y0R2P2PAQDNO8NZ3VGBRIC9IJX0","A1E3N1Y6XG1898","3I7KR83SNAZT1REYB2SRC49PCEEK9H","","863.4000000059605","img/food2.png","75","864.2000000029802","2","0","2","1","1,0.5,0,1,0.5,0,0.5,0,1","1,0.5,0,1,0.5,0,0.5,0,1","1","",""
"","html-keyboard-response","135","134646","0.0-135.0","3A7Y0R2P2PAQDNO8NZ3VGBRIC9IJX0","A1E3N1Y6XG1898","3I7KR83SNAZT1REYB2SRC49PCEEK9H","","null","<img src=""img/food2.png"" style=""width:200px;border:14px solid red;"">","null","","","","","","","","","",""
"","image-keyboard-response","136","136441","0.0-136.0","3A7Y0R2P2PAQDNO8NZ3VGBRIC9IJX0","A1E3N1Y6XG1898","3I7KR83SNAZT1REYB2SRC49PCEEK9H","","1792","img/food2.png","75","1792.699999988079","2","0","2","1","1,0.5,0,1,0.5,0,0.5,0,1","1,0.5,0,1,0.5,0,0.5,0,1","1","",""
"","html-keyboard-response","137","136744","0.0-137.0","3A7Y0R2P2PAQDNO8NZ3VGBRIC9IJX0","A1E3N1Y6XG1898","3I7KR83SNAZT1REYB2SRC49PCEEK9H","","null","<img src=""img/food2.png"" style=""width:200px;border:14px solid red;"">","null","","","","","","","","","",""
"","image-keyboard-response","138","137486","0.0-138.0","3A7Y0R2P2PAQDNO8NZ3VGBRIC9IJX0","A1E3N1Y6XG1898","3I7KR83SNAZT1REYB2SRC49PCEEK9H","","740.8999999910593","img/food6.png","76","741.7000000029802","3","1","3","1","1,0.5,0,1,0.5,0,0.5,0,1","1,0.5,0,1,0.5,0,0.5,0,1","1","",""
"","html-keyboard-response","139","137788","0.0-139.0","3A7Y0R2P2PAQDNO8NZ3VGBRIC9IJX0","A1E3N1Y6XG1898","3I7KR83SNAZT1REYB2SRC49PCEEK9H","","null","<img src=""img/food6.png"" style=""width:200px; border:14px solid green;"">","null","","","","","","","","","",""
"","image-keyboard-response","140","139002","0.0-140.0","3A7Y0R2P2PAQDNO8NZ3VGBRIC9IJX0","A1E3N1Y6XG1898","3I7KR83SNAZT1REYB2SRC49PCEEK9H","","1212.5","img/food4.png","74","1213.2999999970198","1","1","1","1","1,0.5,0,1,0.5,0,0.5,0,1","1,0.5,0,1,0.5,0,0.5,0,1","1","",""
"","html-keyboard-response","141","139304","0.0-141.0","3A7Y0R2P2PAQDNO8NZ3VGBRIC9IJX0","A1E3N1Y6XG1898","3I7KR83SNAZT1REYB2SRC49PCEEK9H","","null","<img src=""img/food4.png"" style=""width:200px; border:14px solid green;"">","null","","","","","","","","","",""
"","image-keyboard-response","142","140085","0.0-142.0","3A7Y0R2P2PAQDNO8NZ3VGBRIC9IJX0","A1E3N1Y6XG1898","3I7KR83SNAZT1REYB2SRC49PCEEK9H","","779.5999999940395","img/food2.png","75","780.2999999970198","2","0","2","1","1,0.5,0,1,0.5,0,0.5,0,1","1,0.5,0,1,0.5,0,0.5,0,1","1","",""
"","html-keyboard-response","143","140391","0.0-143.0","3A7Y0R2P2PAQDNO8NZ3VGBRIC9IJX0","A1E3N1Y6XG1898","3I7KR83SNAZT1REYB2SRC49PCEEK9H","","null","<img src=""img/food2.png"" style=""width:200px;border:14px solid red;"">","null","","","","","","","","","",""
"","image-keyboard-response","144","141738","0.0-144.0","3A7Y0R2P2PAQDNO8NZ3VGBRIC9IJX0","A1E3N1Y6XG1898","3I7KR83SNAZT1REYB2SRC49PCEEK9H","","1346.1000000089407","img/food6.png","76","1346.8999999910593","3","1","3","1","1,0.5,0,1,0.5,0,0.5,0,1","1,0.5,0,1,0.5,0,0.5,0,1","1","",""
"","html-keyboard-response","145","142041","0.0-145.0","3A7Y0R2P2PAQDNO8NZ3VGBRIC9IJX0","A1E3N1Y6XG1898","3I7KR83SNAZT1REYB2SRC49PCEEK9H","","null","<img src=""img/food6.png"" style=""width:200px; border:14px solid green;"">","null","","","","","","","","","",""
"","image-keyboard-response","146","142827","0.0-146.0","3A7Y0R2P2PAQDNO8NZ3VGBRIC9IJX0","A1E3N1Y6XG1898","3I7KR83SNAZT1REYB2SRC49PCEEK9H","","784.7999999970198","img/food2.png","75","785.5","2","1","2","1","1,0.5,0,1,0.5,0,0.5,0,1","1,0.5,0,1,0.5,0,0.5,0,1","1","",""
"","html-keyboard-response","147","143132","0.0-147.0","3A7Y0R2P2PAQDNO8NZ3VGBRIC9IJX0","A1E3N1Y6XG1898","3I7KR83SNAZT1REYB2SRC49PCEEK9H","","null","<img src=""img/food2.png"" style=""width:200px; border:14px solid green;"">","null","","","","","","","","","",""
"","image-keyboard-response","148","143694","0.0-148.0","3A7Y0R2P2PAQDNO8NZ3VGBRIC9IJX0","A1E3N1Y6XG1898","3I7KR83SNAZT1REYB2SRC49PCEEK9H","","560.4000000059605","img/food4.png","74","561.1000000089407","1","1","1","1","1,0.5,0,1,0.5,0,0.5,0,1","1,0.5,0,1,0.5,0,0.5,0,1","1","",""
"","html-keyboard-response","149","143997","0.0-149.0","3A7Y0R2P2PAQDNO8NZ3VGBRIC9IJX0","A1E3N1Y6XG1898","3I7KR83SNAZT1REYB2SRC49PCEEK9H","","null","<img src=""img/food4.png"" style=""width:200px; border:14px solid green;"">","null","","","","","","","","","",""
"","image-keyboard-response","150","144640","0.0-150.0","3A7Y0R2P2PAQDNO8NZ3VGBRIC9IJX0","A1E3N1Y6XG1898","3I7KR83SNAZT1REYB2SRC49PCEEK9H","","642.2999999970198","img/food2.png","75","642.8999999910593","2","0","2","1","1,0.5,0,1,0.5,0,0.5,0,1","1,0.5,0,1,0.5,0,0.5,0,1","1","",""
"","html-keyboard-response","151","144944","0.0-151.0","3A7Y0R2P2PAQDNO8NZ3VGBRIC9IJX0","A1E3N1Y6XG1898","3I7KR83SNAZT1REYB2SRC49PCEEK9H","","null","<img src=""img/food2.png"" style=""width:200px;border:14px solid red;"">","null","","","","","","","","","",""
"","image-keyboard-response","152","145689","0.0-152.0","3A7Y0R2P2PAQDNO8NZ3VGBRIC9IJX0","A1E3N1Y6XG1898","3I7KR83SNAZT1REYB2SRC49PCEEK9H","","744.6000000089407","img/food6.png","76","745.1999999880791","3","1","3","1","1,0.5,0,1,0.5,0,0.5,0,1","1,0.5,0,1,0.5,0,0.5,0,1","1","",""
"","html-keyboard-response","153","145992","0.0-153.0","3A7Y0R2P2PAQDNO8NZ3VGBRIC9IJX0","A1E3N1Y6XG1898","3I7KR83SNAZT1REYB2SRC49PCEEK9H","","null","<img src=""img/food6.png"" style=""width:200px; border:14px solid green;"">","null","","","","","","","","","",""
"","image-keyboard-response","154","146794","0.0-154.0","3A7Y0R2P2PAQDNO8NZ3VGBRIC9IJX0","A1E3N1Y6XG1898","3I7KR83SNAZT1REYB2SRC49PCEEK9H","","801.4000000059605","img/food2.png","75","802.2000000029802","2","1","2","1","1,0.5,0,1,0.5,0,0.5,0,1","1,0.5,0,1,0.5,0,0.5,0,1","1","",""
"","html-keyboard-response","155","147096","0.0-155.0","3A7Y0R2P2PAQDNO8NZ3VGBRIC9IJX0","A1E3N1Y6XG1898","3I7KR83SNAZT1REYB2SRC49PCEEK9H","","null","<img src=""img/food2.png"" style=""width:200px; border:14px solid green;"">","null","","","","","","","","","",""
"","image-keyboard-response","156","147787","0.0-156.0","3A7Y0R2P2PAQDNO8NZ3VGBRIC9IJX0","A1E3N1Y6XG1898","3I7KR83SNAZT1REYB2SRC49PCEEK9H","","690.7000000029802","img/food4.png","74","691.3999999910593","1","1","1","1","1,0.5,0,1,0.5,0,0.5,0,1","1,0.5,0,1,0.5,0,0.5,0,1","1","",""
"","html-keyboard-response","157","148090","0.0-157.0","3A7Y0R2P2PAQDNO8NZ3VGBRIC9IJX0","A1E3N1Y6XG1898","3I7KR83SNAZT1REYB2SRC49PCEEK9H","","null","<img src=""img/food4.png"" style=""width:200px; border:14px solid green;"">","null","","","","","","","","","",""
"","image-keyboard-response","158","148795","0.0-158.0","3A7Y0R2P2PAQDNO8NZ3VGBRIC9IJX0","A1E3N1Y6XG1898","3I7KR83SNAZT1REYB2SRC49PCEEK9H","","703.6999999880791","img/food6.png","76","704.2999999970198","3","1","3","1","1,0.5,0,1,0.5,0,0.5,0,1","1,0.5,0,1,0.5,0,0.5,0,1","1","",""
"","html-keyboard-response","159","149096","0.0-159.0","3A7Y0R2P2PAQDNO8NZ3VGBRIC9IJX0","A1E3N1Y6XG1898","3I7KR83SNAZT1REYB2SRC49PCEEK9H","","null","<img src=""img/food6.png"" style=""width:200px; border:14px solid green;"">","null","","","","","","","","","",""
"","image-keyboard-response","160","149771","0.0-160.0","3A7Y0R2P2PAQDNO8NZ3VGBRIC9IJX0","A1E3N1Y6XG1898","3I7KR83SNAZT1REYB2SRC49PCEEK9H","","674.2999999970198","img/food2.png","75","675","2","0","2","1","1,0.5,0,1,0.5,0,0.5,0,1","1,0.5,0,1,0.5,0,0.5,0,1","1","",""
"","html-keyboard-response","161","150073","0.0-161.0","3A7Y0R2P2PAQDNO8NZ3VGBRIC9IJX0","A1E3N1Y6XG1898","3I7KR83SNAZT1REYB2SRC49PCEEK9H","","null","<img src=""img/food2.png"" style=""width:200px;border:14px solid red;"">","null","","","","","","","","","",""
"","image-keyboard-response","162","150714","0.0-162.0","3A7Y0R2P2PAQDNO8NZ3VGBRIC9IJX0","A1E3N1Y6XG1898","3I7KR83SNAZT1REYB2SRC49PCEEK9H","","640.2999999970198","img/food2.png","75","640.8999999910593","2","1","2","1","1,0.5,0,1,0.5,0,0.5,0,1","1,0.5,0,1,0.5,0,0.5,0,1","1","",""
"","html-keyboard-response","163","151017","0.0-163.0","3A7Y0R2P2PAQDNO8NZ3VGBRIC9IJX0","A1E3N1Y6XG1898","3I7KR83SNAZT1REYB2SRC49PCEEK9H","","null","<img src=""img/food2.png"" style=""width:200px; border:14px solid green;"">","null","","","","","","","","","",""
"","image-keyboard-response","164","151980","0.0-164.0","3A7Y0R2P2PAQDNO8NZ3VGBRIC9IJX0","A1E3N1Y6XG1898","3I7KR83SNAZT1REYB2SRC49PCEEK9H","","962.6000000089407","img/food6.png","76","963.4000000059605","3","1","3","1","1,0.5,0,1,0.5,0,0.5,0,1","1,0.5,0,1,0.5,0,0.5,0,1","1","",""
"","html-keyboard-response","165","152283","0.0-165.0","3A7Y0R2P2PAQDNO8NZ3VGBRIC9IJX0","A1E3N1Y6XG1898","3I7KR83SNAZT1REYB2SRC49PCEEK9H","","null","<img src=""img/food6.png"" style=""width:200px; border:14px solid green;"">","null","","","","","","","","","",""
"","image-keyboard-response","166","152948","0.0-166.0","3A7Y0R2P2PAQDNO8NZ3VGBRIC9IJX0","A1E3N1Y6XG1898","3I7KR83SNAZT1REYB2SRC49PCEEK9H","","664.2999999970198","img/food4.png","74","665","1","1","1","1","1,0.5,0,1,0.5,0,0.5,0,1","1,0.5,0,1,0.5,0,0.5,0,1","1","",""
"","html-keyboard-response","167","153250","0.0-167.0","3A7Y0R2P2PAQDNO8NZ3VGBRIC9IJX0","A1E3N1Y6XG1898","3I7KR83SNAZT1REYB2SRC49PCEEK9H","","null","<img src=""img/food4.png"" style=""width:200px; border:14px solid green;"">","null","","","","","","","","","",""
"","image-keyboard-response","168","154134","0.0-168.0","3A7Y0R2P2PAQDNO8NZ3VGBRIC9IJX0","A1E3N1Y6XG1898","3I7KR83SNAZT1REYB2SRC49PCEEK9H","","883.0999999940395","img/food6.png","76","883.7000000029802","3","1","3","1","1,0.5,0,1,0.5,0,0.5,0,1","1,0.5,0,1,0.5,0,0.5,0,1","1","",""
"","html-keyboard-response","169","154440","0.0-169.0","3A7Y0R2P2PAQDNO8NZ3VGBRIC9IJX0","A1E3N1Y6XG1898","3I7KR83SNAZT1REYB2SRC49PCEEK9H","","null","<img src=""img/food6.png"" style=""width:200px; border:14px solid green;"">","null","","","","","","","","","",""
"","image-keyboard-response","170","155146","0.0-170.0","3A7Y0R2P2PAQDNO8NZ3VGBRIC9IJX0","A1E3N1Y6XG1898","3I7KR83SNAZT1REYB2SRC49PCEEK9H","","703.7999999970198","img/food4.png","74","704.5999999940395","1","1","1","1","1,0.5,0,1,0.5,0,0.5,0,1","1,0.5,0,1,0.5,0,0.5,0,1","1","",""
"","html-keyboard-response","171","155448","0.0-171.0","3A7Y0R2P2PAQDNO8NZ3VGBRIC9IJX0","A1E3N1Y6XG1898","3I7KR83SNAZT1REYB2SRC49PCEEK9H","","null","<img src=""img/food4.png"" style=""width:200px; border:14px solid green;"">","null","","","","","","","","","",""
"","image-keyboard-response","172","156116","0.0-172.0","3A7Y0R2P2PAQDNO8NZ3VGBRIC9IJX0","A1E3N1Y6XG1898","3I7KR83SNAZT1REYB2SRC49PCEEK9H","","667.4000000059605","img/food2.png","75","668.0999999940395","2","1","2","1","1,0.5,0,1,0.5,0,0.5,0,1","1,0.5,0,1,0.5,0,0.5,0,1","1","",""
"","html-keyboard-response","173","156418","0.0-173.0","3A7Y0R2P2PAQDNO8NZ3VGBRIC9IJX0","A1E3N1Y6XG1898","3I7KR83SNAZT1REYB2SRC49PCEEK9H","","null","<img src=""img/food2.png"" style=""width:200px; border:14px solid green;"">","null","","","","","","","","","",""
"","image-keyboard-response","174","157043","0.0-174.0","3A7Y0R2P2PAQDNO8NZ3VGBRIC9IJX0","A1E3N1Y6XG1898","3I7KR83SNAZT1REYB2SRC49PCEEK9H","","623.6000000089407","img/food4.png","74","624.5","1","1","1","1","1,0.5,0,1,0.5,0,0.5,0,1","1,0.5,0,1,0.5,0,0.5,0,1","1","",""
"","html-keyboard-response","175","157348","0.0-175.0","3A7Y0R2P2PAQDNO8NZ3VGBRIC9IJX0","A1E3N1Y6XG1898","3I7KR83SNAZT1REYB2SRC49PCEEK9H","","null","<img src=""img/food4.png"" style=""width:200px; border:14px solid green;"">","null","","","","","","","","","",""
"","image-keyboard-response","176","158063","0.0-176.0","3A7Y0R2P2PAQDNO8NZ3VGBRIC9IJX0","A1E3N1Y6XG1898","3I7KR83SNAZT1REYB2SRC49PCEEK9H","","714.1000000089407","img/food6.png","76","714.7999999970198","3","1","3","1","1,0.5,0,1,0.5,0,0.5,0,1","1,0.5,0,1,0.5,0,0.5,0,1","1","",""
"","html-keyboard-response","177","158370","0.0-177.0","3A7Y0R2P2PAQDNO8NZ3VGBRIC9IJX0","A1E3N1Y6XG1898","3I7KR83SNAZT1REYB2SRC49PCEEK9H","","null","<img src=""img/food6.png"" style=""width:200px; border:14px solid green;"">","null","","","","","","","","","",""
"","image-keyboard-response","178","159121","0.0-178.0","3A7Y0R2P2PAQDNO8NZ3VGBRIC9IJX0","A1E3N1Y6XG1898","3I7KR83SNAZT1REYB2SRC49PCEEK9H","","750.2000000029802","img/food6.png","76","750.9000000059605","3","1","3","1","1,0.5,0,1,0.5,0,0.5,0,1","1,0.5,0,1,0.5,0,0.5,0,1","1","",""
"","html-keyboard-response","179","159425","0.0-179.0","3A7Y0R2P2PAQDNO8NZ3VGBRIC9IJX0","A1E3N1Y6XG1898","3I7KR83SNAZT1REYB2SRC49PCEEK9H","","null","<img src=""img/food6.png"" style=""width:200px; border:14px solid green;"">","null","","","","","","","","","",""
"","image-keyboard-response","180","160182","0.0-180.0","3A7Y0R2P2PAQDNO8NZ3VGBRIC9IJX0","A1E3N1Y6XG1898","3I7KR83SNAZT1REYB2SRC49PCEEK9H","","755.2000000029802","img/food4.png","74","755.9000000059605","1","1","1","1","1,0.5,0,1,0.5,0,0.5,0,1","1,0.5,0,1,0.5,0,0.5,0,1","1","",""
"","html-keyboard-response","181","160487","0.0-181.0","3A7Y0R2P2PAQDNO8NZ3VGBRIC9IJX0","A1E3N1Y6XG1898","3I7KR83SNAZT1REYB2SRC49PCEEK9H","","null","<img src=""img/food4.png"" style=""width:200px; border:14px solid green;"">","null","","","","","","","","","",""
"","html-keyboard-response","182","167798","0.0-182.0","3A7Y0R2P2PAQDNO8NZ3VGBRIC9IJX0","A1E3N1Y6XG1898","3I7KR83SNAZT1REYB2SRC49PCEEK9H","","","","","","","","","","","","","",""
"","instructions","183","179004","0.0-183.0","3A7Y0R2P2PAQDNO8NZ3VGBRIC9IJX0","A1E3N1Y6XG1898","3I7KR83SNAZT1REYB2SRC49PCEEK9H","[{""page_index"":0,""viewing_time"":9248.09999999404},{""page_index"":1,""viewing_time"":1956.2000000029802}]","11204.5","","","","","","","","","","","",""
"","image-keyboard-response","184","180008","0.0-184.0","3A7Y0R2P2PAQDNO8NZ3VGBRIC9IJX0","A1E3N1Y6XG1898","3I7KR83SNAZT1REYB2SRC49PCEEK9H","","","img/food3.png","","1003.7999999970198","-1","0","2","2","1,0.5,0,1,0.5,0,0.5,0,1","1,0.5,0,1,0.5,0,0.5,0,1","1","true",""
"","html-keyboard-response","185","180312","0.0-185.0","3A7Y0R2P2PAQDNO8NZ3VGBRIC9IJX0","A1E3N1Y6XG1898","3I7KR83SNAZT1REYB2SRC49PCEEK9H","","null","<img src=""img/food3.png"" style=""width:200px;border:14px solid red;"">","null","","","","","","","","","",""
"","html-keyboard-response","186","186349","0.0-186.0-0.0","3A7Y0R2P2PAQDNO8NZ3VGBRIC9IJX0","A1E3N1Y6XG1898","3I7KR83SNAZT1REYB2SRC49PCEEK9H","","","","","","","","","","","","","",""
"","image-keyboard-response","187","186988","0.0-187.0","3A7Y0R2P2PAQDNO8NZ3VGBRIC9IJX0","A1E3N1Y6XG1898","3I7KR83SNAZT1REYB2SRC49PCEEK9H","","638.0999999940395","img/food5.png","75","638.7999999970198","2","1","1","2","1,0.5,0,1,0.5,0,0.5,0,1","1,0.5,0,1,0.5,0,0.5,0,1","1","false",""
"","html-keyboard-response","188","187293","0.0-188.0","3A7Y0R2P2PAQDNO8NZ3VGBRIC9IJX0","A1E3N1Y6XG1898","3I7KR83SNAZT1REYB2SRC49PCEEK9H","","null","<img src=""img/food5.png"" style=""width:200px; border:14px solid green;"">","null","","","","","","","","","",""
"","image-keyboard-response","189","188086","0.0-190.0","3A7Y0R2P2PAQDNO8NZ3VGBRIC9IJX0","A1E3N1Y6XG1898","3I7KR83SNAZT1REYB2SRC49PCEEK9H","","791.1999999880791","img/food3.png","76","792","3","0","2","2","1,0.5,0,1,0.5,0,0.5,0,1","1,0.5,0,1,0.5,0,0.5,0,1","1","false",""
"","html-keyboard-response","190","188393","0.0-191.0","3A7Y0R2P2PAQDNO8NZ3VGBRIC9IJX0","A1E3N1Y6XG1898","3I7KR83SNAZT1REYB2SRC49PCEEK9H","","null","<img src=""img/food3.png"" style=""width:200px;border:14px solid red;"">","null","","","","","","","","","",""
"","image-keyboard-response","191","189304","0.0-193.0","3A7Y0R2P2PAQDNO8NZ3VGBRIC9IJX0","A1E3N1Y6XG1898","3I7KR83SNAZT1REYB2SRC49PCEEK9H","","910","img/food3.png","75","910.7999999970198","2","1","2","2","1,0.5,0,1,0.5,0,0.5,0,1","1,0.5,0,1,0.5,0,0.5,0,1","1","false",""
"","html-keyboard-response","192","189607","0.0-194.0","3A7Y0R2P2PAQDNO8NZ3VGBRIC9IJX0","A1E3N1Y6XG1898","3I7KR83SNAZT1REYB2SRC49PCEEK9H","","null","<img src=""img/food3.png"" style=""width:200px; border:14px solid green;"">","null","","","","","","","","","",""
"","image-keyboard-response","193","190565","0.0-196.0","3A7Y0R2P2PAQDNO8NZ3VGBRIC9IJX0","A1E3N1Y6XG1898","3I7KR83SNAZT1REYB2SRC49PCEEK9H","","957.2999999970198","img/food1.png","74","958.0999999940395","1","1","3","2","1,0.5,0,1,0.5,0,0.5,0,1","1,0.5,0,1,0.5,0,0.5,0,1","1","false",""
"","html-keyboard-response","194","190867","0.0-197.0","3A7Y0R2P2PAQDNO8NZ3VGBRIC9IJX0","A1E3N1Y6XG1898","3I7KR83SNAZT1REYB2SRC49PCEEK9H","","null","<img src=""img/food1.png"" style=""width:200px; border:14px solid green;"">","null","","","","","","","","","",""
"","image-keyboard-response","195","191638","0.0-199.0","3A7Y0R2P2PAQDNO8NZ3VGBRIC9IJX0","A1E3N1Y6XG1898","3I7KR83SNAZT1REYB2SRC49PCEEK9H","","770.2000000029802","img/food3.png","75","771","2","1","2","2","1,0.5,0,1,0.5,0,0.5,0,1","1,0.5,0,1,0.5,0,0.5,0,1","1","false",""
"","html-keyboard-response","196","191944","0.0-200.0","3A7Y0R2P2PAQDNO8NZ3VGBRIC9IJX0","A1E3N1Y6XG1898","3I7KR83SNAZT1REYB2SRC49PCEEK9H","","null","<img src=""img/food3.png"" style=""width:200px; border:14px solid green;"">","null","","","","","","","","","",""
"","image-keyboard-response","197","192842","0.0-202.0","3A7Y0R2P2PAQDNO8NZ3VGBRIC9IJX0","A1E3N1Y6XG1898","3I7KR83SNAZT1REYB2SRC49PCEEK9H","","895.2999999970198","img/food5.png","76","896","3","0","1","2","1,0.5,0,1,0.5,0,0.5,0,1","1,0.5,0,1,0.5,0,0.5,0,1","1","false",""
"","html-keyboard-response","198","193148","0.0-203.0","3A7Y0R2P2PAQDNO8NZ3VGBRIC9IJX0","A1E3N1Y6XG1898","3I7KR83SNAZT1REYB2SRC49PCEEK9H","","null","<img src=""img/food5.png"" style=""width:200px;border:14px solid red;"">","null","","","","","","","","","",""
"","image-keyboard-response","199","194152","0.0-205.0","3A7Y0R2P2PAQDNO8NZ3VGBRIC9IJX0","A1E3N1Y6XG1898","3I7KR83SNAZT1REYB2SRC49PCEEK9H","","","img/food5.png","","1003.5999999940395","-1","0","1","2","1,0.5,0,1,0.5,0,0.5,0,1","1,0.5,0,1,0.5,0,0.5,0,1","1","true",""
"","html-keyboard-response","200","194456","0.0-206.0","3A7Y0R2P2PAQDNO8NZ3VGBRIC9IJX0","A1E3N1Y6XG1898","3I7KR83SNAZT1REYB2SRC49PCEEK9H","","null","<img src=""img/food5.png"" style=""width:200px;border:14px solid red;"">","null","","","","","","","","","",""
"","html-keyboard-response","201","197769","0.0-207.0-0.0","3A7Y0R2P2PAQDNO8NZ3VGBRIC9IJX0","A1E3N1Y6XG1898","3I7KR83SNAZT1REYB2SRC49PCEEK9H","","","","","","","","","","","","","",""
"","image-keyboard-response","202","198450","0.0-208.0","3A7Y0R2P2PAQDNO8NZ3VGBRIC9IJX0","A1E3N1Y6XG1898","3I7KR83SNAZT1REYB2SRC49PCEEK9H","","680.2999999970198","img/food1.png","74","681.2000000029802","1","0","3","2","1,0.5,0,1,0.5,0,0.5,0,1","1,0.5,0,1,0.5,0,0.5,0,1","1","false",""
"","html-keyboard-response","203","198754","0.0-209.0","3A7Y0R2P2PAQDNO8NZ3VGBRIC9IJX0","A1E3N1Y6XG1898","3I7KR83SNAZT1REYB2SRC49PCEEK9H","","null","<img src=""img/food1.png"" style=""width:200px;border:14px solid red;"">","null","","","","","","","","","",""
"","image-keyboard-response","204","199614","0.0-211.0","3A7Y0R2P2PAQDNO8NZ3VGBRIC9IJX0","A1E3N1Y6XG1898","3I7KR83SNAZT1REYB2SRC49PCEEK9H","","858.6000000089407","img/food1.png","74","859.2999999970198","1","1","3","2","1,0.5,0,1,0.5,0,0.5,0,1","1,0.5,0,1,0.5,0,0.5,0,1","1","false",""
"","html-keyboard-response","205","199917","0.0-212.0","3A7Y0R2P2PAQDNO8NZ3VGBRIC9IJX0","A1E3N1Y6XG1898","3I7KR83SNAZT1REYB2SRC49PCEEK9H","","null","<img src=""img/food1.png"" style=""width:200px; border:14px solid green;"">","null","","","","","","","","","",""
"","image-keyboard-response","206","200665","0.0-214.0","3A7Y0R2P2PAQDNO8NZ3VGBRIC9IJX0","A1E3N1Y6XG1898","3I7KR83SNAZT1REYB2SRC49PCEEK9H","","747.3000000119209","img/food1.png","74","748.1000000089407","1","1","3","2","1,0.5,0,1,0.5,0,0.5,0,1","1,0.5,0,1,0.5,0,0.5,0,1","1","false",""
"","html-keyboard-response","207","200968","0.0-215.0","3A7Y0R2P2PAQDNO8NZ3VGBRIC9IJX0","A1E3N1Y6XG1898","3I7KR83SNAZT1REYB2SRC49PCEEK9H","","null","<img src=""img/food1.png"" style=""width:200px; border:14px solid green;"">","null","","","","","","","","","",""
"","image-keyboard-response","208","201795","0.0-217.0","3A7Y0R2P2PAQDNO8NZ3VGBRIC9IJX0","A1E3N1Y6XG1898","3I7KR83SNAZT1REYB2SRC49PCEEK9H","","825.7999999970198","img/food3.png","75","826.3999999910593","2","1","2","2","1,0.5,0,1,0.5,0,0.5,0,1","1,0.5,0,1,0.5,0,0.5,0,1","1","false",""
"","html-keyboard-response","209","202097","0.0-218.0","3A7Y0R2P2PAQDNO8NZ3VGBRIC9IJX0","A1E3N1Y6XG1898","3I7KR83SNAZT1REYB2SRC49PCEEK9H","","null","<img src=""img/food3.png"" style=""width:200px; border:14px solid green;"">","null","","","","","","","","","",""
"","image-keyboard-response","210","202763","0.0-220.0","3A7Y0R2P2PAQDNO8NZ3VGBRIC9IJX0","A1E3N1Y6XG1898","3I7KR83SNAZT1REYB2SRC49PCEEK9H","","664.9000000059605","img/food3.png","75","665.6000000089407","2","1","2","2","1,0.5,0,1,0.5,0,0.5,0,1","1,0.5,0,1,0.5,0,0.5,0,1","1","false",""
"","html-keyboard-response","211","203065","0.0-221.0","3A7Y0R2P2PAQDNO8NZ3VGBRIC9IJX0","A1E3N1Y6XG1898","3I7KR83SNAZT1REYB2SRC49PCEEK9H","","null","<img src=""img/food3.png"" style=""width:200px; border:14px solid green;"">","null","","","","","","","","","",""
"","image-keyboard-response","212","203751","0.0-223.0","3A7Y0R2P2PAQDNO8NZ3VGBRIC9IJX0","A1E3N1Y6XG1898","3I7KR83SNAZT1REYB2SRC49PCEEK9H","","684.7000000029802","img/food5.png","76","685.3999999910593","3","0","1","2","1,0.5,0,1,0.5,0,0.5,0,1","1,0.5,0,1,0.5,0,0.5,0,1","1","false",""
"","html-keyboard-response","213","204052","0.0-224.0","3A7Y0R2P2PAQDNO8NZ3VGBRIC9IJX0","A1E3N1Y6XG1898","3I7KR83SNAZT1REYB2SRC49PCEEK9H","","null","<img src=""img/food5.png"" style=""width:200px;border:14px solid red;"">","null","","","","","","","","","",""
"","image-keyboard-response","214","204676","0.0-226.0","3A7Y0R2P2PAQDNO8NZ3VGBRIC9IJX0","A1E3N1Y6XG1898","3I7KR83SNAZT1REYB2SRC49PCEEK9H","","622.3999999910593","img/food5.png","75","623.1000000089407","2","0","1","2","1,0.5,0,1,0.5,0,0.5,0,1","1,0.5,0,1,0.5,0,0.5,0,1","1","false",""
"","html-keyboard-response","215","204979","0.0-227.0","3A7Y0R2P2PAQDNO8NZ3VGBRIC9IJX0","A1E3N1Y6XG1898","3I7KR83SNAZT1REYB2SRC49PCEEK9H","","null","<img src=""img/food5.png"" style=""width:200px;border:14px solid red;"">","null","","","","","","","","","",""
"","image-keyboard-response","216","205935","0.0-229.0","3A7Y0R2P2PAQDNO8NZ3VGBRIC9IJX0","A1E3N1Y6XG1898","3I7KR83SNAZT1REYB2SRC49PCEEK9H","","954.7999999970198","img/food5.png","74","955.4000000059605","1","1","1","2","1,0.5,0,1,0.5,0,0.5,0,1","1,0.5,0,1,0.5,0,0.5,0,1","1","false",""
"","html-keyboard-response","217","206241","0.0-230.0","3A7Y0R2P2PAQDNO8NZ3VGBRIC9IJX0","A1E3N1Y6XG1898","3I7KR83SNAZT1REYB2SRC49PCEEK9H","","null","<img src=""img/food5.png"" style=""width:200px; border:14px solid green;"">","null","","","","","","","","","",""
"","image-keyboard-response","218","207188","0.0-232.0","3A7Y0R2P2PAQDNO8NZ3VGBRIC9IJX0","A1E3N1Y6XG1898","3I7KR83SNAZT1REYB2SRC49PCEEK9H","","945","img/food3.png","75","945.7000000029802","2","0","2","2","1,0.5,0,1,0.5,0,0.5,0,1","1,0.5,0,1,0.5,0,0.5,0,1","1","false",""
"","html-keyboard-response","219","207492","0.0-233.0","3A7Y0R2P2PAQDNO8NZ3VGBRIC9IJX0","A1E3N1Y6XG1898","3I7KR83SNAZT1REYB2SRC49PCEEK9H","","null","<img src=""img/food3.png"" style=""width:200px;border:14px solid red;"">","null","","","","","","","","","",""
"","image-keyboard-response","220","208497","0.0-235.0","3A7Y0R2P2PAQDNO8NZ3VGBRIC9IJX0","A1E3N1Y6XG1898","3I7KR83SNAZT1REYB2SRC49PCEEK9H","","","img/food3.png","","1004.5","-1","0","2","2","1,0.5,0,1,0.5,0,0.5,0,1","1,0.5,0,1,0.5,0,0.5,0,1","1","true",""
"","html-keyboard-response","221","208799","0.0-236.0","3A7Y0R2P2PAQDNO8NZ3VGBRIC9IJX0","A1E3N1Y6XG1898","3I7KR83SNAZT1REYB2SRC49PCEEK9H","","null","<img src=""img/food3.png"" style=""width:200px;border:14px solid red;"">","null","","","","","","","","","",""
"","html-keyboard-response","222","212572","0.0-237.0-0.0","3A7Y0R2P2PAQDNO8NZ3VGBRIC9IJX0","A1E3N1Y6XG1898","3I7KR83SNAZT1REYB2SRC49PCEEK9H","","","","","","","","","","","","","",""
"","image-keyboard-response","223","213244","0.0-238.0","3A7Y0R2P2PAQDNO8NZ3VGBRIC9IJX0","A1E3N1Y6XG1898","3I7KR83SNAZT1REYB2SRC49PCEEK9H","","671.5","img/food3.png","76","672.2999999970198","3","0","2","2","1,0.5,0,1,0.5,0,0.5,0,1","1,0.5,0,1,0.5,0,0.5,0,1","1","false",""
"","html-keyboard-response","224","213549","0.0-239.0","3A7Y0R2P2PAQDNO8NZ3VGBRIC9IJX0","A1E3N1Y6XG1898","3I7KR83SNAZT1REYB2SRC49PCEEK9H","","null","<img src=""img/food3.png"" style=""width:200px;border:14px solid red;"">","null","","","","","","","","","",""
"","image-keyboard-response","225","214118","0.0-241.0","3A7Y0R2P2PAQDNO8NZ3VGBRIC9IJX0","A1E3N1Y6XG1898","3I7KR83SNAZT1REYB2SRC49PCEEK9H","","567.7999999970198","img/food5.png","75","568.1999999880791","2","0","1","2","1,0.5,0,1,0.5,0,0.5,0,1","1,0.5,0,1,0.5,0,0.5,0,1","1","false",""
"","html-keyboard-response","226","214420","0.0-242.0","3A7Y0R2P2PAQDNO8NZ3VGBRIC9IJX0","A1E3N1Y6XG1898","3I7KR83SNAZT1REYB2SRC49PCEEK9H","","null","<img src=""img/food5.png"" style=""width:200px;border:14px solid red;"">","null","","","","","","","","","",""
"","image-keyboard-response","227","215035","0.0-244.0","3A7Y0R2P2PAQDNO8NZ3VGBRIC9IJX0","A1E3N1Y6XG1898","3I7KR83SNAZT1REYB2SRC49PCEEK9H","","613.7999999970198","img/food3.png","76","614.4000000059605","3","0","2","2","1,0.5,0,1,0.5,0,0.5,0,1","1,0.5,0,1,0.5,0,0.5,0,1","1","false",""
"","html-keyboard-response","228","215340","0.0-245.0","3A7Y0R2P2PAQDNO8NZ3VGBRIC9IJX0","A1E3N1Y6XG1898","3I7KR83SNAZT1REYB2SRC49PCEEK9H","","null","<img src=""img/food3.png"" style=""width:200px;border:14px solid red;"">","null","","","","","","","","","",""
"","image-keyboard-response","229","215750","0.0-247.0","3A7Y0R2P2PAQDNO8NZ3VGBRIC9IJX0","A1E3N1Y6XG1898","3I7KR83SNAZT1REYB2SRC49PCEEK9H","","407.59999999403954","img/food5.png","74","408.29999999701977","1","1","1","2","1,0.5,0,1,0.5,0,0.5,0,1","1,0.5,0,1,0.5,0,0.5,0,1","1","false",""
"","html-keyboard-response","230","216054","0.0-248.0","3A7Y0R2P2PAQDNO8NZ3VGBRIC9IJX0","A1E3N1Y6XG1898","3I7KR83SNAZT1REYB2SRC49PCEEK9H","","null","<img src=""img/food5.png"" style=""width:200px; border:14px solid green;"">","null","","","","","","","","","",""
"","image-keyboard-response","231","216758","0.0-250.0","3A7Y0R2P2PAQDNO8NZ3VGBRIC9IJX0","A1E3N1Y6XG1898","3I7KR83SNAZT1REYB2SRC49PCEEK9H","","703.5","img/food3.png","74","704.2000000029802","1","1","2","2","1,0.5,0,1,0.5,0,0.5,0,1","1,0.5,0,1,0.5,0,0.5,0,1","1","false",""
"","html-keyboard-response","232","217063","0.0-251.0","3A7Y0R2P2PAQDNO8NZ3VGBRIC9IJX0","A1E3N1Y6XG1898","3I7KR83SNAZT1REYB2SRC49PCEEK9H","","null","<img src=""img/food3.png"" style=""width:200px; border:14px solid green;"">","null","","","","","","","","","",""
"","image-keyboard-response","233","217587","0.0-253.0","3A7Y0R2P2PAQDNO8NZ3VGBRIC9IJX0","A1E3N1Y6XG1898","3I7KR83SNAZT1REYB2SRC49PCEEK9H","","522.8999999910593","img/food3.png","74","523.6999999880791","1","1","2","2","1,0.5,0,1,0.5,0,0.5,0,1","1,0.5,0,1,0.5,0,0.5,0,1","1","false",""
"","html-keyboard-response","234","217889","0.0-254.0","3A7Y0R2P2PAQDNO8NZ3VGBRIC9IJX0","A1E3N1Y6XG1898","3I7KR83SNAZT1REYB2SRC49PCEEK9H","","null","<img src=""img/food3.png"" style=""width:200px; border:14px solid green;"">","null","","","","","","","","","",""
"","image-keyboard-response","235","218398","0.0-256.0","3A7Y0R2P2PAQDNO8NZ3VGBRIC9IJX0","A1E3N1Y6XG1898","3I7KR83SNAZT1REYB2SRC49PCEEK9H","","508.20000000298023","img/food5.png","75","508.90000000596046","2","1","1","2","1,0.5,0,1,0.5,0,0.5,0,1","1,0.5,0,1,0.5,0,0.5,0,1","1","false",""
"","html-keyboard-response","236","218702","0.0-257.0","3A7Y0R2P2PAQDNO8NZ3VGBRIC9IJX0","A1E3N1Y6XG1898","3I7KR83SNAZT1REYB2SRC49PCEEK9H","","null","<img src=""img/food5.png"" style=""width:200px; border:14px solid green;"">","null","","","","","","","","","",""
"","image-keyboard-response","237","219485","0.0-259.0","3A7Y0R2P2PAQDNO8NZ3VGBRIC9IJX0","A1E3N1Y6XG1898","3I7KR83SNAZT1REYB2SRC49PCEEK9H","","781.5","img/food1.png","76","782.2999999970198","3","1","3","2","1,0.5,0,1,0.5,0,0.5,0,1","1,0.5,0,1,0.5,0,0.5,0,1","1","false",""
"","html-keyboard-response","238","219787","0.0-260.0","3A7Y0R2P2PAQDNO8NZ3VGBRIC9IJX0","A1E3N1Y6XG1898","3I7KR83SNAZT1REYB2SRC49PCEEK9H","","null","<img src=""img/food1.png"" style=""width:200px; border:14px solid green;"">","null","","","","","","","","","",""
"","image-keyboard-response","239","220575","0.0-262.0","3A7Y0R2P2PAQDNO8NZ3VGBRIC9IJX0","A1E3N1Y6XG1898","3I7KR83SNAZT1REYB2SRC49PCEEK9H","","785.9000000059605","img/food5.png","74","786.5999999940395","1","1","1","2","1,0.5,0,1,0.5,0,0.5,0,1","1,0.5,0,1,0.5,0,0.5,0,1","1","false",""
"","html-keyboard-response","240","220877","0.0-263.0","3A7Y0R2P2PAQDNO8NZ3VGBRIC9IJX0","A1E3N1Y6XG1898","3I7KR83SNAZT1REYB2SRC49PCEEK9H","","null","<img src=""img/food5.png"" style=""width:200px; border:14px solid green;"">","null","","","","","","","","","",""
"","image-keyboard-response","241","221469","0.0-265.0","3A7Y0R2P2PAQDNO8NZ3VGBRIC9IJX0","A1E3N1Y6XG1898","3I7KR83SNAZT1REYB2SRC49PCEEK9H","","591","img/food5.png","74","591.6999999880791","1","1","1","2","1,0.5,0,1,0.5,0,0.5,0,1","1,0.5,0,1,0.5,0,0.5,0,1","1","false",""
"","html-keyboard-response","242","221771","0.0-266.0","3A7Y0R2P2PAQDNO8NZ3VGBRIC9IJX0","A1E3N1Y6XG1898","3I7KR83SNAZT1REYB2SRC49PCEEK9H","","null","<img src=""img/food5.png"" style=""width:200px; border:14px solid green;"">","null","","","","","","","","","",""
"","image-keyboard-response","243","222340","0.0-268.0","3A7Y0R2P2PAQDNO8NZ3VGBRIC9IJX0","A1E3N1Y6XG1898","3I7KR83SNAZT1REYB2SRC49PCEEK9H","","568.1000000089407","img/food5.png","74","568.6999999880791","1","1","1","2","1,0.5,0,1,0.5,0,0.5,0,1","1,0.5,0,1,0.5,0,0.5,0,1","1","false",""
"","html-keyboard-response","244","222642","0.0-269.0","3A7Y0R2P2PAQDNO8NZ3VGBRIC9IJX0","A1E3N1Y6XG1898","3I7KR83SNAZT1REYB2SRC49PCEEK9H","","null","<img src=""img/food5.png"" style=""width:200px; border:14px solid green;"">","null","","","","","","","","","",""
"","image-keyboard-response","245","223147","0.0-271.0","3A7Y0R2P2PAQDNO8NZ3VGBRIC9IJX0","A1E3N1Y6XG1898","3I7KR83SNAZT1REYB2SRC49PCEEK9H","","503.29999999701977","img/food3.png","75","504.19999998807907","2","1","2","2","1,0.5,0,1,0.5,0,0.5,0,1","1,0.5,0,1,0.5,0,0.5,0,1","1","false",""
"","html-keyboard-response","246","223451","0.0-272.0","3A7Y0R2P2PAQDNO8NZ3VGBRIC9IJX0","A1E3N1Y6XG1898","3I7KR83SNAZT1REYB2SRC49PCEEK9H","","null","<img src=""img/food3.png"" style=""width:200px; border:14px solid green;"">","null","","","","","","","","","",""
"","image-keyboard-response","247","224199","0.0-274.0","3A7Y0R2P2PAQDNO8NZ3VGBRIC9IJX0","A1E3N1Y6XG1898","3I7KR83SNAZT1REYB2SRC49PCEEK9H","","746.5","img/food1.png","76","747.2000000029802","3","1","3","2","1,0.5,0,1,0.5,0,0.5,0,1","1,0.5,0,1,0.5,0,0.5,0,1","1","false",""
"","html-keyboard-response","248","224504","0.0-275.0","3A7Y0R2P2PAQDNO8NZ3VGBRIC9IJX0","A1E3N1Y6XG1898","3I7KR83SNAZT1REYB2SRC49PCEEK9H","","null","<img src=""img/food1.png"" style=""width:200px; border:14px solid green;"">","null","","","","","","","","","",""
"","image-keyboard-response","249","225042","0.0-277.0","3A7Y0R2P2PAQDNO8NZ3VGBRIC9IJX0","A1E3N1Y6XG1898","3I7KR83SNAZT1REYB2SRC49PCEEK9H","","536.7000000029802","img/food1.png","76","537.4000000059605","3","1","3","2","1,0.5,0,1,0.5,0,0.5,0,1","1,0.5,0,1,0.5,0,0.5,0,1","1","false",""
"","html-keyboard-response","250","225347","0.0-278.0","3A7Y0R2P2PAQDNO8NZ3VGBRIC9IJX0","A1E3N1Y6XG1898","3I7KR83SNAZT1REYB2SRC49PCEEK9H","","null","<img src=""img/food1.png"" style=""width:200px; border:14px solid green;"">","null","","","","","","","","","",""
"","image-keyboard-response","251","226134","0.0-280.0","3A7Y0R2P2PAQDNO8NZ3VGBRIC9IJX0","A1E3N1Y6XG1898","3I7KR83SNAZT1REYB2SRC49PCEEK9H","","785.3999999910593","img/food5.png","75","786.1999999880791","2","0","1","2","1,0.5,0,1,0.5,0,0.5,0,1","1,0.5,0,1,0.5,0,0.5,0,1","1","false",""
"","html-keyboard-response","252","226435","0.0-281.0","3A7Y0R2P2PAQDNO8NZ3VGBRIC9IJX0","A1E3N1Y6XG1898","3I7KR83SNAZT1REYB2SRC49PCEEK9H","","null","<img src=""img/food5.png"" style=""width:200px;border:14px solid red;"">","null","","","","","","","","","",""
"","image-keyboard-response","253","226945","0.0-283.0","3A7Y0R2P2PAQDNO8NZ3VGBRIC9IJX0","A1E3N1Y6XG1898","3I7KR83SNAZT1REYB2SRC49PCEEK9H","","509","img/food3.png","74","509.6000000089407","1","1","2","2","1,0.5,0,1,0.5,0,0.5,0,1","1,0.5,0,1,0.5,0,0.5,0,1","1","false",""
"","html-keyboard-response","254","227247","0.0-284.0","3A7Y0R2P2PAQDNO8NZ3VGBRIC9IJX0","A1E3N1Y6XG1898","3I7KR83SNAZT1REYB2SRC49PCEEK9H","","null","<img src=""img/food3.png"" style=""width:200px; border:14px solid green;"">","null","","","","","","","","","",""
"","image-keyboard-response","255","227836","0.0-286.0","3A7Y0R2P2PAQDNO8NZ3VGBRIC9IJX0","A1E3N1Y6XG1898","3I7KR83SNAZT1REYB2SRC49PCEEK9H","","586.9000000059605","img/food1.png","75","588.5","2","0","3","2","1,0.5,0,1,0.5,0,0.5,0,1","1,0.5,0,1,0.5,0,0.5,0,1","1","false",""
"","html-keyboard-response","256","228138","0.0-287.0","3A7Y0R2P2PAQDNO8NZ3VGBRIC9IJX0","A1E3N1Y6XG1898","3I7KR83SNAZT1REYB2SRC49PCEEK9H","","null","<img src=""img/food1.png"" style=""width:200px;border:14px solid red;"">","null","","","","","","","","","",""
"","image-keyboard-response","257","228641","0.0-289.0","3A7Y0R2P2PAQDNO8NZ3VGBRIC9IJX0","A1E3N1Y6XG1898","3I7KR83SNAZT1REYB2SRC49PCEEK9H","","501.5","img/food3.png","74","502.20000000298023","1","1","2","2","1,0.5,0,1,0.5,0,0.5,0,1","1,0.5,0,1,0.5,0,0.5,0,1","1","false",""
"","html-keyboard-response","258","228945","0.0-290.0","3A7Y0R2P2PAQDNO8NZ3VGBRIC9IJX0","A1E3N1Y6XG1898","3I7KR83SNAZT1REYB2SRC49PCEEK9H","","null","<img src=""img/food3.png"" style=""width:200px; border:14px solid green;"">","null","","","","","","","","","",""
"","image-keyboard-response","259","229504","0.0-292.0","3A7Y0R2P2PAQDNO8NZ3VGBRIC9IJX0","A1E3N1Y6XG1898","3I7KR83SNAZT1REYB2SRC49PCEEK9H","","557.5999999940395","img/food5.png","75","558.2999999970198","2","1","1","2","1,0.5,0,1,0.5,0,0.5,0,1","1,0.5,0,1,0.5,0,0.5,0,1","1","false",""
"","html-keyboard-response","260","229809","0.0-293.0","3A7Y0R2P2PAQDNO8NZ3VGBRIC9IJX0","A1E3N1Y6XG1898","3I7KR83SNAZT1REYB2SRC49PCEEK9H","","null","<img src=""img/food5.png"" style=""width:200px; border:14px solid green;"">","null","","","","","","","","","",""
"","image-keyboard-response","261","230260","0.0-295.0","3A7Y0R2P2PAQDNO8NZ3VGBRIC9IJX0","A1E3N1Y6XG1898","3I7KR83SNAZT1REYB2SRC49PCEEK9H","","449.3999999910593","img/food5.png","75","450.20000000298023","2","0","1","2","1,0.5,0,1,0.5,0,0.5,0,1","1,0.5,0,1,0.5,0,0.5,0,1","1","false",""
"","html-keyboard-response","262","230562","0.0-296.0","3A7Y0R2P2PAQDNO8NZ3VGBRIC9IJX0","A1E3N1Y6XG1898","3I7KR83SNAZT1REYB2SRC49PCEEK9H","","null","<img src=""img/food5.png"" style=""width:200px;border:14px solid red;"">","null","","","","","","","","","",""
"","image-keyboard-response","263","231154","0.0-298.0","3A7Y0R2P2PAQDNO8NZ3VGBRIC9IJX0","A1E3N1Y6XG1898","3I7KR83SNAZT1REYB2SRC49PCEEK9H","","591.5","img/food5.png","75","592.1999999880791","2","0","1","2","1,0.5,0,1,0.5,0,0.5,0,1","1,0.5,0,1,0.5,0,0.5,0,1","1","false",""
"","html-keyboard-response","264","231456","0.0-299.0","3A7Y0R2P2PAQDNO8NZ3VGBRIC9IJX0","A1E3N1Y6XG1898","3I7KR83SNAZT1REYB2SRC49PCEEK9H","","null","<img src=""img/food5.png"" style=""width:200px;border:14px solid red;"">","null","","","","","","","","","",""
"","image-keyboard-response","265","232029","0.0-301.0","3A7Y0R2P2PAQDNO8NZ3VGBRIC9IJX0","A1E3N1Y6XG1898","3I7KR83SNAZT1REYB2SRC49PCEEK9H","","572.1000000089407","img/food3.png","74","572.9000000059605","1","1","2","2","1,0.5,0,1,0.5,0,0.5,0,1","1,0.5,0,1,0.5,0,0.5,0,1","1","false",""
"","html-keyboard-response","266","232331","0.0-302.0","3A7Y0R2P2PAQDNO8NZ3VGBRIC9IJX0","A1E3N1Y6XG1898","3I7KR83SNAZT1REYB2SRC49PCEEK9H","","null","<img src=""img/food3.png"" style=""width:200px; border:14px solid green;"">","null","","","","","","","","","",""
"","image-keyboard-response","267","233113","0.0-304.0","3A7Y0R2P2PAQDNO8NZ3VGBRIC9IJX0","A1E3N1Y6XG1898","3I7KR83SNAZT1REYB2SRC49PCEEK9H","","780.1000000089407","img/food1.png","76","780.6999999880791","3","1","3","2","1,0.5,0,1,0.5,0,0.5,0,1","1,0.5,0,1,0.5,0,0.5,0,1","1","false",""
"","html-keyboard-response","268","233416","0.0-305.0","3A7Y0R2P2PAQDNO8NZ3VGBRIC9IJX0","A1E3N1Y6XG1898","3I7KR83SNAZT1REYB2SRC49PCEEK9H","","null","<img src=""img/food1.png"" style=""width:200px; border:14px solid green;"">","null","","","","","","","","","",""
"","image-keyboard-response","269","233917","0.0-307.0","3A7Y0R2P2PAQDNO8NZ3VGBRIC9IJX0","A1E3N1Y6XG1898","3I7KR83SNAZT1REYB2SRC49PCEEK9H","","499.90000000596046","img/food5.png","75","500.6000000089407","2","0","1","2","1,0.5,0,1,0.5,0,0.5,0,1","1,0.5,0,1,0.5,0,0.5,0,1","1","false",""
"","html-keyboard-response","270","234221","0.0-308.0","3A7Y0R2P2PAQDNO8NZ3VGBRIC9IJX0","A1E3N1Y6XG1898","3I7KR83SNAZT1REYB2SRC49PCEEK9H","","null","<img src=""img/food5.png"" style=""width:200px;border:14px solid red;"">","null","","","","","","","","","",""
"","image-keyboard-response","271","234605","0.0-310.0","3A7Y0R2P2PAQDNO8NZ3VGBRIC9IJX0","A1E3N1Y6XG1898","3I7KR83SNAZT1REYB2SRC49PCEEK9H","","383.09999999403954","img/food5.png","74","383.79999999701977","1","1","1","2","1,0.5,0,1,0.5,0,0.5,0,1","1,0.5,0,1,0.5,0,0.5,0,1","1","false",""
"","html-keyboard-response","272","234907","0.0-311.0","3A7Y0R2P2PAQDNO8NZ3VGBRIC9IJX0","A1E3N1Y6XG1898","3I7KR83SNAZT1REYB2SRC49PCEEK9H","","null","<img src=""img/food5.png"" style=""width:200px; border:14px solid green;"">","null","","","","","","","","","",""
"","image-keyboard-response","273","235807","0.0-313.0","3A7Y0R2P2PAQDNO8NZ3VGBRIC9IJX0","A1E3N1Y6XG1898","3I7KR83SNAZT1REYB2SRC49PCEEK9H","","898.6000000089407","img/food1.png","74","899.4000000059605","1","0","3","2","1,0.5,0,1,0.5,0,0.5,0,1","1,0.5,0,1,0.5,0,0.5,0,1","1","false",""
"","html-keyboard-response","274","236111","0.0-314.0","3A7Y0R2P2PAQDNO8NZ3VGBRIC9IJX0","A1E3N1Y6XG1898","3I7KR83SNAZT1REYB2SRC49PCEEK9H","","null","<img src=""img/food1.png"" style=""width:200px;border:14px solid red;"">","null","","","","","","","","","",""
"","image-keyboard-response","275","236601","0.0-316.0","3A7Y0R2P2PAQDNO8NZ3VGBRIC9IJX0","A1E3N1Y6XG1898","3I7KR83SNAZT1REYB2SRC49PCEEK9H","","488.5","img/food5.png","75","489.29999999701977","2","1","1","2","1,0.5,0,1,0.5,0,0.5,0,1","1,0.5,0,1,0.5,0,0.5,0,1","1","false",""
"","html-keyboard-response","276","236906","0.0-317.0","3A7Y0R2P2PAQDNO8NZ3VGBRIC9IJX0","A1E3N1Y6XG1898","3I7KR83SNAZT1REYB2SRC49PCEEK9H","","null","<img src=""img/food5.png"" style=""width:200px; border:14px solid green;"">","null","","","","","","","","","",""
"","image-keyboard-response","277","237398","0.0-319.0","3A7Y0R2P2PAQDNO8NZ3VGBRIC9IJX0","A1E3N1Y6XG1898","3I7KR83SNAZT1REYB2SRC49PCEEK9H","","490.59999999403954","img/food3.png","75","491.29999999701977","2","0","2","2","1,0.5,0,1,0.5,0,0.5,0,1","1,0.5,0,1,0.5,0,0.5,0,1","1","false",""
"","html-keyboard-response","278","237699","0.0-320.0","3A7Y0R2P2PAQDNO8NZ3VGBRIC9IJX0","A1E3N1Y6XG1898","3I7KR83SNAZT1REYB2SRC49PCEEK9H","","null","<img src=""img/food3.png"" style=""width:200px;border:14px solid red;"">","null","","","","","","","","","",""
"","image-keyboard-response","279","238434","0.0-322.0","3A7Y0R2P2PAQDNO8NZ3VGBRIC9IJX0","A1E3N1Y6XG1898","3I7KR83SNAZT1REYB2SRC49PCEEK9H","","734.1000000089407","img/food5.png","74","734.9000000059605","1","1","1","2","1,0.5,0,1,0.5,0,0.5,0,1","1,0.5,0,1,0.5,0,0.5,0,1","1","false",""
"","html-keyboard-response","280","238736","0.0-323.0","3A7Y0R2P2PAQDNO8NZ3VGBRIC9IJX0","A1E3N1Y6XG1898","3I7KR83SNAZT1REYB2SRC49PCEEK9H","","null","<img src=""img/food5.png"" style=""width:200px; border:14px solid green;"">","null","","","","","","","","","",""
"","image-keyboard-response","281","239249","0.0-325.0","3A7Y0R2P2PAQDNO8NZ3VGBRIC9IJX0","A1E3N1Y6XG1898","3I7KR83SNAZT1REYB2SRC49PCEEK9H","","511.1000000089407","img/food3.png","76","511.90000000596046","3","0","2","2","1,0.5,0,1,0.5,0,0.5,0,1","1,0.5,0,1,0.5,0,0.5,0,1","1","false",""
"","html-keyboard-response","282","239550","0.0-326.0","3A7Y0R2P2PAQDNO8NZ3VGBRIC9IJX0","A1E3N1Y6XG1898","3I7KR83SNAZT1REYB2SRC49PCEEK9H","","null","<img src=""img/food3.png"" style=""width:200px;border:14px solid red;"">","null","","","","","","","","","",""
"","image-keyboard-response","283","240095","0.0-328.0","3A7Y0R2P2PAQDNO8NZ3VGBRIC9IJX0","A1E3N1Y6XG1898","3I7KR83SNAZT1REYB2SRC49PCEEK9H","","544.6000000089407","img/food1.png","75","545.2000000029802","2","0","3","2","1,0.5,0,1,0.5,0,0.5,0,1","1,0.5,0,1,0.5,0,0.5,0,1","1","false",""
"","html-keyboard-response","284","240398","0.0-329.0","3A7Y0R2P2PAQDNO8NZ3VGBRIC9IJX0","A1E3N1Y6XG1898","3I7KR83SNAZT1REYB2SRC49PCEEK9H","","null","<img src=""img/food1.png"" style=""width:200px;border:14px solid red;"">","null","","","","","","","","","",""
"","image-keyboard-response","285","240937","0.0-331.0","3A7Y0R2P2PAQDNO8NZ3VGBRIC9IJX0","A1E3N1Y6XG1898","3I7KR83SNAZT1REYB2SRC49PCEEK9H","","537.6000000089407","img/food5.png","75","538.3000000119209","2","1","1","2","1,0.5,0,1,0.5,0,0.5,0,1","1,0.5,0,1,0.5,0,0.5,0,1","1","false",""
"","html-keyboard-response","286","241240","0.0-332.0","3A7Y0R2P2PAQDNO8NZ3VGBRIC9IJX0","A1E3N1Y6XG1898","3I7KR83SNAZT1REYB2SRC49PCEEK9H","","null","<img src=""img/food5.png"" style=""width:200px; border:14px solid green;"">","null","","","","","","","","","",""
"","image-keyboard-response","287","241771","0.0-334.0","3A7Y0R2P2PAQDNO8NZ3VGBRIC9IJX0","A1E3N1Y6XG1898","3I7KR83SNAZT1REYB2SRC49PCEEK9H","","528.5999999940395","img/food1.png","74","529.2999999970198","1","0","3","2","1,0.5,0,1,0.5,0,0.5,0,1","1,0.5,0,1,0.5,0,0.5,0,1","1","false",""
"","html-keyboard-response","288","242073","0.0-335.0","3A7Y0R2P2PAQDNO8NZ3VGBRIC9IJX0","A1E3N1Y6XG1898","3I7KR83SNAZT1REYB2SRC49PCEEK9H","","null","<img src=""img/food1.png"" style=""width:200px;border:14px solid red;"">","null","","","","","","","","","",""
"","image-keyboard-response","289","242592","0.0-337.0","3A7Y0R2P2PAQDNO8NZ3VGBRIC9IJX0","A1E3N1Y6XG1898","3I7KR83SNAZT1REYB2SRC49PCEEK9H","","518.0999999940395","img/food1.png","74","518.7999999970198","1","0","3","2","1,0.5,0,1,0.5,0,0.5,0,1","1,0.5,0,1,0.5,0,0.5,0,1","1","false",""
"","html-keyboard-response","290","242897","0.0-338.0","3A7Y0R2P2PAQDNO8NZ3VGBRIC9IJX0","A1E3N1Y6XG1898","3I7KR83SNAZT1REYB2SRC49PCEEK9H","","null","<img src=""img/food1.png"" style=""width:200px;border:14px solid red;"">","null","","","","","","","","","",""
"","image-keyboard-response","291","243491","0.0-340.0","3A7Y0R2P2PAQDNO8NZ3VGBRIC9IJX0","A1E3N1Y6XG1898","3I7KR83SNAZT1REYB2SRC49PCEEK9H","","592.4000000059605","img/food1.png","76","593.2000000029802","3","1","3","2","1,0.5,0,1,0.5,0,0.5,0,1","1,0.5,0,1,0.5,0,0.5,0,1","1","false",""
"","html-keyboard-response","292","243793","0.0-341.0","3A7Y0R2P2PAQDNO8NZ3VGBRIC9IJX0","A1E3N1Y6XG1898","3I7KR83SNAZT1REYB2SRC49PCEEK9H","","null","<img src=""img/food1.png"" style=""width:200px; border:14px solid green;"">","null","","","","","","","","","",""
"","image-keyboard-response","293","244315","0.0-343.0","3A7Y0R2P2PAQDNO8NZ3VGBRIC9IJX0","A1E3N1Y6XG1898","3I7KR83SNAZT1REYB2SRC49PCEEK9H","","520.7999999970198","img/food5.png","75","521.5","2","1","1","2","1,0.5,0,1,0.5,0,0.5,0,1","1,0.5,0,1,0.5,0,0.5,0,1","1","false",""
"","html-keyboard-response","294","244621","0.0-344.0","3A7Y0R2P2PAQDNO8NZ3VGBRIC9IJX0","A1E3N1Y6XG1898","3I7KR83SNAZT1REYB2SRC49PCEEK9H","","null","<img src=""img/food5.png"" style=""width:200px; border:14px solid green;"">","null","","","","","","","","","",""
"","image-keyboard-response","295","245064","0.0-346.0","3A7Y0R2P2PAQDNO8NZ3VGBRIC9IJX0","A1E3N1Y6XG1898","3I7KR83SNAZT1REYB2SRC49PCEEK9H","","441.70000000298023","img/food3.png","74","442.29999999701977","1","1","2","2","1,0.5,0,1,0.5,0,0.5,0,1","1,0.5,0,1,0.5,0,0.5,0,1","1","false",""
"","html-keyboard-response","296","245368","0.0-347.0","3A7Y0R2P2PAQDNO8NZ3VGBRIC9IJX0","A1E3N1Y6XG1898","3I7KR83SNAZT1REYB2SRC49PCEEK9H","","null","<img src=""img/food3.png"" style=""width:200px; border:14px solid green;"">","null","","","","","","","","","",""
"","image-keyboard-response","297","246034","0.0-349.0","3A7Y0R2P2PAQDNO8NZ3VGBRIC9IJX0","A1E3N1Y6XG1898","3I7KR83SNAZT1REYB2SRC49PCEEK9H","","665.2999999970198","img/food5.png","75","666","2","1","1","2","1,0.5,0,1,0.5,0,0.5,0,1","1,0.5,0,1,0.5,0,0.5,0,1","1","false",""
"","html-keyboard-response","298","246338","0.0-350.0","3A7Y0R2P2PAQDNO8NZ3VGBRIC9IJX0","A1E3N1Y6XG1898","3I7KR83SNAZT1REYB2SRC49PCEEK9H","","null","<img src=""img/food5.png"" style=""width:200px; border:14px solid green;"">","null","","","","","","","","","",""
"","image-keyboard-response","299","246994","0.0-352.0","3A7Y0R2P2PAQDNO8NZ3VGBRIC9IJX0","A1E3N1Y6XG1898","3I7KR83SNAZT1REYB2SRC49PCEEK9H","","655.2000000029802","img/food1.png","76","655.7999999970198","3","1","3","2","1,0.5,0,1,0.5,0,0.5,0,1","1,0.5,0,1,0.5,0,0.5,0,1","1","false",""
"","html-keyboard-response","300","247296","0.0-353.0","3A7Y0R2P2PAQDNO8NZ3VGBRIC9IJX0","A1E3N1Y6XG1898","3I7KR83SNAZT1REYB2SRC49PCEEK9H","","null","<img src=""img/food1.png"" style=""width:200px; border:14px solid green;"">","null","","","","","","","","","",""
"","image-keyboard-response","301","247843","0.0-355.0","3A7Y0R2P2PAQDNO8NZ3VGBRIC9IJX0","A1E3N1Y6XG1898","3I7KR83SNAZT1REYB2SRC49PCEEK9H","","545.9000000059605","img/food5.png","75","546.6000000089407","2","1","1","2","1,0.5,0,1,0.5,0,0.5,0,1","1,0.5,0,1,0.5,0,0.5,0,1","1","false",""
"","html-keyboard-response","302","248146","0.0-356.0","3A7Y0R2P2PAQDNO8NZ3VGBRIC9IJX0","A1E3N1Y6XG1898","3I7KR83SNAZT1REYB2SRC49PCEEK9H","","null","<img src=""img/food5.png"" style=""width:200px; border:14px solid green;"">","null","","","","","","","","","",""
"","image-keyboard-response","303","248668","0.0-358.0","3A7Y0R2P2PAQDNO8NZ3VGBRIC9IJX0","A1E3N1Y6XG1898","3I7KR83SNAZT1REYB2SRC49PCEEK9H","","519.8999999910593","img/food5.png","75","520.7000000029802","2","0","1","2","1,0.5,0,1,0.5,0,0.5,0,1","1,0.5,0,1,0.5,0,0.5,0,1","1","false",""
"","html-keyboard-response","304","248973","0.0-359.0","3A7Y0R2P2PAQDNO8NZ3VGBRIC9IJX0","A1E3N1Y6XG1898","3I7KR83SNAZT1REYB2SRC49PCEEK9H","","null","<img src=""img/food5.png"" style=""width:200px;border:14px solid red;"">","null","","","","","","","","","",""
"","image-keyboard-response","305","249569","0.0-361.0","3A7Y0R2P2PAQDNO8NZ3VGBRIC9IJX0","A1E3N1Y6XG1898","3I7KR83SNAZT1REYB2SRC49PCEEK9H","","594.2000000029802","img/food3.png","74","594.8999999910593","1","1","2","2","1,0.5,0,1,0.5,0,0.5,0,1","1,0.5,0,1,0.5,0,0.5,0,1","1","false",""
"","html-keyboard-response","306","249874","0.0-362.0","3A7Y0R2P2PAQDNO8NZ3VGBRIC9IJX0","A1E3N1Y6XG1898","3I7KR83SNAZT1REYB2SRC49PCEEK9H","","null","<img src=""img/food3.png"" style=""width:200px; border:14px solid green;"">","null","","","","","","","","","",""
"","image-keyboard-response","307","250315","0.0-364.0","3A7Y0R2P2PAQDNO8NZ3VGBRIC9IJX0","A1E3N1Y6XG1898","3I7KR83SNAZT1REYB2SRC49PCEEK9H","","439.19999998807907","img/food3.png","74","439.90000000596046","1","1","2","2","1,0.5,0,1,0.5,0,0.5,0,1","1,0.5,0,1,0.5,0,0.5,0,1","1","false",""
"","html-keyboard-response","308","250617","0.0-365.0","3A7Y0R2P2PAQDNO8NZ3VGBRIC9IJX0","A1E3N1Y6XG1898","3I7KR83SNAZT1REYB2SRC49PCEEK9H","","null","<img src=""img/food3.png"" style=""width:200px; border:14px solid green;"">","null","","","","","","","","","",""
"","image-keyboard-response","309","251053","0.0-367.0","3A7Y0R2P2PAQDNO8NZ3VGBRIC9IJX0","A1E3N1Y6XG1898","3I7KR83SNAZT1REYB2SRC49PCEEK9H","","434.29999999701977","img/food3.png","74","435.09999999403954","1","1","2","2","1,0.5,0,1,0.5,0,0.5,0,1","1,0.5,0,1,0.5,0,0.5,0,1","1","false",""
"","html-keyboard-response","310","251357","0.0-368.0","3A7Y0R2P2PAQDNO8NZ3VGBRIC9IJX0","A1E3N1Y6XG1898","3I7KR83SNAZT1REYB2SRC49PCEEK9H","","null","<img src=""img/food3.png"" style=""width:200px; border:14px solid green;"">","null","","","","","","","","","",""
"","image-keyboard-response","311","251809","0.0-370.0","3A7Y0R2P2PAQDNO8NZ3VGBRIC9IJX0","A1E3N1Y6XG1898","3I7KR83SNAZT1REYB2SRC49PCEEK9H","","450.3999999910593","img/food1.png","75","451.19999998807907","2","0","3","2","1,0.5,0,1,0.5,0,0.5,0,1","1,0.5,0,1,0.5,0,0.5,0,1","1","false",""
"","html-keyboard-response","312","252115","0.0-371.0","3A7Y0R2P2PAQDNO8NZ3VGBRIC9IJX0","A1E3N1Y6XG1898","3I7KR83SNAZT1REYB2SRC49PCEEK9H","","null","<img src=""img/food1.png"" style=""width:200px;border:14px solid red;"">","null","","","","","","","","","",""
"","image-keyboard-response","313","252712","0.0-373.0","3A7Y0R2P2PAQDNO8NZ3VGBRIC9IJX0","A1E3N1Y6XG1898","3I7KR83SNAZT1REYB2SRC49PCEEK9H","","595.9000000059605","img/food1.png","76","596.7000000029802","3","1","3","2","1,0.5,0,1,0.5,0,0.5,0,1","1,0.5,0,1,0.5,0,0.5,0,1","1","false",""
"","html-keyboard-response","314","253013","0.0-374.0","3A7Y0R2P2PAQDNO8NZ3VGBRIC9IJX0","A1E3N1Y6XG1898","3I7KR83SNAZT1REYB2SRC49PCEEK9H","","null","<img src=""img/food1.png"" style=""width:200px; border:14px solid green;"">","null","","","","","","","","","",""
"","image-keyboard-response","315","253512","0.0-376.0","3A7Y0R2P2PAQDNO8NZ3VGBRIC9IJX0","A1E3N1Y6XG1898","3I7KR83SNAZT1REYB2SRC49PCEEK9H","","497.70000000298023","img/food1.png","76","498.30000001192093","3","1","3","2","1,0.5,0,1,0.5,0,0.5,0,1","1,0.5,0,1,0.5,0,0.5,0,1","1","false",""
"","html-keyboard-response","316","253816","0.0-377.0","3A7Y0R2P2PAQDNO8NZ3VGBRIC9IJX0","A1E3N1Y6XG1898","3I7KR83SNAZT1REYB2SRC49PCEEK9H","","null","<img src=""img/food1.png"" style=""width:200px; border:14px solid green;"">","null","","","","","","","","","",""
"","image-keyboard-response","317","254317","0.0-379.0","3A7Y0R2P2PAQDNO8NZ3VGBRIC9IJX0","A1E3N1Y6XG1898","3I7KR83SNAZT1REYB2SRC49PCEEK9H","","499.1000000089407","img/food1.png","76","499.90000000596046","3","1","3","2","1,0.5,0,1,0.5,0,0.5,0,1","1,0.5,0,1,0.5,0,0.5,0,1","1","false",""
"","html-keyboard-response","318","254620","0.0-380.0","3A7Y0R2P2PAQDNO8NZ3VGBRIC9IJX0","A1E3N1Y6XG1898","3I7KR83SNAZT1REYB2SRC49PCEEK9H","","null","<img src=""img/food1.png"" style=""width:200px; border:14px solid green;"">","null","","","","","","","","","",""
"","image-keyboard-response","319","255082","0.0-382.0","3A7Y0R2P2PAQDNO8NZ3VGBRIC9IJX0","A1E3N1Y6XG1898","3I7KR83SNAZT1REYB2SRC49PCEEK9H","","460.5","img/food1.png","76","461.09999999403954","3","1","3","2","1,0.5,0,1,0.5,0,0.5,0,1","1,0.5,0,1,0.5,0,0.5,0,1","1","false",""
"","html-keyboard-response","320","255384","0.0-383.0","3A7Y0R2P2PAQDNO8NZ3VGBRIC9IJX0","A1E3N1Y6XG1898","3I7KR83SNAZT1REYB2SRC49PCEEK9H","","null","<img src=""img/food1.png"" style=""width:200px; border:14px solid green;"">","null","","","","","","","","","",""
"","image-keyboard-response","321","255925","0.0-385.0","3A7Y0R2P2PAQDNO8NZ3VGBRIC9IJX0","A1E3N1Y6XG1898","3I7KR83SNAZT1REYB2SRC49PCEEK9H","","539","img/food1.png","76","539.7999999970198","3","1","3","2","1,0.5,0,1,0.5,0,0.5,0,1","1,0.5,0,1,0.5,0,0.5,0,1","1","false",""
"","html-keyboard-response","322","256227","0.0-386.0","3A7Y0R2P2PAQDNO8NZ3VGBRIC9IJX0","A1E3N1Y6XG1898","3I7KR83SNAZT1REYB2SRC49PCEEK9H","","null","<img src=""img/food1.png"" style=""width:200px; border:14px solid green;"">","null","","","","","","","","","",""
"","image-keyboard-response","323","256733","0.0-388.0","3A7Y0R2P2PAQDNO8NZ3VGBRIC9IJX0","A1E3N1Y6XG1898","3I7KR83SNAZT1REYB2SRC49PCEEK9H","","505","img/food3.png","75","505.90000000596046","2","0","2","2","1,0.5,0,1,0.5,0,0.5,0,1","1,0.5,0,1,0.5,0,0.5,0,1","1","false",""
"","html-keyboard-response","324","257037","0.0-389.0","3A7Y0R2P2PAQDNO8NZ3VGBRIC9IJX0","A1E3N1Y6XG1898","3I7KR83SNAZT1REYB2SRC49PCEEK9H","","null","<img src=""img/food3.png"" style=""width:200px;border:14px solid red;"">","null","","","","","","","","","",""
"","image-keyboard-response","325","257506","0.0-391.0","3A7Y0R2P2PAQDNO8NZ3VGBRIC9IJX0","A1E3N1Y6XG1898","3I7KR83SNAZT1REYB2SRC49PCEEK9H","","467.70000000298023","img/food3.png","74","468.59999999403954","1","1","2","2","1,0.5,0,1,0.5,0,0.5,0,1","1,0.5,0,1,0.5,0,0.5,0,1","1","false",""
"","html-keyboard-response","326","257809","0.0-392.0","3A7Y0R2P2PAQDNO8NZ3VGBRIC9IJX0","A1E3N1Y6XG1898","3I7KR83SNAZT1REYB2SRC49PCEEK9H","","null","<img src=""img/food3.png"" style=""width:200px; border:14px solid green;"">","null","","","","","","","","","",""
"","image-keyboard-response","327","258280","0.0-394.0","3A7Y0R2P2PAQDNO8NZ3VGBRIC9IJX0","A1E3N1Y6XG1898","3I7KR83SNAZT1REYB2SRC49PCEEK9H","","469.70000000298023","img/food5.png","75","470.5","2","1","1","2","1,0.5,0,1,0.5,0,0.5,0,1","1,0.5,0,1,0.5,0,0.5,0,1","1","false",""
"","html-keyboard-response","328","258582","0.0-395.0","3A7Y0R2P2PAQDNO8NZ3VGBRIC9IJX0","A1E3N1Y6XG1898","3I7KR83SNAZT1REYB2SRC49PCEEK9H","","null","<img src=""img/food5.png"" style=""width:200px; border:14px solid green;"">","null","","","","","","","","","",""
"","image-keyboard-response","329","258979","0.0-397.0","3A7Y0R2P2PAQDNO8NZ3VGBRIC9IJX0","A1E3N1Y6XG1898","3I7KR83SNAZT1REYB2SRC49PCEEK9H","","395.80000001192093","img/food5.png","75","396.5","2","1","1","2","1,0.5,0,1,0.5,0,0.5,0,1","1,0.5,0,1,0.5,0,0.5,0,1","1","false",""
"","html-keyboard-response","330","259281","0.0-398.0","3A7Y0R2P2PAQDNO8NZ3VGBRIC9IJX0","A1E3N1Y6XG1898","3I7KR83SNAZT1REYB2SRC49PCEEK9H","","null","<img src=""img/food5.png"" style=""width:200px; border:14px solid green;"">","null","","","","","","","","","",""
"","image-keyboard-response","331","259806","0.0-400.0","3A7Y0R2P2PAQDNO8NZ3VGBRIC9IJX0","A1E3N1Y6XG1898","3I7KR83SNAZT1REYB2SRC49PCEEK9H","","524.2000000029802","img/food3.png","74","525.1000000089407","1","1","2","2","1,0.5,0,1,0.5,0,0.5,0,1","1,0.5,0,1,0.5,0,0.5,0,1","1","false",""
"","html-keyboard-response","332","260109","0.0-401.0","3A7Y0R2P2PAQDNO8NZ3VGBRIC9IJX0","A1E3N1Y6XG1898","3I7KR83SNAZT1REYB2SRC49PCEEK9H","","null","<img src=""img/food3.png"" style=""width:200px; border:14px solid green;"">","null","","","","","","","","","",""
"","image-keyboard-response","333","260605","0.0-403.0","3A7Y0R2P2PAQDNO8NZ3VGBRIC9IJX0","A1E3N1Y6XG1898","3I7KR83SNAZT1REYB2SRC49PCEEK9H","","495.20000000298023","img/food5.png","75","495.90000000596046","2","0","1","2","1,0.5,0,1,0.5,0,0.5,0,1","1,0.5,0,1,0.5,0,0.5,0,1","1","false",""
"","html-keyboard-response","334","260908","0.0-404.0","3A7Y0R2P2PAQDNO8NZ3VGBRIC9IJX0","A1E3N1Y6XG1898","3I7KR83SNAZT1REYB2SRC49PCEEK9H","","null","<img src=""img/food5.png"" style=""width:200px;border:14px solid red;"">","null","","","","","","","","","",""
"","image-keyboard-response","335","261534","0.0-406.0","3A7Y0R2P2PAQDNO8NZ3VGBRIC9IJX0","A1E3N1Y6XG1898","3I7KR83SNAZT1REYB2SRC49PCEEK9H","","625","img/food1.png","76","625.7999999970198","3","1","3","2","1,0.5,0,1,0.5,0,0.5,0,1","1,0.5,0,1,0.5,0,0.5,0,1","1","false",""
"","html-keyboard-response","336","261837","0.0-407.0","3A7Y0R2P2PAQDNO8NZ3VGBRIC9IJX0","A1E3N1Y6XG1898","3I7KR83SNAZT1REYB2SRC49PCEEK9H","","null","<img src=""img/food1.png"" style=""width:200px; border:14px solid green;"">","null","","","","","","","","","",""
"","image-keyboard-response","337","262495","0.0-409.0","3A7Y0R2P2PAQDNO8NZ3VGBRIC9IJX0","A1E3N1Y6XG1898","3I7KR83SNAZT1REYB2SRC49PCEEK9H","","656.6999999880791","img/food3.png","74","657.5","1","1","2","2","1,0.5,0,1,0.5,0,0.5,0,1","1,0.5,0,1,0.5,0,0.5,0,1","1","false",""
"","html-keyboard-response","338","262796","0.0-410.0","3A7Y0R2P2PAQDNO8NZ3VGBRIC9IJX0","A1E3N1Y6XG1898","3I7KR83SNAZT1REYB2SRC49PCEEK9H","","null","<img src=""img/food3.png"" style=""width:200px; border:14px solid green;"">","null","","","","","","","","","",""
"","image-keyboard-response","339","263371","0.0-412.0","3A7Y0R2P2PAQDNO8NZ3VGBRIC9IJX0","A1E3N1Y6XG1898","3I7KR83SNAZT1REYB2SRC49PCEEK9H","","573.2000000029802","img/food1.png","75","574","2","0","3","2","1,0.5,0,1,0.5,0,0.5,0,1","1,0.5,0,1,0.5,0,0.5,0,1","1","false",""
"","html-keyboard-response","340","263672","0.0-413.0","3A7Y0R2P2PAQDNO8NZ3VGBRIC9IJX0","A1E3N1Y6XG1898","3I7KR83SNAZT1REYB2SRC49PCEEK9H","","null","<img src=""img/food1.png"" style=""width:200px;border:14px solid red;"">","null","","","","","","","","","",""
"","image-keyboard-response","341","264280","0.0-415.0","3A7Y0R2P2PAQDNO8NZ3VGBRIC9IJX0","A1E3N1Y6XG1898","3I7KR83SNAZT1REYB2SRC49PCEEK9H","","607.4000000059605","img/food1.png","75","608","2","0","3","2","1,0.5,0,1,0.5,0,0.5,0,1","1,0.5,0,1,0.5,0,0.5,0,1","1","false",""
"","html-keyboard-response","342","264582","0.0-416.0","3A7Y0R2P2PAQDNO8NZ3VGBRIC9IJX0","A1E3N1Y6XG1898","3I7KR83SNAZT1REYB2SRC49PCEEK9H","","null","<img src=""img/food1.png"" style=""width:200px;border:14px solid red;"">","null","","","","","","","","","",""
"","image-keyboard-response","343","265155","0.0-418.0","3A7Y0R2P2PAQDNO8NZ3VGBRIC9IJX0","A1E3N1Y6XG1898","3I7KR83SNAZT1REYB2SRC49PCEEK9H","","572.2999999970198","img/food3.png","74","578.7999999970198","1","1","2","2","1,0.5,0,1,0.5,0,0.5,0,1","1,0.5,0,1,0.5,0,0.5,0,1","1","false",""
"","html-keyboard-response","344","265464","0.0-419.0","3A7Y0R2P2PAQDNO8NZ3VGBRIC9IJX0","A1E3N1Y6XG1898","3I7KR83SNAZT1REYB2SRC49PCEEK9H","","null","<img src=""img/food3.png"" style=""width:200px; border:14px solid green;"">","null","","","","","","","","","",""
"","image-keyboard-response","345","266023","0.0-421.0","3A7Y0R2P2PAQDNO8NZ3VGBRIC9IJX0","A1E3N1Y6XG1898","3I7KR83SNAZT1REYB2SRC49PCEEK9H","","557.9000000059605","img/food3.png","74","558.5","1","1","2","2","1,0.5,0,1,0.5,0,0.5,0,1","1,0.5,0,1,0.5,0,0.5,0,1","1","false",""
"","html-keyboard-response","346","266326","0.0-422.0","3A7Y0R2P2PAQDNO8NZ3VGBRIC9IJX0","A1E3N1Y6XG1898","3I7KR83SNAZT1REYB2SRC49PCEEK9H","","null","<img src=""img/food3.png"" style=""width:200px; border:14px solid green;"">","null","","","","","","","","","",""
"","image-keyboard-response","347","266823","0.0-424.0","3A7Y0R2P2PAQDNO8NZ3VGBRIC9IJX0","A1E3N1Y6XG1898","3I7KR83SNAZT1REYB2SRC49PCEEK9H","","495.40000000596046","img/food1.png","75","496.20000000298023","2","0","3","2","1,0.5,0,1,0.5,0,0.5,0,1","1,0.5,0,1,0.5,0,0.5,0,1","1","false",""
"","html-keyboard-response","348","267126","0.0-425.0","3A7Y0R2P2PAQDNO8NZ3VGBRIC9IJX0","A1E3N1Y6XG1898","3I7KR83SNAZT1REYB2SRC49PCEEK9H","","null","<img src=""img/food1.png"" style=""width:200px;border:14px solid red;"">","null","","","","","","","","","",""
"","image-keyboard-response","349","267435","0.0-427.0","3A7Y0R2P2PAQDNO8NZ3VGBRIC9IJX0","A1E3N1Y6XG1898","3I7KR83SNAZT1REYB2SRC49PCEEK9H","","307.5","img/food1.png","76","308.29999999701977","3","1","3","2","1,0.5,0,1,0.5,0,0.5,0,1","1,0.5,0,1,0.5,0,0.5,0,1","1","false",""
"","html-keyboard-response","350","267739","0.0-428.0","3A7Y0R2P2PAQDNO8NZ3VGBRIC9IJX0","A1E3N1Y6XG1898","3I7KR83SNAZT1REYB2SRC49PCEEK9H","","null","<img src=""img/food1.png"" style=""width:200px; border:14px solid green;"">","null","","","","","","","","","",""
"","image-keyboard-response","351","268125","0.0-430.0","3A7Y0R2P2PAQDNO8NZ3VGBRIC9IJX0","A1E3N1Y6XG1898","3I7KR83SNAZT1REYB2SRC49PCEEK9H","","384.59999999403954","img/food1.png","76","385.40000000596046","3","1","3","2","1,0.5,0,1,0.5,0,0.5,0,1","1,0.5,0,1,0.5,0,0.5,0,1","1","false",""
"","html-keyboard-response","352","268430","0.0-431.0","3A7Y0R2P2PAQDNO8NZ3VGBRIC9IJX0","A1E3N1Y6XG1898","3I7KR83SNAZT1REYB2SRC49PCEEK9H","","null","<img src=""img/food1.png"" style=""width:200px; border:14px solid green;"">","null","","","","","","","","","",""
"","image-keyboard-response","353","268841","0.0-433.0","3A7Y0R2P2PAQDNO8NZ3VGBRIC9IJX0","A1E3N1Y6XG1898","3I7KR83SNAZT1REYB2SRC49PCEEK9H","","408.80000001192093","img/food1.png","76","409.59999999403954","3","1","3","2","1,0.5,0,1,0.5,0,0.5,0,1","1,0.5,0,1,0.5,0,0.5,0,1","1","false",""
"","html-keyboard-response","354","269144","0.0-434.0","3A7Y0R2P2PAQDNO8NZ3VGBRIC9IJX0","A1E3N1Y6XG1898","3I7KR83SNAZT1REYB2SRC49PCEEK9H","","null","<img src=""img/food1.png"" style=""width:200px; border:14px solid green;"">","null","","","","","","","","","",""
"","image-keyboard-response","355","269671","0.0-436.0","3A7Y0R2P2PAQDNO8NZ3VGBRIC9IJX0","A1E3N1Y6XG1898","3I7KR83SNAZT1REYB2SRC49PCEEK9H","","525.7000000029802","img/food3.png","75","526.3999999910593","2","0","2","2","1,0.5,0,1,0.5,0,0.5,0,1","1,0.5,0,1,0.5,0,0.5,0,1","1","false",""
"","html-keyboard-response","356","269977","0.0-437.0","3A7Y0R2P2PAQDNO8NZ3VGBRIC9IJX0","A1E3N1Y6XG1898","3I7KR83SNAZT1REYB2SRC49PCEEK9H","","null","<img src=""img/food3.png"" style=""width:200px;border:14px solid red;"">","null","","","","","","","","","",""
"","image-keyboard-response","357","270278","0.0-439.0","3A7Y0R2P2PAQDNO8NZ3VGBRIC9IJX0","A1E3N1Y6XG1898","3I7KR83SNAZT1REYB2SRC49PCEEK9H","","299.80000001192093","img/food1.png","74","300.5","1","1","3","2","1,0.5,0,1,0.5,0,0.5,0,1","1,0.5,0,1,0.5,0,0.5,0,1","1","false",""
"","html-keyboard-response","358","270580","0.0-440.0","3A7Y0R2P2PAQDNO8NZ3VGBRIC9IJX0","A1E3N1Y6XG1898","3I7KR83SNAZT1REYB2SRC49PCEEK9H","","null","<img src=""img/food1.png"" style=""width:200px; border:14px solid green;"">","null","","","","","","","","","",""
"","image-keyboard-response","359","271264","0.0-442.0","3A7Y0R2P2PAQDNO8NZ3VGBRIC9IJX0","A1E3N1Y6XG1898","3I7KR83SNAZT1REYB2SRC49PCEEK9H","","683.2999999970198","img/food3.png","74","683.9000000059605","1","1","2","2","1,0.5,0,1,0.5,0,0.5,0,1","1,0.5,0,1,0.5,0,0.5,0,1","1","false",""
"","html-keyboard-response","360","271567","0.0-443.0","3A7Y0R2P2PAQDNO8NZ3VGBRIC9IJX0","A1E3N1Y6XG1898","3I7KR83SNAZT1REYB2SRC49PCEEK9H","","null","<img src=""img/food3.png"" style=""width:200px; border:14px solid green;"">","null","","","","","","","","","",""
"","image-keyboard-response","361","272155","0.0-445.0","3A7Y0R2P2PAQDNO8NZ3VGBRIC9IJX0","A1E3N1Y6XG1898","3I7KR83SNAZT1REYB2SRC49PCEEK9H","","586.5","img/food1.png","76","587.2000000029802","3","1","3","2","1,0.5,0,1,0.5,0,0.5,0,1","1,0.5,0,1,0.5,0,0.5,0,1","1","false",""
"","html-keyboard-response","362","272456","0.0-446.0","3A7Y0R2P2PAQDNO8NZ3VGBRIC9IJX0","A1E3N1Y6XG1898","3I7KR83SNAZT1REYB2SRC49PCEEK9H","","null","<img src=""img/food1.png"" style=""width:200px; border:14px solid green;"">","null","","","","","","","","","",""
"","image-keyboard-response","363","273068","0.0-448.0","3A7Y0R2P2PAQDNO8NZ3VGBRIC9IJX0","A1E3N1Y6XG1898","3I7KR83SNAZT1REYB2SRC49PCEEK9H","","610.7999999970198","img/food5.png","75","611.5999999940395","2","1","1","2","1,0.5,0,1,0.5,0,0.5,0,1","1,0.5,0,1,0.5,0,0.5,0,1","1","false",""
"","html-keyboard-response","364","273369","0.0-449.0","3A7Y0R2P2PAQDNO8NZ3VGBRIC9IJX0","A1E3N1Y6XG1898","3I7KR83SNAZT1REYB2SRC49PCEEK9H","","null","<img src=""img/food5.png"" style=""width:200px; border:14px solid green;"">","null","","","","","","","","","",""
"","image-keyboard-response","365","273911","0.0-451.0","3A7Y0R2P2PAQDNO8NZ3VGBRIC9IJX0","A1E3N1Y6XG1898","3I7KR83SNAZT1REYB2SRC49PCEEK9H","","540","img/food5.png","75","540.7000000029802","2","1","1","2","1,0.5,0,1,0.5,0,0.5,0,1","1,0.5,0,1,0.5,0,0.5,0,1","1","false",""
"","html-keyboard-response","366","274214","0.0-452.0","3A7Y0R2P2PAQDNO8NZ3VGBRIC9IJX0","A1E3N1Y6XG1898","3I7KR83SNAZT1REYB2SRC49PCEEK9H","","null","<img src=""img/food5.png"" style=""width:200px; border:14px solid green;"">","null","","","","","","","","","",""
"","instructions","367","277305","0.0-454.0","3A7Y0R2P2PAQDNO8NZ3VGBRIC9IJX0","A1E3N1Y6XG1898","3I7KR83SNAZT1REYB2SRC49PCEEK9H","[{""page_index"":0,""viewing_time"":3089.699999988079}]","3090","","","","","","","","","","","",""
"","survey-text","368","353737","0.0-455.0","3A7Y0R2P2PAQDNO8NZ3VGBRIC9IJX0","A1E3N1Y6XG1898","3I7KR83SNAZT1REYB2SRC49PCEEK9H","","76428.70000000298","","","","","","","","","","","","{""Q0"":""A1E3N1Y6XG1898""}"
