"success","trial_type","trial_index","time_elapsed","internal_node_id","assignmentID","mturkID","hitID","view_history","rt","stimulus","key_press","reactionTime","a","r","s","cond","reward_cond","reward_cond_actual","reward_matrix_idx","warning","responses"
"true","fullscreen","0","2398","0.0-0.0","39N5ACM9HF9WY298FW21X4RCDSD9PW","A1EFBEBVZP3D6G","3S1L4CQSFXRWQOWP2XFUSMS4AZDFAL","","","","","","","","","","","","","",""
"","instructions","1","13570","0.0-1.0","39N5ACM9HF9WY298FW21X4RCDSD9PW","A1EFBEBVZP3D6G","3S1L4CQSFXRWQOWP2XFUSMS4AZDFAL","[{""page_index"":0,""viewing_time"":1735},{""page_index"":1,""viewing_time"":1268},{""page_index"":2,""viewing_time"":1358},{""page_index"":3,""viewing_time"":2976},{""page_index"":4,""viewing_time"":1484},{""page_index"":5,""viewing_time"":1193},{""page_index"":6,""viewing_time"":1149}]","11165","","","","","","","","","","","",""
"","image-keyboard-response","2","15574","0.0-2.0","39N5ACM9HF9WY298FW21X4RCDSD9PW","A1EFBEBVZP3D6G","3S1L4CQSFXRWQOWP2XFUSMS4AZDFAL","","","img/food2.png","","2004","-1","0","3","1","1,0.7,0,1,0.7,0,0.7,0,1","0.7,0,1,0.7,0,1,0,1,0.7","2","",""
"","html-keyboard-response","3","15880","0.0-3.0","39N5ACM9HF9WY298FW21X4RCDSD9PW","A1EFBEBVZP3D6G","3S1L4CQSFXRWQOWP2XFUSMS4AZDFAL","","null","<img src=""img/food2.png"" style=""width:200px;border:14px solid red;"">","null","","","","","","","","","",""
"","image-keyboard-response","4","17858","0.0-4.0","39N5ACM9HF9WY298FW21X4RCDSD9PW","A1EFBEBVZP3D6G","3S1L4CQSFXRWQOWP2XFUSMS4AZDFAL","","1976","img/food2.png","75","1977","2","1","3","1","1,0.7,0,1,0.7,0,0.7,0,1","0.7,0,1,0.7,0,1,0,1,0.7","2","",""
"","html-keyboard-response","5","18173","0.0-5.0","39N5ACM9HF9WY298FW21X4RCDSD9PW","A1EFBEBVZP3D6G","3S1L4CQSFXRWQOWP2XFUSMS4AZDFAL","","null","<img src=""img/food2.png"" style=""width:200px; border:14px solid green;"">","null","","","","","","","","","",""
"","image-keyboard-response","6","18304","0.0-6.0","39N5ACM9HF9WY298FW21X4RCDSD9PW","A1EFBEBVZP3D6G","3S1L4CQSFXRWQOWP2XFUSMS4AZDFAL","","129","img/food4.png","76","131","3","1","2","1","1,0.7,0,1,0.7,0,0.7,0,1","0.7,0,1,0.7,0,1,0,1,0.7","2","",""
"","html-keyboard-response","7","18607","0.0-7.0","39N5ACM9HF9WY298FW21X4RCDSD9PW","A1EFBEBVZP3D6G","3S1L4CQSFXRWQOWP2XFUSMS4AZDFAL","","null","<img src=""img/food4.png"" style=""width:200px; border:14px solid green;"">","null","","","","","","","","","",""
"","image-keyboard-response","8","18728","0.0-8.0","39N5ACM9HF9WY298FW21X4RCDSD9PW","A1EFBEBVZP3D6G","3S1L4CQSFXRWQOWP2XFUSMS4AZDFAL","","114","img/food6.png","74","118","1","0","1","1","1,0.7,0,1,0.7,0,0.7,0,1","0.7,0,1,0.7,0,1,0,1,0.7","2","",""
"","html-keyboard-response","9","19032","0.0-9.0","39N5ACM9HF9WY298FW21X4RCDSD9PW","A1EFBEBVZP3D6G","3S1L4CQSFXRWQOWP2XFUSMS4AZDFAL","","null","<img src=""img/food6.png"" style=""width:200px;border:14px solid red;"">","null","","","","","","","","","",""
"","image-keyboard-response","10","19154","0.0-10.0","39N5ACM9HF9WY298FW21X4RCDSD9PW","A1EFBEBVZP3D6G","3S1L4CQSFXRWQOWP2XFUSMS4AZDFAL","","120","img/food4.png","74","121","1","1","2","1","1,0.7,0,1,0.7,0,0.7,0,1","0.7,0,1,0.7,0,1,0,1,0.7","2","",""
"","html-keyboard-response","11","19457","0.0-11.0","39N5ACM9HF9WY298FW21X4RCDSD9PW","A1EFBEBVZP3D6G","3S1L4CQSFXRWQOWP2XFUSMS4AZDFAL","","null","<img src=""img/food4.png"" style=""width:200px; border:14px solid green;"">","null","","","","","","","","","",""
"","image-keyboard-response","12","19549","0.0-12.0","39N5ACM9HF9WY298FW21X4RCDSD9PW","A1EFBEBVZP3D6G","3S1L4CQSFXRWQOWP2XFUSMS4AZDFAL","","88","img/food4.png","76","91","3","1","2","1","1,0.7,0,1,0.7,0,0.7,0,1","0.7,0,1,0.7,0,1,0,1,0.7","2","",""
"","html-keyboard-response","13","19851","0.0-13.0","39N5ACM9HF9WY298FW21X4RCDSD9PW","A1EFBEBVZP3D6G","3S1L4CQSFXRWQOWP2XFUSMS4AZDFAL","","null","<img src=""img/food4.png"" style=""width:200px; border:14px solid green;"">","null","","","","","","","","","",""
"","image-keyboard-response","14","19949","0.0-14.0","39N5ACM9HF9WY298FW21X4RCDSD9PW","A1EFBEBVZP3D6G","3S1L4CQSFXRWQOWP2XFUSMS4AZDFAL","","97","img/food2.png","76","98","3","1","3","1","1,0.7,0,1,0.7,0,0.7,0,1","0.7,0,1,0.7,0,1,0,1,0.7","2","",""
"","html-keyboard-response","15","20251","0.0-15.0","39N5ACM9HF9WY298FW21X4RCDSD9PW","A1EFBEBVZP3D6G","3S1L4CQSFXRWQOWP2XFUSMS4AZDFAL","","null","<img src=""img/food2.png"" style=""width:200px; border:14px solid green;"">","null","","","","","","","","","",""
"","image-keyboard-response","16","20358","0.0-16.0","39N5ACM9HF9WY298FW21X4RCDSD9PW","A1EFBEBVZP3D6G","3S1L4CQSFXRWQOWP2XFUSMS4AZDFAL","","105","img/food4.png","76","106","3","1","2","1","1,0.7,0,1,0.7,0,0.7,0,1","0.7,0,1,0.7,0,1,0,1,0.7","2","",""
"","html-keyboard-response","17","20660","0.0-17.0","39N5ACM9HF9WY298FW21X4RCDSD9PW","A1EFBEBVZP3D6G","3S1L4CQSFXRWQOWP2XFUSMS4AZDFAL","","null","<img src=""img/food4.png"" style=""width:200px; border:14px solid green;"">","null","","","","","","","","","",""
"","image-keyboard-response","18","20799","0.0-18.0","39N5ACM9HF9WY298FW21X4RCDSD9PW","A1EFBEBVZP3D6G","3S1L4CQSFXRWQOWP2XFUSMS4AZDFAL","","135","img/food2.png","76","138","3","1","3","1","1,0.7,0,1,0.7,0,0.7,0,1","0.7,0,1,0.7,0,1,0,1,0.7","2","",""
"","html-keyboard-response","19","21100","0.0-19.0","39N5ACM9HF9WY298FW21X4RCDSD9PW","A1EFBEBVZP3D6G","3S1L4CQSFXRWQOWP2XFUSMS4AZDFAL","","null","<img src=""img/food2.png"" style=""width:200px; border:14px solid green;"">","null","","","","","","","","","",""
"","image-keyboard-response","20","21258","0.0-20.0","39N5ACM9HF9WY298FW21X4RCDSD9PW","A1EFBEBVZP3D6G","3S1L4CQSFXRWQOWP2XFUSMS4AZDFAL","","154","img/food6.png","76","157","3","1","1","1","1,0.7,0,1,0.7,0,0.7,0,1","0.7,0,1,0.7,0,1,0,1,0.7","2","",""
"","html-keyboard-response","21","21562","0.0-21.0","39N5ACM9HF9WY298FW21X4RCDSD9PW","A1EFBEBVZP3D6G","3S1L4CQSFXRWQOWP2XFUSMS4AZDFAL","","null","<img src=""img/food6.png"" style=""width:200px; border:14px solid green;"">","null","","","","","","","","","",""
"","image-keyboard-response","22","21709","0.0-22.0","39N5ACM9HF9WY298FW21X4RCDSD9PW","A1EFBEBVZP3D6G","3S1L4CQSFXRWQOWP2XFUSMS4AZDFAL","","145","img/food4.png","76","146","3","1","2","1","1,0.7,0,1,0.7,0,0.7,0,1","0.7,0,1,0.7,0,1,0,1,0.7","2","",""
"","html-keyboard-response","23","22010","0.0-23.0","39N5ACM9HF9WY298FW21X4RCDSD9PW","A1EFBEBVZP3D6G","3S1L4CQSFXRWQOWP2XFUSMS4AZDFAL","","null","<img src=""img/food4.png"" style=""width:200px; border:14px solid green;"">","null","","","","","","","","","",""
"","image-keyboard-response","24","22145","0.0-24.0","39N5ACM9HF9WY298FW21X4RCDSD9PW","A1EFBEBVZP3D6G","3S1L4CQSFXRWQOWP2XFUSMS4AZDFAL","","132","img/food2.png","74","134","1","0","3","1","1,0.7,0,1,0.7,0,0.7,0,1","0.7,0,1,0.7,0,1,0,1,0.7","2","",""
"","html-keyboard-response","25","22447","0.0-25.0","39N5ACM9HF9WY298FW21X4RCDSD9PW","A1EFBEBVZP3D6G","3S1L4CQSFXRWQOWP2XFUSMS4AZDFAL","","null","<img src=""img/food2.png"" style=""width:200px;border:14px solid red;"">","null","","","","","","","","","",""
"","image-keyboard-response","26","22609","0.0-26.0","39N5ACM9HF9WY298FW21X4RCDSD9PW","A1EFBEBVZP3D6G","3S1L4CQSFXRWQOWP2XFUSMS4AZDFAL","","159","img/food2.png","76","160","3","0","3","1","1,0.7,0,1,0.7,0,0.7,0,1","0.7,0,1,0.7,0,1,0,1,0.7","2","",""
"","html-keyboard-response","27","22910","0.0-27.0","39N5ACM9HF9WY298FW21X4RCDSD9PW","A1EFBEBVZP3D6G","3S1L4CQSFXRWQOWP2XFUSMS4AZDFAL","","null","<img src=""img/food2.png"" style=""width:200px;border:14px solid red;"">","null","","","","","","","","","",""
"","image-keyboard-response","28","23003","0.0-28.0","39N5ACM9HF9WY298FW21X4RCDSD9PW","A1EFBEBVZP3D6G","3S1L4CQSFXRWQOWP2XFUSMS4AZDFAL","","92","img/food6.png","76","93","3","1","1","1","1,0.7,0,1,0.7,0,0.7,0,1","0.7,0,1,0.7,0,1,0,1,0.7","2","",""
"","html-keyboard-response","29","23304","0.0-29.0","39N5ACM9HF9WY298FW21X4RCDSD9PW","A1EFBEBVZP3D6G","3S1L4CQSFXRWQOWP2XFUSMS4AZDFAL","","null","<img src=""img/food6.png"" style=""width:200px; border:14px solid green;"">","null","","","","","","","","","",""
"","image-keyboard-response","30","23434","0.0-30.0","39N5ACM9HF9WY298FW21X4RCDSD9PW","A1EFBEBVZP3D6G","3S1L4CQSFXRWQOWP2XFUSMS4AZDFAL","","126","img/food6.png","76","129","3","1","1","1","1,0.7,0,1,0.7,0,0.7,0,1","0.7,0,1,0.7,0,1,0,1,0.7","2","",""
"","html-keyboard-response","31","23736","0.0-31.0","39N5ACM9HF9WY298FW21X4RCDSD9PW","A1EFBEBVZP3D6G","3S1L4CQSFXRWQOWP2XFUSMS4AZDFAL","","null","<img src=""img/food6.png"" style=""width:200px; border:14px solid green;"">","null","","","","","","","","","",""
"","image-keyboard-response","32","23893","0.0-32.0","39N5ACM9HF9WY298FW21X4RCDSD9PW","A1EFBEBVZP3D6G","3S1L4CQSFXRWQOWP2XFUSMS4AZDFAL","","154","img/food6.png","76","156","3","1","1","1","1,0.7,0,1,0.7,0,0.7,0,1","0.7,0,1,0.7,0,1,0,1,0.7","2","",""
"","html-keyboard-response","33","24195","0.0-33.0","39N5ACM9HF9WY298FW21X4RCDSD9PW","A1EFBEBVZP3D6G","3S1L4CQSFXRWQOWP2XFUSMS4AZDFAL","","null","<img src=""img/food6.png"" style=""width:200px; border:14px solid green;"">","null","","","","","","","","","",""
"","image-keyboard-response","34","24395","0.0-34.0","39N5ACM9HF9WY298FW21X4RCDSD9PW","A1EFBEBVZP3D6G","3S1L4CQSFXRWQOWP2XFUSMS4AZDFAL","","198","img/food2.png","74","199","1","0","3","1","1,0.7,0,1,0.7,0,0.7,0,1","0.7,0,1,0.7,0,1,0,1,0.7","2","",""
"","html-keyboard-response","35","24699","0.0-35.0","39N5ACM9HF9WY298FW21X4RCDSD9PW","A1EFBEBVZP3D6G","3S1L4CQSFXRWQOWP2XFUSMS4AZDFAL","","null","<img src=""img/food2.png"" style=""width:200px;border:14px solid red;"">","null","","","","","","","","","",""
"","image-keyboard-response","36","24835","0.0-36.0","39N5ACM9HF9WY298FW21X4RCDSD9PW","A1EFBEBVZP3D6G","3S1L4CQSFXRWQOWP2XFUSMS4AZDFAL","","134","img/food4.png","76","135","3","1","2","1","1,0.7,0,1,0.7,0,0.7,0,1","0.7,0,1,0.7,0,1,0,1,0.7","2","",""
"","html-keyboard-response","37","25138","0.0-37.0","39N5ACM9HF9WY298FW21X4RCDSD9PW","A1EFBEBVZP3D6G","3S1L4CQSFXRWQOWP2XFUSMS4AZDFAL","","null","<img src=""img/food4.png"" style=""width:200px; border:14px solid green;"">","null","","","","","","","","","",""
"","image-keyboard-response","38","25304","0.0-38.0","39N5ACM9HF9WY298FW21X4RCDSD9PW","A1EFBEBVZP3D6G","3S1L4CQSFXRWQOWP2XFUSMS4AZDFAL","","163","img/food6.png","76","165","3","1","1","1","1,0.7,0,1,0.7,0,0.7,0,1","0.7,0,1,0.7,0,1,0,1,0.7","2","",""
"","html-keyboard-response","39","25606","0.0-39.0","39N5ACM9HF9WY298FW21X4RCDSD9PW","A1EFBEBVZP3D6G","3S1L4CQSFXRWQOWP2XFUSMS4AZDFAL","","null","<img src=""img/food6.png"" style=""width:200px; border:14px solid green;"">","null","","","","","","","","","",""
"","image-keyboard-response","40","25632","0.0-40.0","39N5ACM9HF9WY298FW21X4RCDSD9PW","A1EFBEBVZP3D6G","3S1L4CQSFXRWQOWP2XFUSMS4AZDFAL","","24","img/food2.png","76","25","3","1","3","1","1,0.7,0,1,0.7,0,0.7,0,1","0.7,0,1,0.7,0,1,0,1,0.7","2","",""
"","html-keyboard-response","41","25933","0.0-41.0","39N5ACM9HF9WY298FW21X4RCDSD9PW","A1EFBEBVZP3D6G","3S1L4CQSFXRWQOWP2XFUSMS4AZDFAL","","null","<img src=""img/food2.png"" style=""width:200px; border:14px solid green;"">","null","","","","","","","","","",""
"","image-keyboard-response","42","26063","0.0-42.0","39N5ACM9HF9WY298FW21X4RCDSD9PW","A1EFBEBVZP3D6G","3S1L4CQSFXRWQOWP2XFUSMS4AZDFAL","","128","img/food2.png","76","128","3","1","3","1","1,0.7,0,1,0.7,0,0.7,0,1","0.7,0,1,0.7,0,1,0,1,0.7","2","",""
"","html-keyboard-response","43","26365","0.0-43.0","39N5ACM9HF9WY298FW21X4RCDSD9PW","A1EFBEBVZP3D6G","3S1L4CQSFXRWQOWP2XFUSMS4AZDFAL","","null","<img src=""img/food2.png"" style=""width:200px; border:14px solid green;"">","null","","","","","","","","","",""
"","image-keyboard-response","44","26414","0.0-44.0","39N5ACM9HF9WY298FW21X4RCDSD9PW","A1EFBEBVZP3D6G","3S1L4CQSFXRWQOWP2XFUSMS4AZDFAL","","47","img/food4.png","74","48","1","0","2","1","1,0.7,0,1,0.7,0,0.7,0,1","0.7,0,1,0.7,0,1,0,1,0.7","2","",""
"","html-keyboard-response","45","26717","0.0-45.0","39N5ACM9HF9WY298FW21X4RCDSD9PW","A1EFBEBVZP3D6G","3S1L4CQSFXRWQOWP2XFUSMS4AZDFAL","","null","<img src=""img/food4.png"" style=""width:200px;border:14px solid red;"">","null","","","","","","","","","",""
"","image-keyboard-response","46","26773","0.0-46.0","39N5ACM9HF9WY298FW21X4RCDSD9PW","A1EFBEBVZP3D6G","3S1L4CQSFXRWQOWP2XFUSMS4AZDFAL","","55","img/food4.png","76","55","3","1","2","1","1,0.7,0,1,0.7,0,0.7,0,1","0.7,0,1,0.7,0,1,0,1,0.7","2","",""
"","html-keyboard-response","47","27074","0.0-47.0","39N5ACM9HF9WY298FW21X4RCDSD9PW","A1EFBEBVZP3D6G","3S1L4CQSFXRWQOWP2XFUSMS4AZDFAL","","null","<img src=""img/food4.png"" style=""width:200px; border:14px solid green;"">","null","","","","","","","","","",""
"","image-keyboard-response","48","27141","0.0-48.0","39N5ACM9HF9WY298FW21X4RCDSD9PW","A1EFBEBVZP3D6G","3S1L4CQSFXRWQOWP2XFUSMS4AZDFAL","","63","img/food6.png","76","65","3","1","1","1","1,0.7,0,1,0.7,0,0.7,0,1","0.7,0,1,0.7,0,1,0,1,0.7","2","",""
"","html-keyboard-response","49","27442","0.0-49.0","39N5ACM9HF9WY298FW21X4RCDSD9PW","A1EFBEBVZP3D6G","3S1L4CQSFXRWQOWP2XFUSMS4AZDFAL","","null","<img src=""img/food6.png"" style=""width:200px; border:14px solid green;"">","null","","","","","","","","","",""
"","image-keyboard-response","50","27468","0.0-50.0","39N5ACM9HF9WY298FW21X4RCDSD9PW","A1EFBEBVZP3D6G","3S1L4CQSFXRWQOWP2XFUSMS4AZDFAL","","22","img/food4.png","74","24","1","1","2","1","1,0.7,0,1,0.7,0,0.7,0,1","0.7,0,1,0.7,0,1,0,1,0.7","2","",""
"","html-keyboard-response","51","27769","0.0-51.0","39N5ACM9HF9WY298FW21X4RCDSD9PW","A1EFBEBVZP3D6G","3S1L4CQSFXRWQOWP2XFUSMS4AZDFAL","","null","<img src=""img/food4.png"" style=""width:200px; border:14px solid green;"">","null","","","","","","","","","",""
"","image-keyboard-response","52","27798","0.0-52.0","39N5ACM9HF9WY298FW21X4RCDSD9PW","A1EFBEBVZP3D6G","3S1L4CQSFXRWQOWP2XFUSMS4AZDFAL","","27","img/food2.png","76","28","3","0","3","1","1,0.7,0,1,0.7,0,0.7,0,1","0.7,0,1,0.7,0,1,0,1,0.7","2","",""
"","html-keyboard-response","53","28100","0.0-53.0","39N5ACM9HF9WY298FW21X4RCDSD9PW","A1EFBEBVZP3D6G","3S1L4CQSFXRWQOWP2XFUSMS4AZDFAL","","null","<img src=""img/food2.png"" style=""width:200px;border:14px solid red;"">","null","","","","","","","","","",""
"","image-keyboard-response","54","28139","0.0-54.0","39N5ACM9HF9WY298FW21X4RCDSD9PW","A1EFBEBVZP3D6G","3S1L4CQSFXRWQOWP2XFUSMS4AZDFAL","","36","img/food6.png","76","37","3","1","1","1","1,0.7,0,1,0.7,0,0.7,0,1","0.7,0,1,0.7,0,1,0,1,0.7","2","",""
"","html-keyboard-response","55","28441","0.0-55.0","39N5ACM9HF9WY298FW21X4RCDSD9PW","A1EFBEBVZP3D6G","3S1L4CQSFXRWQOWP2XFUSMS4AZDFAL","","null","<img src=""img/food6.png"" style=""width:200px; border:14px solid green;"">","null","","","","","","","","","",""
"","image-keyboard-response","56","28451","0.0-56.0","39N5ACM9HF9WY298FW21X4RCDSD9PW","A1EFBEBVZP3D6G","3S1L4CQSFXRWQOWP2XFUSMS4AZDFAL","","8","img/food4.png","76","9","3","1","2","1","1,0.7,0,1,0.7,0,0.7,0,1","0.7,0,1,0.7,0,1,0,1,0.7","2","",""
"","html-keyboard-response","57","28756","0.0-57.0","39N5ACM9HF9WY298FW21X4RCDSD9PW","A1EFBEBVZP3D6G","3S1L4CQSFXRWQOWP2XFUSMS4AZDFAL","","null","<img src=""img/food4.png"" style=""width:200px; border:14px solid green;"">","null","","","","","","","","","",""
"","image-keyboard-response","58","28787","0.0-58.0","39N5ACM9HF9WY298FW21X4RCDSD9PW","A1EFBEBVZP3D6G","3S1L4CQSFXRWQOWP2XFUSMS4AZDFAL","","21","img/food6.png","74","26","1","0","1","1","1,0.7,0,1,0.7,0,0.7,0,1","0.7,0,1,0.7,0,1,0,1,0.7","2","",""
"","html-keyboard-response","59","29088","0.0-59.0","39N5ACM9HF9WY298FW21X4RCDSD9PW","A1EFBEBVZP3D6G","3S1L4CQSFXRWQOWP2XFUSMS4AZDFAL","","null","<img src=""img/food6.png"" style=""width:200px;border:14px solid red;"">","null","","","","","","","","","",""
"","image-keyboard-response","60","29127","0.0-60.0","39N5ACM9HF9WY298FW21X4RCDSD9PW","A1EFBEBVZP3D6G","3S1L4CQSFXRWQOWP2XFUSMS4AZDFAL","","37","img/food6.png","76","38","3","1","1","1","1,0.7,0,1,0.7,0,0.7,0,1","0.7,0,1,0.7,0,1,0,1,0.7","2","",""
"","html-keyboard-response","61","29430","0.0-61.0","39N5ACM9HF9WY298FW21X4RCDSD9PW","A1EFBEBVZP3D6G","3S1L4CQSFXRWQOWP2XFUSMS4AZDFAL","","null","<img src=""img/food6.png"" style=""width:200px; border:14px solid green;"">","null","","","","","","","","","",""
"","image-keyboard-response","62","29444","0.0-62.0","39N5ACM9HF9WY298FW21X4RCDSD9PW","A1EFBEBVZP3D6G","3S1L4CQSFXRWQOWP2XFUSMS4AZDFAL","","11","img/food4.png","76","13","3","1","2","1","1,0.7,0,1,0.7,0,0.7,0,1","0.7,0,1,0.7,0,1,0,1,0.7","2","",""
"","html-keyboard-response","63","29746","0.0-63.0","39N5ACM9HF9WY298FW21X4RCDSD9PW","A1EFBEBVZP3D6G","3S1L4CQSFXRWQOWP2XFUSMS4AZDFAL","","null","<img src=""img/food4.png"" style=""width:200px; border:14px solid green;"">","null","","","","","","","","","",""
"","image-keyboard-response","64","29802","0.0-64.0","39N5ACM9HF9WY298FW21X4RCDSD9PW","A1EFBEBVZP3D6G","3S1L4CQSFXRWQOWP2XFUSMS4AZDFAL","","53","img/food6.png","76","55","3","1","1","1","1,0.7,0,1,0.7,0,0.7,0,1","0.7,0,1,0.7,0,1,0,1,0.7","2","",""
"","html-keyboard-response","65","30103","0.0-65.0","39N5ACM9HF9WY298FW21X4RCDSD9PW","A1EFBEBVZP3D6G","3S1L4CQSFXRWQOWP2XFUSMS4AZDFAL","","null","<img src=""img/food6.png"" style=""width:200px; border:14px solid green;"">","null","","","","","","","","","",""
"","image-keyboard-response","66","30143","0.0-66.0","39N5ACM9HF9WY298FW21X4RCDSD9PW","A1EFBEBVZP3D6G","3S1L4CQSFXRWQOWP2XFUSMS4AZDFAL","","38","img/food2.png","74","40","1","0","3","1","1,0.7,0,1,0.7,0,0.7,0,1","0.7,0,1,0.7,0,1,0,1,0.7","2","",""
"","html-keyboard-response","67","30446","0.0-67.0","39N5ACM9HF9WY298FW21X4RCDSD9PW","A1EFBEBVZP3D6G","3S1L4CQSFXRWQOWP2XFUSMS4AZDFAL","","null","<img src=""img/food2.png"" style=""width:200px;border:14px solid red;"">","null","","","","","","","","","",""
"","image-keyboard-response","68","30472","0.0-68.0","39N5ACM9HF9WY298FW21X4RCDSD9PW","A1EFBEBVZP3D6G","3S1L4CQSFXRWQOWP2XFUSMS4AZDFAL","","22","img/food4.png","76","25","3","1","2","1","1,0.7,0,1,0.7,0,0.7,0,1","0.7,0,1,0.7,0,1,0,1,0.7","2","",""
"","html-keyboard-response","69","30774","0.0-69.0","39N5ACM9HF9WY298FW21X4RCDSD9PW","A1EFBEBVZP3D6G","3S1L4CQSFXRWQOWP2XFUSMS4AZDFAL","","null","<img src=""img/food4.png"" style=""width:200px; border:14px solid green;"">","null","","","","","","","","","",""
"","image-keyboard-response","70","30802","0.0-70.0","39N5ACM9HF9WY298FW21X4RCDSD9PW","A1EFBEBVZP3D6G","3S1L4CQSFXRWQOWP2XFUSMS4AZDFAL","","27","img/food2.png","76","27","3","1","3","1","1,0.7,0,1,0.7,0,0.7,0,1","0.7,0,1,0.7,0,1,0,1,0.7","2","",""
"","html-keyboard-response","71","31104","0.0-71.0","39N5ACM9HF9WY298FW21X4RCDSD9PW","A1EFBEBVZP3D6G","3S1L4CQSFXRWQOWP2XFUSMS4AZDFAL","","null","<img src=""img/food2.png"" style=""width:200px; border:14px solid green;"">","null","","","","","","","","","",""
"","image-keyboard-response","72","31169","0.0-72.0","39N5ACM9HF9WY298FW21X4RCDSD9PW","A1EFBEBVZP3D6G","3S1L4CQSFXRWQOWP2XFUSMS4AZDFAL","","63","img/food4.png","76","64","3","1","2","1","1,0.7,0,1,0.7,0,0.7,0,1","0.7,0,1,0.7,0,1,0,1,0.7","2","",""
"","html-keyboard-response","73","31472","0.0-73.0","39N5ACM9HF9WY298FW21X4RCDSD9PW","A1EFBEBVZP3D6G","3S1L4CQSFXRWQOWP2XFUSMS4AZDFAL","","null","<img src=""img/food4.png"" style=""width:200px; border:14px solid green;"">","null","","","","","","","","","",""
"","image-keyboard-response","74","31475","0.0-74.0","39N5ACM9HF9WY298FW21X4RCDSD9PW","A1EFBEBVZP3D6G","3S1L4CQSFXRWQOWP2XFUSMS4AZDFAL","","0","img/food6.png","76","2","3","1","1","1","1,0.7,0,1,0.7,0,0.7,0,1","0.7,0,1,0.7,0,1,0,1,0.7","2","",""
"","html-keyboard-response","75","31776","0.0-75.0","39N5ACM9HF9WY298FW21X4RCDSD9PW","A1EFBEBVZP3D6G","3S1L4CQSFXRWQOWP2XFUSMS4AZDFAL","","null","<img src=""img/food6.png"" style=""width:200px; border:14px solid green;"">","null","","","","","","","","","",""
"","image-keyboard-response","76","31827","0.0-76.0","39N5ACM9HF9WY298FW21X4RCDSD9PW","A1EFBEBVZP3D6G","3S1L4CQSFXRWQOWP2XFUSMS4AZDFAL","","49","img/food6.png","76","50","3","1","1","1","1,0.7,0,1,0.7,0,0.7,0,1","0.7,0,1,0.7,0,1,0,1,0.7","2","",""
"","html-keyboard-response","77","32129","0.0-77.0","39N5ACM9HF9WY298FW21X4RCDSD9PW","A1EFBEBVZP3D6G","3S1L4CQSFXRWQOWP2XFUSMS4AZDFAL","","null","<img src=""img/food6.png"" style=""width:200px; border:14px solid green;"">","null","","","","","","","","","",""
"","image-keyboard-response","78","32193","0.0-78.0","39N5ACM9HF9WY298FW21X4RCDSD9PW","A1EFBEBVZP3D6G","3S1L4CQSFXRWQOWP2XFUSMS4AZDFAL","","62","img/food2.png","76","63","3","1","3","1","1,0.7,0,1,0.7,0,0.7,0,1","0.7,0,1,0.7,0,1,0,1,0.7","2","",""
"","html-keyboard-response","79","32496","0.0-79.0","39N5ACM9HF9WY298FW21X4RCDSD9PW","A1EFBEBVZP3D6G","3S1L4CQSFXRWQOWP2XFUSMS4AZDFAL","","null","<img src=""img/food2.png"" style=""width:200px; border:14px solid green;"">","null","","","","","","","","","",""
"","image-keyboard-response","80","32654","0.0-80.0","39N5ACM9HF9WY298FW21X4RCDSD9PW","A1EFBEBVZP3D6G","3S1L4CQSFXRWQOWP2XFUSMS4AZDFAL","","157","img/food6.png","76","159","3","1","1","1","1,0.7,0,1,0.7,0,0.7,0,1","0.7,0,1,0.7,0,1,0,1,0.7","2","",""
"","html-keyboard-response","81","32956","0.0-81.0","39N5ACM9HF9WY298FW21X4RCDSD9PW","A1EFBEBVZP3D6G","3S1L4CQSFXRWQOWP2XFUSMS4AZDFAL","","null","<img src=""img/food6.png"" style=""width:200px; border:14px solid green;"">","null","","","","","","","","","",""
"","image-keyboard-response","82","33033","0.0-82.0","39N5ACM9HF9WY298FW21X4RCDSD9PW","A1EFBEBVZP3D6G","3S1L4CQSFXRWQOWP2XFUSMS4AZDFAL","","75","img/food4.png","76","77","3","1","2","1","1,0.7,0,1,0.7,0,0.7,0,1","0.7,0,1,0.7,0,1,0,1,0.7","2","",""
"","html-keyboard-response","83","33335","0.0-83.0","39N5ACM9HF9WY298FW21X4RCDSD9PW","A1EFBEBVZP3D6G","3S1L4CQSFXRWQOWP2XFUSMS4AZDFAL","","null","<img src=""img/food4.png"" style=""width:200px; border:14px solid green;"">","null","","","","","","","","","",""
"","image-keyboard-response","84","33418","0.0-84.0","39N5ACM9HF9WY298FW21X4RCDSD9PW","A1EFBEBVZP3D6G","3S1L4CQSFXRWQOWP2XFUSMS4AZDFAL","","82","img/food2.png","76","82","3","1","3","1","1,0.7,0,1,0.7,0,0.7,0,1","0.7,0,1,0.7,0,1,0,1,0.7","2","",""
"","html-keyboard-response","85","33722","0.0-85.0","39N5ACM9HF9WY298FW21X4RCDSD9PW","A1EFBEBVZP3D6G","3S1L4CQSFXRWQOWP2XFUSMS4AZDFAL","","null","<img src=""img/food2.png"" style=""width:200px; border:14px solid green;"">","null","","","","","","","","","",""
"","image-keyboard-response","86","33847","0.0-86.0","39N5ACM9HF9WY298FW21X4RCDSD9PW","A1EFBEBVZP3D6G","3S1L4CQSFXRWQOWP2XFUSMS4AZDFAL","","121","img/food4.png","74","123","1","1","2","1","1,0.7,0,1,0.7,0,0.7,0,1","0.7,0,1,0.7,0,1,0,1,0.7","2","",""
"","html-keyboard-response","87","34150","0.0-87.0","39N5ACM9HF9WY298FW21X4RCDSD9PW","A1EFBEBVZP3D6G","3S1L4CQSFXRWQOWP2XFUSMS4AZDFAL","","null","<img src=""img/food4.png"" style=""width:200px; border:14px solid green;"">","null","","","","","","","","","",""
"","image-keyboard-response","88","34183","0.0-88.0","39N5ACM9HF9WY298FW21X4RCDSD9PW","A1EFBEBVZP3D6G","3S1L4CQSFXRWQOWP2XFUSMS4AZDFAL","","32","img/food4.png","76","33","3","1","2","1","1,0.7,0,1,0.7,0,0.7,0,1","0.7,0,1,0.7,0,1,0,1,0.7","2","",""
"","html-keyboard-response","89","34485","0.0-89.0","39N5ACM9HF9WY298FW21X4RCDSD9PW","A1EFBEBVZP3D6G","3S1L4CQSFXRWQOWP2XFUSMS4AZDFAL","","null","<img src=""img/food4.png"" style=""width:200px; border:14px solid green;"">","null","","","","","","","","","",""
"","image-keyboard-response","90","34517","0.0-90.0","39N5ACM9HF9WY298FW21X4RCDSD9PW","A1EFBEBVZP3D6G","3S1L4CQSFXRWQOWP2XFUSMS4AZDFAL","","31","img/food4.png","74","31","1","1","2","1","1,0.7,0,1,0.7,0,0.7,0,1","0.7,0,1,0.7,0,1,0,1,0.7","2","",""
"","html-keyboard-response","91","34821","0.0-91.0","39N5ACM9HF9WY298FW21X4RCDSD9PW","A1EFBEBVZP3D6G","3S1L4CQSFXRWQOWP2XFUSMS4AZDFAL","","null","<img src=""img/food4.png"" style=""width:200px; border:14px solid green;"">","null","","","","","","","","","",""
"","image-keyboard-response","92","34972","0.0-92.0","39N5ACM9HF9WY298FW21X4RCDSD9PW","A1EFBEBVZP3D6G","3S1L4CQSFXRWQOWP2XFUSMS4AZDFAL","","150","img/food6.png","76","151","3","1","1","1","1,0.7,0,1,0.7,0,0.7,0,1","0.7,0,1,0.7,0,1,0,1,0.7","2","",""
"","html-keyboard-response","93","35274","0.0-93.0","39N5ACM9HF9WY298FW21X4RCDSD9PW","A1EFBEBVZP3D6G","3S1L4CQSFXRWQOWP2XFUSMS4AZDFAL","","null","<img src=""img/food6.png"" style=""width:200px; border:14px solid green;"">","null","","","","","","","","","",""
"","image-keyboard-response","94","35334","0.0-94.0","39N5ACM9HF9WY298FW21X4RCDSD9PW","A1EFBEBVZP3D6G","3S1L4CQSFXRWQOWP2XFUSMS4AZDFAL","","59","img/food2.png","76","59","3","1","3","1","1,0.7,0,1,0.7,0,0.7,0,1","0.7,0,1,0.7,0,1,0,1,0.7","2","",""
"","html-keyboard-response","95","35636","0.0-95.0","39N5ACM9HF9WY298FW21X4RCDSD9PW","A1EFBEBVZP3D6G","3S1L4CQSFXRWQOWP2XFUSMS4AZDFAL","","null","<img src=""img/food2.png"" style=""width:200px; border:14px solid green;"">","null","","","","","","","","","",""
"","image-keyboard-response","96","35710","0.0-96.0","39N5ACM9HF9WY298FW21X4RCDSD9PW","A1EFBEBVZP3D6G","3S1L4CQSFXRWQOWP2XFUSMS4AZDFAL","","72","img/food6.png","76","74","3","1","1","1","1,0.7,0,1,0.7,0,0.7,0,1","0.7,0,1,0.7,0,1,0,1,0.7","2","",""
"","html-keyboard-response","97","36012","0.0-97.0","39N5ACM9HF9WY298FW21X4RCDSD9PW","A1EFBEBVZP3D6G","3S1L4CQSFXRWQOWP2XFUSMS4AZDFAL","","null","<img src=""img/food6.png"" style=""width:200px; border:14px solid green;"">","null","","","","","","","","","",""
"","image-keyboard-response","98","36142","0.0-98.0","39N5ACM9HF9WY298FW21X4RCDSD9PW","A1EFBEBVZP3D6G","3S1L4CQSFXRWQOWP2XFUSMS4AZDFAL","","127","img/food4.png","75","129","2","0","2","1","1,0.7,0,1,0.7,0,0.7,0,1","0.7,0,1,0.7,0,1,0,1,0.7","2","",""
"","html-keyboard-response","99","36443","0.0-99.0","39N5ACM9HF9WY298FW21X4RCDSD9PW","A1EFBEBVZP3D6G","3S1L4CQSFXRWQOWP2XFUSMS4AZDFAL","","null","<img src=""img/food4.png"" style=""width:200px;border:14px solid red;"">","null","","","","","","","","","",""
"","image-keyboard-response","100","36487","0.0-100.0","39N5ACM9HF9WY298FW21X4RCDSD9PW","A1EFBEBVZP3D6G","3S1L4CQSFXRWQOWP2XFUSMS4AZDFAL","","42","img/food2.png","76","43","3","0","3","1","1,0.7,0,1,0.7,0,0.7,0,1","0.7,0,1,0.7,0,1,0,1,0.7","2","",""
"","html-keyboard-response","101","36789","0.0-101.0","39N5ACM9HF9WY298FW21X4RCDSD9PW","A1EFBEBVZP3D6G","3S1L4CQSFXRWQOWP2XFUSMS4AZDFAL","","null","<img src=""img/food2.png"" style=""width:200px;border:14px solid red;"">","null","","","","","","","","","",""
"","image-keyboard-response","102","36869","0.0-102.0","39N5ACM9HF9WY298FW21X4RCDSD9PW","A1EFBEBVZP3D6G","3S1L4CQSFXRWQOWP2XFUSMS4AZDFAL","","78","img/food2.png","74","79","1","0","3","1","1,0.7,0,1,0.7,0,0.7,0,1","0.7,0,1,0.7,0,1,0,1,0.7","2","",""
"","html-keyboard-response","103","37171","0.0-103.0","39N5ACM9HF9WY298FW21X4RCDSD9PW","A1EFBEBVZP3D6G","3S1L4CQSFXRWQOWP2XFUSMS4AZDFAL","","null","<img src=""img/food2.png"" style=""width:200px;border:14px solid red;"">","null","","","","","","","","","",""
"","image-keyboard-response","104","37267","0.0-104.0","39N5ACM9HF9WY298FW21X4RCDSD9PW","A1EFBEBVZP3D6G","3S1L4CQSFXRWQOWP2XFUSMS4AZDFAL","","95","img/food6.png","74","96","1","1","1","1","1,0.7,0,1,0.7,0,0.7,0,1","0.7,0,1,0.7,0,1,0,1,0.7","2","",""
"","html-keyboard-response","105","37570","0.0-105.0","39N5ACM9HF9WY298FW21X4RCDSD9PW","A1EFBEBVZP3D6G","3S1L4CQSFXRWQOWP2XFUSMS4AZDFAL","","null","<img src=""img/food6.png"" style=""width:200px; border:14px solid green;"">","null","","","","","","","","","",""
"","image-keyboard-response","106","37645","0.0-106.0","39N5ACM9HF9WY298FW21X4RCDSD9PW","A1EFBEBVZP3D6G","3S1L4CQSFXRWQOWP2XFUSMS4AZDFAL","","73","img/food2.png","76","74","3","1","3","1","1,0.7,0,1,0.7,0,0.7,0,1","0.7,0,1,0.7,0,1,0,1,0.7","2","",""
"","html-keyboard-response","107","37948","0.0-107.0","39N5ACM9HF9WY298FW21X4RCDSD9PW","A1EFBEBVZP3D6G","3S1L4CQSFXRWQOWP2XFUSMS4AZDFAL","","null","<img src=""img/food2.png"" style=""width:200px; border:14px solid green;"">","null","","","","","","","","","",""
"","image-keyboard-response","108","37993","0.0-108.0","39N5ACM9HF9WY298FW21X4RCDSD9PW","A1EFBEBVZP3D6G","3S1L4CQSFXRWQOWP2XFUSMS4AZDFAL","","42","img/food6.png","75","44","2","0","1","1","1,0.7,0,1,0.7,0,0.7,0,1","0.7,0,1,0.7,0,1,0,1,0.7","2","",""
"","html-keyboard-response","109","38295","0.0-109.0","39N5ACM9HF9WY298FW21X4RCDSD9PW","A1EFBEBVZP3D6G","3S1L4CQSFXRWQOWP2XFUSMS4AZDFAL","","null","<img src=""img/food6.png"" style=""width:200px;border:14px solid red;"">","null","","","","","","","","","",""
"","image-keyboard-response","110","38367","0.0-110.0","39N5ACM9HF9WY298FW21X4RCDSD9PW","A1EFBEBVZP3D6G","3S1L4CQSFXRWQOWP2XFUSMS4AZDFAL","","69","img/food4.png","76","71","3","1","2","1","1,0.7,0,1,0.7,0,0.7,0,1","0.7,0,1,0.7,0,1,0,1,0.7","2","",""
"","html-keyboard-response","111","38669","0.0-111.0","39N5ACM9HF9WY298FW21X4RCDSD9PW","A1EFBEBVZP3D6G","3S1L4CQSFXRWQOWP2XFUSMS4AZDFAL","","null","<img src=""img/food4.png"" style=""width:200px; border:14px solid green;"">","null","","","","","","","","","",""
"","image-keyboard-response","112","38711","0.0-112.0","39N5ACM9HF9WY298FW21X4RCDSD9PW","A1EFBEBVZP3D6G","3S1L4CQSFXRWQOWP2XFUSMS4AZDFAL","","40","img/food2.png","74","41","1","0","3","1","1,0.7,0,1,0.7,0,0.7,0,1","0.7,0,1,0.7,0,1,0,1,0.7","2","",""
"","html-keyboard-response","113","39014","0.0-113.0","39N5ACM9HF9WY298FW21X4RCDSD9PW","A1EFBEBVZP3D6G","3S1L4CQSFXRWQOWP2XFUSMS4AZDFAL","","null","<img src=""img/food2.png"" style=""width:200px;border:14px solid red;"">","null","","","","","","","","","",""
"","image-keyboard-response","114","39126","0.0-114.0","39N5ACM9HF9WY298FW21X4RCDSD9PW","A1EFBEBVZP3D6G","3S1L4CQSFXRWQOWP2XFUSMS4AZDFAL","","110","img/food2.png","75","111","2","1","3","1","1,0.7,0,1,0.7,0,0.7,0,1","0.7,0,1,0.7,0,1,0,1,0.7","2","",""
"","html-keyboard-response","115","39429","0.0-115.0","39N5ACM9HF9WY298FW21X4RCDSD9PW","A1EFBEBVZP3D6G","3S1L4CQSFXRWQOWP2XFUSMS4AZDFAL","","null","<img src=""img/food2.png"" style=""width:200px; border:14px solid green;"">","null","","","","","","","","","",""
"","image-keyboard-response","116","39494","0.0-116.0","39N5ACM9HF9WY298FW21X4RCDSD9PW","A1EFBEBVZP3D6G","3S1L4CQSFXRWQOWP2XFUSMS4AZDFAL","","62","img/food4.png","76","64","3","1","2","1","1,0.7,0,1,0.7,0,0.7,0,1","0.7,0,1,0.7,0,1,0,1,0.7","2","",""
"","html-keyboard-response","117","39797","0.0-117.0","39N5ACM9HF9WY298FW21X4RCDSD9PW","A1EFBEBVZP3D6G","3S1L4CQSFXRWQOWP2XFUSMS4AZDFAL","","null","<img src=""img/food4.png"" style=""width:200px; border:14px solid green;"">","null","","","","","","","","","",""
"","image-keyboard-response","118","39943","0.0-118.0","39N5ACM9HF9WY298FW21X4RCDSD9PW","A1EFBEBVZP3D6G","3S1L4CQSFXRWQOWP2XFUSMS4AZDFAL","","144","img/food2.png","76","145","3","1","3","1","1,0.7,0,1,0.7,0,0.7,0,1","0.7,0,1,0.7,0,1,0,1,0.7","2","",""
"","html-keyboard-response","119","40245","0.0-119.0","39N5ACM9HF9WY298FW21X4RCDSD9PW","A1EFBEBVZP3D6G","3S1L4CQSFXRWQOWP2XFUSMS4AZDFAL","","null","<img src=""img/food2.png"" style=""width:200px; border:14px solid green;"">","null","","","","","","","","","",""
"","image-keyboard-response","120","40340","0.0-120.0","39N5ACM9HF9WY298FW21X4RCDSD9PW","A1EFBEBVZP3D6G","3S1L4CQSFXRWQOWP2XFUSMS4AZDFAL","","93","img/food2.png","75","95","2","1","3","1","1,0.7,0,1,0.7,0,0.7,0,1","0.7,0,1,0.7,0,1,0,1,0.7","2","",""
"","html-keyboard-response","121","40643","0.0-121.0","39N5ACM9HF9WY298FW21X4RCDSD9PW","A1EFBEBVZP3D6G","3S1L4CQSFXRWQOWP2XFUSMS4AZDFAL","","null","<img src=""img/food2.png"" style=""width:200px; border:14px solid green;"">","null","","","","","","","","","",""
"","image-keyboard-response","122","40693","0.0-122.0","39N5ACM9HF9WY298FW21X4RCDSD9PW","A1EFBEBVZP3D6G","3S1L4CQSFXRWQOWP2XFUSMS4AZDFAL","","49","img/food4.png","76","50","3","1","2","1","1,0.7,0,1,0.7,0,0.7,0,1","0.7,0,1,0.7,0,1,0,1,0.7","2","",""
"","html-keyboard-response","123","40995","0.0-123.0","39N5ACM9HF9WY298FW21X4RCDSD9PW","A1EFBEBVZP3D6G","3S1L4CQSFXRWQOWP2XFUSMS4AZDFAL","","null","<img src=""img/food4.png"" style=""width:200px; border:14px solid green;"">","null","","","","","","","","","",""
"","image-keyboard-response","124","40998","0.0-124.0","39N5ACM9HF9WY298FW21X4RCDSD9PW","A1EFBEBVZP3D6G","3S1L4CQSFXRWQOWP2XFUSMS4AZDFAL","","0","img/food6.png","76","2","3","1","1","1","1,0.7,0,1,0.7,0,0.7,0,1","0.7,0,1,0.7,0,1,0,1,0.7","2","",""
"","html-keyboard-response","125","41299","0.0-125.0","39N5ACM9HF9WY298FW21X4RCDSD9PW","A1EFBEBVZP3D6G","3S1L4CQSFXRWQOWP2XFUSMS4AZDFAL","","null","<img src=""img/food6.png"" style=""width:200px; border:14px solid green;"">","null","","","","","","","","","",""
"","image-keyboard-response","126","41333","0.0-126.0","39N5ACM9HF9WY298FW21X4RCDSD9PW","A1EFBEBVZP3D6G","3S1L4CQSFXRWQOWP2XFUSMS4AZDFAL","","32","img/food4.png","74","34","1","1","2","1","1,0.7,0,1,0.7,0,0.7,0,1","0.7,0,1,0.7,0,1,0,1,0.7","2","",""
"","html-keyboard-response","127","41634","0.0-127.0","39N5ACM9HF9WY298FW21X4RCDSD9PW","A1EFBEBVZP3D6G","3S1L4CQSFXRWQOWP2XFUSMS4AZDFAL","","null","<img src=""img/food4.png"" style=""width:200px; border:14px solid green;"">","null","","","","","","","","","",""
"","image-keyboard-response","128","41774","0.0-128.0","39N5ACM9HF9WY298FW21X4RCDSD9PW","A1EFBEBVZP3D6G","3S1L4CQSFXRWQOWP2XFUSMS4AZDFAL","","136","img/food6.png","76","138","3","1","1","1","1,0.7,0,1,0.7,0,0.7,0,1","0.7,0,1,0.7,0,1,0,1,0.7","2","",""
"","html-keyboard-response","129","42075","0.0-129.0","39N5ACM9HF9WY298FW21X4RCDSD9PW","A1EFBEBVZP3D6G","3S1L4CQSFXRWQOWP2XFUSMS4AZDFAL","","null","<img src=""img/food6.png"" style=""width:200px; border:14px solid green;"">","null","","","","","","","","","",""
"","image-keyboard-response","130","42079","0.0-130.0","39N5ACM9HF9WY298FW21X4RCDSD9PW","A1EFBEBVZP3D6G","3S1L4CQSFXRWQOWP2XFUSMS4AZDFAL","","2","img/food2.png","74","3","1","0","3","1","1,0.7,0,1,0.7,0,0.7,0,1","0.7,0,1,0.7,0,1,0,1,0.7","2","",""
"","html-keyboard-response","131","42382","0.0-131.0","39N5ACM9HF9WY298FW21X4RCDSD9PW","A1EFBEBVZP3D6G","3S1L4CQSFXRWQOWP2XFUSMS4AZDFAL","","null","<img src=""img/food2.png"" style=""width:200px;border:14px solid red;"">","null","","","","","","","","","",""
"","image-keyboard-response","132","42446","0.0-132.0","39N5ACM9HF9WY298FW21X4RCDSD9PW","A1EFBEBVZP3D6G","3S1L4CQSFXRWQOWP2XFUSMS4AZDFAL","","60","img/food6.png","76","62","3","1","1","1","1,0.7,0,1,0.7,0,0.7,0,1","0.7,0,1,0.7,0,1,0,1,0.7","2","",""
"","html-keyboard-response","133","42749","0.0-133.0","39N5ACM9HF9WY298FW21X4RCDSD9PW","A1EFBEBVZP3D6G","3S1L4CQSFXRWQOWP2XFUSMS4AZDFAL","","null","<img src=""img/food6.png"" style=""width:200px; border:14px solid green;"">","null","","","","","","","","","",""
"","image-keyboard-response","134","42808","0.0-134.0","39N5ACM9HF9WY298FW21X4RCDSD9PW","A1EFBEBVZP3D6G","3S1L4CQSFXRWQOWP2XFUSMS4AZDFAL","","56","img/food6.png","75","59","2","0","1","1","1,0.7,0,1,0.7,0,0.7,0,1","0.7,0,1,0.7,0,1,0,1,0.7","2","",""
"","html-keyboard-response","135","43110","0.0-135.0","39N5ACM9HF9WY298FW21X4RCDSD9PW","A1EFBEBVZP3D6G","3S1L4CQSFXRWQOWP2XFUSMS4AZDFAL","","null","<img src=""img/food6.png"" style=""width:200px;border:14px solid red;"">","null","","","","","","","","","",""
"","image-keyboard-response","136","43133","0.0-136.0","39N5ACM9HF9WY298FW21X4RCDSD9PW","A1EFBEBVZP3D6G","3S1L4CQSFXRWQOWP2XFUSMS4AZDFAL","","19","img/food6.png","74","22","1","1","1","1","1,0.7,0,1,0.7,0,0.7,0,1","0.7,0,1,0.7,0,1,0,1,0.7","2","",""
"","html-keyboard-response","137","43434","0.0-137.0","39N5ACM9HF9WY298FW21X4RCDSD9PW","A1EFBEBVZP3D6G","3S1L4CQSFXRWQOWP2XFUSMS4AZDFAL","","null","<img src=""img/food6.png"" style=""width:200px; border:14px solid green;"">","null","","","","","","","","","",""
"","image-keyboard-response","138","43497","0.0-138.0","39N5ACM9HF9WY298FW21X4RCDSD9PW","A1EFBEBVZP3D6G","3S1L4CQSFXRWQOWP2XFUSMS4AZDFAL","","60","img/food2.png","75","61","2","1","3","1","1,0.7,0,1,0.7,0,0.7,0,1","0.7,0,1,0.7,0,1,0,1,0.7","2","",""
"","html-keyboard-response","139","43799","0.0-139.0","39N5ACM9HF9WY298FW21X4RCDSD9PW","A1EFBEBVZP3D6G","3S1L4CQSFXRWQOWP2XFUSMS4AZDFAL","","null","<img src=""img/food2.png"" style=""width:200px; border:14px solid green;"">","null","","","","","","","","","",""
"","image-keyboard-response","140","43874","0.0-140.0","39N5ACM9HF9WY298FW21X4RCDSD9PW","A1EFBEBVZP3D6G","3S1L4CQSFXRWQOWP2XFUSMS4AZDFAL","","72","img/food2.png","75","74","2","1","3","1","1,0.7,0,1,0.7,0,0.7,0,1","0.7,0,1,0.7,0,1,0,1,0.7","2","",""
"","html-keyboard-response","141","44176","0.0-141.0","39N5ACM9HF9WY298FW21X4RCDSD9PW","A1EFBEBVZP3D6G","3S1L4CQSFXRWQOWP2XFUSMS4AZDFAL","","null","<img src=""img/food2.png"" style=""width:200px; border:14px solid green;"">","null","","","","","","","","","",""
"","image-keyboard-response","142","44208","0.0-142.0","39N5ACM9HF9WY298FW21X4RCDSD9PW","A1EFBEBVZP3D6G","3S1L4CQSFXRWQOWP2XFUSMS4AZDFAL","","31","img/food2.png","75","31","2","1","3","1","1,0.7,0,1,0.7,0,0.7,0,1","0.7,0,1,0.7,0,1,0,1,0.7","2","",""
"","html-keyboard-response","143","44510","0.0-143.0","39N5ACM9HF9WY298FW21X4RCDSD9PW","A1EFBEBVZP3D6G","3S1L4CQSFXRWQOWP2XFUSMS4AZDFAL","","null","<img src=""img/food2.png"" style=""width:200px; border:14px solid green;"">","null","","","","","","","","","",""
"","image-keyboard-response","144","44593","0.0-144.0","39N5ACM9HF9WY298FW21X4RCDSD9PW","A1EFBEBVZP3D6G","3S1L4CQSFXRWQOWP2XFUSMS4AZDFAL","","82","img/food4.png","75","83","2","0","2","1","1,0.7,0,1,0.7,0,0.7,0,1","0.7,0,1,0.7,0,1,0,1,0.7","2","",""
"","html-keyboard-response","145","44896","0.0-145.0","39N5ACM9HF9WY298FW21X4RCDSD9PW","A1EFBEBVZP3D6G","3S1L4CQSFXRWQOWP2XFUSMS4AZDFAL","","null","<img src=""img/food4.png"" style=""width:200px;border:14px solid red;"">","null","","","","","","","","","",""
"","image-keyboard-response","146","44967","0.0-146.0","39N5ACM9HF9WY298FW21X4RCDSD9PW","A1EFBEBVZP3D6G","3S1L4CQSFXRWQOWP2XFUSMS4AZDFAL","","69","img/food4.png","74","70","1","1","2","1","1,0.7,0,1,0.7,0,0.7,0,1","0.7,0,1,0.7,0,1,0,1,0.7","2","",""
"","html-keyboard-response","147","45269","0.0-147.0","39N5ACM9HF9WY298FW21X4RCDSD9PW","A1EFBEBVZP3D6G","3S1L4CQSFXRWQOWP2XFUSMS4AZDFAL","","null","<img src=""img/food4.png"" style=""width:200px; border:14px solid green;"">","null","","","","","","","","","",""
"","image-keyboard-response","148","45349","0.0-148.0","39N5ACM9HF9WY298FW21X4RCDSD9PW","A1EFBEBVZP3D6G","3S1L4CQSFXRWQOWP2XFUSMS4AZDFAL","","77","img/food2.png","75","80","2","1","3","1","1,0.7,0,1,0.7,0,0.7,0,1","0.7,0,1,0.7,0,1,0,1,0.7","2","",""
"","html-keyboard-response","149","45653","0.0-149.0","39N5ACM9HF9WY298FW21X4RCDSD9PW","A1EFBEBVZP3D6G","3S1L4CQSFXRWQOWP2XFUSMS4AZDFAL","","null","<img src=""img/food2.png"" style=""width:200px; border:14px solid green;"">","null","","","","","","","","","",""
"","image-keyboard-response","150","45879","0.0-150.0","39N5ACM9HF9WY298FW21X4RCDSD9PW","A1EFBEBVZP3D6G","3S1L4CQSFXRWQOWP2XFUSMS4AZDFAL","","225","img/food6.png","74","225","1","1","1","1","1,0.7,0,1,0.7,0,0.7,0,1","0.7,0,1,0.7,0,1,0,1,0.7","2","",""
"","html-keyboard-response","151","46184","0.0-151.0","39N5ACM9HF9WY298FW21X4RCDSD9PW","A1EFBEBVZP3D6G","3S1L4CQSFXRWQOWP2XFUSMS4AZDFAL","","null","<img src=""img/food6.png"" style=""width:200px; border:14px solid green;"">","null","","","","","","","","","",""
"","image-keyboard-response","152","46222","0.0-152.0","39N5ACM9HF9WY298FW21X4RCDSD9PW","A1EFBEBVZP3D6G","3S1L4CQSFXRWQOWP2XFUSMS4AZDFAL","","37","img/food4.png","74","37","1","1","2","1","1,0.7,0,1,0.7,0,0.7,0,1","0.7,0,1,0.7,0,1,0,1,0.7","2","",""
"","html-keyboard-response","153","46526","0.0-153.0","39N5ACM9HF9WY298FW21X4RCDSD9PW","A1EFBEBVZP3D6G","3S1L4CQSFXRWQOWP2XFUSMS4AZDFAL","","null","<img src=""img/food4.png"" style=""width:200px; border:14px solid green;"">","null","","","","","","","","","",""
"","image-keyboard-response","154","46587","0.0-154.0","39N5ACM9HF9WY298FW21X4RCDSD9PW","A1EFBEBVZP3D6G","3S1L4CQSFXRWQOWP2XFUSMS4AZDFAL","","59","img/food6.png","76","60","3","1","1","1","1,0.7,0,1,0.7,0,0.7,0,1","0.7,0,1,0.7,0,1,0,1,0.7","2","",""
"","html-keyboard-response","155","46889","0.0-155.0","39N5ACM9HF9WY298FW21X4RCDSD9PW","A1EFBEBVZP3D6G","3S1L4CQSFXRWQOWP2XFUSMS4AZDFAL","","null","<img src=""img/food6.png"" style=""width:200px; border:14px solid green;"">","null","","","","","","","","","",""
"","image-keyboard-response","156","46908","0.0-156.0","39N5ACM9HF9WY298FW21X4RCDSD9PW","A1EFBEBVZP3D6G","3S1L4CQSFXRWQOWP2XFUSMS4AZDFAL","","17","img/food6.png","76","18","3","1","1","1","1,0.7,0,1,0.7,0,0.7,0,1","0.7,0,1,0.7,0,1,0,1,0.7","2","",""
"","html-keyboard-response","157","47209","0.0-157.0","39N5ACM9HF9WY298FW21X4RCDSD9PW","A1EFBEBVZP3D6G","3S1L4CQSFXRWQOWP2XFUSMS4AZDFAL","","null","<img src=""img/food6.png"" style=""width:200px; border:14px solid green;"">","null","","","","","","","","","",""
"","image-keyboard-response","158","47238","0.0-158.0","39N5ACM9HF9WY298FW21X4RCDSD9PW","A1EFBEBVZP3D6G","3S1L4CQSFXRWQOWP2XFUSMS4AZDFAL","","27","img/food4.png","76","28","3","1","2","1","1,0.7,0,1,0.7,0,0.7,0,1","0.7,0,1,0.7,0,1,0,1,0.7","2","",""
"","html-keyboard-response","159","47540","0.0-159.0","39N5ACM9HF9WY298FW21X4RCDSD9PW","A1EFBEBVZP3D6G","3S1L4CQSFXRWQOWP2XFUSMS4AZDFAL","","null","<img src=""img/food4.png"" style=""width:200px; border:14px solid green;"">","null","","","","","","","","","",""
"","image-keyboard-response","160","47658","0.0-160.0","39N5ACM9HF9WY298FW21X4RCDSD9PW","A1EFBEBVZP3D6G","3S1L4CQSFXRWQOWP2XFUSMS4AZDFAL","","117","img/food2.png","75","117","2","1","3","1","1,0.7,0,1,0.7,0,0.7,0,1","0.7,0,1,0.7,0,1,0,1,0.7","2","",""
"","html-keyboard-response","161","47960","0.0-161.0","39N5ACM9HF9WY298FW21X4RCDSD9PW","A1EFBEBVZP3D6G","3S1L4CQSFXRWQOWP2XFUSMS4AZDFAL","","null","<img src=""img/food2.png"" style=""width:200px; border:14px solid green;"">","null","","","","","","","","","",""
"","image-keyboard-response","162","48022","0.0-162.0","39N5ACM9HF9WY298FW21X4RCDSD9PW","A1EFBEBVZP3D6G","3S1L4CQSFXRWQOWP2XFUSMS4AZDFAL","","61","img/food4.png","74","61","1","1","2","1","1,0.7,0,1,0.7,0,0.7,0,1","0.7,0,1,0.7,0,1,0,1,0.7","2","",""
"","html-keyboard-response","163","48324","0.0-163.0","39N5ACM9HF9WY298FW21X4RCDSD9PW","A1EFBEBVZP3D6G","3S1L4CQSFXRWQOWP2XFUSMS4AZDFAL","","null","<img src=""img/food4.png"" style=""width:200px; border:14px solid green;"">","null","","","","","","","","","",""
"","image-keyboard-response","164","48464","0.0-164.0","39N5ACM9HF9WY298FW21X4RCDSD9PW","A1EFBEBVZP3D6G","3S1L4CQSFXRWQOWP2XFUSMS4AZDFAL","","137","img/food2.png","75","139","2","1","3","1","1,0.7,0,1,0.7,0,0.7,0,1","0.7,0,1,0.7,0,1,0,1,0.7","2","",""
"","html-keyboard-response","165","48765","0.0-165.0","39N5ACM9HF9WY298FW21X4RCDSD9PW","A1EFBEBVZP3D6G","3S1L4CQSFXRWQOWP2XFUSMS4AZDFAL","","null","<img src=""img/food2.png"" style=""width:200px; border:14px solid green;"">","null","","","","","","","","","",""
"","image-keyboard-response","166","48945","0.0-166.0","39N5ACM9HF9WY298FW21X4RCDSD9PW","A1EFBEBVZP3D6G","3S1L4CQSFXRWQOWP2XFUSMS4AZDFAL","","177","img/food2.png","76","179","3","0","3","1","1,0.7,0,1,0.7,0,0.7,0,1","0.7,0,1,0.7,0,1,0,1,0.7","2","",""
"","html-keyboard-response","167","49247","0.0-167.0","39N5ACM9HF9WY298FW21X4RCDSD9PW","A1EFBEBVZP3D6G","3S1L4CQSFXRWQOWP2XFUSMS4AZDFAL","","null","<img src=""img/food2.png"" style=""width:200px;border:14px solid red;"">","null","","","","","","","","","",""
"","image-keyboard-response","168","49292","0.0-168.0","39N5ACM9HF9WY298FW21X4RCDSD9PW","A1EFBEBVZP3D6G","3S1L4CQSFXRWQOWP2XFUSMS4AZDFAL","","44","img/food6.png","75","44","2","0","1","1","1,0.7,0,1,0.7,0,0.7,0,1","0.7,0,1,0.7,0,1,0,1,0.7","2","",""
"","html-keyboard-response","169","49593","0.0-169.0","39N5ACM9HF9WY298FW21X4RCDSD9PW","A1EFBEBVZP3D6G","3S1L4CQSFXRWQOWP2XFUSMS4AZDFAL","","null","<img src=""img/food6.png"" style=""width:200px;border:14px solid red;"">","null","","","","","","","","","",""
"","image-keyboard-response","170","49694","0.0-170.0","39N5ACM9HF9WY298FW21X4RCDSD9PW","A1EFBEBVZP3D6G","3S1L4CQSFXRWQOWP2XFUSMS4AZDFAL","","99","img/food4.png","76","100","3","1","2","1","1,0.7,0,1,0.7,0,0.7,0,1","0.7,0,1,0.7,0,1,0,1,0.7","2","",""
"","html-keyboard-response","171","49997","0.0-171.0","39N5ACM9HF9WY298FW21X4RCDSD9PW","A1EFBEBVZP3D6G","3S1L4CQSFXRWQOWP2XFUSMS4AZDFAL","","null","<img src=""img/food4.png"" style=""width:200px; border:14px solid green;"">","null","","","","","","","","","",""
"","image-keyboard-response","172","50039","0.0-172.0","39N5ACM9HF9WY298FW21X4RCDSD9PW","A1EFBEBVZP3D6G","3S1L4CQSFXRWQOWP2XFUSMS4AZDFAL","","41","img/food4.png","74","42","1","1","2","1","1,0.7,0,1,0.7,0,0.7,0,1","0.7,0,1,0.7,0,1,0,1,0.7","2","",""
"","html-keyboard-response","173","50341","0.0-173.0","39N5ACM9HF9WY298FW21X4RCDSD9PW","A1EFBEBVZP3D6G","3S1L4CQSFXRWQOWP2XFUSMS4AZDFAL","","null","<img src=""img/food4.png"" style=""width:200px; border:14px solid green;"">","null","","","","","","","","","",""
"","image-keyboard-response","174","50417","0.0-174.0","39N5ACM9HF9WY298FW21X4RCDSD9PW","A1EFBEBVZP3D6G","3S1L4CQSFXRWQOWP2XFUSMS4AZDFAL","","75","img/food4.png","75","75","2","0","2","1","1,0.7,0,1,0.7,0,0.7,0,1","0.7,0,1,0.7,0,1,0,1,0.7","2","",""
"","html-keyboard-response","175","50718","0.0-175.0","39N5ACM9HF9WY298FW21X4RCDSD9PW","A1EFBEBVZP3D6G","3S1L4CQSFXRWQOWP2XFUSMS4AZDFAL","","null","<img src=""img/food4.png"" style=""width:200px;border:14px solid red;"">","null","","","","","","","","","",""
"","image-keyboard-response","176","50854","0.0-176.0","39N5ACM9HF9WY298FW21X4RCDSD9PW","A1EFBEBVZP3D6G","3S1L4CQSFXRWQOWP2XFUSMS4AZDFAL","","134","img/food6.png","76","136","3","1","1","1","1,0.7,0,1,0.7,0,0.7,0,1","0.7,0,1,0.7,0,1,0,1,0.7","2","",""
"","html-keyboard-response","177","51156","0.0-177.0","39N5ACM9HF9WY298FW21X4RCDSD9PW","A1EFBEBVZP3D6G","3S1L4CQSFXRWQOWP2XFUSMS4AZDFAL","","null","<img src=""img/food6.png"" style=""width:200px; border:14px solid green;"">","null","","","","","","","","","",""
"","image-keyboard-response","178","51161","0.0-178.0","39N5ACM9HF9WY298FW21X4RCDSD9PW","A1EFBEBVZP3D6G","3S1L4CQSFXRWQOWP2XFUSMS4AZDFAL","","4","img/food6.png","76","5","3","1","1","1","1,0.7,0,1,0.7,0,0.7,0,1","0.7,0,1,0.7,0,1,0,1,0.7","2","",""
"","html-keyboard-response","179","51462","0.0-179.0","39N5ACM9HF9WY298FW21X4RCDSD9PW","A1EFBEBVZP3D6G","3S1L4CQSFXRWQOWP2XFUSMS4AZDFAL","","null","<img src=""img/food6.png"" style=""width:200px; border:14px solid green;"">","null","","","","","","","","","",""
"","image-keyboard-response","180","51522","0.0-180.0","39N5ACM9HF9WY298FW21X4RCDSD9PW","A1EFBEBVZP3D6G","3S1L4CQSFXRWQOWP2XFUSMS4AZDFAL","","58","img/food6.png","75","59","2","0","1","1","1,0.7,0,1,0.7,0,0.7,0,1","0.7,0,1,0.7,0,1,0,1,0.7","2","",""
"","html-keyboard-response","181","51824","0.0-181.0","39N5ACM9HF9WY298FW21X4RCDSD9PW","A1EFBEBVZP3D6G","3S1L4CQSFXRWQOWP2XFUSMS4AZDFAL","","null","<img src=""img/food6.png"" style=""width:200px;border:14px solid red;"">","null","","","","","","","","","",""
"","html-keyboard-response","182","54630","0.0-182.0","39N5ACM9HF9WY298FW21X4RCDSD9PW","A1EFBEBVZP3D6G","3S1L4CQSFXRWQOWP2XFUSMS4AZDFAL","","","","","","","","","","","","","",""
"","instructions","183","57269","0.0-183.0","39N5ACM9HF9WY298FW21X4RCDSD9PW","A1EFBEBVZP3D6G","3S1L4CQSFXRWQOWP2XFUSMS4AZDFAL","[{""page_index"":0,""viewing_time"":1178},{""page_index"":1,""viewing_time"":1457}]","2636","","","","","","","","","","","",""
"","image-keyboard-response","184","58275","0.0-184.0","39N5ACM9HF9WY298FW21X4RCDSD9PW","A1EFBEBVZP3D6G","3S1L4CQSFXRWQOWP2XFUSMS4AZDFAL","","","img/food3.png","","1005","-1","0","3","2","1,0.7,0,1,0.7,0,0.7,0,1","0,1,0.7,0,1,0.7,1,0.7,0","3","true",""
"","html-keyboard-response","185","58579","0.0-185.0","39N5ACM9HF9WY298FW21X4RCDSD9PW","A1EFBEBVZP3D6G","3S1L4CQSFXRWQOWP2XFUSMS4AZDFAL","","null","<img src=""img/food3.png"" style=""width:200px;border:14px solid red;"">","null","","","","","","","","","",""
"","html-keyboard-response","186","62599","0.0-186.0-0.0","39N5ACM9HF9WY298FW21X4RCDSD9PW","A1EFBEBVZP3D6G","3S1L4CQSFXRWQOWP2XFUSMS4AZDFAL","","","","","","","","","","","","","",""
"","image-keyboard-response","187","63602","0.0-187.0","39N5ACM9HF9WY298FW21X4RCDSD9PW","A1EFBEBVZP3D6G","3S1L4CQSFXRWQOWP2XFUSMS4AZDFAL","","","img/food3.png","","1002","-1","0","3","2","1,0.7,0,1,0.7,0,0.7,0,1","0,1,0.7,0,1,0.7,1,0.7,0","3","true",""
"","html-keyboard-response","188","63905","0.0-188.0","39N5ACM9HF9WY298FW21X4RCDSD9PW","A1EFBEBVZP3D6G","3S1L4CQSFXRWQOWP2XFUSMS4AZDFAL","","null","<img src=""img/food3.png"" style=""width:200px;border:14px solid red;"">","null","","","","","","","","","",""
"","html-keyboard-response","189","70399","0.0-189.0-0.0","39N5ACM9HF9WY298FW21X4RCDSD9PW","A1EFBEBVZP3D6G","3S1L4CQSFXRWQOWP2XFUSMS4AZDFAL","","","","","","","","","","","","","",""
"","image-keyboard-response","190","71401","0.0-190.0","39N5ACM9HF9WY298FW21X4RCDSD9PW","A1EFBEBVZP3D6G","3S1L4CQSFXRWQOWP2XFUSMS4AZDFAL","","","img/food5.png","","1002","-1","0","2","2","1,0.7,0,1,0.7,0,0.7,0,1","0,1,0.7,0,1,0.7,1,0.7,0","3","true",""
"","html-keyboard-response","191","71704","0.0-191.0","39N5ACM9HF9WY298FW21X4RCDSD9PW","A1EFBEBVZP3D6G","3S1L4CQSFXRWQOWP2XFUSMS4AZDFAL","","null","<img src=""img/food5.png"" style=""width:200px;border:14px solid red;"">","null","","","","","","","","","",""
"","html-keyboard-response","192","75638","0.0-192.0-0.0","39N5ACM9HF9WY298FW21X4RCDSD9PW","A1EFBEBVZP3D6G","3S1L4CQSFXRWQOWP2XFUSMS4AZDFAL","","","","","","","","","","","","","",""
"","image-keyboard-response","193","76642","0.0-193.0","39N5ACM9HF9WY298FW21X4RCDSD9PW","A1EFBEBVZP3D6G","3S1L4CQSFXRWQOWP2XFUSMS4AZDFAL","","","img/food3.png","","1003","-1","0","3","2","1,0.7,0,1,0.7,0,0.7,0,1","0,1,0.7,0,1,0.7,1,0.7,0","3","true",""
"","html-keyboard-response","194","76945","0.0-194.0","39N5ACM9HF9WY298FW21X4RCDSD9PW","A1EFBEBVZP3D6G","3S1L4CQSFXRWQOWP2XFUSMS4AZDFAL","","null","<img src=""img/food3.png"" style=""width:200px;border:14px solid red;"">","null","","","","","","","","","",""
"","html-keyboard-response","195","79069","0.0-195.0-0.0","39N5ACM9HF9WY298FW21X4RCDSD9PW","A1EFBEBVZP3D6G","3S1L4CQSFXRWQOWP2XFUSMS4AZDFAL","","","","","","","","","","","","","",""
"","image-keyboard-response","196","80024","0.0-196.0","39N5ACM9HF9WY298FW21X4RCDSD9PW","A1EFBEBVZP3D6G","3S1L4CQSFXRWQOWP2XFUSMS4AZDFAL","","950","img/food3.png","76","954","3","0","3","2","1,0.7,0,1,0.7,0,0.7,0,1","0,1,0.7,0,1,0.7,1,0.7,0","3","false",""
"","html-keyboard-response","197","80326","0.0-197.0","39N5ACM9HF9WY298FW21X4RCDSD9PW","A1EFBEBVZP3D6G","3S1L4CQSFXRWQOWP2XFUSMS4AZDFAL","","null","<img src=""img/food3.png"" style=""width:200px;border:14px solid red;"">","null","","","","","","","","","",""
"","image-keyboard-response","198","81219","0.0-199.0","39N5ACM9HF9WY298FW21X4RCDSD9PW","A1EFBEBVZP3D6G","3S1L4CQSFXRWQOWP2XFUSMS4AZDFAL","","890","img/food3.png","76","892","3","0","3","2","1,0.7,0,1,0.7,0,0.7,0,1","0,1,0.7,0,1,0.7,1,0.7,0","3","false",""
"","html-keyboard-response","199","81521","0.0-200.0","39N5ACM9HF9WY298FW21X4RCDSD9PW","A1EFBEBVZP3D6G","3S1L4CQSFXRWQOWP2XFUSMS4AZDFAL","","null","<img src=""img/food3.png"" style=""width:200px;border:14px solid red;"">","null","","","","","","","","","",""
"","image-keyboard-response","200","82525","0.0-202.0","39N5ACM9HF9WY298FW21X4RCDSD9PW","A1EFBEBVZP3D6G","3S1L4CQSFXRWQOWP2XFUSMS4AZDFAL","","","img/food5.png","","1003","-1","0","2","2","1,0.7,0,1,0.7,0,0.7,0,1","0,1,0.7,0,1,0.7,1,0.7,0","3","true",""
"","html-keyboard-response","201","82828","0.0-203.0","39N5ACM9HF9WY298FW21X4RCDSD9PW","A1EFBEBVZP3D6G","3S1L4CQSFXRWQOWP2XFUSMS4AZDFAL","","null","<img src=""img/food5.png"" style=""width:200px;border:14px solid red;"">","null","","","","","","","","","",""
"","html-keyboard-response","202","99011","0.0-204.0-0.0","39N5ACM9HF9WY298FW21X4RCDSD9PW","A1EFBEBVZP3D6G","3S1L4CQSFXRWQOWP2XFUSMS4AZDFAL","","","","","","","","","","","","","",""
"","image-keyboard-response","203","99068","0.0-205.0","39N5ACM9HF9WY298FW21X4RCDSD9PW","A1EFBEBVZP3D6G","3S1L4CQSFXRWQOWP2XFUSMS4AZDFAL","","52","img/food5.png","74","56","1","0","2","2","1,0.7,0,1,0.7,0,0.7,0,1","0,1,0.7,0,1,0.7,1,0.7,0","3","false",""
"","html-keyboard-response","204","99372","0.0-206.0","39N5ACM9HF9WY298FW21X4RCDSD9PW","A1EFBEBVZP3D6G","3S1L4CQSFXRWQOWP2XFUSMS4AZDFAL","","null","<img src=""img/food5.png"" style=""width:200px;border:14px solid red;"">","null","","","","","","","","","",""
"","image-keyboard-response","205","99719","0.0-208.0","39N5ACM9HF9WY298FW21X4RCDSD9PW","A1EFBEBVZP3D6G","3S1L4CQSFXRWQOWP2XFUSMS4AZDFAL","","344","img/food1.png","74","345","1","0","1","2","1,0.7,0,1,0.7,0,0.7,0,1","0,1,0.7,0,1,0.7,1,0.7,0","3","false",""
"","html-keyboard-response","206","100021","0.0-209.0","39N5ACM9HF9WY298FW21X4RCDSD9PW","A1EFBEBVZP3D6G","3S1L4CQSFXRWQOWP2XFUSMS4AZDFAL","","null","<img src=""img/food1.png"" style=""width:200px;border:14px solid red;"">","null","","","","","","","","","",""
"","image-keyboard-response","207","100148","0.0-211.0","39N5ACM9HF9WY298FW21X4RCDSD9PW","A1EFBEBVZP3D6G","3S1L4CQSFXRWQOWP2XFUSMS4AZDFAL","","125","img/food1.png","74","126","1","0","1","2","1,0.7,0,1,0.7,0,0.7,0,1","0,1,0.7,0,1,0.7,1,0.7,0","3","false",""
"","html-keyboard-response","208","100468","0.0-212.0","39N5ACM9HF9WY298FW21X4RCDSD9PW","A1EFBEBVZP3D6G","3S1L4CQSFXRWQOWP2XFUSMS4AZDFAL","","null","<img src=""img/food1.png"" style=""width:200px;border:14px solid red;"">","null","","","","","","","","","",""
"","image-keyboard-response","209","100568","0.0-214.0","39N5ACM9HF9WY298FW21X4RCDSD9PW","A1EFBEBVZP3D6G","3S1L4CQSFXRWQOWP2XFUSMS4AZDFAL","","99","img/food1.png","76","101","3","0","1","2","1,0.7,0,1,0.7,0,0.7,0,1","0,1,0.7,0,1,0.7,1,0.7,0","3","false",""
"","html-keyboard-response","210","100870","0.0-215.0","39N5ACM9HF9WY298FW21X4RCDSD9PW","A1EFBEBVZP3D6G","3S1L4CQSFXRWQOWP2XFUSMS4AZDFAL","","null","<img src=""img/food1.png"" style=""width:200px;border:14px solid red;"">","null","","","","","","","","","",""
"","image-keyboard-response","211","101009","0.0-217.0","39N5ACM9HF9WY298FW21X4RCDSD9PW","A1EFBEBVZP3D6G","3S1L4CQSFXRWQOWP2XFUSMS4AZDFAL","","133","img/food5.png","74","136","1","0","2","2","1,0.7,0,1,0.7,0,0.7,0,1","0,1,0.7,0,1,0.7,1,0.7,0","3","false",""
"","html-keyboard-response","212","101325","0.0-218.0","39N5ACM9HF9WY298FW21X4RCDSD9PW","A1EFBEBVZP3D6G","3S1L4CQSFXRWQOWP2XFUSMS4AZDFAL","","null","<img src=""img/food5.png"" style=""width:200px;border:14px solid red;"">","null","","","","","","","","","",""
"","image-keyboard-response","213","101508","0.0-220.0","39N5ACM9HF9WY298FW21X4RCDSD9PW","A1EFBEBVZP3D6G","3S1L4CQSFXRWQOWP2XFUSMS4AZDFAL","","177","img/food3.png","74","181","1","1","3","2","1,0.7,0,1,0.7,0,0.7,0,1","0,1,0.7,0,1,0.7,1,0.7,0","3","false",""
"","html-keyboard-response","214","101810","0.0-221.0","39N5ACM9HF9WY298FW21X4RCDSD9PW","A1EFBEBVZP3D6G","3S1L4CQSFXRWQOWP2XFUSMS4AZDFAL","","null","<img src=""img/food3.png"" style=""width:200px; border:14px solid green;"">","null","","","","","","","","","",""
"","image-keyboard-response","215","101864","0.0-223.0","39N5ACM9HF9WY298FW21X4RCDSD9PW","A1EFBEBVZP3D6G","3S1L4CQSFXRWQOWP2XFUSMS4AZDFAL","","50","img/food1.png","74","52","1","0","1","2","1,0.7,0,1,0.7,0,0.7,0,1","0,1,0.7,0,1,0.7,1,0.7,0","3","false",""
"","html-keyboard-response","216","102165","0.0-224.0","39N5ACM9HF9WY298FW21X4RCDSD9PW","A1EFBEBVZP3D6G","3S1L4CQSFXRWQOWP2XFUSMS4AZDFAL","","null","<img src=""img/food1.png"" style=""width:200px;border:14px solid red;"">","null","","","","","","","","","",""
"","image-keyboard-response","217","102410","0.0-226.0","39N5ACM9HF9WY298FW21X4RCDSD9PW","A1EFBEBVZP3D6G","3S1L4CQSFXRWQOWP2XFUSMS4AZDFAL","","242","img/food3.png","74","243","1","1","3","2","1,0.7,0,1,0.7,0,0.7,0,1","0,1,0.7,0,1,0.7,1,0.7,0","3","false",""
"","html-keyboard-response","218","102715","0.0-227.0","39N5ACM9HF9WY298FW21X4RCDSD9PW","A1EFBEBVZP3D6G","3S1L4CQSFXRWQOWP2XFUSMS4AZDFAL","","null","<img src=""img/food3.png"" style=""width:200px; border:14px solid green;"">","null","","","","","","","","","",""
"","image-keyboard-response","219","102798","0.0-229.0","39N5ACM9HF9WY298FW21X4RCDSD9PW","A1EFBEBVZP3D6G","3S1L4CQSFXRWQOWP2XFUSMS4AZDFAL","","81","img/food3.png","76","82","3","0","3","2","1,0.7,0,1,0.7,0,0.7,0,1","0,1,0.7,0,1,0.7,1,0.7,0","3","false",""
"","html-keyboard-response","220","103101","0.0-230.0","39N5ACM9HF9WY298FW21X4RCDSD9PW","A1EFBEBVZP3D6G","3S1L4CQSFXRWQOWP2XFUSMS4AZDFAL","","null","<img src=""img/food3.png"" style=""width:200px;border:14px solid red;"">","null","","","","","","","","","",""
"","image-keyboard-response","221","103188","0.0-232.0","39N5ACM9HF9WY298FW21X4RCDSD9PW","A1EFBEBVZP3D6G","3S1L4CQSFXRWQOWP2XFUSMS4AZDFAL","","85","img/food5.png","74","86","1","0","2","2","1,0.7,0,1,0.7,0,0.7,0,1","0,1,0.7,0,1,0.7,1,0.7,0","3","false",""
"","html-keyboard-response","222","103493","0.0-233.0","39N5ACM9HF9WY298FW21X4RCDSD9PW","A1EFBEBVZP3D6G","3S1L4CQSFXRWQOWP2XFUSMS4AZDFAL","","null","<img src=""img/food5.png"" style=""width:200px;border:14px solid red;"">","null","","","","","","","","","",""
"","image-keyboard-response","223","103497","0.0-235.0","39N5ACM9HF9WY298FW21X4RCDSD9PW","A1EFBEBVZP3D6G","3S1L4CQSFXRWQOWP2XFUSMS4AZDFAL","","3","img/food1.png","75","3","2","1","1","2","1,0.7,0,1,0.7,0,0.7,0,1","0,1,0.7,0,1,0.7,1,0.7,0","3","false",""
"","html-keyboard-response","224","103800","0.0-236.0","39N5ACM9HF9WY298FW21X4RCDSD9PW","A1EFBEBVZP3D6G","3S1L4CQSFXRWQOWP2XFUSMS4AZDFAL","","null","<img src=""img/food1.png"" style=""width:200px; border:14px solid green;"">","null","","","","","","","","","",""
"","image-keyboard-response","225","104018","0.0-238.0","39N5ACM9HF9WY298FW21X4RCDSD9PW","A1EFBEBVZP3D6G","3S1L4CQSFXRWQOWP2XFUSMS4AZDFAL","","215","img/food3.png","74","217","1","1","3","2","1,0.7,0,1,0.7,0,0.7,0,1","0,1,0.7,0,1,0.7,1,0.7,0","3","false",""
"","html-keyboard-response","226","104319","0.0-239.0","39N5ACM9HF9WY298FW21X4RCDSD9PW","A1EFBEBVZP3D6G","3S1L4CQSFXRWQOWP2XFUSMS4AZDFAL","","null","<img src=""img/food3.png"" style=""width:200px; border:14px solid green;"">","null","","","","","","","","","",""
"","image-keyboard-response","227","104403","0.0-241.0","39N5ACM9HF9WY298FW21X4RCDSD9PW","A1EFBEBVZP3D6G","3S1L4CQSFXRWQOWP2XFUSMS4AZDFAL","","79","img/food5.png","74","82","1","0","2","2","1,0.7,0,1,0.7,0,0.7,0,1","0,1,0.7,0,1,0.7,1,0.7,0","3","false",""
"","html-keyboard-response","228","104705","0.0-242.0","39N5ACM9HF9WY298FW21X4RCDSD9PW","A1EFBEBVZP3D6G","3S1L4CQSFXRWQOWP2XFUSMS4AZDFAL","","null","<img src=""img/food5.png"" style=""width:200px;border:14px solid red;"">","null","","","","","","","","","",""
"","image-keyboard-response","229","104748","0.0-244.0","39N5ACM9HF9WY298FW21X4RCDSD9PW","A1EFBEBVZP3D6G","3S1L4CQSFXRWQOWP2XFUSMS4AZDFAL","","36","img/food1.png","74","41","1","0","1","2","1,0.7,0,1,0.7,0,0.7,0,1","0,1,0.7,0,1,0.7,1,0.7,0","3","false",""
"","html-keyboard-response","230","105051","0.0-245.0","39N5ACM9HF9WY298FW21X4RCDSD9PW","A1EFBEBVZP3D6G","3S1L4CQSFXRWQOWP2XFUSMS4AZDFAL","","null","<img src=""img/food1.png"" style=""width:200px;border:14px solid red;"">","null","","","","","","","","","",""
"","image-keyboard-response","231","105088","0.0-247.0","39N5ACM9HF9WY298FW21X4RCDSD9PW","A1EFBEBVZP3D6G","3S1L4CQSFXRWQOWP2XFUSMS4AZDFAL","","34","img/food5.png","74","35","1","0","2","2","1,0.7,0,1,0.7,0,0.7,0,1","0,1,0.7,0,1,0.7,1,0.7,0","3","false",""
"","html-keyboard-response","232","105391","0.0-248.0","39N5ACM9HF9WY298FW21X4RCDSD9PW","A1EFBEBVZP3D6G","3S1L4CQSFXRWQOWP2XFUSMS4AZDFAL","","null","<img src=""img/food5.png"" style=""width:200px;border:14px solid red;"">","null","","","","","","","","","",""
"","image-keyboard-response","233","105433","0.0-250.0","39N5ACM9HF9WY298FW21X4RCDSD9PW","A1EFBEBVZP3D6G","3S1L4CQSFXRWQOWP2XFUSMS4AZDFAL","","39","img/food1.png","74","41","1","0","1","2","1,0.7,0,1,0.7,0,0.7,0,1","0,1,0.7,0,1,0.7,1,0.7,0","3","false",""
"","html-keyboard-response","234","105737","0.0-251.0","39N5ACM9HF9WY298FW21X4RCDSD9PW","A1EFBEBVZP3D6G","3S1L4CQSFXRWQOWP2XFUSMS4AZDFAL","","null","<img src=""img/food1.png"" style=""width:200px;border:14px solid red;"">","null","","","","","","","","","",""
"","image-keyboard-response","235","105748","0.0-253.0","39N5ACM9HF9WY298FW21X4RCDSD9PW","A1EFBEBVZP3D6G","3S1L4CQSFXRWQOWP2XFUSMS4AZDFAL","","8","img/food1.png","76","9","3","1","1","2","1,0.7,0,1,0.7,0,0.7,0,1","0,1,0.7,0,1,0.7,1,0.7,0","3","false",""
"","html-keyboard-response","236","106051","0.0-254.0","39N5ACM9HF9WY298FW21X4RCDSD9PW","A1EFBEBVZP3D6G","3S1L4CQSFXRWQOWP2XFUSMS4AZDFAL","","null","<img src=""img/food1.png"" style=""width:200px; border:14px solid green;"">","null","","","","","","","","","",""
"","image-keyboard-response","237","106217","0.0-256.0","39N5ACM9HF9WY298FW21X4RCDSD9PW","A1EFBEBVZP3D6G","3S1L4CQSFXRWQOWP2XFUSMS4AZDFAL","","164","img/food1.png","74","165","1","0","1","2","1,0.7,0,1,0.7,0,0.7,0,1","0,1,0.7,0,1,0.7,1,0.7,0","3","false",""
"","html-keyboard-response","238","106519","0.0-257.0","39N5ACM9HF9WY298FW21X4RCDSD9PW","A1EFBEBVZP3D6G","3S1L4CQSFXRWQOWP2XFUSMS4AZDFAL","","null","<img src=""img/food1.png"" style=""width:200px;border:14px solid red;"">","null","","","","","","","","","",""
"","image-keyboard-response","239","106577","0.0-259.0","39N5ACM9HF9WY298FW21X4RCDSD9PW","A1EFBEBVZP3D6G","3S1L4CQSFXRWQOWP2XFUSMS4AZDFAL","","54","img/food1.png","76","56","3","1","1","2","1,0.7,0,1,0.7,0,0.7,0,1","0,1,0.7,0,1,0.7,1,0.7,0","3","false",""
"","html-keyboard-response","240","106879","0.0-260.0","39N5ACM9HF9WY298FW21X4RCDSD9PW","A1EFBEBVZP3D6G","3S1L4CQSFXRWQOWP2XFUSMS4AZDFAL","","null","<img src=""img/food1.png"" style=""width:200px; border:14px solid green;"">","null","","","","","","","","","",""
"","image-keyboard-response","241","106928","0.0-262.0","39N5ACM9HF9WY298FW21X4RCDSD9PW","A1EFBEBVZP3D6G","3S1L4CQSFXRWQOWP2XFUSMS4AZDFAL","","42","img/food3.png","74","43","1","1","3","2","1,0.7,0,1,0.7,0,0.7,0,1","0,1,0.7,0,1,0.7,1,0.7,0","3","false",""
"","html-keyboard-response","242","107229","0.0-263.0","39N5ACM9HF9WY298FW21X4RCDSD9PW","A1EFBEBVZP3D6G","3S1L4CQSFXRWQOWP2XFUSMS4AZDFAL","","null","<img src=""img/food3.png"" style=""width:200px; border:14px solid green;"">","null","","","","","","","","","",""
"","image-keyboard-response","243","107360","0.0-265.0","39N5ACM9HF9WY298FW21X4RCDSD9PW","A1EFBEBVZP3D6G","3S1L4CQSFXRWQOWP2XFUSMS4AZDFAL","","127","img/food3.png","76","129","3","0","3","2","1,0.7,0,1,0.7,0,0.7,0,1","0,1,0.7,0,1,0.7,1,0.7,0","3","false",""
"","html-keyboard-response","244","107663","0.0-266.0","39N5ACM9HF9WY298FW21X4RCDSD9PW","A1EFBEBVZP3D6G","3S1L4CQSFXRWQOWP2XFUSMS4AZDFAL","","null","<img src=""img/food3.png"" style=""width:200px;border:14px solid red;"">","null","","","","","","","","","",""
"","image-keyboard-response","245","107684","0.0-268.0","39N5ACM9HF9WY298FW21X4RCDSD9PW","A1EFBEBVZP3D6G","3S1L4CQSFXRWQOWP2XFUSMS4AZDFAL","","18","img/food5.png","74","19","1","0","2","2","1,0.7,0,1,0.7,0,0.7,0,1","0,1,0.7,0,1,0.7,1,0.7,0","3","false",""
"","html-keyboard-response","246","107987","0.0-269.0","39N5ACM9HF9WY298FW21X4RCDSD9PW","A1EFBEBVZP3D6G","3S1L4CQSFXRWQOWP2XFUSMS4AZDFAL","","null","<img src=""img/food5.png"" style=""width:200px;border:14px solid red;"">","null","","","","","","","","","",""
"","image-keyboard-response","247","107996","0.0-271.0","39N5ACM9HF9WY298FW21X4RCDSD9PW","A1EFBEBVZP3D6G","3S1L4CQSFXRWQOWP2XFUSMS4AZDFAL","","8","img/food1.png","74","9","1","0","1","2","1,0.7,0,1,0.7,0,0.7,0,1","0,1,0.7,0,1,0.7,1,0.7,0","3","false",""
"","html-keyboard-response","248","108299","0.0-272.0","39N5ACM9HF9WY298FW21X4RCDSD9PW","A1EFBEBVZP3D6G","3S1L4CQSFXRWQOWP2XFUSMS4AZDFAL","","null","<img src=""img/food1.png"" style=""width:200px;border:14px solid red;"">","null","","","","","","","","","",""
"","image-keyboard-response","249","108308","0.0-274.0","39N5ACM9HF9WY298FW21X4RCDSD9PW","A1EFBEBVZP3D6G","3S1L4CQSFXRWQOWP2XFUSMS4AZDFAL","","7","img/food1.png","76","7","3","0","1","2","1,0.7,0,1,0.7,0,0.7,0,1","0,1,0.7,0,1,0.7,1,0.7,0","3","false",""
"","html-keyboard-response","250","108609","0.0-275.0","39N5ACM9HF9WY298FW21X4RCDSD9PW","A1EFBEBVZP3D6G","3S1L4CQSFXRWQOWP2XFUSMS4AZDFAL","","null","<img src=""img/food1.png"" style=""width:200px;border:14px solid red;"">","null","","","","","","","","","",""
"","image-keyboard-response","251","108620","0.0-277.0","39N5ACM9HF9WY298FW21X4RCDSD9PW","A1EFBEBVZP3D6G","3S1L4CQSFXRWQOWP2XFUSMS4AZDFAL","","7","img/food5.png","76","9","3","0","2","2","1,0.7,0,1,0.7,0,0.7,0,1","0,1,0.7,0,1,0.7,1,0.7,0","3","false",""
"","html-keyboard-response","252","108923","0.0-278.0","39N5ACM9HF9WY298FW21X4RCDSD9PW","A1EFBEBVZP3D6G","3S1L4CQSFXRWQOWP2XFUSMS4AZDFAL","","null","<img src=""img/food5.png"" style=""width:200px;border:14px solid red;"">","null","","","","","","","","","",""
"","image-keyboard-response","253","108998","0.0-280.0","39N5ACM9HF9WY298FW21X4RCDSD9PW","A1EFBEBVZP3D6G","3S1L4CQSFXRWQOWP2XFUSMS4AZDFAL","","72","img/food1.png","74","74","1","0","1","2","1,0.7,0,1,0.7,0,0.7,0,1","0,1,0.7,0,1,0.7,1,0.7,0","3","false",""
"","html-keyboard-response","254","109300","0.0-281.0","39N5ACM9HF9WY298FW21X4RCDSD9PW","A1EFBEBVZP3D6G","3S1L4CQSFXRWQOWP2XFUSMS4AZDFAL","","null","<img src=""img/food1.png"" style=""width:200px;border:14px solid red;"">","null","","","","","","","","","",""
"","image-keyboard-response","255","109378","0.0-283.0","39N5ACM9HF9WY298FW21X4RCDSD9PW","A1EFBEBVZP3D6G","3S1L4CQSFXRWQOWP2XFUSMS4AZDFAL","","75","img/food5.png","74","77","1","0","2","2","1,0.7,0,1,0.7,0,0.7,0,1","0,1,0.7,0,1,0.7,1,0.7,0","3","false",""
"","html-keyboard-response","256","109680","0.0-284.0","39N5ACM9HF9WY298FW21X4RCDSD9PW","A1EFBEBVZP3D6G","3S1L4CQSFXRWQOWP2XFUSMS4AZDFAL","","null","<img src=""img/food5.png"" style=""width:200px;border:14px solid red;"">","null","","","","","","","","","",""
"","image-keyboard-response","257","109718","0.0-286.0","39N5ACM9HF9WY298FW21X4RCDSD9PW","A1EFBEBVZP3D6G","3S1L4CQSFXRWQOWP2XFUSMS4AZDFAL","","33","img/food3.png","76","34","3","0","3","2","1,0.7,0,1,0.7,0,0.7,0,1","0,1,0.7,0,1,0.7,1,0.7,0","3","false",""
"","html-keyboard-response","258","110022","0.0-287.0","39N5ACM9HF9WY298FW21X4RCDSD9PW","A1EFBEBVZP3D6G","3S1L4CQSFXRWQOWP2XFUSMS4AZDFAL","","null","<img src=""img/food3.png"" style=""width:200px;border:14px solid red;"">","null","","","","","","","","","",""
"","image-keyboard-response","259","110118","0.0-289.0","39N5ACM9HF9WY298FW21X4RCDSD9PW","A1EFBEBVZP3D6G","3S1L4CQSFXRWQOWP2XFUSMS4AZDFAL","","93","img/food3.png","76","96","3","0","3","2","1,0.7,0,1,0.7,0,0.7,0,1","0,1,0.7,0,1,0.7,1,0.7,0","3","false",""
"","html-keyboard-response","260","110423","0.0-290.0","39N5ACM9HF9WY298FW21X4RCDSD9PW","A1EFBEBVZP3D6G","3S1L4CQSFXRWQOWP2XFUSMS4AZDFAL","","null","<img src=""img/food3.png"" style=""width:200px;border:14px solid red;"">","null","","","","","","","","","",""
"","image-keyboard-response","261","110517","0.0-292.0","39N5ACM9HF9WY298FW21X4RCDSD9PW","A1EFBEBVZP3D6G","3S1L4CQSFXRWQOWP2XFUSMS4AZDFAL","","92","img/food3.png","76","93","3","0","3","2","1,0.7,0,1,0.7,0,0.7,0,1","0,1,0.7,0,1,0.7,1,0.7,0","3","false",""
"","html-keyboard-response","262","110818","0.0-293.0","39N5ACM9HF9WY298FW21X4RCDSD9PW","A1EFBEBVZP3D6G","3S1L4CQSFXRWQOWP2XFUSMS4AZDFAL","","null","<img src=""img/food3.png"" style=""width:200px;border:14px solid red;"">","null","","","","","","","","","",""
"","image-keyboard-response","263","110908","0.0-295.0","39N5ACM9HF9WY298FW21X4RCDSD9PW","A1EFBEBVZP3D6G","3S1L4CQSFXRWQOWP2XFUSMS4AZDFAL","","88","img/food3.png","76","89","3","0","3","2","1,0.7,0,1,0.7,0,0.7,0,1","0,1,0.7,0,1,0.7,1,0.7,0","3","false",""
"","html-keyboard-response","264","111210","0.0-296.0","39N5ACM9HF9WY298FW21X4RCDSD9PW","A1EFBEBVZP3D6G","3S1L4CQSFXRWQOWP2XFUSMS4AZDFAL","","null","<img src=""img/food3.png"" style=""width:200px;border:14px solid red;"">","null","","","","","","","","","",""
"","image-keyboard-response","265","111260","0.0-298.0","39N5ACM9HF9WY298FW21X4RCDSD9PW","A1EFBEBVZP3D6G","3S1L4CQSFXRWQOWP2XFUSMS4AZDFAL","","45","img/food5.png","76","46","3","0","2","2","1,0.7,0,1,0.7,0,0.7,0,1","0,1,0.7,0,1,0.7,1,0.7,0","3","false",""
"","html-keyboard-response","266","111563","0.0-299.0","39N5ACM9HF9WY298FW21X4RCDSD9PW","A1EFBEBVZP3D6G","3S1L4CQSFXRWQOWP2XFUSMS4AZDFAL","","null","<img src=""img/food5.png"" style=""width:200px;border:14px solid red;"">","null","","","","","","","","","",""
"","image-keyboard-response","267","111649","0.0-301.0","39N5ACM9HF9WY298FW21X4RCDSD9PW","A1EFBEBVZP3D6G","3S1L4CQSFXRWQOWP2XFUSMS4AZDFAL","","83","img/food5.png","74","85","1","0","2","2","1,0.7,0,1,0.7,0,0.7,0,1","0,1,0.7,0,1,0.7,1,0.7,0","3","false",""
"","html-keyboard-response","268","111951","0.0-302.0","39N5ACM9HF9WY298FW21X4RCDSD9PW","A1EFBEBVZP3D6G","3S1L4CQSFXRWQOWP2XFUSMS4AZDFAL","","null","<img src=""img/food5.png"" style=""width:200px;border:14px solid red;"">","null","","","","","","","","","",""
"","image-keyboard-response","269","112070","0.0-304.0","39N5ACM9HF9WY298FW21X4RCDSD9PW","A1EFBEBVZP3D6G","3S1L4CQSFXRWQOWP2XFUSMS4AZDFAL","","117","img/food1.png","74","118","1","0","1","2","1,0.7,0,1,0.7,0,0.7,0,1","0,1,0.7,0,1,0.7,1,0.7,0","3","false",""
"","html-keyboard-response","270","112373","0.0-305.0","39N5ACM9HF9WY298FW21X4RCDSD9PW","A1EFBEBVZP3D6G","3S1L4CQSFXRWQOWP2XFUSMS4AZDFAL","","null","<img src=""img/food1.png"" style=""width:200px;border:14px solid red;"">","null","","","","","","","","","",""
"","image-keyboard-response","271","112476","0.0-307.0","39N5ACM9HF9WY298FW21X4RCDSD9PW","A1EFBEBVZP3D6G","3S1L4CQSFXRWQOWP2XFUSMS4AZDFAL","","100","img/food3.png","74","102","1","1","3","2","1,0.7,0,1,0.7,0,0.7,0,1","0,1,0.7,0,1,0.7,1,0.7,0","3","false",""
"","html-keyboard-response","272","112777","0.0-308.0","39N5ACM9HF9WY298FW21X4RCDSD9PW","A1EFBEBVZP3D6G","3S1L4CQSFXRWQOWP2XFUSMS4AZDFAL","","null","<img src=""img/food3.png"" style=""width:200px; border:14px solid green;"">","null","","","","","","","","","",""
"","image-keyboard-response","273","112880","0.0-310.0","39N5ACM9HF9WY298FW21X4RCDSD9PW","A1EFBEBVZP3D6G","3S1L4CQSFXRWQOWP2XFUSMS4AZDFAL","","101","img/food5.png","76","102","3","1","2","2","1,0.7,0,1,0.7,0,0.7,0,1","0,1,0.7,0,1,0.7,1,0.7,0","3","false",""
"","html-keyboard-response","274","113184","0.0-311.0","39N5ACM9HF9WY298FW21X4RCDSD9PW","A1EFBEBVZP3D6G","3S1L4CQSFXRWQOWP2XFUSMS4AZDFAL","","null","<img src=""img/food5.png"" style=""width:200px; border:14px solid green;"">","null","","","","","","","","","",""
"","image-keyboard-response","275","113308","0.0-313.0","39N5ACM9HF9WY298FW21X4RCDSD9PW","A1EFBEBVZP3D6G","3S1L4CQSFXRWQOWP2XFUSMS4AZDFAL","","121","img/food5.png","74","123","1","0","2","2","1,0.7,0,1,0.7,0,0.7,0,1","0,1,0.7,0,1,0.7,1,0.7,0","3","false",""
"","html-keyboard-response","276","113611","0.0-314.0","39N5ACM9HF9WY298FW21X4RCDSD9PW","A1EFBEBVZP3D6G","3S1L4CQSFXRWQOWP2XFUSMS4AZDFAL","","null","<img src=""img/food5.png"" style=""width:200px;border:14px solid red;"">","null","","","","","","","","","",""
"","image-keyboard-response","277","113711","0.0-316.0","39N5ACM9HF9WY298FW21X4RCDSD9PW","A1EFBEBVZP3D6G","3S1L4CQSFXRWQOWP2XFUSMS4AZDFAL","","96","img/food3.png","76","98","3","0","3","2","1,0.7,0,1,0.7,0,0.7,0,1","0,1,0.7,0,1,0.7,1,0.7,0","3","false",""
"","html-keyboard-response","278","114016","0.0-317.0","39N5ACM9HF9WY298FW21X4RCDSD9PW","A1EFBEBVZP3D6G","3S1L4CQSFXRWQOWP2XFUSMS4AZDFAL","","null","<img src=""img/food3.png"" style=""width:200px;border:14px solid red;"">","null","","","","","","","","","",""
"","image-keyboard-response","279","114089","0.0-319.0","39N5ACM9HF9WY298FW21X4RCDSD9PW","A1EFBEBVZP3D6G","3S1L4CQSFXRWQOWP2XFUSMS4AZDFAL","","68","img/food3.png","76","71","3","0","3","2","1,0.7,0,1,0.7,0,0.7,0,1","0,1,0.7,0,1,0.7,1,0.7,0","3","false",""
"","html-keyboard-response","280","114391","0.0-320.0","39N5ACM9HF9WY298FW21X4RCDSD9PW","A1EFBEBVZP3D6G","3S1L4CQSFXRWQOWP2XFUSMS4AZDFAL","","null","<img src=""img/food3.png"" style=""width:200px;border:14px solid red;"">","null","","","","","","","","","",""
"","image-keyboard-response","281","114511","0.0-322.0","39N5ACM9HF9WY298FW21X4RCDSD9PW","A1EFBEBVZP3D6G","3S1L4CQSFXRWQOWP2XFUSMS4AZDFAL","","117","img/food5.png","76","118","3","0","2","2","1,0.7,0,1,0.7,0,0.7,0,1","0,1,0.7,0,1,0.7,1,0.7,0","3","false",""
"","html-keyboard-response","282","114812","0.0-323.0","39N5ACM9HF9WY298FW21X4RCDSD9PW","A1EFBEBVZP3D6G","3S1L4CQSFXRWQOWP2XFUSMS4AZDFAL","","null","<img src=""img/food5.png"" style=""width:200px;border:14px solid red;"">","null","","","","","","","","","",""
"","image-keyboard-response","283","114877","0.0-325.0","39N5ACM9HF9WY298FW21X4RCDSD9PW","A1EFBEBVZP3D6G","3S1L4CQSFXRWQOWP2XFUSMS4AZDFAL","","63","img/food5.png","74","65","1","0","2","2","1,0.7,0,1,0.7,0,0.7,0,1","0,1,0.7,0,1,0.7,1,0.7,0","3","false",""
"","html-keyboard-response","284","115178","0.0-326.0","39N5ACM9HF9WY298FW21X4RCDSD9PW","A1EFBEBVZP3D6G","3S1L4CQSFXRWQOWP2XFUSMS4AZDFAL","","null","<img src=""img/food5.png"" style=""width:200px;border:14px solid red;"">","null","","","","","","","","","",""
"","image-keyboard-response","285","115309","0.0-328.0","39N5ACM9HF9WY298FW21X4RCDSD9PW","A1EFBEBVZP3D6G","3S1L4CQSFXRWQOWP2XFUSMS4AZDFAL","","128","img/food1.png","74","129","1","0","1","2","1,0.7,0,1,0.7,0,0.7,0,1","0,1,0.7,0,1,0.7,1,0.7,0","3","false",""
"","html-keyboard-response","286","115613","0.0-329.0","39N5ACM9HF9WY298FW21X4RCDSD9PW","A1EFBEBVZP3D6G","3S1L4CQSFXRWQOWP2XFUSMS4AZDFAL","","null","<img src=""img/food1.png"" style=""width:200px;border:14px solid red;"">","null","","","","","","","","","",""
"","image-keyboard-response","287","116178","0.0-331.0","39N5ACM9HF9WY298FW21X4RCDSD9PW","A1EFBEBVZP3D6G","3S1L4CQSFXRWQOWP2XFUSMS4AZDFAL","","562","img/food5.png","75","564","2","1","2","2","1,0.7,0,1,0.7,0,0.7,0,1","0,1,0.7,0,1,0.7,1,0.7,0","3","false",""
"","html-keyboard-response","288","116480","0.0-332.0","39N5ACM9HF9WY298FW21X4RCDSD9PW","A1EFBEBVZP3D6G","3S1L4CQSFXRWQOWP2XFUSMS4AZDFAL","","null","<img src=""img/food5.png"" style=""width:200px; border:14px solid green;"">","null","","","","","","","","","",""
"","image-keyboard-response","289","116588","0.0-334.0","39N5ACM9HF9WY298FW21X4RCDSD9PW","A1EFBEBVZP3D6G","3S1L4CQSFXRWQOWP2XFUSMS4AZDFAL","","102","img/food1.png","75","105","2","1","1","2","1,0.7,0,1,0.7,0,0.7,0,1","0,1,0.7,0,1,0.7,1,0.7,0","3","false",""
"","html-keyboard-response","290","116891","0.0-335.0","39N5ACM9HF9WY298FW21X4RCDSD9PW","A1EFBEBVZP3D6G","3S1L4CQSFXRWQOWP2XFUSMS4AZDFAL","","null","<img src=""img/food1.png"" style=""width:200px; border:14px solid green;"">","null","","","","","","","","","",""
"","image-keyboard-response","291","116998","0.0-337.0","39N5ACM9HF9WY298FW21X4RCDSD9PW","A1EFBEBVZP3D6G","3S1L4CQSFXRWQOWP2XFUSMS4AZDFAL","","103","img/food1.png","75","105","2","1","1","2","1,0.7,0,1,0.7,0,0.7,0,1","0,1,0.7,0,1,0.7,1,0.7,0","3","false",""
"","html-keyboard-response","292","117300","0.0-338.0","39N5ACM9HF9WY298FW21X4RCDSD9PW","A1EFBEBVZP3D6G","3S1L4CQSFXRWQOWP2XFUSMS4AZDFAL","","null","<img src=""img/food1.png"" style=""width:200px; border:14px solid green;"">","null","","","","","","","","","",""
"","image-keyboard-response","293","117356","0.0-340.0","39N5ACM9HF9WY298FW21X4RCDSD9PW","A1EFBEBVZP3D6G","3S1L4CQSFXRWQOWP2XFUSMS4AZDFAL","","54","img/food5.png","75","54","2","1","2","2","1,0.7,0,1,0.7,0,0.7,0,1","0,1,0.7,0,1,0.7,1,0.7,0","3","false",""
"","html-keyboard-response","294","117658","0.0-341.0","39N5ACM9HF9WY298FW21X4RCDSD9PW","A1EFBEBVZP3D6G","3S1L4CQSFXRWQOWP2XFUSMS4AZDFAL","","null","<img src=""img/food5.png"" style=""width:200px; border:14px solid green;"">","null","","","","","","","","","",""
"","image-keyboard-response","295","117727","0.0-343.0","39N5ACM9HF9WY298FW21X4RCDSD9PW","A1EFBEBVZP3D6G","3S1L4CQSFXRWQOWP2XFUSMS4AZDFAL","","63","img/food1.png","75","66","2","1","1","2","1,0.7,0,1,0.7,0,0.7,0,1","0,1,0.7,0,1,0.7,1,0.7,0","3","false",""
"","html-keyboard-response","296","118029","0.0-344.0","39N5ACM9HF9WY298FW21X4RCDSD9PW","A1EFBEBVZP3D6G","3S1L4CQSFXRWQOWP2XFUSMS4AZDFAL","","null","<img src=""img/food1.png"" style=""width:200px; border:14px solid green;"">","null","","","","","","","","","",""
"","image-keyboard-response","297","118089","0.0-346.0","39N5ACM9HF9WY298FW21X4RCDSD9PW","A1EFBEBVZP3D6G","3S1L4CQSFXRWQOWP2XFUSMS4AZDFAL","","56","img/food1.png","75","59","2","1","1","2","1,0.7,0,1,0.7,0,0.7,0,1","0,1,0.7,0,1,0.7,1,0.7,0","3","false",""
"","html-keyboard-response","298","118392","0.0-347.0","39N5ACM9HF9WY298FW21X4RCDSD9PW","A1EFBEBVZP3D6G","3S1L4CQSFXRWQOWP2XFUSMS4AZDFAL","","null","<img src=""img/food1.png"" style=""width:200px; border:14px solid green;"">","null","","","","","","","","","",""
"","image-keyboard-response","299","118614","0.0-349.0","39N5ACM9HF9WY298FW21X4RCDSD9PW","A1EFBEBVZP3D6G","3S1L4CQSFXRWQOWP2XFUSMS4AZDFAL","","219","img/food3.png","75","220","2","1","3","2","1,0.7,0,1,0.7,0,0.7,0,1","0,1,0.7,0,1,0.7,1,0.7,0","3","false",""
"","html-keyboard-response","300","118915","0.0-350.0","39N5ACM9HF9WY298FW21X4RCDSD9PW","A1EFBEBVZP3D6G","3S1L4CQSFXRWQOWP2XFUSMS4AZDFAL","","null","<img src=""img/food3.png"" style=""width:200px; border:14px solid green;"">","null","","","","","","","","","",""
"","image-keyboard-response","301","119029","0.0-352.0","39N5ACM9HF9WY298FW21X4RCDSD9PW","A1EFBEBVZP3D6G","3S1L4CQSFXRWQOWP2XFUSMS4AZDFAL","","111","img/food3.png","75","112","2","1","3","2","1,0.7,0,1,0.7,0,0.7,0,1","0,1,0.7,0,1,0.7,1,0.7,0","3","false",""
"","html-keyboard-response","302","119332","0.0-353.0","39N5ACM9HF9WY298FW21X4RCDSD9PW","A1EFBEBVZP3D6G","3S1L4CQSFXRWQOWP2XFUSMS4AZDFAL","","null","<img src=""img/food3.png"" style=""width:200px; border:14px solid green;"">","null","","","","","","","","","",""
"","image-keyboard-response","303","119348","0.0-355.0","39N5ACM9HF9WY298FW21X4RCDSD9PW","A1EFBEBVZP3D6G","3S1L4CQSFXRWQOWP2XFUSMS4AZDFAL","","13","img/food5.png","75","15","2","1","2","2","1,0.7,0,1,0.7,0,0.7,0,1","0,1,0.7,0,1,0.7,1,0.7,0","3","false",""
"","html-keyboard-response","304","119651","0.0-356.0","39N5ACM9HF9WY298FW21X4RCDSD9PW","A1EFBEBVZP3D6G","3S1L4CQSFXRWQOWP2XFUSMS4AZDFAL","","null","<img src=""img/food5.png"" style=""width:200px; border:14px solid green;"">","null","","","","","","","","","",""
"","image-keyboard-response","305","119671","0.0-358.0","39N5ACM9HF9WY298FW21X4RCDSD9PW","A1EFBEBVZP3D6G","3S1L4CQSFXRWQOWP2XFUSMS4AZDFAL","","17","img/food5.png","75","19","2","1","2","2","1,0.7,0,1,0.7,0,0.7,0,1","0,1,0.7,0,1,0.7,1,0.7,0","3","false",""
"","html-keyboard-response","306","119973","0.0-359.0","39N5ACM9HF9WY298FW21X4RCDSD9PW","A1EFBEBVZP3D6G","3S1L4CQSFXRWQOWP2XFUSMS4AZDFAL","","null","<img src=""img/food5.png"" style=""width:200px; border:14px solid green;"">","null","","","","","","","","","",""
"","image-keyboard-response","307","120038","0.0-361.0","39N5ACM9HF9WY298FW21X4RCDSD9PW","A1EFBEBVZP3D6G","3S1L4CQSFXRWQOWP2XFUSMS4AZDFAL","","63","img/food5.png","75","64","2","1","2","2","1,0.7,0,1,0.7,0,0.7,0,1","0,1,0.7,0,1,0.7,1,0.7,0","3","false",""
"","html-keyboard-response","308","120341","0.0-362.0","39N5ACM9HF9WY298FW21X4RCDSD9PW","A1EFBEBVZP3D6G","3S1L4CQSFXRWQOWP2XFUSMS4AZDFAL","","null","<img src=""img/food5.png"" style=""width:200px; border:14px solid green;"">","null","","","","","","","","","",""
"","image-keyboard-response","309","120351","0.0-364.0","39N5ACM9HF9WY298FW21X4RCDSD9PW","A1EFBEBVZP3D6G","3S1L4CQSFXRWQOWP2XFUSMS4AZDFAL","","8","img/food3.png","75","10","2","0","3","2","1,0.7,0,1,0.7,0,0.7,0,1","0,1,0.7,0,1,0.7,1,0.7,0","3","false",""
"","html-keyboard-response","310","120654","0.0-365.0","39N5ACM9HF9WY298FW21X4RCDSD9PW","A1EFBEBVZP3D6G","3S1L4CQSFXRWQOWP2XFUSMS4AZDFAL","","null","<img src=""img/food3.png"" style=""width:200px;border:14px solid red;"">","null","","","","","","","","","",""
"","image-keyboard-response","311","120810","0.0-367.0","39N5ACM9HF9WY298FW21X4RCDSD9PW","A1EFBEBVZP3D6G","3S1L4CQSFXRWQOWP2XFUSMS4AZDFAL","","152","img/food5.png","75","154","2","1","2","2","1,0.7,0,1,0.7,0,0.7,0,1","0,1,0.7,0,1,0.7,1,0.7,0","3","false",""
"","html-keyboard-response","312","121113","0.0-368.0","39N5ACM9HF9WY298FW21X4RCDSD9PW","A1EFBEBVZP3D6G","3S1L4CQSFXRWQOWP2XFUSMS4AZDFAL","","null","<img src=""img/food5.png"" style=""width:200px; border:14px solid green;"">","null","","","","","","","","","",""
"","image-keyboard-response","313","121471","0.0-370.0","39N5ACM9HF9WY298FW21X4RCDSD9PW","A1EFBEBVZP3D6G","3S1L4CQSFXRWQOWP2XFUSMS4AZDFAL","","355","img/food1.png","75","357","2","1","1","2","1,0.7,0,1,0.7,0,0.7,0,1","0,1,0.7,0,1,0.7,1,0.7,0","3","false",""
"","html-keyboard-response","314","121774","0.0-371.0","39N5ACM9HF9WY298FW21X4RCDSD9PW","A1EFBEBVZP3D6G","3S1L4CQSFXRWQOWP2XFUSMS4AZDFAL","","null","<img src=""img/food1.png"" style=""width:200px; border:14px solid green;"">","null","","","","","","","","","",""
"","image-keyboard-response","315","121907","0.0-373.0","39N5ACM9HF9WY298FW21X4RCDSD9PW","A1EFBEBVZP3D6G","3S1L4CQSFXRWQOWP2XFUSMS4AZDFAL","","129","img/food3.png","75","131","2","1","3","2","1,0.7,0,1,0.7,0,0.7,0,1","0,1,0.7,0,1,0.7,1,0.7,0","3","false",""
"","html-keyboard-response","316","122210","0.0-374.0","39N5ACM9HF9WY298FW21X4RCDSD9PW","A1EFBEBVZP3D6G","3S1L4CQSFXRWQOWP2XFUSMS4AZDFAL","","null","<img src=""img/food3.png"" style=""width:200px; border:14px solid green;"">","null","","","","","","","","","",""
"","image-keyboard-response","317","122227","0.0-376.0","39N5ACM9HF9WY298FW21X4RCDSD9PW","A1EFBEBVZP3D6G","3S1L4CQSFXRWQOWP2XFUSMS4AZDFAL","","15","img/food3.png","75","16","2","1","3","2","1,0.7,0,1,0.7,0,0.7,0,1","0,1,0.7,0,1,0.7,1,0.7,0","3","false",""
"","html-keyboard-response","318","122529","0.0-377.0","39N5ACM9HF9WY298FW21X4RCDSD9PW","A1EFBEBVZP3D6G","3S1L4CQSFXRWQOWP2XFUSMS4AZDFAL","","null","<img src=""img/food3.png"" style=""width:200px; border:14px solid green;"">","null","","","","","","","","","",""
"","image-keyboard-response","319","122674","0.0-379.0","39N5ACM9HF9WY298FW21X4RCDSD9PW","A1EFBEBVZP3D6G","3S1L4CQSFXRWQOWP2XFUSMS4AZDFAL","","141","img/food1.png","75","143","2","1","1","2","1,0.7,0,1,0.7,0,0.7,0,1","0,1,0.7,0,1,0.7,1,0.7,0","3","false",""
"","html-keyboard-response","320","122975","0.0-380.0","39N5ACM9HF9WY298FW21X4RCDSD9PW","A1EFBEBVZP3D6G","3S1L4CQSFXRWQOWP2XFUSMS4AZDFAL","","null","<img src=""img/food1.png"" style=""width:200px; border:14px solid green;"">","null","","","","","","","","","",""
"","image-keyboard-response","321","123157","0.0-382.0","39N5ACM9HF9WY298FW21X4RCDSD9PW","A1EFBEBVZP3D6G","3S1L4CQSFXRWQOWP2XFUSMS4AZDFAL","","180","img/food1.png","75","182","2","1","1","2","1,0.7,0,1,0.7,0,0.7,0,1","0,1,0.7,0,1,0.7,1,0.7,0","3","false",""
"","html-keyboard-response","322","123459","0.0-383.0","39N5ACM9HF9WY298FW21X4RCDSD9PW","A1EFBEBVZP3D6G","3S1L4CQSFXRWQOWP2XFUSMS4AZDFAL","","null","<img src=""img/food1.png"" style=""width:200px; border:14px solid green;"">","null","","","","","","","","","",""
"","image-keyboard-response","323","123568","0.0-385.0","39N5ACM9HF9WY298FW21X4RCDSD9PW","A1EFBEBVZP3D6G","3S1L4CQSFXRWQOWP2XFUSMS4AZDFAL","","107","img/food5.png","75","108","2","1","2","2","1,0.7,0,1,0.7,0,0.7,0,1","0,1,0.7,0,1,0.7,1,0.7,0","3","false",""
"","html-keyboard-response","324","123872","0.0-386.0","39N5ACM9HF9WY298FW21X4RCDSD9PW","A1EFBEBVZP3D6G","3S1L4CQSFXRWQOWP2XFUSMS4AZDFAL","","null","<img src=""img/food5.png"" style=""width:200px; border:14px solid green;"">","null","","","","","","","","","",""
"","image-keyboard-response","325","123887","0.0-388.0","39N5ACM9HF9WY298FW21X4RCDSD9PW","A1EFBEBVZP3D6G","3S1L4CQSFXRWQOWP2XFUSMS4AZDFAL","","11","img/food3.png","75","13","2","0","3","2","1,0.7,0,1,0.7,0,0.7,0,1","0,1,0.7,0,1,0.7,1,0.7,0","3","false",""
"","html-keyboard-response","326","124189","0.0-389.0","39N5ACM9HF9WY298FW21X4RCDSD9PW","A1EFBEBVZP3D6G","3S1L4CQSFXRWQOWP2XFUSMS4AZDFAL","","null","<img src=""img/food3.png"" style=""width:200px;border:14px solid red;"">","null","","","","","","","","","",""
"","image-keyboard-response","327","124439","0.0-391.0","39N5ACM9HF9WY298FW21X4RCDSD9PW","A1EFBEBVZP3D6G","3S1L4CQSFXRWQOWP2XFUSMS4AZDFAL","","247","img/food1.png","75","249","2","1","1","2","1,0.7,0,1,0.7,0,0.7,0,1","0,1,0.7,0,1,0.7,1,0.7,0","3","false",""
"","html-keyboard-response","328","124741","0.0-392.0","39N5ACM9HF9WY298FW21X4RCDSD9PW","A1EFBEBVZP3D6G","3S1L4CQSFXRWQOWP2XFUSMS4AZDFAL","","null","<img src=""img/food1.png"" style=""width:200px; border:14px solid green;"">","null","","","","","","","","","",""
"","image-keyboard-response","329","124899","0.0-394.0","39N5ACM9HF9WY298FW21X4RCDSD9PW","A1EFBEBVZP3D6G","3S1L4CQSFXRWQOWP2XFUSMS4AZDFAL","","155","img/food5.png","75","157","2","1","2","2","1,0.7,0,1,0.7,0,0.7,0,1","0,1,0.7,0,1,0.7,1,0.7,0","3","false",""
"","html-keyboard-response","330","125213","0.0-395.0","39N5ACM9HF9WY298FW21X4RCDSD9PW","A1EFBEBVZP3D6G","3S1L4CQSFXRWQOWP2XFUSMS4AZDFAL","","null","<img src=""img/food5.png"" style=""width:200px; border:14px solid green;"">","null","","","","","","","","","",""
"","image-keyboard-response","331","125319","0.0-397.0","39N5ACM9HF9WY298FW21X4RCDSD9PW","A1EFBEBVZP3D6G","3S1L4CQSFXRWQOWP2XFUSMS4AZDFAL","","104","img/food5.png","75","105","2","1","2","2","1,0.7,0,1,0.7,0,0.7,0,1","0,1,0.7,0,1,0.7,1,0.7,0","3","false",""
"","html-keyboard-response","332","125621","0.0-398.0","39N5ACM9HF9WY298FW21X4RCDSD9PW","A1EFBEBVZP3D6G","3S1L4CQSFXRWQOWP2XFUSMS4AZDFAL","","null","<img src=""img/food5.png"" style=""width:200px; border:14px solid green;"">","null","","","","","","","","","",""
"","image-keyboard-response","333","125747","0.0-400.0","39N5ACM9HF9WY298FW21X4RCDSD9PW","A1EFBEBVZP3D6G","3S1L4CQSFXRWQOWP2XFUSMS4AZDFAL","","124","img/food5.png","75","126","2","1","2","2","1,0.7,0,1,0.7,0,0.7,0,1","0,1,0.7,0,1,0.7,1,0.7,0","3","false",""
"","html-keyboard-response","334","126049","0.0-401.0","39N5ACM9HF9WY298FW21X4RCDSD9PW","A1EFBEBVZP3D6G","3S1L4CQSFXRWQOWP2XFUSMS4AZDFAL","","null","<img src=""img/food5.png"" style=""width:200px; border:14px solid green;"">","null","","","","","","","","","",""
"","image-keyboard-response","335","126198","0.0-403.0","39N5ACM9HF9WY298FW21X4RCDSD9PW","A1EFBEBVZP3D6G","3S1L4CQSFXRWQOWP2XFUSMS4AZDFAL","","146","img/food5.png","76","148","3","1","2","2","1,0.7,0,1,0.7,0,0.7,0,1","0,1,0.7,0,1,0.7,1,0.7,0","3","false",""
"","html-keyboard-response","336","126500","0.0-404.0","39N5ACM9HF9WY298FW21X4RCDSD9PW","A1EFBEBVZP3D6G","3S1L4CQSFXRWQOWP2XFUSMS4AZDFAL","","null","<img src=""img/food5.png"" style=""width:200px; border:14px solid green;"">","null","","","","","","","","","",""
"","image-keyboard-response","337","126677","0.0-406.0","39N5ACM9HF9WY298FW21X4RCDSD9PW","A1EFBEBVZP3D6G","3S1L4CQSFXRWQOWP2XFUSMS4AZDFAL","","172","img/food3.png","75","175","2","1","3","2","1,0.7,0,1,0.7,0,0.7,0,1","0,1,0.7,0,1,0.7,1,0.7,0","3","false",""
"","html-keyboard-response","338","126980","0.0-407.0","39N5ACM9HF9WY298FW21X4RCDSD9PW","A1EFBEBVZP3D6G","3S1L4CQSFXRWQOWP2XFUSMS4AZDFAL","","null","<img src=""img/food3.png"" style=""width:200px; border:14px solid green;"">","null","","","","","","","","","",""
"","image-keyboard-response","339","127028","0.0-409.0","39N5ACM9HF9WY298FW21X4RCDSD9PW","A1EFBEBVZP3D6G","3S1L4CQSFXRWQOWP2XFUSMS4AZDFAL","","46","img/food1.png","75","47","2","1","1","2","1,0.7,0,1,0.7,0,0.7,0,1","0,1,0.7,0,1,0.7,1,0.7,0","3","false",""
"","html-keyboard-response","340","127331","0.0-410.0","39N5ACM9HF9WY298FW21X4RCDSD9PW","A1EFBEBVZP3D6G","3S1L4CQSFXRWQOWP2XFUSMS4AZDFAL","","null","<img src=""img/food1.png"" style=""width:200px; border:14px solid green;"">","null","","","","","","","","","",""
"","image-keyboard-response","341","127368","0.0-412.0","39N5ACM9HF9WY298FW21X4RCDSD9PW","A1EFBEBVZP3D6G","3S1L4CQSFXRWQOWP2XFUSMS4AZDFAL","","35","img/food1.png","75","36","2","1","1","2","1,0.7,0,1,0.7,0,0.7,0,1","0,1,0.7,0,1,0.7,1,0.7,0","3","false",""
"","html-keyboard-response","342","127670","0.0-413.0","39N5ACM9HF9WY298FW21X4RCDSD9PW","A1EFBEBVZP3D6G","3S1L4CQSFXRWQOWP2XFUSMS4AZDFAL","","null","<img src=""img/food1.png"" style=""width:200px; border:14px solid green;"">","null","","","","","","","","","",""
"","image-keyboard-response","343","127687","0.0-415.0","39N5ACM9HF9WY298FW21X4RCDSD9PW","A1EFBEBVZP3D6G","3S1L4CQSFXRWQOWP2XFUSMS4AZDFAL","","13","img/food1.png","75","14","2","1","1","2","1,0.7,0,1,0.7,0,0.7,0,1","0,1,0.7,0,1,0.7,1,0.7,0","3","false",""
"","html-keyboard-response","344","127989","0.0-416.0","39N5ACM9HF9WY298FW21X4RCDSD9PW","A1EFBEBVZP3D6G","3S1L4CQSFXRWQOWP2XFUSMS4AZDFAL","","null","<img src=""img/food1.png"" style=""width:200px; border:14px solid green;"">","null","","","","","","","","","",""
"","image-keyboard-response","345","128048","0.0-418.0","39N5ACM9HF9WY298FW21X4RCDSD9PW","A1EFBEBVZP3D6G","3S1L4CQSFXRWQOWP2XFUSMS4AZDFAL","","57","img/food1.png","75","58","2","1","1","2","1,0.7,0,1,0.7,0,0.7,0,1","0,1,0.7,0,1,0.7,1,0.7,0","3","false",""
"","html-keyboard-response","346","128351","0.0-419.0","39N5ACM9HF9WY298FW21X4RCDSD9PW","A1EFBEBVZP3D6G","3S1L4CQSFXRWQOWP2XFUSMS4AZDFAL","","null","<img src=""img/food1.png"" style=""width:200px; border:14px solid green;"">","null","","","","","","","","","",""
"","image-keyboard-response","347","128432","0.0-421.0","39N5ACM9HF9WY298FW21X4RCDSD9PW","A1EFBEBVZP3D6G","3S1L4CQSFXRWQOWP2XFUSMS4AZDFAL","","78","img/food3.png","75","80","2","1","3","2","1,0.7,0,1,0.7,0,0.7,0,1","0,1,0.7,0,1,0.7,1,0.7,0","3","false",""
"","html-keyboard-response","348","128734","0.0-422.0","39N5ACM9HF9WY298FW21X4RCDSD9PW","A1EFBEBVZP3D6G","3S1L4CQSFXRWQOWP2XFUSMS4AZDFAL","","null","<img src=""img/food3.png"" style=""width:200px; border:14px solid green;"">","null","","","","","","","","","",""
"","image-keyboard-response","349","128846","0.0-424.0","39N5ACM9HF9WY298FW21X4RCDSD9PW","A1EFBEBVZP3D6G","3S1L4CQSFXRWQOWP2XFUSMS4AZDFAL","","110","img/food1.png","75","111","2","1","1","2","1,0.7,0,1,0.7,0,0.7,0,1","0,1,0.7,0,1,0.7,1,0.7,0","3","false",""
"","html-keyboard-response","350","129148","0.0-425.0","39N5ACM9HF9WY298FW21X4RCDSD9PW","A1EFBEBVZP3D6G","3S1L4CQSFXRWQOWP2XFUSMS4AZDFAL","","null","<img src=""img/food1.png"" style=""width:200px; border:14px solid green;"">","null","","","","","","","","","",""
"","image-keyboard-response","351","129157","0.0-427.0","39N5ACM9HF9WY298FW21X4RCDSD9PW","A1EFBEBVZP3D6G","3S1L4CQSFXRWQOWP2XFUSMS4AZDFAL","","7","img/food3.png","76","9","3","0","3","2","1,0.7,0,1,0.7,0,0.7,0,1","0,1,0.7,0,1,0.7,1,0.7,0","3","false",""
"","html-keyboard-response","352","129459","0.0-428.0","39N5ACM9HF9WY298FW21X4RCDSD9PW","A1EFBEBVZP3D6G","3S1L4CQSFXRWQOWP2XFUSMS4AZDFAL","","null","<img src=""img/food3.png"" style=""width:200px;border:14px solid red;"">","null","","","","","","","","","",""
"","image-keyboard-response","353","129474","0.0-430.0","39N5ACM9HF9WY298FW21X4RCDSD9PW","A1EFBEBVZP3D6G","3S1L4CQSFXRWQOWP2XFUSMS4AZDFAL","","12","img/food1.png","75","13","2","1","1","2","1,0.7,0,1,0.7,0,0.7,0,1","0,1,0.7,0,1,0.7,1,0.7,0","3","false",""
"","html-keyboard-response","354","129775","0.0-431.0","39N5ACM9HF9WY298FW21X4RCDSD9PW","A1EFBEBVZP3D6G","3S1L4CQSFXRWQOWP2XFUSMS4AZDFAL","","null","<img src=""img/food1.png"" style=""width:200px; border:14px solid green;"">","null","","","","","","","","","",""
"","image-keyboard-response","355","129967","0.0-433.0","39N5ACM9HF9WY298FW21X4RCDSD9PW","A1EFBEBVZP3D6G","3S1L4CQSFXRWQOWP2XFUSMS4AZDFAL","","188","img/food3.png","75","190","2","0","3","2","1,0.7,0,1,0.7,0,0.7,0,1","0,1,0.7,0,1,0.7,1,0.7,0","3","false",""
"","html-keyboard-response","356","130268","0.0-434.0","39N5ACM9HF9WY298FW21X4RCDSD9PW","A1EFBEBVZP3D6G","3S1L4CQSFXRWQOWP2XFUSMS4AZDFAL","","null","<img src=""img/food3.png"" style=""width:200px;border:14px solid red;"">","null","","","","","","","","","",""
"","image-keyboard-response","357","130346","0.0-436.0","39N5ACM9HF9WY298FW21X4RCDSD9PW","A1EFBEBVZP3D6G","3S1L4CQSFXRWQOWP2XFUSMS4AZDFAL","","75","img/food5.png","75","76","2","1","2","2","1,0.7,0,1,0.7,0,0.7,0,1","0,1,0.7,0,1,0.7,1,0.7,0","3","false",""
"","html-keyboard-response","358","130649","0.0-437.0","39N5ACM9HF9WY298FW21X4RCDSD9PW","A1EFBEBVZP3D6G","3S1L4CQSFXRWQOWP2XFUSMS4AZDFAL","","null","<img src=""img/food5.png"" style=""width:200px; border:14px solid green;"">","null","","","","","","","","","",""
"","image-keyboard-response","359","130748","0.0-439.0","39N5ACM9HF9WY298FW21X4RCDSD9PW","A1EFBEBVZP3D6G","3S1L4CQSFXRWQOWP2XFUSMS4AZDFAL","","97","img/food3.png","75","99","2","0","3","2","1,0.7,0,1,0.7,0,0.7,0,1","0,1,0.7,0,1,0.7,1,0.7,0","3","false",""
"","html-keyboard-response","360","131052","0.0-440.0","39N5ACM9HF9WY298FW21X4RCDSD9PW","A1EFBEBVZP3D6G","3S1L4CQSFXRWQOWP2XFUSMS4AZDFAL","","null","<img src=""img/food3.png"" style=""width:200px;border:14px solid red;"">","null","","","","","","","","","",""
"","image-keyboard-response","361","131072","0.0-442.0","39N5ACM9HF9WY298FW21X4RCDSD9PW","A1EFBEBVZP3D6G","3S1L4CQSFXRWQOWP2XFUSMS4AZDFAL","","13","img/food5.png","75","18","2","1","2","2","1,0.7,0,1,0.7,0,0.7,0,1","0,1,0.7,0,1,0.7,1,0.7,0","3","false",""
"","html-keyboard-response","362","131375","0.0-443.0","39N5ACM9HF9WY298FW21X4RCDSD9PW","A1EFBEBVZP3D6G","3S1L4CQSFXRWQOWP2XFUSMS4AZDFAL","","null","<img src=""img/food5.png"" style=""width:200px; border:14px solid green;"">","null","","","","","","","","","",""
"","image-keyboard-response","363","131459","0.0-445.0","39N5ACM9HF9WY298FW21X4RCDSD9PW","A1EFBEBVZP3D6G","3S1L4CQSFXRWQOWP2XFUSMS4AZDFAL","","82","img/food5.png","75","84","2","1","2","2","1,0.7,0,1,0.7,0,0.7,0,1","0,1,0.7,0,1,0.7,1,0.7,0","3","false",""
"","html-keyboard-response","364","131762","0.0-446.0","39N5ACM9HF9WY298FW21X4RCDSD9PW","A1EFBEBVZP3D6G","3S1L4CQSFXRWQOWP2XFUSMS4AZDFAL","","null","<img src=""img/food5.png"" style=""width:200px; border:14px solid green;"">","null","","","","","","","","","",""
"","image-keyboard-response","365","131842","0.0-448.0","39N5ACM9HF9WY298FW21X4RCDSD9PW","A1EFBEBVZP3D6G","3S1L4CQSFXRWQOWP2XFUSMS4AZDFAL","","77","img/food3.png","75","78","2","0","3","2","1,0.7,0,1,0.7,0,0.7,0,1","0,1,0.7,0,1,0.7,1,0.7,0","3","false",""
"","html-keyboard-response","366","132147","0.0-449.0","39N5ACM9HF9WY298FW21X4RCDSD9PW","A1EFBEBVZP3D6G","3S1L4CQSFXRWQOWP2XFUSMS4AZDFAL","","null","<img src=""img/food3.png"" style=""width:200px;border:14px solid red;"">","null","","","","","","","","","",""
"","image-keyboard-response","367","132222","0.0-451.0","39N5ACM9HF9WY298FW21X4RCDSD9PW","A1EFBEBVZP3D6G","3S1L4CQSFXRWQOWP2XFUSMS4AZDFAL","","73","img/food1.png","75","74","2","1","1","2","1,0.7,0,1,0.7,0,0.7,0,1","0,1,0.7,0,1,0.7,1,0.7,0","3","false",""
"","html-keyboard-response","368","132524","0.0-452.0","39N5ACM9HF9WY298FW21X4RCDSD9PW","A1EFBEBVZP3D6G","3S1L4CQSFXRWQOWP2XFUSMS4AZDFAL","","null","<img src=""img/food1.png"" style=""width:200px; border:14px solid green;"">","null","","","","","","","","","",""
"","instructions","369","137999","0.0-454.0","39N5ACM9HF9WY298FW21X4RCDSD9PW","A1EFBEBVZP3D6G","3S1L4CQSFXRWQOWP2XFUSMS4AZDFAL","[{""page_index"":0,""viewing_time"":5473}]","5473","","","","","","","","","","","",""
"","survey-text","370","143291","0.0-455.0","39N5ACM9HF9WY298FW21X4RCDSD9PW","A1EFBEBVZP3D6G","3S1L4CQSFXRWQOWP2XFUSMS4AZDFAL","","5280","","","","","","","","","","","","{""Q0"":""A1EFBEBVZP3D6G""}"
