"success","trial_type","trial_index","time_elapsed","internal_node_id","assignmentID","mturkID","hitID","view_history","rt","stimulus","key_press","reactionTime","a","r","s","cond","reward_cond","reward_cond_actual","reward_matrix_idx","warning","responses"
"true","fullscreen","0","4342","0.0-0.0","3TAYZSBPLMUIBA41M4RGIMO9VOQ2SU","A1F8MH33EFT5VQ","3L1EFR8WWTRIL5MKAR1UWRHK4IC9FJ","","","","","","","","","","","","","",""
"","instructions","1","128261","0.0-1.0","3TAYZSBPLMUIBA41M4RGIMO9VOQ2SU","A1F8MH33EFT5VQ","3L1EFR8WWTRIL5MKAR1UWRHK4IC9FJ","[{""page_index"":0,""viewing_time"":7666.79999999702},{""page_index"":1,""viewing_time"":10843.60000000149},{""page_index"":2,""viewing_time"":16215.699999999255},{""page_index"":3,""viewing_time"":25075.900000002235},{""page_index"":4,""viewing_time"":16603.599999997765},{""page_index"":5,""viewing_time"":33404.60000000149},{""page_index"":6,""viewing_time"":14107.5}]","123918.39999999851","","","","","","","","","","","",""
"","image-keyboard-response","2","129692","0.0-2.0","3TAYZSBPLMUIBA41M4RGIMO9VOQ2SU","A1F8MH33EFT5VQ","3L1EFR8WWTRIL5MKAR1UWRHK4IC9FJ","","1429.300000000745","img/food1.png","74","1430.5","1","0","1","1","1,0.5,0,1,0.5,0,0.5,0,1","0,1,0.5,0,1,0.5,1,0.5,0","3","",""
"","html-keyboard-response","3","129994","0.0-3.0","3TAYZSBPLMUIBA41M4RGIMO9VOQ2SU","A1F8MH33EFT5VQ","3L1EFR8WWTRIL5MKAR1UWRHK4IC9FJ","","null","<img src=""img/food1.png"" style=""width:200px;border:14px solid red;"">","null","","","","","","","","","",""
"","image-keyboard-response","4","131275","0.0-4.0","3TAYZSBPLMUIBA41M4RGIMO9VOQ2SU","A1F8MH33EFT5VQ","3L1EFR8WWTRIL5MKAR1UWRHK4IC9FJ","","1279.1000000014901","img/food6.png","74","1280.3999999985099","1","1","3","1","1,0.5,0,1,0.5,0,0.5,0,1","0,1,0.5,0,1,0.5,1,0.5,0","3","",""
"","html-keyboard-response","5","131578","0.0-5.0","3TAYZSBPLMUIBA41M4RGIMO9VOQ2SU","A1F8MH33EFT5VQ","3L1EFR8WWTRIL5MKAR1UWRHK4IC9FJ","","null","<img src=""img/food6.png"" style=""width:200px; border:14px solid green;"">","null","","","","","","","","","",""
"","image-keyboard-response","6","132354","0.0-6.0","3TAYZSBPLMUIBA41M4RGIMO9VOQ2SU","A1F8MH33EFT5VQ","3L1EFR8WWTRIL5MKAR1UWRHK4IC9FJ","","773.6999999992549","img/food6.png","74","775.1000000014901","1","1","3","1","1,0.5,0,1,0.5,0,0.5,0,1","0,1,0.5,0,1,0.5,1,0.5,0","3","",""
"","html-keyboard-response","7","132656","0.0-7.0","3TAYZSBPLMUIBA41M4RGIMO9VOQ2SU","A1F8MH33EFT5VQ","3L1EFR8WWTRIL5MKAR1UWRHK4IC9FJ","","null","<img src=""img/food6.png"" style=""width:200px; border:14px solid green;"">","null","","","","","","","","","",""
"","image-keyboard-response","8","133398","0.0-8.0","3TAYZSBPLMUIBA41M4RGIMO9VOQ2SU","A1F8MH33EFT5VQ","3L1EFR8WWTRIL5MKAR1UWRHK4IC9FJ","","740.1999999992549","img/food4.png","75","741.3999999985099","2","1","2","1","1,0.5,0,1,0.5,0,0.5,0,1","0,1,0.5,0,1,0.5,1,0.5,0","3","",""
"","html-keyboard-response","9","133700","0.0-9.0","3TAYZSBPLMUIBA41M4RGIMO9VOQ2SU","A1F8MH33EFT5VQ","3L1EFR8WWTRIL5MKAR1UWRHK4IC9FJ","","null","<img src=""img/food4.png"" style=""width:200px; border:14px solid green;"">","null","","","","","","","","","",""
"","image-keyboard-response","10","134646","0.0-10.0","3TAYZSBPLMUIBA41M4RGIMO9VOQ2SU","A1F8MH33EFT5VQ","3L1EFR8WWTRIL5MKAR1UWRHK4IC9FJ","","943.9000000022352","img/food1.png","74","945.3999999985099","1","0","1","1","1,0.5,0,1,0.5,0,0.5,0,1","0,1,0.5,0,1,0.5,1,0.5,0","3","",""
"","html-keyboard-response","11","134949","0.0-11.0","3TAYZSBPLMUIBA41M4RGIMO9VOQ2SU","A1F8MH33EFT5VQ","3L1EFR8WWTRIL5MKAR1UWRHK4IC9FJ","","null","<img src=""img/food1.png"" style=""width:200px;border:14px solid red;"">","null","","","","","","","","","",""
"","image-keyboard-response","12","135854","0.0-12.0","3TAYZSBPLMUIBA41M4RGIMO9VOQ2SU","A1F8MH33EFT5VQ","3L1EFR8WWTRIL5MKAR1UWRHK4IC9FJ","","904.1000000014901","img/food6.png","75","905.4000000022352","2","1","3","1","1,0.5,0,1,0.5,0,0.5,0,1","0,1,0.5,0,1,0.5,1,0.5,0","3","",""
"","html-keyboard-response","13","136157","0.0-13.0","3TAYZSBPLMUIBA41M4RGIMO9VOQ2SU","A1F8MH33EFT5VQ","3L1EFR8WWTRIL5MKAR1UWRHK4IC9FJ","","null","<img src=""img/food6.png"" style=""width:200px; border:14px solid green;"">","null","","","","","","","","","",""
"","image-keyboard-response","14","137003","0.0-14.0","3TAYZSBPLMUIBA41M4RGIMO9VOQ2SU","A1F8MH33EFT5VQ","3L1EFR8WWTRIL5MKAR1UWRHK4IC9FJ","","844.8000000007451","img/food4.png","76","846.1000000014901","3","1","2","1","1,0.5,0,1,0.5,0,0.5,0,1","0,1,0.5,0,1,0.5,1,0.5,0","3","",""
"","html-keyboard-response","15","137305","0.0-15.0","3TAYZSBPLMUIBA41M4RGIMO9VOQ2SU","A1F8MH33EFT5VQ","3L1EFR8WWTRIL5MKAR1UWRHK4IC9FJ","","null","<img src=""img/food4.png"" style=""width:200px; border:14px solid green;"">","null","","","","","","","","","",""
"","image-keyboard-response","16","138192","0.0-16.0","3TAYZSBPLMUIBA41M4RGIMO9VOQ2SU","A1F8MH33EFT5VQ","3L1EFR8WWTRIL5MKAR1UWRHK4IC9FJ","","885.1999999992549","img/food6.png","75","886.3000000007451","2","0","3","1","1,0.5,0,1,0.5,0,0.5,0,1","0,1,0.5,0,1,0.5,1,0.5,0","3","",""
"","html-keyboard-response","17","138495","0.0-17.0","3TAYZSBPLMUIBA41M4RGIMO9VOQ2SU","A1F8MH33EFT5VQ","3L1EFR8WWTRIL5MKAR1UWRHK4IC9FJ","","null","<img src=""img/food6.png"" style=""width:200px;border:14px solid red;"">","null","","","","","","","","","",""
"","image-keyboard-response","18","139480","0.0-18.0","3TAYZSBPLMUIBA41M4RGIMO9VOQ2SU","A1F8MH33EFT5VQ","3L1EFR8WWTRIL5MKAR1UWRHK4IC9FJ","","984","img/food4.png","76","985.2000000029802","3","1","2","1","1,0.5,0,1,0.5,0,0.5,0,1","0,1,0.5,0,1,0.5,1,0.5,0","3","",""
"","html-keyboard-response","19","139782","0.0-19.0","3TAYZSBPLMUIBA41M4RGIMO9VOQ2SU","A1F8MH33EFT5VQ","3L1EFR8WWTRIL5MKAR1UWRHK4IC9FJ","","null","<img src=""img/food4.png"" style=""width:200px; border:14px solid green;"">","null","","","","","","","","","",""
"","image-keyboard-response","20","140484","0.0-20.0","3TAYZSBPLMUIBA41M4RGIMO9VOQ2SU","A1F8MH33EFT5VQ","3L1EFR8WWTRIL5MKAR1UWRHK4IC9FJ","","700.1000000014901","img/food6.png","75","701.3999999985099","2","0","3","1","1,0.5,0,1,0.5,0,0.5,0,1","0,1,0.5,0,1,0.5,1,0.5,0","3","",""
"","html-keyboard-response","21","140787","0.0-21.0","3TAYZSBPLMUIBA41M4RGIMO9VOQ2SU","A1F8MH33EFT5VQ","3L1EFR8WWTRIL5MKAR1UWRHK4IC9FJ","","null","<img src=""img/food6.png"" style=""width:200px;border:14px solid red;"">","null","","","","","","","","","",""
"","image-keyboard-response","22","141653","0.0-22.0","3TAYZSBPLMUIBA41M4RGIMO9VOQ2SU","A1F8MH33EFT5VQ","3L1EFR8WWTRIL5MKAR1UWRHK4IC9FJ","","864.3999999985099","img/food1.png","74","865.6999999992549","1","0","1","1","1,0.5,0,1,0.5,0,0.5,0,1","0,1,0.5,0,1,0.5,1,0.5,0","3","",""
"","html-keyboard-response","23","141956","0.0-23.0","3TAYZSBPLMUIBA41M4RGIMO9VOQ2SU","A1F8MH33EFT5VQ","3L1EFR8WWTRIL5MKAR1UWRHK4IC9FJ","","null","<img src=""img/food1.png"" style=""width:200px;border:14px solid red;"">","null","","","","","","","","","",""
"","image-keyboard-response","24","142856","0.0-24.0","3TAYZSBPLMUIBA41M4RGIMO9VOQ2SU","A1F8MH33EFT5VQ","3L1EFR8WWTRIL5MKAR1UWRHK4IC9FJ","","899.0999999977648","img/food1.png","75","900.0999999977648","2","1","1","1","1,0.5,0,1,0.5,0,0.5,0,1","0,1,0.5,0,1,0.5,1,0.5,0","3","",""
"","html-keyboard-response","25","143158","0.0-25.0","3TAYZSBPLMUIBA41M4RGIMO9VOQ2SU","A1F8MH33EFT5VQ","3L1EFR8WWTRIL5MKAR1UWRHK4IC9FJ","","null","<img src=""img/food1.png"" style=""width:200px; border:14px solid green;"">","null","","","","","","","","","",""
"","image-keyboard-response","26","144044","0.0-26.0","3TAYZSBPLMUIBA41M4RGIMO9VOQ2SU","A1F8MH33EFT5VQ","3L1EFR8WWTRIL5MKAR1UWRHK4IC9FJ","","884.2999999970198","img/food1.png","75","885.5999999977648","2","1","1","1","1,0.5,0,1,0.5,0,0.5,0,1","0,1,0.5,0,1,0.5,1,0.5,0","3","",""
"","html-keyboard-response","27","144346","0.0-27.0","3TAYZSBPLMUIBA41M4RGIMO9VOQ2SU","A1F8MH33EFT5VQ","3L1EFR8WWTRIL5MKAR1UWRHK4IC9FJ","","null","<img src=""img/food1.png"" style=""width:200px; border:14px solid green;"">","null","","","","","","","","","",""
"","image-keyboard-response","28","144914","0.0-28.0","3TAYZSBPLMUIBA41M4RGIMO9VOQ2SU","A1F8MH33EFT5VQ","3L1EFR8WWTRIL5MKAR1UWRHK4IC9FJ","","566.2999999970198","img/food1.png","75","567.1999999992549","2","1","1","1","1,0.5,0,1,0.5,0,0.5,0,1","0,1,0.5,0,1,0.5,1,0.5,0","3","",""
"","html-keyboard-response","29","145216","0.0-29.0","3TAYZSBPLMUIBA41M4RGIMO9VOQ2SU","A1F8MH33EFT5VQ","3L1EFR8WWTRIL5MKAR1UWRHK4IC9FJ","","null","<img src=""img/food1.png"" style=""width:200px; border:14px solid green;"">","null","","","","","","","","","",""
"","image-keyboard-response","30","145892","0.0-30.0","3TAYZSBPLMUIBA41M4RGIMO9VOQ2SU","A1F8MH33EFT5VQ","3L1EFR8WWTRIL5MKAR1UWRHK4IC9FJ","","674.7000000029802","img/food1.png","75","676.1000000014901","2","1","1","1","1,0.5,0,1,0.5,0,0.5,0,1","0,1,0.5,0,1,0.5,1,0.5,0","3","",""
"","html-keyboard-response","31","146194","0.0-31.0","3TAYZSBPLMUIBA41M4RGIMO9VOQ2SU","A1F8MH33EFT5VQ","3L1EFR8WWTRIL5MKAR1UWRHK4IC9FJ","","null","<img src=""img/food1.png"" style=""width:200px; border:14px solid green;"">","null","","","","","","","","","",""
"","image-keyboard-response","32","147116","0.0-32.0","3TAYZSBPLMUIBA41M4RGIMO9VOQ2SU","A1F8MH33EFT5VQ","3L1EFR8WWTRIL5MKAR1UWRHK4IC9FJ","","920.6000000014901","img/food4.png","76","921.8999999985099","3","1","2","1","1,0.5,0,1,0.5,0,0.5,0,1","0,1,0.5,0,1,0.5,1,0.5,0","3","",""
"","html-keyboard-response","33","147419","0.0-33.0","3TAYZSBPLMUIBA41M4RGIMO9VOQ2SU","A1F8MH33EFT5VQ","3L1EFR8WWTRIL5MKAR1UWRHK4IC9FJ","","null","<img src=""img/food4.png"" style=""width:200px; border:14px solid green;"">","null","","","","","","","","","",""
"","image-keyboard-response","34","148525","0.0-34.0","3TAYZSBPLMUIBA41M4RGIMO9VOQ2SU","A1F8MH33EFT5VQ","3L1EFR8WWTRIL5MKAR1UWRHK4IC9FJ","","1104.2999999970198","img/food1.png","75","1105.300000000745","2","1","1","1","1,0.5,0,1,0.5,0,0.5,0,1","0,1,0.5,0,1,0.5,1,0.5,0","3","",""
"","html-keyboard-response","35","148827","0.0-35.0","3TAYZSBPLMUIBA41M4RGIMO9VOQ2SU","A1F8MH33EFT5VQ","3L1EFR8WWTRIL5MKAR1UWRHK4IC9FJ","","null","<img src=""img/food1.png"" style=""width:200px; border:14px solid green;"">","null","","","","","","","","","",""
"","image-keyboard-response","36","149554","0.0-36.0","3TAYZSBPLMUIBA41M4RGIMO9VOQ2SU","A1F8MH33EFT5VQ","3L1EFR8WWTRIL5MKAR1UWRHK4IC9FJ","","724.9000000022352","img/food6.png","74","726.3999999985099","1","1","3","1","1,0.5,0,1,0.5,0,0.5,0,1","0,1,0.5,0,1,0.5,1,0.5,0","3","",""
"","html-keyboard-response","37","149856","0.0-37.0","3TAYZSBPLMUIBA41M4RGIMO9VOQ2SU","A1F8MH33EFT5VQ","3L1EFR8WWTRIL5MKAR1UWRHK4IC9FJ","","null","<img src=""img/food6.png"" style=""width:200px; border:14px solid green;"">","null","","","","","","","","","",""
"","image-keyboard-response","38","150936","0.0-38.0","3TAYZSBPLMUIBA41M4RGIMO9VOQ2SU","A1F8MH33EFT5VQ","3L1EFR8WWTRIL5MKAR1UWRHK4IC9FJ","","1079","img/food1.png","75","1080.300000000745","2","1","1","1","1,0.5,0,1,0.5,0,0.5,0,1","0,1,0.5,0,1,0.5,1,0.5,0","3","",""
"","html-keyboard-response","39","151239","0.0-39.0","3TAYZSBPLMUIBA41M4RGIMO9VOQ2SU","A1F8MH33EFT5VQ","3L1EFR8WWTRIL5MKAR1UWRHK4IC9FJ","","null","<img src=""img/food1.png"" style=""width:200px; border:14px solid green;"">","null","","","","","","","","","",""
"","image-keyboard-response","40","151965","0.0-40.0","3TAYZSBPLMUIBA41M4RGIMO9VOQ2SU","A1F8MH33EFT5VQ","3L1EFR8WWTRIL5MKAR1UWRHK4IC9FJ","","724.8000000007451","img/food4.png","76","725.8999999985099","3","0","2","1","1,0.5,0,1,0.5,0,0.5,0,1","0,1,0.5,0,1,0.5,1,0.5,0","3","",""
"","html-keyboard-response","41","152268","0.0-41.0","3TAYZSBPLMUIBA41M4RGIMO9VOQ2SU","A1F8MH33EFT5VQ","3L1EFR8WWTRIL5MKAR1UWRHK4IC9FJ","","null","<img src=""img/food4.png"" style=""width:200px;border:14px solid red;"">","null","","","","","","","","","",""
"","image-keyboard-response","42","153988","0.0-42.0","3TAYZSBPLMUIBA41M4RGIMO9VOQ2SU","A1F8MH33EFT5VQ","3L1EFR8WWTRIL5MKAR1UWRHK4IC9FJ","","1718.300000000745","img/food1.png","75","1719.5","2","1","1","1","1,0.5,0,1,0.5,0,0.5,0,1","0,1,0.5,0,1,0.5,1,0.5,0","3","",""
"","html-keyboard-response","43","154290","0.0-43.0","3TAYZSBPLMUIBA41M4RGIMO9VOQ2SU","A1F8MH33EFT5VQ","3L1EFR8WWTRIL5MKAR1UWRHK4IC9FJ","","null","<img src=""img/food1.png"" style=""width:200px; border:14px solid green;"">","null","","","","","","","","","",""
"","image-keyboard-response","44","155240","0.0-44.0","3TAYZSBPLMUIBA41M4RGIMO9VOQ2SU","A1F8MH33EFT5VQ","3L1EFR8WWTRIL5MKAR1UWRHK4IC9FJ","","948.6999999992549","img/food6.png","74","949.6999999992549","1","1","3","1","1,0.5,0,1,0.5,0,0.5,0,1","0,1,0.5,0,1,0.5,1,0.5,0","3","",""
"","html-keyboard-response","45","155542","0.0-45.0","3TAYZSBPLMUIBA41M4RGIMO9VOQ2SU","A1F8MH33EFT5VQ","3L1EFR8WWTRIL5MKAR1UWRHK4IC9FJ","","null","<img src=""img/food6.png"" style=""width:200px; border:14px solid green;"">","null","","","","","","","","","",""
"","image-keyboard-response","46","156439","0.0-46.0","3TAYZSBPLMUIBA41M4RGIMO9VOQ2SU","A1F8MH33EFT5VQ","3L1EFR8WWTRIL5MKAR1UWRHK4IC9FJ","","895.8999999985099","img/food6.png","74","897","1","1","3","1","1,0.5,0,1,0.5,0,0.5,0,1","0,1,0.5,0,1,0.5,1,0.5,0","3","",""
"","html-keyboard-response","47","156741","0.0-47.0","3TAYZSBPLMUIBA41M4RGIMO9VOQ2SU","A1F8MH33EFT5VQ","3L1EFR8WWTRIL5MKAR1UWRHK4IC9FJ","","null","<img src=""img/food6.png"" style=""width:200px; border:14px solid green;"">","null","","","","","","","","","",""
"","image-keyboard-response","48","157197","0.0-48.0","3TAYZSBPLMUIBA41M4RGIMO9VOQ2SU","A1F8MH33EFT5VQ","3L1EFR8WWTRIL5MKAR1UWRHK4IC9FJ","","454.3999999985099","img/food6.png","74","455.5","1","1","3","1","1,0.5,0,1,0.5,0,0.5,0,1","0,1,0.5,0,1,0.5,1,0.5,0","3","",""
"","html-keyboard-response","49","157499","0.0-49.0","3TAYZSBPLMUIBA41M4RGIMO9VOQ2SU","A1F8MH33EFT5VQ","3L1EFR8WWTRIL5MKAR1UWRHK4IC9FJ","","null","<img src=""img/food6.png"" style=""width:200px; border:14px solid green;"">","null","","","","","","","","","",""
"","image-keyboard-response","50","158338","0.0-50.0","3TAYZSBPLMUIBA41M4RGIMO9VOQ2SU","A1F8MH33EFT5VQ","3L1EFR8WWTRIL5MKAR1UWRHK4IC9FJ","","837.4000000022352","img/food1.png","75","838.4000000022352","2","1","1","1","1,0.5,0,1,0.5,0,0.5,0,1","0,1,0.5,0,1,0.5,1,0.5,0","3","",""
"","html-keyboard-response","51","158640","0.0-51.0","3TAYZSBPLMUIBA41M4RGIMO9VOQ2SU","A1F8MH33EFT5VQ","3L1EFR8WWTRIL5MKAR1UWRHK4IC9FJ","","null","<img src=""img/food1.png"" style=""width:200px; border:14px solid green;"">","null","","","","","","","","","",""
"","image-keyboard-response","52","159277","0.0-52.0","3TAYZSBPLMUIBA41M4RGIMO9VOQ2SU","A1F8MH33EFT5VQ","3L1EFR8WWTRIL5MKAR1UWRHK4IC9FJ","","635.5","img/food4.png","76","636.5999999977648","3","1","2","1","1,0.5,0,1,0.5,0,0.5,0,1","0,1,0.5,0,1,0.5,1,0.5,0","3","",""
"","html-keyboard-response","53","159579","0.0-53.0","3TAYZSBPLMUIBA41M4RGIMO9VOQ2SU","A1F8MH33EFT5VQ","3L1EFR8WWTRIL5MKAR1UWRHK4IC9FJ","","null","<img src=""img/food4.png"" style=""width:200px; border:14px solid green;"">","null","","","","","","","","","",""
"","image-keyboard-response","54","160075","0.0-54.0","3TAYZSBPLMUIBA41M4RGIMO9VOQ2SU","A1F8MH33EFT5VQ","3L1EFR8WWTRIL5MKAR1UWRHK4IC9FJ","","494.5","img/food4.png","76","495.6000000014901","3","1","2","1","1,0.5,0,1,0.5,0,0.5,0,1","0,1,0.5,0,1,0.5,1,0.5,0","3","",""
"","html-keyboard-response","55","160389","0.0-55.0","3TAYZSBPLMUIBA41M4RGIMO9VOQ2SU","A1F8MH33EFT5VQ","3L1EFR8WWTRIL5MKAR1UWRHK4IC9FJ","","null","<img src=""img/food4.png"" style=""width:200px; border:14px solid green;"">","null","","","","","","","","","",""
"","image-keyboard-response","56","160869","0.0-56.0","3TAYZSBPLMUIBA41M4RGIMO9VOQ2SU","A1F8MH33EFT5VQ","3L1EFR8WWTRIL5MKAR1UWRHK4IC9FJ","","478.79999999701977","img/food4.png","76","480.0999999977648","3","1","2","1","1,0.5,0,1,0.5,0,0.5,0,1","0,1,0.5,0,1,0.5,1,0.5,0","3","",""
"","html-keyboard-response","57","161172","0.0-57.0","3TAYZSBPLMUIBA41M4RGIMO9VOQ2SU","A1F8MH33EFT5VQ","3L1EFR8WWTRIL5MKAR1UWRHK4IC9FJ","","null","<img src=""img/food4.png"" style=""width:200px; border:14px solid green;"">","null","","","","","","","","","",""
"","image-keyboard-response","58","162099","0.0-58.0","3TAYZSBPLMUIBA41M4RGIMO9VOQ2SU","A1F8MH33EFT5VQ","3L1EFR8WWTRIL5MKAR1UWRHK4IC9FJ","","925.8000000007451","img/food1.png","75","927.1000000014901","2","1","1","1","1,0.5,0,1,0.5,0,0.5,0,1","0,1,0.5,0,1,0.5,1,0.5,0","3","",""
"","html-keyboard-response","59","162401","0.0-59.0","3TAYZSBPLMUIBA41M4RGIMO9VOQ2SU","A1F8MH33EFT5VQ","3L1EFR8WWTRIL5MKAR1UWRHK4IC9FJ","","null","<img src=""img/food1.png"" style=""width:200px; border:14px solid green;"">","null","","","","","","","","","",""
"","image-keyboard-response","60","163096","0.0-60.0","3TAYZSBPLMUIBA41M4RGIMO9VOQ2SU","A1F8MH33EFT5VQ","3L1EFR8WWTRIL5MKAR1UWRHK4IC9FJ","","693.5999999977648","img/food4.png","75","694.8999999985099","2","1","2","1","1,0.5,0,1,0.5,0,0.5,0,1","0,1,0.5,0,1,0.5,1,0.5,0","3","",""
"","html-keyboard-response","61","163399","0.0-61.0","3TAYZSBPLMUIBA41M4RGIMO9VOQ2SU","A1F8MH33EFT5VQ","3L1EFR8WWTRIL5MKAR1UWRHK4IC9FJ","","null","<img src=""img/food4.png"" style=""width:200px; border:14px solid green;"">","null","","","","","","","","","",""
"","image-keyboard-response","62","164106","0.0-62.0","3TAYZSBPLMUIBA41M4RGIMO9VOQ2SU","A1F8MH33EFT5VQ","3L1EFR8WWTRIL5MKAR1UWRHK4IC9FJ","","705.1999999992549","img/food6.png","74","706.3999999985099","1","1","3","1","1,0.5,0,1,0.5,0,0.5,0,1","0,1,0.5,0,1,0.5,1,0.5,0","3","",""
"","html-keyboard-response","63","164408","0.0-63.0","3TAYZSBPLMUIBA41M4RGIMO9VOQ2SU","A1F8MH33EFT5VQ","3L1EFR8WWTRIL5MKAR1UWRHK4IC9FJ","","null","<img src=""img/food6.png"" style=""width:200px; border:14px solid green;"">","null","","","","","","","","","",""
"","image-keyboard-response","64","165248","0.0-64.0","3TAYZSBPLMUIBA41M4RGIMO9VOQ2SU","A1F8MH33EFT5VQ","3L1EFR8WWTRIL5MKAR1UWRHK4IC9FJ","","838.8000000007451","img/food4.png","76","839.9000000022352","3","0","2","1","1,0.5,0,1,0.5,0,0.5,0,1","0,1,0.5,0,1,0.5,1,0.5,0","3","",""
"","html-keyboard-response","65","165551","0.0-65.0","3TAYZSBPLMUIBA41M4RGIMO9VOQ2SU","A1F8MH33EFT5VQ","3L1EFR8WWTRIL5MKAR1UWRHK4IC9FJ","","null","<img src=""img/food4.png"" style=""width:200px;border:14px solid red;"">","null","","","","","","","","","",""
"","image-keyboard-response","66","166832","0.0-66.0","3TAYZSBPLMUIBA41M4RGIMO9VOQ2SU","A1F8MH33EFT5VQ","3L1EFR8WWTRIL5MKAR1UWRHK4IC9FJ","","1279.4000000022352","img/food6.png","74","1280.800000000745","1","1","3","1","1,0.5,0,1,0.5,0,0.5,0,1","0,1,0.5,0,1,0.5,1,0.5,0","3","",""
"","html-keyboard-response","67","167133","0.0-67.0","3TAYZSBPLMUIBA41M4RGIMO9VOQ2SU","A1F8MH33EFT5VQ","3L1EFR8WWTRIL5MKAR1UWRHK4IC9FJ","","null","<img src=""img/food6.png"" style=""width:200px; border:14px solid green;"">","null","","","","","","","","","",""
"","image-keyboard-response","68","167591","0.0-68.0","3TAYZSBPLMUIBA41M4RGIMO9VOQ2SU","A1F8MH33EFT5VQ","3L1EFR8WWTRIL5MKAR1UWRHK4IC9FJ","","456.19999999925494","img/food6.png","74","457.30000000074506","1","1","3","1","1,0.5,0,1,0.5,0,0.5,0,1","0,1,0.5,0,1,0.5,1,0.5,0","3","",""
"","html-keyboard-response","69","167893","0.0-69.0","3TAYZSBPLMUIBA41M4RGIMO9VOQ2SU","A1F8MH33EFT5VQ","3L1EFR8WWTRIL5MKAR1UWRHK4IC9FJ","","null","<img src=""img/food6.png"" style=""width:200px; border:14px solid green;"">","null","","","","","","","","","",""
"","image-keyboard-response","70","168485","0.0-70.0","3TAYZSBPLMUIBA41M4RGIMO9VOQ2SU","A1F8MH33EFT5VQ","3L1EFR8WWTRIL5MKAR1UWRHK4IC9FJ","","590.3999999985099","img/food6.png","74","591.5","1","1","3","1","1,0.5,0,1,0.5,0,0.5,0,1","0,1,0.5,0,1,0.5,1,0.5,0","3","",""
"","html-keyboard-response","71","168787","0.0-71.0","3TAYZSBPLMUIBA41M4RGIMO9VOQ2SU","A1F8MH33EFT5VQ","3L1EFR8WWTRIL5MKAR1UWRHK4IC9FJ","","null","<img src=""img/food6.png"" style=""width:200px; border:14px solid green;"">","null","","","","","","","","","",""
"","image-keyboard-response","72","169579","0.0-72.0","3TAYZSBPLMUIBA41M4RGIMO9VOQ2SU","A1F8MH33EFT5VQ","3L1EFR8WWTRIL5MKAR1UWRHK4IC9FJ","","790.2999999970198","img/food1.png","75","791.5999999977648","2","1","1","1","1,0.5,0,1,0.5,0,0.5,0,1","0,1,0.5,0,1,0.5,1,0.5,0","3","",""
"","html-keyboard-response","73","169880","0.0-73.0","3TAYZSBPLMUIBA41M4RGIMO9VOQ2SU","A1F8MH33EFT5VQ","3L1EFR8WWTRIL5MKAR1UWRHK4IC9FJ","","null","<img src=""img/food1.png"" style=""width:200px; border:14px solid green;"">","null","","","","","","","","","",""
"","image-keyboard-response","74","170598","0.0-74.0","3TAYZSBPLMUIBA41M4RGIMO9VOQ2SU","A1F8MH33EFT5VQ","3L1EFR8WWTRIL5MKAR1UWRHK4IC9FJ","","715.6999999992549","img/food6.png","74","717","1","1","3","1","1,0.5,0,1,0.5,0,0.5,0,1","0,1,0.5,0,1,0.5,1,0.5,0","3","",""
"","html-keyboard-response","75","170900","0.0-75.0","3TAYZSBPLMUIBA41M4RGIMO9VOQ2SU","A1F8MH33EFT5VQ","3L1EFR8WWTRIL5MKAR1UWRHK4IC9FJ","","null","<img src=""img/food6.png"" style=""width:200px; border:14px solid green;"">","null","","","","","","","","","",""
"","image-keyboard-response","76","171521","0.0-76.0","3TAYZSBPLMUIBA41M4RGIMO9VOQ2SU","A1F8MH33EFT5VQ","3L1EFR8WWTRIL5MKAR1UWRHK4IC9FJ","","619.3999999985099","img/food6.png","74","620.8999999985099","1","1","3","1","1,0.5,0,1,0.5,0,0.5,0,1","0,1,0.5,0,1,0.5,1,0.5,0","3","",""
"","html-keyboard-response","77","171823","0.0-77.0","3TAYZSBPLMUIBA41M4RGIMO9VOQ2SU","A1F8MH33EFT5VQ","3L1EFR8WWTRIL5MKAR1UWRHK4IC9FJ","","null","<img src=""img/food6.png"" style=""width:200px; border:14px solid green;"">","null","","","","","","","","","",""
"","image-keyboard-response","78","172435","0.0-78.0","3TAYZSBPLMUIBA41M4RGIMO9VOQ2SU","A1F8MH33EFT5VQ","3L1EFR8WWTRIL5MKAR1UWRHK4IC9FJ","","610.6000000014901","img/food1.png","75","612.3000000007451","2","1","1","1","1,0.5,0,1,0.5,0,0.5,0,1","0,1,0.5,0,1,0.5,1,0.5,0","3","",""
"","html-keyboard-response","79","172751","0.0-79.0","3TAYZSBPLMUIBA41M4RGIMO9VOQ2SU","A1F8MH33EFT5VQ","3L1EFR8WWTRIL5MKAR1UWRHK4IC9FJ","","null","<img src=""img/food1.png"" style=""width:200px; border:14px solid green;"">","null","","","","","","","","","",""
"","image-keyboard-response","80","173394","0.0-80.0","3TAYZSBPLMUIBA41M4RGIMO9VOQ2SU","A1F8MH33EFT5VQ","3L1EFR8WWTRIL5MKAR1UWRHK4IC9FJ","","641.5","img/food1.png","75","642.6999999992549","2","1","1","1","1,0.5,0,1,0.5,0,0.5,0,1","0,1,0.5,0,1,0.5,1,0.5,0","3","",""
"","html-keyboard-response","81","173696","0.0-81.0","3TAYZSBPLMUIBA41M4RGIMO9VOQ2SU","A1F8MH33EFT5VQ","3L1EFR8WWTRIL5MKAR1UWRHK4IC9FJ","","null","<img src=""img/food1.png"" style=""width:200px; border:14px solid green;"">","null","","","","","","","","","",""
"","image-keyboard-response","82","174229","0.0-82.0","3TAYZSBPLMUIBA41M4RGIMO9VOQ2SU","A1F8MH33EFT5VQ","3L1EFR8WWTRIL5MKAR1UWRHK4IC9FJ","","530.6999999992549","img/food6.png","74","532.4000000022352","1","1","3","1","1,0.5,0,1,0.5,0,0.5,0,1","0,1,0.5,0,1,0.5,1,0.5,0","3","",""
"","html-keyboard-response","83","174531","0.0-83.0","3TAYZSBPLMUIBA41M4RGIMO9VOQ2SU","A1F8MH33EFT5VQ","3L1EFR8WWTRIL5MKAR1UWRHK4IC9FJ","","null","<img src=""img/food6.png"" style=""width:200px; border:14px solid green;"">","null","","","","","","","","","",""
"","image-keyboard-response","84","175192","0.0-84.0","3TAYZSBPLMUIBA41M4RGIMO9VOQ2SU","A1F8MH33EFT5VQ","3L1EFR8WWTRIL5MKAR1UWRHK4IC9FJ","","659.8000000007451","img/food4.png","76","661.1999999992549","3","0","2","1","1,0.5,0,1,0.5,0,0.5,0,1","0,1,0.5,0,1,0.5,1,0.5,0","3","",""
"","html-keyboard-response","85","175494","0.0-85.0","3TAYZSBPLMUIBA41M4RGIMO9VOQ2SU","A1F8MH33EFT5VQ","3L1EFR8WWTRIL5MKAR1UWRHK4IC9FJ","","null","<img src=""img/food4.png"" style=""width:200px;border:14px solid red;"">","null","","","","","","","","","",""
"","image-keyboard-response","86","175935","0.0-86.0","3TAYZSBPLMUIBA41M4RGIMO9VOQ2SU","A1F8MH33EFT5VQ","3L1EFR8WWTRIL5MKAR1UWRHK4IC9FJ","","439.3999999985099","img/food4.png","76","440.5","3","1","2","1","1,0.5,0,1,0.5,0,0.5,0,1","0,1,0.5,0,1,0.5,1,0.5,0","3","",""
"","html-keyboard-response","87","176237","0.0-87.0","3TAYZSBPLMUIBA41M4RGIMO9VOQ2SU","A1F8MH33EFT5VQ","3L1EFR8WWTRIL5MKAR1UWRHK4IC9FJ","","null","<img src=""img/food4.png"" style=""width:200px; border:14px solid green;"">","null","","","","","","","","","",""
"","image-keyboard-response","88","176934","0.0-88.0","3TAYZSBPLMUIBA41M4RGIMO9VOQ2SU","A1F8MH33EFT5VQ","3L1EFR8WWTRIL5MKAR1UWRHK4IC9FJ","","695.6000000014901","img/food4.png","76","696.9000000022352","3","1","2","1","1,0.5,0,1,0.5,0,0.5,0,1","0,1,0.5,0,1,0.5,1,0.5,0","3","",""
"","html-keyboard-response","89","177236","0.0-89.0","3TAYZSBPLMUIBA41M4RGIMO9VOQ2SU","A1F8MH33EFT5VQ","3L1EFR8WWTRIL5MKAR1UWRHK4IC9FJ","","null","<img src=""img/food4.png"" style=""width:200px; border:14px solid green;"">","null","","","","","","","","","",""
"","image-keyboard-response","90","178198","0.0-90.0","3TAYZSBPLMUIBA41M4RGIMO9VOQ2SU","A1F8MH33EFT5VQ","3L1EFR8WWTRIL5MKAR1UWRHK4IC9FJ","","961.0999999977648","img/food1.png","75","962.1999999992549","2","1","1","1","1,0.5,0,1,0.5,0,0.5,0,1","0,1,0.5,0,1,0.5,1,0.5,0","3","",""
"","html-keyboard-response","91","178501","0.0-91.0","3TAYZSBPLMUIBA41M4RGIMO9VOQ2SU","A1F8MH33EFT5VQ","3L1EFR8WWTRIL5MKAR1UWRHK4IC9FJ","","null","<img src=""img/food1.png"" style=""width:200px; border:14px solid green;"">","null","","","","","","","","","",""
"","image-keyboard-response","92","179788","0.0-92.0","3TAYZSBPLMUIBA41M4RGIMO9VOQ2SU","A1F8MH33EFT5VQ","3L1EFR8WWTRIL5MKAR1UWRHK4IC9FJ","","1285","img/food4.png","76","1286.199999999255","3","0","2","1","1,0.5,0,1,0.5,0,0.5,0,1","0,1,0.5,0,1,0.5,1,0.5,0","3","",""
"","html-keyboard-response","93","180090","0.0-93.0","3TAYZSBPLMUIBA41M4RGIMO9VOQ2SU","A1F8MH33EFT5VQ","3L1EFR8WWTRIL5MKAR1UWRHK4IC9FJ","","null","<img src=""img/food4.png"" style=""width:200px;border:14px solid red;"">","null","","","","","","","","","",""
"","image-keyboard-response","94","180601","0.0-94.0","3TAYZSBPLMUIBA41M4RGIMO9VOQ2SU","A1F8MH33EFT5VQ","3L1EFR8WWTRIL5MKAR1UWRHK4IC9FJ","","509","img/food4.png","76","510.29999999701977","3","1","2","1","1,0.5,0,1,0.5,0,0.5,0,1","0,1,0.5,0,1,0.5,1,0.5,0","3","",""
"","html-keyboard-response","95","180903","0.0-95.0","3TAYZSBPLMUIBA41M4RGIMO9VOQ2SU","A1F8MH33EFT5VQ","3L1EFR8WWTRIL5MKAR1UWRHK4IC9FJ","","null","<img src=""img/food4.png"" style=""width:200px; border:14px solid green;"">","null","","","","","","","","","",""
"","image-keyboard-response","96","181460","0.0-96.0","3TAYZSBPLMUIBA41M4RGIMO9VOQ2SU","A1F8MH33EFT5VQ","3L1EFR8WWTRIL5MKAR1UWRHK4IC9FJ","","555.1000000014901","img/food4.png","76","556.7000000029802","3","1","2","1","1,0.5,0,1,0.5,0,0.5,0,1","0,1,0.5,0,1,0.5,1,0.5,0","3","",""
"","html-keyboard-response","97","181762","0.0-97.0","3TAYZSBPLMUIBA41M4RGIMO9VOQ2SU","A1F8MH33EFT5VQ","3L1EFR8WWTRIL5MKAR1UWRHK4IC9FJ","","null","<img src=""img/food4.png"" style=""width:200px; border:14px solid green;"">","null","","","","","","","","","",""
"","image-keyboard-response","98","182449","0.0-98.0","3TAYZSBPLMUIBA41M4RGIMO9VOQ2SU","A1F8MH33EFT5VQ","3L1EFR8WWTRIL5MKAR1UWRHK4IC9FJ","","685.3000000007451","img/food6.png","74","686.6999999992549","1","1","3","1","1,0.5,0,1,0.5,0,0.5,0,1","0,1,0.5,0,1,0.5,1,0.5,0","3","",""
"","html-keyboard-response","99","182751","0.0-99.0","3TAYZSBPLMUIBA41M4RGIMO9VOQ2SU","A1F8MH33EFT5VQ","3L1EFR8WWTRIL5MKAR1UWRHK4IC9FJ","","null","<img src=""img/food6.png"" style=""width:200px; border:14px solid green;"">","null","","","","","","","","","",""
"","image-keyboard-response","100","183423","0.0-100.0","3TAYZSBPLMUIBA41M4RGIMO9VOQ2SU","A1F8MH33EFT5VQ","3L1EFR8WWTRIL5MKAR1UWRHK4IC9FJ","","669.8000000007451","img/food4.png","76","671.5","3","0","2","1","1,0.5,0,1,0.5,0,0.5,0,1","0,1,0.5,0,1,0.5,1,0.5,0","3","",""
"","html-keyboard-response","101","183725","0.0-101.0","3TAYZSBPLMUIBA41M4RGIMO9VOQ2SU","A1F8MH33EFT5VQ","3L1EFR8WWTRIL5MKAR1UWRHK4IC9FJ","","null","<img src=""img/food4.png"" style=""width:200px;border:14px solid red;"">","null","","","","","","","","","",""
"","image-keyboard-response","102","184507","0.0-102.0","3TAYZSBPLMUIBA41M4RGIMO9VOQ2SU","A1F8MH33EFT5VQ","3L1EFR8WWTRIL5MKAR1UWRHK4IC9FJ","","779.3999999985099","img/food4.png","76","780.8000000007451","3","1","2","1","1,0.5,0,1,0.5,0,0.5,0,1","0,1,0.5,0,1,0.5,1,0.5,0","3","",""
"","html-keyboard-response","103","184809","0.0-103.0","3TAYZSBPLMUIBA41M4RGIMO9VOQ2SU","A1F8MH33EFT5VQ","3L1EFR8WWTRIL5MKAR1UWRHK4IC9FJ","","null","<img src=""img/food4.png"" style=""width:200px; border:14px solid green;"">","null","","","","","","","","","",""
"","image-keyboard-response","104","185445","0.0-104.0","3TAYZSBPLMUIBA41M4RGIMO9VOQ2SU","A1F8MH33EFT5VQ","3L1EFR8WWTRIL5MKAR1UWRHK4IC9FJ","","634.3000000007451","img/food6.png","74","635.5","1","1","3","1","1,0.5,0,1,0.5,0,0.5,0,1","0,1,0.5,0,1,0.5,1,0.5,0","3","",""
"","html-keyboard-response","105","185747","0.0-105.0","3TAYZSBPLMUIBA41M4RGIMO9VOQ2SU","A1F8MH33EFT5VQ","3L1EFR8WWTRIL5MKAR1UWRHK4IC9FJ","","null","<img src=""img/food6.png"" style=""width:200px; border:14px solid green;"">","null","","","","","","","","","",""
"","image-keyboard-response","106","186535","0.0-106.0","3TAYZSBPLMUIBA41M4RGIMO9VOQ2SU","A1F8MH33EFT5VQ","3L1EFR8WWTRIL5MKAR1UWRHK4IC9FJ","","786.8000000007451","img/food1.png","75","788.0999999977648","2","1","1","1","1,0.5,0,1,0.5,0,0.5,0,1","0,1,0.5,0,1,0.5,1,0.5,0","3","",""
"","html-keyboard-response","107","186837","0.0-107.0","3TAYZSBPLMUIBA41M4RGIMO9VOQ2SU","A1F8MH33EFT5VQ","3L1EFR8WWTRIL5MKAR1UWRHK4IC9FJ","","null","<img src=""img/food1.png"" style=""width:200px; border:14px solid green;"">","null","","","","","","","","","",""
"","image-keyboard-response","108","187403","0.0-108.0","3TAYZSBPLMUIBA41M4RGIMO9VOQ2SU","A1F8MH33EFT5VQ","3L1EFR8WWTRIL5MKAR1UWRHK4IC9FJ","","564.5","img/food1.png","75","565.6000000014901","2","1","1","1","1,0.5,0,1,0.5,0,0.5,0,1","0,1,0.5,0,1,0.5,1,0.5,0","3","",""
"","html-keyboard-response","109","187705","0.0-109.0","3TAYZSBPLMUIBA41M4RGIMO9VOQ2SU","A1F8MH33EFT5VQ","3L1EFR8WWTRIL5MKAR1UWRHK4IC9FJ","","null","<img src=""img/food1.png"" style=""width:200px; border:14px solid green;"">","null","","","","","","","","","",""
"","image-keyboard-response","110","188297","0.0-110.0","3TAYZSBPLMUIBA41M4RGIMO9VOQ2SU","A1F8MH33EFT5VQ","3L1EFR8WWTRIL5MKAR1UWRHK4IC9FJ","","589.8000000007451","img/food4.png","76","591.3999999985099","3","1","2","1","1,0.5,0,1,0.5,0,0.5,0,1","0,1,0.5,0,1,0.5,1,0.5,0","3","",""
"","html-keyboard-response","111","188599","0.0-111.0","3TAYZSBPLMUIBA41M4RGIMO9VOQ2SU","A1F8MH33EFT5VQ","3L1EFR8WWTRIL5MKAR1UWRHK4IC9FJ","","null","<img src=""img/food4.png"" style=""width:200px; border:14px solid green;"">","null","","","","","","","","","",""
"","image-keyboard-response","112","189291","0.0-112.0","3TAYZSBPLMUIBA41M4RGIMO9VOQ2SU","A1F8MH33EFT5VQ","3L1EFR8WWTRIL5MKAR1UWRHK4IC9FJ","","689.8000000007451","img/food4.png","76","691.4000000022352","3","0","2","1","1,0.5,0,1,0.5,0,0.5,0,1","0,1,0.5,0,1,0.5,1,0.5,0","3","",""
"","html-keyboard-response","113","189594","0.0-113.0","3TAYZSBPLMUIBA41M4RGIMO9VOQ2SU","A1F8MH33EFT5VQ","3L1EFR8WWTRIL5MKAR1UWRHK4IC9FJ","","null","<img src=""img/food4.png"" style=""width:200px;border:14px solid red;"">","null","","","","","","","","","",""
"","image-keyboard-response","114","190338","0.0-114.0","3TAYZSBPLMUIBA41M4RGIMO9VOQ2SU","A1F8MH33EFT5VQ","3L1EFR8WWTRIL5MKAR1UWRHK4IC9FJ","","743.5","img/food6.png","74","744.3000000007451","1","1","3","1","1,0.5,0,1,0.5,0,0.5,0,1","0,1,0.5,0,1,0.5,1,0.5,0","3","",""
"","html-keyboard-response","115","190641","0.0-115.0","3TAYZSBPLMUIBA41M4RGIMO9VOQ2SU","A1F8MH33EFT5VQ","3L1EFR8WWTRIL5MKAR1UWRHK4IC9FJ","","null","<img src=""img/food6.png"" style=""width:200px; border:14px solid green;"">","null","","","","","","","","","",""
"","image-keyboard-response","116","191358","0.0-116.0","3TAYZSBPLMUIBA41M4RGIMO9VOQ2SU","A1F8MH33EFT5VQ","3L1EFR8WWTRIL5MKAR1UWRHK4IC9FJ","","715.3999999985099","img/food1.png","75","716.6999999992549","2","1","1","1","1,0.5,0,1,0.5,0,0.5,0,1","0,1,0.5,0,1,0.5,1,0.5,0","3","",""
"","html-keyboard-response","117","191660","0.0-117.0","3TAYZSBPLMUIBA41M4RGIMO9VOQ2SU","A1F8MH33EFT5VQ","3L1EFR8WWTRIL5MKAR1UWRHK4IC9FJ","","null","<img src=""img/food1.png"" style=""width:200px; border:14px solid green;"">","null","","","","","","","","","",""
"","image-keyboard-response","118","192648","0.0-118.0","3TAYZSBPLMUIBA41M4RGIMO9VOQ2SU","A1F8MH33EFT5VQ","3L1EFR8WWTRIL5MKAR1UWRHK4IC9FJ","","985.9000000022352","img/food1.png","75","987.3000000007451","2","1","1","1","1,0.5,0,1,0.5,0,0.5,0,1","0,1,0.5,0,1,0.5,1,0.5,0","3","",""
"","html-keyboard-response","119","192950","0.0-119.0","3TAYZSBPLMUIBA41M4RGIMO9VOQ2SU","A1F8MH33EFT5VQ","3L1EFR8WWTRIL5MKAR1UWRHK4IC9FJ","","null","<img src=""img/food1.png"" style=""width:200px; border:14px solid green;"">","null","","","","","","","","","",""
"","image-keyboard-response","120","193481","0.0-120.0","3TAYZSBPLMUIBA41M4RGIMO9VOQ2SU","A1F8MH33EFT5VQ","3L1EFR8WWTRIL5MKAR1UWRHK4IC9FJ","","529.3999999985099","img/food1.png","75","530.5","2","1","1","1","1,0.5,0,1,0.5,0,0.5,0,1","0,1,0.5,0,1,0.5,1,0.5,0","3","",""
"","html-keyboard-response","121","193783","0.0-121.0","3TAYZSBPLMUIBA41M4RGIMO9VOQ2SU","A1F8MH33EFT5VQ","3L1EFR8WWTRIL5MKAR1UWRHK4IC9FJ","","null","<img src=""img/food1.png"" style=""width:200px; border:14px solid green;"">","null","","","","","","","","","",""
"","image-keyboard-response","122","194405","0.0-122.0","3TAYZSBPLMUIBA41M4RGIMO9VOQ2SU","A1F8MH33EFT5VQ","3L1EFR8WWTRIL5MKAR1UWRHK4IC9FJ","","619.6000000014901","img/food6.png","74","621.0999999977648","1","1","3","1","1,0.5,0,1,0.5,0,0.5,0,1","0,1,0.5,0,1,0.5,1,0.5,0","3","",""
"","html-keyboard-response","123","194707","0.0-123.0","3TAYZSBPLMUIBA41M4RGIMO9VOQ2SU","A1F8MH33EFT5VQ","3L1EFR8WWTRIL5MKAR1UWRHK4IC9FJ","","null","<img src=""img/food6.png"" style=""width:200px; border:14px solid green;"">","null","","","","","","","","","",""
"","image-keyboard-response","124","195324","0.0-124.0","3TAYZSBPLMUIBA41M4RGIMO9VOQ2SU","A1F8MH33EFT5VQ","3L1EFR8WWTRIL5MKAR1UWRHK4IC9FJ","","615.1999999992549","img/food4.png","76","616.8000000007451","3","0","2","1","1,0.5,0,1,0.5,0,0.5,0,1","0,1,0.5,0,1,0.5,1,0.5,0","3","",""
"","html-keyboard-response","125","195626","0.0-125.0","3TAYZSBPLMUIBA41M4RGIMO9VOQ2SU","A1F8MH33EFT5VQ","3L1EFR8WWTRIL5MKAR1UWRHK4IC9FJ","","null","<img src=""img/food4.png"" style=""width:200px;border:14px solid red;"">","null","","","","","","","","","",""
"","image-keyboard-response","126","196028","0.0-126.0","3TAYZSBPLMUIBA41M4RGIMO9VOQ2SU","A1F8MH33EFT5VQ","3L1EFR8WWTRIL5MKAR1UWRHK4IC9FJ","","401.0999999977648","img/food1.png","76","402.3999999985099","3","1","1","1","1,0.5,0,1,0.5,0,0.5,0,1","0,1,0.5,0,1,0.5,1,0.5,0","3","",""
"","html-keyboard-response","127","196330","0.0-127.0","3TAYZSBPLMUIBA41M4RGIMO9VOQ2SU","A1F8MH33EFT5VQ","3L1EFR8WWTRIL5MKAR1UWRHK4IC9FJ","","null","<img src=""img/food1.png"" style=""width:200px; border:14px solid green;"">","null","","","","","","","","","",""
"","image-keyboard-response","128","198050","0.0-128.0","3TAYZSBPLMUIBA41M4RGIMO9VOQ2SU","A1F8MH33EFT5VQ","3L1EFR8WWTRIL5MKAR1UWRHK4IC9FJ","","1718.4000000022352","img/food4.png","76","1719.6000000014901","3","0","2","1","1,0.5,0,1,0.5,0,0.5,0,1","0,1,0.5,0,1,0.5,1,0.5,0","3","",""
"","html-keyboard-response","129","198352","0.0-129.0","3TAYZSBPLMUIBA41M4RGIMO9VOQ2SU","A1F8MH33EFT5VQ","3L1EFR8WWTRIL5MKAR1UWRHK4IC9FJ","","null","<img src=""img/food4.png"" style=""width:200px;border:14px solid red;"">","null","","","","","","","","","",""
"","image-keyboard-response","130","199208","0.0-130.0","3TAYZSBPLMUIBA41M4RGIMO9VOQ2SU","A1F8MH33EFT5VQ","3L1EFR8WWTRIL5MKAR1UWRHK4IC9FJ","","854.8999999985099","img/food4.png","76","855.7999999970198","3","0","2","1","1,0.5,0,1,0.5,0,0.5,0,1","0,1,0.5,0,1,0.5,1,0.5,0","3","",""
"","html-keyboard-response","131","199510","0.0-131.0","3TAYZSBPLMUIBA41M4RGIMO9VOQ2SU","A1F8MH33EFT5VQ","3L1EFR8WWTRIL5MKAR1UWRHK4IC9FJ","","null","<img src=""img/food4.png"" style=""width:200px;border:14px solid red;"">","null","","","","","","","","","",""
"","image-keyboard-response","132","200194","0.0-132.0","3TAYZSBPLMUIBA41M4RGIMO9VOQ2SU","A1F8MH33EFT5VQ","3L1EFR8WWTRIL5MKAR1UWRHK4IC9FJ","","680.6999999992549","img/food6.png","74","681.8000000007451","1","1","3","1","1,0.5,0,1,0.5,0,0.5,0,1","0,1,0.5,0,1,0.5,1,0.5,0","3","",""
"","html-keyboard-response","133","200497","0.0-133.0","3TAYZSBPLMUIBA41M4RGIMO9VOQ2SU","A1F8MH33EFT5VQ","3L1EFR8WWTRIL5MKAR1UWRHK4IC9FJ","","null","<img src=""img/food6.png"" style=""width:200px; border:14px solid green;"">","null","","","","","","","","","",""
"","image-keyboard-response","134","201013","0.0-134.0","3TAYZSBPLMUIBA41M4RGIMO9VOQ2SU","A1F8MH33EFT5VQ","3L1EFR8WWTRIL5MKAR1UWRHK4IC9FJ","","513.5999999977648","img/food6.png","74","515.3000000007451","1","1","3","1","1,0.5,0,1,0.5,0,0.5,0,1","0,1,0.5,0,1,0.5,1,0.5,0","3","",""
"","html-keyboard-response","135","201315","0.0-135.0","3TAYZSBPLMUIBA41M4RGIMO9VOQ2SU","A1F8MH33EFT5VQ","3L1EFR8WWTRIL5MKAR1UWRHK4IC9FJ","","null","<img src=""img/food6.png"" style=""width:200px; border:14px solid green;"">","null","","","","","","","","","",""
"","image-keyboard-response","136","202141","0.0-136.0","3TAYZSBPLMUIBA41M4RGIMO9VOQ2SU","A1F8MH33EFT5VQ","3L1EFR8WWTRIL5MKAR1UWRHK4IC9FJ","","824.6000000014901","img/food1.png","75","826.1999999992549","2","1","1","1","1,0.5,0,1,0.5,0,0.5,0,1","0,1,0.5,0,1,0.5,1,0.5,0","3","",""
"","html-keyboard-response","137","202444","0.0-137.0","3TAYZSBPLMUIBA41M4RGIMO9VOQ2SU","A1F8MH33EFT5VQ","3L1EFR8WWTRIL5MKAR1UWRHK4IC9FJ","","null","<img src=""img/food1.png"" style=""width:200px; border:14px solid green;"">","null","","","","","","","","","",""
"","image-keyboard-response","138","203125","0.0-138.0","3TAYZSBPLMUIBA41M4RGIMO9VOQ2SU","A1F8MH33EFT5VQ","3L1EFR8WWTRIL5MKAR1UWRHK4IC9FJ","","679.3999999985099","img/food1.png","75","681.1999999992549","2","1","1","1","1,0.5,0,1,0.5,0,0.5,0,1","0,1,0.5,0,1,0.5,1,0.5,0","3","",""
"","html-keyboard-response","139","203428","0.0-139.0","3TAYZSBPLMUIBA41M4RGIMO9VOQ2SU","A1F8MH33EFT5VQ","3L1EFR8WWTRIL5MKAR1UWRHK4IC9FJ","","null","<img src=""img/food1.png"" style=""width:200px; border:14px solid green;"">","null","","","","","","","","","",""
"","image-keyboard-response","140","204192","0.0-140.0","3TAYZSBPLMUIBA41M4RGIMO9VOQ2SU","A1F8MH33EFT5VQ","3L1EFR8WWTRIL5MKAR1UWRHK4IC9FJ","","763.1000000014901","img/food1.png","75","764.1999999992549","2","1","1","1","1,0.5,0,1,0.5,0,0.5,0,1","0,1,0.5,0,1,0.5,1,0.5,0","3","",""
"","html-keyboard-response","141","204494","0.0-141.0","3TAYZSBPLMUIBA41M4RGIMO9VOQ2SU","A1F8MH33EFT5VQ","3L1EFR8WWTRIL5MKAR1UWRHK4IC9FJ","","null","<img src=""img/food1.png"" style=""width:200px; border:14px solid green;"">","null","","","","","","","","","",""
"","image-keyboard-response","142","205028","0.0-142.0","3TAYZSBPLMUIBA41M4RGIMO9VOQ2SU","A1F8MH33EFT5VQ","3L1EFR8WWTRIL5MKAR1UWRHK4IC9FJ","","532.3000000007451","img/food1.png","75","533.8999999985099","2","1","1","1","1,0.5,0,1,0.5,0,0.5,0,1","0,1,0.5,0,1,0.5,1,0.5,0","3","",""
"","html-keyboard-response","143","205330","0.0-143.0","3TAYZSBPLMUIBA41M4RGIMO9VOQ2SU","A1F8MH33EFT5VQ","3L1EFR8WWTRIL5MKAR1UWRHK4IC9FJ","","null","<img src=""img/food1.png"" style=""width:200px; border:14px solid green;"">","null","","","","","","","","","",""
"","image-keyboard-response","144","205957","0.0-144.0","3TAYZSBPLMUIBA41M4RGIMO9VOQ2SU","A1F8MH33EFT5VQ","3L1EFR8WWTRIL5MKAR1UWRHK4IC9FJ","","625.1000000014901","img/food6.png","74","626.1000000014901","1","1","3","1","1,0.5,0,1,0.5,0,0.5,0,1","0,1,0.5,0,1,0.5,1,0.5,0","3","",""
"","html-keyboard-response","145","206258","0.0-145.0","3TAYZSBPLMUIBA41M4RGIMO9VOQ2SU","A1F8MH33EFT5VQ","3L1EFR8WWTRIL5MKAR1UWRHK4IC9FJ","","null","<img src=""img/food6.png"" style=""width:200px; border:14px solid green;"">","null","","","","","","","","","",""
"","image-keyboard-response","146","206766","0.0-146.0","3TAYZSBPLMUIBA41M4RGIMO9VOQ2SU","A1F8MH33EFT5VQ","3L1EFR8WWTRIL5MKAR1UWRHK4IC9FJ","","506.5","img/food6.png","74","507.6000000014901","1","1","3","1","1,0.5,0,1,0.5,0,0.5,0,1","0,1,0.5,0,1,0.5,1,0.5,0","3","",""
"","html-keyboard-response","147","207081","0.0-147.0","3TAYZSBPLMUIBA41M4RGIMO9VOQ2SU","A1F8MH33EFT5VQ","3L1EFR8WWTRIL5MKAR1UWRHK4IC9FJ","","null","<img src=""img/food6.png"" style=""width:200px; border:14px solid green;"">","null","","","","","","","","","",""
"","image-keyboard-response","148","207625","0.0-148.0","3TAYZSBPLMUIBA41M4RGIMO9VOQ2SU","A1F8MH33EFT5VQ","3L1EFR8WWTRIL5MKAR1UWRHK4IC9FJ","","542.2000000029802","img/food4.png","76","543.3999999985099","3","0","2","1","1,0.5,0,1,0.5,0,0.5,0,1","0,1,0.5,0,1,0.5,1,0.5,0","3","",""
"","html-keyboard-response","149","207927","0.0-149.0","3TAYZSBPLMUIBA41M4RGIMO9VOQ2SU","A1F8MH33EFT5VQ","3L1EFR8WWTRIL5MKAR1UWRHK4IC9FJ","","null","<img src=""img/food4.png"" style=""width:200px;border:14px solid red;"">","null","","","","","","","","","",""
"","image-keyboard-response","150","208454","0.0-150.0","3TAYZSBPLMUIBA41M4RGIMO9VOQ2SU","A1F8MH33EFT5VQ","3L1EFR8WWTRIL5MKAR1UWRHK4IC9FJ","","525.5","img/food4.png","76","526.6999999992549","3","1","2","1","1,0.5,0,1,0.5,0,0.5,0,1","0,1,0.5,0,1,0.5,1,0.5,0","3","",""
"","html-keyboard-response","151","208756","0.0-151.0","3TAYZSBPLMUIBA41M4RGIMO9VOQ2SU","A1F8MH33EFT5VQ","3L1EFR8WWTRIL5MKAR1UWRHK4IC9FJ","","null","<img src=""img/food4.png"" style=""width:200px; border:14px solid green;"">","null","","","","","","","","","",""
"","image-keyboard-response","152","209603","0.0-152.0","3TAYZSBPLMUIBA41M4RGIMO9VOQ2SU","A1F8MH33EFT5VQ","3L1EFR8WWTRIL5MKAR1UWRHK4IC9FJ","","845.2000000029802","img/food1.png","75","846.5","2","1","1","1","1,0.5,0,1,0.5,0,0.5,0,1","0,1,0.5,0,1,0.5,1,0.5,0","3","",""
"","html-keyboard-response","153","209905","0.0-153.0","3TAYZSBPLMUIBA41M4RGIMO9VOQ2SU","A1F8MH33EFT5VQ","3L1EFR8WWTRIL5MKAR1UWRHK4IC9FJ","","null","<img src=""img/food1.png"" style=""width:200px; border:14px solid green;"">","null","","","","","","","","","",""
"","image-keyboard-response","154","210721","0.0-154.0","3TAYZSBPLMUIBA41M4RGIMO9VOQ2SU","A1F8MH33EFT5VQ","3L1EFR8WWTRIL5MKAR1UWRHK4IC9FJ","","815.1000000014901","img/food6.png","74","816.1999999992549","1","1","3","1","1,0.5,0,1,0.5,0,0.5,0,1","0,1,0.5,0,1,0.5,1,0.5,0","3","",""
"","html-keyboard-response","155","211024","0.0-155.0","3TAYZSBPLMUIBA41M4RGIMO9VOQ2SU","A1F8MH33EFT5VQ","3L1EFR8WWTRIL5MKAR1UWRHK4IC9FJ","","null","<img src=""img/food6.png"" style=""width:200px; border:14px solid green;"">","null","","","","","","","","","",""
"","image-keyboard-response","156","211531","0.0-156.0","3TAYZSBPLMUIBA41M4RGIMO9VOQ2SU","A1F8MH33EFT5VQ","3L1EFR8WWTRIL5MKAR1UWRHK4IC9FJ","","505","img/food6.png","74","506","1","1","3","1","1,0.5,0,1,0.5,0,0.5,0,1","0,1,0.5,0,1,0.5,1,0.5,0","3","",""
"","html-keyboard-response","157","211833","0.0-157.0","3TAYZSBPLMUIBA41M4RGIMO9VOQ2SU","A1F8MH33EFT5VQ","3L1EFR8WWTRIL5MKAR1UWRHK4IC9FJ","","null","<img src=""img/food6.png"" style=""width:200px; border:14px solid green;"">","null","","","","","","","","","",""
"","image-keyboard-response","158","212514","0.0-158.0","3TAYZSBPLMUIBA41M4RGIMO9VOQ2SU","A1F8MH33EFT5VQ","3L1EFR8WWTRIL5MKAR1UWRHK4IC9FJ","","679.5","img/food1.png","75","680.6999999992549","2","1","1","1","1,0.5,0,1,0.5,0,0.5,0,1","0,1,0.5,0,1,0.5,1,0.5,0","3","",""
"","html-keyboard-response","159","212816","0.0-159.0","3TAYZSBPLMUIBA41M4RGIMO9VOQ2SU","A1F8MH33EFT5VQ","3L1EFR8WWTRIL5MKAR1UWRHK4IC9FJ","","null","<img src=""img/food1.png"" style=""width:200px; border:14px solid green;"">","null","","","","","","","","","",""
"","image-keyboard-response","160","213479","0.0-160.0","3TAYZSBPLMUIBA41M4RGIMO9VOQ2SU","A1F8MH33EFT5VQ","3L1EFR8WWTRIL5MKAR1UWRHK4IC9FJ","","661.0999999977648","img/food6.png","74","662.2999999970198","1","1","3","1","1,0.5,0,1,0.5,0,0.5,0,1","0,1,0.5,0,1,0.5,1,0.5,0","3","",""
"","html-keyboard-response","161","213781","0.0-161.0","3TAYZSBPLMUIBA41M4RGIMO9VOQ2SU","A1F8MH33EFT5VQ","3L1EFR8WWTRIL5MKAR1UWRHK4IC9FJ","","null","<img src=""img/food6.png"" style=""width:200px; border:14px solid green;"">","null","","","","","","","","","",""
"","image-keyboard-response","162","214258","0.0-162.0","3TAYZSBPLMUIBA41M4RGIMO9VOQ2SU","A1F8MH33EFT5VQ","3L1EFR8WWTRIL5MKAR1UWRHK4IC9FJ","","474.80000000074506","img/food1.png","75","476.0999999977648","2","1","1","1","1,0.5,0,1,0.5,0,0.5,0,1","0,1,0.5,0,1,0.5,1,0.5,0","3","",""
"","html-keyboard-response","163","214561","0.0-163.0","3TAYZSBPLMUIBA41M4RGIMO9VOQ2SU","A1F8MH33EFT5VQ","3L1EFR8WWTRIL5MKAR1UWRHK4IC9FJ","","null","<img src=""img/food1.png"" style=""width:200px; border:14px solid green;"">","null","","","","","","","","","",""
"","image-keyboard-response","164","215101","0.0-164.0","3TAYZSBPLMUIBA41M4RGIMO9VOQ2SU","A1F8MH33EFT5VQ","3L1EFR8WWTRIL5MKAR1UWRHK4IC9FJ","","539.3000000007451","img/food4.png","76","540.3999999985099","3","1","2","1","1,0.5,0,1,0.5,0,0.5,0,1","0,1,0.5,0,1,0.5,1,0.5,0","3","",""
"","html-keyboard-response","165","215403","0.0-165.0","3TAYZSBPLMUIBA41M4RGIMO9VOQ2SU","A1F8MH33EFT5VQ","3L1EFR8WWTRIL5MKAR1UWRHK4IC9FJ","","null","<img src=""img/food4.png"" style=""width:200px; border:14px solid green;"">","null","","","","","","","","","",""
"","image-keyboard-response","166","215906","0.0-166.0","3TAYZSBPLMUIBA41M4RGIMO9VOQ2SU","A1F8MH33EFT5VQ","3L1EFR8WWTRIL5MKAR1UWRHK4IC9FJ","","501","img/food4.png","76","502.0999999977648","3","1","2","1","1,0.5,0,1,0.5,0,0.5,0,1","0,1,0.5,0,1,0.5,1,0.5,0","3","",""
"","html-keyboard-response","167","216209","0.0-167.0","3TAYZSBPLMUIBA41M4RGIMO9VOQ2SU","A1F8MH33EFT5VQ","3L1EFR8WWTRIL5MKAR1UWRHK4IC9FJ","","null","<img src=""img/food4.png"" style=""width:200px; border:14px solid green;"">","null","","","","","","","","","",""
"","image-keyboard-response","168","216709","0.0-168.0","3TAYZSBPLMUIBA41M4RGIMO9VOQ2SU","A1F8MH33EFT5VQ","3L1EFR8WWTRIL5MKAR1UWRHK4IC9FJ","","498.8999999985099","img/food4.png","76","500","3","1","2","1","1,0.5,0,1,0.5,0,0.5,0,1","0,1,0.5,0,1,0.5,1,0.5,0","3","",""
"","html-keyboard-response","169","217011","0.0-169.0","3TAYZSBPLMUIBA41M4RGIMO9VOQ2SU","A1F8MH33EFT5VQ","3L1EFR8WWTRIL5MKAR1UWRHK4IC9FJ","","null","<img src=""img/food4.png"" style=""width:200px; border:14px solid green;"">","null","","","","","","","","","",""
"","image-keyboard-response","170","217608","0.0-170.0","3TAYZSBPLMUIBA41M4RGIMO9VOQ2SU","A1F8MH33EFT5VQ","3L1EFR8WWTRIL5MKAR1UWRHK4IC9FJ","","594.6999999992549","img/food6.png","74","595.8999999985099","1","1","3","1","1,0.5,0,1,0.5,0,0.5,0,1","0,1,0.5,0,1,0.5,1,0.5,0","3","",""
"","html-keyboard-response","171","217910","0.0-171.0","3TAYZSBPLMUIBA41M4RGIMO9VOQ2SU","A1F8MH33EFT5VQ","3L1EFR8WWTRIL5MKAR1UWRHK4IC9FJ","","null","<img src=""img/food6.png"" style=""width:200px; border:14px solid green;"">","null","","","","","","","","","",""
"","image-keyboard-response","172","218512","0.0-172.0","3TAYZSBPLMUIBA41M4RGIMO9VOQ2SU","A1F8MH33EFT5VQ","3L1EFR8WWTRIL5MKAR1UWRHK4IC9FJ","","601","img/food4.png","74","602.4000000022352","1","0","2","1","1,0.5,0,1,0.5,0,0.5,0,1","0,1,0.5,0,1,0.5,1,0.5,0","3","",""
"","html-keyboard-response","173","218814","0.0-173.0","3TAYZSBPLMUIBA41M4RGIMO9VOQ2SU","A1F8MH33EFT5VQ","3L1EFR8WWTRIL5MKAR1UWRHK4IC9FJ","","null","<img src=""img/food4.png"" style=""width:200px;border:14px solid red;"">","null","","","","","","","","","",""
"","image-keyboard-response","174","220072","0.0-174.0","3TAYZSBPLMUIBA41M4RGIMO9VOQ2SU","A1F8MH33EFT5VQ","3L1EFR8WWTRIL5MKAR1UWRHK4IC9FJ","","1256.5","img/food6.png","74","1257.800000000745","1","1","3","1","1,0.5,0,1,0.5,0,0.5,0,1","0,1,0.5,0,1,0.5,1,0.5,0","3","",""
"","html-keyboard-response","175","220374","0.0-175.0","3TAYZSBPLMUIBA41M4RGIMO9VOQ2SU","A1F8MH33EFT5VQ","3L1EFR8WWTRIL5MKAR1UWRHK4IC9FJ","","null","<img src=""img/food6.png"" style=""width:200px; border:14px solid green;"">","null","","","","","","","","","",""
"","image-keyboard-response","176","221000","0.0-176.0","3TAYZSBPLMUIBA41M4RGIMO9VOQ2SU","A1F8MH33EFT5VQ","3L1EFR8WWTRIL5MKAR1UWRHK4IC9FJ","","624.1999999992549","img/food1.png","75","625.5","2","1","1","1","1,0.5,0,1,0.5,0,0.5,0,1","0,1,0.5,0,1,0.5,1,0.5,0","3","",""
"","html-keyboard-response","177","221302","0.0-177.0","3TAYZSBPLMUIBA41M4RGIMO9VOQ2SU","A1F8MH33EFT5VQ","3L1EFR8WWTRIL5MKAR1UWRHK4IC9FJ","","null","<img src=""img/food1.png"" style=""width:200px; border:14px solid green;"">","null","","","","","","","","","",""
"","image-keyboard-response","178","221824","0.0-178.0","3TAYZSBPLMUIBA41M4RGIMO9VOQ2SU","A1F8MH33EFT5VQ","3L1EFR8WWTRIL5MKAR1UWRHK4IC9FJ","","520.1999999992549","img/food4.png","76","521.5","3","0","2","1","1,0.5,0,1,0.5,0,0.5,0,1","0,1,0.5,0,1,0.5,1,0.5,0","3","",""
"","html-keyboard-response","179","222126","0.0-179.0","3TAYZSBPLMUIBA41M4RGIMO9VOQ2SU","A1F8MH33EFT5VQ","3L1EFR8WWTRIL5MKAR1UWRHK4IC9FJ","","null","<img src=""img/food4.png"" style=""width:200px;border:14px solid red;"">","null","","","","","","","","","",""
"","image-keyboard-response","180","222692","0.0-180.0","3TAYZSBPLMUIBA41M4RGIMO9VOQ2SU","A1F8MH33EFT5VQ","3L1EFR8WWTRIL5MKAR1UWRHK4IC9FJ","","564.5999999977648","img/food6.png","74","565.8999999985099","1","1","3","1","1,0.5,0,1,0.5,0,0.5,0,1","0,1,0.5,0,1,0.5,1,0.5,0","3","",""
"","html-keyboard-response","181","222994","0.0-181.0","3TAYZSBPLMUIBA41M4RGIMO9VOQ2SU","A1F8MH33EFT5VQ","3L1EFR8WWTRIL5MKAR1UWRHK4IC9FJ","","null","<img src=""img/food6.png"" style=""width:200px; border:14px solid green;"">","null","","","","","","","","","",""
"","html-keyboard-response","182","231772","0.0-182.0","3TAYZSBPLMUIBA41M4RGIMO9VOQ2SU","A1F8MH33EFT5VQ","3L1EFR8WWTRIL5MKAR1UWRHK4IC9FJ","","","","","","","","","","","","","",""
"","instructions","183","250717","0.0-183.0","3TAYZSBPLMUIBA41M4RGIMO9VOQ2SU","A1F8MH33EFT5VQ","3L1EFR8WWTRIL5MKAR1UWRHK4IC9FJ","[{""page_index"":0,""viewing_time"":14927.60000000149},{""page_index"":1,""viewing_time"":4016.199999999255}]","18943.89999999851","","","","","","","","","","","",""
"","image-keyboard-response","184","251719","0.0-184.0","3TAYZSBPLMUIBA41M4RGIMO9VOQ2SU","A1F8MH33EFT5VQ","3L1EFR8WWTRIL5MKAR1UWRHK4IC9FJ","","","img/food3.png","","1002.9000000022352","-1","0","2","2","1,0.5,0,1,0.5,0,0.5,0,1","0.5,0,1,0.5,0,1,0,1,0.5","2","true",""
"","html-keyboard-response","185","252022","0.0-185.0","3TAYZSBPLMUIBA41M4RGIMO9VOQ2SU","A1F8MH33EFT5VQ","3L1EFR8WWTRIL5MKAR1UWRHK4IC9FJ","","null","<img src=""img/food3.png"" style=""width:200px;border:14px solid red;"">","null","","","","","","","","","",""
"","html-keyboard-response","186","262012","0.0-186.0-0.0","3TAYZSBPLMUIBA41M4RGIMO9VOQ2SU","A1F8MH33EFT5VQ","3L1EFR8WWTRIL5MKAR1UWRHK4IC9FJ","","","","","","","","","","","","","",""
"","image-keyboard-response","187","262593","0.0-187.0","3TAYZSBPLMUIBA41M4RGIMO9VOQ2SU","A1F8MH33EFT5VQ","3L1EFR8WWTRIL5MKAR1UWRHK4IC9FJ","","580.1999999992549","img/food5.png","74","581.1000000014901","1","0","3","2","1,0.5,0,1,0.5,0,0.5,0,1","0.5,0,1,0.5,0,1,0,1,0.5","2","false",""
"","html-keyboard-response","188","262896","0.0-188.0","3TAYZSBPLMUIBA41M4RGIMO9VOQ2SU","A1F8MH33EFT5VQ","3L1EFR8WWTRIL5MKAR1UWRHK4IC9FJ","","null","<img src=""img/food5.png"" style=""width:200px;border:14px solid red;"">","null","","","","","","","","","",""
"","image-keyboard-response","189","263434","0.0-190.0","3TAYZSBPLMUIBA41M4RGIMO9VOQ2SU","A1F8MH33EFT5VQ","3L1EFR8WWTRIL5MKAR1UWRHK4IC9FJ","","536.3999999985099","img/food3.png","75","537.6000000014901","2","0","2","2","1,0.5,0,1,0.5,0,0.5,0,1","0.5,0,1,0.5,0,1,0,1,0.5","2","false",""
"","html-keyboard-response","190","263736","0.0-191.0","3TAYZSBPLMUIBA41M4RGIMO9VOQ2SU","A1F8MH33EFT5VQ","3L1EFR8WWTRIL5MKAR1UWRHK4IC9FJ","","null","<img src=""img/food3.png"" style=""width:200px;border:14px solid red;"">","null","","","","","","","","","",""
"","image-keyboard-response","191","264063","0.0-193.0","3TAYZSBPLMUIBA41M4RGIMO9VOQ2SU","A1F8MH33EFT5VQ","3L1EFR8WWTRIL5MKAR1UWRHK4IC9FJ","","324.30000000074506","img/food5.png","74","325.5999999977648","1","0","3","2","1,0.5,0,1,0.5,0,0.5,0,1","0.5,0,1,0.5,0,1,0,1,0.5","2","false",""
"","html-keyboard-response","192","264364","0.0-194.0","3TAYZSBPLMUIBA41M4RGIMO9VOQ2SU","A1F8MH33EFT5VQ","3L1EFR8WWTRIL5MKAR1UWRHK4IC9FJ","","null","<img src=""img/food5.png"" style=""width:200px;border:14px solid red;"">","null","","","","","","","","","",""
"","image-keyboard-response","193","264907","0.0-196.0","3TAYZSBPLMUIBA41M4RGIMO9VOQ2SU","A1F8MH33EFT5VQ","3L1EFR8WWTRIL5MKAR1UWRHK4IC9FJ","","541","img/food3.png","75","542.4000000022352","2","0","2","2","1,0.5,0,1,0.5,0,0.5,0,1","0.5,0,1,0.5,0,1,0,1,0.5","2","false",""
"","html-keyboard-response","194","265209","0.0-197.0","3TAYZSBPLMUIBA41M4RGIMO9VOQ2SU","A1F8MH33EFT5VQ","3L1EFR8WWTRIL5MKAR1UWRHK4IC9FJ","","null","<img src=""img/food3.png"" style=""width:200px;border:14px solid red;"">","null","","","","","","","","","",""
"","image-keyboard-response","195","265826","0.0-199.0","3TAYZSBPLMUIBA41M4RGIMO9VOQ2SU","A1F8MH33EFT5VQ","3L1EFR8WWTRIL5MKAR1UWRHK4IC9FJ","","614.9000000022352","img/food5.png","74","616.3000000007451","1","0","3","2","1,0.5,0,1,0.5,0,0.5,0,1","0.5,0,1,0.5,0,1,0,1,0.5","2","false",""
"","html-keyboard-response","196","266128","0.0-200.0","3TAYZSBPLMUIBA41M4RGIMO9VOQ2SU","A1F8MH33EFT5VQ","3L1EFR8WWTRIL5MKAR1UWRHK4IC9FJ","","null","<img src=""img/food5.png"" style=""width:200px;border:14px solid red;"">","null","","","","","","","","","",""
"","image-keyboard-response","197","266565","0.0-202.0","3TAYZSBPLMUIBA41M4RGIMO9VOQ2SU","A1F8MH33EFT5VQ","3L1EFR8WWTRIL5MKAR1UWRHK4IC9FJ","","435.69999999925494","img/food5.png","74","436.80000000074506","1","0","3","2","1,0.5,0,1,0.5,0,0.5,0,1","0.5,0,1,0.5,0,1,0,1,0.5","2","false",""
"","html-keyboard-response","198","266867","0.0-203.0","3TAYZSBPLMUIBA41M4RGIMO9VOQ2SU","A1F8MH33EFT5VQ","3L1EFR8WWTRIL5MKAR1UWRHK4IC9FJ","","null","<img src=""img/food5.png"" style=""width:200px;border:14px solid red;"">","null","","","","","","","","","",""
"","image-keyboard-response","199","267463","0.0-205.0","3TAYZSBPLMUIBA41M4RGIMO9VOQ2SU","A1F8MH33EFT5VQ","3L1EFR8WWTRIL5MKAR1UWRHK4IC9FJ","","595","img/food3.png","75","596.1000000014901","2","0","2","2","1,0.5,0,1,0.5,0,0.5,0,1","0.5,0,1,0.5,0,1,0,1,0.5","2","false",""
"","html-keyboard-response","200","267766","0.0-206.0","3TAYZSBPLMUIBA41M4RGIMO9VOQ2SU","A1F8MH33EFT5VQ","3L1EFR8WWTRIL5MKAR1UWRHK4IC9FJ","","null","<img src=""img/food3.png"" style=""width:200px;border:14px solid red;"">","null","","","","","","","","","",""
"","image-keyboard-response","201","268437","0.0-208.0","3TAYZSBPLMUIBA41M4RGIMO9VOQ2SU","A1F8MH33EFT5VQ","3L1EFR8WWTRIL5MKAR1UWRHK4IC9FJ","","669.8000000007451","img/food2.png","76","671.2000000029802","3","1","1","2","1,0.5,0,1,0.5,0,0.5,0,1","0.5,0,1,0.5,0,1,0,1,0.5","2","false",""
"","html-keyboard-response","202","268740","0.0-209.0","3TAYZSBPLMUIBA41M4RGIMO9VOQ2SU","A1F8MH33EFT5VQ","3L1EFR8WWTRIL5MKAR1UWRHK4IC9FJ","","null","<img src=""img/food2.png"" style=""width:200px; border:14px solid green;"">","null","","","","","","","","","",""
"","image-keyboard-response","203","269197","0.0-211.0","3TAYZSBPLMUIBA41M4RGIMO9VOQ2SU","A1F8MH33EFT5VQ","3L1EFR8WWTRIL5MKAR1UWRHK4IC9FJ","","454.69999999925494","img/food3.png","76","456.5","3","1","2","2","1,0.5,0,1,0.5,0,0.5,0,1","0.5,0,1,0.5,0,1,0,1,0.5","2","false",""
"","html-keyboard-response","204","269499","0.0-212.0","3TAYZSBPLMUIBA41M4RGIMO9VOQ2SU","A1F8MH33EFT5VQ","3L1EFR8WWTRIL5MKAR1UWRHK4IC9FJ","","null","<img src=""img/food3.png"" style=""width:200px; border:14px solid green;"">","null","","","","","","","","","",""
"","image-keyboard-response","205","269871","0.0-214.0","3TAYZSBPLMUIBA41M4RGIMO9VOQ2SU","A1F8MH33EFT5VQ","3L1EFR8WWTRIL5MKAR1UWRHK4IC9FJ","","369.80000000074506","img/food2.png","76","371.1000000014901","3","1","1","2","1,0.5,0,1,0.5,0,0.5,0,1","0.5,0,1,0.5,0,1,0,1,0.5","2","false",""
"","html-keyboard-response","206","270172","0.0-215.0","3TAYZSBPLMUIBA41M4RGIMO9VOQ2SU","A1F8MH33EFT5VQ","3L1EFR8WWTRIL5MKAR1UWRHK4IC9FJ","","null","<img src=""img/food2.png"" style=""width:200px; border:14px solid green;"">","null","","","","","","","","","",""
"","image-keyboard-response","207","270790","0.0-217.0","3TAYZSBPLMUIBA41M4RGIMO9VOQ2SU","A1F8MH33EFT5VQ","3L1EFR8WWTRIL5MKAR1UWRHK4IC9FJ","","615.0999999977648","img/food5.png","75","616.3999999985099","2","1","3","2","1,0.5,0,1,0.5,0,0.5,0,1","0.5,0,1,0.5,0,1,0,1,0.5","2","false",""
"","html-keyboard-response","208","271092","0.0-218.0","3TAYZSBPLMUIBA41M4RGIMO9VOQ2SU","A1F8MH33EFT5VQ","3L1EFR8WWTRIL5MKAR1UWRHK4IC9FJ","","null","<img src=""img/food5.png"" style=""width:200px; border:14px solid green;"">","null","","","","","","","","","",""
"","image-keyboard-response","209","271514","0.0-220.0","3TAYZSBPLMUIBA41M4RGIMO9VOQ2SU","A1F8MH33EFT5VQ","3L1EFR8WWTRIL5MKAR1UWRHK4IC9FJ","","420","img/food5.png","75","421.30000000074506","2","1","3","2","1,0.5,0,1,0.5,0,0.5,0,1","0.5,0,1,0.5,0,1,0,1,0.5","2","false",""
"","html-keyboard-response","210","271816","0.0-221.0","3TAYZSBPLMUIBA41M4RGIMO9VOQ2SU","A1F8MH33EFT5VQ","3L1EFR8WWTRIL5MKAR1UWRHK4IC9FJ","","null","<img src=""img/food5.png"" style=""width:200px; border:14px solid green;"">","null","","","","","","","","","",""
"","image-keyboard-response","211","272168","0.0-223.0","3TAYZSBPLMUIBA41M4RGIMO9VOQ2SU","A1F8MH33EFT5VQ","3L1EFR8WWTRIL5MKAR1UWRHK4IC9FJ","","350","img/food5.png","75","351.3999999985099","2","1","3","2","1,0.5,0,1,0.5,0,0.5,0,1","0.5,0,1,0.5,0,1,0,1,0.5","2","false",""
"","html-keyboard-response","212","272470","0.0-224.0","3TAYZSBPLMUIBA41M4RGIMO9VOQ2SU","A1F8MH33EFT5VQ","3L1EFR8WWTRIL5MKAR1UWRHK4IC9FJ","","null","<img src=""img/food5.png"" style=""width:200px; border:14px solid green;"">","null","","","","","","","","","",""
"","image-keyboard-response","213","273138","0.0-226.0","3TAYZSBPLMUIBA41M4RGIMO9VOQ2SU","A1F8MH33EFT5VQ","3L1EFR8WWTRIL5MKAR1UWRHK4IC9FJ","","665.2999999970198","img/food2.png","76","666.5","3","1","1","2","1,0.5,0,1,0.5,0,0.5,0,1","0.5,0,1,0.5,0,1,0,1,0.5","2","false",""
"","html-keyboard-response","214","273440","0.0-227.0","3TAYZSBPLMUIBA41M4RGIMO9VOQ2SU","A1F8MH33EFT5VQ","3L1EFR8WWTRIL5MKAR1UWRHK4IC9FJ","","null","<img src=""img/food2.png"" style=""width:200px; border:14px solid green;"">","null","","","","","","","","","",""
"","image-keyboard-response","215","273921","0.0-229.0","3TAYZSBPLMUIBA41M4RGIMO9VOQ2SU","A1F8MH33EFT5VQ","3L1EFR8WWTRIL5MKAR1UWRHK4IC9FJ","","478.80000000074506","img/food5.png","75","480","2","1","3","2","1,0.5,0,1,0.5,0,0.5,0,1","0.5,0,1,0.5,0,1,0,1,0.5","2","false",""
"","html-keyboard-response","216","274223","0.0-230.0","3TAYZSBPLMUIBA41M4RGIMO9VOQ2SU","A1F8MH33EFT5VQ","3L1EFR8WWTRIL5MKAR1UWRHK4IC9FJ","","null","<img src=""img/food5.png"" style=""width:200px; border:14px solid green;"">","null","","","","","","","","","",""
"","image-keyboard-response","217","274565","0.0-232.0","3TAYZSBPLMUIBA41M4RGIMO9VOQ2SU","A1F8MH33EFT5VQ","3L1EFR8WWTRIL5MKAR1UWRHK4IC9FJ","","340.20000000298023","img/food2.png","76","341.5","3","1","1","2","1,0.5,0,1,0.5,0,0.5,0,1","0.5,0,1,0.5,0,1,0,1,0.5","2","false",""
"","html-keyboard-response","218","274868","0.0-233.0","3TAYZSBPLMUIBA41M4RGIMO9VOQ2SU","A1F8MH33EFT5VQ","3L1EFR8WWTRIL5MKAR1UWRHK4IC9FJ","","null","<img src=""img/food2.png"" style=""width:200px; border:14px solid green;"">","null","","","","","","","","","",""
"","image-keyboard-response","219","275275","0.0-235.0","3TAYZSBPLMUIBA41M4RGIMO9VOQ2SU","A1F8MH33EFT5VQ","3L1EFR8WWTRIL5MKAR1UWRHK4IC9FJ","","405.3999999985099","img/food2.png","75","406.5","2","0","1","2","1,0.5,0,1,0.5,0,0.5,0,1","0.5,0,1,0.5,0,1,0,1,0.5","2","false",""
"","html-keyboard-response","220","275577","0.0-236.0","3TAYZSBPLMUIBA41M4RGIMO9VOQ2SU","A1F8MH33EFT5VQ","3L1EFR8WWTRIL5MKAR1UWRHK4IC9FJ","","null","<img src=""img/food2.png"" style=""width:200px;border:14px solid red;"">","null","","","","","","","","","",""
"","image-keyboard-response","221","276413","0.0-238.0","3TAYZSBPLMUIBA41M4RGIMO9VOQ2SU","A1F8MH33EFT5VQ","3L1EFR8WWTRIL5MKAR1UWRHK4IC9FJ","","834.6999999992549","img/food3.png","74","835.8999999985099","1","0","2","2","1,0.5,0,1,0.5,0,0.5,0,1","0.5,0,1,0.5,0,1,0,1,0.5","2","false",""
"","html-keyboard-response","222","276716","0.0-239.0","3TAYZSBPLMUIBA41M4RGIMO9VOQ2SU","A1F8MH33EFT5VQ","3L1EFR8WWTRIL5MKAR1UWRHK4IC9FJ","","null","<img src=""img/food3.png"" style=""width:200px;border:14px solid red;"">","null","","","","","","","","","",""
"","image-keyboard-response","223","277186","0.0-241.0","3TAYZSBPLMUIBA41M4RGIMO9VOQ2SU","A1F8MH33EFT5VQ","3L1EFR8WWTRIL5MKAR1UWRHK4IC9FJ","","468","img/food2.png","75","469","2","0","1","2","1,0.5,0,1,0.5,0,0.5,0,1","0.5,0,1,0.5,0,1,0,1,0.5","2","false",""
"","html-keyboard-response","224","277488","0.0-242.0","3TAYZSBPLMUIBA41M4RGIMO9VOQ2SU","A1F8MH33EFT5VQ","3L1EFR8WWTRIL5MKAR1UWRHK4IC9FJ","","null","<img src=""img/food2.png"" style=""width:200px;border:14px solid red;"">","null","","","","","","","","","",""
"","image-keyboard-response","225","277951","0.0-244.0","3TAYZSBPLMUIBA41M4RGIMO9VOQ2SU","A1F8MH33EFT5VQ","3L1EFR8WWTRIL5MKAR1UWRHK4IC9FJ","","461.3999999985099","img/food5.png","76","462.79999999701977","3","1","3","2","1,0.5,0,1,0.5,0,0.5,0,1","0.5,0,1,0.5,0,1,0,1,0.5","2","false",""
"","html-keyboard-response","226","278254","0.0-245.0","3TAYZSBPLMUIBA41M4RGIMO9VOQ2SU","A1F8MH33EFT5VQ","3L1EFR8WWTRIL5MKAR1UWRHK4IC9FJ","","null","<img src=""img/food5.png"" style=""width:200px; border:14px solid green;"">","null","","","","","","","","","",""
"","image-keyboard-response","227","278645","0.0-247.0","3TAYZSBPLMUIBA41M4RGIMO9VOQ2SU","A1F8MH33EFT5VQ","3L1EFR8WWTRIL5MKAR1UWRHK4IC9FJ","","389.8999999985099","img/food2.png","75","391.5","2","0","1","2","1,0.5,0,1,0.5,0,0.5,0,1","0.5,0,1,0.5,0,1,0,1,0.5","2","false",""
"","html-keyboard-response","228","278947","0.0-248.0","3TAYZSBPLMUIBA41M4RGIMO9VOQ2SU","A1F8MH33EFT5VQ","3L1EFR8WWTRIL5MKAR1UWRHK4IC9FJ","","null","<img src=""img/food2.png"" style=""width:200px;border:14px solid red;"">","null","","","","","","","","","",""
"","image-keyboard-response","229","279425","0.0-250.0","3TAYZSBPLMUIBA41M4RGIMO9VOQ2SU","A1F8MH33EFT5VQ","3L1EFR8WWTRIL5MKAR1UWRHK4IC9FJ","","475.8999999985099","img/food2.png","75","477.19999999925494","2","0","1","2","1,0.5,0,1,0.5,0,0.5,0,1","0.5,0,1,0.5,0,1,0,1,0.5","2","false",""
"","html-keyboard-response","230","279727","0.0-251.0","3TAYZSBPLMUIBA41M4RGIMO9VOQ2SU","A1F8MH33EFT5VQ","3L1EFR8WWTRIL5MKAR1UWRHK4IC9FJ","","null","<img src=""img/food2.png"" style=""width:200px;border:14px solid red;"">","null","","","","","","","","","",""
"","image-keyboard-response","231","280434","0.0-253.0","3TAYZSBPLMUIBA41M4RGIMO9VOQ2SU","A1F8MH33EFT5VQ","3L1EFR8WWTRIL5MKAR1UWRHK4IC9FJ","","704.9000000022352","img/food3.png","75","706.1000000014901","2","0","2","2","1,0.5,0,1,0.5,0,0.5,0,1","0.5,0,1,0.5,0,1,0,1,0.5","2","false",""
"","html-keyboard-response","232","280736","0.0-254.0","3TAYZSBPLMUIBA41M4RGIMO9VOQ2SU","A1F8MH33EFT5VQ","3L1EFR8WWTRIL5MKAR1UWRHK4IC9FJ","","null","<img src=""img/food3.png"" style=""width:200px;border:14px solid red;"">","null","","","","","","","","","",""
"","image-keyboard-response","233","281572","0.0-256.0","3TAYZSBPLMUIBA41M4RGIMO9VOQ2SU","A1F8MH33EFT5VQ","3L1EFR8WWTRIL5MKAR1UWRHK4IC9FJ","","833.5","img/food2.png","76","835","3","1","1","2","1,0.5,0,1,0.5,0,0.5,0,1","0.5,0,1,0.5,0,1,0,1,0.5","2","false",""
"","html-keyboard-response","234","281873","0.0-257.0","3TAYZSBPLMUIBA41M4RGIMO9VOQ2SU","A1F8MH33EFT5VQ","3L1EFR8WWTRIL5MKAR1UWRHK4IC9FJ","","null","<img src=""img/food2.png"" style=""width:200px; border:14px solid green;"">","null","","","","","","","","","",""
"","image-keyboard-response","235","282876","0.0-259.0","3TAYZSBPLMUIBA41M4RGIMO9VOQ2SU","A1F8MH33EFT5VQ","3L1EFR8WWTRIL5MKAR1UWRHK4IC9FJ","","","img/food3.png","","1002.2999999970198","-1","0","2","2","1,0.5,0,1,0.5,0,0.5,0,1","0.5,0,1,0.5,0,1,0,1,0.5","2","true",""
"","html-keyboard-response","236","283179","0.0-260.0","3TAYZSBPLMUIBA41M4RGIMO9VOQ2SU","A1F8MH33EFT5VQ","3L1EFR8WWTRIL5MKAR1UWRHK4IC9FJ","","null","<img src=""img/food3.png"" style=""width:200px;border:14px solid red;"">","null","","","","","","","","","",""
"","html-keyboard-response","237","292385","0.0-261.0-0.0","3TAYZSBPLMUIBA41M4RGIMO9VOQ2SU","A1F8MH33EFT5VQ","3L1EFR8WWTRIL5MKAR1UWRHK4IC9FJ","","","","","","","","","","","","","",""
"","image-keyboard-response","238","293014","0.0-262.0","3TAYZSBPLMUIBA41M4RGIMO9VOQ2SU","A1F8MH33EFT5VQ","3L1EFR8WWTRIL5MKAR1UWRHK4IC9FJ","","628","img/food3.png","74","629","1","1","2","2","1,0.5,0,1,0.5,0,0.5,0,1","0.5,0,1,0.5,0,1,0,1,0.5","2","false",""
"","html-keyboard-response","239","293317","0.0-263.0","3TAYZSBPLMUIBA41M4RGIMO9VOQ2SU","A1F8MH33EFT5VQ","3L1EFR8WWTRIL5MKAR1UWRHK4IC9FJ","","null","<img src=""img/food3.png"" style=""width:200px; border:14px solid green;"">","null","","","","","","","","","",""
"","image-keyboard-response","240","293792","0.0-265.0","3TAYZSBPLMUIBA41M4RGIMO9VOQ2SU","A1F8MH33EFT5VQ","3L1EFR8WWTRIL5MKAR1UWRHK4IC9FJ","","473.1000000014901","img/food5.png","75","474.6000000014901","2","1","3","2","1,0.5,0,1,0.5,0,0.5,0,1","0.5,0,1,0.5,0,1,0,1,0.5","2","false",""
"","html-keyboard-response","241","294094","0.0-266.0","3TAYZSBPLMUIBA41M4RGIMO9VOQ2SU","A1F8MH33EFT5VQ","3L1EFR8WWTRIL5MKAR1UWRHK4IC9FJ","","null","<img src=""img/food5.png"" style=""width:200px; border:14px solid green;"">","null","","","","","","","","","",""
"","image-keyboard-response","242","294597","0.0-268.0","3TAYZSBPLMUIBA41M4RGIMO9VOQ2SU","A1F8MH33EFT5VQ","3L1EFR8WWTRIL5MKAR1UWRHK4IC9FJ","","500.6000000014901","img/food3.png","74","502","1","0","2","2","1,0.5,0,1,0.5,0,0.5,0,1","0.5,0,1,0.5,0,1,0,1,0.5","2","false",""
"","html-keyboard-response","243","294899","0.0-269.0","3TAYZSBPLMUIBA41M4RGIMO9VOQ2SU","A1F8MH33EFT5VQ","3L1EFR8WWTRIL5MKAR1UWRHK4IC9FJ","","null","<img src=""img/food3.png"" style=""width:200px;border:14px solid red;"">","null","","","","","","","","","",""
"","image-keyboard-response","244","295195","0.0-271.0","3TAYZSBPLMUIBA41M4RGIMO9VOQ2SU","A1F8MH33EFT5VQ","3L1EFR8WWTRIL5MKAR1UWRHK4IC9FJ","","294.20000000298023","img/food3.png","75","295.5","2","0","2","2","1,0.5,0,1,0.5,0,0.5,0,1","0.5,0,1,0.5,0,1,0,1,0.5","2","false",""
"","html-keyboard-response","245","295497","0.0-272.0","3TAYZSBPLMUIBA41M4RGIMO9VOQ2SU","A1F8MH33EFT5VQ","3L1EFR8WWTRIL5MKAR1UWRHK4IC9FJ","","null","<img src=""img/food3.png"" style=""width:200px;border:14px solid red;"">","null","","","","","","","","","",""
"","image-keyboard-response","246","296119","0.0-274.0","3TAYZSBPLMUIBA41M4RGIMO9VOQ2SU","A1F8MH33EFT5VQ","3L1EFR8WWTRIL5MKAR1UWRHK4IC9FJ","","620.3000000007451","img/food5.png","75","621.8000000007451","2","1","3","2","1,0.5,0,1,0.5,0,0.5,0,1","0.5,0,1,0.5,0,1,0,1,0.5","2","false",""
"","html-keyboard-response","247","296422","0.0-275.0","3TAYZSBPLMUIBA41M4RGIMO9VOQ2SU","A1F8MH33EFT5VQ","3L1EFR8WWTRIL5MKAR1UWRHK4IC9FJ","","null","<img src=""img/food5.png"" style=""width:200px; border:14px solid green;"">","null","","","","","","","","","",""
"","image-keyboard-response","248","296794","0.0-277.0","3TAYZSBPLMUIBA41M4RGIMO9VOQ2SU","A1F8MH33EFT5VQ","3L1EFR8WWTRIL5MKAR1UWRHK4IC9FJ","","370.4000000022352","img/food5.png","75","371.69999999925494","2","1","3","2","1,0.5,0,1,0.5,0,0.5,0,1","0.5,0,1,0.5,0,1,0,1,0.5","2","false",""
"","html-keyboard-response","249","297096","0.0-278.0","3TAYZSBPLMUIBA41M4RGIMO9VOQ2SU","A1F8MH33EFT5VQ","3L1EFR8WWTRIL5MKAR1UWRHK4IC9FJ","","null","<img src=""img/food5.png"" style=""width:200px; border:14px solid green;"">","null","","","","","","","","","",""
"","image-keyboard-response","250","297613","0.0-280.0","3TAYZSBPLMUIBA41M4RGIMO9VOQ2SU","A1F8MH33EFT5VQ","3L1EFR8WWTRIL5MKAR1UWRHK4IC9FJ","","514.6999999992549","img/food2.png","76","516.2000000029802","3","1","1","2","1,0.5,0,1,0.5,0,0.5,0,1","0.5,0,1,0.5,0,1,0,1,0.5","2","false",""
"","html-keyboard-response","251","297915","0.0-281.0","3TAYZSBPLMUIBA41M4RGIMO9VOQ2SU","A1F8MH33EFT5VQ","3L1EFR8WWTRIL5MKAR1UWRHK4IC9FJ","","null","<img src=""img/food2.png"" style=""width:200px; border:14px solid green;"">","null","","","","","","","","","",""
"","image-keyboard-response","252","298277","0.0-283.0","3TAYZSBPLMUIBA41M4RGIMO9VOQ2SU","A1F8MH33EFT5VQ","3L1EFR8WWTRIL5MKAR1UWRHK4IC9FJ","","359.5","img/food2.png","76","360.69999999925494","3","1","1","2","1,0.5,0,1,0.5,0,0.5,0,1","0.5,0,1,0.5,0,1,0,1,0.5","2","false",""
"","html-keyboard-response","253","298578","0.0-284.0","3TAYZSBPLMUIBA41M4RGIMO9VOQ2SU","A1F8MH33EFT5VQ","3L1EFR8WWTRIL5MKAR1UWRHK4IC9FJ","","null","<img src=""img/food2.png"" style=""width:200px; border:14px solid green;"">","null","","","","","","","","","",""
"","image-keyboard-response","254","299150","0.0-286.0","3TAYZSBPLMUIBA41M4RGIMO9VOQ2SU","A1F8MH33EFT5VQ","3L1EFR8WWTRIL5MKAR1UWRHK4IC9FJ","","570.1999999992549","img/food5.png","75","571.5","2","1","3","2","1,0.5,0,1,0.5,0,0.5,0,1","0.5,0,1,0.5,0,1,0,1,0.5","2","false",""
"","html-keyboard-response","255","299464","0.0-287.0","3TAYZSBPLMUIBA41M4RGIMO9VOQ2SU","A1F8MH33EFT5VQ","3L1EFR8WWTRIL5MKAR1UWRHK4IC9FJ","","null","<img src=""img/food5.png"" style=""width:200px; border:14px solid green;"">","null","","","","","","","","","",""
"","image-keyboard-response","256","299995","0.0-289.0","3TAYZSBPLMUIBA41M4RGIMO9VOQ2SU","A1F8MH33EFT5VQ","3L1EFR8WWTRIL5MKAR1UWRHK4IC9FJ","","528.9000000022352","img/food2.png","76","530.1000000014901","3","1","1","2","1,0.5,0,1,0.5,0,0.5,0,1","0.5,0,1,0.5,0,1,0,1,0.5","2","false",""
"","html-keyboard-response","257","300297","0.0-290.0","3TAYZSBPLMUIBA41M4RGIMO9VOQ2SU","A1F8MH33EFT5VQ","3L1EFR8WWTRIL5MKAR1UWRHK4IC9FJ","","null","<img src=""img/food2.png"" style=""width:200px; border:14px solid green;"">","null","","","","","","","","","",""
"","image-keyboard-response","258","300654","0.0-292.0","3TAYZSBPLMUIBA41M4RGIMO9VOQ2SU","A1F8MH33EFT5VQ","3L1EFR8WWTRIL5MKAR1UWRHK4IC9FJ","","354.5999999977648","img/food2.png","76","356","3","1","1","2","1,0.5,0,1,0.5,0,0.5,0,1","0.5,0,1,0.5,0,1,0,1,0.5","2","false",""
"","html-keyboard-response","259","300956","0.0-293.0","3TAYZSBPLMUIBA41M4RGIMO9VOQ2SU","A1F8MH33EFT5VQ","3L1EFR8WWTRIL5MKAR1UWRHK4IC9FJ","","null","<img src=""img/food2.png"" style=""width:200px; border:14px solid green;"">","null","","","","","","","","","",""
"","image-keyboard-response","260","301718","0.0-295.0","3TAYZSBPLMUIBA41M4RGIMO9VOQ2SU","A1F8MH33EFT5VQ","3L1EFR8WWTRIL5MKAR1UWRHK4IC9FJ","","760.0999999977648","img/food3.png","74","761.5","1","1","2","2","1,0.5,0,1,0.5,0,0.5,0,1","0.5,0,1,0.5,0,1,0,1,0.5","2","false",""
"","html-keyboard-response","261","302019","0.0-296.0","3TAYZSBPLMUIBA41M4RGIMO9VOQ2SU","A1F8MH33EFT5VQ","3L1EFR8WWTRIL5MKAR1UWRHK4IC9FJ","","null","<img src=""img/food3.png"" style=""width:200px; border:14px solid green;"">","null","","","","","","","","","",""
"","image-keyboard-response","262","302421","0.0-298.0","3TAYZSBPLMUIBA41M4RGIMO9VOQ2SU","A1F8MH33EFT5VQ","3L1EFR8WWTRIL5MKAR1UWRHK4IC9FJ","","399","img/food3.png","74","400.20000000298023","1","1","2","2","1,0.5,0,1,0.5,0,0.5,0,1","0.5,0,1,0.5,0,1,0,1,0.5","2","false",""
"","html-keyboard-response","263","302723","0.0-299.0","3TAYZSBPLMUIBA41M4RGIMO9VOQ2SU","A1F8MH33EFT5VQ","3L1EFR8WWTRIL5MKAR1UWRHK4IC9FJ","","null","<img src=""img/food3.png"" style=""width:200px; border:14px solid green;"">","null","","","","","","","","","",""
"","image-keyboard-response","264","303096","0.0-301.0","3TAYZSBPLMUIBA41M4RGIMO9VOQ2SU","A1F8MH33EFT5VQ","3L1EFR8WWTRIL5MKAR1UWRHK4IC9FJ","","371.3999999985099","img/food3.png","74","373","1","0","2","2","1,0.5,0,1,0.5,0,0.5,0,1","0.5,0,1,0.5,0,1,0,1,0.5","2","false",""
"","html-keyboard-response","265","303399","0.0-302.0","3TAYZSBPLMUIBA41M4RGIMO9VOQ2SU","A1F8MH33EFT5VQ","3L1EFR8WWTRIL5MKAR1UWRHK4IC9FJ","","null","<img src=""img/food3.png"" style=""width:200px;border:14px solid red;"">","null","","","","","","","","","",""
"","image-keyboard-response","266","303800","0.0-304.0","3TAYZSBPLMUIBA41M4RGIMO9VOQ2SU","A1F8MH33EFT5VQ","3L1EFR8WWTRIL5MKAR1UWRHK4IC9FJ","","399.19999999925494","img/food2.png","75","400.5999999977648","2","0","1","2","1,0.5,0,1,0.5,0,0.5,0,1","0.5,0,1,0.5,0,1,0,1,0.5","2","false",""
"","html-keyboard-response","267","304102","0.0-305.0","3TAYZSBPLMUIBA41M4RGIMO9VOQ2SU","A1F8MH33EFT5VQ","3L1EFR8WWTRIL5MKAR1UWRHK4IC9FJ","","null","<img src=""img/food2.png"" style=""width:200px;border:14px solid red;"">","null","","","","","","","","","",""
"","image-keyboard-response","268","304754","0.0-307.0","3TAYZSBPLMUIBA41M4RGIMO9VOQ2SU","A1F8MH33EFT5VQ","3L1EFR8WWTRIL5MKAR1UWRHK4IC9FJ","","650.3999999985099","img/food5.png","75","651.6999999992549","2","1","3","2","1,0.5,0,1,0.5,0,0.5,0,1","0.5,0,1,0.5,0,1,0,1,0.5","2","false",""
"","html-keyboard-response","269","305056","0.0-308.0","3TAYZSBPLMUIBA41M4RGIMO9VOQ2SU","A1F8MH33EFT5VQ","3L1EFR8WWTRIL5MKAR1UWRHK4IC9FJ","","null","<img src=""img/food5.png"" style=""width:200px; border:14px solid green;"">","null","","","","","","","","","",""
"","image-keyboard-response","270","305454","0.0-310.0","3TAYZSBPLMUIBA41M4RGIMO9VOQ2SU","A1F8MH33EFT5VQ","3L1EFR8WWTRIL5MKAR1UWRHK4IC9FJ","","395.6000000014901","img/food5.png","75","397","2","1","3","2","1,0.5,0,1,0.5,0,0.5,0,1","0.5,0,1,0.5,0,1,0,1,0.5","2","false",""
"","html-keyboard-response","271","305756","0.0-311.0","3TAYZSBPLMUIBA41M4RGIMO9VOQ2SU","A1F8MH33EFT5VQ","3L1EFR8WWTRIL5MKAR1UWRHK4IC9FJ","","null","<img src=""img/food5.png"" style=""width:200px; border:14px solid green;"">","null","","","","","","","","","",""
"","image-keyboard-response","272","306158","0.0-313.0","3TAYZSBPLMUIBA41M4RGIMO9VOQ2SU","A1F8MH33EFT5VQ","3L1EFR8WWTRIL5MKAR1UWRHK4IC9FJ","","401","img/food2.png","76","402.1000000014901","3","1","1","2","1,0.5,0,1,0.5,0,0.5,0,1","0.5,0,1,0.5,0,1,0,1,0.5","2","false",""
"","html-keyboard-response","273","306461","0.0-314.0","3TAYZSBPLMUIBA41M4RGIMO9VOQ2SU","A1F8MH33EFT5VQ","3L1EFR8WWTRIL5MKAR1UWRHK4IC9FJ","","null","<img src=""img/food2.png"" style=""width:200px; border:14px solid green;"">","null","","","","","","","","","",""
"","image-keyboard-response","274","307120","0.0-316.0","3TAYZSBPLMUIBA41M4RGIMO9VOQ2SU","A1F8MH33EFT5VQ","3L1EFR8WWTRIL5MKAR1UWRHK4IC9FJ","","657.3999999985099","img/food5.png","75","658.6000000014901","2","1","3","2","1,0.5,0,1,0.5,0,0.5,0,1","0.5,0,1,0.5,0,1,0,1,0.5","2","false",""
"","html-keyboard-response","275","307422","0.0-317.0","3TAYZSBPLMUIBA41M4RGIMO9VOQ2SU","A1F8MH33EFT5VQ","3L1EFR8WWTRIL5MKAR1UWRHK4IC9FJ","","null","<img src=""img/food5.png"" style=""width:200px; border:14px solid green;"">","null","","","","","","","","","",""
"","image-keyboard-response","276","307866","0.0-319.0","3TAYZSBPLMUIBA41M4RGIMO9VOQ2SU","A1F8MH33EFT5VQ","3L1EFR8WWTRIL5MKAR1UWRHK4IC9FJ","","442.5","img/food5.png","75","443.9000000022352","2","1","3","2","1,0.5,0,1,0.5,0,0.5,0,1","0.5,0,1,0.5,0,1,0,1,0.5","2","false",""
"","html-keyboard-response","277","308168","0.0-320.0","3TAYZSBPLMUIBA41M4RGIMO9VOQ2SU","A1F8MH33EFT5VQ","3L1EFR8WWTRIL5MKAR1UWRHK4IC9FJ","","null","<img src=""img/food5.png"" style=""width:200px; border:14px solid green;"">","null","","","","","","","","","",""
"","image-keyboard-response","278","308569","0.0-322.0","3TAYZSBPLMUIBA41M4RGIMO9VOQ2SU","A1F8MH33EFT5VQ","3L1EFR8WWTRIL5MKAR1UWRHK4IC9FJ","","399.9000000022352","img/food3.png","76","401.30000000074506","3","1","2","2","1,0.5,0,1,0.5,0,0.5,0,1","0.5,0,1,0.5,0,1,0,1,0.5","2","false",""
"","html-keyboard-response","279","308872","0.0-323.0","3TAYZSBPLMUIBA41M4RGIMO9VOQ2SU","A1F8MH33EFT5VQ","3L1EFR8WWTRIL5MKAR1UWRHK4IC9FJ","","null","<img src=""img/food3.png"" style=""width:200px; border:14px solid green;"">","null","","","","","","","","","",""
"","image-keyboard-response","280","309404","0.0-325.0","3TAYZSBPLMUIBA41M4RGIMO9VOQ2SU","A1F8MH33EFT5VQ","3L1EFR8WWTRIL5MKAR1UWRHK4IC9FJ","","530.1000000014901","img/food5.png","76","531.5","3","1","3","2","1,0.5,0,1,0.5,0,0.5,0,1","0.5,0,1,0.5,0,1,0,1,0.5","2","false",""
"","html-keyboard-response","281","309706","0.0-326.0","3TAYZSBPLMUIBA41M4RGIMO9VOQ2SU","A1F8MH33EFT5VQ","3L1EFR8WWTRIL5MKAR1UWRHK4IC9FJ","","null","<img src=""img/food5.png"" style=""width:200px; border:14px solid green;"">","null","","","","","","","","","",""
"","image-keyboard-response","282","310038","0.0-328.0","3TAYZSBPLMUIBA41M4RGIMO9VOQ2SU","A1F8MH33EFT5VQ","3L1EFR8WWTRIL5MKAR1UWRHK4IC9FJ","","329.80000000074506","img/food2.png","75","331.0999999977648","2","0","1","2","1,0.5,0,1,0.5,0,0.5,0,1","0.5,0,1,0.5,0,1,0,1,0.5","2","false",""
"","html-keyboard-response","283","310340","0.0-329.0","3TAYZSBPLMUIBA41M4RGIMO9VOQ2SU","A1F8MH33EFT5VQ","3L1EFR8WWTRIL5MKAR1UWRHK4IC9FJ","","null","<img src=""img/food2.png"" style=""width:200px;border:14px solid red;"">","null","","","","","","","","","",""
"","image-keyboard-response","284","310782","0.0-331.0","3TAYZSBPLMUIBA41M4RGIMO9VOQ2SU","A1F8MH33EFT5VQ","3L1EFR8WWTRIL5MKAR1UWRHK4IC9FJ","","439.5999999977648","img/food2.png","76","440.8999999985099","3","1","1","2","1,0.5,0,1,0.5,0,0.5,0,1","0.5,0,1,0.5,0,1,0,1,0.5","2","false",""
"","html-keyboard-response","285","311084","0.0-332.0","3TAYZSBPLMUIBA41M4RGIMO9VOQ2SU","A1F8MH33EFT5VQ","3L1EFR8WWTRIL5MKAR1UWRHK4IC9FJ","","null","<img src=""img/food2.png"" style=""width:200px; border:14px solid green;"">","null","","","","","","","","","",""
"","image-keyboard-response","286","311676","0.0-334.0","3TAYZSBPLMUIBA41M4RGIMO9VOQ2SU","A1F8MH33EFT5VQ","3L1EFR8WWTRIL5MKAR1UWRHK4IC9FJ","","590.0999999977648","img/food5.png","75","591.3999999985099","2","1","3","2","1,0.5,0,1,0.5,0,0.5,0,1","0.5,0,1,0.5,0,1,0,1,0.5","2","false",""
"","html-keyboard-response","287","311979","0.0-335.0","3TAYZSBPLMUIBA41M4RGIMO9VOQ2SU","A1F8MH33EFT5VQ","3L1EFR8WWTRIL5MKAR1UWRHK4IC9FJ","","null","<img src=""img/food5.png"" style=""width:200px; border:14px solid green;"">","null","","","","","","","","","",""
"","image-keyboard-response","288","312300","0.0-337.0","3TAYZSBPLMUIBA41M4RGIMO9VOQ2SU","A1F8MH33EFT5VQ","3L1EFR8WWTRIL5MKAR1UWRHK4IC9FJ","","318.5","img/food5.png","75","319.69999999925494","2","1","3","2","1,0.5,0,1,0.5,0,0.5,0,1","0.5,0,1,0.5,0,1,0,1,0.5","2","false",""
"","html-keyboard-response","289","312602","0.0-338.0","3TAYZSBPLMUIBA41M4RGIMO9VOQ2SU","A1F8MH33EFT5VQ","3L1EFR8WWTRIL5MKAR1UWRHK4IC9FJ","","null","<img src=""img/food5.png"" style=""width:200px; border:14px solid green;"">","null","","","","","","","","","",""
"","image-keyboard-response","290","313240","0.0-340.0","3TAYZSBPLMUIBA41M4RGIMO9VOQ2SU","A1F8MH33EFT5VQ","3L1EFR8WWTRIL5MKAR1UWRHK4IC9FJ","","635.1000000014901","img/food2.png","76","636.8999999985099","3","1","1","2","1,0.5,0,1,0.5,0,0.5,0,1","0.5,0,1,0.5,0,1,0,1,0.5","2","false",""
"","html-keyboard-response","291","313542","0.0-341.0","3TAYZSBPLMUIBA41M4RGIMO9VOQ2SU","A1F8MH33EFT5VQ","3L1EFR8WWTRIL5MKAR1UWRHK4IC9FJ","","null","<img src=""img/food2.png"" style=""width:200px; border:14px solid green;"">","null","","","","","","","","","",""
"","image-keyboard-response","292","313789","0.0-343.0","3TAYZSBPLMUIBA41M4RGIMO9VOQ2SU","A1F8MH33EFT5VQ","3L1EFR8WWTRIL5MKAR1UWRHK4IC9FJ","","245.09999999776483","img/food3.png","76","246.29999999701977","3","1","2","2","1,0.5,0,1,0.5,0,0.5,0,1","0.5,0,1,0.5,0,1,0,1,0.5","2","false",""
"","html-keyboard-response","293","314091","0.0-344.0","3TAYZSBPLMUIBA41M4RGIMO9VOQ2SU","A1F8MH33EFT5VQ","3L1EFR8WWTRIL5MKAR1UWRHK4IC9FJ","","null","<img src=""img/food3.png"" style=""width:200px; border:14px solid green;"">","null","","","","","","","","","",""
"","image-keyboard-response","294","314697","0.0-346.0","3TAYZSBPLMUIBA41M4RGIMO9VOQ2SU","A1F8MH33EFT5VQ","3L1EFR8WWTRIL5MKAR1UWRHK4IC9FJ","","604.3999999985099","img/food5.png","75","605.3999999985099","2","1","3","2","1,0.5,0,1,0.5,0,0.5,0,1","0.5,0,1,0.5,0,1,0,1,0.5","2","false",""
"","html-keyboard-response","295","315000","0.0-347.0","3TAYZSBPLMUIBA41M4RGIMO9VOQ2SU","A1F8MH33EFT5VQ","3L1EFR8WWTRIL5MKAR1UWRHK4IC9FJ","","null","<img src=""img/food5.png"" style=""width:200px; border:14px solid green;"">","null","","","","","","","","","",""
"","image-keyboard-response","296","315427","0.0-349.0","3TAYZSBPLMUIBA41M4RGIMO9VOQ2SU","A1F8MH33EFT5VQ","3L1EFR8WWTRIL5MKAR1UWRHK4IC9FJ","","424.8999999985099","img/food3.png","75","426.3999999985099","2","0","2","2","1,0.5,0,1,0.5,0,0.5,0,1","0.5,0,1,0.5,0,1,0,1,0.5","2","false",""
"","html-keyboard-response","297","315729","0.0-350.0","3TAYZSBPLMUIBA41M4RGIMO9VOQ2SU","A1F8MH33EFT5VQ","3L1EFR8WWTRIL5MKAR1UWRHK4IC9FJ","","null","<img src=""img/food3.png"" style=""width:200px;border:14px solid red;"">","null","","","","","","","","","",""
"","image-keyboard-response","298","316426","0.0-352.0","3TAYZSBPLMUIBA41M4RGIMO9VOQ2SU","A1F8MH33EFT5VQ","3L1EFR8WWTRIL5MKAR1UWRHK4IC9FJ","","695.1999999992549","img/food3.png","74","696.6000000014901","1","1","2","2","1,0.5,0,1,0.5,0,0.5,0,1","0.5,0,1,0.5,0,1,0,1,0.5","2","false",""
"","html-keyboard-response","299","316728","0.0-353.0","3TAYZSBPLMUIBA41M4RGIMO9VOQ2SU","A1F8MH33EFT5VQ","3L1EFR8WWTRIL5MKAR1UWRHK4IC9FJ","","null","<img src=""img/food3.png"" style=""width:200px; border:14px solid green;"">","null","","","","","","","","","",""
"","image-keyboard-response","300","317334","0.0-355.0","3TAYZSBPLMUIBA41M4RGIMO9VOQ2SU","A1F8MH33EFT5VQ","3L1EFR8WWTRIL5MKAR1UWRHK4IC9FJ","","604.0999999977648","img/food2.png","76","605.3999999985099","3","1","1","2","1,0.5,0,1,0.5,0,0.5,0,1","0.5,0,1,0.5,0,1,0,1,0.5","2","false",""
"","html-keyboard-response","301","317645","0.0-356.0","3TAYZSBPLMUIBA41M4RGIMO9VOQ2SU","A1F8MH33EFT5VQ","3L1EFR8WWTRIL5MKAR1UWRHK4IC9FJ","","null","<img src=""img/food2.png"" style=""width:200px; border:14px solid green;"">","null","","","","","","","","","",""
"","image-keyboard-response","302","318289","0.0-358.0","3TAYZSBPLMUIBA41M4RGIMO9VOQ2SU","A1F8MH33EFT5VQ","3L1EFR8WWTRIL5MKAR1UWRHK4IC9FJ","","642.3999999985099","img/food3.png","74","643.3999999985099","1","1","2","2","1,0.5,0,1,0.5,0,0.5,0,1","0.5,0,1,0.5,0,1,0,1,0.5","2","false",""
"","html-keyboard-response","303","318591","0.0-359.0","3TAYZSBPLMUIBA41M4RGIMO9VOQ2SU","A1F8MH33EFT5VQ","3L1EFR8WWTRIL5MKAR1UWRHK4IC9FJ","","null","<img src=""img/food3.png"" style=""width:200px; border:14px solid green;"">","null","","","","","","","","","",""
"","image-keyboard-response","304","319038","0.0-361.0","3TAYZSBPLMUIBA41M4RGIMO9VOQ2SU","A1F8MH33EFT5VQ","3L1EFR8WWTRIL5MKAR1UWRHK4IC9FJ","","444.8999999985099","img/food3.png","76","446.19999999925494","3","1","2","2","1,0.5,0,1,0.5,0,0.5,0,1","0.5,0,1,0.5,0,1,0,1,0.5","2","false",""
"","html-keyboard-response","305","319340","0.0-362.0","3TAYZSBPLMUIBA41M4RGIMO9VOQ2SU","A1F8MH33EFT5VQ","3L1EFR8WWTRIL5MKAR1UWRHK4IC9FJ","","null","<img src=""img/food3.png"" style=""width:200px; border:14px solid green;"">","null","","","","","","","","","",""
"","image-keyboard-response","306","320023","0.0-364.0","3TAYZSBPLMUIBA41M4RGIMO9VOQ2SU","A1F8MH33EFT5VQ","3L1EFR8WWTRIL5MKAR1UWRHK4IC9FJ","","682.5","img/food2.png","76","683.3999999985099","3","1","1","2","1,0.5,0,1,0.5,0,0.5,0,1","0.5,0,1,0.5,0,1,0,1,0.5","2","false",""
"","html-keyboard-response","307","320325","0.0-365.0","3TAYZSBPLMUIBA41M4RGIMO9VOQ2SU","A1F8MH33EFT5VQ","3L1EFR8WWTRIL5MKAR1UWRHK4IC9FJ","","null","<img src=""img/food2.png"" style=""width:200px; border:14px solid green;"">","null","","","","","","","","","",""
"","image-keyboard-response","308","320890","0.0-367.0","3TAYZSBPLMUIBA41M4RGIMO9VOQ2SU","A1F8MH33EFT5VQ","3L1EFR8WWTRIL5MKAR1UWRHK4IC9FJ","","562.6999999992549","img/food5.png","75","564.1999999992549","2","1","3","2","1,0.5,0,1,0.5,0,0.5,0,1","0.5,0,1,0.5,0,1,0,1,0.5","2","false",""
"","html-keyboard-response","309","321192","0.0-368.0","3TAYZSBPLMUIBA41M4RGIMO9VOQ2SU","A1F8MH33EFT5VQ","3L1EFR8WWTRIL5MKAR1UWRHK4IC9FJ","","null","<img src=""img/food5.png"" style=""width:200px; border:14px solid green;"">","null","","","","","","","","","",""
"","image-keyboard-response","310","321689","0.0-370.0","3TAYZSBPLMUIBA41M4RGIMO9VOQ2SU","A1F8MH33EFT5VQ","3L1EFR8WWTRIL5MKAR1UWRHK4IC9FJ","","494.70000000298023","img/food5.png","75","496.5","2","1","3","2","1,0.5,0,1,0.5,0,0.5,0,1","0.5,0,1,0.5,0,1,0,1,0.5","2","false",""
"","html-keyboard-response","311","321992","0.0-371.0","3TAYZSBPLMUIBA41M4RGIMO9VOQ2SU","A1F8MH33EFT5VQ","3L1EFR8WWTRIL5MKAR1UWRHK4IC9FJ","","null","<img src=""img/food5.png"" style=""width:200px; border:14px solid green;"">","null","","","","","","","","","",""
"","image-keyboard-response","312","322439","0.0-373.0","3TAYZSBPLMUIBA41M4RGIMO9VOQ2SU","A1F8MH33EFT5VQ","3L1EFR8WWTRIL5MKAR1UWRHK4IC9FJ","","445.20000000298023","img/food5.png","75","446.80000000074506","2","1","3","2","1,0.5,0,1,0.5,0,0.5,0,1","0.5,0,1,0.5,0,1,0,1,0.5","2","false",""
"","html-keyboard-response","313","322742","0.0-374.0","3TAYZSBPLMUIBA41M4RGIMO9VOQ2SU","A1F8MH33EFT5VQ","3L1EFR8WWTRIL5MKAR1UWRHK4IC9FJ","","null","<img src=""img/food5.png"" style=""width:200px; border:14px solid green;"">","null","","","","","","","","","",""
"","image-keyboard-response","314","323083","0.0-376.0","3TAYZSBPLMUIBA41M4RGIMO9VOQ2SU","A1F8MH33EFT5VQ","3L1EFR8WWTRIL5MKAR1UWRHK4IC9FJ","","339.4000000022352","img/food5.png","75","340.80000000074506","2","1","3","2","1,0.5,0,1,0.5,0,0.5,0,1","0.5,0,1,0.5,0,1,0,1,0.5","2","false",""
"","html-keyboard-response","315","323395","0.0-377.0","3TAYZSBPLMUIBA41M4RGIMO9VOQ2SU","A1F8MH33EFT5VQ","3L1EFR8WWTRIL5MKAR1UWRHK4IC9FJ","","null","<img src=""img/food5.png"" style=""width:200px; border:14px solid green;"">","null","","","","","","","","","",""
"","image-keyboard-response","316","323782","0.0-379.0","3TAYZSBPLMUIBA41M4RGIMO9VOQ2SU","A1F8MH33EFT5VQ","3L1EFR8WWTRIL5MKAR1UWRHK4IC9FJ","","385.6000000014901","img/food5.png","75","387","2","1","3","2","1,0.5,0,1,0.5,0,0.5,0,1","0.5,0,1,0.5,0,1,0,1,0.5","2","false",""
"","html-keyboard-response","317","324085","0.0-380.0","3TAYZSBPLMUIBA41M4RGIMO9VOQ2SU","A1F8MH33EFT5VQ","3L1EFR8WWTRIL5MKAR1UWRHK4IC9FJ","","null","<img src=""img/food5.png"" style=""width:200px; border:14px solid green;"">","null","","","","","","","","","",""
"","image-keyboard-response","318","324870","0.0-382.0","3TAYZSBPLMUIBA41M4RGIMO9VOQ2SU","A1F8MH33EFT5VQ","3L1EFR8WWTRIL5MKAR1UWRHK4IC9FJ","","783.7999999970198","img/food3.png","74","784.5","1","1","2","2","1,0.5,0,1,0.5,0,0.5,0,1","0.5,0,1,0.5,0,1,0,1,0.5","2","false",""
"","html-keyboard-response","319","325171","0.0-383.0","3TAYZSBPLMUIBA41M4RGIMO9VOQ2SU","A1F8MH33EFT5VQ","3L1EFR8WWTRIL5MKAR1UWRHK4IC9FJ","","null","<img src=""img/food3.png"" style=""width:200px; border:14px solid green;"">","null","","","","","","","","","",""
"","image-keyboard-response","320","325495","0.0-385.0","3TAYZSBPLMUIBA41M4RGIMO9VOQ2SU","A1F8MH33EFT5VQ","3L1EFR8WWTRIL5MKAR1UWRHK4IC9FJ","","322","img/food3.png","74","323.29999999701977","1","0","2","2","1,0.5,0,1,0.5,0,0.5,0,1","0.5,0,1,0.5,0,1,0,1,0.5","2","false",""
"","html-keyboard-response","321","325798","0.0-386.0","3TAYZSBPLMUIBA41M4RGIMO9VOQ2SU","A1F8MH33EFT5VQ","3L1EFR8WWTRIL5MKAR1UWRHK4IC9FJ","","null","<img src=""img/food3.png"" style=""width:200px;border:14px solid red;"">","null","","","","","","","","","",""
"","image-keyboard-response","322","326335","0.0-388.0","3TAYZSBPLMUIBA41M4RGIMO9VOQ2SU","A1F8MH33EFT5VQ","3L1EFR8WWTRIL5MKAR1UWRHK4IC9FJ","","534.6999999992549","img/food2.png","76","536.1999999992549","3","1","1","2","1,0.5,0,1,0.5,0,0.5,0,1","0.5,0,1,0.5,0,1,0,1,0.5","2","false",""
"","html-keyboard-response","323","326636","0.0-389.0","3TAYZSBPLMUIBA41M4RGIMO9VOQ2SU","A1F8MH33EFT5VQ","3L1EFR8WWTRIL5MKAR1UWRHK4IC9FJ","","null","<img src=""img/food2.png"" style=""width:200px; border:14px solid green;"">","null","","","","","","","","","",""
"","image-keyboard-response","324","326974","0.0-391.0","3TAYZSBPLMUIBA41M4RGIMO9VOQ2SU","A1F8MH33EFT5VQ","3L1EFR8WWTRIL5MKAR1UWRHK4IC9FJ","","335.30000000074506","img/food2.png","76","336.79999999701977","3","1","1","2","1,0.5,0,1,0.5,0,0.5,0,1","0.5,0,1,0.5,0,1,0,1,0.5","2","false",""
"","html-keyboard-response","325","327276","0.0-392.0","3TAYZSBPLMUIBA41M4RGIMO9VOQ2SU","A1F8MH33EFT5VQ","3L1EFR8WWTRIL5MKAR1UWRHK4IC9FJ","","null","<img src=""img/food2.png"" style=""width:200px; border:14px solid green;"">","null","","","","","","","","","",""
"","image-keyboard-response","326","327723","0.0-394.0","3TAYZSBPLMUIBA41M4RGIMO9VOQ2SU","A1F8MH33EFT5VQ","3L1EFR8WWTRIL5MKAR1UWRHK4IC9FJ","","444.8999999985099","img/food5.png","74","446.19999999925494","1","0","3","2","1,0.5,0,1,0.5,0,0.5,0,1","0.5,0,1,0.5,0,1,0,1,0.5","2","false",""
"","html-keyboard-response","327","328039","0.0-395.0","3TAYZSBPLMUIBA41M4RGIMO9VOQ2SU","A1F8MH33EFT5VQ","3L1EFR8WWTRIL5MKAR1UWRHK4IC9FJ","","null","<img src=""img/food5.png"" style=""width:200px;border:14px solid red;"">","null","","","","","","","","","",""
"","image-keyboard-response","328","328686","0.0-397.0","3TAYZSBPLMUIBA41M4RGIMO9VOQ2SU","A1F8MH33EFT5VQ","3L1EFR8WWTRIL5MKAR1UWRHK4IC9FJ","","645.5999999977648","img/food3.png","74","646.8999999985099","1","1","2","2","1,0.5,0,1,0.5,0,0.5,0,1","0.5,0,1,0.5,0,1,0,1,0.5","2","false",""
"","html-keyboard-response","329","328989","0.0-398.0","3TAYZSBPLMUIBA41M4RGIMO9VOQ2SU","A1F8MH33EFT5VQ","3L1EFR8WWTRIL5MKAR1UWRHK4IC9FJ","","null","<img src=""img/food3.png"" style=""width:200px; border:14px solid green;"">","null","","","","","","","","","",""
"","image-keyboard-response","330","329336","0.0-400.0","3TAYZSBPLMUIBA41M4RGIMO9VOQ2SU","A1F8MH33EFT5VQ","3L1EFR8WWTRIL5MKAR1UWRHK4IC9FJ","","345.5999999977648","img/food3.png","74","347.1000000014901","1","1","2","2","1,0.5,0,1,0.5,0,0.5,0,1","0.5,0,1,0.5,0,1,0,1,0.5","2","false",""
"","html-keyboard-response","331","329639","0.0-401.0","3TAYZSBPLMUIBA41M4RGIMO9VOQ2SU","A1F8MH33EFT5VQ","3L1EFR8WWTRIL5MKAR1UWRHK4IC9FJ","","null","<img src=""img/food3.png"" style=""width:200px; border:14px solid green;"">","null","","","","","","","","","",""
"","image-keyboard-response","332","330235","0.0-403.0","3TAYZSBPLMUIBA41M4RGIMO9VOQ2SU","A1F8MH33EFT5VQ","3L1EFR8WWTRIL5MKAR1UWRHK4IC9FJ","","594.5","img/food2.png","76","595.8000000007451","3","1","1","2","1,0.5,0,1,0.5,0,0.5,0,1","0.5,0,1,0.5,0,1,0,1,0.5","2","false",""
"","html-keyboard-response","333","330538","0.0-404.0","3TAYZSBPLMUIBA41M4RGIMO9VOQ2SU","A1F8MH33EFT5VQ","3L1EFR8WWTRIL5MKAR1UWRHK4IC9FJ","","null","<img src=""img/food2.png"" style=""width:200px; border:14px solid green;"">","null","","","","","","","","","",""
"","image-keyboard-response","334","330879","0.0-406.0","3TAYZSBPLMUIBA41M4RGIMO9VOQ2SU","A1F8MH33EFT5VQ","3L1EFR8WWTRIL5MKAR1UWRHK4IC9FJ","","339.5","img/food2.png","76","341","3","1","1","2","1,0.5,0,1,0.5,0,0.5,0,1","0.5,0,1,0.5,0,1,0,1,0.5","2","false",""
"","html-keyboard-response","335","331182","0.0-407.0","3TAYZSBPLMUIBA41M4RGIMO9VOQ2SU","A1F8MH33EFT5VQ","3L1EFR8WWTRIL5MKAR1UWRHK4IC9FJ","","null","<img src=""img/food2.png"" style=""width:200px; border:14px solid green;"">","null","","","","","","","","","",""
"","image-keyboard-response","336","331798","0.0-409.0","3TAYZSBPLMUIBA41M4RGIMO9VOQ2SU","A1F8MH33EFT5VQ","3L1EFR8WWTRIL5MKAR1UWRHK4IC9FJ","","614.1999999992549","img/food3.png","74","615.6000000014901","1","1","2","2","1,0.5,0,1,0.5,0,0.5,0,1","0.5,0,1,0.5,0,1,0,1,0.5","2","false",""
"","html-keyboard-response","337","332100","0.0-410.0","3TAYZSBPLMUIBA41M4RGIMO9VOQ2SU","A1F8MH33EFT5VQ","3L1EFR8WWTRIL5MKAR1UWRHK4IC9FJ","","null","<img src=""img/food3.png"" style=""width:200px; border:14px solid green;"">","null","","","","","","","","","",""
"","image-keyboard-response","338","332607","0.0-412.0","3TAYZSBPLMUIBA41M4RGIMO9VOQ2SU","A1F8MH33EFT5VQ","3L1EFR8WWTRIL5MKAR1UWRHK4IC9FJ","","505.1000000014901","img/food2.png","76","506.30000000074506","3","1","1","2","1,0.5,0,1,0.5,0,0.5,0,1","0.5,0,1,0.5,0,1,0,1,0.5","2","false",""
"","html-keyboard-response","339","332910","0.0-413.0","3TAYZSBPLMUIBA41M4RGIMO9VOQ2SU","A1F8MH33EFT5VQ","3L1EFR8WWTRIL5MKAR1UWRHK4IC9FJ","","null","<img src=""img/food2.png"" style=""width:200px; border:14px solid green;"">","null","","","","","","","","","",""
"","image-keyboard-response","340","333345","0.0-415.0","3TAYZSBPLMUIBA41M4RGIMO9VOQ2SU","A1F8MH33EFT5VQ","3L1EFR8WWTRIL5MKAR1UWRHK4IC9FJ","","432.80000000074506","img/food2.png","76","433.9000000022352","3","1","1","2","1,0.5,0,1,0.5,0,0.5,0,1","0.5,0,1,0.5,0,1,0,1,0.5","2","false",""
"","html-keyboard-response","341","333646","0.0-416.0","3TAYZSBPLMUIBA41M4RGIMO9VOQ2SU","A1F8MH33EFT5VQ","3L1EFR8WWTRIL5MKAR1UWRHK4IC9FJ","","null","<img src=""img/food2.png"" style=""width:200px; border:14px solid green;"">","null","","","","","","","","","",""
"","image-keyboard-response","342","334210","0.0-418.0","3TAYZSBPLMUIBA41M4RGIMO9VOQ2SU","A1F8MH33EFT5VQ","3L1EFR8WWTRIL5MKAR1UWRHK4IC9FJ","","561.9000000022352","img/food3.png","74","563.2999999970198","1","1","2","2","1,0.5,0,1,0.5,0,0.5,0,1","0.5,0,1,0.5,0,1,0,1,0.5","2","false",""
"","html-keyboard-response","343","334514","0.0-419.0","3TAYZSBPLMUIBA41M4RGIMO9VOQ2SU","A1F8MH33EFT5VQ","3L1EFR8WWTRIL5MKAR1UWRHK4IC9FJ","","null","<img src=""img/food3.png"" style=""width:200px; border:14px solid green;"">","null","","","","","","","","","",""
"","image-keyboard-response","344","334949","0.0-421.0","3TAYZSBPLMUIBA41M4RGIMO9VOQ2SU","A1F8MH33EFT5VQ","3L1EFR8WWTRIL5MKAR1UWRHK4IC9FJ","","433.6000000014901","img/food2.png","74","434.80000000074506","1","1","1","2","1,0.5,0,1,0.5,0,0.5,0,1","0.5,0,1,0.5,0,1,0,1,0.5","2","false",""
"","html-keyboard-response","345","335251","0.0-422.0","3TAYZSBPLMUIBA41M4RGIMO9VOQ2SU","A1F8MH33EFT5VQ","3L1EFR8WWTRIL5MKAR1UWRHK4IC9FJ","","null","<img src=""img/food2.png"" style=""width:200px; border:14px solid green;"">","null","","","","","","","","","",""
"","image-keyboard-response","346","335883","0.0-424.0","3TAYZSBPLMUIBA41M4RGIMO9VOQ2SU","A1F8MH33EFT5VQ","3L1EFR8WWTRIL5MKAR1UWRHK4IC9FJ","","629.6000000014901","img/food5.png","75","631.3000000007451","2","1","3","2","1,0.5,0,1,0.5,0,0.5,0,1","0.5,0,1,0.5,0,1,0,1,0.5","2","false",""
"","html-keyboard-response","347","336185","0.0-425.0","3TAYZSBPLMUIBA41M4RGIMO9VOQ2SU","A1F8MH33EFT5VQ","3L1EFR8WWTRIL5MKAR1UWRHK4IC9FJ","","null","<img src=""img/food5.png"" style=""width:200px; border:14px solid green;"">","null","","","","","","","","","",""
"","image-keyboard-response","348","336967","0.0-427.0","3TAYZSBPLMUIBA41M4RGIMO9VOQ2SU","A1F8MH33EFT5VQ","3L1EFR8WWTRIL5MKAR1UWRHK4IC9FJ","","779.8000000007451","img/food3.png","74","781.3000000007451","1","0","2","2","1,0.5,0,1,0.5,0,0.5,0,1","0.5,0,1,0.5,0,1,0,1,0.5","2","false",""
"","html-keyboard-response","349","337270","0.0-428.0","3TAYZSBPLMUIBA41M4RGIMO9VOQ2SU","A1F8MH33EFT5VQ","3L1EFR8WWTRIL5MKAR1UWRHK4IC9FJ","","null","<img src=""img/food3.png"" style=""width:200px;border:14px solid red;"">","null","","","","","","","","","",""
"","image-keyboard-response","350","337676","0.0-430.0","3TAYZSBPLMUIBA41M4RGIMO9VOQ2SU","A1F8MH33EFT5VQ","3L1EFR8WWTRIL5MKAR1UWRHK4IC9FJ","","403.69999999925494","img/food3.png","74","405","1","0","2","2","1,0.5,0,1,0.5,0,0.5,0,1","0.5,0,1,0.5,0,1,0,1,0.5","2","false",""
"","html-keyboard-response","351","337978","0.0-431.0","3TAYZSBPLMUIBA41M4RGIMO9VOQ2SU","A1F8MH33EFT5VQ","3L1EFR8WWTRIL5MKAR1UWRHK4IC9FJ","","null","<img src=""img/food3.png"" style=""width:200px;border:14px solid red;"">","null","","","","","","","","","",""
"","image-keyboard-response","352","338391","0.0-433.0","3TAYZSBPLMUIBA41M4RGIMO9VOQ2SU","A1F8MH33EFT5VQ","3L1EFR8WWTRIL5MKAR1UWRHK4IC9FJ","","410.6000000014901","img/food5.png","74","412","1","0","3","2","1,0.5,0,1,0.5,0,0.5,0,1","0.5,0,1,0.5,0,1,0,1,0.5","2","false",""
"","html-keyboard-response","353","338693","0.0-434.0","3TAYZSBPLMUIBA41M4RGIMO9VOQ2SU","A1F8MH33EFT5VQ","3L1EFR8WWTRIL5MKAR1UWRHK4IC9FJ","","null","<img src=""img/food5.png"" style=""width:200px;border:14px solid red;"">","null","","","","","","","","","",""
"","image-keyboard-response","354","339323","0.0-436.0","3TAYZSBPLMUIBA41M4RGIMO9VOQ2SU","A1F8MH33EFT5VQ","3L1EFR8WWTRIL5MKAR1UWRHK4IC9FJ","","628.1000000014901","img/food3.png","74","629.5","1","1","2","2","1,0.5,0,1,0.5,0,0.5,0,1","0.5,0,1,0.5,0,1,0,1,0.5","2","false",""
"","html-keyboard-response","355","339625","0.0-437.0","3TAYZSBPLMUIBA41M4RGIMO9VOQ2SU","A1F8MH33EFT5VQ","3L1EFR8WWTRIL5MKAR1UWRHK4IC9FJ","","null","<img src=""img/food3.png"" style=""width:200px; border:14px solid green;"">","null","","","","","","","","","",""
"","image-keyboard-response","356","340083","0.0-439.0","3TAYZSBPLMUIBA41M4RGIMO9VOQ2SU","A1F8MH33EFT5VQ","3L1EFR8WWTRIL5MKAR1UWRHK4IC9FJ","","456.19999999925494","img/food5.png","75","457.69999999925494","2","1","3","2","1,0.5,0,1,0.5,0,0.5,0,1","0.5,0,1,0.5,0,1,0,1,0.5","2","false",""
"","html-keyboard-response","357","340385","0.0-440.0","3TAYZSBPLMUIBA41M4RGIMO9VOQ2SU","A1F8MH33EFT5VQ","3L1EFR8WWTRIL5MKAR1UWRHK4IC9FJ","","null","<img src=""img/food5.png"" style=""width:200px; border:14px solid green;"">","null","","","","","","","","","",""
"","image-keyboard-response","358","340862","0.0-442.0","3TAYZSBPLMUIBA41M4RGIMO9VOQ2SU","A1F8MH33EFT5VQ","3L1EFR8WWTRIL5MKAR1UWRHK4IC9FJ","","475.6000000014901","img/food2.png","76","476.8999999985099","3","1","1","2","1,0.5,0,1,0.5,0,0.5,0,1","0.5,0,1,0.5,0,1,0,1,0.5","2","false",""
"","html-keyboard-response","359","341164","0.0-443.0","3TAYZSBPLMUIBA41M4RGIMO9VOQ2SU","A1F8MH33EFT5VQ","3L1EFR8WWTRIL5MKAR1UWRHK4IC9FJ","","null","<img src=""img/food2.png"" style=""width:200px; border:14px solid green;"">","null","","","","","","","","","",""
"","image-keyboard-response","360","341507","0.0-445.0","3TAYZSBPLMUIBA41M4RGIMO9VOQ2SU","A1F8MH33EFT5VQ","3L1EFR8WWTRIL5MKAR1UWRHK4IC9FJ","","341.1000000014901","img/food2.png","76","342.5999999977648","3","1","1","2","1,0.5,0,1,0.5,0,0.5,0,1","0.5,0,1,0.5,0,1,0,1,0.5","2","false",""
"","html-keyboard-response","361","341810","0.0-446.0","3TAYZSBPLMUIBA41M4RGIMO9VOQ2SU","A1F8MH33EFT5VQ","3L1EFR8WWTRIL5MKAR1UWRHK4IC9FJ","","null","<img src=""img/food2.png"" style=""width:200px; border:14px solid green;"">","null","","","","","","","","","",""
"","image-keyboard-response","362","342230","0.0-448.0","3TAYZSBPLMUIBA41M4RGIMO9VOQ2SU","A1F8MH33EFT5VQ","3L1EFR8WWTRIL5MKAR1UWRHK4IC9FJ","","418.3999999985099","img/food2.png","76","419.6000000014901","3","1","1","2","1,0.5,0,1,0.5,0,0.5,0,1","0.5,0,1,0.5,0,1,0,1,0.5","2","false",""
"","html-keyboard-response","363","342532","0.0-449.0","3TAYZSBPLMUIBA41M4RGIMO9VOQ2SU","A1F8MH33EFT5VQ","3L1EFR8WWTRIL5MKAR1UWRHK4IC9FJ","","null","<img src=""img/food2.png"" style=""width:200px; border:14px solid green;"">","null","","","","","","","","","",""
"","image-keyboard-response","364","343185","0.0-451.0","3TAYZSBPLMUIBA41M4RGIMO9VOQ2SU","A1F8MH33EFT5VQ","3L1EFR8WWTRIL5MKAR1UWRHK4IC9FJ","","650.3999999985099","img/food3.png","74","651.6999999992549","1","1","2","2","1,0.5,0,1,0.5,0,0.5,0,1","0.5,0,1,0.5,0,1,0,1,0.5","2","false",""
"","html-keyboard-response","365","343487","0.0-452.0","3TAYZSBPLMUIBA41M4RGIMO9VOQ2SU","A1F8MH33EFT5VQ","3L1EFR8WWTRIL5MKAR1UWRHK4IC9FJ","","null","<img src=""img/food3.png"" style=""width:200px; border:14px solid green;"">","null","","","","","","","","","",""
"","instructions","366","350440","0.0-454.0","3TAYZSBPLMUIBA41M4RGIMO9VOQ2SU","A1F8MH33EFT5VQ","3L1EFR8WWTRIL5MKAR1UWRHK4IC9FJ","[{""page_index"":0,""viewing_time"":6951.800000000745}]","6952","","","","","","","","","","","",""
"","survey-text","367","356889","0.0-455.0","3TAYZSBPLMUIBA41M4RGIMO9VOQ2SU","A1F8MH33EFT5VQ","3L1EFR8WWTRIL5MKAR1UWRHK4IC9FJ","","6444.89999999851","","","","","","","","","","","","{""Q0"":""A1F8MH33EFT5VQ""}"
