"success","trial_type","trial_index","time_elapsed","internal_node_id","assignmentID","mturkID","hitID","view_history","rt","stimulus","key_press","reactionTime","a","r","s","cond","reward_cond","reward_cond_actual","reward_matrix_idx","warning","responses"
"true","fullscreen","0","8726","0.0-0.0","3FFJ6VRIL2AMLMYR25TOVWP7PL10IZ","A1FKK1Q8C3BAE5","3HUR21WDDUBEMSLDIXZW1FAIHW8YX3","","","","","","","","","","","","","",""
"","instructions","1","15818","0.0-1.0","3FFJ6VRIL2AMLMYR25TOVWP7PL10IZ","A1FKK1Q8C3BAE5","3HUR21WDDUBEMSLDIXZW1FAIHW8YX3","[{""page_index"":0,""viewing_time"":1238},{""page_index"":1,""viewing_time"":775},{""page_index"":2,""viewing_time"":777},{""page_index"":3,""viewing_time"":1375},{""page_index"":4,""viewing_time"":1088},{""page_index"":5,""viewing_time"":952},{""page_index"":6,""viewing_time"":879}]","7085","","","","","","","","","","","",""
"","image-keyboard-response","2","17828","0.0-2.0","3FFJ6VRIL2AMLMYR25TOVWP7PL10IZ","A1FKK1Q8C3BAE5","3HUR21WDDUBEMSLDIXZW1FAIHW8YX3","","2004","img/food1.png","75","2009","2","0","3","1","1,0.5,0,1,0.5,0,0.5,0,1","1,0.5,0,1,0.5,0,0.5,0,1","1","",""
"","html-keyboard-response","3","18134","0.0-3.0","3FFJ6VRIL2AMLMYR25TOVWP7PL10IZ","A1FKK1Q8C3BAE5","3HUR21WDDUBEMSLDIXZW1FAIHW8YX3","","null","<img src=""img/food1.png"" style=""width:200px;border:14px solid red;"">","null","","","","","","","","","",""
"","image-keyboard-response","4","18276","0.0-4.0","3FFJ6VRIL2AMLMYR25TOVWP7PL10IZ","A1FKK1Q8C3BAE5","3HUR21WDDUBEMSLDIXZW1FAIHW8YX3","","140","img/food2.png","75","141","2","0","1","1","1,0.5,0,1,0.5,0,0.5,0,1","1,0.5,0,1,0.5,0,0.5,0,1","1","",""
"","html-keyboard-response","5","18583","0.0-5.0","3FFJ6VRIL2AMLMYR25TOVWP7PL10IZ","A1FKK1Q8C3BAE5","3HUR21WDDUBEMSLDIXZW1FAIHW8YX3","","null","<img src=""img/food2.png"" style=""width:200px;border:14px solid red;"">","null","","","","","","","","","",""
"","image-keyboard-response","6","19008","0.0-6.0","3FFJ6VRIL2AMLMYR25TOVWP7PL10IZ","A1FKK1Q8C3BAE5","3HUR21WDDUBEMSLDIXZW1FAIHW8YX3","","423","img/food1.png","76","426","3","1","3","1","1,0.5,0,1,0.5,0,0.5,0,1","1,0.5,0,1,0.5,0,0.5,0,1","1","",""
"","html-keyboard-response","7","19314","0.0-7.0","3FFJ6VRIL2AMLMYR25TOVWP7PL10IZ","A1FKK1Q8C3BAE5","3HUR21WDDUBEMSLDIXZW1FAIHW8YX3","","null","<img src=""img/food1.png"" style=""width:200px; border:14px solid green;"">","null","","","","","","","","","",""
"","image-keyboard-response","8","19607","0.0-8.0","3FFJ6VRIL2AMLMYR25TOVWP7PL10IZ","A1FKK1Q8C3BAE5","3HUR21WDDUBEMSLDIXZW1FAIHW8YX3","","289","img/food3.png","74","292","1","1","2","1","1,0.5,0,1,0.5,0,0.5,0,1","1,0.5,0,1,0.5,0,0.5,0,1","1","",""
"","html-keyboard-response","9","19937","0.0-9.0","3FFJ6VRIL2AMLMYR25TOVWP7PL10IZ","A1FKK1Q8C3BAE5","3HUR21WDDUBEMSLDIXZW1FAIHW8YX3","","null","<img src=""img/food3.png"" style=""width:200px; border:14px solid green;"">","null","","","","","","","","","",""
"","image-keyboard-response","10","20036","0.0-10.0","3FFJ6VRIL2AMLMYR25TOVWP7PL10IZ","A1FKK1Q8C3BAE5","3HUR21WDDUBEMSLDIXZW1FAIHW8YX3","","97","img/food2.png","76","98","3","0","1","1","1,0.5,0,1,0.5,0,0.5,0,1","1,0.5,0,1,0.5,0,0.5,0,1","1","",""
"","html-keyboard-response","11","20339","0.0-11.0","3FFJ6VRIL2AMLMYR25TOVWP7PL10IZ","A1FKK1Q8C3BAE5","3HUR21WDDUBEMSLDIXZW1FAIHW8YX3","","null","<img src=""img/food2.png"" style=""width:200px;border:14px solid red;"">","null","","","","","","","","","",""
"","image-keyboard-response","12","20379","0.0-12.0","3FFJ6VRIL2AMLMYR25TOVWP7PL10IZ","A1FKK1Q8C3BAE5","3HUR21WDDUBEMSLDIXZW1FAIHW8YX3","","32","img/food1.png","76","39","3","1","3","1","1,0.5,0,1,0.5,0,0.5,0,1","1,0.5,0,1,0.5,0,0.5,0,1","1","",""
"","html-keyboard-response","13","20683","0.0-13.0","3FFJ6VRIL2AMLMYR25TOVWP7PL10IZ","A1FKK1Q8C3BAE5","3HUR21WDDUBEMSLDIXZW1FAIHW8YX3","","null","<img src=""img/food1.png"" style=""width:200px; border:14px solid green;"">","null","","","","","","","","","",""
"","image-keyboard-response","14","21533","0.0-14.0","3FFJ6VRIL2AMLMYR25TOVWP7PL10IZ","A1FKK1Q8C3BAE5","3HUR21WDDUBEMSLDIXZW1FAIHW8YX3","","848","img/food1.png","76","849","3","1","3","1","1,0.5,0,1,0.5,0,0.5,0,1","1,0.5,0,1,0.5,0,0.5,0,1","1","",""
"","html-keyboard-response","15","21837","0.0-15.0","3FFJ6VRIL2AMLMYR25TOVWP7PL10IZ","A1FKK1Q8C3BAE5","3HUR21WDDUBEMSLDIXZW1FAIHW8YX3","","null","<img src=""img/food1.png"" style=""width:200px; border:14px solid green;"">","null","","","","","","","","","",""
"","image-keyboard-response","16","22307","0.0-16.0","3FFJ6VRIL2AMLMYR25TOVWP7PL10IZ","A1FKK1Q8C3BAE5","3HUR21WDDUBEMSLDIXZW1FAIHW8YX3","","468","img/food1.png","75","470","2","0","3","1","1,0.5,0,1,0.5,0,0.5,0,1","1,0.5,0,1,0.5,0,0.5,0,1","1","",""
"","html-keyboard-response","17","22614","0.0-17.0","3FFJ6VRIL2AMLMYR25TOVWP7PL10IZ","A1FKK1Q8C3BAE5","3HUR21WDDUBEMSLDIXZW1FAIHW8YX3","","null","<img src=""img/food1.png"" style=""width:200px;border:14px solid red;"">","null","","","","","","","","","",""
"","image-keyboard-response","18","22632","0.0-18.0","3FFJ6VRIL2AMLMYR25TOVWP7PL10IZ","A1FKK1Q8C3BAE5","3HUR21WDDUBEMSLDIXZW1FAIHW8YX3","","14","img/food2.png","76","16","3","0","1","1","1,0.5,0,1,0.5,0,0.5,0,1","1,0.5,0,1,0.5,0,0.5,0,1","1","",""
"","html-keyboard-response","19","22934","0.0-19.0","3FFJ6VRIL2AMLMYR25TOVWP7PL10IZ","A1FKK1Q8C3BAE5","3HUR21WDDUBEMSLDIXZW1FAIHW8YX3","","null","<img src=""img/food2.png"" style=""width:200px;border:14px solid red;"">","null","","","","","","","","","",""
"","image-keyboard-response","20","23150","0.0-20.0","3FFJ6VRIL2AMLMYR25TOVWP7PL10IZ","A1FKK1Q8C3BAE5","3HUR21WDDUBEMSLDIXZW1FAIHW8YX3","","214","img/food3.png","76","215","3","0","2","1","1,0.5,0,1,0.5,0,0.5,0,1","1,0.5,0,1,0.5,0,0.5,0,1","1","",""
"","html-keyboard-response","21","23454","0.0-21.0","3FFJ6VRIL2AMLMYR25TOVWP7PL10IZ","A1FKK1Q8C3BAE5","3HUR21WDDUBEMSLDIXZW1FAIHW8YX3","","null","<img src=""img/food3.png"" style=""width:200px;border:14px solid red;"">","null","","","","","","","","","",""
"","image-keyboard-response","22","23485","0.0-22.0","3FFJ6VRIL2AMLMYR25TOVWP7PL10IZ","A1FKK1Q8C3BAE5","3HUR21WDDUBEMSLDIXZW1FAIHW8YX3","","30","img/food1.png","76","31","3","1","3","1","1,0.5,0,1,0.5,0,0.5,0,1","1,0.5,0,1,0.5,0,0.5,0,1","1","",""
"","html-keyboard-response","23","23835","0.0-23.0","3FFJ6VRIL2AMLMYR25TOVWP7PL10IZ","A1FKK1Q8C3BAE5","3HUR21WDDUBEMSLDIXZW1FAIHW8YX3","","null","<img src=""img/food1.png"" style=""width:200px; border:14px solid green;"">","null","","","","","","","","","",""
"","image-keyboard-response","24","23883","0.0-24.0","3FFJ6VRIL2AMLMYR25TOVWP7PL10IZ","A1FKK1Q8C3BAE5","3HUR21WDDUBEMSLDIXZW1FAIHW8YX3","","39","img/food1.png","74","42","1","1","3","1","1,0.5,0,1,0.5,0,0.5,0,1","1,0.5,0,1,0.5,0,0.5,0,1","1","",""
"","html-keyboard-response","25","24187","0.0-25.0","3FFJ6VRIL2AMLMYR25TOVWP7PL10IZ","A1FKK1Q8C3BAE5","3HUR21WDDUBEMSLDIXZW1FAIHW8YX3","","null","<img src=""img/food1.png"" style=""width:200px; border:14px solid green;"">","null","","","","","","","","","",""
"","image-keyboard-response","26","24195","0.0-26.0","3FFJ6VRIL2AMLMYR25TOVWP7PL10IZ","A1FKK1Q8C3BAE5","3HUR21WDDUBEMSLDIXZW1FAIHW8YX3","","5","img/food1.png","74","7","1","0","3","1","1,0.5,0,1,0.5,0,0.5,0,1","1,0.5,0,1,0.5,0,0.5,0,1","1","",""
"","html-keyboard-response","27","24498","0.0-27.0","3FFJ6VRIL2AMLMYR25TOVWP7PL10IZ","A1FKK1Q8C3BAE5","3HUR21WDDUBEMSLDIXZW1FAIHW8YX3","","null","<img src=""img/food1.png"" style=""width:200px;border:14px solid red;"">","null","","","","","","","","","",""
"","image-keyboard-response","28","24724","0.0-28.0","3FFJ6VRIL2AMLMYR25TOVWP7PL10IZ","A1FKK1Q8C3BAE5","3HUR21WDDUBEMSLDIXZW1FAIHW8YX3","","222","img/food3.png","76","225","3","0","2","1","1,0.5,0,1,0.5,0,0.5,0,1","1,0.5,0,1,0.5,0,0.5,0,1","1","",""
"","html-keyboard-response","29","25026","0.0-29.0","3FFJ6VRIL2AMLMYR25TOVWP7PL10IZ","A1FKK1Q8C3BAE5","3HUR21WDDUBEMSLDIXZW1FAIHW8YX3","","null","<img src=""img/food3.png"" style=""width:200px;border:14px solid red;"">","null","","","","","","","","","",""
"","image-keyboard-response","30","25152","0.0-30.0","3FFJ6VRIL2AMLMYR25TOVWP7PL10IZ","A1FKK1Q8C3BAE5","3HUR21WDDUBEMSLDIXZW1FAIHW8YX3","","120","img/food2.png","75","123","2","1","1","1","1,0.5,0,1,0.5,0,0.5,0,1","1,0.5,0,1,0.5,0,0.5,0,1","1","",""
"","html-keyboard-response","31","25455","0.0-31.0","3FFJ6VRIL2AMLMYR25TOVWP7PL10IZ","A1FKK1Q8C3BAE5","3HUR21WDDUBEMSLDIXZW1FAIHW8YX3","","null","<img src=""img/food2.png"" style=""width:200px; border:14px solid green;"">","null","","","","","","","","","",""
"","image-keyboard-response","32","25636","0.0-32.0","3FFJ6VRIL2AMLMYR25TOVWP7PL10IZ","A1FKK1Q8C3BAE5","3HUR21WDDUBEMSLDIXZW1FAIHW8YX3","","178","img/food1.png","74","180","1","0","3","1","1,0.5,0,1,0.5,0,0.5,0,1","1,0.5,0,1,0.5,0,0.5,0,1","1","",""
"","html-keyboard-response","33","25938","0.0-33.0","3FFJ6VRIL2AMLMYR25TOVWP7PL10IZ","A1FKK1Q8C3BAE5","3HUR21WDDUBEMSLDIXZW1FAIHW8YX3","","null","<img src=""img/food1.png"" style=""width:200px;border:14px solid red;"">","null","","","","","","","","","",""
"","image-keyboard-response","34","26027","0.0-34.0","3FFJ6VRIL2AMLMYR25TOVWP7PL10IZ","A1FKK1Q8C3BAE5","3HUR21WDDUBEMSLDIXZW1FAIHW8YX3","","86","img/food1.png","74","88","1","0","3","1","1,0.5,0,1,0.5,0,0.5,0,1","1,0.5,0,1,0.5,0,0.5,0,1","1","",""
"","html-keyboard-response","35","26329","0.0-35.0","3FFJ6VRIL2AMLMYR25TOVWP7PL10IZ","A1FKK1Q8C3BAE5","3HUR21WDDUBEMSLDIXZW1FAIHW8YX3","","null","<img src=""img/food1.png"" style=""width:200px;border:14px solid red;"">","null","","","","","","","","","",""
"","image-keyboard-response","36","26427","0.0-36.0","3FFJ6VRIL2AMLMYR25TOVWP7PL10IZ","A1FKK1Q8C3BAE5","3HUR21WDDUBEMSLDIXZW1FAIHW8YX3","","96","img/food2.png","76","97","3","0","1","1","1,0.5,0,1,0.5,0,0.5,0,1","1,0.5,0,1,0.5,0,0.5,0,1","1","",""
"","html-keyboard-response","37","26731","0.0-37.0","3FFJ6VRIL2AMLMYR25TOVWP7PL10IZ","A1FKK1Q8C3BAE5","3HUR21WDDUBEMSLDIXZW1FAIHW8YX3","","null","<img src=""img/food2.png"" style=""width:200px;border:14px solid red;"">","null","","","","","","","","","",""
"","image-keyboard-response","38","26972","0.0-38.0","3FFJ6VRIL2AMLMYR25TOVWP7PL10IZ","A1FKK1Q8C3BAE5","3HUR21WDDUBEMSLDIXZW1FAIHW8YX3","","237","img/food2.png","76","239","3","0","1","1","1,0.5,0,1,0.5,0,0.5,0,1","1,0.5,0,1,0.5,0,0.5,0,1","1","",""
"","html-keyboard-response","39","27275","0.0-39.0","3FFJ6VRIL2AMLMYR25TOVWP7PL10IZ","A1FKK1Q8C3BAE5","3HUR21WDDUBEMSLDIXZW1FAIHW8YX3","","null","<img src=""img/food2.png"" style=""width:200px;border:14px solid red;"">","null","","","","","","","","","",""
"","image-keyboard-response","40","27506","0.0-40.0","3FFJ6VRIL2AMLMYR25TOVWP7PL10IZ","A1FKK1Q8C3BAE5","3HUR21WDDUBEMSLDIXZW1FAIHW8YX3","","228","img/food3.png","75","230","2","1","2","1","1,0.5,0,1,0.5,0,0.5,0,1","1,0.5,0,1,0.5,0,0.5,0,1","1","",""
"","html-keyboard-response","41","27828","0.0-41.0","3FFJ6VRIL2AMLMYR25TOVWP7PL10IZ","A1FKK1Q8C3BAE5","3HUR21WDDUBEMSLDIXZW1FAIHW8YX3","","null","<img src=""img/food3.png"" style=""width:200px; border:14px solid green;"">","null","","","","","","","","","",""
"","image-keyboard-response","42","28073","0.0-42.0","3FFJ6VRIL2AMLMYR25TOVWP7PL10IZ","A1FKK1Q8C3BAE5","3HUR21WDDUBEMSLDIXZW1FAIHW8YX3","","243","img/food2.png","74","244","1","1","1","1","1,0.5,0,1,0.5,0,0.5,0,1","1,0.5,0,1,0.5,0,0.5,0,1","1","",""
"","html-keyboard-response","43","28377","0.0-43.0","3FFJ6VRIL2AMLMYR25TOVWP7PL10IZ","A1FKK1Q8C3BAE5","3HUR21WDDUBEMSLDIXZW1FAIHW8YX3","","null","<img src=""img/food2.png"" style=""width:200px; border:14px solid green;"">","null","","","","","","","","","",""
"","image-keyboard-response","44","28387","0.0-44.0","3FFJ6VRIL2AMLMYR25TOVWP7PL10IZ","A1FKK1Q8C3BAE5","3HUR21WDDUBEMSLDIXZW1FAIHW8YX3","","7","img/food2.png","76","9","3","0","1","1","1,0.5,0,1,0.5,0,0.5,0,1","1,0.5,0,1,0.5,0,0.5,0,1","1","",""
"","html-keyboard-response","45","28690","0.0-45.0","3FFJ6VRIL2AMLMYR25TOVWP7PL10IZ","A1FKK1Q8C3BAE5","3HUR21WDDUBEMSLDIXZW1FAIHW8YX3","","null","<img src=""img/food2.png"" style=""width:200px;border:14px solid red;"">","null","","","","","","","","","",""
"","image-keyboard-response","46","28964","0.0-46.0","3FFJ6VRIL2AMLMYR25TOVWP7PL10IZ","A1FKK1Q8C3BAE5","3HUR21WDDUBEMSLDIXZW1FAIHW8YX3","","271","img/food3.png","76","273","3","0","2","1","1,0.5,0,1,0.5,0,0.5,0,1","1,0.5,0,1,0.5,0,0.5,0,1","1","",""
"","html-keyboard-response","47","29267","0.0-47.0","3FFJ6VRIL2AMLMYR25TOVWP7PL10IZ","A1FKK1Q8C3BAE5","3HUR21WDDUBEMSLDIXZW1FAIHW8YX3","","null","<img src=""img/food3.png"" style=""width:200px;border:14px solid red;"">","null","","","","","","","","","",""
"","image-keyboard-response","48","29272","0.0-48.0","3FFJ6VRIL2AMLMYR25TOVWP7PL10IZ","A1FKK1Q8C3BAE5","3HUR21WDDUBEMSLDIXZW1FAIHW8YX3","","2","img/food3.png","76","4","3","0","2","1","1,0.5,0,1,0.5,0,0.5,0,1","1,0.5,0,1,0.5,0,0.5,0,1","1","",""
"","html-keyboard-response","49","29576","0.0-49.0","3FFJ6VRIL2AMLMYR25TOVWP7PL10IZ","A1FKK1Q8C3BAE5","3HUR21WDDUBEMSLDIXZW1FAIHW8YX3","","null","<img src=""img/food3.png"" style=""width:200px;border:14px solid red;"">","null","","","","","","","","","",""
"","image-keyboard-response","50","29966","0.0-50.0","3FFJ6VRIL2AMLMYR25TOVWP7PL10IZ","A1FKK1Q8C3BAE5","3HUR21WDDUBEMSLDIXZW1FAIHW8YX3","","388","img/food3.png","75","390","2","0","2","1","1,0.5,0,1,0.5,0,0.5,0,1","1,0.5,0,1,0.5,0,0.5,0,1","1","",""
"","html-keyboard-response","51","30268","0.0-51.0","3FFJ6VRIL2AMLMYR25TOVWP7PL10IZ","A1FKK1Q8C3BAE5","3HUR21WDDUBEMSLDIXZW1FAIHW8YX3","","null","<img src=""img/food3.png"" style=""width:200px;border:14px solid red;"">","null","","","","","","","","","",""
"","image-keyboard-response","52","30508","0.0-52.0","3FFJ6VRIL2AMLMYR25TOVWP7PL10IZ","A1FKK1Q8C3BAE5","3HUR21WDDUBEMSLDIXZW1FAIHW8YX3","","236","img/food2.png","74","238","1","1","1","1","1,0.5,0,1,0.5,0,0.5,0,1","1,0.5,0,1,0.5,0,0.5,0,1","1","",""
"","html-keyboard-response","53","30811","0.0-53.0","3FFJ6VRIL2AMLMYR25TOVWP7PL10IZ","A1FKK1Q8C3BAE5","3HUR21WDDUBEMSLDIXZW1FAIHW8YX3","","null","<img src=""img/food2.png"" style=""width:200px; border:14px solid green;"">","null","","","","","","","","","",""
"","image-keyboard-response","54","31093","0.0-54.0","3FFJ6VRIL2AMLMYR25TOVWP7PL10IZ","A1FKK1Q8C3BAE5","3HUR21WDDUBEMSLDIXZW1FAIHW8YX3","","279","img/food2.png","74","282","1","1","1","1","1,0.5,0,1,0.5,0,0.5,0,1","1,0.5,0,1,0.5,0,0.5,0,1","1","",""
"","html-keyboard-response","55","31397","0.0-55.0","3FFJ6VRIL2AMLMYR25TOVWP7PL10IZ","A1FKK1Q8C3BAE5","3HUR21WDDUBEMSLDIXZW1FAIHW8YX3","","null","<img src=""img/food2.png"" style=""width:200px; border:14px solid green;"">","null","","","","","","","","","",""
"","image-keyboard-response","56","31479","0.0-56.0","3FFJ6VRIL2AMLMYR25TOVWP7PL10IZ","A1FKK1Q8C3BAE5","3HUR21WDDUBEMSLDIXZW1FAIHW8YX3","","81","img/food2.png","74","81","1","1","1","1","1,0.5,0,1,0.5,0,0.5,0,1","1,0.5,0,1,0.5,0,0.5,0,1","1","",""
"","html-keyboard-response","57","31781","0.0-57.0","3FFJ6VRIL2AMLMYR25TOVWP7PL10IZ","A1FKK1Q8C3BAE5","3HUR21WDDUBEMSLDIXZW1FAIHW8YX3","","null","<img src=""img/food2.png"" style=""width:200px; border:14px solid green;"">","null","","","","","","","","","",""
"","image-keyboard-response","58","31941","0.0-58.0","3FFJ6VRIL2AMLMYR25TOVWP7PL10IZ","A1FKK1Q8C3BAE5","3HUR21WDDUBEMSLDIXZW1FAIHW8YX3","","157","img/food1.png","74","159","1","1","3","1","1,0.5,0,1,0.5,0,0.5,0,1","1,0.5,0,1,0.5,0,0.5,0,1","1","",""
"","html-keyboard-response","59","32248","0.0-59.0","3FFJ6VRIL2AMLMYR25TOVWP7PL10IZ","A1FKK1Q8C3BAE5","3HUR21WDDUBEMSLDIXZW1FAIHW8YX3","","null","<img src=""img/food1.png"" style=""width:200px; border:14px solid green;"">","null","","","","","","","","","",""
"","image-keyboard-response","60","32340","0.0-60.0","3FFJ6VRIL2AMLMYR25TOVWP7PL10IZ","A1FKK1Q8C3BAE5","3HUR21WDDUBEMSLDIXZW1FAIHW8YX3","","88","img/food3.png","74","91","1","1","2","1","1,0.5,0,1,0.5,0,0.5,0,1","1,0.5,0,1,0.5,0,0.5,0,1","1","",""
"","html-keyboard-response","61","32647","0.0-61.0","3FFJ6VRIL2AMLMYR25TOVWP7PL10IZ","A1FKK1Q8C3BAE5","3HUR21WDDUBEMSLDIXZW1FAIHW8YX3","","null","<img src=""img/food3.png"" style=""width:200px; border:14px solid green;"">","null","","","","","","","","","",""
"","image-keyboard-response","62","32844","0.0-62.0","3FFJ6VRIL2AMLMYR25TOVWP7PL10IZ","A1FKK1Q8C3BAE5","3HUR21WDDUBEMSLDIXZW1FAIHW8YX3","","180","img/food2.png","74","191","1","1","1","1","1,0.5,0,1,0.5,0,0.5,0,1","1,0.5,0,1,0.5,0,0.5,0,1","1","",""
"","html-keyboard-response","63","33148","0.0-63.0","3FFJ6VRIL2AMLMYR25TOVWP7PL10IZ","A1FKK1Q8C3BAE5","3HUR21WDDUBEMSLDIXZW1FAIHW8YX3","","null","<img src=""img/food2.png"" style=""width:200px; border:14px solid green;"">","null","","","","","","","","","",""
"","image-keyboard-response","64","33162","0.0-64.0","3FFJ6VRIL2AMLMYR25TOVWP7PL10IZ","A1FKK1Q8C3BAE5","3HUR21WDDUBEMSLDIXZW1FAIHW8YX3","","12","img/food3.png","74","13","1","1","2","1","1,0.5,0,1,0.5,0,0.5,0,1","1,0.5,0,1,0.5,0,0.5,0,1","1","",""
"","html-keyboard-response","65","33465","0.0-65.0","3FFJ6VRIL2AMLMYR25TOVWP7PL10IZ","A1FKK1Q8C3BAE5","3HUR21WDDUBEMSLDIXZW1FAIHW8YX3","","null","<img src=""img/food3.png"" style=""width:200px; border:14px solid green;"">","null","","","","","","","","","",""
"","image-keyboard-response","66","33622","0.0-66.0","3FFJ6VRIL2AMLMYR25TOVWP7PL10IZ","A1FKK1Q8C3BAE5","3HUR21WDDUBEMSLDIXZW1FAIHW8YX3","","154","img/food1.png","74","156","1","0","3","1","1,0.5,0,1,0.5,0,0.5,0,1","1,0.5,0,1,0.5,0,0.5,0,1","1","",""
"","html-keyboard-response","67","33923","0.0-67.0","3FFJ6VRIL2AMLMYR25TOVWP7PL10IZ","A1FKK1Q8C3BAE5","3HUR21WDDUBEMSLDIXZW1FAIHW8YX3","","null","<img src=""img/food1.png"" style=""width:200px;border:14px solid red;"">","null","","","","","","","","","",""
"","image-keyboard-response","68","34042","0.0-68.0","3FFJ6VRIL2AMLMYR25TOVWP7PL10IZ","A1FKK1Q8C3BAE5","3HUR21WDDUBEMSLDIXZW1FAIHW8YX3","","118","img/food2.png","74","118","1","1","1","1","1,0.5,0,1,0.5,0,0.5,0,1","1,0.5,0,1,0.5,0,0.5,0,1","1","",""
"","html-keyboard-response","69","34344","0.0-69.0","3FFJ6VRIL2AMLMYR25TOVWP7PL10IZ","A1FKK1Q8C3BAE5","3HUR21WDDUBEMSLDIXZW1FAIHW8YX3","","null","<img src=""img/food2.png"" style=""width:200px; border:14px solid green;"">","null","","","","","","","","","",""
"","image-keyboard-response","70","34450","0.0-70.0","3FFJ6VRIL2AMLMYR25TOVWP7PL10IZ","A1FKK1Q8C3BAE5","3HUR21WDDUBEMSLDIXZW1FAIHW8YX3","","103","img/food2.png","74","104","1","1","1","1","1,0.5,0,1,0.5,0,0.5,0,1","1,0.5,0,1,0.5,0,0.5,0,1","1","",""
"","html-keyboard-response","71","34752","0.0-71.0","3FFJ6VRIL2AMLMYR25TOVWP7PL10IZ","A1FKK1Q8C3BAE5","3HUR21WDDUBEMSLDIXZW1FAIHW8YX3","","null","<img src=""img/food2.png"" style=""width:200px; border:14px solid green;"">","null","","","","","","","","","",""
"","image-keyboard-response","72","34827","0.0-72.0","3FFJ6VRIL2AMLMYR25TOVWP7PL10IZ","A1FKK1Q8C3BAE5","3HUR21WDDUBEMSLDIXZW1FAIHW8YX3","","72","img/food3.png","74","74","1","1","2","1","1,0.5,0,1,0.5,0,0.5,0,1","1,0.5,0,1,0.5,0,0.5,0,1","1","",""
"","html-keyboard-response","73","35183","0.0-73.0","3FFJ6VRIL2AMLMYR25TOVWP7PL10IZ","A1FKK1Q8C3BAE5","3HUR21WDDUBEMSLDIXZW1FAIHW8YX3","","null","<img src=""img/food3.png"" style=""width:200px; border:14px solid green;"">","null","","","","","","","","","",""
"","image-keyboard-response","74","35219","0.0-74.0","3FFJ6VRIL2AMLMYR25TOVWP7PL10IZ","A1FKK1Q8C3BAE5","3HUR21WDDUBEMSLDIXZW1FAIHW8YX3","","33","img/food2.png","74","35","1","1","1","1","1,0.5,0,1,0.5,0,0.5,0,1","1,0.5,0,1,0.5,0,0.5,0,1","1","",""
"","html-keyboard-response","75","35521","0.0-75.0","3FFJ6VRIL2AMLMYR25TOVWP7PL10IZ","A1FKK1Q8C3BAE5","3HUR21WDDUBEMSLDIXZW1FAIHW8YX3","","null","<img src=""img/food2.png"" style=""width:200px; border:14px solid green;"">","null","","","","","","","","","",""
"","image-keyboard-response","76","35606","0.0-76.0","3FFJ6VRIL2AMLMYR25TOVWP7PL10IZ","A1FKK1Q8C3BAE5","3HUR21WDDUBEMSLDIXZW1FAIHW8YX3","","82","img/food2.png","74","84","1","1","1","1","1,0.5,0,1,0.5,0,0.5,0,1","1,0.5,0,1,0.5,0,0.5,0,1","1","",""
"","html-keyboard-response","77","35909","0.0-77.0","3FFJ6VRIL2AMLMYR25TOVWP7PL10IZ","A1FKK1Q8C3BAE5","3HUR21WDDUBEMSLDIXZW1FAIHW8YX3","","null","<img src=""img/food2.png"" style=""width:200px; border:14px solid green;"">","null","","","","","","","","","",""
"","image-keyboard-response","78","36100","0.0-78.0","3FFJ6VRIL2AMLMYR25TOVWP7PL10IZ","A1FKK1Q8C3BAE5","3HUR21WDDUBEMSLDIXZW1FAIHW8YX3","","190","img/food3.png","74","190","1","1","2","1","1,0.5,0,1,0.5,0,0.5,0,1","1,0.5,0,1,0.5,0,0.5,0,1","1","",""
"","html-keyboard-response","79","36402","0.0-79.0","3FFJ6VRIL2AMLMYR25TOVWP7PL10IZ","A1FKK1Q8C3BAE5","3HUR21WDDUBEMSLDIXZW1FAIHW8YX3","","null","<img src=""img/food3.png"" style=""width:200px; border:14px solid green;"">","null","","","","","","","","","",""
"","image-keyboard-response","80","36606","0.0-80.0","3FFJ6VRIL2AMLMYR25TOVWP7PL10IZ","A1FKK1Q8C3BAE5","3HUR21WDDUBEMSLDIXZW1FAIHW8YX3","","200","img/food1.png","74","202","1","0","3","1","1,0.5,0,1,0.5,0,0.5,0,1","1,0.5,0,1,0.5,0,0.5,0,1","1","",""
"","html-keyboard-response","81","36907","0.0-81.0","3FFJ6VRIL2AMLMYR25TOVWP7PL10IZ","A1FKK1Q8C3BAE5","3HUR21WDDUBEMSLDIXZW1FAIHW8YX3","","null","<img src=""img/food1.png"" style=""width:200px;border:14px solid red;"">","null","","","","","","","","","",""
"","image-keyboard-response","82","37021","0.0-82.0","3FFJ6VRIL2AMLMYR25TOVWP7PL10IZ","A1FKK1Q8C3BAE5","3HUR21WDDUBEMSLDIXZW1FAIHW8YX3","","110","img/food1.png","74","112","1","0","3","1","1,0.5,0,1,0.5,0,0.5,0,1","1,0.5,0,1,0.5,0,0.5,0,1","1","",""
"","html-keyboard-response","83","37324","0.0-83.0","3FFJ6VRIL2AMLMYR25TOVWP7PL10IZ","A1FKK1Q8C3BAE5","3HUR21WDDUBEMSLDIXZW1FAIHW8YX3","","null","<img src=""img/food1.png"" style=""width:200px;border:14px solid red;"">","null","","","","","","","","","",""
"","image-keyboard-response","84","37412","0.0-84.0","3FFJ6VRIL2AMLMYR25TOVWP7PL10IZ","A1FKK1Q8C3BAE5","3HUR21WDDUBEMSLDIXZW1FAIHW8YX3","","87","img/food2.png","74","87","1","1","1","1","1,0.5,0,1,0.5,0,0.5,0,1","1,0.5,0,1,0.5,0,0.5,0,1","1","",""
"","html-keyboard-response","85","37715","0.0-85.0","3FFJ6VRIL2AMLMYR25TOVWP7PL10IZ","A1FKK1Q8C3BAE5","3HUR21WDDUBEMSLDIXZW1FAIHW8YX3","","null","<img src=""img/food2.png"" style=""width:200px; border:14px solid green;"">","null","","","","","","","","","",""
"","image-keyboard-response","86","37774","0.0-86.0","3FFJ6VRIL2AMLMYR25TOVWP7PL10IZ","A1FKK1Q8C3BAE5","3HUR21WDDUBEMSLDIXZW1FAIHW8YX3","","55","img/food1.png","74","58","1","1","3","1","1,0.5,0,1,0.5,0,0.5,0,1","1,0.5,0,1,0.5,0,0.5,0,1","1","",""
"","html-keyboard-response","87","38082","0.0-87.0","3FFJ6VRIL2AMLMYR25TOVWP7PL10IZ","A1FKK1Q8C3BAE5","3HUR21WDDUBEMSLDIXZW1FAIHW8YX3","","null","<img src=""img/food1.png"" style=""width:200px; border:14px solid green;"">","null","","","","","","","","","",""
"","image-keyboard-response","88","38310","0.0-88.0","3FFJ6VRIL2AMLMYR25TOVWP7PL10IZ","A1FKK1Q8C3BAE5","3HUR21WDDUBEMSLDIXZW1FAIHW8YX3","","226","img/food3.png","74","227","1","1","2","1","1,0.5,0,1,0.5,0,0.5,0,1","1,0.5,0,1,0.5,0,0.5,0,1","1","",""
"","html-keyboard-response","89","38622","0.0-89.0","3FFJ6VRIL2AMLMYR25TOVWP7PL10IZ","A1FKK1Q8C3BAE5","3HUR21WDDUBEMSLDIXZW1FAIHW8YX3","","null","<img src=""img/food3.png"" style=""width:200px; border:14px solid green;"">","null","","","","","","","","","",""
"","image-keyboard-response","90","38639","0.0-90.0","3FFJ6VRIL2AMLMYR25TOVWP7PL10IZ","A1FKK1Q8C3BAE5","3HUR21WDDUBEMSLDIXZW1FAIHW8YX3","","13","img/food2.png","74","16","1","1","1","1","1,0.5,0,1,0.5,0,0.5,0,1","1,0.5,0,1,0.5,0,0.5,0,1","1","",""
"","html-keyboard-response","91","38944","0.0-91.0","3FFJ6VRIL2AMLMYR25TOVWP7PL10IZ","A1FKK1Q8C3BAE5","3HUR21WDDUBEMSLDIXZW1FAIHW8YX3","","null","<img src=""img/food2.png"" style=""width:200px; border:14px solid green;"">","null","","","","","","","","","",""
"","image-keyboard-response","92","38967","0.0-92.0","3FFJ6VRIL2AMLMYR25TOVWP7PL10IZ","A1FKK1Q8C3BAE5","3HUR21WDDUBEMSLDIXZW1FAIHW8YX3","","21","img/food3.png","74","21","1","1","2","1","1,0.5,0,1,0.5,0,0.5,0,1","1,0.5,0,1,0.5,0,0.5,0,1","1","",""
"","html-keyboard-response","93","39271","0.0-93.0","3FFJ6VRIL2AMLMYR25TOVWP7PL10IZ","A1FKK1Q8C3BAE5","3HUR21WDDUBEMSLDIXZW1FAIHW8YX3","","null","<img src=""img/food3.png"" style=""width:200px; border:14px solid green;"">","null","","","","","","","","","",""
"","image-keyboard-response","94","39284","0.0-94.0","3FFJ6VRIL2AMLMYR25TOVWP7PL10IZ","A1FKK1Q8C3BAE5","3HUR21WDDUBEMSLDIXZW1FAIHW8YX3","","12","img/food2.png","74","12","1","1","1","1","1,0.5,0,1,0.5,0,0.5,0,1","1,0.5,0,1,0.5,0,0.5,0,1","1","",""
"","html-keyboard-response","95","39588","0.0-95.0","3FFJ6VRIL2AMLMYR25TOVWP7PL10IZ","A1FKK1Q8C3BAE5","3HUR21WDDUBEMSLDIXZW1FAIHW8YX3","","null","<img src=""img/food2.png"" style=""width:200px; border:14px solid green;"">","null","","","","","","","","","",""
"","image-keyboard-response","96","39637","0.0-96.0","3FFJ6VRIL2AMLMYR25TOVWP7PL10IZ","A1FKK1Q8C3BAE5","3HUR21WDDUBEMSLDIXZW1FAIHW8YX3","","45","img/food3.png","74","47","1","1","2","1","1,0.5,0,1,0.5,0,0.5,0,1","1,0.5,0,1,0.5,0,0.5,0,1","1","",""
"","html-keyboard-response","97","39981","0.0-97.0","3FFJ6VRIL2AMLMYR25TOVWP7PL10IZ","A1FKK1Q8C3BAE5","3HUR21WDDUBEMSLDIXZW1FAIHW8YX3","","null","<img src=""img/food3.png"" style=""width:200px; border:14px solid green;"">","null","","","","","","","","","",""
"","image-keyboard-response","98","40004","0.0-98.0","3FFJ6VRIL2AMLMYR25TOVWP7PL10IZ","A1FKK1Q8C3BAE5","3HUR21WDDUBEMSLDIXZW1FAIHW8YX3","","20","img/food3.png","74","22","1","1","2","1","1,0.5,0,1,0.5,0,0.5,0,1","1,0.5,0,1,0.5,0,0.5,0,1","1","",""
"","html-keyboard-response","99","40306","0.0-99.0","3FFJ6VRIL2AMLMYR25TOVWP7PL10IZ","A1FKK1Q8C3BAE5","3HUR21WDDUBEMSLDIXZW1FAIHW8YX3","","null","<img src=""img/food3.png"" style=""width:200px; border:14px solid green;"">","null","","","","","","","","","",""
"","image-keyboard-response","100","40342","0.0-100.0","3FFJ6VRIL2AMLMYR25TOVWP7PL10IZ","A1FKK1Q8C3BAE5","3HUR21WDDUBEMSLDIXZW1FAIHW8YX3","","31","img/food3.png","74","33","1","1","2","1","1,0.5,0,1,0.5,0,0.5,0,1","1,0.5,0,1,0.5,0,0.5,0,1","1","",""
"","html-keyboard-response","101","40645","0.0-101.0","3FFJ6VRIL2AMLMYR25TOVWP7PL10IZ","A1FKK1Q8C3BAE5","3HUR21WDDUBEMSLDIXZW1FAIHW8YX3","","null","<img src=""img/food3.png"" style=""width:200px; border:14px solid green;"">","null","","","","","","","","","",""
"","image-keyboard-response","102","40692","0.0-102.0","3FFJ6VRIL2AMLMYR25TOVWP7PL10IZ","A1FKK1Q8C3BAE5","3HUR21WDDUBEMSLDIXZW1FAIHW8YX3","","44","img/food3.png","74","46","1","1","2","1","1,0.5,0,1,0.5,0,0.5,0,1","1,0.5,0,1,0.5,0,0.5,0,1","1","",""
"","html-keyboard-response","103","40996","0.0-103.0","3FFJ6VRIL2AMLMYR25TOVWP7PL10IZ","A1FKK1Q8C3BAE5","3HUR21WDDUBEMSLDIXZW1FAIHW8YX3","","null","<img src=""img/food3.png"" style=""width:200px; border:14px solid green;"">","null","","","","","","","","","",""
"","image-keyboard-response","104","41075","0.0-104.0","3FFJ6VRIL2AMLMYR25TOVWP7PL10IZ","A1FKK1Q8C3BAE5","3HUR21WDDUBEMSLDIXZW1FAIHW8YX3","","76","img/food1.png","74","78","1","1","3","1","1,0.5,0,1,0.5,0,0.5,0,1","1,0.5,0,1,0.5,0,0.5,0,1","1","",""
"","html-keyboard-response","105","41459","0.0-105.0","3FFJ6VRIL2AMLMYR25TOVWP7PL10IZ","A1FKK1Q8C3BAE5","3HUR21WDDUBEMSLDIXZW1FAIHW8YX3","","null","<img src=""img/food1.png"" style=""width:200px; border:14px solid green;"">","null","","","","","","","","","",""
"","image-keyboard-response","106","41483","0.0-106.0","3FFJ6VRIL2AMLMYR25TOVWP7PL10IZ","A1FKK1Q8C3BAE5","3HUR21WDDUBEMSLDIXZW1FAIHW8YX3","","20","img/food1.png","74","24","1","1","3","1","1,0.5,0,1,0.5,0,0.5,0,1","1,0.5,0,1,0.5,0,0.5,0,1","1","",""
"","html-keyboard-response","107","41786","0.0-107.0","3FFJ6VRIL2AMLMYR25TOVWP7PL10IZ","A1FKK1Q8C3BAE5","3HUR21WDDUBEMSLDIXZW1FAIHW8YX3","","null","<img src=""img/food1.png"" style=""width:200px; border:14px solid green;"">","null","","","","","","","","","",""
"","image-keyboard-response","108","41809","0.0-108.0","3FFJ6VRIL2AMLMYR25TOVWP7PL10IZ","A1FKK1Q8C3BAE5","3HUR21WDDUBEMSLDIXZW1FAIHW8YX3","","17","img/food3.png","74","20","1","1","2","1","1,0.5,0,1,0.5,0,0.5,0,1","1,0.5,0,1,0.5,0,0.5,0,1","1","",""
"","html-keyboard-response","109","42113","0.0-109.0","3FFJ6VRIL2AMLMYR25TOVWP7PL10IZ","A1FKK1Q8C3BAE5","3HUR21WDDUBEMSLDIXZW1FAIHW8YX3","","null","<img src=""img/food3.png"" style=""width:200px; border:14px solid green;"">","null","","","","","","","","","",""
"","image-keyboard-response","110","42155","0.0-110.0","3FFJ6VRIL2AMLMYR25TOVWP7PL10IZ","A1FKK1Q8C3BAE5","3HUR21WDDUBEMSLDIXZW1FAIHW8YX3","","40","img/food3.png","74","42","1","1","2","1","1,0.5,0,1,0.5,0,0.5,0,1","1,0.5,0,1,0.5,0,0.5,0,1","1","",""
"","html-keyboard-response","111","42457","0.0-111.0","3FFJ6VRIL2AMLMYR25TOVWP7PL10IZ","A1FKK1Q8C3BAE5","3HUR21WDDUBEMSLDIXZW1FAIHW8YX3","","null","<img src=""img/food3.png"" style=""width:200px; border:14px solid green;"">","null","","","","","","","","","",""
"","image-keyboard-response","112","42516","0.0-112.0","3FFJ6VRIL2AMLMYR25TOVWP7PL10IZ","A1FKK1Q8C3BAE5","3HUR21WDDUBEMSLDIXZW1FAIHW8YX3","","55","img/food2.png","74","57","1","1","1","1","1,0.5,0,1,0.5,0,0.5,0,1","1,0.5,0,1,0.5,0,0.5,0,1","1","",""
"","html-keyboard-response","113","42819","0.0-113.0","3FFJ6VRIL2AMLMYR25TOVWP7PL10IZ","A1FKK1Q8C3BAE5","3HUR21WDDUBEMSLDIXZW1FAIHW8YX3","","null","<img src=""img/food2.png"" style=""width:200px; border:14px solid green;"">","null","","","","","","","","","",""
"","image-keyboard-response","114","42907","0.0-114.0","3FFJ6VRIL2AMLMYR25TOVWP7PL10IZ","A1FKK1Q8C3BAE5","3HUR21WDDUBEMSLDIXZW1FAIHW8YX3","","86","img/food3.png","74","87","1","1","2","1","1,0.5,0,1,0.5,0,0.5,0,1","1,0.5,0,1,0.5,0,0.5,0,1","1","",""
"","html-keyboard-response","115","43211","0.0-115.0","3FFJ6VRIL2AMLMYR25TOVWP7PL10IZ","A1FKK1Q8C3BAE5","3HUR21WDDUBEMSLDIXZW1FAIHW8YX3","","null","<img src=""img/food3.png"" style=""width:200px; border:14px solid green;"">","null","","","","","","","","","",""
"","image-keyboard-response","116","43363","0.0-116.0","3FFJ6VRIL2AMLMYR25TOVWP7PL10IZ","A1FKK1Q8C3BAE5","3HUR21WDDUBEMSLDIXZW1FAIHW8YX3","","148","img/food3.png","74","150","1","1","2","1","1,0.5,0,1,0.5,0,0.5,0,1","1,0.5,0,1,0.5,0,0.5,0,1","1","",""
"","html-keyboard-response","117","43707","0.0-117.0","3FFJ6VRIL2AMLMYR25TOVWP7PL10IZ","A1FKK1Q8C3BAE5","3HUR21WDDUBEMSLDIXZW1FAIHW8YX3","","null","<img src=""img/food3.png"" style=""width:200px; border:14px solid green;"">","null","","","","","","","","","",""
"","image-keyboard-response","118","43789","0.0-118.0","3FFJ6VRIL2AMLMYR25TOVWP7PL10IZ","A1FKK1Q8C3BAE5","3HUR21WDDUBEMSLDIXZW1FAIHW8YX3","","59","img/food2.png","74","73","1","1","1","1","1,0.5,0,1,0.5,0,0.5,0,1","1,0.5,0,1,0.5,0,0.5,0,1","1","",""
"","html-keyboard-response","119","44092","0.0-119.0","3FFJ6VRIL2AMLMYR25TOVWP7PL10IZ","A1FKK1Q8C3BAE5","3HUR21WDDUBEMSLDIXZW1FAIHW8YX3","","null","<img src=""img/food2.png"" style=""width:200px; border:14px solid green;"">","null","","","","","","","","","",""
"","image-keyboard-response","120","44212","0.0-120.0","3FFJ6VRIL2AMLMYR25TOVWP7PL10IZ","A1FKK1Q8C3BAE5","3HUR21WDDUBEMSLDIXZW1FAIHW8YX3","","118","img/food3.png","74","119","1","1","2","1","1,0.5,0,1,0.5,0,0.5,0,1","1,0.5,0,1,0.5,0,0.5,0,1","1","",""
"","html-keyboard-response","121","44514","0.0-121.0","3FFJ6VRIL2AMLMYR25TOVWP7PL10IZ","A1FKK1Q8C3BAE5","3HUR21WDDUBEMSLDIXZW1FAIHW8YX3","","null","<img src=""img/food3.png"" style=""width:200px; border:14px solid green;"">","null","","","","","","","","","",""
"","image-keyboard-response","122","44669","0.0-122.0","3FFJ6VRIL2AMLMYR25TOVWP7PL10IZ","A1FKK1Q8C3BAE5","3HUR21WDDUBEMSLDIXZW1FAIHW8YX3","","152","img/food1.png","74","153","1","0","3","1","1,0.5,0,1,0.5,0,0.5,0,1","1,0.5,0,1,0.5,0,0.5,0,1","1","",""
"","html-keyboard-response","123","45013","0.0-123.0","3FFJ6VRIL2AMLMYR25TOVWP7PL10IZ","A1FKK1Q8C3BAE5","3HUR21WDDUBEMSLDIXZW1FAIHW8YX3","","null","<img src=""img/food1.png"" style=""width:200px;border:14px solid red;"">","null","","","","","","","","","",""
"","image-keyboard-response","124","45101","0.0-124.0","3FFJ6VRIL2AMLMYR25TOVWP7PL10IZ","A1FKK1Q8C3BAE5","3HUR21WDDUBEMSLDIXZW1FAIHW8YX3","","85","img/food3.png","74","87","1","1","2","1","1,0.5,0,1,0.5,0,0.5,0,1","1,0.5,0,1,0.5,0,0.5,0,1","1","",""
"","html-keyboard-response","125","45405","0.0-125.0","3FFJ6VRIL2AMLMYR25TOVWP7PL10IZ","A1FKK1Q8C3BAE5","3HUR21WDDUBEMSLDIXZW1FAIHW8YX3","","null","<img src=""img/food3.png"" style=""width:200px; border:14px solid green;"">","null","","","","","","","","","",""
"","image-keyboard-response","126","45535","0.0-126.0","3FFJ6VRIL2AMLMYR25TOVWP7PL10IZ","A1FKK1Q8C3BAE5","3HUR21WDDUBEMSLDIXZW1FAIHW8YX3","","128","img/food2.png","74","129","1","1","1","1","1,0.5,0,1,0.5,0,0.5,0,1","1,0.5,0,1,0.5,0,0.5,0,1","1","",""
"","html-keyboard-response","127","45839","0.0-127.0","3FFJ6VRIL2AMLMYR25TOVWP7PL10IZ","A1FKK1Q8C3BAE5","3HUR21WDDUBEMSLDIXZW1FAIHW8YX3","","null","<img src=""img/food2.png"" style=""width:200px; border:14px solid green;"">","null","","","","","","","","","",""
"","image-keyboard-response","128","45956","0.0-128.0","3FFJ6VRIL2AMLMYR25TOVWP7PL10IZ","A1FKK1Q8C3BAE5","3HUR21WDDUBEMSLDIXZW1FAIHW8YX3","","115","img/food1.png","74","116","1","1","3","1","1,0.5,0,1,0.5,0,0.5,0,1","1,0.5,0,1,0.5,0,0.5,0,1","1","",""
"","html-keyboard-response","129","46259","0.0-129.0","3FFJ6VRIL2AMLMYR25TOVWP7PL10IZ","A1FKK1Q8C3BAE5","3HUR21WDDUBEMSLDIXZW1FAIHW8YX3","","null","<img src=""img/food1.png"" style=""width:200px; border:14px solid green;"">","null","","","","","","","","","",""
"","image-keyboard-response","130","46352","0.0-130.0","3FFJ6VRIL2AMLMYR25TOVWP7PL10IZ","A1FKK1Q8C3BAE5","3HUR21WDDUBEMSLDIXZW1FAIHW8YX3","","86","img/food2.png","74","92","1","1","1","1","1,0.5,0,1,0.5,0,0.5,0,1","1,0.5,0,1,0.5,0,0.5,0,1","1","",""
"","html-keyboard-response","131","46654","0.0-131.0","3FFJ6VRIL2AMLMYR25TOVWP7PL10IZ","A1FKK1Q8C3BAE5","3HUR21WDDUBEMSLDIXZW1FAIHW8YX3","","null","<img src=""img/food2.png"" style=""width:200px; border:14px solid green;"">","null","","","","","","","","","",""
"","image-keyboard-response","132","46748","0.0-132.0","3FFJ6VRIL2AMLMYR25TOVWP7PL10IZ","A1FKK1Q8C3BAE5","3HUR21WDDUBEMSLDIXZW1FAIHW8YX3","","91","img/food1.png","74","94","1","1","3","1","1,0.5,0,1,0.5,0,0.5,0,1","1,0.5,0,1,0.5,0,0.5,0,1","1","",""
"","html-keyboard-response","133","47050","0.0-133.0","3FFJ6VRIL2AMLMYR25TOVWP7PL10IZ","A1FKK1Q8C3BAE5","3HUR21WDDUBEMSLDIXZW1FAIHW8YX3","","null","<img src=""img/food1.png"" style=""width:200px; border:14px solid green;"">","null","","","","","","","","","",""
"","image-keyboard-response","134","47133","0.0-134.0","3FFJ6VRIL2AMLMYR25TOVWP7PL10IZ","A1FKK1Q8C3BAE5","3HUR21WDDUBEMSLDIXZW1FAIHW8YX3","","79","img/food1.png","74","81","1","1","3","1","1,0.5,0,1,0.5,0,0.5,0,1","1,0.5,0,1,0.5,0,0.5,0,1","1","",""
"","html-keyboard-response","135","47436","0.0-135.0","3FFJ6VRIL2AMLMYR25TOVWP7PL10IZ","A1FKK1Q8C3BAE5","3HUR21WDDUBEMSLDIXZW1FAIHW8YX3","","null","<img src=""img/food1.png"" style=""width:200px; border:14px solid green;"">","null","","","","","","","","","",""
"","image-keyboard-response","136","47522","0.0-136.0","3FFJ6VRIL2AMLMYR25TOVWP7PL10IZ","A1FKK1Q8C3BAE5","3HUR21WDDUBEMSLDIXZW1FAIHW8YX3","","80","img/food3.png","74","84","1","1","2","1","1,0.5,0,1,0.5,0,0.5,0,1","1,0.5,0,1,0.5,0,0.5,0,1","1","",""
"","html-keyboard-response","137","47830","0.0-137.0","3FFJ6VRIL2AMLMYR25TOVWP7PL10IZ","A1FKK1Q8C3BAE5","3HUR21WDDUBEMSLDIXZW1FAIHW8YX3","","null","<img src=""img/food3.png"" style=""width:200px; border:14px solid green;"">","null","","","","","","","","","",""
"","image-keyboard-response","138","47922","0.0-138.0","3FFJ6VRIL2AMLMYR25TOVWP7PL10IZ","A1FKK1Q8C3BAE5","3HUR21WDDUBEMSLDIXZW1FAIHW8YX3","","90","img/food1.png","74","92","1","0","3","1","1,0.5,0,1,0.5,0,0.5,0,1","1,0.5,0,1,0.5,0,0.5,0,1","1","",""
"","html-keyboard-response","139","48225","0.0-139.0","3FFJ6VRIL2AMLMYR25TOVWP7PL10IZ","A1FKK1Q8C3BAE5","3HUR21WDDUBEMSLDIXZW1FAIHW8YX3","","null","<img src=""img/food1.png"" style=""width:200px;border:14px solid red;"">","null","","","","","","","","","",""
"","image-keyboard-response","140","48517","0.0-140.0","3FFJ6VRIL2AMLMYR25TOVWP7PL10IZ","A1FKK1Q8C3BAE5","3HUR21WDDUBEMSLDIXZW1FAIHW8YX3","","284","img/food3.png","74","285","1","1","2","1","1,0.5,0,1,0.5,0,0.5,0,1","1,0.5,0,1,0.5,0,0.5,0,1","1","",""
"","html-keyboard-response","141","48820","0.0-141.0","3FFJ6VRIL2AMLMYR25TOVWP7PL10IZ","A1FKK1Q8C3BAE5","3HUR21WDDUBEMSLDIXZW1FAIHW8YX3","","null","<img src=""img/food3.png"" style=""width:200px; border:14px solid green;"">","null","","","","","","","","","",""
"","image-keyboard-response","142","49707","0.0-142.0","3FFJ6VRIL2AMLMYR25TOVWP7PL10IZ","A1FKK1Q8C3BAE5","3HUR21WDDUBEMSLDIXZW1FAIHW8YX3","","882","img/food3.png","74","885","1","1","2","1","1,0.5,0,1,0.5,0,0.5,0,1","1,0.5,0,1,0.5,0,0.5,0,1","1","",""
"","html-keyboard-response","143","50023","0.0-143.0","3FFJ6VRIL2AMLMYR25TOVWP7PL10IZ","A1FKK1Q8C3BAE5","3HUR21WDDUBEMSLDIXZW1FAIHW8YX3","","null","<img src=""img/food3.png"" style=""width:200px; border:14px solid green;"">","null","","","","","","","","","",""
"","image-keyboard-response","144","50144","0.0-144.0","3FFJ6VRIL2AMLMYR25TOVWP7PL10IZ","A1FKK1Q8C3BAE5","3HUR21WDDUBEMSLDIXZW1FAIHW8YX3","","120","img/food1.png","74","121","1","0","3","1","1,0.5,0,1,0.5,0,0.5,0,1","1,0.5,0,1,0.5,0,0.5,0,1","1","",""
"","html-keyboard-response","145","50446","0.0-145.0","3FFJ6VRIL2AMLMYR25TOVWP7PL10IZ","A1FKK1Q8C3BAE5","3HUR21WDDUBEMSLDIXZW1FAIHW8YX3","","null","<img src=""img/food1.png"" style=""width:200px;border:14px solid red;"">","null","","","","","","","","","",""
"","image-keyboard-response","146","50805","0.0-146.0","3FFJ6VRIL2AMLMYR25TOVWP7PL10IZ","A1FKK1Q8C3BAE5","3HUR21WDDUBEMSLDIXZW1FAIHW8YX3","","356","img/food3.png","74","358","1","1","2","1","1,0.5,0,1,0.5,0,0.5,0,1","1,0.5,0,1,0.5,0,0.5,0,1","1","",""
"","html-keyboard-response","147","51108","0.0-147.0","3FFJ6VRIL2AMLMYR25TOVWP7PL10IZ","A1FKK1Q8C3BAE5","3HUR21WDDUBEMSLDIXZW1FAIHW8YX3","","null","<img src=""img/food3.png"" style=""width:200px; border:14px solid green;"">","null","","","","","","","","","",""
"","image-keyboard-response","148","51247","0.0-148.0","3FFJ6VRIL2AMLMYR25TOVWP7PL10IZ","A1FKK1Q8C3BAE5","3HUR21WDDUBEMSLDIXZW1FAIHW8YX3","","134","img/food2.png","74","137","1","1","1","1","1,0.5,0,1,0.5,0,0.5,0,1","1,0.5,0,1,0.5,0,0.5,0,1","1","",""
"","html-keyboard-response","149","51555","0.0-149.0","3FFJ6VRIL2AMLMYR25TOVWP7PL10IZ","A1FKK1Q8C3BAE5","3HUR21WDDUBEMSLDIXZW1FAIHW8YX3","","null","<img src=""img/food2.png"" style=""width:200px; border:14px solid green;"">","null","","","","","","","","","",""
"","image-keyboard-response","150","51666","0.0-150.0","3FFJ6VRIL2AMLMYR25TOVWP7PL10IZ","A1FKK1Q8C3BAE5","3HUR21WDDUBEMSLDIXZW1FAIHW8YX3","","106","img/food1.png","74","110","1","1","3","1","1,0.5,0,1,0.5,0,0.5,0,1","1,0.5,0,1,0.5,0,0.5,0,1","1","",""
"","html-keyboard-response","151","51970","0.0-151.0","3FFJ6VRIL2AMLMYR25TOVWP7PL10IZ","A1FKK1Q8C3BAE5","3HUR21WDDUBEMSLDIXZW1FAIHW8YX3","","null","<img src=""img/food1.png"" style=""width:200px; border:14px solid green;"">","null","","","","","","","","","",""
"","image-keyboard-response","152","52060","0.0-152.0","3FFJ6VRIL2AMLMYR25TOVWP7PL10IZ","A1FKK1Q8C3BAE5","3HUR21WDDUBEMSLDIXZW1FAIHW8YX3","","88","img/food2.png","74","89","1","1","1","1","1,0.5,0,1,0.5,0,0.5,0,1","1,0.5,0,1,0.5,0,0.5,0,1","1","",""
"","html-keyboard-response","153","52375","0.0-153.0","3FFJ6VRIL2AMLMYR25TOVWP7PL10IZ","A1FKK1Q8C3BAE5","3HUR21WDDUBEMSLDIXZW1FAIHW8YX3","","null","<img src=""img/food2.png"" style=""width:200px; border:14px solid green;"">","null","","","","","","","","","",""
"","image-keyboard-response","154","52707","0.0-154.0","3FFJ6VRIL2AMLMYR25TOVWP7PL10IZ","A1FKK1Q8C3BAE5","3HUR21WDDUBEMSLDIXZW1FAIHW8YX3","","330","img/food3.png","74","332","1","1","2","1","1,0.5,0,1,0.5,0,0.5,0,1","1,0.5,0,1,0.5,0,0.5,0,1","1","",""
"","html-keyboard-response","155","53010","0.0-155.0","3FFJ6VRIL2AMLMYR25TOVWP7PL10IZ","A1FKK1Q8C3BAE5","3HUR21WDDUBEMSLDIXZW1FAIHW8YX3","","null","<img src=""img/food3.png"" style=""width:200px; border:14px solid green;"">","null","","","","","","","","","",""
"","image-keyboard-response","156","53269","0.0-156.0","3FFJ6VRIL2AMLMYR25TOVWP7PL10IZ","A1FKK1Q8C3BAE5","3HUR21WDDUBEMSLDIXZW1FAIHW8YX3","","256","img/food1.png","74","258","1","0","3","1","1,0.5,0,1,0.5,0,0.5,0,1","1,0.5,0,1,0.5,0,0.5,0,1","1","",""
"","html-keyboard-response","157","53573","0.0-157.0","3FFJ6VRIL2AMLMYR25TOVWP7PL10IZ","A1FKK1Q8C3BAE5","3HUR21WDDUBEMSLDIXZW1FAIHW8YX3","","null","<img src=""img/food1.png"" style=""width:200px;border:14px solid red;"">","null","","","","","","","","","",""
"","image-keyboard-response","158","53701","0.0-158.0","3FFJ6VRIL2AMLMYR25TOVWP7PL10IZ","A1FKK1Q8C3BAE5","3HUR21WDDUBEMSLDIXZW1FAIHW8YX3","","125","img/food3.png","74","127","1","1","2","1","1,0.5,0,1,0.5,0,0.5,0,1","1,0.5,0,1,0.5,0,0.5,0,1","1","",""
"","html-keyboard-response","159","54003","0.0-159.0","3FFJ6VRIL2AMLMYR25TOVWP7PL10IZ","A1FKK1Q8C3BAE5","3HUR21WDDUBEMSLDIXZW1FAIHW8YX3","","null","<img src=""img/food3.png"" style=""width:200px; border:14px solid green;"">","null","","","","","","","","","",""
"","image-keyboard-response","160","54092","0.0-160.0","3FFJ6VRIL2AMLMYR25TOVWP7PL10IZ","A1FKK1Q8C3BAE5","3HUR21WDDUBEMSLDIXZW1FAIHW8YX3","","85","img/food2.png","74","87","1","1","1","1","1,0.5,0,1,0.5,0,0.5,0,1","1,0.5,0,1,0.5,0,0.5,0,1","1","",""
"","html-keyboard-response","161","54395","0.0-161.0","3FFJ6VRIL2AMLMYR25TOVWP7PL10IZ","A1FKK1Q8C3BAE5","3HUR21WDDUBEMSLDIXZW1FAIHW8YX3","","null","<img src=""img/food2.png"" style=""width:200px; border:14px solid green;"">","null","","","","","","","","","",""
"","image-keyboard-response","162","54491","0.0-162.0","3FFJ6VRIL2AMLMYR25TOVWP7PL10IZ","A1FKK1Q8C3BAE5","3HUR21WDDUBEMSLDIXZW1FAIHW8YX3","","95","img/food1.png","74","96","1","1","3","1","1,0.5,0,1,0.5,0,0.5,0,1","1,0.5,0,1,0.5,0,0.5,0,1","1","",""
"","html-keyboard-response","163","54795","0.0-163.0","3FFJ6VRIL2AMLMYR25TOVWP7PL10IZ","A1FKK1Q8C3BAE5","3HUR21WDDUBEMSLDIXZW1FAIHW8YX3","","null","<img src=""img/food1.png"" style=""width:200px; border:14px solid green;"">","null","","","","","","","","","",""
"","image-keyboard-response","164","54987","0.0-164.0","3FFJ6VRIL2AMLMYR25TOVWP7PL10IZ","A1FKK1Q8C3BAE5","3HUR21WDDUBEMSLDIXZW1FAIHW8YX3","","190","img/food2.png","74","191","1","1","1","1","1,0.5,0,1,0.5,0,0.5,0,1","1,0.5,0,1,0.5,0,0.5,0,1","1","",""
"","html-keyboard-response","165","55290","0.0-165.0","3FFJ6VRIL2AMLMYR25TOVWP7PL10IZ","A1FKK1Q8C3BAE5","3HUR21WDDUBEMSLDIXZW1FAIHW8YX3","","null","<img src=""img/food2.png"" style=""width:200px; border:14px solid green;"">","null","","","","","","","","","",""
"","image-keyboard-response","166","55840","0.0-166.0","3FFJ6VRIL2AMLMYR25TOVWP7PL10IZ","A1FKK1Q8C3BAE5","3HUR21WDDUBEMSLDIXZW1FAIHW8YX3","","547","img/food2.png","74","550","1","1","1","1","1,0.5,0,1,0.5,0,0.5,0,1","1,0.5,0,1,0.5,0,0.5,0,1","1","",""
"","html-keyboard-response","167","56218","0.0-167.0","3FFJ6VRIL2AMLMYR25TOVWP7PL10IZ","A1FKK1Q8C3BAE5","3HUR21WDDUBEMSLDIXZW1FAIHW8YX3","","null","<img src=""img/food2.png"" style=""width:200px; border:14px solid green;"">","null","","","","","","","","","",""
"","image-keyboard-response","168","56612","0.0-168.0","3FFJ6VRIL2AMLMYR25TOVWP7PL10IZ","A1FKK1Q8C3BAE5","3HUR21WDDUBEMSLDIXZW1FAIHW8YX3","","393","img/food1.png","74","394","1","1","3","1","1,0.5,0,1,0.5,0,0.5,0,1","1,0.5,0,1,0.5,0,0.5,0,1","1","",""
"","html-keyboard-response","169","56937","0.0-169.0","3FFJ6VRIL2AMLMYR25TOVWP7PL10IZ","A1FKK1Q8C3BAE5","3HUR21WDDUBEMSLDIXZW1FAIHW8YX3","","null","<img src=""img/food1.png"" style=""width:200px; border:14px solid green;"">","null","","","","","","","","","",""
"","image-keyboard-response","170","57331","0.0-170.0","3FFJ6VRIL2AMLMYR25TOVWP7PL10IZ","A1FKK1Q8C3BAE5","3HUR21WDDUBEMSLDIXZW1FAIHW8YX3","","393","img/food1.png","74","393","1","0","3","1","1,0.5,0,1,0.5,0,0.5,0,1","1,0.5,0,1,0.5,0,0.5,0,1","1","",""
"","html-keyboard-response","171","57636","0.0-171.0","3FFJ6VRIL2AMLMYR25TOVWP7PL10IZ","A1FKK1Q8C3BAE5","3HUR21WDDUBEMSLDIXZW1FAIHW8YX3","","null","<img src=""img/food1.png"" style=""width:200px;border:14px solid red;"">","null","","","","","","","","","",""
"","image-keyboard-response","172","57959","0.0-172.0","3FFJ6VRIL2AMLMYR25TOVWP7PL10IZ","A1FKK1Q8C3BAE5","3HUR21WDDUBEMSLDIXZW1FAIHW8YX3","","321","img/food1.png","74","322","1","0","3","1","1,0.5,0,1,0.5,0,0.5,0,1","1,0.5,0,1,0.5,0,0.5,0,1","1","",""
"","html-keyboard-response","173","58260","0.0-173.0","3FFJ6VRIL2AMLMYR25TOVWP7PL10IZ","A1FKK1Q8C3BAE5","3HUR21WDDUBEMSLDIXZW1FAIHW8YX3","","null","<img src=""img/food1.png"" style=""width:200px;border:14px solid red;"">","null","","","","","","","","","",""
"","image-keyboard-response","174","58430","0.0-174.0","3FFJ6VRIL2AMLMYR25TOVWP7PL10IZ","A1FKK1Q8C3BAE5","3HUR21WDDUBEMSLDIXZW1FAIHW8YX3","","168","img/food1.png","74","169","1","0","3","1","1,0.5,0,1,0.5,0,0.5,0,1","1,0.5,0,1,0.5,0,0.5,0,1","1","",""
"","html-keyboard-response","175","58733","0.0-175.0","3FFJ6VRIL2AMLMYR25TOVWP7PL10IZ","A1FKK1Q8C3BAE5","3HUR21WDDUBEMSLDIXZW1FAIHW8YX3","","null","<img src=""img/food1.png"" style=""width:200px;border:14px solid red;"">","null","","","","","","","","","",""
"","image-keyboard-response","176","58825","0.0-176.0","3FFJ6VRIL2AMLMYR25TOVWP7PL10IZ","A1FKK1Q8C3BAE5","3HUR21WDDUBEMSLDIXZW1FAIHW8YX3","","82","img/food3.png","74","88","1","1","2","1","1,0.5,0,1,0.5,0,0.5,0,1","1,0.5,0,1,0.5,0,0.5,0,1","1","",""
"","html-keyboard-response","177","59128","0.0-177.0","3FFJ6VRIL2AMLMYR25TOVWP7PL10IZ","A1FKK1Q8C3BAE5","3HUR21WDDUBEMSLDIXZW1FAIHW8YX3","","null","<img src=""img/food3.png"" style=""width:200px; border:14px solid green;"">","null","","","","","","","","","",""
"","image-keyboard-response","178","59286","0.0-178.0","3FFJ6VRIL2AMLMYR25TOVWP7PL10IZ","A1FKK1Q8C3BAE5","3HUR21WDDUBEMSLDIXZW1FAIHW8YX3","","152","img/food2.png","74","157","1","1","1","1","1,0.5,0,1,0.5,0,0.5,0,1","1,0.5,0,1,0.5,0,0.5,0,1","1","",""
"","html-keyboard-response","179","59596","0.0-179.0","3FFJ6VRIL2AMLMYR25TOVWP7PL10IZ","A1FKK1Q8C3BAE5","3HUR21WDDUBEMSLDIXZW1FAIHW8YX3","","null","<img src=""img/food2.png"" style=""width:200px; border:14px solid green;"">","null","","","","","","","","","",""
"","image-keyboard-response","180","59695","0.0-180.0","3FFJ6VRIL2AMLMYR25TOVWP7PL10IZ","A1FKK1Q8C3BAE5","3HUR21WDDUBEMSLDIXZW1FAIHW8YX3","","96","img/food2.png","74","97","1","1","1","1","1,0.5,0,1,0.5,0,0.5,0,1","1,0.5,0,1,0.5,0,0.5,0,1","1","",""
"","html-keyboard-response","181","59998","0.0-181.0","3FFJ6VRIL2AMLMYR25TOVWP7PL10IZ","A1FKK1Q8C3BAE5","3HUR21WDDUBEMSLDIXZW1FAIHW8YX3","","null","<img src=""img/food2.png"" style=""width:200px; border:14px solid green;"">","null","","","","","","","","","",""
"","html-keyboard-response","182","62460","0.0-182.0","3FFJ6VRIL2AMLMYR25TOVWP7PL10IZ","A1FKK1Q8C3BAE5","3HUR21WDDUBEMSLDIXZW1FAIHW8YX3","","","","","","","","","","","","","",""
"","instructions","183","64696","0.0-183.0","3FFJ6VRIL2AMLMYR25TOVWP7PL10IZ","A1FKK1Q8C3BAE5","3HUR21WDDUBEMSLDIXZW1FAIHW8YX3","[{""page_index"":0,""viewing_time"":1277},{""page_index"":1,""viewing_time"":957}]","2234","","","","","","","","","","","",""
"","image-keyboard-response","184","65419","0.0-184.0","3FFJ6VRIL2AMLMYR25TOVWP7PL10IZ","A1FKK1Q8C3BAE5","3HUR21WDDUBEMSLDIXZW1FAIHW8YX3","","719","img/food4.png","74","723","1","1","1","2","1,0.5,0,1,0.5,0,0.5,0,1","1,0.5,0,1,0.5,0,0.5,0,1","1","false",""
"","html-keyboard-response","185","65724","0.0-185.0","3FFJ6VRIL2AMLMYR25TOVWP7PL10IZ","A1FKK1Q8C3BAE5","3HUR21WDDUBEMSLDIXZW1FAIHW8YX3","","null","<img src=""img/food4.png"" style=""width:200px; border:14px solid green;"">","null","","","","","","","","","",""
"","image-keyboard-response","186","65872","0.0-187.0","3FFJ6VRIL2AMLMYR25TOVWP7PL10IZ","A1FKK1Q8C3BAE5","3HUR21WDDUBEMSLDIXZW1FAIHW8YX3","","141","img/food6.png","74","145","1","1","2","2","1,0.5,0,1,0.5,0,0.5,0,1","1,0.5,0,1,0.5,0,0.5,0,1","1","false",""
"","html-keyboard-response","187","66176","0.0-188.0","3FFJ6VRIL2AMLMYR25TOVWP7PL10IZ","A1FKK1Q8C3BAE5","3HUR21WDDUBEMSLDIXZW1FAIHW8YX3","","null","<img src=""img/food6.png"" style=""width:200px; border:14px solid green;"">","null","","","","","","","","","",""
"","image-keyboard-response","188","66265","0.0-190.0","3FFJ6VRIL2AMLMYR25TOVWP7PL10IZ","A1FKK1Q8C3BAE5","3HUR21WDDUBEMSLDIXZW1FAIHW8YX3","","85","img/food5.png","74","86","1","0","3","2","1,0.5,0,1,0.5,0,0.5,0,1","1,0.5,0,1,0.5,0,0.5,0,1","1","false",""
"","html-keyboard-response","189","66569","0.0-191.0","3FFJ6VRIL2AMLMYR25TOVWP7PL10IZ","A1FKK1Q8C3BAE5","3HUR21WDDUBEMSLDIXZW1FAIHW8YX3","","null","<img src=""img/food5.png"" style=""width:200px;border:14px solid red;"">","null","","","","","","","","","",""
"","image-keyboard-response","190","66702","0.0-193.0","3FFJ6VRIL2AMLMYR25TOVWP7PL10IZ","A1FKK1Q8C3BAE5","3HUR21WDDUBEMSLDIXZW1FAIHW8YX3","","129","img/food4.png","74","133","1","1","1","2","1,0.5,0,1,0.5,0,0.5,0,1","1,0.5,0,1,0.5,0,0.5,0,1","1","false",""
"","html-keyboard-response","191","67010","0.0-194.0","3FFJ6VRIL2AMLMYR25TOVWP7PL10IZ","A1FKK1Q8C3BAE5","3HUR21WDDUBEMSLDIXZW1FAIHW8YX3","","null","<img src=""img/food4.png"" style=""width:200px; border:14px solid green;"">","null","","","","","","","","","",""
"","image-keyboard-response","192","67140","0.0-196.0","3FFJ6VRIL2AMLMYR25TOVWP7PL10IZ","A1FKK1Q8C3BAE5","3HUR21WDDUBEMSLDIXZW1FAIHW8YX3","","127","img/food4.png","74","129","1","1","1","2","1,0.5,0,1,0.5,0,0.5,0,1","1,0.5,0,1,0.5,0,0.5,0,1","1","false",""
"","html-keyboard-response","193","67445","0.0-197.0","3FFJ6VRIL2AMLMYR25TOVWP7PL10IZ","A1FKK1Q8C3BAE5","3HUR21WDDUBEMSLDIXZW1FAIHW8YX3","","null","<img src=""img/food4.png"" style=""width:200px; border:14px solid green;"">","null","","","","","","","","","",""
"","image-keyboard-response","194","67577","0.0-199.0","3FFJ6VRIL2AMLMYR25TOVWP7PL10IZ","A1FKK1Q8C3BAE5","3HUR21WDDUBEMSLDIXZW1FAIHW8YX3","","130","img/food5.png","74","131","1","1","3","2","1,0.5,0,1,0.5,0,0.5,0,1","1,0.5,0,1,0.5,0,0.5,0,1","1","false",""
"","html-keyboard-response","195","67881","0.0-200.0","3FFJ6VRIL2AMLMYR25TOVWP7PL10IZ","A1FKK1Q8C3BAE5","3HUR21WDDUBEMSLDIXZW1FAIHW8YX3","","null","<img src=""img/food5.png"" style=""width:200px; border:14px solid green;"">","null","","","","","","","","","",""
"","image-keyboard-response","196","67945","0.0-202.0","3FFJ6VRIL2AMLMYR25TOVWP7PL10IZ","A1FKK1Q8C3BAE5","3HUR21WDDUBEMSLDIXZW1FAIHW8YX3","","61","img/food6.png","74","63","1","1","2","2","1,0.5,0,1,0.5,0,0.5,0,1","1,0.5,0,1,0.5,0,0.5,0,1","1","false",""
"","html-keyboard-response","197","68247","0.0-203.0","3FFJ6VRIL2AMLMYR25TOVWP7PL10IZ","A1FKK1Q8C3BAE5","3HUR21WDDUBEMSLDIXZW1FAIHW8YX3","","null","<img src=""img/food6.png"" style=""width:200px; border:14px solid green;"">","null","","","","","","","","","",""
"","image-keyboard-response","198","68501","0.0-205.0","3FFJ6VRIL2AMLMYR25TOVWP7PL10IZ","A1FKK1Q8C3BAE5","3HUR21WDDUBEMSLDIXZW1FAIHW8YX3","","252","img/food5.png","74","252","1","1","3","2","1,0.5,0,1,0.5,0,0.5,0,1","1,0.5,0,1,0.5,0,0.5,0,1","1","false",""
"","html-keyboard-response","199","68807","0.0-206.0","3FFJ6VRIL2AMLMYR25TOVWP7PL10IZ","A1FKK1Q8C3BAE5","3HUR21WDDUBEMSLDIXZW1FAIHW8YX3","","null","<img src=""img/food5.png"" style=""width:200px; border:14px solid green;"">","null","","","","","","","","","",""
"","image-keyboard-response","200","69248","0.0-208.0","3FFJ6VRIL2AMLMYR25TOVWP7PL10IZ","A1FKK1Q8C3BAE5","3HUR21WDDUBEMSLDIXZW1FAIHW8YX3","","438","img/food6.png","74","439","1","1","2","2","1,0.5,0,1,0.5,0,0.5,0,1","1,0.5,0,1,0.5,0,0.5,0,1","1","false",""
"","html-keyboard-response","201","69631","0.0-209.0","3FFJ6VRIL2AMLMYR25TOVWP7PL10IZ","A1FKK1Q8C3BAE5","3HUR21WDDUBEMSLDIXZW1FAIHW8YX3","","null","<img src=""img/food6.png"" style=""width:200px; border:14px solid green;"">","null","","","","","","","","","",""
"","image-keyboard-response","202","69654","0.0-211.0","3FFJ6VRIL2AMLMYR25TOVWP7PL10IZ","A1FKK1Q8C3BAE5","3HUR21WDDUBEMSLDIXZW1FAIHW8YX3","","20","img/food4.png","74","21","1","1","1","2","1,0.5,0,1,0.5,0,0.5,0,1","1,0.5,0,1,0.5,0,0.5,0,1","1","false",""
"","html-keyboard-response","203","69957","0.0-212.0","3FFJ6VRIL2AMLMYR25TOVWP7PL10IZ","A1FKK1Q8C3BAE5","3HUR21WDDUBEMSLDIXZW1FAIHW8YX3","","null","<img src=""img/food4.png"" style=""width:200px; border:14px solid green;"">","null","","","","","","","","","",""
"","image-keyboard-response","204","70047","0.0-214.0","3FFJ6VRIL2AMLMYR25TOVWP7PL10IZ","A1FKK1Q8C3BAE5","3HUR21WDDUBEMSLDIXZW1FAIHW8YX3","","82","img/food6.png","74","85","1","1","2","2","1,0.5,0,1,0.5,0,0.5,0,1","1,0.5,0,1,0.5,0,0.5,0,1","1","false",""
"","html-keyboard-response","205","70351","0.0-215.0","3FFJ6VRIL2AMLMYR25TOVWP7PL10IZ","A1FKK1Q8C3BAE5","3HUR21WDDUBEMSLDIXZW1FAIHW8YX3","","null","<img src=""img/food6.png"" style=""width:200px; border:14px solid green;"">","null","","","","","","","","","",""
"","image-keyboard-response","206","70418","0.0-217.0","3FFJ6VRIL2AMLMYR25TOVWP7PL10IZ","A1FKK1Q8C3BAE5","3HUR21WDDUBEMSLDIXZW1FAIHW8YX3","","61","img/food6.png","74","63","1","1","2","2","1,0.5,0,1,0.5,0,0.5,0,1","1,0.5,0,1,0.5,0,0.5,0,1","1","false",""
"","html-keyboard-response","207","70723","0.0-218.0","3FFJ6VRIL2AMLMYR25TOVWP7PL10IZ","A1FKK1Q8C3BAE5","3HUR21WDDUBEMSLDIXZW1FAIHW8YX3","","null","<img src=""img/food6.png"" style=""width:200px; border:14px solid green;"">","null","","","","","","","","","",""
"","image-keyboard-response","208","70822","0.0-220.0","3FFJ6VRIL2AMLMYR25TOVWP7PL10IZ","A1FKK1Q8C3BAE5","3HUR21WDDUBEMSLDIXZW1FAIHW8YX3","","97","img/food5.png","74","99","1","1","3","2","1,0.5,0,1,0.5,0,0.5,0,1","1,0.5,0,1,0.5,0,0.5,0,1","1","false",""
"","html-keyboard-response","209","71124","0.0-221.0","3FFJ6VRIL2AMLMYR25TOVWP7PL10IZ","A1FKK1Q8C3BAE5","3HUR21WDDUBEMSLDIXZW1FAIHW8YX3","","null","<img src=""img/food5.png"" style=""width:200px; border:14px solid green;"">","null","","","","","","","","","",""
"","image-keyboard-response","210","71175","0.0-223.0","3FFJ6VRIL2AMLMYR25TOVWP7PL10IZ","A1FKK1Q8C3BAE5","3HUR21WDDUBEMSLDIXZW1FAIHW8YX3","","48","img/food4.png","74","50","1","1","1","2","1,0.5,0,1,0.5,0,0.5,0,1","1,0.5,0,1,0.5,0,0.5,0,1","1","false",""
"","html-keyboard-response","211","71479","0.0-224.0","3FFJ6VRIL2AMLMYR25TOVWP7PL10IZ","A1FKK1Q8C3BAE5","3HUR21WDDUBEMSLDIXZW1FAIHW8YX3","","null","<img src=""img/food4.png"" style=""width:200px; border:14px solid green;"">","null","","","","","","","","","",""
"","image-keyboard-response","212","71572","0.0-226.0","3FFJ6VRIL2AMLMYR25TOVWP7PL10IZ","A1FKK1Q8C3BAE5","3HUR21WDDUBEMSLDIXZW1FAIHW8YX3","","90","img/food6.png","74","92","1","1","2","2","1,0.5,0,1,0.5,0,0.5,0,1","1,0.5,0,1,0.5,0,0.5,0,1","1","false",""
"","html-keyboard-response","213","71875","0.0-227.0","3FFJ6VRIL2AMLMYR25TOVWP7PL10IZ","A1FKK1Q8C3BAE5","3HUR21WDDUBEMSLDIXZW1FAIHW8YX3","","null","<img src=""img/food6.png"" style=""width:200px; border:14px solid green;"">","null","","","","","","","","","",""
"","image-keyboard-response","214","71972","0.0-229.0","3FFJ6VRIL2AMLMYR25TOVWP7PL10IZ","A1FKK1Q8C3BAE5","3HUR21WDDUBEMSLDIXZW1FAIHW8YX3","","93","img/food4.png","74","94","1","1","1","2","1,0.5,0,1,0.5,0,0.5,0,1","1,0.5,0,1,0.5,0,0.5,0,1","1","false",""
"","html-keyboard-response","215","72278","0.0-230.0","3FFJ6VRIL2AMLMYR25TOVWP7PL10IZ","A1FKK1Q8C3BAE5","3HUR21WDDUBEMSLDIXZW1FAIHW8YX3","","null","<img src=""img/food4.png"" style=""width:200px; border:14px solid green;"">","null","","","","","","","","","",""
"","image-keyboard-response","216","72399","0.0-232.0","3FFJ6VRIL2AMLMYR25TOVWP7PL10IZ","A1FKK1Q8C3BAE5","3HUR21WDDUBEMSLDIXZW1FAIHW8YX3","","107","img/food4.png","74","118","1","1","1","2","1,0.5,0,1,0.5,0,0.5,0,1","1,0.5,0,1,0.5,0,0.5,0,1","1","false",""
"","html-keyboard-response","217","72703","0.0-233.0","3FFJ6VRIL2AMLMYR25TOVWP7PL10IZ","A1FKK1Q8C3BAE5","3HUR21WDDUBEMSLDIXZW1FAIHW8YX3","","null","<img src=""img/food4.png"" style=""width:200px; border:14px solid green;"">","null","","","","","","","","","",""
"","image-keyboard-response","218","72821","0.0-235.0","3FFJ6VRIL2AMLMYR25TOVWP7PL10IZ","A1FKK1Q8C3BAE5","3HUR21WDDUBEMSLDIXZW1FAIHW8YX3","","115","img/food4.png","74","116","1","1","1","2","1,0.5,0,1,0.5,0,0.5,0,1","1,0.5,0,1,0.5,0,0.5,0,1","1","false",""
"","html-keyboard-response","219","73125","0.0-236.0","3FFJ6VRIL2AMLMYR25TOVWP7PL10IZ","A1FKK1Q8C3BAE5","3HUR21WDDUBEMSLDIXZW1FAIHW8YX3","","null","<img src=""img/food4.png"" style=""width:200px; border:14px solid green;"">","null","","","","","","","","","",""
"","image-keyboard-response","220","73229","0.0-238.0","3FFJ6VRIL2AMLMYR25TOVWP7PL10IZ","A1FKK1Q8C3BAE5","3HUR21WDDUBEMSLDIXZW1FAIHW8YX3","","100","img/food6.png","74","102","1","1","2","2","1,0.5,0,1,0.5,0,0.5,0,1","1,0.5,0,1,0.5,0,0.5,0,1","1","false",""
"","html-keyboard-response","221","73531","0.0-239.0","3FFJ6VRIL2AMLMYR25TOVWP7PL10IZ","A1FKK1Q8C3BAE5","3HUR21WDDUBEMSLDIXZW1FAIHW8YX3","","null","<img src=""img/food6.png"" style=""width:200px; border:14px solid green;"">","null","","","","","","","","","",""
"","image-keyboard-response","222","73628","0.0-241.0","3FFJ6VRIL2AMLMYR25TOVWP7PL10IZ","A1FKK1Q8C3BAE5","3HUR21WDDUBEMSLDIXZW1FAIHW8YX3","","93","img/food6.png","74","97","1","1","2","2","1,0.5,0,1,0.5,0,0.5,0,1","1,0.5,0,1,0.5,0,0.5,0,1","1","false",""
"","html-keyboard-response","223","73932","0.0-242.0","3FFJ6VRIL2AMLMYR25TOVWP7PL10IZ","A1FKK1Q8C3BAE5","3HUR21WDDUBEMSLDIXZW1FAIHW8YX3","","null","<img src=""img/food6.png"" style=""width:200px; border:14px solid green;"">","null","","","","","","","","","",""
"","image-keyboard-response","224","74051","0.0-244.0","3FFJ6VRIL2AMLMYR25TOVWP7PL10IZ","A1FKK1Q8C3BAE5","3HUR21WDDUBEMSLDIXZW1FAIHW8YX3","","111","img/food4.png","74","113","1","1","1","2","1,0.5,0,1,0.5,0,0.5,0,1","1,0.5,0,1,0.5,0,0.5,0,1","1","false",""
"","html-keyboard-response","225","74354","0.0-245.0","3FFJ6VRIL2AMLMYR25TOVWP7PL10IZ","A1FKK1Q8C3BAE5","3HUR21WDDUBEMSLDIXZW1FAIHW8YX3","","null","<img src=""img/food4.png"" style=""width:200px; border:14px solid green;"">","null","","","","","","","","","",""
"","image-keyboard-response","226","74480","0.0-247.0","3FFJ6VRIL2AMLMYR25TOVWP7PL10IZ","A1FKK1Q8C3BAE5","3HUR21WDDUBEMSLDIXZW1FAIHW8YX3","","117","img/food6.png","74","124","1","1","2","2","1,0.5,0,1,0.5,0,0.5,0,1","1,0.5,0,1,0.5,0,0.5,0,1","1","false",""
"","html-keyboard-response","227","74788","0.0-248.0","3FFJ6VRIL2AMLMYR25TOVWP7PL10IZ","A1FKK1Q8C3BAE5","3HUR21WDDUBEMSLDIXZW1FAIHW8YX3","","null","<img src=""img/food6.png"" style=""width:200px; border:14px solid green;"">","null","","","","","","","","","",""
"","image-keyboard-response","228","74894","0.0-250.0","3FFJ6VRIL2AMLMYR25TOVWP7PL10IZ","A1FKK1Q8C3BAE5","3HUR21WDDUBEMSLDIXZW1FAIHW8YX3","","100","img/food5.png","74","104","1","1","3","2","1,0.5,0,1,0.5,0,0.5,0,1","1,0.5,0,1,0.5,0,0.5,0,1","1","false",""
"","html-keyboard-response","229","75197","0.0-251.0","3FFJ6VRIL2AMLMYR25TOVWP7PL10IZ","A1FKK1Q8C3BAE5","3HUR21WDDUBEMSLDIXZW1FAIHW8YX3","","null","<img src=""img/food5.png"" style=""width:200px; border:14px solid green;"">","null","","","","","","","","","",""
"","image-keyboard-response","230","75283","0.0-253.0","3FFJ6VRIL2AMLMYR25TOVWP7PL10IZ","A1FKK1Q8C3BAE5","3HUR21WDDUBEMSLDIXZW1FAIHW8YX3","","83","img/food4.png","74","85","1","1","1","2","1,0.5,0,1,0.5,0,0.5,0,1","1,0.5,0,1,0.5,0,0.5,0,1","1","false",""
"","html-keyboard-response","231","75585","0.0-254.0","3FFJ6VRIL2AMLMYR25TOVWP7PL10IZ","A1FKK1Q8C3BAE5","3HUR21WDDUBEMSLDIXZW1FAIHW8YX3","","null","<img src=""img/food4.png"" style=""width:200px; border:14px solid green;"">","null","","","","","","","","","",""
"","image-keyboard-response","232","75710","0.0-256.0","3FFJ6VRIL2AMLMYR25TOVWP7PL10IZ","A1FKK1Q8C3BAE5","3HUR21WDDUBEMSLDIXZW1FAIHW8YX3","","118","img/food5.png","74","121","1","0","3","2","1,0.5,0,1,0.5,0,0.5,0,1","1,0.5,0,1,0.5,0,0.5,0,1","1","false",""
"","html-keyboard-response","233","76022","0.0-257.0","3FFJ6VRIL2AMLMYR25TOVWP7PL10IZ","A1FKK1Q8C3BAE5","3HUR21WDDUBEMSLDIXZW1FAIHW8YX3","","null","<img src=""img/food5.png"" style=""width:200px;border:14px solid red;"">","null","","","","","","","","","",""
"","image-keyboard-response","234","76195","0.0-259.0","3FFJ6VRIL2AMLMYR25TOVWP7PL10IZ","A1FKK1Q8C3BAE5","3HUR21WDDUBEMSLDIXZW1FAIHW8YX3","","170","img/food4.png","74","171","1","1","1","2","1,0.5,0,1,0.5,0,0.5,0,1","1,0.5,0,1,0.5,0,0.5,0,1","1","false",""
"","html-keyboard-response","235","76499","0.0-260.0","3FFJ6VRIL2AMLMYR25TOVWP7PL10IZ","A1FKK1Q8C3BAE5","3HUR21WDDUBEMSLDIXZW1FAIHW8YX3","","null","<img src=""img/food4.png"" style=""width:200px; border:14px solid green;"">","null","","","","","","","","","",""
"","image-keyboard-response","236","76579","0.0-262.0","3FFJ6VRIL2AMLMYR25TOVWP7PL10IZ","A1FKK1Q8C3BAE5","3HUR21WDDUBEMSLDIXZW1FAIHW8YX3","","77","img/food4.png","74","78","1","1","1","2","1,0.5,0,1,0.5,0,0.5,0,1","1,0.5,0,1,0.5,0,0.5,0,1","1","false",""
"","html-keyboard-response","237","76885","0.0-263.0","3FFJ6VRIL2AMLMYR25TOVWP7PL10IZ","A1FKK1Q8C3BAE5","3HUR21WDDUBEMSLDIXZW1FAIHW8YX3","","null","<img src=""img/food4.png"" style=""width:200px; border:14px solid green;"">","null","","","","","","","","","",""
"","image-keyboard-response","238","77004","0.0-265.0","3FFJ6VRIL2AMLMYR25TOVWP7PL10IZ","A1FKK1Q8C3BAE5","3HUR21WDDUBEMSLDIXZW1FAIHW8YX3","","116","img/food5.png","74","118","1","0","3","2","1,0.5,0,1,0.5,0,0.5,0,1","1,0.5,0,1,0.5,0,0.5,0,1","1","false",""
"","html-keyboard-response","239","77307","0.0-266.0","3FFJ6VRIL2AMLMYR25TOVWP7PL10IZ","A1FKK1Q8C3BAE5","3HUR21WDDUBEMSLDIXZW1FAIHW8YX3","","null","<img src=""img/food5.png"" style=""width:200px;border:14px solid red;"">","null","","","","","","","","","",""
"","image-keyboard-response","240","77459","0.0-268.0","3FFJ6VRIL2AMLMYR25TOVWP7PL10IZ","A1FKK1Q8C3BAE5","3HUR21WDDUBEMSLDIXZW1FAIHW8YX3","","146","img/food6.png","74","148","1","1","2","2","1,0.5,0,1,0.5,0,0.5,0,1","1,0.5,0,1,0.5,0,0.5,0,1","1","false",""
"","html-keyboard-response","241","77762","0.0-269.0","3FFJ6VRIL2AMLMYR25TOVWP7PL10IZ","A1FKK1Q8C3BAE5","3HUR21WDDUBEMSLDIXZW1FAIHW8YX3","","null","<img src=""img/food6.png"" style=""width:200px; border:14px solid green;"">","null","","","","","","","","","",""
"","image-keyboard-response","242","77872","0.0-271.0","3FFJ6VRIL2AMLMYR25TOVWP7PL10IZ","A1FKK1Q8C3BAE5","3HUR21WDDUBEMSLDIXZW1FAIHW8YX3","","106","img/food4.png","74","108","1","1","1","2","1,0.5,0,1,0.5,0,0.5,0,1","1,0.5,0,1,0.5,0,0.5,0,1","1","false",""
"","html-keyboard-response","243","78178","0.0-272.0","3FFJ6VRIL2AMLMYR25TOVWP7PL10IZ","A1FKK1Q8C3BAE5","3HUR21WDDUBEMSLDIXZW1FAIHW8YX3","","null","<img src=""img/food4.png"" style=""width:200px; border:14px solid green;"">","null","","","","","","","","","",""
"","image-keyboard-response","244","78330","0.0-274.0","3FFJ6VRIL2AMLMYR25TOVWP7PL10IZ","A1FKK1Q8C3BAE5","3HUR21WDDUBEMSLDIXZW1FAIHW8YX3","","148","img/food6.png","74","150","1","1","2","2","1,0.5,0,1,0.5,0,0.5,0,1","1,0.5,0,1,0.5,0,0.5,0,1","1","false",""
"","html-keyboard-response","245","78634","0.0-275.0","3FFJ6VRIL2AMLMYR25TOVWP7PL10IZ","A1FKK1Q8C3BAE5","3HUR21WDDUBEMSLDIXZW1FAIHW8YX3","","null","<img src=""img/food6.png"" style=""width:200px; border:14px solid green;"">","null","","","","","","","","","",""
"","image-keyboard-response","246","78987","0.0-277.0","3FFJ6VRIL2AMLMYR25TOVWP7PL10IZ","A1FKK1Q8C3BAE5","3HUR21WDDUBEMSLDIXZW1FAIHW8YX3","","350","img/food5.png","74","352","1","1","3","2","1,0.5,0,1,0.5,0,0.5,0,1","1,0.5,0,1,0.5,0,0.5,0,1","1","false",""
"","html-keyboard-response","247","79290","0.0-278.0","3FFJ6VRIL2AMLMYR25TOVWP7PL10IZ","A1FKK1Q8C3BAE5","3HUR21WDDUBEMSLDIXZW1FAIHW8YX3","","null","<img src=""img/food5.png"" style=""width:200px; border:14px solid green;"">","null","","","","","","","","","",""
"","image-keyboard-response","248","79385","0.0-280.0","3FFJ6VRIL2AMLMYR25TOVWP7PL10IZ","A1FKK1Q8C3BAE5","3HUR21WDDUBEMSLDIXZW1FAIHW8YX3","","89","img/food5.png","74","92","1","0","3","2","1,0.5,0,1,0.5,0,0.5,0,1","1,0.5,0,1,0.5,0,0.5,0,1","1","false",""
"","html-keyboard-response","249","79689","0.0-281.0","3FFJ6VRIL2AMLMYR25TOVWP7PL10IZ","A1FKK1Q8C3BAE5","3HUR21WDDUBEMSLDIXZW1FAIHW8YX3","","null","<img src=""img/food5.png"" style=""width:200px;border:14px solid red;"">","null","","","","","","","","","",""
"","image-keyboard-response","250","79730","0.0-283.0","3FFJ6VRIL2AMLMYR25TOVWP7PL10IZ","A1FKK1Q8C3BAE5","3HUR21WDDUBEMSLDIXZW1FAIHW8YX3","","33","img/food5.png","74","37","1","0","3","2","1,0.5,0,1,0.5,0,0.5,0,1","1,0.5,0,1,0.5,0,0.5,0,1","1","false",""
"","html-keyboard-response","251","80042","0.0-284.0","3FFJ6VRIL2AMLMYR25TOVWP7PL10IZ","A1FKK1Q8C3BAE5","3HUR21WDDUBEMSLDIXZW1FAIHW8YX3","","null","<img src=""img/food5.png"" style=""width:200px;border:14px solid red;"">","null","","","","","","","","","",""
"","image-keyboard-response","252","80126","0.0-286.0","3FFJ6VRIL2AMLMYR25TOVWP7PL10IZ","A1FKK1Q8C3BAE5","3HUR21WDDUBEMSLDIXZW1FAIHW8YX3","","76","img/food4.png","74","80","1","1","1","2","1,0.5,0,1,0.5,0,0.5,0,1","1,0.5,0,1,0.5,0,0.5,0,1","1","false",""
"","html-keyboard-response","253","80428","0.0-287.0","3FFJ6VRIL2AMLMYR25TOVWP7PL10IZ","A1FKK1Q8C3BAE5","3HUR21WDDUBEMSLDIXZW1FAIHW8YX3","","null","<img src=""img/food4.png"" style=""width:200px; border:14px solid green;"">","null","","","","","","","","","",""
"","image-keyboard-response","254","80483","0.0-289.0","3FFJ6VRIL2AMLMYR25TOVWP7PL10IZ","A1FKK1Q8C3BAE5","3HUR21WDDUBEMSLDIXZW1FAIHW8YX3","","52","img/food4.png","74","54","1","1","1","2","1,0.5,0,1,0.5,0,0.5,0,1","1,0.5,0,1,0.5,0,0.5,0,1","1","false",""
"","html-keyboard-response","255","80787","0.0-290.0","3FFJ6VRIL2AMLMYR25TOVWP7PL10IZ","A1FKK1Q8C3BAE5","3HUR21WDDUBEMSLDIXZW1FAIHW8YX3","","null","<img src=""img/food4.png"" style=""width:200px; border:14px solid green;"">","null","","","","","","","","","",""
"","image-keyboard-response","256","80918","0.0-292.0","3FFJ6VRIL2AMLMYR25TOVWP7PL10IZ","A1FKK1Q8C3BAE5","3HUR21WDDUBEMSLDIXZW1FAIHW8YX3","","128","img/food6.png","74","130","1","1","2","2","1,0.5,0,1,0.5,0,0.5,0,1","1,0.5,0,1,0.5,0,0.5,0,1","1","false",""
"","html-keyboard-response","257","81222","0.0-293.0","3FFJ6VRIL2AMLMYR25TOVWP7PL10IZ","A1FKK1Q8C3BAE5","3HUR21WDDUBEMSLDIXZW1FAIHW8YX3","","null","<img src=""img/food6.png"" style=""width:200px; border:14px solid green;"">","null","","","","","","","","","",""
"","image-keyboard-response","258","81477","0.0-295.0","3FFJ6VRIL2AMLMYR25TOVWP7PL10IZ","A1FKK1Q8C3BAE5","3HUR21WDDUBEMSLDIXZW1FAIHW8YX3","","251","img/food5.png","74","253","1","0","3","2","1,0.5,0,1,0.5,0,0.5,0,1","1,0.5,0,1,0.5,0,0.5,0,1","1","false",""
"","html-keyboard-response","259","81779","0.0-296.0","3FFJ6VRIL2AMLMYR25TOVWP7PL10IZ","A1FKK1Q8C3BAE5","3HUR21WDDUBEMSLDIXZW1FAIHW8YX3","","null","<img src=""img/food5.png"" style=""width:200px;border:14px solid red;"">","null","","","","","","","","","",""
"","image-keyboard-response","260","81807","0.0-298.0","3FFJ6VRIL2AMLMYR25TOVWP7PL10IZ","A1FKK1Q8C3BAE5","3HUR21WDDUBEMSLDIXZW1FAIHW8YX3","","24","img/food4.png","74","28","1","1","1","2","1,0.5,0,1,0.5,0,0.5,0,1","1,0.5,0,1,0.5,0,0.5,0,1","1","false",""
"","html-keyboard-response","261","82112","0.0-299.0","3FFJ6VRIL2AMLMYR25TOVWP7PL10IZ","A1FKK1Q8C3BAE5","3HUR21WDDUBEMSLDIXZW1FAIHW8YX3","","null","<img src=""img/food4.png"" style=""width:200px; border:14px solid green;"">","null","","","","","","","","","",""
"","image-keyboard-response","262","82463","0.0-301.0","3FFJ6VRIL2AMLMYR25TOVWP7PL10IZ","A1FKK1Q8C3BAE5","3HUR21WDDUBEMSLDIXZW1FAIHW8YX3","","348","img/food5.png","74","350","1","1","3","2","1,0.5,0,1,0.5,0,0.5,0,1","1,0.5,0,1,0.5,0,0.5,0,1","1","false",""
"","html-keyboard-response","263","82768","0.0-302.0","3FFJ6VRIL2AMLMYR25TOVWP7PL10IZ","A1FKK1Q8C3BAE5","3HUR21WDDUBEMSLDIXZW1FAIHW8YX3","","null","<img src=""img/food5.png"" style=""width:200px; border:14px solid green;"">","null","","","","","","","","","",""
"","image-keyboard-response","264","82871","0.0-304.0","3FFJ6VRIL2AMLMYR25TOVWP7PL10IZ","A1FKK1Q8C3BAE5","3HUR21WDDUBEMSLDIXZW1FAIHW8YX3","","100","img/food6.png","74","102","1","1","2","2","1,0.5,0,1,0.5,0,0.5,0,1","1,0.5,0,1,0.5,0,0.5,0,1","1","false",""
"","html-keyboard-response","265","83176","0.0-305.0","3FFJ6VRIL2AMLMYR25TOVWP7PL10IZ","A1FKK1Q8C3BAE5","3HUR21WDDUBEMSLDIXZW1FAIHW8YX3","","null","<img src=""img/food6.png"" style=""width:200px; border:14px solid green;"">","null","","","","","","","","","",""
"","image-keyboard-response","266","83410","0.0-307.0","3FFJ6VRIL2AMLMYR25TOVWP7PL10IZ","A1FKK1Q8C3BAE5","3HUR21WDDUBEMSLDIXZW1FAIHW8YX3","","231","img/food6.png","74","232","1","1","2","2","1,0.5,0,1,0.5,0,0.5,0,1","1,0.5,0,1,0.5,0,0.5,0,1","1","false",""
"","html-keyboard-response","267","83749","0.0-308.0","3FFJ6VRIL2AMLMYR25TOVWP7PL10IZ","A1FKK1Q8C3BAE5","3HUR21WDDUBEMSLDIXZW1FAIHW8YX3","","null","<img src=""img/food6.png"" style=""width:200px; border:14px solid green;"">","null","","","","","","","","","",""
"","image-keyboard-response","268","84003","0.0-310.0","3FFJ6VRIL2AMLMYR25TOVWP7PL10IZ","A1FKK1Q8C3BAE5","3HUR21WDDUBEMSLDIXZW1FAIHW8YX3","","252","img/food6.png","74","254","1","1","2","2","1,0.5,0,1,0.5,0,0.5,0,1","1,0.5,0,1,0.5,0,0.5,0,1","1","false",""
"","html-keyboard-response","269","84307","0.0-311.0","3FFJ6VRIL2AMLMYR25TOVWP7PL10IZ","A1FKK1Q8C3BAE5","3HUR21WDDUBEMSLDIXZW1FAIHW8YX3","","null","<img src=""img/food6.png"" style=""width:200px; border:14px solid green;"">","null","","","","","","","","","",""
"","image-keyboard-response","270","84383","0.0-313.0","3FFJ6VRIL2AMLMYR25TOVWP7PL10IZ","A1FKK1Q8C3BAE5","3HUR21WDDUBEMSLDIXZW1FAIHW8YX3","","75","img/food6.png","74","76","1","1","2","2","1,0.5,0,1,0.5,0,0.5,0,1","1,0.5,0,1,0.5,0,0.5,0,1","1","false",""
"","html-keyboard-response","271","84781","0.0-314.0","3FFJ6VRIL2AMLMYR25TOVWP7PL10IZ","A1FKK1Q8C3BAE5","3HUR21WDDUBEMSLDIXZW1FAIHW8YX3","","null","<img src=""img/food6.png"" style=""width:200px; border:14px solid green;"">","null","","","","","","","","","",""
"","image-keyboard-response","272","85000","0.0-316.0","3FFJ6VRIL2AMLMYR25TOVWP7PL10IZ","A1FKK1Q8C3BAE5","3HUR21WDDUBEMSLDIXZW1FAIHW8YX3","","159","img/food5.png","74","204","1","0","3","2","1,0.5,0,1,0.5,0,0.5,0,1","1,0.5,0,1,0.5,0,0.5,0,1","1","false",""
"","html-keyboard-response","273","85311","0.0-317.0","3FFJ6VRIL2AMLMYR25TOVWP7PL10IZ","A1FKK1Q8C3BAE5","3HUR21WDDUBEMSLDIXZW1FAIHW8YX3","","null","<img src=""img/food5.png"" style=""width:200px;border:14px solid red;"">","null","","","","","","","","","",""
"","image-keyboard-response","274","85497","0.0-319.0","3FFJ6VRIL2AMLMYR25TOVWP7PL10IZ","A1FKK1Q8C3BAE5","3HUR21WDDUBEMSLDIXZW1FAIHW8YX3","","178","img/food6.png","74","180","1","1","2","2","1,0.5,0,1,0.5,0,0.5,0,1","1,0.5,0,1,0.5,0,0.5,0,1","1","false",""
"","html-keyboard-response","275","85807","0.0-320.0","3FFJ6VRIL2AMLMYR25TOVWP7PL10IZ","A1FKK1Q8C3BAE5","3HUR21WDDUBEMSLDIXZW1FAIHW8YX3","","null","<img src=""img/food6.png"" style=""width:200px; border:14px solid green;"">","null","","","","","","","","","",""
"","image-keyboard-response","276","85859","0.0-322.0","3FFJ6VRIL2AMLMYR25TOVWP7PL10IZ","A1FKK1Q8C3BAE5","3HUR21WDDUBEMSLDIXZW1FAIHW8YX3","","47","img/food4.png","74","51","1","1","1","2","1,0.5,0,1,0.5,0,0.5,0,1","1,0.5,0,1,0.5,0,0.5,0,1","1","false",""
"","html-keyboard-response","277","86176","0.0-323.0","3FFJ6VRIL2AMLMYR25TOVWP7PL10IZ","A1FKK1Q8C3BAE5","3HUR21WDDUBEMSLDIXZW1FAIHW8YX3","","null","<img src=""img/food4.png"" style=""width:200px; border:14px solid green;"">","null","","","","","","","","","",""
"","image-keyboard-response","278","86284","0.0-325.0","3FFJ6VRIL2AMLMYR25TOVWP7PL10IZ","A1FKK1Q8C3BAE5","3HUR21WDDUBEMSLDIXZW1FAIHW8YX3","","108","img/food4.png","74","108","1","1","1","2","1,0.5,0,1,0.5,0,0.5,0,1","1,0.5,0,1,0.5,0,0.5,0,1","1","false",""
"","html-keyboard-response","279","86586","0.0-326.0","3FFJ6VRIL2AMLMYR25TOVWP7PL10IZ","A1FKK1Q8C3BAE5","3HUR21WDDUBEMSLDIXZW1FAIHW8YX3","","null","<img src=""img/food4.png"" style=""width:200px; border:14px solid green;"">","null","","","","","","","","","",""
"","image-keyboard-response","280","86920","0.0-328.0","3FFJ6VRIL2AMLMYR25TOVWP7PL10IZ","A1FKK1Q8C3BAE5","3HUR21WDDUBEMSLDIXZW1FAIHW8YX3","","330","img/food5.png","74","332","1","0","3","2","1,0.5,0,1,0.5,0,0.5,0,1","1,0.5,0,1,0.5,0,0.5,0,1","1","false",""
"","html-keyboard-response","281","87284","0.0-329.0","3FFJ6VRIL2AMLMYR25TOVWP7PL10IZ","A1FKK1Q8C3BAE5","3HUR21WDDUBEMSLDIXZW1FAIHW8YX3","","null","<img src=""img/food5.png"" style=""width:200px;border:14px solid red;"">","null","","","","","","","","","",""
"","image-keyboard-response","282","87321","0.0-331.0","3FFJ6VRIL2AMLMYR25TOVWP7PL10IZ","A1FKK1Q8C3BAE5","3HUR21WDDUBEMSLDIXZW1FAIHW8YX3","","34","img/food5.png","74","36","1","0","3","2","1,0.5,0,1,0.5,0,0.5,0,1","1,0.5,0,1,0.5,0,0.5,0,1","1","false",""
"","html-keyboard-response","283","87628","0.0-332.0","3FFJ6VRIL2AMLMYR25TOVWP7PL10IZ","A1FKK1Q8C3BAE5","3HUR21WDDUBEMSLDIXZW1FAIHW8YX3","","null","<img src=""img/food5.png"" style=""width:200px;border:14px solid red;"">","null","","","","","","","","","",""
"","image-keyboard-response","284","87693","0.0-334.0","3FFJ6VRIL2AMLMYR25TOVWP7PL10IZ","A1FKK1Q8C3BAE5","3HUR21WDDUBEMSLDIXZW1FAIHW8YX3","","63","img/food4.png","74","63","1","1","1","2","1,0.5,0,1,0.5,0,0.5,0,1","1,0.5,0,1,0.5,0,0.5,0,1","1","false",""
"","html-keyboard-response","285","87997","0.0-335.0","3FFJ6VRIL2AMLMYR25TOVWP7PL10IZ","A1FKK1Q8C3BAE5","3HUR21WDDUBEMSLDIXZW1FAIHW8YX3","","null","<img src=""img/food4.png"" style=""width:200px; border:14px solid green;"">","null","","","","","","","","","",""
"","image-keyboard-response","286","88108","0.0-337.0","3FFJ6VRIL2AMLMYR25TOVWP7PL10IZ","A1FKK1Q8C3BAE5","3HUR21WDDUBEMSLDIXZW1FAIHW8YX3","","107","img/food6.png","74","108","1","1","2","2","1,0.5,0,1,0.5,0,0.5,0,1","1,0.5,0,1,0.5,0,0.5,0,1","1","false",""
"","html-keyboard-response","287","88431","0.0-338.0","3FFJ6VRIL2AMLMYR25TOVWP7PL10IZ","A1FKK1Q8C3BAE5","3HUR21WDDUBEMSLDIXZW1FAIHW8YX3","","null","<img src=""img/food6.png"" style=""width:200px; border:14px solid green;"">","null","","","","","","","","","",""
"","image-keyboard-response","288","88470","0.0-340.0","3FFJ6VRIL2AMLMYR25TOVWP7PL10IZ","A1FKK1Q8C3BAE5","3HUR21WDDUBEMSLDIXZW1FAIHW8YX3","","32","img/food5.png","74","37","1","1","3","2","1,0.5,0,1,0.5,0,0.5,0,1","1,0.5,0,1,0.5,0,0.5,0,1","1","false",""
"","html-keyboard-response","289","88773","0.0-341.0","3FFJ6VRIL2AMLMYR25TOVWP7PL10IZ","A1FKK1Q8C3BAE5","3HUR21WDDUBEMSLDIXZW1FAIHW8YX3","","null","<img src=""img/food5.png"" style=""width:200px; border:14px solid green;"">","null","","","","","","","","","",""
"","image-keyboard-response","290","88836","0.0-343.0","3FFJ6VRIL2AMLMYR25TOVWP7PL10IZ","A1FKK1Q8C3BAE5","3HUR21WDDUBEMSLDIXZW1FAIHW8YX3","","60","img/food6.png","74","61","1","1","2","2","1,0.5,0,1,0.5,0,0.5,0,1","1,0.5,0,1,0.5,0,0.5,0,1","1","false",""
"","html-keyboard-response","291","89138","0.0-344.0","3FFJ6VRIL2AMLMYR25TOVWP7PL10IZ","A1FKK1Q8C3BAE5","3HUR21WDDUBEMSLDIXZW1FAIHW8YX3","","null","<img src=""img/food6.png"" style=""width:200px; border:14px solid green;"">","null","","","","","","","","","",""
"","image-keyboard-response","292","89150","0.0-346.0","3FFJ6VRIL2AMLMYR25TOVWP7PL10IZ","A1FKK1Q8C3BAE5","3HUR21WDDUBEMSLDIXZW1FAIHW8YX3","","8","img/food6.png","74","11","1","1","2","2","1,0.5,0,1,0.5,0,0.5,0,1","1,0.5,0,1,0.5,0,0.5,0,1","1","false",""
"","html-keyboard-response","293","89470","0.0-347.0","3FFJ6VRIL2AMLMYR25TOVWP7PL10IZ","A1FKK1Q8C3BAE5","3HUR21WDDUBEMSLDIXZW1FAIHW8YX3","","null","<img src=""img/food6.png"" style=""width:200px; border:14px solid green;"">","null","","","","","","","","","",""
"","image-keyboard-response","294","89554","0.0-349.0","3FFJ6VRIL2AMLMYR25TOVWP7PL10IZ","A1FKK1Q8C3BAE5","3HUR21WDDUBEMSLDIXZW1FAIHW8YX3","","79","img/food5.png","74","83","1","0","3","2","1,0.5,0,1,0.5,0,0.5,0,1","1,0.5,0,1,0.5,0,0.5,0,1","1","false",""
"","html-keyboard-response","295","89865","0.0-350.0","3FFJ6VRIL2AMLMYR25TOVWP7PL10IZ","A1FKK1Q8C3BAE5","3HUR21WDDUBEMSLDIXZW1FAIHW8YX3","","null","<img src=""img/food5.png"" style=""width:200px;border:14px solid red;"">","null","","","","","","","","","",""
"","image-keyboard-response","296","89986","0.0-352.0","3FFJ6VRIL2AMLMYR25TOVWP7PL10IZ","A1FKK1Q8C3BAE5","3HUR21WDDUBEMSLDIXZW1FAIHW8YX3","","115","img/food5.png","74","116","1","0","3","2","1,0.5,0,1,0.5,0,0.5,0,1","1,0.5,0,1,0.5,0,0.5,0,1","1","false",""
"","html-keyboard-response","297","90288","0.0-353.0","3FFJ6VRIL2AMLMYR25TOVWP7PL10IZ","A1FKK1Q8C3BAE5","3HUR21WDDUBEMSLDIXZW1FAIHW8YX3","","null","<img src=""img/food5.png"" style=""width:200px;border:14px solid red;"">","null","","","","","","","","","",""
"","image-keyboard-response","298","90468","0.0-355.0","3FFJ6VRIL2AMLMYR25TOVWP7PL10IZ","A1FKK1Q8C3BAE5","3HUR21WDDUBEMSLDIXZW1FAIHW8YX3","","175","img/food5.png","74","176","1","0","3","2","1,0.5,0,1,0.5,0,0.5,0,1","1,0.5,0,1,0.5,0,0.5,0,1","1","false",""
"","html-keyboard-response","299","90785","0.0-356.0","3FFJ6VRIL2AMLMYR25TOVWP7PL10IZ","A1FKK1Q8C3BAE5","3HUR21WDDUBEMSLDIXZW1FAIHW8YX3","","null","<img src=""img/food5.png"" style=""width:200px;border:14px solid red;"">","null","","","","","","","","","",""
"","image-keyboard-response","300","90959","0.0-358.0","3FFJ6VRIL2AMLMYR25TOVWP7PL10IZ","A1FKK1Q8C3BAE5","3HUR21WDDUBEMSLDIXZW1FAIHW8YX3","","171","img/food6.png","74","173","1","1","2","2","1,0.5,0,1,0.5,0,0.5,0,1","1,0.5,0,1,0.5,0,0.5,0,1","1","false",""
"","html-keyboard-response","301","91261","0.0-359.0","3FFJ6VRIL2AMLMYR25TOVWP7PL10IZ","A1FKK1Q8C3BAE5","3HUR21WDDUBEMSLDIXZW1FAIHW8YX3","","null","<img src=""img/food6.png"" style=""width:200px; border:14px solid green;"">","null","","","","","","","","","",""
"","image-keyboard-response","302","91614","0.0-361.0","3FFJ6VRIL2AMLMYR25TOVWP7PL10IZ","A1FKK1Q8C3BAE5","3HUR21WDDUBEMSLDIXZW1FAIHW8YX3","","350","img/food5.png","74","352","1","0","3","2","1,0.5,0,1,0.5,0,0.5,0,1","1,0.5,0,1,0.5,0,0.5,0,1","1","false",""
"","html-keyboard-response","303","91917","0.0-362.0","3FFJ6VRIL2AMLMYR25TOVWP7PL10IZ","A1FKK1Q8C3BAE5","3HUR21WDDUBEMSLDIXZW1FAIHW8YX3","","null","<img src=""img/food5.png"" style=""width:200px;border:14px solid red;"">","null","","","","","","","","","",""
"","image-keyboard-response","304","92112","0.0-364.0","3FFJ6VRIL2AMLMYR25TOVWP7PL10IZ","A1FKK1Q8C3BAE5","3HUR21WDDUBEMSLDIXZW1FAIHW8YX3","","193","img/food4.png","74","194","1","1","1","2","1,0.5,0,1,0.5,0,0.5,0,1","1,0.5,0,1,0.5,0,0.5,0,1","1","false",""
"","html-keyboard-response","305","92417","0.0-365.0","3FFJ6VRIL2AMLMYR25TOVWP7PL10IZ","A1FKK1Q8C3BAE5","3HUR21WDDUBEMSLDIXZW1FAIHW8YX3","","null","<img src=""img/food4.png"" style=""width:200px; border:14px solid green;"">","null","","","","","","","","","",""
"","image-keyboard-response","306","93425","0.0-367.0","3FFJ6VRIL2AMLMYR25TOVWP7PL10IZ","A1FKK1Q8C3BAE5","3HUR21WDDUBEMSLDIXZW1FAIHW8YX3","","","img/food5.png","","1007","-1","0","3","2","1,0.5,0,1,0.5,0,0.5,0,1","1,0.5,0,1,0.5,0,0.5,0,1","1","true",""
"","html-keyboard-response","307","93733","0.0-368.0","3FFJ6VRIL2AMLMYR25TOVWP7PL10IZ","A1FKK1Q8C3BAE5","3HUR21WDDUBEMSLDIXZW1FAIHW8YX3","","null","<img src=""img/food5.png"" style=""width:200px;border:14px solid red;"">","null","","","","","","","","","",""
"","html-keyboard-response","308","97463","0.0-369.0-0.0","3FFJ6VRIL2AMLMYR25TOVWP7PL10IZ","A1FKK1Q8C3BAE5","3HUR21WDDUBEMSLDIXZW1FAIHW8YX3","","","","","","","","","","","","","",""
"","image-keyboard-response","309","98082","0.0-370.0","3FFJ6VRIL2AMLMYR25TOVWP7PL10IZ","A1FKK1Q8C3BAE5","3HUR21WDDUBEMSLDIXZW1FAIHW8YX3","","608","img/food6.png","74","618","1","1","2","2","1,0.5,0,1,0.5,0,0.5,0,1","1,0.5,0,1,0.5,0,0.5,0,1","1","false",""
"","html-keyboard-response","310","98384","0.0-371.0","3FFJ6VRIL2AMLMYR25TOVWP7PL10IZ","A1FKK1Q8C3BAE5","3HUR21WDDUBEMSLDIXZW1FAIHW8YX3","","null","<img src=""img/food6.png"" style=""width:200px; border:14px solid green;"">","null","","","","","","","","","",""
"","image-keyboard-response","311","98487","0.0-373.0","3FFJ6VRIL2AMLMYR25TOVWP7PL10IZ","A1FKK1Q8C3BAE5","3HUR21WDDUBEMSLDIXZW1FAIHW8YX3","","101","img/food5.png","74","101","1","1","3","2","1,0.5,0,1,0.5,0,0.5,0,1","1,0.5,0,1,0.5,0,0.5,0,1","1","false",""
"","html-keyboard-response","312","98791","0.0-374.0","3FFJ6VRIL2AMLMYR25TOVWP7PL10IZ","A1FKK1Q8C3BAE5","3HUR21WDDUBEMSLDIXZW1FAIHW8YX3","","null","<img src=""img/food5.png"" style=""width:200px; border:14px solid green;"">","null","","","","","","","","","",""
"","image-keyboard-response","313","98866","0.0-376.0","3FFJ6VRIL2AMLMYR25TOVWP7PL10IZ","A1FKK1Q8C3BAE5","3HUR21WDDUBEMSLDIXZW1FAIHW8YX3","","73","img/food4.png","74","74","1","1","1","2","1,0.5,0,1,0.5,0,0.5,0,1","1,0.5,0,1,0.5,0,0.5,0,1","1","false",""
"","html-keyboard-response","314","99168","0.0-377.0","3FFJ6VRIL2AMLMYR25TOVWP7PL10IZ","A1FKK1Q8C3BAE5","3HUR21WDDUBEMSLDIXZW1FAIHW8YX3","","null","<img src=""img/food4.png"" style=""width:200px; border:14px solid green;"">","null","","","","","","","","","",""
"","image-keyboard-response","315","99309","0.0-379.0","3FFJ6VRIL2AMLMYR25TOVWP7PL10IZ","A1FKK1Q8C3BAE5","3HUR21WDDUBEMSLDIXZW1FAIHW8YX3","","138","img/food6.png","74","140","1","1","2","2","1,0.5,0,1,0.5,0,0.5,0,1","1,0.5,0,1,0.5,0,0.5,0,1","1","false",""
"","html-keyboard-response","316","99612","0.0-380.0","3FFJ6VRIL2AMLMYR25TOVWP7PL10IZ","A1FKK1Q8C3BAE5","3HUR21WDDUBEMSLDIXZW1FAIHW8YX3","","null","<img src=""img/food6.png"" style=""width:200px; border:14px solid green;"">","null","","","","","","","","","",""
"","image-keyboard-response","317","99820","0.0-382.0","3FFJ6VRIL2AMLMYR25TOVWP7PL10IZ","A1FKK1Q8C3BAE5","3HUR21WDDUBEMSLDIXZW1FAIHW8YX3","","204","img/food6.png","75","207","2","1","2","2","1,0.5,0,1,0.5,0,0.5,0,1","1,0.5,0,1,0.5,0,0.5,0,1","1","false",""
"","html-keyboard-response","318","100121","0.0-383.0","3FFJ6VRIL2AMLMYR25TOVWP7PL10IZ","A1FKK1Q8C3BAE5","3HUR21WDDUBEMSLDIXZW1FAIHW8YX3","","null","<img src=""img/food6.png"" style=""width:200px; border:14px solid green;"">","null","","","","","","","","","",""
"","image-keyboard-response","319","100427","0.0-385.0","3FFJ6VRIL2AMLMYR25TOVWP7PL10IZ","A1FKK1Q8C3BAE5","3HUR21WDDUBEMSLDIXZW1FAIHW8YX3","","304","img/food5.png","74","304","1","0","3","2","1,0.5,0,1,0.5,0,0.5,0,1","1,0.5,0,1,0.5,0,0.5,0,1","1","false",""
"","html-keyboard-response","320","100730","0.0-386.0","3FFJ6VRIL2AMLMYR25TOVWP7PL10IZ","A1FKK1Q8C3BAE5","3HUR21WDDUBEMSLDIXZW1FAIHW8YX3","","null","<img src=""img/food5.png"" style=""width:200px;border:14px solid red;"">","null","","","","","","","","","",""
"","image-keyboard-response","321","100861","0.0-388.0","3FFJ6VRIL2AMLMYR25TOVWP7PL10IZ","A1FKK1Q8C3BAE5","3HUR21WDDUBEMSLDIXZW1FAIHW8YX3","","128","img/food4.png","74","130","1","1","1","2","1,0.5,0,1,0.5,0,0.5,0,1","1,0.5,0,1,0.5,0,0.5,0,1","1","false",""
"","html-keyboard-response","322","101163","0.0-389.0","3FFJ6VRIL2AMLMYR25TOVWP7PL10IZ","A1FKK1Q8C3BAE5","3HUR21WDDUBEMSLDIXZW1FAIHW8YX3","","null","<img src=""img/food4.png"" style=""width:200px; border:14px solid green;"">","null","","","","","","","","","",""
"","image-keyboard-response","323","101364","0.0-391.0","3FFJ6VRIL2AMLMYR25TOVWP7PL10IZ","A1FKK1Q8C3BAE5","3HUR21WDDUBEMSLDIXZW1FAIHW8YX3","","197","img/food5.png","74","198","1","1","3","2","1,0.5,0,1,0.5,0,0.5,0,1","1,0.5,0,1,0.5,0,0.5,0,1","1","false",""
"","html-keyboard-response","324","101707","0.0-392.0","3FFJ6VRIL2AMLMYR25TOVWP7PL10IZ","A1FKK1Q8C3BAE5","3HUR21WDDUBEMSLDIXZW1FAIHW8YX3","","null","<img src=""img/food5.png"" style=""width:200px; border:14px solid green;"">","null","","","","","","","","","",""
"","image-keyboard-response","325","101820","0.0-394.0","3FFJ6VRIL2AMLMYR25TOVWP7PL10IZ","A1FKK1Q8C3BAE5","3HUR21WDDUBEMSLDIXZW1FAIHW8YX3","","109","img/food5.png","74","111","1","1","3","2","1,0.5,0,1,0.5,0,0.5,0,1","1,0.5,0,1,0.5,0,0.5,0,1","1","false",""
"","html-keyboard-response","326","102236","0.0-395.0","3FFJ6VRIL2AMLMYR25TOVWP7PL10IZ","A1FKK1Q8C3BAE5","3HUR21WDDUBEMSLDIXZW1FAIHW8YX3","","null","<img src=""img/food5.png"" style=""width:200px; border:14px solid green;"">","null","","","","","","","","","",""
"","image-keyboard-response","327","102253","0.0-397.0","3FFJ6VRIL2AMLMYR25TOVWP7PL10IZ","A1FKK1Q8C3BAE5","3HUR21WDDUBEMSLDIXZW1FAIHW8YX3","","14","img/food4.png","74","18","1","1","1","2","1,0.5,0,1,0.5,0,0.5,0,1","1,0.5,0,1,0.5,0,0.5,0,1","1","false",""
"","html-keyboard-response","328","102558","0.0-398.0","3FFJ6VRIL2AMLMYR25TOVWP7PL10IZ","A1FKK1Q8C3BAE5","3HUR21WDDUBEMSLDIXZW1FAIHW8YX3","","null","<img src=""img/food4.png"" style=""width:200px; border:14px solid green;"">","null","","","","","","","","","",""
"","image-keyboard-response","329","102693","0.0-400.0","3FFJ6VRIL2AMLMYR25TOVWP7PL10IZ","A1FKK1Q8C3BAE5","3HUR21WDDUBEMSLDIXZW1FAIHW8YX3","","129","img/food6.png","74","132","1","1","2","2","1,0.5,0,1,0.5,0,0.5,0,1","1,0.5,0,1,0.5,0,0.5,0,1","1","false",""
"","html-keyboard-response","330","102996","0.0-401.0","3FFJ6VRIL2AMLMYR25TOVWP7PL10IZ","A1FKK1Q8C3BAE5","3HUR21WDDUBEMSLDIXZW1FAIHW8YX3","","null","<img src=""img/food6.png"" style=""width:200px; border:14px solid green;"">","null","","","","","","","","","",""
"","image-keyboard-response","331","103179","0.0-403.0","3FFJ6VRIL2AMLMYR25TOVWP7PL10IZ","A1FKK1Q8C3BAE5","3HUR21WDDUBEMSLDIXZW1FAIHW8YX3","","180","img/food6.png","74","182","1","1","2","2","1,0.5,0,1,0.5,0,0.5,0,1","1,0.5,0,1,0.5,0,0.5,0,1","1","false",""
"","html-keyboard-response","332","103480","0.0-404.0","3FFJ6VRIL2AMLMYR25TOVWP7PL10IZ","A1FKK1Q8C3BAE5","3HUR21WDDUBEMSLDIXZW1FAIHW8YX3","","null","<img src=""img/food6.png"" style=""width:200px; border:14px solid green;"">","null","","","","","","","","","",""
"","image-keyboard-response","333","103669","0.0-406.0","3FFJ6VRIL2AMLMYR25TOVWP7PL10IZ","A1FKK1Q8C3BAE5","3HUR21WDDUBEMSLDIXZW1FAIHW8YX3","","184","img/food6.png","74","186","1","1","2","2","1,0.5,0,1,0.5,0,0.5,0,1","1,0.5,0,1,0.5,0,0.5,0,1","1","false",""
"","html-keyboard-response","334","103971","0.0-407.0","3FFJ6VRIL2AMLMYR25TOVWP7PL10IZ","A1FKK1Q8C3BAE5","3HUR21WDDUBEMSLDIXZW1FAIHW8YX3","","null","<img src=""img/food6.png"" style=""width:200px; border:14px solid green;"">","null","","","","","","","","","",""
"","image-keyboard-response","335","104258","0.0-409.0","3FFJ6VRIL2AMLMYR25TOVWP7PL10IZ","A1FKK1Q8C3BAE5","3HUR21WDDUBEMSLDIXZW1FAIHW8YX3","","286","img/food5.png","74","286","1","0","3","2","1,0.5,0,1,0.5,0,0.5,0,1","1,0.5,0,1,0.5,0,0.5,0,1","1","false",""
"","html-keyboard-response","336","104561","0.0-410.0","3FFJ6VRIL2AMLMYR25TOVWP7PL10IZ","A1FKK1Q8C3BAE5","3HUR21WDDUBEMSLDIXZW1FAIHW8YX3","","null","<img src=""img/food5.png"" style=""width:200px;border:14px solid red;"">","null","","","","","","","","","",""
"","image-keyboard-response","337","104780","0.0-412.0","3FFJ6VRIL2AMLMYR25TOVWP7PL10IZ","A1FKK1Q8C3BAE5","3HUR21WDDUBEMSLDIXZW1FAIHW8YX3","","217","img/food4.png","74","218","1","1","1","2","1,0.5,0,1,0.5,0,0.5,0,1","1,0.5,0,1,0.5,0,0.5,0,1","1","false",""
"","html-keyboard-response","338","105084","0.0-413.0","3FFJ6VRIL2AMLMYR25TOVWP7PL10IZ","A1FKK1Q8C3BAE5","3HUR21WDDUBEMSLDIXZW1FAIHW8YX3","","null","<img src=""img/food4.png"" style=""width:200px; border:14px solid green;"">","null","","","","","","","","","",""
"","image-keyboard-response","339","105291","0.0-415.0","3FFJ6VRIL2AMLMYR25TOVWP7PL10IZ","A1FKK1Q8C3BAE5","3HUR21WDDUBEMSLDIXZW1FAIHW8YX3","","205","img/food6.png","74","206","1","1","2","2","1,0.5,0,1,0.5,0,0.5,0,1","1,0.5,0,1,0.5,0,0.5,0,1","1","false",""
"","html-keyboard-response","340","105593","0.0-416.0","3FFJ6VRIL2AMLMYR25TOVWP7PL10IZ","A1FKK1Q8C3BAE5","3HUR21WDDUBEMSLDIXZW1FAIHW8YX3","","null","<img src=""img/food6.png"" style=""width:200px; border:14px solid green;"">","null","","","","","","","","","",""
"","image-keyboard-response","341","105885","0.0-418.0","3FFJ6VRIL2AMLMYR25TOVWP7PL10IZ","A1FKK1Q8C3BAE5","3HUR21WDDUBEMSLDIXZW1FAIHW8YX3","","289","img/food4.png","74","291","1","1","1","2","1,0.5,0,1,0.5,0,0.5,0,1","1,0.5,0,1,0.5,0,0.5,0,1","1","false",""
"","html-keyboard-response","342","106187","0.0-419.0","3FFJ6VRIL2AMLMYR25TOVWP7PL10IZ","A1FKK1Q8C3BAE5","3HUR21WDDUBEMSLDIXZW1FAIHW8YX3","","null","<img src=""img/food4.png"" style=""width:200px; border:14px solid green;"">","null","","","","","","","","","",""
"","image-keyboard-response","343","106245","0.0-421.0","3FFJ6VRIL2AMLMYR25TOVWP7PL10IZ","A1FKK1Q8C3BAE5","3HUR21WDDUBEMSLDIXZW1FAIHW8YX3","","56","img/food4.png","74","57","1","1","1","2","1,0.5,0,1,0.5,0,0.5,0,1","1,0.5,0,1,0.5,0,0.5,0,1","1","false",""
"","html-keyboard-response","344","106547","0.0-422.0","3FFJ6VRIL2AMLMYR25TOVWP7PL10IZ","A1FKK1Q8C3BAE5","3HUR21WDDUBEMSLDIXZW1FAIHW8YX3","","null","<img src=""img/food4.png"" style=""width:200px; border:14px solid green;"">","null","","","","","","","","","",""
"","image-keyboard-response","345","106627","0.0-424.0","3FFJ6VRIL2AMLMYR25TOVWP7PL10IZ","A1FKK1Q8C3BAE5","3HUR21WDDUBEMSLDIXZW1FAIHW8YX3","","78","img/food4.png","74","80","1","1","1","2","1,0.5,0,1,0.5,0,0.5,0,1","1,0.5,0,1,0.5,0,0.5,0,1","1","false",""
"","html-keyboard-response","346","106929","0.0-425.0","3FFJ6VRIL2AMLMYR25TOVWP7PL10IZ","A1FKK1Q8C3BAE5","3HUR21WDDUBEMSLDIXZW1FAIHW8YX3","","null","<img src=""img/food4.png"" style=""width:200px; border:14px solid green;"">","null","","","","","","","","","",""
"","image-keyboard-response","347","107027","0.0-427.0","3FFJ6VRIL2AMLMYR25TOVWP7PL10IZ","A1FKK1Q8C3BAE5","3HUR21WDDUBEMSLDIXZW1FAIHW8YX3","","94","img/food5.png","74","96","1","1","3","2","1,0.5,0,1,0.5,0,0.5,0,1","1,0.5,0,1,0.5,0,0.5,0,1","1","false",""
"","html-keyboard-response","348","107329","0.0-428.0","3FFJ6VRIL2AMLMYR25TOVWP7PL10IZ","A1FKK1Q8C3BAE5","3HUR21WDDUBEMSLDIXZW1FAIHW8YX3","","null","<img src=""img/food5.png"" style=""width:200px; border:14px solid green;"">","null","","","","","","","","","",""
"","image-keyboard-response","349","107510","0.0-430.0","3FFJ6VRIL2AMLMYR25TOVWP7PL10IZ","A1FKK1Q8C3BAE5","3HUR21WDDUBEMSLDIXZW1FAIHW8YX3","","179","img/food6.png","74","180","1","1","2","2","1,0.5,0,1,0.5,0,0.5,0,1","1,0.5,0,1,0.5,0,0.5,0,1","1","false",""
"","html-keyboard-response","350","107815","0.0-431.0","3FFJ6VRIL2AMLMYR25TOVWP7PL10IZ","A1FKK1Q8C3BAE5","3HUR21WDDUBEMSLDIXZW1FAIHW8YX3","","null","<img src=""img/food6.png"" style=""width:200px; border:14px solid green;"">","null","","","","","","","","","",""
"","image-keyboard-response","351","107957","0.0-433.0","3FFJ6VRIL2AMLMYR25TOVWP7PL10IZ","A1FKK1Q8C3BAE5","3HUR21WDDUBEMSLDIXZW1FAIHW8YX3","","138","img/food4.png","74","141","1","1","1","2","1,0.5,0,1,0.5,0,0.5,0,1","1,0.5,0,1,0.5,0,0.5,0,1","1","false",""
"","html-keyboard-response","352","108261","0.0-434.0","3FFJ6VRIL2AMLMYR25TOVWP7PL10IZ","A1FKK1Q8C3BAE5","3HUR21WDDUBEMSLDIXZW1FAIHW8YX3","","null","<img src=""img/food4.png"" style=""width:200px; border:14px solid green;"">","null","","","","","","","","","",""
"","image-keyboard-response","353","108416","0.0-436.0","3FFJ6VRIL2AMLMYR25TOVWP7PL10IZ","A1FKK1Q8C3BAE5","3HUR21WDDUBEMSLDIXZW1FAIHW8YX3","","155","img/food4.png","74","155","1","1","1","2","1,0.5,0,1,0.5,0,0.5,0,1","1,0.5,0,1,0.5,0,0.5,0,1","1","false",""
"","html-keyboard-response","354","108719","0.0-437.0","3FFJ6VRIL2AMLMYR25TOVWP7PL10IZ","A1FKK1Q8C3BAE5","3HUR21WDDUBEMSLDIXZW1FAIHW8YX3","","null","<img src=""img/food4.png"" style=""width:200px; border:14px solid green;"">","null","","","","","","","","","",""
"","image-keyboard-response","355","108839","0.0-439.0","3FFJ6VRIL2AMLMYR25TOVWP7PL10IZ","A1FKK1Q8C3BAE5","3HUR21WDDUBEMSLDIXZW1FAIHW8YX3","","114","img/food6.png","74","117","1","1","2","2","1,0.5,0,1,0.5,0,0.5,0,1","1,0.5,0,1,0.5,0,0.5,0,1","1","false",""
"","html-keyboard-response","356","109143","0.0-440.0","3FFJ6VRIL2AMLMYR25TOVWP7PL10IZ","A1FKK1Q8C3BAE5","3HUR21WDDUBEMSLDIXZW1FAIHW8YX3","","null","<img src=""img/food6.png"" style=""width:200px; border:14px solid green;"">","null","","","","","","","","","",""
"","image-keyboard-response","357","109267","0.0-442.0","3FFJ6VRIL2AMLMYR25TOVWP7PL10IZ","A1FKK1Q8C3BAE5","3HUR21WDDUBEMSLDIXZW1FAIHW8YX3","","120","img/food5.png","74","122","1","0","3","2","1,0.5,0,1,0.5,0,0.5,0,1","1,0.5,0,1,0.5,0,0.5,0,1","1","false",""
"","html-keyboard-response","358","109570","0.0-443.0","3FFJ6VRIL2AMLMYR25TOVWP7PL10IZ","A1FKK1Q8C3BAE5","3HUR21WDDUBEMSLDIXZW1FAIHW8YX3","","null","<img src=""img/food5.png"" style=""width:200px;border:14px solid red;"">","null","","","","","","","","","",""
"","image-keyboard-response","359","109699","0.0-445.0","3FFJ6VRIL2AMLMYR25TOVWP7PL10IZ","A1FKK1Q8C3BAE5","3HUR21WDDUBEMSLDIXZW1FAIHW8YX3","","126","img/food4.png","74","127","1","1","1","2","1,0.5,0,1,0.5,0,0.5,0,1","1,0.5,0,1,0.5,0,0.5,0,1","1","false",""
"","html-keyboard-response","360","110000","0.0-446.0","3FFJ6VRIL2AMLMYR25TOVWP7PL10IZ","A1FKK1Q8C3BAE5","3HUR21WDDUBEMSLDIXZW1FAIHW8YX3","","null","<img src=""img/food4.png"" style=""width:200px; border:14px solid green;"">","null","","","","","","","","","",""
"","image-keyboard-response","361","110247","0.0-448.0","3FFJ6VRIL2AMLMYR25TOVWP7PL10IZ","A1FKK1Q8C3BAE5","3HUR21WDDUBEMSLDIXZW1FAIHW8YX3","","243","img/food5.png","74","245","1","1","3","2","1,0.5,0,1,0.5,0,0.5,0,1","1,0.5,0,1,0.5,0,0.5,0,1","1","false",""
"","html-keyboard-response","362","110550","0.0-449.0","3FFJ6VRIL2AMLMYR25TOVWP7PL10IZ","A1FKK1Q8C3BAE5","3HUR21WDDUBEMSLDIXZW1FAIHW8YX3","","null","<img src=""img/food5.png"" style=""width:200px; border:14px solid green;"">","null","","","","","","","","","",""
"","image-keyboard-response","363","110862","0.0-451.0","3FFJ6VRIL2AMLMYR25TOVWP7PL10IZ","A1FKK1Q8C3BAE5","3HUR21WDDUBEMSLDIXZW1FAIHW8YX3","","309","img/food5.png","74","324","1","0","3","2","1,0.5,0,1,0.5,0,0.5,0,1","1,0.5,0,1,0.5,0,0.5,0,1","1","false",""
"","html-keyboard-response","364","111179","0.0-452.0","3FFJ6VRIL2AMLMYR25TOVWP7PL10IZ","A1FKK1Q8C3BAE5","3HUR21WDDUBEMSLDIXZW1FAIHW8YX3","","null","<img src=""img/food5.png"" style=""width:200px;border:14px solid red;"">","null","","","","","","","","","",""
"","instructions","365","113725","0.0-454.0","3FFJ6VRIL2AMLMYR25TOVWP7PL10IZ","A1FKK1Q8C3BAE5","3HUR21WDDUBEMSLDIXZW1FAIHW8YX3","[{""page_index"":0,""viewing_time"":2543}]","2544","","","","","","","","","","","",""
"","survey-text","366","117128","0.0-455.0","3FFJ6VRIL2AMLMYR25TOVWP7PL10IZ","A1FKK1Q8C3BAE5","3HUR21WDDUBEMSLDIXZW1FAIHW8YX3","","3390","","","","","","","","","","","","{""Q0"":""A1FKK1Q8C3BAE5""}"
