"success","trial_type","trial_index","time_elapsed","internal_node_id","assignmentID","mturkID","hitID","view_history","rt","stimulus","key_press","reactionTime","a","r","s","cond","reward_cond","reward_cond_actual","reward_matrix_idx","warning","responses"
"true","fullscreen","0","4309","0.0-0.0","35GMH2SV3F3V8YOO87580INXVZXEOP","A1FTJ3XJZM71GI","382GHPVPHSDM8N0F9141EAH7F0K34Z","","","","","","","","","","","","","",""
"","instructions","1","56129","0.0-1.0","35GMH2SV3F3V8YOO87580INXVZXEOP","A1FTJ3XJZM71GI","382GHPVPHSDM8N0F9141EAH7F0K34Z","[{""page_index"":0,""viewing_time"":8154.800000190735},{""page_index"":1,""viewing_time"":4356.699999809265},{""page_index"":2,""viewing_time"":8457.5},{""page_index"":3,""viewing_time"":5851.700000286102},{""page_index"":4,""viewing_time"":6194.900000095367},{""page_index"":5,""viewing_time"":5536},{""page_index"":6,""viewing_time"":13265.299999713898}]","51817.90000009537","","","","","","","","","","","",""
"","image-keyboard-response","2","58281","0.0-2.0","35GMH2SV3F3V8YOO87580INXVZXEOP","A1FTJ3XJZM71GI","382GHPVPHSDM8N0F9141EAH7F0K34Z","","2151.4000000953674","img/food6.png","74","2152.300000190735","1","0","3","1","1,0.5,0,1,0.5,0,0.5,0,1","1,0.5,0,1,0.5,0,0.5,0,1","1","",""
"","html-keyboard-response","3","58588","0.0-3.0","35GMH2SV3F3V8YOO87580INXVZXEOP","A1FTJ3XJZM71GI","382GHPVPHSDM8N0F9141EAH7F0K34Z","","null","<img src=""img/food6.png"" style=""width:200px;border:14px solid red;"">","null","","","","","","","","","",""
"","image-keyboard-response","4","59298","0.0-4.0","35GMH2SV3F3V8YOO87580INXVZXEOP","A1FTJ3XJZM71GI","382GHPVPHSDM8N0F9141EAH7F0K34Z","","708","img/food4.png","74","709","1","1","2","1","1,0.5,0,1,0.5,0,0.5,0,1","1,0.5,0,1,0.5,0,0.5,0,1","1","",""
"","html-keyboard-response","5","59600","0.0-5.0","35GMH2SV3F3V8YOO87580INXVZXEOP","A1FTJ3XJZM71GI","382GHPVPHSDM8N0F9141EAH7F0K34Z","","null","<img src=""img/food4.png"" style=""width:200px; border:14px solid green;"">","null","","","","","","","","","",""
"","image-keyboard-response","6","60430","0.0-6.0","35GMH2SV3F3V8YOO87580INXVZXEOP","A1FTJ3XJZM71GI","382GHPVPHSDM8N0F9141EAH7F0K34Z","","828.5999999046326","img/food3.png","74","829.3999996185303","1","1","1","1","1,0.5,0,1,0.5,0,0.5,0,1","1,0.5,0,1,0.5,0,0.5,0,1","1","",""
"","html-keyboard-response","7","60733","0.0-7.0","35GMH2SV3F3V8YOO87580INXVZXEOP","A1FTJ3XJZM71GI","382GHPVPHSDM8N0F9141EAH7F0K34Z","","null","<img src=""img/food3.png"" style=""width:200px; border:14px solid green;"">","null","","","","","","","","","",""
"","image-keyboard-response","8","61943","0.0-8.0","35GMH2SV3F3V8YOO87580INXVZXEOP","A1FTJ3XJZM71GI","382GHPVPHSDM8N0F9141EAH7F0K34Z","","1208.4000000953674","img/food6.png","75","1209.5999999046326","2","0","3","1","1,0.5,0,1,0.5,0,0.5,0,1","1,0.5,0,1,0.5,0,0.5,0,1","1","",""
"","html-keyboard-response","9","62246","0.0-9.0","35GMH2SV3F3V8YOO87580INXVZXEOP","A1FTJ3XJZM71GI","382GHPVPHSDM8N0F9141EAH7F0K34Z","","null","<img src=""img/food6.png"" style=""width:200px;border:14px solid red;"">","null","","","","","","","","","",""
"","image-keyboard-response","10","63183","0.0-10.0","35GMH2SV3F3V8YOO87580INXVZXEOP","A1FTJ3XJZM71GI","382GHPVPHSDM8N0F9141EAH7F0K34Z","","936.2999997138977","img/food4.png","74","937.1999998092651","1","1","2","1","1,0.5,0,1,0.5,0,0.5,0,1","1,0.5,0,1,0.5,0,0.5,0,1","1","",""
"","html-keyboard-response","11","63486","0.0-11.0","35GMH2SV3F3V8YOO87580INXVZXEOP","A1FTJ3XJZM71GI","382GHPVPHSDM8N0F9141EAH7F0K34Z","","null","<img src=""img/food4.png"" style=""width:200px; border:14px solid green;"">","null","","","","","","","","","",""
"","image-keyboard-response","12","64263","0.0-12.0","35GMH2SV3F3V8YOO87580INXVZXEOP","A1FTJ3XJZM71GI","382GHPVPHSDM8N0F9141EAH7F0K34Z","","775.9000000953674","img/food4.png","74","777.0999999046326","1","1","2","1","1,0.5,0,1,0.5,0,0.5,0,1","1,0.5,0,1,0.5,0,0.5,0,1","1","",""
"","html-keyboard-response","13","64565","0.0-13.0","35GMH2SV3F3V8YOO87580INXVZXEOP","A1FTJ3XJZM71GI","382GHPVPHSDM8N0F9141EAH7F0K34Z","","null","<img src=""img/food4.png"" style=""width:200px; border:14px solid green;"">","null","","","","","","","","","",""
"","image-keyboard-response","14","65604","0.0-14.0","35GMH2SV3F3V8YOO87580INXVZXEOP","A1FTJ3XJZM71GI","382GHPVPHSDM8N0F9141EAH7F0K34Z","","1036.6999998092651","img/food6.png","76","1037.8999996185303","3","1","3","1","1,0.5,0,1,0.5,0,0.5,0,1","1,0.5,0,1,0.5,0,0.5,0,1","1","",""
"","html-keyboard-response","15","65907","0.0-15.0","35GMH2SV3F3V8YOO87580INXVZXEOP","A1FTJ3XJZM71GI","382GHPVPHSDM8N0F9141EAH7F0K34Z","","null","<img src=""img/food6.png"" style=""width:200px; border:14px solid green;"">","null","","","","","","","","","",""
"","image-keyboard-response","16","66549","0.0-16.0","35GMH2SV3F3V8YOO87580INXVZXEOP","A1FTJ3XJZM71GI","382GHPVPHSDM8N0F9141EAH7F0K34Z","","640.0999999046326","img/food6.png","76","641.3999996185303","3","1","3","1","1,0.5,0,1,0.5,0,0.5,0,1","1,0.5,0,1,0.5,0,0.5,0,1","1","",""
"","html-keyboard-response","17","66858","0.0-17.0","35GMH2SV3F3V8YOO87580INXVZXEOP","A1FTJ3XJZM71GI","382GHPVPHSDM8N0F9141EAH7F0K34Z","","null","<img src=""img/food6.png"" style=""width:200px; border:14px solid green;"">","null","","","","","","","","","",""
"","image-keyboard-response","18","67367","0.0-18.0","35GMH2SV3F3V8YOO87580INXVZXEOP","A1FTJ3XJZM71GI","382GHPVPHSDM8N0F9141EAH7F0K34Z","","507.40000009536743","img/food6.png","76","508.7999997138977","3","1","3","1","1,0.5,0,1,0.5,0,0.5,0,1","1,0.5,0,1,0.5,0,0.5,0,1","1","",""
"","html-keyboard-response","19","67671","0.0-19.0","35GMH2SV3F3V8YOO87580INXVZXEOP","A1FTJ3XJZM71GI","382GHPVPHSDM8N0F9141EAH7F0K34Z","","null","<img src=""img/food6.png"" style=""width:200px; border:14px solid green;"">","null","","","","","","","","","",""
"","image-keyboard-response","20","68398","0.0-20.0","35GMH2SV3F3V8YOO87580INXVZXEOP","A1FTJ3XJZM71GI","382GHPVPHSDM8N0F9141EAH7F0K34Z","","725.5999999046326","img/food3.png","74","726.8999996185303","1","1","1","1","1,0.5,0,1,0.5,0,0.5,0,1","1,0.5,0,1,0.5,0,0.5,0,1","1","",""
"","html-keyboard-response","21","68700","0.0-21.0","35GMH2SV3F3V8YOO87580INXVZXEOP","A1FTJ3XJZM71GI","382GHPVPHSDM8N0F9141EAH7F0K34Z","","null","<img src=""img/food3.png"" style=""width:200px; border:14px solid green;"">","null","","","","","","","","","",""
"","image-keyboard-response","22","69200","0.0-22.0","35GMH2SV3F3V8YOO87580INXVZXEOP","A1FTJ3XJZM71GI","382GHPVPHSDM8N0F9141EAH7F0K34Z","","497.69999980926514","img/food3.png","74","498.90000009536743","1","1","1","1","1,0.5,0,1,0.5,0,0.5,0,1","1,0.5,0,1,0.5,0,0.5,0,1","1","",""
"","html-keyboard-response","23","69502","0.0-23.0","35GMH2SV3F3V8YOO87580INXVZXEOP","A1FTJ3XJZM71GI","382GHPVPHSDM8N0F9141EAH7F0K34Z","","null","<img src=""img/food3.png"" style=""width:200px; border:14px solid green;"">","null","","","","","","","","","",""
"","image-keyboard-response","24","70161","0.0-24.0","35GMH2SV3F3V8YOO87580INXVZXEOP","A1FTJ3XJZM71GI","382GHPVPHSDM8N0F9141EAH7F0K34Z","","656.9000000953674","img/food4.png","74","658","1","1","2","1","1,0.5,0,1,0.5,0,0.5,0,1","1,0.5,0,1,0.5,0,0.5,0,1","1","",""
"","html-keyboard-response","25","70463","0.0-25.0","35GMH2SV3F3V8YOO87580INXVZXEOP","A1FTJ3XJZM71GI","382GHPVPHSDM8N0F9141EAH7F0K34Z","","null","<img src=""img/food4.png"" style=""width:200px; border:14px solid green;"">","null","","","","","","","","","",""
"","image-keyboard-response","26","71011","0.0-26.0","35GMH2SV3F3V8YOO87580INXVZXEOP","A1FTJ3XJZM71GI","382GHPVPHSDM8N0F9141EAH7F0K34Z","","545.9000000953674","img/food4.png","74","547.2000002861023","1","1","2","1","1,0.5,0,1,0.5,0,0.5,0,1","1,0.5,0,1,0.5,0,0.5,0,1","1","",""
"","html-keyboard-response","27","71313","0.0-27.0","35GMH2SV3F3V8YOO87580INXVZXEOP","A1FTJ3XJZM71GI","382GHPVPHSDM8N0F9141EAH7F0K34Z","","null","<img src=""img/food4.png"" style=""width:200px; border:14px solid green;"">","null","","","","","","","","","",""
"","image-keyboard-response","28","71813","0.0-28.0","35GMH2SV3F3V8YOO87580INXVZXEOP","A1FTJ3XJZM71GI","382GHPVPHSDM8N0F9141EAH7F0K34Z","","497.5","img/food4.png","74","498.6000003814697","1","1","2","1","1,0.5,0,1,0.5,0,0.5,0,1","1,0.5,0,1,0.5,0,0.5,0,1","1","",""
"","html-keyboard-response","29","72115","0.0-29.0","35GMH2SV3F3V8YOO87580INXVZXEOP","A1FTJ3XJZM71GI","382GHPVPHSDM8N0F9141EAH7F0K34Z","","null","<img src=""img/food4.png"" style=""width:200px; border:14px solid green;"">","null","","","","","","","","","",""
"","image-keyboard-response","30","72573","0.0-30.0","35GMH2SV3F3V8YOO87580INXVZXEOP","A1FTJ3XJZM71GI","382GHPVPHSDM8N0F9141EAH7F0K34Z","","456.19999980926514","img/food6.png","76","457.09999990463257","3","1","3","1","1,0.5,0,1,0.5,0,0.5,0,1","1,0.5,0,1,0.5,0,0.5,0,1","1","",""
"","html-keyboard-response","31","72875","0.0-31.0","35GMH2SV3F3V8YOO87580INXVZXEOP","A1FTJ3XJZM71GI","382GHPVPHSDM8N0F9141EAH7F0K34Z","","null","<img src=""img/food6.png"" style=""width:200px; border:14px solid green;"">","null","","","","","","","","","",""
"","image-keyboard-response","32","73572","0.0-32.0","35GMH2SV3F3V8YOO87580INXVZXEOP","A1FTJ3XJZM71GI","382GHPVPHSDM8N0F9141EAH7F0K34Z","","694.9000000953674","img/food3.png","74","696","1","1","1","1","1,0.5,0,1,0.5,0,0.5,0,1","1,0.5,0,1,0.5,0,0.5,0,1","1","",""
"","html-keyboard-response","33","73874","0.0-33.0","35GMH2SV3F3V8YOO87580INXVZXEOP","A1FTJ3XJZM71GI","382GHPVPHSDM8N0F9141EAH7F0K34Z","","null","<img src=""img/food3.png"" style=""width:200px; border:14px solid green;"">","null","","","","","","","","","",""
"","image-keyboard-response","34","74774","0.0-34.0","35GMH2SV3F3V8YOO87580INXVZXEOP","A1FTJ3XJZM71GI","382GHPVPHSDM8N0F9141EAH7F0K34Z","","898.2000002861023","img/food6.png","76","899.4000000953674","3","1","3","1","1,0.5,0,1,0.5,0,0.5,0,1","1,0.5,0,1,0.5,0,0.5,0,1","1","",""
"","html-keyboard-response","35","75077","0.0-35.0","35GMH2SV3F3V8YOO87580INXVZXEOP","A1FTJ3XJZM71GI","382GHPVPHSDM8N0F9141EAH7F0K34Z","","null","<img src=""img/food6.png"" style=""width:200px; border:14px solid green;"">","null","","","","","","","","","",""
"","image-keyboard-response","36","75640","0.0-36.0","35GMH2SV3F3V8YOO87580INXVZXEOP","A1FTJ3XJZM71GI","382GHPVPHSDM8N0F9141EAH7F0K34Z","","560.9000000953674","img/food4.png","74","562","1","1","2","1","1,0.5,0,1,0.5,0,0.5,0,1","1,0.5,0,1,0.5,0,0.5,0,1","1","",""
"","html-keyboard-response","37","75945","0.0-37.0","35GMH2SV3F3V8YOO87580INXVZXEOP","A1FTJ3XJZM71GI","382GHPVPHSDM8N0F9141EAH7F0K34Z","","null","<img src=""img/food4.png"" style=""width:200px; border:14px solid green;"">","null","","","","","","","","","",""
"","image-keyboard-response","38","76539","0.0-38.0","35GMH2SV3F3V8YOO87580INXVZXEOP","A1FTJ3XJZM71GI","382GHPVPHSDM8N0F9141EAH7F0K34Z","","591.8999996185303","img/food6.png","76","593.0999999046326","3","1","3","1","1,0.5,0,1,0.5,0,0.5,0,1","1,0.5,0,1,0.5,0,0.5,0,1","1","",""
"","html-keyboard-response","39","76842","0.0-39.0","35GMH2SV3F3V8YOO87580INXVZXEOP","A1FTJ3XJZM71GI","382GHPVPHSDM8N0F9141EAH7F0K34Z","","null","<img src=""img/food6.png"" style=""width:200px; border:14px solid green;"">","null","","","","","","","","","",""
"","image-keyboard-response","40","77424","0.0-40.0","35GMH2SV3F3V8YOO87580INXVZXEOP","A1FTJ3XJZM71GI","382GHPVPHSDM8N0F9141EAH7F0K34Z","","580.7000002861023","img/food3.png","74","581.5999999046326","1","1","1","1","1,0.5,0,1,0.5,0,0.5,0,1","1,0.5,0,1,0.5,0,0.5,0,1","1","",""
"","html-keyboard-response","41","77726","0.0-41.0","35GMH2SV3F3V8YOO87580INXVZXEOP","A1FTJ3XJZM71GI","382GHPVPHSDM8N0F9141EAH7F0K34Z","","null","<img src=""img/food3.png"" style=""width:200px; border:14px solid green;"">","null","","","","","","","","","",""
"","image-keyboard-response","42","78317","0.0-42.0","35GMH2SV3F3V8YOO87580INXVZXEOP","A1FTJ3XJZM71GI","382GHPVPHSDM8N0F9141EAH7F0K34Z","","589.4000000953674","img/food6.png","76","590.5999999046326","3","1","3","1","1,0.5,0,1,0.5,0,0.5,0,1","1,0.5,0,1,0.5,0,0.5,0,1","1","",""
"","html-keyboard-response","43","78619","0.0-43.0","35GMH2SV3F3V8YOO87580INXVZXEOP","A1FTJ3XJZM71GI","382GHPVPHSDM8N0F9141EAH7F0K34Z","","null","<img src=""img/food6.png"" style=""width:200px; border:14px solid green;"">","null","","","","","","","","","",""
"","image-keyboard-response","44","79381","0.0-44.0","35GMH2SV3F3V8YOO87580INXVZXEOP","A1FTJ3XJZM71GI","382GHPVPHSDM8N0F9141EAH7F0K34Z","","760","img/food3.png","74","761.2000002861023","1","1","1","1","1,0.5,0,1,0.5,0,0.5,0,1","1,0.5,0,1,0.5,0,0.5,0,1","1","",""
"","html-keyboard-response","45","79684","0.0-45.0","35GMH2SV3F3V8YOO87580INXVZXEOP","A1FTJ3XJZM71GI","382GHPVPHSDM8N0F9141EAH7F0K34Z","","null","<img src=""img/food3.png"" style=""width:200px; border:14px solid green;"">","null","","","","","","","","","",""
"","image-keyboard-response","46","80120","0.0-46.0","35GMH2SV3F3V8YOO87580INXVZXEOP","A1FTJ3XJZM71GI","382GHPVPHSDM8N0F9141EAH7F0K34Z","","434.7000002861023","img/food3.png","74","435.80000019073486","1","1","1","1","1,0.5,0,1,0.5,0,0.5,0,1","1,0.5,0,1,0.5,0,0.5,0,1","1","",""
"","html-keyboard-response","47","80423","0.0-47.0","35GMH2SV3F3V8YOO87580INXVZXEOP","A1FTJ3XJZM71GI","382GHPVPHSDM8N0F9141EAH7F0K34Z","","null","<img src=""img/food3.png"" style=""width:200px; border:14px solid green;"">","null","","","","","","","","","",""
"","image-keyboard-response","48","81001","0.0-48.0","35GMH2SV3F3V8YOO87580INXVZXEOP","A1FTJ3XJZM71GI","382GHPVPHSDM8N0F9141EAH7F0K34Z","","576.5","img/food4.png","74","577.6999998092651","1","1","2","1","1,0.5,0,1,0.5,0,0.5,0,1","1,0.5,0,1,0.5,0,0.5,0,1","1","",""
"","html-keyboard-response","49","81304","0.0-49.0","35GMH2SV3F3V8YOO87580INXVZXEOP","A1FTJ3XJZM71GI","382GHPVPHSDM8N0F9141EAH7F0K34Z","","null","<img src=""img/food4.png"" style=""width:200px; border:14px solid green;"">","null","","","","","","","","","",""
"","image-keyboard-response","50","81879","0.0-50.0","35GMH2SV3F3V8YOO87580INXVZXEOP","A1FTJ3XJZM71GI","382GHPVPHSDM8N0F9141EAH7F0K34Z","","573.2999997138977","img/food4.png","74","574.5","1","1","2","1","1,0.5,0,1,0.5,0,0.5,0,1","1,0.5,0,1,0.5,0,0.5,0,1","1","",""
"","html-keyboard-response","51","82180","0.0-51.0","35GMH2SV3F3V8YOO87580INXVZXEOP","A1FTJ3XJZM71GI","382GHPVPHSDM8N0F9141EAH7F0K34Z","","null","<img src=""img/food4.png"" style=""width:200px; border:14px solid green;"">","null","","","","","","","","","",""
"","image-keyboard-response","52","82741","0.0-52.0","35GMH2SV3F3V8YOO87580INXVZXEOP","A1FTJ3XJZM71GI","382GHPVPHSDM8N0F9141EAH7F0K34Z","","558.8999996185303","img/food3.png","74","560.3000001907349","1","1","1","1","1,0.5,0,1,0.5,0,0.5,0,1","1,0.5,0,1,0.5,0,0.5,0,1","1","",""
"","html-keyboard-response","53","83053","0.0-53.0","35GMH2SV3F3V8YOO87580INXVZXEOP","A1FTJ3XJZM71GI","382GHPVPHSDM8N0F9141EAH7F0K34Z","","null","<img src=""img/food3.png"" style=""width:200px; border:14px solid green;"">","null","","","","","","","","","",""
"","image-keyboard-response","54","83556","0.0-54.0","35GMH2SV3F3V8YOO87580INXVZXEOP","A1FTJ3XJZM71GI","382GHPVPHSDM8N0F9141EAH7F0K34Z","","501.59999990463257","img/food3.png","74","502.69999980926514","1","1","1","1","1,0.5,0,1,0.5,0,0.5,0,1","1,0.5,0,1,0.5,0,0.5,0,1","1","",""
"","html-keyboard-response","55","83859","0.0-55.0","35GMH2SV3F3V8YOO87580INXVZXEOP","A1FTJ3XJZM71GI","382GHPVPHSDM8N0F9141EAH7F0K34Z","","null","<img src=""img/food3.png"" style=""width:200px; border:14px solid green;"">","null","","","","","","","","","",""
"","image-keyboard-response","56","84411","0.0-56.0","35GMH2SV3F3V8YOO87580INXVZXEOP","A1FTJ3XJZM71GI","382GHPVPHSDM8N0F9141EAH7F0K34Z","","550.5999999046326","img/food3.png","74","551.5999999046326","1","1","1","1","1,0.5,0,1,0.5,0,0.5,0,1","1,0.5,0,1,0.5,0,0.5,0,1","1","",""
"","html-keyboard-response","57","84713","0.0-57.0","35GMH2SV3F3V8YOO87580INXVZXEOP","A1FTJ3XJZM71GI","382GHPVPHSDM8N0F9141EAH7F0K34Z","","null","<img src=""img/food3.png"" style=""width:200px; border:14px solid green;"">","null","","","","","","","","","",""
"","image-keyboard-response","58","85395","0.0-58.0","35GMH2SV3F3V8YOO87580INXVZXEOP","A1FTJ3XJZM71GI","382GHPVPHSDM8N0F9141EAH7F0K34Z","","680.2000002861023","img/food4.png","74","681.4000000953674","1","1","2","1","1,0.5,0,1,0.5,0,0.5,0,1","1,0.5,0,1,0.5,0,0.5,0,1","1","",""
"","html-keyboard-response","59","85697","0.0-59.0","35GMH2SV3F3V8YOO87580INXVZXEOP","A1FTJ3XJZM71GI","382GHPVPHSDM8N0F9141EAH7F0K34Z","","null","<img src=""img/food4.png"" style=""width:200px; border:14px solid green;"">","null","","","","","","","","","",""
"","image-keyboard-response","60","86189","0.0-60.0","35GMH2SV3F3V8YOO87580INXVZXEOP","A1FTJ3XJZM71GI","382GHPVPHSDM8N0F9141EAH7F0K34Z","","490.1000003814697","img/food6.png","76","491.09999990463257","3","1","3","1","1,0.5,0,1,0.5,0,0.5,0,1","1,0.5,0,1,0.5,0,0.5,0,1","1","",""
"","html-keyboard-response","61","86491","0.0-61.0","35GMH2SV3F3V8YOO87580INXVZXEOP","A1FTJ3XJZM71GI","382GHPVPHSDM8N0F9141EAH7F0K34Z","","null","<img src=""img/food6.png"" style=""width:200px; border:14px solid green;"">","null","","","","","","","","","",""
"","image-keyboard-response","62","87036","0.0-62.0","35GMH2SV3F3V8YOO87580INXVZXEOP","A1FTJ3XJZM71GI","382GHPVPHSDM8N0F9141EAH7F0K34Z","","542.8999996185303","img/food4.png","74","544.1000003814697","1","1","2","1","1,0.5,0,1,0.5,0,0.5,0,1","1,0.5,0,1,0.5,0,0.5,0,1","1","",""
"","html-keyboard-response","63","87339","0.0-63.0","35GMH2SV3F3V8YOO87580INXVZXEOP","A1FTJ3XJZM71GI","382GHPVPHSDM8N0F9141EAH7F0K34Z","","null","<img src=""img/food4.png"" style=""width:200px; border:14px solid green;"">","null","","","","","","","","","",""
"","image-keyboard-response","64","88106","0.0-64.0","35GMH2SV3F3V8YOO87580INXVZXEOP","A1FTJ3XJZM71GI","382GHPVPHSDM8N0F9141EAH7F0K34Z","","765.5999999046326","img/food3.png","74","766.5","1","1","1","1","1,0.5,0,1,0.5,0,0.5,0,1","1,0.5,0,1,0.5,0,0.5,0,1","1","",""
"","html-keyboard-response","65","88408","0.0-65.0","35GMH2SV3F3V8YOO87580INXVZXEOP","A1FTJ3XJZM71GI","382GHPVPHSDM8N0F9141EAH7F0K34Z","","null","<img src=""img/food3.png"" style=""width:200px; border:14px solid green;"">","null","","","","","","","","","",""
"","image-keyboard-response","66","88871","0.0-66.0","35GMH2SV3F3V8YOO87580INXVZXEOP","A1FTJ3XJZM71GI","382GHPVPHSDM8N0F9141EAH7F0K34Z","","462","img/food4.png","74","462.90000009536743","1","1","2","1","1,0.5,0,1,0.5,0,0.5,0,1","1,0.5,0,1,0.5,0,0.5,0,1","1","",""
"","html-keyboard-response","67","89173","0.0-67.0","35GMH2SV3F3V8YOO87580INXVZXEOP","A1FTJ3XJZM71GI","382GHPVPHSDM8N0F9141EAH7F0K34Z","","null","<img src=""img/food4.png"" style=""width:200px; border:14px solid green;"">","null","","","","","","","","","",""
"","image-keyboard-response","68","89718","0.0-68.0","35GMH2SV3F3V8YOO87580INXVZXEOP","A1FTJ3XJZM71GI","382GHPVPHSDM8N0F9141EAH7F0K34Z","","543.3000001907349","img/food4.png","74","544.5","1","1","2","1","1,0.5,0,1,0.5,0,0.5,0,1","1,0.5,0,1,0.5,0,0.5,0,1","1","",""
"","html-keyboard-response","69","90020","0.0-69.0","35GMH2SV3F3V8YOO87580INXVZXEOP","A1FTJ3XJZM71GI","382GHPVPHSDM8N0F9141EAH7F0K34Z","","null","<img src=""img/food4.png"" style=""width:200px; border:14px solid green;"">","null","","","","","","","","","",""
"","image-keyboard-response","70","90513","0.0-70.0","35GMH2SV3F3V8YOO87580INXVZXEOP","A1FTJ3XJZM71GI","382GHPVPHSDM8N0F9141EAH7F0K34Z","","491.3999996185303","img/food3.png","74","492.40000009536743","1","1","1","1","1,0.5,0,1,0.5,0,0.5,0,1","1,0.5,0,1,0.5,0,0.5,0,1","1","",""
"","html-keyboard-response","71","90815","0.0-71.0","35GMH2SV3F3V8YOO87580INXVZXEOP","A1FTJ3XJZM71GI","382GHPVPHSDM8N0F9141EAH7F0K34Z","","null","<img src=""img/food3.png"" style=""width:200px; border:14px solid green;"">","null","","","","","","","","","",""
"","image-keyboard-response","72","91251","0.0-72.0","35GMH2SV3F3V8YOO87580INXVZXEOP","A1FTJ3XJZM71GI","382GHPVPHSDM8N0F9141EAH7F0K34Z","","434.7999997138977","img/food4.png","74","435.5","1","1","2","1","1,0.5,0,1,0.5,0,0.5,0,1","1,0.5,0,1,0.5,0,0.5,0,1","1","",""
"","html-keyboard-response","73","91554","0.0-73.0","35GMH2SV3F3V8YOO87580INXVZXEOP","A1FTJ3XJZM71GI","382GHPVPHSDM8N0F9141EAH7F0K34Z","","null","<img src=""img/food4.png"" style=""width:200px; border:14px solid green;"">","null","","","","","","","","","",""
"","image-keyboard-response","74","92074","0.0-74.0","35GMH2SV3F3V8YOO87580INXVZXEOP","A1FTJ3XJZM71GI","382GHPVPHSDM8N0F9141EAH7F0K34Z","","518.7000002861023","img/food4.png","74","519.7999997138977","1","1","2","1","1,0.5,0,1,0.5,0,0.5,0,1","1,0.5,0,1,0.5,0,0.5,0,1","1","",""
"","html-keyboard-response","75","92376","0.0-75.0","35GMH2SV3F3V8YOO87580INXVZXEOP","A1FTJ3XJZM71GI","382GHPVPHSDM8N0F9141EAH7F0K34Z","","null","<img src=""img/food4.png"" style=""width:200px; border:14px solid green;"">","null","","","","","","","","","",""
"","image-keyboard-response","76","92826","0.0-76.0","35GMH2SV3F3V8YOO87580INXVZXEOP","A1FTJ3XJZM71GI","382GHPVPHSDM8N0F9141EAH7F0K34Z","","448.69999980926514","img/food6.png","76","449.69999980926514","3","1","3","1","1,0.5,0,1,0.5,0,0.5,0,1","1,0.5,0,1,0.5,0,0.5,0,1","1","",""
"","html-keyboard-response","77","93129","0.0-77.0","35GMH2SV3F3V8YOO87580INXVZXEOP","A1FTJ3XJZM71GI","382GHPVPHSDM8N0F9141EAH7F0K34Z","","null","<img src=""img/food6.png"" style=""width:200px; border:14px solid green;"">","null","","","","","","","","","",""
"","image-keyboard-response","78","93631","0.0-78.0","35GMH2SV3F3V8YOO87580INXVZXEOP","A1FTJ3XJZM71GI","382GHPVPHSDM8N0F9141EAH7F0K34Z","","500.2000002861023","img/food3.png","74","501.40000009536743","1","1","1","1","1,0.5,0,1,0.5,0,0.5,0,1","1,0.5,0,1,0.5,0,0.5,0,1","1","",""
"","html-keyboard-response","79","93933","0.0-79.0","35GMH2SV3F3V8YOO87580INXVZXEOP","A1FTJ3XJZM71GI","382GHPVPHSDM8N0F9141EAH7F0K34Z","","null","<img src=""img/food3.png"" style=""width:200px; border:14px solid green;"">","null","","","","","","","","","",""
"","image-keyboard-response","80","94437","0.0-80.0","35GMH2SV3F3V8YOO87580INXVZXEOP","A1FTJ3XJZM71GI","382GHPVPHSDM8N0F9141EAH7F0K34Z","","502.2000002861023","img/food3.png","74","503.5","1","1","1","1","1,0.5,0,1,0.5,0,0.5,0,1","1,0.5,0,1,0.5,0,0.5,0,1","1","",""
"","html-keyboard-response","81","94738","0.0-81.0","35GMH2SV3F3V8YOO87580INXVZXEOP","A1FTJ3XJZM71GI","382GHPVPHSDM8N0F9141EAH7F0K34Z","","null","<img src=""img/food3.png"" style=""width:200px; border:14px solid green;"">","null","","","","","","","","","",""
"","image-keyboard-response","82","95325","0.0-82.0","35GMH2SV3F3V8YOO87580INXVZXEOP","A1FTJ3XJZM71GI","382GHPVPHSDM8N0F9141EAH7F0K34Z","","585.7000002861023","img/food3.png","74","586.7000002861023","1","1","1","1","1,0.5,0,1,0.5,0,0.5,0,1","1,0.5,0,1,0.5,0,0.5,0,1","1","",""
"","html-keyboard-response","83","95628","0.0-83.0","35GMH2SV3F3V8YOO87580INXVZXEOP","A1FTJ3XJZM71GI","382GHPVPHSDM8N0F9141EAH7F0K34Z","","null","<img src=""img/food3.png"" style=""width:200px; border:14px solid green;"">","null","","","","","","","","","",""
"","image-keyboard-response","84","96243","0.0-84.0","35GMH2SV3F3V8YOO87580INXVZXEOP","A1FTJ3XJZM71GI","382GHPVPHSDM8N0F9141EAH7F0K34Z","","613","img/food6.png","74","614.3000001907349","1","0","3","1","1,0.5,0,1,0.5,0,0.5,0,1","1,0.5,0,1,0.5,0,0.5,0,1","1","",""
"","html-keyboard-response","85","96545","0.0-85.0","35GMH2SV3F3V8YOO87580INXVZXEOP","A1FTJ3XJZM71GI","382GHPVPHSDM8N0F9141EAH7F0K34Z","","null","<img src=""img/food6.png"" style=""width:200px;border:14px solid red;"">","null","","","","","","","","","",""
"","image-keyboard-response","86","97338","0.0-86.0","35GMH2SV3F3V8YOO87580INXVZXEOP","A1FTJ3XJZM71GI","382GHPVPHSDM8N0F9141EAH7F0K34Z","","790.7000002861023","img/food4.png","74","792","1","1","2","1","1,0.5,0,1,0.5,0,0.5,0,1","1,0.5,0,1,0.5,0,0.5,0,1","1","",""
"","html-keyboard-response","87","97652","0.0-87.0","35GMH2SV3F3V8YOO87580INXVZXEOP","A1FTJ3XJZM71GI","382GHPVPHSDM8N0F9141EAH7F0K34Z","","null","<img src=""img/food4.png"" style=""width:200px; border:14px solid green;"">","null","","","","","","","","","",""
"","image-keyboard-response","88","98152","0.0-88.0","35GMH2SV3F3V8YOO87580INXVZXEOP","A1FTJ3XJZM71GI","382GHPVPHSDM8N0F9141EAH7F0K34Z","","497.7999997138977","img/food4.png","74","499.2000002861023","1","1","2","1","1,0.5,0,1,0.5,0,0.5,0,1","1,0.5,0,1,0.5,0,0.5,0,1","1","",""
"","html-keyboard-response","89","98455","0.0-89.0","35GMH2SV3F3V8YOO87580INXVZXEOP","A1FTJ3XJZM71GI","382GHPVPHSDM8N0F9141EAH7F0K34Z","","null","<img src=""img/food4.png"" style=""width:200px; border:14px solid green;"">","null","","","","","","","","","",""
"","image-keyboard-response","90","99067","0.0-90.0","35GMH2SV3F3V8YOO87580INXVZXEOP","A1FTJ3XJZM71GI","382GHPVPHSDM8N0F9141EAH7F0K34Z","","609.9000000953674","img/food3.png","74","611.0999999046326","1","1","1","1","1,0.5,0,1,0.5,0,0.5,0,1","1,0.5,0,1,0.5,0,0.5,0,1","1","",""
"","html-keyboard-response","91","99370","0.0-91.0","35GMH2SV3F3V8YOO87580INXVZXEOP","A1FTJ3XJZM71GI","382GHPVPHSDM8N0F9141EAH7F0K34Z","","null","<img src=""img/food3.png"" style=""width:200px; border:14px solid green;"">","null","","","","","","","","","",""
"","image-keyboard-response","92","99869","0.0-92.0","35GMH2SV3F3V8YOO87580INXVZXEOP","A1FTJ3XJZM71GI","382GHPVPHSDM8N0F9141EAH7F0K34Z","","497.90000009536743","img/food6.png","76","499.09999990463257","3","1","3","1","1,0.5,0,1,0.5,0,0.5,0,1","1,0.5,0,1,0.5,0,0.5,0,1","1","",""
"","html-keyboard-response","93","100171","0.0-93.0","35GMH2SV3F3V8YOO87580INXVZXEOP","A1FTJ3XJZM71GI","382GHPVPHSDM8N0F9141EAH7F0K34Z","","null","<img src=""img/food6.png"" style=""width:200px; border:14px solid green;"">","null","","","","","","","","","",""
"","image-keyboard-response","94","100643","0.0-94.0","35GMH2SV3F3V8YOO87580INXVZXEOP","A1FTJ3XJZM71GI","382GHPVPHSDM8N0F9141EAH7F0K34Z","","470.5","img/food6.png","76","471.7999997138977","3","1","3","1","1,0.5,0,1,0.5,0,0.5,0,1","1,0.5,0,1,0.5,0,0.5,0,1","1","",""
"","html-keyboard-response","95","100946","0.0-95.0","35GMH2SV3F3V8YOO87580INXVZXEOP","A1FTJ3XJZM71GI","382GHPVPHSDM8N0F9141EAH7F0K34Z","","null","<img src=""img/food6.png"" style=""width:200px; border:14px solid green;"">","null","","","","","","","","","",""
"","image-keyboard-response","96","101465","0.0-96.0","35GMH2SV3F3V8YOO87580INXVZXEOP","A1FTJ3XJZM71GI","382GHPVPHSDM8N0F9141EAH7F0K34Z","","517.4000000953674","img/food3.png","74","518.1999998092651","1","1","1","1","1,0.5,0,1,0.5,0,0.5,0,1","1,0.5,0,1,0.5,0,0.5,0,1","1","",""
"","html-keyboard-response","97","101767","0.0-97.0","35GMH2SV3F3V8YOO87580INXVZXEOP","A1FTJ3XJZM71GI","382GHPVPHSDM8N0F9141EAH7F0K34Z","","null","<img src=""img/food3.png"" style=""width:200px; border:14px solid green;"">","null","","","","","","","","","",""
"","image-keyboard-response","98","102331","0.0-98.0","35GMH2SV3F3V8YOO87580INXVZXEOP","A1FTJ3XJZM71GI","382GHPVPHSDM8N0F9141EAH7F0K34Z","","561.5","img/food4.png","74","562.8000001907349","1","1","2","1","1,0.5,0,1,0.5,0,0.5,0,1","1,0.5,0,1,0.5,0,0.5,0,1","1","",""
"","html-keyboard-response","99","102633","0.0-99.0","35GMH2SV3F3V8YOO87580INXVZXEOP","A1FTJ3XJZM71GI","382GHPVPHSDM8N0F9141EAH7F0K34Z","","null","<img src=""img/food4.png"" style=""width:200px; border:14px solid green;"">","null","","","","","","","","","",""
"","image-keyboard-response","100","103207","0.0-100.0","35GMH2SV3F3V8YOO87580INXVZXEOP","A1FTJ3XJZM71GI","382GHPVPHSDM8N0F9141EAH7F0K34Z","","572.8000001907349","img/food3.png","74","574.2999997138977","1","1","1","1","1,0.5,0,1,0.5,0,0.5,0,1","1,0.5,0,1,0.5,0,0.5,0,1","1","",""
"","html-keyboard-response","101","103511","0.0-101.0","35GMH2SV3F3V8YOO87580INXVZXEOP","A1FTJ3XJZM71GI","382GHPVPHSDM8N0F9141EAH7F0K34Z","","null","<img src=""img/food3.png"" style=""width:200px; border:14px solid green;"">","null","","","","","","","","","",""
"","image-keyboard-response","102","104042","0.0-102.0","35GMH2SV3F3V8YOO87580INXVZXEOP","A1FTJ3XJZM71GI","382GHPVPHSDM8N0F9141EAH7F0K34Z","","529.4000000953674","img/food6.png","76","530.6999998092651","3","1","3","1","1,0.5,0,1,0.5,0,0.5,0,1","1,0.5,0,1,0.5,0,0.5,0,1","1","",""
"","html-keyboard-response","103","104346","0.0-103.0","35GMH2SV3F3V8YOO87580INXVZXEOP","A1FTJ3XJZM71GI","382GHPVPHSDM8N0F9141EAH7F0K34Z","","null","<img src=""img/food6.png"" style=""width:200px; border:14px solid green;"">","null","","","","","","","","","",""
"","image-keyboard-response","104","104891","0.0-104.0","35GMH2SV3F3V8YOO87580INXVZXEOP","A1FTJ3XJZM71GI","382GHPVPHSDM8N0F9141EAH7F0K34Z","","543.5","img/food4.png","74","544.6999998092651","1","1","2","1","1,0.5,0,1,0.5,0,0.5,0,1","1,0.5,0,1,0.5,0,0.5,0,1","1","",""
"","html-keyboard-response","105","105194","0.0-105.0","35GMH2SV3F3V8YOO87580INXVZXEOP","A1FTJ3XJZM71GI","382GHPVPHSDM8N0F9141EAH7F0K34Z","","null","<img src=""img/food4.png"" style=""width:200px; border:14px solid green;"">","null","","","","","","","","","",""
"","image-keyboard-response","106","105760","0.0-106.0","35GMH2SV3F3V8YOO87580INXVZXEOP","A1FTJ3XJZM71GI","382GHPVPHSDM8N0F9141EAH7F0K34Z","","564.5999999046326","img/food4.png","74","565.5999999046326","1","1","2","1","1,0.5,0,1,0.5,0,0.5,0,1","1,0.5,0,1,0.5,0,0.5,0,1","1","",""
"","html-keyboard-response","107","106062","0.0-107.0","35GMH2SV3F3V8YOO87580INXVZXEOP","A1FTJ3XJZM71GI","382GHPVPHSDM8N0F9141EAH7F0K34Z","","null","<img src=""img/food4.png"" style=""width:200px; border:14px solid green;"">","null","","","","","","","","","",""
"","image-keyboard-response","108","106684","0.0-108.0","35GMH2SV3F3V8YOO87580INXVZXEOP","A1FTJ3XJZM71GI","382GHPVPHSDM8N0F9141EAH7F0K34Z","","619.9000000953674","img/food6.png","76","621.1999998092651","3","1","3","1","1,0.5,0,1,0.5,0,0.5,0,1","1,0.5,0,1,0.5,0,0.5,0,1","1","",""
"","html-keyboard-response","109","106986","0.0-109.0","35GMH2SV3F3V8YOO87580INXVZXEOP","A1FTJ3XJZM71GI","382GHPVPHSDM8N0F9141EAH7F0K34Z","","null","<img src=""img/food6.png"" style=""width:200px; border:14px solid green;"">","null","","","","","","","","","",""
"","image-keyboard-response","110","107536","0.0-110.0","35GMH2SV3F3V8YOO87580INXVZXEOP","A1FTJ3XJZM71GI","382GHPVPHSDM8N0F9141EAH7F0K34Z","","548","img/food6.png","76","549.1000003814697","3","1","3","1","1,0.5,0,1,0.5,0,0.5,0,1","1,0.5,0,1,0.5,0,0.5,0,1","1","",""
"","html-keyboard-response","111","107838","0.0-111.0","35GMH2SV3F3V8YOO87580INXVZXEOP","A1FTJ3XJZM71GI","382GHPVPHSDM8N0F9141EAH7F0K34Z","","null","<img src=""img/food6.png"" style=""width:200px; border:14px solid green;"">","null","","","","","","","","","",""
"","image-keyboard-response","112","108403","0.0-112.0","35GMH2SV3F3V8YOO87580INXVZXEOP","A1FTJ3XJZM71GI","382GHPVPHSDM8N0F9141EAH7F0K34Z","","562.6999998092651","img/food3.png","74","563.8000001907349","1","1","1","1","1,0.5,0,1,0.5,0,0.5,0,1","1,0.5,0,1,0.5,0,0.5,0,1","1","",""
"","html-keyboard-response","113","108705","0.0-113.0","35GMH2SV3F3V8YOO87580INXVZXEOP","A1FTJ3XJZM71GI","382GHPVPHSDM8N0F9141EAH7F0K34Z","","null","<img src=""img/food3.png"" style=""width:200px; border:14px solid green;"">","null","","","","","","","","","",""
"","image-keyboard-response","114","109302","0.0-114.0","35GMH2SV3F3V8YOO87580INXVZXEOP","A1FTJ3XJZM71GI","382GHPVPHSDM8N0F9141EAH7F0K34Z","","594.2999997138977","img/food6.png","76","595.5","3","1","3","1","1,0.5,0,1,0.5,0,0.5,0,1","1,0.5,0,1,0.5,0,0.5,0,1","1","",""
"","html-keyboard-response","115","109604","0.0-115.0","35GMH2SV3F3V8YOO87580INXVZXEOP","A1FTJ3XJZM71GI","382GHPVPHSDM8N0F9141EAH7F0K34Z","","null","<img src=""img/food6.png"" style=""width:200px; border:14px solid green;"">","null","","","","","","","","","",""
"","image-keyboard-response","116","110189","0.0-116.0","35GMH2SV3F3V8YOO87580INXVZXEOP","A1FTJ3XJZM71GI","382GHPVPHSDM8N0F9141EAH7F0K34Z","","583.3000001907349","img/food3.png","74","584.4000000953674","1","1","1","1","1,0.5,0,1,0.5,0,0.5,0,1","1,0.5,0,1,0.5,0,0.5,0,1","1","",""
"","html-keyboard-response","117","110493","0.0-117.0","35GMH2SV3F3V8YOO87580INXVZXEOP","A1FTJ3XJZM71GI","382GHPVPHSDM8N0F9141EAH7F0K34Z","","null","<img src=""img/food3.png"" style=""width:200px; border:14px solid green;"">","null","","","","","","","","","",""
"","image-keyboard-response","118","111102","0.0-118.0","35GMH2SV3F3V8YOO87580INXVZXEOP","A1FTJ3XJZM71GI","382GHPVPHSDM8N0F9141EAH7F0K34Z","","608.1000003814697","img/food4.png","74","609.1999998092651","1","1","2","1","1,0.5,0,1,0.5,0,0.5,0,1","1,0.5,0,1,0.5,0,0.5,0,1","1","",""
"","html-keyboard-response","119","111405","0.0-119.0","35GMH2SV3F3V8YOO87580INXVZXEOP","A1FTJ3XJZM71GI","382GHPVPHSDM8N0F9141EAH7F0K34Z","","null","<img src=""img/food4.png"" style=""width:200px; border:14px solid green;"">","null","","","","","","","","","",""
"","image-keyboard-response","120","112001","0.0-120.0","35GMH2SV3F3V8YOO87580INXVZXEOP","A1FTJ3XJZM71GI","382GHPVPHSDM8N0F9141EAH7F0K34Z","","594.5999999046326","img/food6.png","76","595.5999999046326","3","1","3","1","1,0.5,0,1,0.5,0,0.5,0,1","1,0.5,0,1,0.5,0,0.5,0,1","1","",""
"","html-keyboard-response","121","112303","0.0-121.0","35GMH2SV3F3V8YOO87580INXVZXEOP","A1FTJ3XJZM71GI","382GHPVPHSDM8N0F9141EAH7F0K34Z","","null","<img src=""img/food6.png"" style=""width:200px; border:14px solid green;"">","null","","","","","","","","","",""
"","image-keyboard-response","122","112833","0.0-122.0","35GMH2SV3F3V8YOO87580INXVZXEOP","A1FTJ3XJZM71GI","382GHPVPHSDM8N0F9141EAH7F0K34Z","","528.3000001907349","img/food6.png","76","529.4000000953674","3","1","3","1","1,0.5,0,1,0.5,0,0.5,0,1","1,0.5,0,1,0.5,0,0.5,0,1","1","",""
"","html-keyboard-response","123","113135","0.0-123.0","35GMH2SV3F3V8YOO87580INXVZXEOP","A1FTJ3XJZM71GI","382GHPVPHSDM8N0F9141EAH7F0K34Z","","null","<img src=""img/food6.png"" style=""width:200px; border:14px solid green;"">","null","","","","","","","","","",""
"","image-keyboard-response","124","113643","0.0-124.0","35GMH2SV3F3V8YOO87580INXVZXEOP","A1FTJ3XJZM71GI","382GHPVPHSDM8N0F9141EAH7F0K34Z","","506.90000009536743","img/food6.png","76","508.19999980926514","3","1","3","1","1,0.5,0,1,0.5,0,0.5,0,1","1,0.5,0,1,0.5,0,0.5,0,1","1","",""
"","html-keyboard-response","125","113946","0.0-125.0","35GMH2SV3F3V8YOO87580INXVZXEOP","A1FTJ3XJZM71GI","382GHPVPHSDM8N0F9141EAH7F0K34Z","","null","<img src=""img/food6.png"" style=""width:200px; border:14px solid green;"">","null","","","","","","","","","",""
"","image-keyboard-response","126","114514","0.0-126.0","35GMH2SV3F3V8YOO87580INXVZXEOP","A1FTJ3XJZM71GI","382GHPVPHSDM8N0F9141EAH7F0K34Z","","566.6999998092651","img/food6.png","76","567.5999999046326","3","1","3","1","1,0.5,0,1,0.5,0,0.5,0,1","1,0.5,0,1,0.5,0,0.5,0,1","1","",""
"","html-keyboard-response","127","114816","0.0-127.0","35GMH2SV3F3V8YOO87580INXVZXEOP","A1FTJ3XJZM71GI","382GHPVPHSDM8N0F9141EAH7F0K34Z","","null","<img src=""img/food6.png"" style=""width:200px; border:14px solid green;"">","null","","","","","","","","","",""
"","image-keyboard-response","128","115368","0.0-128.0","35GMH2SV3F3V8YOO87580INXVZXEOP","A1FTJ3XJZM71GI","382GHPVPHSDM8N0F9141EAH7F0K34Z","","550.1999998092651","img/food3.png","74","551.5999999046326","1","1","1","1","1,0.5,0,1,0.5,0,0.5,0,1","1,0.5,0,1,0.5,0,0.5,0,1","1","",""
"","html-keyboard-response","129","115671","0.0-129.0","35GMH2SV3F3V8YOO87580INXVZXEOP","A1FTJ3XJZM71GI","382GHPVPHSDM8N0F9141EAH7F0K34Z","","null","<img src=""img/food3.png"" style=""width:200px; border:14px solid green;"">","null","","","","","","","","","",""
"","image-keyboard-response","130","116242","0.0-130.0","35GMH2SV3F3V8YOO87580INXVZXEOP","A1FTJ3XJZM71GI","382GHPVPHSDM8N0F9141EAH7F0K34Z","","569.4000000953674","img/food4.png","74","570.5999999046326","1","1","2","1","1,0.5,0,1,0.5,0,0.5,0,1","1,0.5,0,1,0.5,0,0.5,0,1","1","",""
"","html-keyboard-response","131","116544","0.0-131.0","35GMH2SV3F3V8YOO87580INXVZXEOP","A1FTJ3XJZM71GI","382GHPVPHSDM8N0F9141EAH7F0K34Z","","null","<img src=""img/food4.png"" style=""width:200px; border:14px solid green;"">","null","","","","","","","","","",""
"","image-keyboard-response","132","117178","0.0-132.0","35GMH2SV3F3V8YOO87580INXVZXEOP","A1FTJ3XJZM71GI","382GHPVPHSDM8N0F9141EAH7F0K34Z","","631.4000000953674","img/food6.png","76","632.9000000953674","3","1","3","1","1,0.5,0,1,0.5,0,0.5,0,1","1,0.5,0,1,0.5,0,0.5,0,1","1","",""
"","html-keyboard-response","133","117481","0.0-133.0","35GMH2SV3F3V8YOO87580INXVZXEOP","A1FTJ3XJZM71GI","382GHPVPHSDM8N0F9141EAH7F0K34Z","","null","<img src=""img/food6.png"" style=""width:200px; border:14px solid green;"">","null","","","","","","","","","",""
"","image-keyboard-response","134","118065","0.0-134.0","35GMH2SV3F3V8YOO87580INXVZXEOP","A1FTJ3XJZM71GI","382GHPVPHSDM8N0F9141EAH7F0K34Z","","582.1000003814697","img/food4.png","74","583.3000001907349","1","1","2","1","1,0.5,0,1,0.5,0,0.5,0,1","1,0.5,0,1,0.5,0,0.5,0,1","1","",""
"","html-keyboard-response","135","118368","0.0-135.0","35GMH2SV3F3V8YOO87580INXVZXEOP","A1FTJ3XJZM71GI","382GHPVPHSDM8N0F9141EAH7F0K34Z","","null","<img src=""img/food4.png"" style=""width:200px; border:14px solid green;"">","null","","","","","","","","","",""
"","image-keyboard-response","136","119022","0.0-136.0","35GMH2SV3F3V8YOO87580INXVZXEOP","A1FTJ3XJZM71GI","382GHPVPHSDM8N0F9141EAH7F0K34Z","","652","img/food3.png","74","653.3000001907349","1","1","1","1","1,0.5,0,1,0.5,0,0.5,0,1","1,0.5,0,1,0.5,0,0.5,0,1","1","",""
"","html-keyboard-response","137","119324","0.0-137.0","35GMH2SV3F3V8YOO87580INXVZXEOP","A1FTJ3XJZM71GI","382GHPVPHSDM8N0F9141EAH7F0K34Z","","null","<img src=""img/food3.png"" style=""width:200px; border:14px solid green;"">","null","","","","","","","","","",""
"","image-keyboard-response","138","120050","0.0-138.0","35GMH2SV3F3V8YOO87580INXVZXEOP","A1FTJ3XJZM71GI","382GHPVPHSDM8N0F9141EAH7F0K34Z","","723.7000002861023","img/food6.png","76","725","3","1","3","1","1,0.5,0,1,0.5,0,0.5,0,1","1,0.5,0,1,0.5,0,0.5,0,1","1","",""
"","html-keyboard-response","139","120352","0.0-139.0","35GMH2SV3F3V8YOO87580INXVZXEOP","A1FTJ3XJZM71GI","382GHPVPHSDM8N0F9141EAH7F0K34Z","","null","<img src=""img/food6.png"" style=""width:200px; border:14px solid green;"">","null","","","","","","","","","",""
"","image-keyboard-response","140","120971","0.0-140.0","35GMH2SV3F3V8YOO87580INXVZXEOP","A1FTJ3XJZM71GI","382GHPVPHSDM8N0F9141EAH7F0K34Z","","618.3000001907349","img/food6.png","76","619.1999998092651","3","1","3","1","1,0.5,0,1,0.5,0,0.5,0,1","1,0.5,0,1,0.5,0,0.5,0,1","1","",""
"","html-keyboard-response","141","121273","0.0-141.0","35GMH2SV3F3V8YOO87580INXVZXEOP","A1FTJ3XJZM71GI","382GHPVPHSDM8N0F9141EAH7F0K34Z","","null","<img src=""img/food6.png"" style=""width:200px; border:14px solid green;"">","null","","","","","","","","","",""
"","image-keyboard-response","142","121861","0.0-142.0","35GMH2SV3F3V8YOO87580INXVZXEOP","A1FTJ3XJZM71GI","382GHPVPHSDM8N0F9141EAH7F0K34Z","","586.0999999046326","img/food4.png","74","587.4000000953674","1","1","2","1","1,0.5,0,1,0.5,0,0.5,0,1","1,0.5,0,1,0.5,0,0.5,0,1","1","",""
"","html-keyboard-response","143","122163","0.0-143.0","35GMH2SV3F3V8YOO87580INXVZXEOP","A1FTJ3XJZM71GI","382GHPVPHSDM8N0F9141EAH7F0K34Z","","null","<img src=""img/food4.png"" style=""width:200px; border:14px solid green;"">","null","","","","","","","","","",""
"","image-keyboard-response","144","122938","0.0-144.0","35GMH2SV3F3V8YOO87580INXVZXEOP","A1FTJ3XJZM71GI","382GHPVPHSDM8N0F9141EAH7F0K34Z","","772.4000000953674","img/food6.png","76","773.7000002861023","3","1","3","1","1,0.5,0,1,0.5,0,0.5,0,1","1,0.5,0,1,0.5,0,0.5,0,1","1","",""
"","html-keyboard-response","145","123241","0.0-145.0","35GMH2SV3F3V8YOO87580INXVZXEOP","A1FTJ3XJZM71GI","382GHPVPHSDM8N0F9141EAH7F0K34Z","","null","<img src=""img/food6.png"" style=""width:200px; border:14px solid green;"">","null","","","","","","","","","",""
"","image-keyboard-response","146","123731","0.0-146.0","35GMH2SV3F3V8YOO87580INXVZXEOP","A1FTJ3XJZM71GI","382GHPVPHSDM8N0F9141EAH7F0K34Z","","488.80000019073486","img/food3.png","74","490.09999990463257","1","1","1","1","1,0.5,0,1,0.5,0,0.5,0,1","1,0.5,0,1,0.5,0,0.5,0,1","1","",""
"","html-keyboard-response","147","124035","0.0-147.0","35GMH2SV3F3V8YOO87580INXVZXEOP","A1FTJ3XJZM71GI","382GHPVPHSDM8N0F9141EAH7F0K34Z","","null","<img src=""img/food3.png"" style=""width:200px; border:14px solid green;"">","null","","","","","","","","","",""
"","image-keyboard-response","148","124503","0.0-148.0","35GMH2SV3F3V8YOO87580INXVZXEOP","A1FTJ3XJZM71GI","382GHPVPHSDM8N0F9141EAH7F0K34Z","","466.40000009536743","img/food4.png","74","467.5","1","1","2","1","1,0.5,0,1,0.5,0,0.5,0,1","1,0.5,0,1,0.5,0,0.5,0,1","1","",""
"","html-keyboard-response","149","124805","0.0-149.0","35GMH2SV3F3V8YOO87580INXVZXEOP","A1FTJ3XJZM71GI","382GHPVPHSDM8N0F9141EAH7F0K34Z","","null","<img src=""img/food4.png"" style=""width:200px; border:14px solid green;"">","null","","","","","","","","","",""
"","image-keyboard-response","150","125438","0.0-150.0","35GMH2SV3F3V8YOO87580INXVZXEOP","A1FTJ3XJZM71GI","382GHPVPHSDM8N0F9141EAH7F0K34Z","","632.5999999046326","img/food3.png","74","633.4000000953674","1","1","1","1","1,0.5,0,1,0.5,0,0.5,0,1","1,0.5,0,1,0.5,0,0.5,0,1","1","",""
"","html-keyboard-response","151","125754","0.0-151.0","35GMH2SV3F3V8YOO87580INXVZXEOP","A1FTJ3XJZM71GI","382GHPVPHSDM8N0F9141EAH7F0K34Z","","null","<img src=""img/food3.png"" style=""width:200px; border:14px solid green;"">","null","","","","","","","","","",""
"","image-keyboard-response","152","126283","0.0-152.0","35GMH2SV3F3V8YOO87580INXVZXEOP","A1FTJ3XJZM71GI","382GHPVPHSDM8N0F9141EAH7F0K34Z","","528.0999999046326","img/food6.png","76","528.6999998092651","3","1","3","1","1,0.5,0,1,0.5,0,0.5,0,1","1,0.5,0,1,0.5,0,0.5,0,1","1","",""
"","html-keyboard-response","153","126585","0.0-153.0","35GMH2SV3F3V8YOO87580INXVZXEOP","A1FTJ3XJZM71GI","382GHPVPHSDM8N0F9141EAH7F0K34Z","","null","<img src=""img/food6.png"" style=""width:200px; border:14px solid green;"">","null","","","","","","","","","",""
"","image-keyboard-response","154","127193","0.0-154.0","35GMH2SV3F3V8YOO87580INXVZXEOP","A1FTJ3XJZM71GI","382GHPVPHSDM8N0F9141EAH7F0K34Z","","605.8999996185303","img/food4.png","74","607.2000002861023","1","1","2","1","1,0.5,0,1,0.5,0,0.5,0,1","1,0.5,0,1,0.5,0,0.5,0,1","1","",""
"","html-keyboard-response","155","127497","0.0-155.0","35GMH2SV3F3V8YOO87580INXVZXEOP","A1FTJ3XJZM71GI","382GHPVPHSDM8N0F9141EAH7F0K34Z","","null","<img src=""img/food4.png"" style=""width:200px; border:14px solid green;"">","null","","","","","","","","","",""
"","image-keyboard-response","156","128255","0.0-156.0","35GMH2SV3F3V8YOO87580INXVZXEOP","A1FTJ3XJZM71GI","382GHPVPHSDM8N0F9141EAH7F0K34Z","","756.4000000953674","img/food3.png","74","757.5","1","1","1","1","1,0.5,0,1,0.5,0,0.5,0,1","1,0.5,0,1,0.5,0,0.5,0,1","1","",""
"","html-keyboard-response","157","128557","0.0-157.0","35GMH2SV3F3V8YOO87580INXVZXEOP","A1FTJ3XJZM71GI","382GHPVPHSDM8N0F9141EAH7F0K34Z","","null","<img src=""img/food3.png"" style=""width:200px; border:14px solid green;"">","null","","","","","","","","","",""
"","image-keyboard-response","158","129131","0.0-158.0","35GMH2SV3F3V8YOO87580INXVZXEOP","A1FTJ3XJZM71GI","382GHPVPHSDM8N0F9141EAH7F0K34Z","","571.7000002861023","img/food4.png","74","572.9000000953674","1","1","2","1","1,0.5,0,1,0.5,0,0.5,0,1","1,0.5,0,1,0.5,0,0.5,0,1","1","",""
"","html-keyboard-response","159","129433","0.0-159.0","35GMH2SV3F3V8YOO87580INXVZXEOP","A1FTJ3XJZM71GI","382GHPVPHSDM8N0F9141EAH7F0K34Z","","null","<img src=""img/food4.png"" style=""width:200px; border:14px solid green;"">","null","","","","","","","","","",""
"","image-keyboard-response","160","130010","0.0-160.0","35GMH2SV3F3V8YOO87580INXVZXEOP","A1FTJ3XJZM71GI","382GHPVPHSDM8N0F9141EAH7F0K34Z","","575.5","img/food3.png","74","576.8000001907349","1","1","1","1","1,0.5,0,1,0.5,0,0.5,0,1","1,0.5,0,1,0.5,0,0.5,0,1","1","",""
"","html-keyboard-response","161","130313","0.0-161.0","35GMH2SV3F3V8YOO87580INXVZXEOP","A1FTJ3XJZM71GI","382GHPVPHSDM8N0F9141EAH7F0K34Z","","null","<img src=""img/food3.png"" style=""width:200px; border:14px solid green;"">","null","","","","","","","","","",""
"","image-keyboard-response","162","130959","0.0-162.0","35GMH2SV3F3V8YOO87580INXVZXEOP","A1FTJ3XJZM71GI","382GHPVPHSDM8N0F9141EAH7F0K34Z","","643.6999998092651","img/food4.png","74","645","1","1","2","1","1,0.5,0,1,0.5,0,0.5,0,1","1,0.5,0,1,0.5,0,0.5,0,1","1","",""
"","html-keyboard-response","163","131262","0.0-163.0","35GMH2SV3F3V8YOO87580INXVZXEOP","A1FTJ3XJZM71GI","382GHPVPHSDM8N0F9141EAH7F0K34Z","","null","<img src=""img/food4.png"" style=""width:200px; border:14px solid green;"">","null","","","","","","","","","",""
"","image-keyboard-response","164","131802","0.0-164.0","35GMH2SV3F3V8YOO87580INXVZXEOP","A1FTJ3XJZM71GI","382GHPVPHSDM8N0F9141EAH7F0K34Z","","537.5999999046326","img/food3.png","74","538.8999996185303","1","1","1","1","1,0.5,0,1,0.5,0,0.5,0,1","1,0.5,0,1,0.5,0,0.5,0,1","1","",""
"","html-keyboard-response","165","132104","0.0-165.0","35GMH2SV3F3V8YOO87580INXVZXEOP","A1FTJ3XJZM71GI","382GHPVPHSDM8N0F9141EAH7F0K34Z","","null","<img src=""img/food3.png"" style=""width:200px; border:14px solid green;"">","null","","","","","","","","","",""
"","image-keyboard-response","166","132633","0.0-166.0","35GMH2SV3F3V8YOO87580INXVZXEOP","A1FTJ3XJZM71GI","382GHPVPHSDM8N0F9141EAH7F0K34Z","","526.7999997138977","img/food3.png","74","527.9000000953674","1","1","1","1","1,0.5,0,1,0.5,0,0.5,0,1","1,0.5,0,1,0.5,0,0.5,0,1","1","",""
"","html-keyboard-response","167","132937","0.0-167.0","35GMH2SV3F3V8YOO87580INXVZXEOP","A1FTJ3XJZM71GI","382GHPVPHSDM8N0F9141EAH7F0K34Z","","null","<img src=""img/food3.png"" style=""width:200px; border:14px solid green;"">","null","","","","","","","","","",""
"","image-keyboard-response","168","133514","0.0-168.0","35GMH2SV3F3V8YOO87580INXVZXEOP","A1FTJ3XJZM71GI","382GHPVPHSDM8N0F9141EAH7F0K34Z","","574.6999998092651","img/food4.png","74","575.7999997138977","1","1","2","1","1,0.5,0,1,0.5,0,0.5,0,1","1,0.5,0,1,0.5,0,0.5,0,1","1","",""
"","html-keyboard-response","169","133818","0.0-169.0","35GMH2SV3F3V8YOO87580INXVZXEOP","A1FTJ3XJZM71GI","382GHPVPHSDM8N0F9141EAH7F0K34Z","","null","<img src=""img/food4.png"" style=""width:200px; border:14px solid green;"">","null","","","","","","","","","",""
"","image-keyboard-response","170","134419","0.0-170.0","35GMH2SV3F3V8YOO87580INXVZXEOP","A1FTJ3XJZM71GI","382GHPVPHSDM8N0F9141EAH7F0K34Z","","599.2000002861023","img/food4.png","74","600.5999999046326","1","1","2","1","1,0.5,0,1,0.5,0,0.5,0,1","1,0.5,0,1,0.5,0,0.5,0,1","1","",""
"","html-keyboard-response","171","134722","0.0-171.0","35GMH2SV3F3V8YOO87580INXVZXEOP","A1FTJ3XJZM71GI","382GHPVPHSDM8N0F9141EAH7F0K34Z","","null","<img src=""img/food4.png"" style=""width:200px; border:14px solid green;"">","null","","","","","","","","","",""
"","image-keyboard-response","172","135284","0.0-172.0","35GMH2SV3F3V8YOO87580INXVZXEOP","A1FTJ3XJZM71GI","382GHPVPHSDM8N0F9141EAH7F0K34Z","","559.6999998092651","img/food6.png","76","560.9000000953674","3","1","3","1","1,0.5,0,1,0.5,0,0.5,0,1","1,0.5,0,1,0.5,0,0.5,0,1","1","",""
"","html-keyboard-response","173","135586","0.0-173.0","35GMH2SV3F3V8YOO87580INXVZXEOP","A1FTJ3XJZM71GI","382GHPVPHSDM8N0F9141EAH7F0K34Z","","null","<img src=""img/food6.png"" style=""width:200px; border:14px solid green;"">","null","","","","","","","","","",""
"","image-keyboard-response","174","136217","0.0-174.0","35GMH2SV3F3V8YOO87580INXVZXEOP","A1FTJ3XJZM71GI","382GHPVPHSDM8N0F9141EAH7F0K34Z","","629","img/food3.png","74","630.1999998092651","1","1","1","1","1,0.5,0,1,0.5,0,0.5,0,1","1,0.5,0,1,0.5,0,0.5,0,1","1","",""
"","html-keyboard-response","175","136520","0.0-175.0","35GMH2SV3F3V8YOO87580INXVZXEOP","A1FTJ3XJZM71GI","382GHPVPHSDM8N0F9141EAH7F0K34Z","","null","<img src=""img/food3.png"" style=""width:200px; border:14px solid green;"">","null","","","","","","","","","",""
"","image-keyboard-response","176","137120","0.0-176.0","35GMH2SV3F3V8YOO87580INXVZXEOP","A1FTJ3XJZM71GI","382GHPVPHSDM8N0F9141EAH7F0K34Z","","599.1999998092651","img/food3.png","74","600.3000001907349","1","1","1","1","1,0.5,0,1,0.5,0,0.5,0,1","1,0.5,0,1,0.5,0,0.5,0,1","1","",""
"","html-keyboard-response","177","137423","0.0-177.0","35GMH2SV3F3V8YOO87580INXVZXEOP","A1FTJ3XJZM71GI","382GHPVPHSDM8N0F9141EAH7F0K34Z","","null","<img src=""img/food3.png"" style=""width:200px; border:14px solid green;"">","null","","","","","","","","","",""
"","image-keyboard-response","178","138158","0.0-178.0","35GMH2SV3F3V8YOO87580INXVZXEOP","A1FTJ3XJZM71GI","382GHPVPHSDM8N0F9141EAH7F0K34Z","","733.7999997138977","img/food6.png","76","735.2000002861023","3","1","3","1","1,0.5,0,1,0.5,0,0.5,0,1","1,0.5,0,1,0.5,0,0.5,0,1","1","",""
"","html-keyboard-response","179","138461","0.0-179.0","35GMH2SV3F3V8YOO87580INXVZXEOP","A1FTJ3XJZM71GI","382GHPVPHSDM8N0F9141EAH7F0K34Z","","null","<img src=""img/food6.png"" style=""width:200px; border:14px solid green;"">","null","","","","","","","","","",""
"","image-keyboard-response","180","138966","0.0-180.0","35GMH2SV3F3V8YOO87580INXVZXEOP","A1FTJ3XJZM71GI","382GHPVPHSDM8N0F9141EAH7F0K34Z","","502.3999996185303","img/food6.png","76","503.6000003814697","3","1","3","1","1,0.5,0,1,0.5,0,0.5,0,1","1,0.5,0,1,0.5,0,0.5,0,1","1","",""
"","html-keyboard-response","181","139269","0.0-181.0","35GMH2SV3F3V8YOO87580INXVZXEOP","A1FTJ3XJZM71GI","382GHPVPHSDM8N0F9141EAH7F0K34Z","","null","<img src=""img/food6.png"" style=""width:200px; border:14px solid green;"">","null","","","","","","","","","",""
"","html-keyboard-response","182","143023","0.0-182.0","35GMH2SV3F3V8YOO87580INXVZXEOP","A1FTJ3XJZM71GI","382GHPVPHSDM8N0F9141EAH7F0K34Z","","","","","","","","","","","","","",""
"","instructions","183","159191","0.0-183.0","35GMH2SV3F3V8YOO87580INXVZXEOP","A1FTJ3XJZM71GI","382GHPVPHSDM8N0F9141EAH7F0K34Z","[{""page_index"":0,""viewing_time"":14271},{""page_index"":1,""viewing_time"":1896.5}]","16167.900000095367","","","","","","","","","","","",""
"","image-keyboard-response","184","159775","0.0-184.0","35GMH2SV3F3V8YOO87580INXVZXEOP","A1FTJ3XJZM71GI","382GHPVPHSDM8N0F9141EAH7F0K34Z","","582.5999999046326","img/food2.png","75","584","2","1","1","2","1,0.5,0,1,0.5,0,0.5,0,1","0,1,0.5,0,1,0.5,1,0.5,0","3","false",""
"","html-keyboard-response","185","160079","0.0-185.0","35GMH2SV3F3V8YOO87580INXVZXEOP","A1FTJ3XJZM71GI","382GHPVPHSDM8N0F9141EAH7F0K34Z","","null","<img src=""img/food2.png"" style=""width:200px; border:14px solid green;"">","null","","","","","","","","","",""
"","image-keyboard-response","186","160849","0.0-187.0","35GMH2SV3F3V8YOO87580INXVZXEOP","A1FTJ3XJZM71GI","382GHPVPHSDM8N0F9141EAH7F0K34Z","","767.5","img/food5.png","74","768.8999996185303","1","1","3","2","1,0.5,0,1,0.5,0,0.5,0,1","0,1,0.5,0,1,0.5,1,0.5,0","3","false",""
"","html-keyboard-response","187","161152","0.0-188.0","35GMH2SV3F3V8YOO87580INXVZXEOP","A1FTJ3XJZM71GI","382GHPVPHSDM8N0F9141EAH7F0K34Z","","null","<img src=""img/food5.png"" style=""width:200px; border:14px solid green;"">","null","","","","","","","","","",""
"","image-keyboard-response","188","161946","0.0-190.0","35GMH2SV3F3V8YOO87580INXVZXEOP","A1FTJ3XJZM71GI","382GHPVPHSDM8N0F9141EAH7F0K34Z","","791.1000003814697","img/food2.png","75","792.6999998092651","2","1","1","2","1,0.5,0,1,0.5,0,0.5,0,1","0,1,0.5,0,1,0.5,1,0.5,0","3","false",""
"","html-keyboard-response","189","162249","0.0-191.0","35GMH2SV3F3V8YOO87580INXVZXEOP","A1FTJ3XJZM71GI","382GHPVPHSDM8N0F9141EAH7F0K34Z","","null","<img src=""img/food2.png"" style=""width:200px; border:14px solid green;"">","null","","","","","","","","","",""
"","image-keyboard-response","190","162797","0.0-193.0","35GMH2SV3F3V8YOO87580INXVZXEOP","A1FTJ3XJZM71GI","382GHPVPHSDM8N0F9141EAH7F0K34Z","","547.3000001907349","img/food5.png","74","548","1","1","3","2","1,0.5,0,1,0.5,0,0.5,0,1","0,1,0.5,0,1,0.5,1,0.5,0","3","false",""
"","html-keyboard-response","191","163100","0.0-194.0","35GMH2SV3F3V8YOO87580INXVZXEOP","A1FTJ3XJZM71GI","382GHPVPHSDM8N0F9141EAH7F0K34Z","","null","<img src=""img/food5.png"" style=""width:200px; border:14px solid green;"">","null","","","","","","","","","",""
"","image-keyboard-response","192","163609","0.0-196.0","35GMH2SV3F3V8YOO87580INXVZXEOP","A1FTJ3XJZM71GI","382GHPVPHSDM8N0F9141EAH7F0K34Z","","507.40000009536743","img/food2.png","75","508.30000019073486","2","1","1","2","1,0.5,0,1,0.5,0,0.5,0,1","0,1,0.5,0,1,0.5,1,0.5,0","3","false",""
"","html-keyboard-response","193","163912","0.0-197.0","35GMH2SV3F3V8YOO87580INXVZXEOP","A1FTJ3XJZM71GI","382GHPVPHSDM8N0F9141EAH7F0K34Z","","null","<img src=""img/food2.png"" style=""width:200px; border:14px solid green;"">","null","","","","","","","","","",""
"","image-keyboard-response","194","164730","0.0-199.0","35GMH2SV3F3V8YOO87580INXVZXEOP","A1FTJ3XJZM71GI","382GHPVPHSDM8N0F9141EAH7F0K34Z","","816.1000003814697","img/food1.png","76","817","3","0","2","2","1,0.5,0,1,0.5,0,0.5,0,1","0,1,0.5,0,1,0.5,1,0.5,0","3","false",""
"","html-keyboard-response","195","165033","0.0-200.0","35GMH2SV3F3V8YOO87580INXVZXEOP","A1FTJ3XJZM71GI","382GHPVPHSDM8N0F9141EAH7F0K34Z","","null","<img src=""img/food1.png"" style=""width:200px;border:14px solid red;"">","null","","","","","","","","","",""
"","image-keyboard-response","196","165943","0.0-202.0","35GMH2SV3F3V8YOO87580INXVZXEOP","A1FTJ3XJZM71GI","382GHPVPHSDM8N0F9141EAH7F0K34Z","","908.1999998092651","img/food5.png","74","909.4000000953674","1","1","3","2","1,0.5,0,1,0.5,0,0.5,0,1","0,1,0.5,0,1,0.5,1,0.5,0","3","false",""
"","html-keyboard-response","197","166246","0.0-203.0","35GMH2SV3F3V8YOO87580INXVZXEOP","A1FTJ3XJZM71GI","382GHPVPHSDM8N0F9141EAH7F0K34Z","","null","<img src=""img/food5.png"" style=""width:200px; border:14px solid green;"">","null","","","","","","","","","",""
"","image-keyboard-response","198","166745","0.0-205.0","35GMH2SV3F3V8YOO87580INXVZXEOP","A1FTJ3XJZM71GI","382GHPVPHSDM8N0F9141EAH7F0K34Z","","497.19999980926514","img/food2.png","75","498.2000002861023","2","1","1","2","1,0.5,0,1,0.5,0,0.5,0,1","0,1,0.5,0,1,0.5,1,0.5,0","3","false",""
"","html-keyboard-response","199","167048","0.0-206.0","35GMH2SV3F3V8YOO87580INXVZXEOP","A1FTJ3XJZM71GI","382GHPVPHSDM8N0F9141EAH7F0K34Z","","null","<img src=""img/food2.png"" style=""width:200px; border:14px solid green;"">","null","","","","","","","","","",""
"","image-keyboard-response","200","167661","0.0-208.0","35GMH2SV3F3V8YOO87580INXVZXEOP","A1FTJ3XJZM71GI","382GHPVPHSDM8N0F9141EAH7F0K34Z","","610.6999998092651","img/food1.png","74","612.0999999046326","1","0","2","2","1,0.5,0,1,0.5,0,0.5,0,1","0,1,0.5,0,1,0.5,1,0.5,0","3","false",""
"","html-keyboard-response","201","167963","0.0-209.0","35GMH2SV3F3V8YOO87580INXVZXEOP","A1FTJ3XJZM71GI","382GHPVPHSDM8N0F9141EAH7F0K34Z","","null","<img src=""img/food1.png"" style=""width:200px;border:14px solid red;"">","null","","","","","","","","","",""
"","image-keyboard-response","202","168803","0.0-211.0","35GMH2SV3F3V8YOO87580INXVZXEOP","A1FTJ3XJZM71GI","382GHPVPHSDM8N0F9141EAH7F0K34Z","","838","img/food1.png","76","839.3000001907349","3","1","2","2","1,0.5,0,1,0.5,0,0.5,0,1","0,1,0.5,0,1,0.5,1,0.5,0","3","false",""
"","html-keyboard-response","203","169106","0.0-212.0","35GMH2SV3F3V8YOO87580INXVZXEOP","A1FTJ3XJZM71GI","382GHPVPHSDM8N0F9141EAH7F0K34Z","","null","<img src=""img/food1.png"" style=""width:200px; border:14px solid green;"">","null","","","","","","","","","",""
"","image-keyboard-response","204","169749","0.0-214.0","35GMH2SV3F3V8YOO87580INXVZXEOP","A1FTJ3XJZM71GI","382GHPVPHSDM8N0F9141EAH7F0K34Z","","640.9000000953674","img/food5.png","75","642.2999997138977","2","0","3","2","1,0.5,0,1,0.5,0,0.5,0,1","0,1,0.5,0,1,0.5,1,0.5,0","3","false",""
"","html-keyboard-response","205","170051","0.0-215.0","35GMH2SV3F3V8YOO87580INXVZXEOP","A1FTJ3XJZM71GI","382GHPVPHSDM8N0F9141EAH7F0K34Z","","null","<img src=""img/food5.png"" style=""width:200px;border:14px solid red;"">","null","","","","","","","","","",""
"","image-keyboard-response","206","170752","0.0-217.0","35GMH2SV3F3V8YOO87580INXVZXEOP","A1FTJ3XJZM71GI","382GHPVPHSDM8N0F9141EAH7F0K34Z","","698.9000000953674","img/food2.png","75","700.1999998092651","2","1","1","2","1,0.5,0,1,0.5,0,0.5,0,1","0,1,0.5,0,1,0.5,1,0.5,0","3","false",""
"","html-keyboard-response","207","171056","0.0-218.0","35GMH2SV3F3V8YOO87580INXVZXEOP","A1FTJ3XJZM71GI","382GHPVPHSDM8N0F9141EAH7F0K34Z","","null","<img src=""img/food2.png"" style=""width:200px; border:14px solid green;"">","null","","","","","","","","","",""
"","image-keyboard-response","208","172059","0.0-220.0","35GMH2SV3F3V8YOO87580INXVZXEOP","A1FTJ3XJZM71GI","382GHPVPHSDM8N0F9141EAH7F0K34Z","","","img/food5.png","","1002.5","-1","0","3","2","1,0.5,0,1,0.5,0,0.5,0,1","0,1,0.5,0,1,0.5,1,0.5,0","3","true",""
"","html-keyboard-response","209","172361","0.0-221.0","35GMH2SV3F3V8YOO87580INXVZXEOP","A1FTJ3XJZM71GI","382GHPVPHSDM8N0F9141EAH7F0K34Z","","null","<img src=""img/food5.png"" style=""width:200px;border:14px solid red;"">","null","","","","","","","","","",""
"","html-keyboard-response","210","174873","0.0-222.0-0.0","35GMH2SV3F3V8YOO87580INXVZXEOP","A1FTJ3XJZM71GI","382GHPVPHSDM8N0F9141EAH7F0K34Z","","","","","","","","","","","","","",""
"","image-keyboard-response","211","175443","0.0-223.0","35GMH2SV3F3V8YOO87580INXVZXEOP","A1FTJ3XJZM71GI","382GHPVPHSDM8N0F9141EAH7F0K34Z","","568.8000001907349","img/food1.png","74","569.8000001907349","1","0","2","2","1,0.5,0,1,0.5,0,0.5,0,1","0,1,0.5,0,1,0.5,1,0.5,0","3","false",""
"","html-keyboard-response","212","175746","0.0-224.0","35GMH2SV3F3V8YOO87580INXVZXEOP","A1FTJ3XJZM71GI","382GHPVPHSDM8N0F9141EAH7F0K34Z","","null","<img src=""img/food1.png"" style=""width:200px;border:14px solid red;"">","null","","","","","","","","","",""
"","image-keyboard-response","213","176372","0.0-226.0","35GMH2SV3F3V8YOO87580INXVZXEOP","A1FTJ3XJZM71GI","382GHPVPHSDM8N0F9141EAH7F0K34Z","","624.3000001907349","img/food5.png","75","625.4000000953674","2","1","3","2","1,0.5,0,1,0.5,0,0.5,0,1","0,1,0.5,0,1,0.5,1,0.5,0","3","false",""
"","html-keyboard-response","214","176674","0.0-227.0","35GMH2SV3F3V8YOO87580INXVZXEOP","A1FTJ3XJZM71GI","382GHPVPHSDM8N0F9141EAH7F0K34Z","","null","<img src=""img/food5.png"" style=""width:200px; border:14px solid green;"">","null","","","","","","","","","",""
"","image-keyboard-response","215","177288","0.0-229.0","35GMH2SV3F3V8YOO87580INXVZXEOP","A1FTJ3XJZM71GI","382GHPVPHSDM8N0F9141EAH7F0K34Z","","611.5999999046326","img/food2.png","75","613","2","1","1","2","1,0.5,0,1,0.5,0,0.5,0,1","0,1,0.5,0,1,0.5,1,0.5,0","3","false",""
"","html-keyboard-response","216","177591","0.0-230.0","35GMH2SV3F3V8YOO87580INXVZXEOP","A1FTJ3XJZM71GI","382GHPVPHSDM8N0F9141EAH7F0K34Z","","null","<img src=""img/food2.png"" style=""width:200px; border:14px solid green;"">","null","","","","","","","","","",""
"","image-keyboard-response","217","178271","0.0-232.0","35GMH2SV3F3V8YOO87580INXVZXEOP","A1FTJ3XJZM71GI","382GHPVPHSDM8N0F9141EAH7F0K34Z","","677.8000001907349","img/food1.png","76","678.9000000953674","3","0","2","2","1,0.5,0,1,0.5,0,0.5,0,1","0,1,0.5,0,1,0.5,1,0.5,0","3","false",""
"","html-keyboard-response","218","178574","0.0-233.0","35GMH2SV3F3V8YOO87580INXVZXEOP","A1FTJ3XJZM71GI","382GHPVPHSDM8N0F9141EAH7F0K34Z","","null","<img src=""img/food1.png"" style=""width:200px;border:14px solid red;"">","null","","","","","","","","","",""
"","image-keyboard-response","219","179232","0.0-235.0","35GMH2SV3F3V8YOO87580INXVZXEOP","A1FTJ3XJZM71GI","382GHPVPHSDM8N0F9141EAH7F0K34Z","","656","img/food5.png","74","657.4000000953674","1","1","3","2","1,0.5,0,1,0.5,0,0.5,0,1","0,1,0.5,0,1,0.5,1,0.5,0","3","false",""
"","html-keyboard-response","220","179535","0.0-236.0","35GMH2SV3F3V8YOO87580INXVZXEOP","A1FTJ3XJZM71GI","382GHPVPHSDM8N0F9141EAH7F0K34Z","","null","<img src=""img/food5.png"" style=""width:200px; border:14px solid green;"">","null","","","","","","","","","",""
"","image-keyboard-response","221","180153","0.0-238.0","35GMH2SV3F3V8YOO87580INXVZXEOP","A1FTJ3XJZM71GI","382GHPVPHSDM8N0F9141EAH7F0K34Z","","615.5999999046326","img/food2.png","75","617.0999999046326","2","1","1","2","1,0.5,0,1,0.5,0,0.5,0,1","0,1,0.5,0,1,0.5,1,0.5,0","3","false",""
"","html-keyboard-response","222","180456","0.0-239.0","35GMH2SV3F3V8YOO87580INXVZXEOP","A1FTJ3XJZM71GI","382GHPVPHSDM8N0F9141EAH7F0K34Z","","null","<img src=""img/food2.png"" style=""width:200px; border:14px solid green;"">","null","","","","","","","","","",""
"","image-keyboard-response","223","181019","0.0-241.0","35GMH2SV3F3V8YOO87580INXVZXEOP","A1FTJ3XJZM71GI","382GHPVPHSDM8N0F9141EAH7F0K34Z","","560.5","img/food2.png","75","561.9000000953674","2","1","1","2","1,0.5,0,1,0.5,0,0.5,0,1","0,1,0.5,0,1,0.5,1,0.5,0","3","false",""
"","html-keyboard-response","224","181321","0.0-242.0","35GMH2SV3F3V8YOO87580INXVZXEOP","A1FTJ3XJZM71GI","382GHPVPHSDM8N0F9141EAH7F0K34Z","","null","<img src=""img/food2.png"" style=""width:200px; border:14px solid green;"">","null","","","","","","","","","",""
"","image-keyboard-response","225","181909","0.0-244.0","35GMH2SV3F3V8YOO87580INXVZXEOP","A1FTJ3XJZM71GI","382GHPVPHSDM8N0F9141EAH7F0K34Z","","585.6999998092651","img/food5.png","74","587.0999999046326","1","1","3","2","1,0.5,0,1,0.5,0,0.5,0,1","0,1,0.5,0,1,0.5,1,0.5,0","3","false",""
"","html-keyboard-response","226","182212","0.0-245.0","35GMH2SV3F3V8YOO87580INXVZXEOP","A1FTJ3XJZM71GI","382GHPVPHSDM8N0F9141EAH7F0K34Z","","null","<img src=""img/food5.png"" style=""width:200px; border:14px solid green;"">","null","","","","","","","","","",""
"","image-keyboard-response","227","182883","0.0-247.0","35GMH2SV3F3V8YOO87580INXVZXEOP","A1FTJ3XJZM71GI","382GHPVPHSDM8N0F9141EAH7F0K34Z","","668.9000000953674","img/food1.png","76","669.8000001907349","3","0","2","2","1,0.5,0,1,0.5,0,0.5,0,1","0,1,0.5,0,1,0.5,1,0.5,0","3","false",""
"","html-keyboard-response","228","183186","0.0-248.0","35GMH2SV3F3V8YOO87580INXVZXEOP","A1FTJ3XJZM71GI","382GHPVPHSDM8N0F9141EAH7F0K34Z","","null","<img src=""img/food1.png"" style=""width:200px;border:14px solid red;"">","null","","","","","","","","","",""
"","image-keyboard-response","229","184188","0.0-250.0","35GMH2SV3F3V8YOO87580INXVZXEOP","A1FTJ3XJZM71GI","382GHPVPHSDM8N0F9141EAH7F0K34Z","","","img/food2.png","","1001.7000002861023","-1","0","1","2","1,0.5,0,1,0.5,0,0.5,0,1","0,1,0.5,0,1,0.5,1,0.5,0","3","true",""
"","html-keyboard-response","230","184491","0.0-251.0","35GMH2SV3F3V8YOO87580INXVZXEOP","A1FTJ3XJZM71GI","382GHPVPHSDM8N0F9141EAH7F0K34Z","","null","<img src=""img/food2.png"" style=""width:200px;border:14px solid red;"">","null","","","","","","","","","",""
"","html-keyboard-response","231","187246","0.0-252.0-0.0","35GMH2SV3F3V8YOO87580INXVZXEOP","A1FTJ3XJZM71GI","382GHPVPHSDM8N0F9141EAH7F0K34Z","","","","","","","","","","","","","",""
"","image-keyboard-response","232","187910","0.0-253.0","35GMH2SV3F3V8YOO87580INXVZXEOP","A1FTJ3XJZM71GI","382GHPVPHSDM8N0F9141EAH7F0K34Z","","662.6999998092651","img/food1.png","74","663.8000001907349","1","0","2","2","1,0.5,0,1,0.5,0,0.5,0,1","0,1,0.5,0,1,0.5,1,0.5,0","3","false",""
"","html-keyboard-response","233","188214","0.0-254.0","35GMH2SV3F3V8YOO87580INXVZXEOP","A1FTJ3XJZM71GI","382GHPVPHSDM8N0F9141EAH7F0K34Z","","null","<img src=""img/food1.png"" style=""width:200px;border:14px solid red;"">","null","","","","","","","","","",""
"","image-keyboard-response","234","188678","0.0-256.0","35GMH2SV3F3V8YOO87580INXVZXEOP","A1FTJ3XJZM71GI","382GHPVPHSDM8N0F9141EAH7F0K34Z","","461.69999980926514","img/food2.png","75","462.8999996185303","2","1","1","2","1,0.5,0,1,0.5,0,0.5,0,1","0,1,0.5,0,1,0.5,1,0.5,0","3","false",""
"","html-keyboard-response","235","188980","0.0-257.0","35GMH2SV3F3V8YOO87580INXVZXEOP","A1FTJ3XJZM71GI","382GHPVPHSDM8N0F9141EAH7F0K34Z","","null","<img src=""img/food2.png"" style=""width:200px; border:14px solid green;"">","null","","","","","","","","","",""
"","image-keyboard-response","236","189558","0.0-259.0","35GMH2SV3F3V8YOO87580INXVZXEOP","A1FTJ3XJZM71GI","382GHPVPHSDM8N0F9141EAH7F0K34Z","","574.9000000953674","img/food5.png","74","576.3000001907349","1","1","3","2","1,0.5,0,1,0.5,0,0.5,0,1","0,1,0.5,0,1,0.5,1,0.5,0","3","false",""
"","html-keyboard-response","237","189861","0.0-260.0","35GMH2SV3F3V8YOO87580INXVZXEOP","A1FTJ3XJZM71GI","382GHPVPHSDM8N0F9141EAH7F0K34Z","","null","<img src=""img/food5.png"" style=""width:200px; border:14px solid green;"">","null","","","","","","","","","",""
"","image-keyboard-response","238","190490","0.0-262.0","35GMH2SV3F3V8YOO87580INXVZXEOP","A1FTJ3XJZM71GI","382GHPVPHSDM8N0F9141EAH7F0K34Z","","626.9000000953674","img/food1.png","75","628.2999997138977","2","1","2","2","1,0.5,0,1,0.5,0,0.5,0,1","0,1,0.5,0,1,0.5,1,0.5,0","3","false",""
"","html-keyboard-response","239","190794","0.0-263.0","35GMH2SV3F3V8YOO87580INXVZXEOP","A1FTJ3XJZM71GI","382GHPVPHSDM8N0F9141EAH7F0K34Z","","null","<img src=""img/food1.png"" style=""width:200px; border:14px solid green;"">","null","","","","","","","","","",""
"","image-keyboard-response","240","191614","0.0-265.0","35GMH2SV3F3V8YOO87580INXVZXEOP","A1FTJ3XJZM71GI","382GHPVPHSDM8N0F9141EAH7F0K34Z","","817.5","img/food5.png","74","819","1","1","3","2","1,0.5,0,1,0.5,0,0.5,0,1","0,1,0.5,0,1,0.5,1,0.5,0","3","false",""
"","html-keyboard-response","241","191922","0.0-266.0","35GMH2SV3F3V8YOO87580INXVZXEOP","A1FTJ3XJZM71GI","382GHPVPHSDM8N0F9141EAH7F0K34Z","","null","<img src=""img/food5.png"" style=""width:200px; border:14px solid green;"">","null","","","","","","","","","",""
"","image-keyboard-response","242","192632","0.0-268.0","35GMH2SV3F3V8YOO87580INXVZXEOP","A1FTJ3XJZM71GI","382GHPVPHSDM8N0F9141EAH7F0K34Z","","708","img/food1.png","75","709.3000001907349","2","1","2","2","1,0.5,0,1,0.5,0,0.5,0,1","0,1,0.5,0,1,0.5,1,0.5,0","3","false",""
"","html-keyboard-response","243","192935","0.0-269.0","35GMH2SV3F3V8YOO87580INXVZXEOP","A1FTJ3XJZM71GI","382GHPVPHSDM8N0F9141EAH7F0K34Z","","null","<img src=""img/food1.png"" style=""width:200px; border:14px solid green;"">","null","","","","","","","","","",""
"","image-keyboard-response","244","193373","0.0-271.0","35GMH2SV3F3V8YOO87580INXVZXEOP","A1FTJ3XJZM71GI","382GHPVPHSDM8N0F9141EAH7F0K34Z","","435.7999997138977","img/food1.png","75","437.2000002861023","2","1","2","2","1,0.5,0,1,0.5,0,0.5,0,1","0,1,0.5,0,1,0.5,1,0.5,0","3","false",""
"","html-keyboard-response","245","193676","0.0-272.0","35GMH2SV3F3V8YOO87580INXVZXEOP","A1FTJ3XJZM71GI","382GHPVPHSDM8N0F9141EAH7F0K34Z","","null","<img src=""img/food1.png"" style=""width:200px; border:14px solid green;"">","null","","","","","","","","","",""
"","image-keyboard-response","246","194189","0.0-274.0","35GMH2SV3F3V8YOO87580INXVZXEOP","A1FTJ3XJZM71GI","382GHPVPHSDM8N0F9141EAH7F0K34Z","","511.59999990463257","img/food1.png","75","512.8000001907349","2","1","2","2","1,0.5,0,1,0.5,0,0.5,0,1","0,1,0.5,0,1,0.5,1,0.5,0","3","false",""
"","html-keyboard-response","247","194491","0.0-275.0","35GMH2SV3F3V8YOO87580INXVZXEOP","A1FTJ3XJZM71GI","382GHPVPHSDM8N0F9141EAH7F0K34Z","","null","<img src=""img/food1.png"" style=""width:200px; border:14px solid green;"">","null","","","","","","","","","",""
"","image-keyboard-response","248","194940","0.0-277.0","35GMH2SV3F3V8YOO87580INXVZXEOP","A1FTJ3XJZM71GI","382GHPVPHSDM8N0F9141EAH7F0K34Z","","446.69999980926514","img/food1.png","75","448.1000003814697","2","1","2","2","1,0.5,0,1,0.5,0,0.5,0,1","0,1,0.5,0,1,0.5,1,0.5,0","3","false",""
"","html-keyboard-response","249","195251","0.0-278.0","35GMH2SV3F3V8YOO87580INXVZXEOP","A1FTJ3XJZM71GI","382GHPVPHSDM8N0F9141EAH7F0K34Z","","null","<img src=""img/food1.png"" style=""width:200px; border:14px solid green;"">","null","","","","","","","","","",""
"","image-keyboard-response","250","195720","0.0-280.0","35GMH2SV3F3V8YOO87580INXVZXEOP","A1FTJ3XJZM71GI","382GHPVPHSDM8N0F9141EAH7F0K34Z","","466.2999997138977","img/food1.png","75","467.6000003814697","2","1","2","2","1,0.5,0,1,0.5,0,0.5,0,1","0,1,0.5,0,1,0.5,1,0.5,0","3","false",""
"","html-keyboard-response","251","196021","0.0-281.0","35GMH2SV3F3V8YOO87580INXVZXEOP","A1FTJ3XJZM71GI","382GHPVPHSDM8N0F9141EAH7F0K34Z","","null","<img src=""img/food1.png"" style=""width:200px; border:14px solid green;"">","null","","","","","","","","","",""
"","image-keyboard-response","252","196627","0.0-283.0","35GMH2SV3F3V8YOO87580INXVZXEOP","A1FTJ3XJZM71GI","382GHPVPHSDM8N0F9141EAH7F0K34Z","","603.8000001907349","img/food5.png","74","605.0999999046326","1","1","3","2","1,0.5,0,1,0.5,0,0.5,0,1","0,1,0.5,0,1,0.5,1,0.5,0","3","false",""
"","html-keyboard-response","253","196930","0.0-284.0","35GMH2SV3F3V8YOO87580INXVZXEOP","A1FTJ3XJZM71GI","382GHPVPHSDM8N0F9141EAH7F0K34Z","","null","<img src=""img/food5.png"" style=""width:200px; border:14px solid green;"">","null","","","","","","","","","",""
"","image-keyboard-response","254","197389","0.0-286.0","35GMH2SV3F3V8YOO87580INXVZXEOP","A1FTJ3XJZM71GI","382GHPVPHSDM8N0F9141EAH7F0K34Z","","456.59999990463257","img/food5.png","74","458.09999990463257","1","1","3","2","1,0.5,0,1,0.5,0,0.5,0,1","0,1,0.5,0,1,0.5,1,0.5,0","3","false",""
"","html-keyboard-response","255","197692","0.0-287.0","35GMH2SV3F3V8YOO87580INXVZXEOP","A1FTJ3XJZM71GI","382GHPVPHSDM8N0F9141EAH7F0K34Z","","null","<img src=""img/food5.png"" style=""width:200px; border:14px solid green;"">","null","","","","","","","","","",""
"","image-keyboard-response","256","198324","0.0-289.0","35GMH2SV3F3V8YOO87580INXVZXEOP","A1FTJ3XJZM71GI","382GHPVPHSDM8N0F9141EAH7F0K34Z","","629.4000000953674","img/food1.png","75","630.6999998092651","2","1","2","2","1,0.5,0,1,0.5,0,0.5,0,1","0,1,0.5,0,1,0.5,1,0.5,0","3","false",""
"","html-keyboard-response","257","198627","0.0-290.0","35GMH2SV3F3V8YOO87580INXVZXEOP","A1FTJ3XJZM71GI","382GHPVPHSDM8N0F9141EAH7F0K34Z","","null","<img src=""img/food1.png"" style=""width:200px; border:14px solid green;"">","null","","","","","","","","","",""
"","image-keyboard-response","258","199187","0.0-292.0","35GMH2SV3F3V8YOO87580INXVZXEOP","A1FTJ3XJZM71GI","382GHPVPHSDM8N0F9141EAH7F0K34Z","","558.2999997138977","img/food2.png","75","559.7999997138977","2","1","1","2","1,0.5,0,1,0.5,0,0.5,0,1","0,1,0.5,0,1,0.5,1,0.5,0","3","false",""
"","html-keyboard-response","259","199490","0.0-293.0","35GMH2SV3F3V8YOO87580INXVZXEOP","A1FTJ3XJZM71GI","382GHPVPHSDM8N0F9141EAH7F0K34Z","","null","<img src=""img/food2.png"" style=""width:200px; border:14px solid green;"">","null","","","","","","","","","",""
"","image-keyboard-response","260","200174","0.0-295.0","35GMH2SV3F3V8YOO87580INXVZXEOP","A1FTJ3XJZM71GI","382GHPVPHSDM8N0F9141EAH7F0K34Z","","681.4000000953674","img/food5.png","74","682.8999996185303","1","1","3","2","1,0.5,0,1,0.5,0,0.5,0,1","0,1,0.5,0,1,0.5,1,0.5,0","3","false",""
"","html-keyboard-response","261","200477","0.0-296.0","35GMH2SV3F3V8YOO87580INXVZXEOP","A1FTJ3XJZM71GI","382GHPVPHSDM8N0F9141EAH7F0K34Z","","null","<img src=""img/food5.png"" style=""width:200px; border:14px solid green;"">","null","","","","","","","","","",""
"","image-keyboard-response","262","200922","0.0-298.0","35GMH2SV3F3V8YOO87580INXVZXEOP","A1FTJ3XJZM71GI","382GHPVPHSDM8N0F9141EAH7F0K34Z","","442.59999990463257","img/food5.png","74","444.09999990463257","1","1","3","2","1,0.5,0,1,0.5,0,0.5,0,1","0,1,0.5,0,1,0.5,1,0.5,0","3","false",""
"","html-keyboard-response","263","201225","0.0-299.0","35GMH2SV3F3V8YOO87580INXVZXEOP","A1FTJ3XJZM71GI","382GHPVPHSDM8N0F9141EAH7F0K34Z","","null","<img src=""img/food5.png"" style=""width:200px; border:14px solid green;"">","null","","","","","","","","","",""
"","image-keyboard-response","264","201661","0.0-301.0","35GMH2SV3F3V8YOO87580INXVZXEOP","A1FTJ3XJZM71GI","382GHPVPHSDM8N0F9141EAH7F0K34Z","","434.09999990463257","img/food5.png","74","435.40000009536743","1","1","3","2","1,0.5,0,1,0.5,0,0.5,0,1","0,1,0.5,0,1,0.5,1,0.5,0","3","false",""
"","html-keyboard-response","265","201964","0.0-302.0","35GMH2SV3F3V8YOO87580INXVZXEOP","A1FTJ3XJZM71GI","382GHPVPHSDM8N0F9141EAH7F0K34Z","","null","<img src=""img/food5.png"" style=""width:200px; border:14px solid green;"">","null","","","","","","","","","",""
"","image-keyboard-response","266","202430","0.0-304.0","35GMH2SV3F3V8YOO87580INXVZXEOP","A1FTJ3XJZM71GI","382GHPVPHSDM8N0F9141EAH7F0K34Z","","464.09999990463257","img/food5.png","74","465.40000009536743","1","1","3","2","1,0.5,0,1,0.5,0,0.5,0,1","0,1,0.5,0,1,0.5,1,0.5,0","3","false",""
"","html-keyboard-response","267","202733","0.0-305.0","35GMH2SV3F3V8YOO87580INXVZXEOP","A1FTJ3XJZM71GI","382GHPVPHSDM8N0F9141EAH7F0K34Z","","null","<img src=""img/food5.png"" style=""width:200px; border:14px solid green;"">","null","","","","","","","","","",""
"","image-keyboard-response","268","203369","0.0-307.0","35GMH2SV3F3V8YOO87580INXVZXEOP","A1FTJ3XJZM71GI","382GHPVPHSDM8N0F9141EAH7F0K34Z","","634.1999998092651","img/food1.png","74","635.5","1","0","2","2","1,0.5,0,1,0.5,0,0.5,0,1","0,1,0.5,0,1,0.5,1,0.5,0","3","false",""
"","html-keyboard-response","269","203673","0.0-308.0","35GMH2SV3F3V8YOO87580INXVZXEOP","A1FTJ3XJZM71GI","382GHPVPHSDM8N0F9141EAH7F0K34Z","","null","<img src=""img/food1.png"" style=""width:200px;border:14px solid red;"">","null","","","","","","","","","",""
"","image-keyboard-response","270","204292","0.0-310.0","35GMH2SV3F3V8YOO87580INXVZXEOP","A1FTJ3XJZM71GI","382GHPVPHSDM8N0F9141EAH7F0K34Z","","617","img/food5.png","74","618.5","1","1","3","2","1,0.5,0,1,0.5,0,0.5,0,1","0,1,0.5,0,1,0.5,1,0.5,0","3","false",""
"","html-keyboard-response","271","204595","0.0-311.0","35GMH2SV3F3V8YOO87580INXVZXEOP","A1FTJ3XJZM71GI","382GHPVPHSDM8N0F9141EAH7F0K34Z","","null","<img src=""img/food5.png"" style=""width:200px; border:14px solid green;"">","null","","","","","","","","","",""
"","image-keyboard-response","272","205061","0.0-313.0","35GMH2SV3F3V8YOO87580INXVZXEOP","A1FTJ3XJZM71GI","382GHPVPHSDM8N0F9141EAH7F0K34Z","","463.3999996185303","img/food1.png","75","464.59999990463257","2","1","2","2","1,0.5,0,1,0.5,0,0.5,0,1","0,1,0.5,0,1,0.5,1,0.5,0","3","false",""
"","html-keyboard-response","273","205363","0.0-314.0","35GMH2SV3F3V8YOO87580INXVZXEOP","A1FTJ3XJZM71GI","382GHPVPHSDM8N0F9141EAH7F0K34Z","","null","<img src=""img/food1.png"" style=""width:200px; border:14px solid green;"">","null","","","","","","","","","",""
"","image-keyboard-response","274","205820","0.0-316.0","35GMH2SV3F3V8YOO87580INXVZXEOP","A1FTJ3XJZM71GI","382GHPVPHSDM8N0F9141EAH7F0K34Z","","454","img/food2.png","75","455.30000019073486","2","1","1","2","1,0.5,0,1,0.5,0,0.5,0,1","0,1,0.5,0,1,0.5,1,0.5,0","3","false",""
"","html-keyboard-response","275","206123","0.0-317.0","35GMH2SV3F3V8YOO87580INXVZXEOP","A1FTJ3XJZM71GI","382GHPVPHSDM8N0F9141EAH7F0K34Z","","null","<img src=""img/food2.png"" style=""width:200px; border:14px solid green;"">","null","","","","","","","","","",""
"","image-keyboard-response","276","206664","0.0-319.0","35GMH2SV3F3V8YOO87580INXVZXEOP","A1FTJ3XJZM71GI","382GHPVPHSDM8N0F9141EAH7F0K34Z","","539","img/food1.png","75","540.3999996185303","2","1","2","2","1,0.5,0,1,0.5,0,0.5,0,1","0,1,0.5,0,1,0.5,1,0.5,0","3","false",""
"","html-keyboard-response","277","206967","0.0-320.0","35GMH2SV3F3V8YOO87580INXVZXEOP","A1FTJ3XJZM71GI","382GHPVPHSDM8N0F9141EAH7F0K34Z","","null","<img src=""img/food1.png"" style=""width:200px; border:14px solid green;"">","null","","","","","","","","","",""
"","image-keyboard-response","278","207461","0.0-322.0","35GMH2SV3F3V8YOO87580INXVZXEOP","A1FTJ3XJZM71GI","382GHPVPHSDM8N0F9141EAH7F0K34Z","","492.40000009536743","img/food2.png","75","493.7999997138977","2","1","1","2","1,0.5,0,1,0.5,0,0.5,0,1","0,1,0.5,0,1,0.5,1,0.5,0","3","false",""
"","html-keyboard-response","279","207764","0.0-323.0","35GMH2SV3F3V8YOO87580INXVZXEOP","A1FTJ3XJZM71GI","382GHPVPHSDM8N0F9141EAH7F0K34Z","","null","<img src=""img/food2.png"" style=""width:200px; border:14px solid green;"">","null","","","","","","","","","",""
"","image-keyboard-response","280","208418","0.0-325.0","35GMH2SV3F3V8YOO87580INXVZXEOP","A1FTJ3XJZM71GI","382GHPVPHSDM8N0F9141EAH7F0K34Z","","651.0999999046326","img/food5.png","75","652.7999997138977","2","0","3","2","1,0.5,0,1,0.5,0,0.5,0,1","0,1,0.5,0,1,0.5,1,0.5,0","3","false",""
"","html-keyboard-response","281","208721","0.0-326.0","35GMH2SV3F3V8YOO87580INXVZXEOP","A1FTJ3XJZM71GI","382GHPVPHSDM8N0F9141EAH7F0K34Z","","null","<img src=""img/food5.png"" style=""width:200px;border:14px solid red;"">","null","","","","","","","","","",""
"","image-keyboard-response","282","209368","0.0-328.0","35GMH2SV3F3V8YOO87580INXVZXEOP","A1FTJ3XJZM71GI","382GHPVPHSDM8N0F9141EAH7F0K34Z","","645.2000002861023","img/food5.png","74","646.2000002861023","1","1","3","2","1,0.5,0,1,0.5,0,0.5,0,1","0,1,0.5,0,1,0.5,1,0.5,0","3","false",""
"","html-keyboard-response","283","209671","0.0-329.0","35GMH2SV3F3V8YOO87580INXVZXEOP","A1FTJ3XJZM71GI","382GHPVPHSDM8N0F9141EAH7F0K34Z","","null","<img src=""img/food5.png"" style=""width:200px; border:14px solid green;"">","null","","","","","","","","","",""
"","image-keyboard-response","284","210278","0.0-331.0","35GMH2SV3F3V8YOO87580INXVZXEOP","A1FTJ3XJZM71GI","382GHPVPHSDM8N0F9141EAH7F0K34Z","","604.6999998092651","img/food2.png","75","606.1999998092651","2","1","1","2","1,0.5,0,1,0.5,0,0.5,0,1","0,1,0.5,0,1,0.5,1,0.5,0","3","false",""
"","html-keyboard-response","285","210582","0.0-332.0","35GMH2SV3F3V8YOO87580INXVZXEOP","A1FTJ3XJZM71GI","382GHPVPHSDM8N0F9141EAH7F0K34Z","","null","<img src=""img/food2.png"" style=""width:200px; border:14px solid green;"">","null","","","","","","","","","",""
"","image-keyboard-response","286","211285","0.0-334.0","35GMH2SV3F3V8YOO87580INXVZXEOP","A1FTJ3XJZM71GI","382GHPVPHSDM8N0F9141EAH7F0K34Z","","701.3000001907349","img/food5.png","74","702.5999999046326","1","1","3","2","1,0.5,0,1,0.5,0,0.5,0,1","0,1,0.5,0,1,0.5,1,0.5,0","3","false",""
"","html-keyboard-response","287","211588","0.0-335.0","35GMH2SV3F3V8YOO87580INXVZXEOP","A1FTJ3XJZM71GI","382GHPVPHSDM8N0F9141EAH7F0K34Z","","null","<img src=""img/food5.png"" style=""width:200px; border:14px solid green;"">","null","","","","","","","","","",""
"","image-keyboard-response","288","212057","0.0-337.0","35GMH2SV3F3V8YOO87580INXVZXEOP","A1FTJ3XJZM71GI","382GHPVPHSDM8N0F9141EAH7F0K34Z","","467","img/food2.png","75","468.5","2","1","1","2","1,0.5,0,1,0.5,0,0.5,0,1","0,1,0.5,0,1,0.5,1,0.5,0","3","false",""
"","html-keyboard-response","289","212360","0.0-338.0","35GMH2SV3F3V8YOO87580INXVZXEOP","A1FTJ3XJZM71GI","382GHPVPHSDM8N0F9141EAH7F0K34Z","","null","<img src=""img/food2.png"" style=""width:200px; border:14px solid green;"">","null","","","","","","","","","",""
"","image-keyboard-response","290","212802","0.0-340.0","35GMH2SV3F3V8YOO87580INXVZXEOP","A1FTJ3XJZM71GI","382GHPVPHSDM8N0F9141EAH7F0K34Z","","439.30000019073486","img/food1.png","75","440.80000019073486","2","1","2","2","1,0.5,0,1,0.5,0,0.5,0,1","0,1,0.5,0,1,0.5,1,0.5,0","3","false",""
"","html-keyboard-response","291","213104","0.0-341.0","35GMH2SV3F3V8YOO87580INXVZXEOP","A1FTJ3XJZM71GI","382GHPVPHSDM8N0F9141EAH7F0K34Z","","null","<img src=""img/food1.png"" style=""width:200px; border:14px solid green;"">","null","","","","","","","","","",""
"","image-keyboard-response","292","213605","0.0-343.0","35GMH2SV3F3V8YOO87580INXVZXEOP","A1FTJ3XJZM71GI","382GHPVPHSDM8N0F9141EAH7F0K34Z","","498.59999990463257","img/food5.png","74","500","1","1","3","2","1,0.5,0,1,0.5,0,0.5,0,1","0,1,0.5,0,1,0.5,1,0.5,0","3","false",""
"","html-keyboard-response","293","213908","0.0-344.0","35GMH2SV3F3V8YOO87580INXVZXEOP","A1FTJ3XJZM71GI","382GHPVPHSDM8N0F9141EAH7F0K34Z","","null","<img src=""img/food5.png"" style=""width:200px; border:14px solid green;"">","null","","","","","","","","","",""
"","image-keyboard-response","294","214399","0.0-346.0","35GMH2SV3F3V8YOO87580INXVZXEOP","A1FTJ3XJZM71GI","382GHPVPHSDM8N0F9141EAH7F0K34Z","","489","img/food2.png","75","490.40000009536743","2","1","1","2","1,0.5,0,1,0.5,0,0.5,0,1","0,1,0.5,0,1,0.5,1,0.5,0","3","false",""
"","html-keyboard-response","295","214702","0.0-347.0","35GMH2SV3F3V8YOO87580INXVZXEOP","A1FTJ3XJZM71GI","382GHPVPHSDM8N0F9141EAH7F0K34Z","","null","<img src=""img/food2.png"" style=""width:200px; border:14px solid green;"">","null","","","","","","","","","",""
"","image-keyboard-response","296","215180","0.0-349.0","35GMH2SV3F3V8YOO87580INXVZXEOP","A1FTJ3XJZM71GI","382GHPVPHSDM8N0F9141EAH7F0K34Z","","475.5","img/food2.png","75","476.80000019073486","2","1","1","2","1,0.5,0,1,0.5,0,0.5,0,1","0,1,0.5,0,1,0.5,1,0.5,0","3","false",""
"","html-keyboard-response","297","215483","0.0-350.0","35GMH2SV3F3V8YOO87580INXVZXEOP","A1FTJ3XJZM71GI","382GHPVPHSDM8N0F9141EAH7F0K34Z","","null","<img src=""img/food2.png"" style=""width:200px; border:14px solid green;"">","null","","","","","","","","","",""
"","image-keyboard-response","298","215964","0.0-352.0","35GMH2SV3F3V8YOO87580INXVZXEOP","A1FTJ3XJZM71GI","382GHPVPHSDM8N0F9141EAH7F0K34Z","","478.90000009536743","img/food2.png","75","480.5","2","1","1","2","1,0.5,0,1,0.5,0,0.5,0,1","0,1,0.5,0,1,0.5,1,0.5,0","3","false",""
"","html-keyboard-response","299","216267","0.0-353.0","35GMH2SV3F3V8YOO87580INXVZXEOP","A1FTJ3XJZM71GI","382GHPVPHSDM8N0F9141EAH7F0K34Z","","null","<img src=""img/food2.png"" style=""width:200px; border:14px solid green;"">","null","","","","","","","","","",""
"","image-keyboard-response","300","216788","0.0-355.0","35GMH2SV3F3V8YOO87580INXVZXEOP","A1FTJ3XJZM71GI","382GHPVPHSDM8N0F9141EAH7F0K34Z","","518.8000001907349","img/food1.png","75","520.4000000953674","2","1","2","2","1,0.5,0,1,0.5,0,0.5,0,1","0,1,0.5,0,1,0.5,1,0.5,0","3","false",""
"","html-keyboard-response","301","217091","0.0-356.0","35GMH2SV3F3V8YOO87580INXVZXEOP","A1FTJ3XJZM71GI","382GHPVPHSDM8N0F9141EAH7F0K34Z","","null","<img src=""img/food1.png"" style=""width:200px; border:14px solid green;"">","null","","","","","","","","","",""
"","image-keyboard-response","302","217602","0.0-358.0","35GMH2SV3F3V8YOO87580INXVZXEOP","A1FTJ3XJZM71GI","382GHPVPHSDM8N0F9141EAH7F0K34Z","","508.30000019073486","img/food1.png","75","509.80000019073486","2","1","2","2","1,0.5,0,1,0.5,0,0.5,0,1","0,1,0.5,0,1,0.5,1,0.5,0","3","false",""
"","html-keyboard-response","303","217906","0.0-359.0","35GMH2SV3F3V8YOO87580INXVZXEOP","A1FTJ3XJZM71GI","382GHPVPHSDM8N0F9141EAH7F0K34Z","","null","<img src=""img/food1.png"" style=""width:200px; border:14px solid green;"">","null","","","","","","","","","",""
"","image-keyboard-response","304","218471","0.0-361.0","35GMH2SV3F3V8YOO87580INXVZXEOP","A1FTJ3XJZM71GI","382GHPVPHSDM8N0F9141EAH7F0K34Z","","563.2000002861023","img/food5.png","74","564.5999999046326","1","1","3","2","1,0.5,0,1,0.5,0,0.5,0,1","0,1,0.5,0,1,0.5,1,0.5,0","3","false",""
"","html-keyboard-response","305","218774","0.0-362.0","35GMH2SV3F3V8YOO87580INXVZXEOP","A1FTJ3XJZM71GI","382GHPVPHSDM8N0F9141EAH7F0K34Z","","null","<img src=""img/food5.png"" style=""width:200px; border:14px solid green;"">","null","","","","","","","","","",""
"","image-keyboard-response","306","219336","0.0-364.0","35GMH2SV3F3V8YOO87580INXVZXEOP","A1FTJ3XJZM71GI","382GHPVPHSDM8N0F9141EAH7F0K34Z","","559.8000001907349","img/food1.png","75","561.0999999046326","2","1","2","2","1,0.5,0,1,0.5,0,0.5,0,1","0,1,0.5,0,1,0.5,1,0.5,0","3","false",""
"","html-keyboard-response","307","219639","0.0-365.0","35GMH2SV3F3V8YOO87580INXVZXEOP","A1FTJ3XJZM71GI","382GHPVPHSDM8N0F9141EAH7F0K34Z","","null","<img src=""img/food1.png"" style=""width:200px; border:14px solid green;"">","null","","","","","","","","","",""
"","image-keyboard-response","308","220412","0.0-367.0","35GMH2SV3F3V8YOO87580INXVZXEOP","A1FTJ3XJZM71GI","382GHPVPHSDM8N0F9141EAH7F0K34Z","","770.5999999046326","img/food2.png","75","772.2999997138977","2","1","1","2","1,0.5,0,1,0.5,0,0.5,0,1","0,1,0.5,0,1,0.5,1,0.5,0","3","false",""
"","html-keyboard-response","309","220715","0.0-368.0","35GMH2SV3F3V8YOO87580INXVZXEOP","A1FTJ3XJZM71GI","382GHPVPHSDM8N0F9141EAH7F0K34Z","","null","<img src=""img/food2.png"" style=""width:200px; border:14px solid green;"">","null","","","","","","","","","",""
"","image-keyboard-response","310","221320","0.0-370.0","35GMH2SV3F3V8YOO87580INXVZXEOP","A1FTJ3XJZM71GI","382GHPVPHSDM8N0F9141EAH7F0K34Z","","602.5999999046326","img/food5.png","74","604","1","1","3","2","1,0.5,0,1,0.5,0,0.5,0,1","0,1,0.5,0,1,0.5,1,0.5,0","3","false",""
"","html-keyboard-response","311","221624","0.0-371.0","35GMH2SV3F3V8YOO87580INXVZXEOP","A1FTJ3XJZM71GI","382GHPVPHSDM8N0F9141EAH7F0K34Z","","null","<img src=""img/food5.png"" style=""width:200px; border:14px solid green;"">","null","","","","","","","","","",""
"","image-keyboard-response","312","222123","0.0-373.0","35GMH2SV3F3V8YOO87580INXVZXEOP","A1FTJ3XJZM71GI","382GHPVPHSDM8N0F9141EAH7F0K34Z","","496.5","img/food5.png","74","497.80000019073486","1","1","3","2","1,0.5,0,1,0.5,0,0.5,0,1","0,1,0.5,0,1,0.5,1,0.5,0","3","false",""
"","html-keyboard-response","313","222425","0.0-374.0","35GMH2SV3F3V8YOO87580INXVZXEOP","A1FTJ3XJZM71GI","382GHPVPHSDM8N0F9141EAH7F0K34Z","","null","<img src=""img/food5.png"" style=""width:200px; border:14px solid green;"">","null","","","","","","","","","",""
"","image-keyboard-response","314","222898","0.0-376.0","35GMH2SV3F3V8YOO87580INXVZXEOP","A1FTJ3XJZM71GI","382GHPVPHSDM8N0F9141EAH7F0K34Z","","471.1000003814697","img/food5.png","74","472.30000019073486","1","1","3","2","1,0.5,0,1,0.5,0,0.5,0,1","0,1,0.5,0,1,0.5,1,0.5,0","3","false",""
"","html-keyboard-response","315","223201","0.0-377.0","35GMH2SV3F3V8YOO87580INXVZXEOP","A1FTJ3XJZM71GI","382GHPVPHSDM8N0F9141EAH7F0K34Z","","null","<img src=""img/food5.png"" style=""width:200px; border:14px solid green;"">","null","","","","","","","","","",""
"","image-keyboard-response","316","223857","0.0-379.0","35GMH2SV3F3V8YOO87580INXVZXEOP","A1FTJ3XJZM71GI","382GHPVPHSDM8N0F9141EAH7F0K34Z","","653.2999997138977","img/food1.png","75","654.8000001907349","2","1","2","2","1,0.5,0,1,0.5,0,0.5,0,1","0,1,0.5,0,1,0.5,1,0.5,0","3","false",""
"","html-keyboard-response","317","224159","0.0-380.0","35GMH2SV3F3V8YOO87580INXVZXEOP","A1FTJ3XJZM71GI","382GHPVPHSDM8N0F9141EAH7F0K34Z","","null","<img src=""img/food1.png"" style=""width:200px; border:14px solid green;"">","null","","","","","","","","","",""
"","image-keyboard-response","318","224573","0.0-382.0","35GMH2SV3F3V8YOO87580INXVZXEOP","A1FTJ3XJZM71GI","382GHPVPHSDM8N0F9141EAH7F0K34Z","","411.19999980926514","img/food5.png","75","412.59999990463257","2","0","3","2","1,0.5,0,1,0.5,0,0.5,0,1","0,1,0.5,0,1,0.5,1,0.5,0","3","false",""
"","html-keyboard-response","319","224875","0.0-383.0","35GMH2SV3F3V8YOO87580INXVZXEOP","A1FTJ3XJZM71GI","382GHPVPHSDM8N0F9141EAH7F0K34Z","","null","<img src=""img/food5.png"" style=""width:200px;border:14px solid red;"">","null","","","","","","","","","",""
"","image-keyboard-response","320","225469","0.0-385.0","35GMH2SV3F3V8YOO87580INXVZXEOP","A1FTJ3XJZM71GI","382GHPVPHSDM8N0F9141EAH7F0K34Z","","590.7000002861023","img/food5.png","74","592.5","1","1","3","2","1,0.5,0,1,0.5,0,0.5,0,1","0,1,0.5,0,1,0.5,1,0.5,0","3","false",""
"","html-keyboard-response","321","225772","0.0-386.0","35GMH2SV3F3V8YOO87580INXVZXEOP","A1FTJ3XJZM71GI","382GHPVPHSDM8N0F9141EAH7F0K34Z","","null","<img src=""img/food5.png"" style=""width:200px; border:14px solid green;"">","null","","","","","","","","","",""
"","image-keyboard-response","322","226312","0.0-388.0","35GMH2SV3F3V8YOO87580INXVZXEOP","A1FTJ3XJZM71GI","382GHPVPHSDM8N0F9141EAH7F0K34Z","","538","img/food2.png","75","539.0999999046326","2","1","1","2","1,0.5,0,1,0.5,0,0.5,0,1","0,1,0.5,0,1,0.5,1,0.5,0","3","false",""
"","html-keyboard-response","323","226614","0.0-389.0","35GMH2SV3F3V8YOO87580INXVZXEOP","A1FTJ3XJZM71GI","382GHPVPHSDM8N0F9141EAH7F0K34Z","","null","<img src=""img/food2.png"" style=""width:200px; border:14px solid green;"">","null","","","","","","","","","",""
"","image-keyboard-response","324","227150","0.0-391.0","35GMH2SV3F3V8YOO87580INXVZXEOP","A1FTJ3XJZM71GI","382GHPVPHSDM8N0F9141EAH7F0K34Z","","533.3000001907349","img/food2.png","75","534.7999997138977","2","1","1","2","1,0.5,0,1,0.5,0,0.5,0,1","0,1,0.5,0,1,0.5,1,0.5,0","3","false",""
"","html-keyboard-response","325","227453","0.0-392.0","35GMH2SV3F3V8YOO87580INXVZXEOP","A1FTJ3XJZM71GI","382GHPVPHSDM8N0F9141EAH7F0K34Z","","null","<img src=""img/food2.png"" style=""width:200px; border:14px solid green;"">","null","","","","","","","","","",""
"","image-keyboard-response","326","227942","0.0-394.0","35GMH2SV3F3V8YOO87580INXVZXEOP","A1FTJ3XJZM71GI","382GHPVPHSDM8N0F9141EAH7F0K34Z","","487.30000019073486","img/food2.png","75","488.80000019073486","2","1","1","2","1,0.5,0,1,0.5,0,0.5,0,1","0,1,0.5,0,1,0.5,1,0.5,0","3","false",""
"","html-keyboard-response","327","228245","0.0-395.0","35GMH2SV3F3V8YOO87580INXVZXEOP","A1FTJ3XJZM71GI","382GHPVPHSDM8N0F9141EAH7F0K34Z","","null","<img src=""img/food2.png"" style=""width:200px; border:14px solid green;"">","null","","","","","","","","","",""
"","image-keyboard-response","328","228945","0.0-397.0","35GMH2SV3F3V8YOO87580INXVZXEOP","A1FTJ3XJZM71GI","382GHPVPHSDM8N0F9141EAH7F0K34Z","","698.5","img/food1.png","75","699.5","2","1","2","2","1,0.5,0,1,0.5,0,0.5,0,1","0,1,0.5,0,1,0.5,1,0.5,0","3","false",""
"","html-keyboard-response","329","229247","0.0-398.0","35GMH2SV3F3V8YOO87580INXVZXEOP","A1FTJ3XJZM71GI","382GHPVPHSDM8N0F9141EAH7F0K34Z","","null","<img src=""img/food1.png"" style=""width:200px; border:14px solid green;"">","null","","","","","","","","","",""
"","image-keyboard-response","330","230024","0.0-400.0","35GMH2SV3F3V8YOO87580INXVZXEOP","A1FTJ3XJZM71GI","382GHPVPHSDM8N0F9141EAH7F0K34Z","","776","img/food2.png","75","776.9000000953674","2","1","1","2","1,0.5,0,1,0.5,0,0.5,0,1","0,1,0.5,0,1,0.5,1,0.5,0","3","false",""
"","html-keyboard-response","331","230333","0.0-401.0","35GMH2SV3F3V8YOO87580INXVZXEOP","A1FTJ3XJZM71GI","382GHPVPHSDM8N0F9141EAH7F0K34Z","","null","<img src=""img/food2.png"" style=""width:200px; border:14px solid green;"">","null","","","","","","","","","",""
"","image-keyboard-response","332","230972","0.0-403.0","35GMH2SV3F3V8YOO87580INXVZXEOP","A1FTJ3XJZM71GI","382GHPVPHSDM8N0F9141EAH7F0K34Z","","637.0999999046326","img/food5.png","74","638.3999996185303","1","1","3","2","1,0.5,0,1,0.5,0,0.5,0,1","0,1,0.5,0,1,0.5,1,0.5,0","3","false",""
"","html-keyboard-response","333","231275","0.0-404.0","35GMH2SV3F3V8YOO87580INXVZXEOP","A1FTJ3XJZM71GI","382GHPVPHSDM8N0F9141EAH7F0K34Z","","null","<img src=""img/food5.png"" style=""width:200px; border:14px solid green;"">","null","","","","","","","","","",""
"","image-keyboard-response","334","231854","0.0-406.0","35GMH2SV3F3V8YOO87580INXVZXEOP","A1FTJ3XJZM71GI","382GHPVPHSDM8N0F9141EAH7F0K34Z","","576.7999997138977","img/food1.png","75","578.0999999046326","2","1","2","2","1,0.5,0,1,0.5,0,0.5,0,1","0,1,0.5,0,1,0.5,1,0.5,0","3","false",""
"","html-keyboard-response","335","232157","0.0-407.0","35GMH2SV3F3V8YOO87580INXVZXEOP","A1FTJ3XJZM71GI","382GHPVPHSDM8N0F9141EAH7F0K34Z","","null","<img src=""img/food1.png"" style=""width:200px; border:14px solid green;"">","null","","","","","","","","","",""
"","image-keyboard-response","336","232610","0.0-409.0","35GMH2SV3F3V8YOO87580INXVZXEOP","A1FTJ3XJZM71GI","382GHPVPHSDM8N0F9141EAH7F0K34Z","","450.90000009536743","img/food1.png","75","452.09999990463257","2","1","2","2","1,0.5,0,1,0.5,0,0.5,0,1","0,1,0.5,0,1,0.5,1,0.5,0","3","false",""
"","html-keyboard-response","337","232913","0.0-410.0","35GMH2SV3F3V8YOO87580INXVZXEOP","A1FTJ3XJZM71GI","382GHPVPHSDM8N0F9141EAH7F0K34Z","","null","<img src=""img/food1.png"" style=""width:200px; border:14px solid green;"">","null","","","","","","","","","",""
"","image-keyboard-response","338","233319","0.0-412.0","35GMH2SV3F3V8YOO87580INXVZXEOP","A1FTJ3XJZM71GI","382GHPVPHSDM8N0F9141EAH7F0K34Z","","404.30000019073486","img/food1.png","75","405.2000002861023","2","1","2","2","1,0.5,0,1,0.5,0,0.5,0,1","0,1,0.5,0,1,0.5,1,0.5,0","3","false",""
"","html-keyboard-response","339","233622","0.0-413.0","35GMH2SV3F3V8YOO87580INXVZXEOP","A1FTJ3XJZM71GI","382GHPVPHSDM8N0F9141EAH7F0K34Z","","null","<img src=""img/food1.png"" style=""width:200px; border:14px solid green;"">","null","","","","","","","","","",""
"","image-keyboard-response","340","234180","0.0-415.0","35GMH2SV3F3V8YOO87580INXVZXEOP","A1FTJ3XJZM71GI","382GHPVPHSDM8N0F9141EAH7F0K34Z","","556.1999998092651","img/food2.png","75","557.6999998092651","2","1","1","2","1,0.5,0,1,0.5,0,0.5,0,1","0,1,0.5,0,1,0.5,1,0.5,0","3","false",""
"","html-keyboard-response","341","234483","0.0-416.0","35GMH2SV3F3V8YOO87580INXVZXEOP","A1FTJ3XJZM71GI","382GHPVPHSDM8N0F9141EAH7F0K34Z","","null","<img src=""img/food2.png"" style=""width:200px; border:14px solid green;"">","null","","","","","","","","","",""
"","image-keyboard-response","342","234936","0.0-418.0","35GMH2SV3F3V8YOO87580INXVZXEOP","A1FTJ3XJZM71GI","382GHPVPHSDM8N0F9141EAH7F0K34Z","","450.5","img/food1.png","75","451.59999990463257","2","1","2","2","1,0.5,0,1,0.5,0,0.5,0,1","0,1,0.5,0,1,0.5,1,0.5,0","3","false",""
"","html-keyboard-response","343","235238","0.0-419.0","35GMH2SV3F3V8YOO87580INXVZXEOP","A1FTJ3XJZM71GI","382GHPVPHSDM8N0F9141EAH7F0K34Z","","null","<img src=""img/food1.png"" style=""width:200px; border:14px solid green;"">","null","","","","","","","","","",""
"","image-keyboard-response","344","235715","0.0-421.0","35GMH2SV3F3V8YOO87580INXVZXEOP","A1FTJ3XJZM71GI","382GHPVPHSDM8N0F9141EAH7F0K34Z","","474.69999980926514","img/food2.png","75","476.1000003814697","2","1","1","2","1,0.5,0,1,0.5,0,0.5,0,1","0,1,0.5,0,1,0.5,1,0.5,0","3","false",""
"","html-keyboard-response","345","236017","0.0-422.0","35GMH2SV3F3V8YOO87580INXVZXEOP","A1FTJ3XJZM71GI","382GHPVPHSDM8N0F9141EAH7F0K34Z","","null","<img src=""img/food2.png"" style=""width:200px; border:14px solid green;"">","null","","","","","","","","","",""
"","image-keyboard-response","346","236449","0.0-424.0","35GMH2SV3F3V8YOO87580INXVZXEOP","A1FTJ3XJZM71GI","382GHPVPHSDM8N0F9141EAH7F0K34Z","","430","img/food2.png","75","431.19999980926514","2","1","1","2","1,0.5,0,1,0.5,0,0.5,0,1","0,1,0.5,0,1,0.5,1,0.5,0","3","false",""
"","html-keyboard-response","347","236752","0.0-425.0","35GMH2SV3F3V8YOO87580INXVZXEOP","A1FTJ3XJZM71GI","382GHPVPHSDM8N0F9141EAH7F0K34Z","","null","<img src=""img/food2.png"" style=""width:200px; border:14px solid green;"">","null","","","","","","","","","",""
"","image-keyboard-response","348","237185","0.0-427.0","35GMH2SV3F3V8YOO87580INXVZXEOP","A1FTJ3XJZM71GI","382GHPVPHSDM8N0F9141EAH7F0K34Z","","430.40000009536743","img/food2.png","75","431.80000019073486","2","1","1","2","1,0.5,0,1,0.5,0,0.5,0,1","0,1,0.5,0,1,0.5,1,0.5,0","3","false",""
"","html-keyboard-response","349","237488","0.0-428.0","35GMH2SV3F3V8YOO87580INXVZXEOP","A1FTJ3XJZM71GI","382GHPVPHSDM8N0F9141EAH7F0K34Z","","null","<img src=""img/food2.png"" style=""width:200px; border:14px solid green;"">","null","","","","","","","","","",""
"","image-keyboard-response","350","238013","0.0-430.0","35GMH2SV3F3V8YOO87580INXVZXEOP","A1FTJ3XJZM71GI","382GHPVPHSDM8N0F9141EAH7F0K34Z","","524.1000003814697","img/food1.png","75","524.7999997138977","2","1","2","2","1,0.5,0,1,0.5,0,0.5,0,1","0,1,0.5,0,1,0.5,1,0.5,0","3","false",""
"","html-keyboard-response","351","238315","0.0-431.0","35GMH2SV3F3V8YOO87580INXVZXEOP","A1FTJ3XJZM71GI","382GHPVPHSDM8N0F9141EAH7F0K34Z","","null","<img src=""img/food1.png"" style=""width:200px; border:14px solid green;"">","null","","","","","","","","","",""
"","image-keyboard-response","352","238785","0.0-433.0","35GMH2SV3F3V8YOO87580INXVZXEOP","A1FTJ3XJZM71GI","382GHPVPHSDM8N0F9141EAH7F0K34Z","","467.09999990463257","img/food1.png","75","468.6000003814697","2","1","2","2","1,0.5,0,1,0.5,0,0.5,0,1","0,1,0.5,0,1,0.5,1,0.5,0","3","false",""
"","html-keyboard-response","353","239087","0.0-434.0","35GMH2SV3F3V8YOO87580INXVZXEOP","A1FTJ3XJZM71GI","382GHPVPHSDM8N0F9141EAH7F0K34Z","","null","<img src=""img/food1.png"" style=""width:200px; border:14px solid green;"">","null","","","","","","","","","",""
"","image-keyboard-response","354","239572","0.0-436.0","35GMH2SV3F3V8YOO87580INXVZXEOP","A1FTJ3XJZM71GI","382GHPVPHSDM8N0F9141EAH7F0K34Z","","482.19999980926514","img/food1.png","75","483.69999980926514","2","1","2","2","1,0.5,0,1,0.5,0,0.5,0,1","0,1,0.5,0,1,0.5,1,0.5,0","3","false",""
"","html-keyboard-response","355","239874","0.0-437.0","35GMH2SV3F3V8YOO87580INXVZXEOP","A1FTJ3XJZM71GI","382GHPVPHSDM8N0F9141EAH7F0K34Z","","null","<img src=""img/food1.png"" style=""width:200px; border:14px solid green;"">","null","","","","","","","","","",""
"","image-keyboard-response","356","240547","0.0-439.0","35GMH2SV3F3V8YOO87580INXVZXEOP","A1FTJ3XJZM71GI","382GHPVPHSDM8N0F9141EAH7F0K34Z","","669.9000000953674","img/food2.png","75","671.3000001907349","2","1","1","2","1,0.5,0,1,0.5,0,0.5,0,1","0,1,0.5,0,1,0.5,1,0.5,0","3","false",""
"","html-keyboard-response","357","240849","0.0-440.0","35GMH2SV3F3V8YOO87580INXVZXEOP","A1FTJ3XJZM71GI","382GHPVPHSDM8N0F9141EAH7F0K34Z","","null","<img src=""img/food2.png"" style=""width:200px; border:14px solid green;"">","null","","","","","","","","","",""
"","image-keyboard-response","358","241299","0.0-442.0","35GMH2SV3F3V8YOO87580INXVZXEOP","A1FTJ3XJZM71GI","382GHPVPHSDM8N0F9141EAH7F0K34Z","","447.59999990463257","img/food5.png","75","448.7999997138977","2","1","3","2","1,0.5,0,1,0.5,0,0.5,0,1","0,1,0.5,0,1,0.5,1,0.5,0","3","false",""
"","html-keyboard-response","359","241602","0.0-443.0","35GMH2SV3F3V8YOO87580INXVZXEOP","A1FTJ3XJZM71GI","382GHPVPHSDM8N0F9141EAH7F0K34Z","","null","<img src=""img/food5.png"" style=""width:200px; border:14px solid green;"">","null","","","","","","","","","",""
"","image-keyboard-response","360","242101","0.0-445.0","35GMH2SV3F3V8YOO87580INXVZXEOP","A1FTJ3XJZM71GI","382GHPVPHSDM8N0F9141EAH7F0K34Z","","496.80000019073486","img/food5.png","74","498.2999997138977","1","1","3","2","1,0.5,0,1,0.5,0,0.5,0,1","0,1,0.5,0,1,0.5,1,0.5,0","3","false",""
"","html-keyboard-response","361","242403","0.0-446.0","35GMH2SV3F3V8YOO87580INXVZXEOP","A1FTJ3XJZM71GI","382GHPVPHSDM8N0F9141EAH7F0K34Z","","null","<img src=""img/food5.png"" style=""width:200px; border:14px solid green;"">","null","","","","","","","","","",""
"","image-keyboard-response","362","243036","0.0-448.0","35GMH2SV3F3V8YOO87580INXVZXEOP","A1FTJ3XJZM71GI","382GHPVPHSDM8N0F9141EAH7F0K34Z","","630.2999997138977","img/food2.png","75","631.8000001907349","2","1","1","2","1,0.5,0,1,0.5,0,0.5,0,1","0,1,0.5,0,1,0.5,1,0.5,0","3","false",""
"","html-keyboard-response","363","243339","0.0-449.0","35GMH2SV3F3V8YOO87580INXVZXEOP","A1FTJ3XJZM71GI","382GHPVPHSDM8N0F9141EAH7F0K34Z","","null","<img src=""img/food2.png"" style=""width:200px; border:14px solid green;"">","null","","","","","","","","","",""
"","image-keyboard-response","364","243861","0.0-451.0","35GMH2SV3F3V8YOO87580INXVZXEOP","A1FTJ3XJZM71GI","382GHPVPHSDM8N0F9141EAH7F0K34Z","","519.0999999046326","img/food2.png","75","520.5","2","1","1","2","1,0.5,0,1,0.5,0,0.5,0,1","0,1,0.5,0,1,0.5,1,0.5,0","3","false",""
"","html-keyboard-response","365","244164","0.0-452.0","35GMH2SV3F3V8YOO87580INXVZXEOP","A1FTJ3XJZM71GI","382GHPVPHSDM8N0F9141EAH7F0K34Z","","null","<img src=""img/food2.png"" style=""width:200px; border:14px solid green;"">","null","","","","","","","","","",""
"","instructions","366","302301","0.0-454.0","35GMH2SV3F3V8YOO87580INXVZXEOP","A1FTJ3XJZM71GI","382GHPVPHSDM8N0F9141EAH7F0K34Z","[{""page_index"":0,""viewing_time"":58134.59999990463}]","58135.09999990463","","","","","","","","","","","",""
"","survey-text","367","317508","0.0-455.0","35GMH2SV3F3V8YOO87580INXVZXEOP","A1FTJ3XJZM71GI","382GHPVPHSDM8N0F9141EAH7F0K34Z","","15203.699999809265","","","","","","","","","","","","{""Q0"":""A1FTJ3XJZM71GI""}"
