"success","trial_type","trial_index","time_elapsed","internal_node_id","assignmentID","mturkID","hitID","view_history","rt","stimulus","key_press","reactionTime","chosenAction","reward","responses"
"true","fullscreen","0","2048","0.0-0.0","34X6J5FLPUK64QNW1L83M3VPBP3QJG","A1G187YBG0DVMQ","3LN3BXKGC0HZB1VNEMH4SWP73O3GW1","","","","","","","",""
"","instructions","1","15244","0.0-1.0","34X6J5FLPUK64QNW1L83M3VPBP3QJG","A1G187YBG0DVMQ","3LN3BXKGC0HZB1VNEMH4SWP73O3GW1","[{""page_index"":0,""viewing_time"":1876.7000002861023},{""page_index"":1,""viewing_time"":2132.7999997138977},{""page_index"":2,""viewing_time"":716.8000001907349},{""page_index"":3,""viewing_time"":2683.7999997138977},{""page_index"":4,""viewing_time"":2300.1000003814697},{""page_index"":5,""viewing_time"":1749},{""page_index"":6,""viewing_time"":1733.7999997138977}]","13194.200000286102","","","","","",""
"","image-keyboard-response","2","15737","0.0-2.0","34X6J5FLPUK64QNW1L83M3VPBP3QJG","A1G187YBG0DVMQ","3LN3BXKGC0HZB1VNEMH4SWP73O3GW1","","490.2000002861023","img/food1.png","74","492.2999997138977","74","0",""
"","html-keyboard-response","3","16048","0.0-3.0","34X6J5FLPUK64QNW1L83M3VPBP3QJG","A1G187YBG0DVMQ","3LN3BXKGC0HZB1VNEMH4SWP73O3GW1","","null","<img src=""img/food1.png"" style=""width:200px;border:14px solid red;"">","null","","","",""
"","image-keyboard-response","4","16732","0.0-4.0","34X6J5FLPUK64QNW1L83M3VPBP3QJG","A1G187YBG0DVMQ","3LN3BXKGC0HZB1VNEMH4SWP73O3GW1","","680.9000000953674","img/food5.png","75","682.9000000953674","75","0",""
"","html-keyboard-response","5","17040","0.0-5.0","34X6J5FLPUK64QNW1L83M3VPBP3QJG","A1G187YBG0DVMQ","3LN3BXKGC0HZB1VNEMH4SWP73O3GW1","","null","<img src=""img/food5.png"" style=""width:200px;border:14px solid red;"">","null","","","",""
"","image-keyboard-response","6","18457","0.0-6.0","34X6J5FLPUK64QNW1L83M3VPBP3QJG","A1G187YBG0DVMQ","3LN3BXKGC0HZB1VNEMH4SWP73O3GW1","","1414.9000000953674","img/food3.png","76","1416.7000002861023","76","1",""
"","html-keyboard-response","7","18768","0.0-7.0","34X6J5FLPUK64QNW1L83M3VPBP3QJG","A1G187YBG0DVMQ","3LN3BXKGC0HZB1VNEMH4SWP73O3GW1","","null","<img src=""img/food3.png"" style=""width:200px; border:14px solid green;"">","null","","","",""
"","image-keyboard-response","8","19772","0.0-8.0","34X6J5FLPUK64QNW1L83M3VPBP3QJG","A1G187YBG0DVMQ","3LN3BXKGC0HZB1VNEMH4SWP73O3GW1","","1001.8000001907349","img/food1.png","75","1003.5","75","0",""
"","html-keyboard-response","9","20079","0.0-9.0","34X6J5FLPUK64QNW1L83M3VPBP3QJG","A1G187YBG0DVMQ","3LN3BXKGC0HZB1VNEMH4SWP73O3GW1","","null","<img src=""img/food1.png"" style=""width:200px;border:14px solid red;"">","null","","","",""
"","image-keyboard-response","10","20405","0.0-10.0","34X6J5FLPUK64QNW1L83M3VPBP3QJG","A1G187YBG0DVMQ","3LN3BXKGC0HZB1VNEMH4SWP73O3GW1","","323.7999997138977","img/food1.png","75","325.7000002861023","75","0",""
"","html-keyboard-response","11","20712","0.0-11.0","34X6J5FLPUK64QNW1L83M3VPBP3QJG","A1G187YBG0DVMQ","3LN3BXKGC0HZB1VNEMH4SWP73O3GW1","","null","<img src=""img/food1.png"" style=""width:200px;border:14px solid red;"">","null","","","",""
"","image-keyboard-response","12","21364","0.0-12.0","34X6J5FLPUK64QNW1L83M3VPBP3QJG","A1G187YBG0DVMQ","3LN3BXKGC0HZB1VNEMH4SWP73O3GW1","","649.5","img/food5.png","76","651.4000000953674","76","1",""
"","html-keyboard-response","13","21671","0.0-13.0","34X6J5FLPUK64QNW1L83M3VPBP3QJG","A1G187YBG0DVMQ","3LN3BXKGC0HZB1VNEMH4SWP73O3GW1","","null","<img src=""img/food5.png"" style=""width:200px; border:14px solid green;"">","null","","","",""
"","image-keyboard-response","14","22342","0.0-14.0","34X6J5FLPUK64QNW1L83M3VPBP3QJG","A1G187YBG0DVMQ","3LN3BXKGC0HZB1VNEMH4SWP73O3GW1","","669","img/food3.png","74","670.5","74","0",""
"","html-keyboard-response","15","22648","0.0-15.0","34X6J5FLPUK64QNW1L83M3VPBP3QJG","A1G187YBG0DVMQ","3LN3BXKGC0HZB1VNEMH4SWP73O3GW1","","null","<img src=""img/food3.png"" style=""width:200px;border:14px solid red;"">","null","","","",""
"","image-keyboard-response","16","23362","0.0-16.0","34X6J5FLPUK64QNW1L83M3VPBP3QJG","A1G187YBG0DVMQ","3LN3BXKGC0HZB1VNEMH4SWP73O3GW1","","711.7999997138977","img/food5.png","76","713.5","76","1",""
"","html-keyboard-response","17","23672","0.0-17.0","34X6J5FLPUK64QNW1L83M3VPBP3QJG","A1G187YBG0DVMQ","3LN3BXKGC0HZB1VNEMH4SWP73O3GW1","","null","<img src=""img/food5.png"" style=""width:200px; border:14px solid green;"">","null","","","",""
"","image-keyboard-response","18","24215","0.0-18.0","34X6J5FLPUK64QNW1L83M3VPBP3QJG","A1G187YBG0DVMQ","3LN3BXKGC0HZB1VNEMH4SWP73O3GW1","","541.4000000953674","img/food1.png","75","542.9000000953674","75","0",""
"","html-keyboard-response","19","24519","0.0-19.0","34X6J5FLPUK64QNW1L83M3VPBP3QJG","A1G187YBG0DVMQ","3LN3BXKGC0HZB1VNEMH4SWP73O3GW1","","null","<img src=""img/food1.png"" style=""width:200px;border:14px solid red;"">","null","","","",""
"","image-keyboard-response","20","24815","0.0-20.0","34X6J5FLPUK64QNW1L83M3VPBP3QJG","A1G187YBG0DVMQ","3LN3BXKGC0HZB1VNEMH4SWP73O3GW1","","294.2999997138977","img/food1.png","74","295.2999997138977","74","1",""
"","html-keyboard-response","21","25119","0.0-21.0","34X6J5FLPUK64QNW1L83M3VPBP3QJG","A1G187YBG0DVMQ","3LN3BXKGC0HZB1VNEMH4SWP73O3GW1","","null","<img src=""img/food1.png"" style=""width:200px; border:14px solid green;"">","null","","","",""
"","image-keyboard-response","22","25523","0.0-22.0","34X6J5FLPUK64QNW1L83M3VPBP3QJG","A1G187YBG0DVMQ","3LN3BXKGC0HZB1VNEMH4SWP73O3GW1","","401.7000002861023","img/food1.png","74","403.6000003814697","74","0",""
"","html-keyboard-response","23","25831","0.0-23.0","34X6J5FLPUK64QNW1L83M3VPBP3QJG","A1G187YBG0DVMQ","3LN3BXKGC0HZB1VNEMH4SWP73O3GW1","","null","<img src=""img/food1.png"" style=""width:200px;border:14px solid red;"">","null","","","",""
"","image-keyboard-response","24","26410","0.0-24.0","34X6J5FLPUK64QNW1L83M3VPBP3QJG","A1G187YBG0DVMQ","3LN3BXKGC0HZB1VNEMH4SWP73O3GW1","","576.5999999046326","img/food5.png","75","578.6999998092651","75","0",""
"","html-keyboard-response","25","26719","0.0-25.0","34X6J5FLPUK64QNW1L83M3VPBP3QJG","A1G187YBG0DVMQ","3LN3BXKGC0HZB1VNEMH4SWP73O3GW1","","null","<img src=""img/food5.png"" style=""width:200px;border:14px solid red;"">","null","","","",""
"","image-keyboard-response","26","27264","0.0-26.0","34X6J5FLPUK64QNW1L83M3VPBP3QJG","A1G187YBG0DVMQ","3LN3BXKGC0HZB1VNEMH4SWP73O3GW1","","542.8000001907349","img/food1.png","74","544.2000002861023","74","0",""
"","html-keyboard-response","27","27567","0.0-27.0","34X6J5FLPUK64QNW1L83M3VPBP3QJG","A1G187YBG0DVMQ","3LN3BXKGC0HZB1VNEMH4SWP73O3GW1","","null","<img src=""img/food1.png"" style=""width:200px;border:14px solid red;"">","null","","","",""
"","image-keyboard-response","28","27925","0.0-28.0","34X6J5FLPUK64QNW1L83M3VPBP3QJG","A1G187YBG0DVMQ","3LN3BXKGC0HZB1VNEMH4SWP73O3GW1","","355.30000019073486","img/food1.png","74","357.09999990463257","74","1",""
"","html-keyboard-response","29","28231","0.0-29.0","34X6J5FLPUK64QNW1L83M3VPBP3QJG","A1G187YBG0DVMQ","3LN3BXKGC0HZB1VNEMH4SWP73O3GW1","","null","<img src=""img/food1.png"" style=""width:200px; border:14px solid green;"">","null","","","",""
"","image-keyboard-response","30","28622","0.0-30.0","34X6J5FLPUK64QNW1L83M3VPBP3QJG","A1G187YBG0DVMQ","3LN3BXKGC0HZB1VNEMH4SWP73O3GW1","","389.30000019073486","img/food1.png","74","390.59999990463257","74","1",""
"","html-keyboard-response","31","28928","0.0-31.0","34X6J5FLPUK64QNW1L83M3VPBP3QJG","A1G187YBG0DVMQ","3LN3BXKGC0HZB1VNEMH4SWP73O3GW1","","null","<img src=""img/food1.png"" style=""width:200px; border:14px solid green;"">","null","","","",""
"","image-keyboard-response","32","29683","0.0-32.0","34X6J5FLPUK64QNW1L83M3VPBP3QJG","A1G187YBG0DVMQ","3LN3BXKGC0HZB1VNEMH4SWP73O3GW1","","753.2000002861023","img/food5.png","75","755.0999999046326","75","0",""
"","html-keyboard-response","33","29992","0.0-33.0","34X6J5FLPUK64QNW1L83M3VPBP3QJG","A1G187YBG0DVMQ","3LN3BXKGC0HZB1VNEMH4SWP73O3GW1","","null","<img src=""img/food5.png"" style=""width:200px;border:14px solid red;"">","null","","","",""
"","image-keyboard-response","34","30631","0.0-34.0","34X6J5FLPUK64QNW1L83M3VPBP3QJG","A1G187YBG0DVMQ","3LN3BXKGC0HZB1VNEMH4SWP73O3GW1","","636.1999998092651","img/food5.png","75","638.2000002861023","75","0",""
"","html-keyboard-response","35","30935","0.0-35.0","34X6J5FLPUK64QNW1L83M3VPBP3QJG","A1G187YBG0DVMQ","3LN3BXKGC0HZB1VNEMH4SWP73O3GW1","","null","<img src=""img/food5.png"" style=""width:200px;border:14px solid red;"">","null","","","",""
"","image-keyboard-response","36","31353","0.0-36.0","34X6J5FLPUK64QNW1L83M3VPBP3QJG","A1G187YBG0DVMQ","3LN3BXKGC0HZB1VNEMH4SWP73O3GW1","","415.6000003814697","img/food5.png","76","417.3999996185303","76","0",""
"","html-keyboard-response","37","31664","0.0-37.0","34X6J5FLPUK64QNW1L83M3VPBP3QJG","A1G187YBG0DVMQ","3LN3BXKGC0HZB1VNEMH4SWP73O3GW1","","null","<img src=""img/food5.png"" style=""width:200px;border:14px solid red;"">","null","","","",""
"","image-keyboard-response","38","32331","0.0-38.0","34X6J5FLPUK64QNW1L83M3VPBP3QJG","A1G187YBG0DVMQ","3LN3BXKGC0HZB1VNEMH4SWP73O3GW1","","665.5999999046326","img/food1.png","74","667.5","74","0",""
"","html-keyboard-response","39","32639","0.0-39.0","34X6J5FLPUK64QNW1L83M3VPBP3QJG","A1G187YBG0DVMQ","3LN3BXKGC0HZB1VNEMH4SWP73O3GW1","","null","<img src=""img/food1.png"" style=""width:200px;border:14px solid red;"">","null","","","",""
"","image-keyboard-response","40","33143","0.0-40.0","34X6J5FLPUK64QNW1L83M3VPBP3QJG","A1G187YBG0DVMQ","3LN3BXKGC0HZB1VNEMH4SWP73O3GW1","","501.59999990463257","img/food3.png","75","503.2999997138977","75","0",""
"","html-keyboard-response","41","33447","0.0-41.0","34X6J5FLPUK64QNW1L83M3VPBP3QJG","A1G187YBG0DVMQ","3LN3BXKGC0HZB1VNEMH4SWP73O3GW1","","null","<img src=""img/food3.png"" style=""width:200px;border:14px solid red;"">","null","","","",""
"","image-keyboard-response","42","34295","0.0-42.0","34X6J5FLPUK64QNW1L83M3VPBP3QJG","A1G187YBG0DVMQ","3LN3BXKGC0HZB1VNEMH4SWP73O3GW1","","846.2999997138977","img/food5.png","76","847.8000001907349","76","0",""
"","html-keyboard-response","43","34600","0.0-43.0","34X6J5FLPUK64QNW1L83M3VPBP3QJG","A1G187YBG0DVMQ","3LN3BXKGC0HZB1VNEMH4SWP73O3GW1","","null","<img src=""img/food5.png"" style=""width:200px;border:14px solid red;"">","null","","","",""
"","image-keyboard-response","44","35704","0.0-44.0","34X6J5FLPUK64QNW1L83M3VPBP3QJG","A1G187YBG0DVMQ","3LN3BXKGC0HZB1VNEMH4SWP73O3GW1","","1102.5","img/food3.png","75","1104.1999998092651","75","0",""
"","html-keyboard-response","45","36015","0.0-45.0","34X6J5FLPUK64QNW1L83M3VPBP3QJG","A1G187YBG0DVMQ","3LN3BXKGC0HZB1VNEMH4SWP73O3GW1","","null","<img src=""img/food3.png"" style=""width:200px;border:14px solid red;"">","null","","","",""
"","image-keyboard-response","46","36448","0.0-46.0","34X6J5FLPUK64QNW1L83M3VPBP3QJG","A1G187YBG0DVMQ","3LN3BXKGC0HZB1VNEMH4SWP73O3GW1","","431","img/food3.png","76","432.59999990463257","76","0",""
"","html-keyboard-response","47","36759","0.0-47.0","34X6J5FLPUK64QNW1L83M3VPBP3QJG","A1G187YBG0DVMQ","3LN3BXKGC0HZB1VNEMH4SWP73O3GW1","","null","<img src=""img/food3.png"" style=""width:200px;border:14px solid red;"">","null","","","",""
"","image-keyboard-response","48","37211","0.0-48.0","34X6J5FLPUK64QNW1L83M3VPBP3QJG","A1G187YBG0DVMQ","3LN3BXKGC0HZB1VNEMH4SWP73O3GW1","","450.30000019073486","img/food5.png","74","451.59999990463257","74","0",""
"","html-keyboard-response","49","37519","0.0-49.0","34X6J5FLPUK64QNW1L83M3VPBP3QJG","A1G187YBG0DVMQ","3LN3BXKGC0HZB1VNEMH4SWP73O3GW1","","null","<img src=""img/food5.png"" style=""width:200px;border:14px solid red;"">","null","","","",""
"","image-keyboard-response","50","38212","0.0-50.0","34X6J5FLPUK64QNW1L83M3VPBP3QJG","A1G187YBG0DVMQ","3LN3BXKGC0HZB1VNEMH4SWP73O3GW1","","690.2000002861023","img/food1.png","74","692.0999999046326","74","0",""
"","html-keyboard-response","51","38520","0.0-51.0","34X6J5FLPUK64QNW1L83M3VPBP3QJG","A1G187YBG0DVMQ","3LN3BXKGC0HZB1VNEMH4SWP73O3GW1","","null","<img src=""img/food1.png"" style=""width:200px;border:14px solid red;"">","null","","","",""
"","image-keyboard-response","52","38894","0.0-52.0","34X6J5FLPUK64QNW1L83M3VPBP3QJG","A1G187YBG0DVMQ","3LN3BXKGC0HZB1VNEMH4SWP73O3GW1","","372","img/food3.png","74","373.69999980926514","74","0",""
"","html-keyboard-response","53","39199","0.0-53.0","34X6J5FLPUK64QNW1L83M3VPBP3QJG","A1G187YBG0DVMQ","3LN3BXKGC0HZB1VNEMH4SWP73O3GW1","","null","<img src=""img/food3.png"" style=""width:200px;border:14px solid red;"">","null","","","",""
"","image-keyboard-response","54","39584","0.0-54.0","34X6J5FLPUK64QNW1L83M3VPBP3QJG","A1G187YBG0DVMQ","3LN3BXKGC0HZB1VNEMH4SWP73O3GW1","","383.5","img/food5.png","75","385.30000019073486","75","0",""
"","html-keyboard-response","55","39895","0.0-55.0","34X6J5FLPUK64QNW1L83M3VPBP3QJG","A1G187YBG0DVMQ","3LN3BXKGC0HZB1VNEMH4SWP73O3GW1","","null","<img src=""img/food5.png"" style=""width:200px;border:14px solid red;"">","null","","","",""
"","image-keyboard-response","56","40186","0.0-56.0","34X6J5FLPUK64QNW1L83M3VPBP3QJG","A1G187YBG0DVMQ","3LN3BXKGC0HZB1VNEMH4SWP73O3GW1","","288.59999990463257","img/food1.png","75","290.2000002861023","75","0",""
"","html-keyboard-response","57","40495","0.0-57.0","34X6J5FLPUK64QNW1L83M3VPBP3QJG","A1G187YBG0DVMQ","3LN3BXKGC0HZB1VNEMH4SWP73O3GW1","","null","<img src=""img/food1.png"" style=""width:200px;border:14px solid red;"">","null","","","",""
"","image-keyboard-response","58","40796","0.0-58.0","34X6J5FLPUK64QNW1L83M3VPBP3QJG","A1G187YBG0DVMQ","3LN3BXKGC0HZB1VNEMH4SWP73O3GW1","","298.2999997138977","img/food1.png","74","300.30000019073486","74","1",""
"","html-keyboard-response","59","41103","0.0-59.0","34X6J5FLPUK64QNW1L83M3VPBP3QJG","A1G187YBG0DVMQ","3LN3BXKGC0HZB1VNEMH4SWP73O3GW1","","null","<img src=""img/food1.png"" style=""width:200px; border:14px solid green;"">","null","","","",""
"","image-keyboard-response","60","42405","0.0-60.0","34X6J5FLPUK64QNW1L83M3VPBP3QJG","A1G187YBG0DVMQ","3LN3BXKGC0HZB1VNEMH4SWP73O3GW1","","1300.0999999046326","img/food5.png","76","1302","76","1",""
"","html-keyboard-response","61","42711","0.0-61.0","34X6J5FLPUK64QNW1L83M3VPBP3QJG","A1G187YBG0DVMQ","3LN3BXKGC0HZB1VNEMH4SWP73O3GW1","","null","<img src=""img/food5.png"" style=""width:200px; border:14px solid green;"">","null","","","",""
"","image-keyboard-response","62","43130","0.0-62.0","34X6J5FLPUK64QNW1L83M3VPBP3QJG","A1G187YBG0DVMQ","3LN3BXKGC0HZB1VNEMH4SWP73O3GW1","","416.90000009536743","img/food5.png","76","418.7000002861023","76","1",""
"","html-keyboard-response","63","43439","0.0-63.0","34X6J5FLPUK64QNW1L83M3VPBP3QJG","A1G187YBG0DVMQ","3LN3BXKGC0HZB1VNEMH4SWP73O3GW1","","null","<img src=""img/food5.png"" style=""width:200px; border:14px solid green;"">","null","","","",""
"","image-keyboard-response","64","43793","0.0-64.0","34X6J5FLPUK64QNW1L83M3VPBP3QJG","A1G187YBG0DVMQ","3LN3BXKGC0HZB1VNEMH4SWP73O3GW1","","351.5","img/food5.png","76","353.40000009536743","76","1",""
"","html-keyboard-response","65","44103","0.0-65.0","34X6J5FLPUK64QNW1L83M3VPBP3QJG","A1G187YBG0DVMQ","3LN3BXKGC0HZB1VNEMH4SWP73O3GW1","","null","<img src=""img/food5.png"" style=""width:200px; border:14px solid green;"">","null","","","",""
"","image-keyboard-response","66","44744","0.0-66.0","34X6J5FLPUK64QNW1L83M3VPBP3QJG","A1G187YBG0DVMQ","3LN3BXKGC0HZB1VNEMH4SWP73O3GW1","","639","img/food1.png","74","640.5999999046326","74","0",""
"","html-keyboard-response","67","45047","0.0-67.0","34X6J5FLPUK64QNW1L83M3VPBP3QJG","A1G187YBG0DVMQ","3LN3BXKGC0HZB1VNEMH4SWP73O3GW1","","null","<img src=""img/food1.png"" style=""width:200px;border:14px solid red;"">","null","","","",""
"","image-keyboard-response","68","45816","0.0-68.0","34X6J5FLPUK64QNW1L83M3VPBP3QJG","A1G187YBG0DVMQ","3LN3BXKGC0HZB1VNEMH4SWP73O3GW1","","767","img/food3.png","75","768.8000001907349","75","1",""
"","html-keyboard-response","69","46128","0.0-69.0","34X6J5FLPUK64QNW1L83M3VPBP3QJG","A1G187YBG0DVMQ","3LN3BXKGC0HZB1VNEMH4SWP73O3GW1","","null","<img src=""img/food3.png"" style=""width:200px; border:14px solid green;"">","null","","","",""
"","image-keyboard-response","70","46496","0.0-70.0","34X6J5FLPUK64QNW1L83M3VPBP3QJG","A1G187YBG0DVMQ","3LN3BXKGC0HZB1VNEMH4SWP73O3GW1","","366.90000009536743","img/food3.png","75","368.6000003814697","75","1",""
"","html-keyboard-response","71","46807","0.0-71.0","34X6J5FLPUK64QNW1L83M3VPBP3QJG","A1G187YBG0DVMQ","3LN3BXKGC0HZB1VNEMH4SWP73O3GW1","","null","<img src=""img/food3.png"" style=""width:200px; border:14px solid green;"">","null","","","",""
"","image-keyboard-response","72","47653","0.0-72.0","34X6J5FLPUK64QNW1L83M3VPBP3QJG","A1G187YBG0DVMQ","3LN3BXKGC0HZB1VNEMH4SWP73O3GW1","","843.7999997138977","img/food5.png","76","845.6999998092651","76","1",""
"","html-keyboard-response","73","47959","0.0-73.0","34X6J5FLPUK64QNW1L83M3VPBP3QJG","A1G187YBG0DVMQ","3LN3BXKGC0HZB1VNEMH4SWP73O3GW1","","null","<img src=""img/food5.png"" style=""width:200px; border:14px solid green;"">","null","","","",""
"","image-keyboard-response","74","48504","0.0-74.0","34X6J5FLPUK64QNW1L83M3VPBP3QJG","A1G187YBG0DVMQ","3LN3BXKGC0HZB1VNEMH4SWP73O3GW1","","542.7999997138977","img/food3.png","75","544.5","75","0",""
"","html-keyboard-response","75","48815","0.0-75.0","34X6J5FLPUK64QNW1L83M3VPBP3QJG","A1G187YBG0DVMQ","3LN3BXKGC0HZB1VNEMH4SWP73O3GW1","","null","<img src=""img/food3.png"" style=""width:200px;border:14px solid red;"">","null","","","",""
"","image-keyboard-response","76","49491","0.0-76.0","34X6J5FLPUK64QNW1L83M3VPBP3QJG","A1G187YBG0DVMQ","3LN3BXKGC0HZB1VNEMH4SWP73O3GW1","","673.9000000953674","img/food5.png","76","675.7999997138977","76","1",""
"","html-keyboard-response","77","49799","0.0-77.0","34X6J5FLPUK64QNW1L83M3VPBP3QJG","A1G187YBG0DVMQ","3LN3BXKGC0HZB1VNEMH4SWP73O3GW1","","null","<img src=""img/food5.png"" style=""width:200px; border:14px solid green;"">","null","","","",""
"","image-keyboard-response","78","50291","0.0-78.0","34X6J5FLPUK64QNW1L83M3VPBP3QJG","A1G187YBG0DVMQ","3LN3BXKGC0HZB1VNEMH4SWP73O3GW1","","489.59999990463257","img/food3.png","75","491.2999997138977","75","0",""
"","html-keyboard-response","79","50599","0.0-79.0","34X6J5FLPUK64QNW1L83M3VPBP3QJG","A1G187YBG0DVMQ","3LN3BXKGC0HZB1VNEMH4SWP73O3GW1","","null","<img src=""img/food3.png"" style=""width:200px;border:14px solid red;"">","null","","","",""
"","image-keyboard-response","80","50974","0.0-80.0","34X6J5FLPUK64QNW1L83M3VPBP3QJG","A1G187YBG0DVMQ","3LN3BXKGC0HZB1VNEMH4SWP73O3GW1","","373.5","img/food3.png","75","375.19999980926514","75","1",""
"","html-keyboard-response","81","51279","0.0-81.0","34X6J5FLPUK64QNW1L83M3VPBP3QJG","A1G187YBG0DVMQ","3LN3BXKGC0HZB1VNEMH4SWP73O3GW1","","null","<img src=""img/food3.png"" style=""width:200px; border:14px solid green;"">","null","","","",""
"","image-keyboard-response","82","51814","0.0-82.0","34X6J5FLPUK64QNW1L83M3VPBP3QJG","A1G187YBG0DVMQ","3LN3BXKGC0HZB1VNEMH4SWP73O3GW1","","532.8000001907349","img/food1.png","74","534.5","74","0",""
"","html-keyboard-response","83","52119","0.0-83.0","34X6J5FLPUK64QNW1L83M3VPBP3QJG","A1G187YBG0DVMQ","3LN3BXKGC0HZB1VNEMH4SWP73O3GW1","","null","<img src=""img/food1.png"" style=""width:200px;border:14px solid red;"">","null","","","",""
"","image-keyboard-response","84","52650","0.0-84.0","34X6J5FLPUK64QNW1L83M3VPBP3QJG","A1G187YBG0DVMQ","3LN3BXKGC0HZB1VNEMH4SWP73O3GW1","","528.6000003814697","img/food5.png","75","530.5","75","1",""
"","html-keyboard-response","85","52959","0.0-85.0","34X6J5FLPUK64QNW1L83M3VPBP3QJG","A1G187YBG0DVMQ","3LN3BXKGC0HZB1VNEMH4SWP73O3GW1","","null","<img src=""img/food5.png"" style=""width:200px; border:14px solid green;"">","null","","","",""
"","image-keyboard-response","86","53399","0.0-86.0","34X6J5FLPUK64QNW1L83M3VPBP3QJG","A1G187YBG0DVMQ","3LN3BXKGC0HZB1VNEMH4SWP73O3GW1","","438.19999980926514","img/food5.png","75","439.90000009536743","75","1",""
"","html-keyboard-response","87","53703","0.0-87.0","34X6J5FLPUK64QNW1L83M3VPBP3QJG","A1G187YBG0DVMQ","3LN3BXKGC0HZB1VNEMH4SWP73O3GW1","","null","<img src=""img/food5.png"" style=""width:200px; border:14px solid green;"">","null","","","",""
"","image-keyboard-response","88","54894","0.0-88.0","34X6J5FLPUK64QNW1L83M3VPBP3QJG","A1G187YBG0DVMQ","3LN3BXKGC0HZB1VNEMH4SWP73O3GW1","","1189.1999998092651","img/food1.png","74","1190.8000001907349","74","0",""
"","html-keyboard-response","89","55199","0.0-89.0","34X6J5FLPUK64QNW1L83M3VPBP3QJG","A1G187YBG0DVMQ","3LN3BXKGC0HZB1VNEMH4SWP73O3GW1","","null","<img src=""img/food1.png"" style=""width:200px;border:14px solid red;"">","null","","","",""
"","image-keyboard-response","90","55880","0.0-90.0","34X6J5FLPUK64QNW1L83M3VPBP3QJG","A1G187YBG0DVMQ","3LN3BXKGC0HZB1VNEMH4SWP73O3GW1","","679.0999999046326","img/food3.png","75","680.3999996185303","75","0",""
"","html-keyboard-response","91","56182","0.0-91.0","34X6J5FLPUK64QNW1L83M3VPBP3QJG","A1G187YBG0DVMQ","3LN3BXKGC0HZB1VNEMH4SWP73O3GW1","","null","<img src=""img/food3.png"" style=""width:200px;border:14px solid red;"">","null","","","",""
"","image-keyboard-response","92","56523","0.0-92.0","34X6J5FLPUK64QNW1L83M3VPBP3QJG","A1G187YBG0DVMQ","3LN3BXKGC0HZB1VNEMH4SWP73O3GW1","","340.3999996185303","img/food3.png","75","341.2999997138977","75","1",""
"","html-keyboard-response","93","56831","0.0-93.0","34X6J5FLPUK64QNW1L83M3VPBP3QJG","A1G187YBG0DVMQ","3LN3BXKGC0HZB1VNEMH4SWP73O3GW1","","null","<img src=""img/food3.png"" style=""width:200px; border:14px solid green;"">","null","","","",""
"","image-keyboard-response","94","57201","0.0-94.0","34X6J5FLPUK64QNW1L83M3VPBP3QJG","A1G187YBG0DVMQ","3LN3BXKGC0HZB1VNEMH4SWP73O3GW1","","368.5","img/food3.png","75","370.09999990463257","75","1",""
"","html-keyboard-response","95","57511","0.0-95.0","34X6J5FLPUK64QNW1L83M3VPBP3QJG","A1G187YBG0DVMQ","3LN3BXKGC0HZB1VNEMH4SWP73O3GW1","","null","<img src=""img/food3.png"" style=""width:200px; border:14px solid green;"">","null","","","",""
"","image-keyboard-response","96","58925","0.0-96.0","34X6J5FLPUK64QNW1L83M3VPBP3QJG","A1G187YBG0DVMQ","3LN3BXKGC0HZB1VNEMH4SWP73O3GW1","","1412","img/food1.png","74","1413.5999999046326","74","1",""
"","html-keyboard-response","97","59231","0.0-97.0","34X6J5FLPUK64QNW1L83M3VPBP3QJG","A1G187YBG0DVMQ","3LN3BXKGC0HZB1VNEMH4SWP73O3GW1","","null","<img src=""img/food1.png"" style=""width:200px; border:14px solid green;"">","null","","","",""
"","image-keyboard-response","98","59843","0.0-98.0","34X6J5FLPUK64QNW1L83M3VPBP3QJG","A1G187YBG0DVMQ","3LN3BXKGC0HZB1VNEMH4SWP73O3GW1","","609.5999999046326","img/food3.png","75","611.5","75","0",""
"","html-keyboard-response","99","60151","0.0-99.0","34X6J5FLPUK64QNW1L83M3VPBP3QJG","A1G187YBG0DVMQ","3LN3BXKGC0HZB1VNEMH4SWP73O3GW1","","null","<img src=""img/food3.png"" style=""width:200px;border:14px solid red;"">","null","","","",""
"","image-keyboard-response","100","60526","0.0-100.0","34X6J5FLPUK64QNW1L83M3VPBP3QJG","A1G187YBG0DVMQ","3LN3BXKGC0HZB1VNEMH4SWP73O3GW1","","373.3999996185303","img/food3.png","75","375.09999990463257","75","1",""
"","html-keyboard-response","101","60831","0.0-101.0","34X6J5FLPUK64QNW1L83M3VPBP3QJG","A1G187YBG0DVMQ","3LN3BXKGC0HZB1VNEMH4SWP73O3GW1","","null","<img src=""img/food3.png"" style=""width:200px; border:14px solid green;"">","null","","","",""
"","image-keyboard-response","102","61199","0.0-102.0","34X6J5FLPUK64QNW1L83M3VPBP3QJG","A1G187YBG0DVMQ","3LN3BXKGC0HZB1VNEMH4SWP73O3GW1","","367.59999990463257","img/food3.png","75","368.40000009536743","75","0",""
"","html-keyboard-response","103","61503","0.0-103.0","34X6J5FLPUK64QNW1L83M3VPBP3QJG","A1G187YBG0DVMQ","3LN3BXKGC0HZB1VNEMH4SWP73O3GW1","","null","<img src=""img/food3.png"" style=""width:200px;border:14px solid red;"">","null","","","",""
"","image-keyboard-response","104","62172","0.0-104.0","34X6J5FLPUK64QNW1L83M3VPBP3QJG","A1G187YBG0DVMQ","3LN3BXKGC0HZB1VNEMH4SWP73O3GW1","","667","img/food1.png","74","668.2000002861023","74","0",""
"","html-keyboard-response","105","62479","0.0-105.0","34X6J5FLPUK64QNW1L83M3VPBP3QJG","A1G187YBG0DVMQ","3LN3BXKGC0HZB1VNEMH4SWP73O3GW1","","null","<img src=""img/food1.png"" style=""width:200px;border:14px solid red;"">","null","","","",""
"","image-keyboard-response","106","63304","0.0-106.0","34X6J5FLPUK64QNW1L83M3VPBP3QJG","A1G187YBG0DVMQ","3LN3BXKGC0HZB1VNEMH4SWP73O3GW1","","823.1999998092651","img/food5.png","76","824.8000001907349","76","1",""
"","html-keyboard-response","107","63607","0.0-107.0","34X6J5FLPUK64QNW1L83M3VPBP3QJG","A1G187YBG0DVMQ","3LN3BXKGC0HZB1VNEMH4SWP73O3GW1","","null","<img src=""img/food5.png"" style=""width:200px; border:14px solid green;"">","null","","","",""
"","image-keyboard-response","108","64105","0.0-108.0","34X6J5FLPUK64QNW1L83M3VPBP3QJG","A1G187YBG0DVMQ","3LN3BXKGC0HZB1VNEMH4SWP73O3GW1","","495.90000009536743","img/food1.png","74","498","74","1",""
"","html-keyboard-response","109","64415","0.0-109.0","34X6J5FLPUK64QNW1L83M3VPBP3QJG","A1G187YBG0DVMQ","3LN3BXKGC0HZB1VNEMH4SWP73O3GW1","","null","<img src=""img/food1.png"" style=""width:200px; border:14px solid green;"">","null","","","",""
"","image-keyboard-response","110","64868","0.0-110.0","34X6J5FLPUK64QNW1L83M3VPBP3QJG","A1G187YBG0DVMQ","3LN3BXKGC0HZB1VNEMH4SWP73O3GW1","","451.5","img/food1.png","74","453.09999990463257","74","1",""
"","html-keyboard-response","111","65175","0.0-111.0","34X6J5FLPUK64QNW1L83M3VPBP3QJG","A1G187YBG0DVMQ","3LN3BXKGC0HZB1VNEMH4SWP73O3GW1","","null","<img src=""img/food1.png"" style=""width:200px; border:14px solid green;"">","null","","","",""
"","image-keyboard-response","112","65528","0.0-112.0","34X6J5FLPUK64QNW1L83M3VPBP3QJG","A1G187YBG0DVMQ","3LN3BXKGC0HZB1VNEMH4SWP73O3GW1","","351.59999990463257","img/food1.png","74","353.40000009536743","74","1",""
"","html-keyboard-response","113","65839","0.0-113.0","34X6J5FLPUK64QNW1L83M3VPBP3QJG","A1G187YBG0DVMQ","3LN3BXKGC0HZB1VNEMH4SWP73O3GW1","","null","<img src=""img/food1.png"" style=""width:200px; border:14px solid green;"">","null","","","",""
"","image-keyboard-response","114","66403","0.0-114.0","34X6J5FLPUK64QNW1L83M3VPBP3QJG","A1G187YBG0DVMQ","3LN3BXKGC0HZB1VNEMH4SWP73O3GW1","","561.6000003814697","img/food5.png","75","563.4000000953674","75","1",""
"","html-keyboard-response","115","66710","0.0-115.0","34X6J5FLPUK64QNW1L83M3VPBP3QJG","A1G187YBG0DVMQ","3LN3BXKGC0HZB1VNEMH4SWP73O3GW1","","null","<img src=""img/food5.png"" style=""width:200px; border:14px solid green;"">","null","","","",""
"","image-keyboard-response","116","67149","0.0-116.0","34X6J5FLPUK64QNW1L83M3VPBP3QJG","A1G187YBG0DVMQ","3LN3BXKGC0HZB1VNEMH4SWP73O3GW1","","437.1000003814697","img/food5.png","75","439","75","1",""
"","html-keyboard-response","117","67455","0.0-117.0","34X6J5FLPUK64QNW1L83M3VPBP3QJG","A1G187YBG0DVMQ","3LN3BXKGC0HZB1VNEMH4SWP73O3GW1","","null","<img src=""img/food5.png"" style=""width:200px; border:14px solid green;"">","null","","","",""
"","image-keyboard-response","118","68025","0.0-118.0","34X6J5FLPUK64QNW1L83M3VPBP3QJG","A1G187YBG0DVMQ","3LN3BXKGC0HZB1VNEMH4SWP73O3GW1","","568.6999998092651","img/food1.png","74","570.4000000953674","74","0",""
"","html-keyboard-response","119","68335","0.0-119.0","34X6J5FLPUK64QNW1L83M3VPBP3QJG","A1G187YBG0DVMQ","3LN3BXKGC0HZB1VNEMH4SWP73O3GW1","","null","<img src=""img/food1.png"" style=""width:200px;border:14px solid red;"">","null","","","",""
"","image-keyboard-response","120","69143","0.0-120.0","34X6J5FLPUK64QNW1L83M3VPBP3QJG","A1G187YBG0DVMQ","3LN3BXKGC0HZB1VNEMH4SWP73O3GW1","","806.0999999046326","img/food3.png","75","807.6999998092651","75","1",""
"","html-keyboard-response","121","69447","0.0-121.0","34X6J5FLPUK64QNW1L83M3VPBP3QJG","A1G187YBG0DVMQ","3LN3BXKGC0HZB1VNEMH4SWP73O3GW1","","null","<img src=""img/food3.png"" style=""width:200px; border:14px solid green;"">","null","","","",""
"","image-keyboard-response","122","69819","0.0-122.0","34X6J5FLPUK64QNW1L83M3VPBP3QJG","A1G187YBG0DVMQ","3LN3BXKGC0HZB1VNEMH4SWP73O3GW1","","370.2999997138977","img/food3.png","75","372","75","0",""
"","html-keyboard-response","123","70127","0.0-123.0","34X6J5FLPUK64QNW1L83M3VPBP3QJG","A1G187YBG0DVMQ","3LN3BXKGC0HZB1VNEMH4SWP73O3GW1","","null","<img src=""img/food3.png"" style=""width:200px;border:14px solid red;"">","null","","","",""
"","image-keyboard-response","124","70800","0.0-124.0","34X6J5FLPUK64QNW1L83M3VPBP3QJG","A1G187YBG0DVMQ","3LN3BXKGC0HZB1VNEMH4SWP73O3GW1","","670.6999998092651","img/food5.png","76","672.5999999046326","76","1",""
"","html-keyboard-response","125","71111","0.0-125.0","34X6J5FLPUK64QNW1L83M3VPBP3QJG","A1G187YBG0DVMQ","3LN3BXKGC0HZB1VNEMH4SWP73O3GW1","","null","<img src=""img/food5.png"" style=""width:200px; border:14px solid green;"">","null","","","",""
"","image-keyboard-response","126","71422","0.0-126.0","34X6J5FLPUK64QNW1L83M3VPBP3QJG","A1G187YBG0DVMQ","3LN3BXKGC0HZB1VNEMH4SWP73O3GW1","","308.90000009536743","img/food5.png","76","310.7000002861023","76","1",""
"","html-keyboard-response","127","71727","0.0-127.0","34X6J5FLPUK64QNW1L83M3VPBP3QJG","A1G187YBG0DVMQ","3LN3BXKGC0HZB1VNEMH4SWP73O3GW1","","null","<img src=""img/food5.png"" style=""width:200px; border:14px solid green;"">","null","","","",""
"","image-keyboard-response","128","72087","0.0-128.0","34X6J5FLPUK64QNW1L83M3VPBP3QJG","A1G187YBG0DVMQ","3LN3BXKGC0HZB1VNEMH4SWP73O3GW1","","358.09999990463257","img/food5.png","76","360.09999990463257","76","1",""
"","html-keyboard-response","129","72390","0.0-129.0","34X6J5FLPUK64QNW1L83M3VPBP3QJG","A1G187YBG0DVMQ","3LN3BXKGC0HZB1VNEMH4SWP73O3GW1","","null","<img src=""img/food5.png"" style=""width:200px; border:14px solid green;"">","null","","","",""
"","image-keyboard-response","130","72720","0.0-130.0","34X6J5FLPUK64QNW1L83M3VPBP3QJG","A1G187YBG0DVMQ","3LN3BXKGC0HZB1VNEMH4SWP73O3GW1","","328","img/food5.png","76","329.59999990463257","76","1",""
"","html-keyboard-response","131","73031","0.0-131.0","34X6J5FLPUK64QNW1L83M3VPBP3QJG","A1G187YBG0DVMQ","3LN3BXKGC0HZB1VNEMH4SWP73O3GW1","","null","<img src=""img/food5.png"" style=""width:200px; border:14px solid green;"">","null","","","",""
"","image-keyboard-response","132","73605","0.0-132.0","34X6J5FLPUK64QNW1L83M3VPBP3QJG","A1G187YBG0DVMQ","3LN3BXKGC0HZB1VNEMH4SWP73O3GW1","","572.0999999046326","img/food3.png","75","573.7999997138977","75","1",""
"","html-keyboard-response","133","73910","0.0-133.0","34X6J5FLPUK64QNW1L83M3VPBP3QJG","A1G187YBG0DVMQ","3LN3BXKGC0HZB1VNEMH4SWP73O3GW1","","null","<img src=""img/food3.png"" style=""width:200px; border:14px solid green;"">","null","","","",""
"","image-keyboard-response","134","74604","0.0-134.0","34X6J5FLPUK64QNW1L83M3VPBP3QJG","A1G187YBG0DVMQ","3LN3BXKGC0HZB1VNEMH4SWP73O3GW1","","691.8000001907349","img/food5.png","75","693.8000001907349","75","1",""
"","html-keyboard-response","135","74910","0.0-135.0","34X6J5FLPUK64QNW1L83M3VPBP3QJG","A1G187YBG0DVMQ","3LN3BXKGC0HZB1VNEMH4SWP73O3GW1","","null","<img src=""img/food5.png"" style=""width:200px; border:14px solid green;"">","null","","","",""
"","image-keyboard-response","136","75441","0.0-136.0","34X6J5FLPUK64QNW1L83M3VPBP3QJG","A1G187YBG0DVMQ","3LN3BXKGC0HZB1VNEMH4SWP73O3GW1","","527.8000001907349","img/food1.png","74","529.8000001907349","74","0",""
"","html-keyboard-response","137","75750","0.0-137.0","34X6J5FLPUK64QNW1L83M3VPBP3QJG","A1G187YBG0DVMQ","3LN3BXKGC0HZB1VNEMH4SWP73O3GW1","","null","<img src=""img/food1.png"" style=""width:200px;border:14px solid red;"">","null","","","",""
"","image-keyboard-response","138","76521","0.0-138.0","34X6J5FLPUK64QNW1L83M3VPBP3QJG","A1G187YBG0DVMQ","3LN3BXKGC0HZB1VNEMH4SWP73O3GW1","","768.5","img/food3.png","75","770.3000001907349","75","1",""
"","html-keyboard-response","139","76831","0.0-139.0","34X6J5FLPUK64QNW1L83M3VPBP3QJG","A1G187YBG0DVMQ","3LN3BXKGC0HZB1VNEMH4SWP73O3GW1","","null","<img src=""img/food3.png"" style=""width:200px; border:14px solid green;"">","null","","","",""
"","image-keyboard-response","140","77213","0.0-140.0","34X6J5FLPUK64QNW1L83M3VPBP3QJG","A1G187YBG0DVMQ","3LN3BXKGC0HZB1VNEMH4SWP73O3GW1","","379.7000002861023","img/food3.png","75","381.59999990463257","75","0",""
"","html-keyboard-response","141","77519","0.0-141.0","34X6J5FLPUK64QNW1L83M3VPBP3QJG","A1G187YBG0DVMQ","3LN3BXKGC0HZB1VNEMH4SWP73O3GW1","","null","<img src=""img/food3.png"" style=""width:200px;border:14px solid red;"">","null","","","",""
"","image-keyboard-response","142","78230","0.0-142.0","34X6J5FLPUK64QNW1L83M3VPBP3QJG","A1G187YBG0DVMQ","3LN3BXKGC0HZB1VNEMH4SWP73O3GW1","","708.5","img/food1.png","74","710.4000000953674","74","1",""
"","html-keyboard-response","143","78534","0.0-143.0","34X6J5FLPUK64QNW1L83M3VPBP3QJG","A1G187YBG0DVMQ","3LN3BXKGC0HZB1VNEMH4SWP73O3GW1","","null","<img src=""img/food1.png"" style=""width:200px; border:14px solid green;"">","null","","","",""
"","image-keyboard-response","144","79089","0.0-144.0","34X6J5FLPUK64QNW1L83M3VPBP3QJG","A1G187YBG0DVMQ","3LN3BXKGC0HZB1VNEMH4SWP73O3GW1","","552.5999999046326","img/food3.png","75","554.4000000953674","75","1",""
"","html-keyboard-response","145","79399","0.0-145.0","34X6J5FLPUK64QNW1L83M3VPBP3QJG","A1G187YBG0DVMQ","3LN3BXKGC0HZB1VNEMH4SWP73O3GW1","","null","<img src=""img/food3.png"" style=""width:200px; border:14px solid green;"">","null","","","",""
"","image-keyboard-response","146","80126","0.0-146.0","34X6J5FLPUK64QNW1L83M3VPBP3QJG","A1G187YBG0DVMQ","3LN3BXKGC0HZB1VNEMH4SWP73O3GW1","","725.6000003814697","img/food1.png","74","727.1999998092651","74","0",""
"","html-keyboard-response","147","80430","0.0-147.0","34X6J5FLPUK64QNW1L83M3VPBP3QJG","A1G187YBG0DVMQ","3LN3BXKGC0HZB1VNEMH4SWP73O3GW1","","null","<img src=""img/food1.png"" style=""width:200px;border:14px solid red;"">","null","","","",""
"","image-keyboard-response","148","80985","0.0-148.0","34X6J5FLPUK64QNW1L83M3VPBP3QJG","A1G187YBG0DVMQ","3LN3BXKGC0HZB1VNEMH4SWP73O3GW1","","552.5999999046326","img/food3.png","75","554.2000002861023","75","0",""
"","html-keyboard-response","149","81294","0.0-149.0","34X6J5FLPUK64QNW1L83M3VPBP3QJG","A1G187YBG0DVMQ","3LN3BXKGC0HZB1VNEMH4SWP73O3GW1","","null","<img src=""img/food3.png"" style=""width:200px;border:14px solid red;"">","null","","","",""
"","image-keyboard-response","150","81956","0.0-150.0","34X6J5FLPUK64QNW1L83M3VPBP3QJG","A1G187YBG0DVMQ","3LN3BXKGC0HZB1VNEMH4SWP73O3GW1","","661.1000003814697","img/food5.png","76","662.2000002861023","76","1",""
"","html-keyboard-response","151","82262","0.0-151.0","34X6J5FLPUK64QNW1L83M3VPBP3QJG","A1G187YBG0DVMQ","3LN3BXKGC0HZB1VNEMH4SWP73O3GW1","","null","<img src=""img/food5.png"" style=""width:200px; border:14px solid green;"">","null","","","",""
"","image-keyboard-response","152","83082","0.0-152.0","34X6J5FLPUK64QNW1L83M3VPBP3QJG","A1G187YBG0DVMQ","3LN3BXKGC0HZB1VNEMH4SWP73O3GW1","","818.4000000953674","img/food1.png","74","820","74","1",""
"","html-keyboard-response","153","83391","0.0-153.0","34X6J5FLPUK64QNW1L83M3VPBP3QJG","A1G187YBG0DVMQ","3LN3BXKGC0HZB1VNEMH4SWP73O3GW1","","null","<img src=""img/food1.png"" style=""width:200px; border:14px solid green;"">","null","","","",""
"","image-keyboard-response","154","83750","0.0-154.0","34X6J5FLPUK64QNW1L83M3VPBP3QJG","A1G187YBG0DVMQ","3LN3BXKGC0HZB1VNEMH4SWP73O3GW1","","357.40000009536743","img/food1.png","74","359","74","1",""
"","html-keyboard-response","155","84055","0.0-155.0","34X6J5FLPUK64QNW1L83M3VPBP3QJG","A1G187YBG0DVMQ","3LN3BXKGC0HZB1VNEMH4SWP73O3GW1","","null","<img src=""img/food1.png"" style=""width:200px; border:14px solid green;"">","null","","","",""
"","image-keyboard-response","156","84532","0.0-156.0","34X6J5FLPUK64QNW1L83M3VPBP3QJG","A1G187YBG0DVMQ","3LN3BXKGC0HZB1VNEMH4SWP73O3GW1","","475.2999997138977","img/food3.png","75","477.19999980926514","75","1",""
"","html-keyboard-response","157","84839","0.0-157.0","34X6J5FLPUK64QNW1L83M3VPBP3QJG","A1G187YBG0DVMQ","3LN3BXKGC0HZB1VNEMH4SWP73O3GW1","","null","<img src=""img/food3.png"" style=""width:200px; border:14px solid green;"">","null","","","",""
"","image-keyboard-response","158","85669","0.0-158.0","34X6J5FLPUK64QNW1L83M3VPBP3QJG","A1G187YBG0DVMQ","3LN3BXKGC0HZB1VNEMH4SWP73O3GW1","","827.8000001907349","img/food5.png","76","829.7999997138977","76","1",""
"","html-keyboard-response","159","85975","0.0-159.0","34X6J5FLPUK64QNW1L83M3VPBP3QJG","A1G187YBG0DVMQ","3LN3BXKGC0HZB1VNEMH4SWP73O3GW1","","null","<img src=""img/food5.png"" style=""width:200px; border:14px solid green;"">","null","","","",""
"","image-keyboard-response","160","86495","0.0-160.0","34X6J5FLPUK64QNW1L83M3VPBP3QJG","A1G187YBG0DVMQ","3LN3BXKGC0HZB1VNEMH4SWP73O3GW1","","517.7999997138977","img/food3.png","75","519.5999999046326","75","0",""
"","html-keyboard-response","161","86799","0.0-161.0","34X6J5FLPUK64QNW1L83M3VPBP3QJG","A1G187YBG0DVMQ","3LN3BXKGC0HZB1VNEMH4SWP73O3GW1","","null","<img src=""img/food3.png"" style=""width:200px;border:14px solid red;"">","null","","","",""
"","image-keyboard-response","162","87625","0.0-162.0","34X6J5FLPUK64QNW1L83M3VPBP3QJG","A1G187YBG0DVMQ","3LN3BXKGC0HZB1VNEMH4SWP73O3GW1","","823","img/food5.png","76","824.6000003814697","76","1",""
"","html-keyboard-response","163","87935","0.0-163.0","34X6J5FLPUK64QNW1L83M3VPBP3QJG","A1G187YBG0DVMQ","3LN3BXKGC0HZB1VNEMH4SWP73O3GW1","","null","<img src=""img/food5.png"" style=""width:200px; border:14px solid green;"">","null","","","",""
"","image-keyboard-response","164","88645","0.0-164.0","34X6J5FLPUK64QNW1L83M3VPBP3QJG","A1G187YBG0DVMQ","3LN3BXKGC0HZB1VNEMH4SWP73O3GW1","","707.6999998092651","img/food3.png","75","709.3999996185303","75","1",""
"","html-keyboard-response","165","88950","0.0-165.0","34X6J5FLPUK64QNW1L83M3VPBP3QJG","A1G187YBG0DVMQ","3LN3BXKGC0HZB1VNEMH4SWP73O3GW1","","null","<img src=""img/food3.png"" style=""width:200px; border:14px solid green;"">","null","","","",""
"","image-keyboard-response","166","90074","0.0-166.0","34X6J5FLPUK64QNW1L83M3VPBP3QJG","A1G187YBG0DVMQ","3LN3BXKGC0HZB1VNEMH4SWP73O3GW1","","1122.8000001907349","img/food5.png","76","1123.8000001907349","76","1",""
"","html-keyboard-response","167","90382","0.0-167.0","34X6J5FLPUK64QNW1L83M3VPBP3QJG","A1G187YBG0DVMQ","3LN3BXKGC0HZB1VNEMH4SWP73O3GW1","","null","<img src=""img/food5.png"" style=""width:200px; border:14px solid green;"">","null","","","",""
"","image-keyboard-response","168","91011","0.0-168.0","34X6J5FLPUK64QNW1L83M3VPBP3QJG","A1G187YBG0DVMQ","3LN3BXKGC0HZB1VNEMH4SWP73O3GW1","","627.4000000953674","img/food1.png","74","629","74","0",""
"","html-keyboard-response","169","91318","0.0-169.0","34X6J5FLPUK64QNW1L83M3VPBP3QJG","A1G187YBG0DVMQ","3LN3BXKGC0HZB1VNEMH4SWP73O3GW1","","null","<img src=""img/food1.png"" style=""width:200px;border:14px solid red;"">","null","","","",""
"","image-keyboard-response","170","91658","0.0-170.0","34X6J5FLPUK64QNW1L83M3VPBP3QJG","A1G187YBG0DVMQ","3LN3BXKGC0HZB1VNEMH4SWP73O3GW1","","338.19999980926514","img/food1.png","74","339.69999980926514","74","0",""
"","html-keyboard-response","171","91967","0.0-171.0","34X6J5FLPUK64QNW1L83M3VPBP3QJG","A1G187YBG0DVMQ","3LN3BXKGC0HZB1VNEMH4SWP73O3GW1","","null","<img src=""img/food1.png"" style=""width:200px;border:14px solid red;"">","null","","","",""
"","image-keyboard-response","172","92843","0.0-172.0","34X6J5FLPUK64QNW1L83M3VPBP3QJG","A1G187YBG0DVMQ","3LN3BXKGC0HZB1VNEMH4SWP73O3GW1","","874","img/food5.png","76","875.6999998092651","76","1",""
"","html-keyboard-response","173","93151","0.0-173.0","34X6J5FLPUK64QNW1L83M3VPBP3QJG","A1G187YBG0DVMQ","3LN3BXKGC0HZB1VNEMH4SWP73O3GW1","","null","<img src=""img/food5.png"" style=""width:200px; border:14px solid green;"">","null","","","",""
"","image-keyboard-response","174","93760","0.0-174.0","34X6J5FLPUK64QNW1L83M3VPBP3QJG","A1G187YBG0DVMQ","3LN3BXKGC0HZB1VNEMH4SWP73O3GW1","","607.5","img/food1.png","74","609.0999999046326","74","1",""
"","html-keyboard-response","175","94070","0.0-175.0","34X6J5FLPUK64QNW1L83M3VPBP3QJG","A1G187YBG0DVMQ","3LN3BXKGC0HZB1VNEMH4SWP73O3GW1","","null","<img src=""img/food1.png"" style=""width:200px; border:14px solid green;"">","null","","","",""
"","image-keyboard-response","176","94901","0.0-176.0","34X6J5FLPUK64QNW1L83M3VPBP3QJG","A1G187YBG0DVMQ","3LN3BXKGC0HZB1VNEMH4SWP73O3GW1","","828.9000000953674","img/food3.png","75","830.6999998092651","75","1",""
"","html-keyboard-response","177","95206","0.0-177.0","34X6J5FLPUK64QNW1L83M3VPBP3QJG","A1G187YBG0DVMQ","3LN3BXKGC0HZB1VNEMH4SWP73O3GW1","","null","<img src=""img/food3.png"" style=""width:200px; border:14px solid green;"">","null","","","",""
"","image-keyboard-response","178","95589","0.0-178.0","34X6J5FLPUK64QNW1L83M3VPBP3QJG","A1G187YBG0DVMQ","3LN3BXKGC0HZB1VNEMH4SWP73O3GW1","","380.69999980926514","img/food3.png","75","382.59999990463257","75","0",""
"","html-keyboard-response","179","95894","0.0-179.0","34X6J5FLPUK64QNW1L83M3VPBP3QJG","A1G187YBG0DVMQ","3LN3BXKGC0HZB1VNEMH4SWP73O3GW1","","null","<img src=""img/food3.png"" style=""width:200px;border:14px solid red;"">","null","","","",""
"","image-keyboard-response","180","96289","0.0-180.0","34X6J5FLPUK64QNW1L83M3VPBP3QJG","A1G187YBG0DVMQ","3LN3BXKGC0HZB1VNEMH4SWP73O3GW1","","392.59999990463257","img/food3.png","75","394.40000009536743","75","0",""
"","html-keyboard-response","181","96598","0.0-181.0","34X6J5FLPUK64QNW1L83M3VPBP3QJG","A1G187YBG0DVMQ","3LN3BXKGC0HZB1VNEMH4SWP73O3GW1","","null","<img src=""img/food3.png"" style=""width:200px;border:14px solid red;"">","null","","","",""
"","html-keyboard-response","182","112777","0.0-182.0","34X6J5FLPUK64QNW1L83M3VPBP3QJG","A1G187YBG0DVMQ","3LN3BXKGC0HZB1VNEMH4SWP73O3GW1","","","","","","","",""
"","image-keyboard-response","183","113961","0.0-183.0","34X6J5FLPUK64QNW1L83M3VPBP3QJG","A1G187YBG0DVMQ","3LN3BXKGC0HZB1VNEMH4SWP73O3GW1","","1182.4000000953674","img/food2.png","76","1184.4000000953674","76","0",""
"","html-keyboard-response","184","114271","0.0-184.0","34X6J5FLPUK64QNW1L83M3VPBP3QJG","A1G187YBG0DVMQ","3LN3BXKGC0HZB1VNEMH4SWP73O3GW1","","null","<img src=""img/food2.png"" style=""width:200px;border:14px solid red;"">","null","","","",""
"","image-keyboard-response","185","115169","0.0-185.0","34X6J5FLPUK64QNW1L83M3VPBP3QJG","A1G187YBG0DVMQ","3LN3BXKGC0HZB1VNEMH4SWP73O3GW1","","895.9000000953674","img/food4.png","74","897.9000000953674","74","1",""
"","html-keyboard-response","186","115478","0.0-186.0","34X6J5FLPUK64QNW1L83M3VPBP3QJG","A1G187YBG0DVMQ","3LN3BXKGC0HZB1VNEMH4SWP73O3GW1","","null","<img src=""img/food4.png"" style=""width:200px; border:14px solid green;"">","null","","","",""
"","image-keyboard-response","187","115987","0.0-187.0","34X6J5FLPUK64QNW1L83M3VPBP3QJG","A1G187YBG0DVMQ","3LN3BXKGC0HZB1VNEMH4SWP73O3GW1","","506.30000019073486","img/food4.png","74","508.19999980926514","74","1",""
"","html-keyboard-response","188","116294","0.0-188.0","34X6J5FLPUK64QNW1L83M3VPBP3QJG","A1G187YBG0DVMQ","3LN3BXKGC0HZB1VNEMH4SWP73O3GW1","","null","<img src=""img/food4.png"" style=""width:200px; border:14px solid green;"">","null","","","",""
"","image-keyboard-response","189","116766","0.0-189.0","34X6J5FLPUK64QNW1L83M3VPBP3QJG","A1G187YBG0DVMQ","3LN3BXKGC0HZB1VNEMH4SWP73O3GW1","","469.7999997138977","img/food4.png","74","471.6000003814697","74","1",""
"","html-keyboard-response","190","117070","0.0-190.0","34X6J5FLPUK64QNW1L83M3VPBP3QJG","A1G187YBG0DVMQ","3LN3BXKGC0HZB1VNEMH4SWP73O3GW1","","null","<img src=""img/food4.png"" style=""width:200px; border:14px solid green;"">","null","","","",""
"","image-keyboard-response","191","118266","0.0-191.0","34X6J5FLPUK64QNW1L83M3VPBP3QJG","A1G187YBG0DVMQ","3LN3BXKGC0HZB1VNEMH4SWP73O3GW1","","1193.6999998092651","img/food6.png","75","1195.5","75","1",""
"","html-keyboard-response","192","118574","0.0-192.0","34X6J5FLPUK64QNW1L83M3VPBP3QJG","A1G187YBG0DVMQ","3LN3BXKGC0HZB1VNEMH4SWP73O3GW1","","null","<img src=""img/food6.png"" style=""width:200px; border:14px solid green;"">","null","","","",""
"","image-keyboard-response","193","118939","0.0-193.0","34X6J5FLPUK64QNW1L83M3VPBP3QJG","A1G187YBG0DVMQ","3LN3BXKGC0HZB1VNEMH4SWP73O3GW1","","363.7999997138977","img/food6.png","75","365.5","75","1",""
"","html-keyboard-response","194","119246","0.0-194.0","34X6J5FLPUK64QNW1L83M3VPBP3QJG","A1G187YBG0DVMQ","3LN3BXKGC0HZB1VNEMH4SWP73O3GW1","","null","<img src=""img/food6.png"" style=""width:200px; border:14px solid green;"">","null","","","",""
"","image-keyboard-response","195","119597","0.0-195.0","34X6J5FLPUK64QNW1L83M3VPBP3QJG","A1G187YBG0DVMQ","3LN3BXKGC0HZB1VNEMH4SWP73O3GW1","","348.69999980926514","img/food6.png","75","350.2000002861023","75","1",""
"","html-keyboard-response","196","119902","0.0-196.0","34X6J5FLPUK64QNW1L83M3VPBP3QJG","A1G187YBG0DVMQ","3LN3BXKGC0HZB1VNEMH4SWP73O3GW1","","null","<img src=""img/food6.png"" style=""width:200px; border:14px solid green;"">","null","","","",""
"","image-keyboard-response","197","121441","0.0-197.0","34X6J5FLPUK64QNW1L83M3VPBP3QJG","A1G187YBG0DVMQ","3LN3BXKGC0HZB1VNEMH4SWP73O3GW1","","1536.5","img/food2.png","75","1538.3000001907349","75","0",""
"","html-keyboard-response","198","121750","0.0-198.0","34X6J5FLPUK64QNW1L83M3VPBP3QJG","A1G187YBG0DVMQ","3LN3BXKGC0HZB1VNEMH4SWP73O3GW1","","null","<img src=""img/food2.png"" style=""width:200px;border:14px solid red;"">","null","","","",""
"","image-keyboard-response","199","122309","0.0-199.0","34X6J5FLPUK64QNW1L83M3VPBP3QJG","A1G187YBG0DVMQ","3LN3BXKGC0HZB1VNEMH4SWP73O3GW1","","557.5","img/food2.png","76","559.3000001907349","76","0",""
"","html-keyboard-response","200","122614","0.0-200.0","34X6J5FLPUK64QNW1L83M3VPBP3QJG","A1G187YBG0DVMQ","3LN3BXKGC0HZB1VNEMH4SWP73O3GW1","","null","<img src=""img/food2.png"" style=""width:200px;border:14px solid red;"">","null","","","",""
"","image-keyboard-response","201","122928","0.0-201.0","34X6J5FLPUK64QNW1L83M3VPBP3QJG","A1G187YBG0DVMQ","3LN3BXKGC0HZB1VNEMH4SWP73O3GW1","","312.59999990463257","img/food2.png","76","314.6000003814697","76","0",""
"","html-keyboard-response","202","123238","0.0-202.0","34X6J5FLPUK64QNW1L83M3VPBP3QJG","A1G187YBG0DVMQ","3LN3BXKGC0HZB1VNEMH4SWP73O3GW1","","null","<img src=""img/food2.png"" style=""width:200px;border:14px solid red;"">","null","","","",""
"","image-keyboard-response","203","124033","0.0-203.0","34X6J5FLPUK64QNW1L83M3VPBP3QJG","A1G187YBG0DVMQ","3LN3BXKGC0HZB1VNEMH4SWP73O3GW1","","793.0999999046326","img/food4.png","74","795","74","1",""
"","html-keyboard-response","204","124341","0.0-204.0","34X6J5FLPUK64QNW1L83M3VPBP3QJG","A1G187YBG0DVMQ","3LN3BXKGC0HZB1VNEMH4SWP73O3GW1","","null","<img src=""img/food4.png"" style=""width:200px; border:14px solid green;"">","null","","","",""
"","image-keyboard-response","205","124694","0.0-205.0","34X6J5FLPUK64QNW1L83M3VPBP3QJG","A1G187YBG0DVMQ","3LN3BXKGC0HZB1VNEMH4SWP73O3GW1","","350.59999990463257","img/food4.png","74","352.5","74","1",""
"","html-keyboard-response","206","124998","0.0-206.0","34X6J5FLPUK64QNW1L83M3VPBP3QJG","A1G187YBG0DVMQ","3LN3BXKGC0HZB1VNEMH4SWP73O3GW1","","null","<img src=""img/food4.png"" style=""width:200px; border:14px solid green;"">","null","","","",""
"","image-keyboard-response","207","125592","0.0-207.0","34X6J5FLPUK64QNW1L83M3VPBP3QJG","A1G187YBG0DVMQ","3LN3BXKGC0HZB1VNEMH4SWP73O3GW1","","591.9000000953674","img/food2.png","75","593.8999996185303","75","1",""
"","html-keyboard-response","208","125902","0.0-208.0","34X6J5FLPUK64QNW1L83M3VPBP3QJG","A1G187YBG0DVMQ","3LN3BXKGC0HZB1VNEMH4SWP73O3GW1","","null","<img src=""img/food2.png"" style=""width:200px; border:14px solid green;"">","null","","","",""
"","image-keyboard-response","209","126738","0.0-209.0","34X6J5FLPUK64QNW1L83M3VPBP3QJG","A1G187YBG0DVMQ","3LN3BXKGC0HZB1VNEMH4SWP73O3GW1","","833.3000001907349","img/food6.png","75","835.3000001907349","75","0",""
"","html-keyboard-response","210","127046","0.0-210.0","34X6J5FLPUK64QNW1L83M3VPBP3QJG","A1G187YBG0DVMQ","3LN3BXKGC0HZB1VNEMH4SWP73O3GW1","","null","<img src=""img/food6.png"" style=""width:200px;border:14px solid red;"">","null","","","",""
"","image-keyboard-response","211","127765","0.0-211.0","34X6J5FLPUK64QNW1L83M3VPBP3QJG","A1G187YBG0DVMQ","3LN3BXKGC0HZB1VNEMH4SWP73O3GW1","","716.1999998092651","img/food4.png","74","718","74","1",""
"","html-keyboard-response","212","128069","0.0-212.0","34X6J5FLPUK64QNW1L83M3VPBP3QJG","A1G187YBG0DVMQ","3LN3BXKGC0HZB1VNEMH4SWP73O3GW1","","null","<img src=""img/food4.png"" style=""width:200px; border:14px solid green;"">","null","","","",""
"","image-keyboard-response","213","128704","0.0-213.0","34X6J5FLPUK64QNW1L83M3VPBP3QJG","A1G187YBG0DVMQ","3LN3BXKGC0HZB1VNEMH4SWP73O3GW1","","632.9000000953674","img/food2.png","75","634.5","75","0",""
"","html-keyboard-response","214","129014","0.0-214.0","34X6J5FLPUK64QNW1L83M3VPBP3QJG","A1G187YBG0DVMQ","3LN3BXKGC0HZB1VNEMH4SWP73O3GW1","","null","<img src=""img/food2.png"" style=""width:200px;border:14px solid red;"">","null","","","",""
"","image-keyboard-response","215","129665","0.0-215.0","34X6J5FLPUK64QNW1L83M3VPBP3QJG","A1G187YBG0DVMQ","3LN3BXKGC0HZB1VNEMH4SWP73O3GW1","","649.0999999046326","img/food6.png","75","650.8000001907349","75","0",""
"","html-keyboard-response","216","129974","0.0-216.0","34X6J5FLPUK64QNW1L83M3VPBP3QJG","A1G187YBG0DVMQ","3LN3BXKGC0HZB1VNEMH4SWP73O3GW1","","null","<img src=""img/food6.png"" style=""width:200px;border:14px solid red;"">","null","","","",""
"","image-keyboard-response","217","130495","0.0-217.0","34X6J5FLPUK64QNW1L83M3VPBP3QJG","A1G187YBG0DVMQ","3LN3BXKGC0HZB1VNEMH4SWP73O3GW1","","519","img/food2.png","75","520.9000000953674","75","0",""
"","html-keyboard-response","218","130805","0.0-218.0","34X6J5FLPUK64QNW1L83M3VPBP3QJG","A1G187YBG0DVMQ","3LN3BXKGC0HZB1VNEMH4SWP73O3GW1","","null","<img src=""img/food2.png"" style=""width:200px;border:14px solid red;"">","null","","","",""
"","image-keyboard-response","219","131378","0.0-219.0","34X6J5FLPUK64QNW1L83M3VPBP3QJG","A1G187YBG0DVMQ","3LN3BXKGC0HZB1VNEMH4SWP73O3GW1","","570.9000000953674","img/food4.png","74","572.6000003814697","74","1",""
"","html-keyboard-response","220","131686","0.0-220.0","34X6J5FLPUK64QNW1L83M3VPBP3QJG","A1G187YBG0DVMQ","3LN3BXKGC0HZB1VNEMH4SWP73O3GW1","","null","<img src=""img/food4.png"" style=""width:200px; border:14px solid green;"">","null","","","",""
"","image-keyboard-response","221","132490","0.0-221.0","34X6J5FLPUK64QNW1L83M3VPBP3QJG","A1G187YBG0DVMQ","3LN3BXKGC0HZB1VNEMH4SWP73O3GW1","","801.2999997138977","img/food6.png","76","803.1999998092651","76","0",""
"","html-keyboard-response","222","132798","0.0-222.0","34X6J5FLPUK64QNW1L83M3VPBP3QJG","A1G187YBG0DVMQ","3LN3BXKGC0HZB1VNEMH4SWP73O3GW1","","null","<img src=""img/food6.png"" style=""width:200px;border:14px solid red;"">","null","","","",""
"","image-keyboard-response","223","133288","0.0-223.0","34X6J5FLPUK64QNW1L83M3VPBP3QJG","A1G187YBG0DVMQ","3LN3BXKGC0HZB1VNEMH4SWP73O3GW1","","489","img/food6.png","76","490.3999996185303","76","0",""
"","html-keyboard-response","224","133598","0.0-224.0","34X6J5FLPUK64QNW1L83M3VPBP3QJG","A1G187YBG0DVMQ","3LN3BXKGC0HZB1VNEMH4SWP73O3GW1","","null","<img src=""img/food6.png"" style=""width:200px;border:14px solid red;"">","null","","","",""
"","image-keyboard-response","225","134172","0.0-225.0","34X6J5FLPUK64QNW1L83M3VPBP3QJG","A1G187YBG0DVMQ","3LN3BXKGC0HZB1VNEMH4SWP73O3GW1","","572.1999998092651","img/food4.png","75","574.1999998092651","75","0",""
"","html-keyboard-response","226","134477","0.0-226.0","34X6J5FLPUK64QNW1L83M3VPBP3QJG","A1G187YBG0DVMQ","3LN3BXKGC0HZB1VNEMH4SWP73O3GW1","","null","<img src=""img/food4.png"" style=""width:200px;border:14px solid red;"">","null","","","",""
"","image-keyboard-response","227","135171","0.0-227.0","34X6J5FLPUK64QNW1L83M3VPBP3QJG","A1G187YBG0DVMQ","3LN3BXKGC0HZB1VNEMH4SWP73O3GW1","","691.6999998092651","img/food2.png","75","693.5999999046326","75","0",""
"","html-keyboard-response","228","135478","0.0-228.0","34X6J5FLPUK64QNW1L83M3VPBP3QJG","A1G187YBG0DVMQ","3LN3BXKGC0HZB1VNEMH4SWP73O3GW1","","null","<img src=""img/food2.png"" style=""width:200px;border:14px solid red;"">","null","","","",""
"","image-keyboard-response","229","136170","0.0-229.0","34X6J5FLPUK64QNW1L83M3VPBP3QJG","A1G187YBG0DVMQ","3LN3BXKGC0HZB1VNEMH4SWP73O3GW1","","689.5999999046326","img/food6.png","75","691.5","75","1",""
"","html-keyboard-response","230","136477","0.0-230.0","34X6J5FLPUK64QNW1L83M3VPBP3QJG","A1G187YBG0DVMQ","3LN3BXKGC0HZB1VNEMH4SWP73O3GW1","","null","<img src=""img/food6.png"" style=""width:200px; border:14px solid green;"">","null","","","",""
"","image-keyboard-response","231","136999","0.0-231.0","34X6J5FLPUK64QNW1L83M3VPBP3QJG","A1G187YBG0DVMQ","3LN3BXKGC0HZB1VNEMH4SWP73O3GW1","","519.6999998092651","img/food4.png","74","521.5","74","1",""
"","html-keyboard-response","232","137310","0.0-232.0","34X6J5FLPUK64QNW1L83M3VPBP3QJG","A1G187YBG0DVMQ","3LN3BXKGC0HZB1VNEMH4SWP73O3GW1","","null","<img src=""img/food4.png"" style=""width:200px; border:14px solid green;"">","null","","","",""
"","image-keyboard-response","233","138048","0.0-233.0","34X6J5FLPUK64QNW1L83M3VPBP3QJG","A1G187YBG0DVMQ","3LN3BXKGC0HZB1VNEMH4SWP73O3GW1","","736.7999997138977","img/food2.png","76","737.7999997138977","76","0",""
"","html-keyboard-response","234","138357","0.0-234.0","34X6J5FLPUK64QNW1L83M3VPBP3QJG","A1G187YBG0DVMQ","3LN3BXKGC0HZB1VNEMH4SWP73O3GW1","","null","<img src=""img/food2.png"" style=""width:200px;border:14px solid red;"">","null","","","",""
"","image-keyboard-response","235","139023","0.0-235.0","34X6J5FLPUK64QNW1L83M3VPBP3QJG","A1G187YBG0DVMQ","3LN3BXKGC0HZB1VNEMH4SWP73O3GW1","","663.7999997138977","img/food4.png","74","665.5999999046326","74","0",""
"","html-keyboard-response","236","139334","0.0-236.0","34X6J5FLPUK64QNW1L83M3VPBP3QJG","A1G187YBG0DVMQ","3LN3BXKGC0HZB1VNEMH4SWP73O3GW1","","null","<img src=""img/food4.png"" style=""width:200px;border:14px solid red;"">","null","","","",""
"","image-keyboard-response","237","140145","0.0-237.0","34X6J5FLPUK64QNW1L83M3VPBP3QJG","A1G187YBG0DVMQ","3LN3BXKGC0HZB1VNEMH4SWP73O3GW1","","809.5","img/food6.png","75","811.3000001907349","75","1",""
"","html-keyboard-response","238","140453","0.0-238.0","34X6J5FLPUK64QNW1L83M3VPBP3QJG","A1G187YBG0DVMQ","3LN3BXKGC0HZB1VNEMH4SWP73O3GW1","","null","<img src=""img/food6.png"" style=""width:200px; border:14px solid green;"">","null","","","",""
"","image-keyboard-response","239","140854","0.0-239.0","34X6J5FLPUK64QNW1L83M3VPBP3QJG","A1G187YBG0DVMQ","3LN3BXKGC0HZB1VNEMH4SWP73O3GW1","","398.7999997138977","img/food6.png","75","400.69999980926514","75","1",""
"","html-keyboard-response","240","141157","0.0-240.0","34X6J5FLPUK64QNW1L83M3VPBP3QJG","A1G187YBG0DVMQ","3LN3BXKGC0HZB1VNEMH4SWP73O3GW1","","null","<img src=""img/food6.png"" style=""width:200px; border:14px solid green;"">","null","","","",""
"","image-keyboard-response","241","141690","0.0-241.0","34X6J5FLPUK64QNW1L83M3VPBP3QJG","A1G187YBG0DVMQ","3LN3BXKGC0HZB1VNEMH4SWP73O3GW1","","531","img/food4.png","74","532.8000001907349","74","0",""
"","html-keyboard-response","242","141998","0.0-242.0","34X6J5FLPUK64QNW1L83M3VPBP3QJG","A1G187YBG0DVMQ","3LN3BXKGC0HZB1VNEMH4SWP73O3GW1","","null","<img src=""img/food4.png"" style=""width:200px;border:14px solid red;"">","null","","","",""
"","image-keyboard-response","243","142485","0.0-243.0","34X6J5FLPUK64QNW1L83M3VPBP3QJG","A1G187YBG0DVMQ","3LN3BXKGC0HZB1VNEMH4SWP73O3GW1","","483.69999980926514","img/food6.png","75","487","75","1",""
"","html-keyboard-response","244","142789","0.0-244.0","34X6J5FLPUK64QNW1L83M3VPBP3QJG","A1G187YBG0DVMQ","3LN3BXKGC0HZB1VNEMH4SWP73O3GW1","","null","<img src=""img/food6.png"" style=""width:200px; border:14px solid green;"">","null","","","",""
"","image-keyboard-response","245","143569","0.0-245.0","34X6J5FLPUK64QNW1L83M3VPBP3QJG","A1G187YBG0DVMQ","3LN3BXKGC0HZB1VNEMH4SWP73O3GW1","","777.0999999046326","img/food2.png","76","779.1000003814697","76","0",""
"","html-keyboard-response","246","143878","0.0-246.0","34X6J5FLPUK64QNW1L83M3VPBP3QJG","A1G187YBG0DVMQ","3LN3BXKGC0HZB1VNEMH4SWP73O3GW1","","null","<img src=""img/food2.png"" style=""width:200px;border:14px solid red;"">","null","","","",""
"","image-keyboard-response","247","144500","0.0-247.0","34X6J5FLPUK64QNW1L83M3VPBP3QJG","A1G187YBG0DVMQ","3LN3BXKGC0HZB1VNEMH4SWP73O3GW1","","620","img/food2.png","75","621.8000001907349","75","0",""
"","html-keyboard-response","248","144805","0.0-248.0","34X6J5FLPUK64QNW1L83M3VPBP3QJG","A1G187YBG0DVMQ","3LN3BXKGC0HZB1VNEMH4SWP73O3GW1","","null","<img src=""img/food2.png"" style=""width:200px;border:14px solid red;"">","null","","","",""
"","image-keyboard-response","249","145328","0.0-249.0","34X6J5FLPUK64QNW1L83M3VPBP3QJG","A1G187YBG0DVMQ","3LN3BXKGC0HZB1VNEMH4SWP73O3GW1","","520.5","img/food4.png","74","522.2000002861023","74","1",""
"","html-keyboard-response","250","145638","0.0-250.0","34X6J5FLPUK64QNW1L83M3VPBP3QJG","A1G187YBG0DVMQ","3LN3BXKGC0HZB1VNEMH4SWP73O3GW1","","null","<img src=""img/food4.png"" style=""width:200px; border:14px solid green;"">","null","","","",""
"","image-keyboard-response","251","146281","0.0-251.0","34X6J5FLPUK64QNW1L83M3VPBP3QJG","A1G187YBG0DVMQ","3LN3BXKGC0HZB1VNEMH4SWP73O3GW1","","641.0999999046326","img/food6.png","75","642.6999998092651","75","0",""
"","html-keyboard-response","252","146589","0.0-252.0","34X6J5FLPUK64QNW1L83M3VPBP3QJG","A1G187YBG0DVMQ","3LN3BXKGC0HZB1VNEMH4SWP73O3GW1","","null","<img src=""img/food6.png"" style=""width:200px;border:14px solid red;"">","null","","","",""
"","image-keyboard-response","253","147172","0.0-253.0","34X6J5FLPUK64QNW1L83M3VPBP3QJG","A1G187YBG0DVMQ","3LN3BXKGC0HZB1VNEMH4SWP73O3GW1","","581.3000001907349","img/food4.png","74","583","74","1",""
"","html-keyboard-response","254","147477","0.0-254.0","34X6J5FLPUK64QNW1L83M3VPBP3QJG","A1G187YBG0DVMQ","3LN3BXKGC0HZB1VNEMH4SWP73O3GW1","","null","<img src=""img/food4.png"" style=""width:200px; border:14px solid green;"">","null","","","",""
"","image-keyboard-response","255","147956","0.0-255.0","34X6J5FLPUK64QNW1L83M3VPBP3QJG","A1G187YBG0DVMQ","3LN3BXKGC0HZB1VNEMH4SWP73O3GW1","","476.8999996185303","img/food6.png","75","478.59999990463257","75","1",""
"","html-keyboard-response","256","148262","0.0-256.0","34X6J5FLPUK64QNW1L83M3VPBP3QJG","A1G187YBG0DVMQ","3LN3BXKGC0HZB1VNEMH4SWP73O3GW1","","null","<img src=""img/food6.png"" style=""width:200px; border:14px solid green;"">","null","","","",""
"","image-keyboard-response","257","148627","0.0-257.0","34X6J5FLPUK64QNW1L83M3VPBP3QJG","A1G187YBG0DVMQ","3LN3BXKGC0HZB1VNEMH4SWP73O3GW1","","363.40000009536743","img/food6.png","75","365.19999980926514","75","1",""
"","html-keyboard-response","258","148933","0.0-258.0","34X6J5FLPUK64QNW1L83M3VPBP3QJG","A1G187YBG0DVMQ","3LN3BXKGC0HZB1VNEMH4SWP73O3GW1","","null","<img src=""img/food6.png"" style=""width:200px; border:14px solid green;"">","null","","","",""
"","image-keyboard-response","259","149958","0.0-259.0","34X6J5FLPUK64QNW1L83M3VPBP3QJG","A1G187YBG0DVMQ","3LN3BXKGC0HZB1VNEMH4SWP73O3GW1","","1022.7999997138977","img/food2.png","74","1024.7000002861023","74","0",""
"","html-keyboard-response","260","150270","0.0-260.0","34X6J5FLPUK64QNW1L83M3VPBP3QJG","A1G187YBG0DVMQ","3LN3BXKGC0HZB1VNEMH4SWP73O3GW1","","null","<img src=""img/food2.png"" style=""width:200px;border:14px solid red;"">","null","","","",""
"","image-keyboard-response","261","150788","0.0-261.0","34X6J5FLPUK64QNW1L83M3VPBP3QJG","A1G187YBG0DVMQ","3LN3BXKGC0HZB1VNEMH4SWP73O3GW1","","515.8000001907349","img/food6.png","75","517.5","75","1",""
"","html-keyboard-response","262","151094","0.0-262.0","34X6J5FLPUK64QNW1L83M3VPBP3QJG","A1G187YBG0DVMQ","3LN3BXKGC0HZB1VNEMH4SWP73O3GW1","","null","<img src=""img/food6.png"" style=""width:200px; border:14px solid green;"">","null","","","",""
"","image-keyboard-response","263","151544","0.0-263.0","34X6J5FLPUK64QNW1L83M3VPBP3QJG","A1G187YBG0DVMQ","3LN3BXKGC0HZB1VNEMH4SWP73O3GW1","","448.59999990463257","img/food6.png","75","450.09999990463257","75","0",""
"","html-keyboard-response","264","151854","0.0-264.0","34X6J5FLPUK64QNW1L83M3VPBP3QJG","A1G187YBG0DVMQ","3LN3BXKGC0HZB1VNEMH4SWP73O3GW1","","null","<img src=""img/food6.png"" style=""width:200px;border:14px solid red;"">","null","","","",""
"","image-keyboard-response","265","152823","0.0-265.0","34X6J5FLPUK64QNW1L83M3VPBP3QJG","A1G187YBG0DVMQ","3LN3BXKGC0HZB1VNEMH4SWP73O3GW1","","967.3000001907349","img/food2.png","76","969.0999999046326","76","0",""
"","html-keyboard-response","266","153133","0.0-266.0","34X6J5FLPUK64QNW1L83M3VPBP3QJG","A1G187YBG0DVMQ","3LN3BXKGC0HZB1VNEMH4SWP73O3GW1","","null","<img src=""img/food2.png"" style=""width:200px;border:14px solid red;"">","null","","","",""
"","image-keyboard-response","267","153681","0.0-267.0","34X6J5FLPUK64QNW1L83M3VPBP3QJG","A1G187YBG0DVMQ","3LN3BXKGC0HZB1VNEMH4SWP73O3GW1","","546.1999998092651","img/food4.png","74","548","74","1",""
"","html-keyboard-response","268","153990","0.0-268.0","34X6J5FLPUK64QNW1L83M3VPBP3QJG","A1G187YBG0DVMQ","3LN3BXKGC0HZB1VNEMH4SWP73O3GW1","","null","<img src=""img/food4.png"" style=""width:200px; border:14px solid green;"">","null","","","",""
"","image-keyboard-response","269","154846","0.0-269.0","34X6J5FLPUK64QNW1L83M3VPBP3QJG","A1G187YBG0DVMQ","3LN3BXKGC0HZB1VNEMH4SWP73O3GW1","","853.7000002861023","img/food6.png","75","855.5","75","1",""
"","html-keyboard-response","270","155149","0.0-270.0","34X6J5FLPUK64QNW1L83M3VPBP3QJG","A1G187YBG0DVMQ","3LN3BXKGC0HZB1VNEMH4SWP73O3GW1","","null","<img src=""img/food6.png"" style=""width:200px; border:14px solid green;"">","null","","","",""
"","image-keyboard-response","271","155988","0.0-271.0","34X6J5FLPUK64QNW1L83M3VPBP3QJG","A1G187YBG0DVMQ","3LN3BXKGC0HZB1VNEMH4SWP73O3GW1","","837.4000000953674","img/food2.png","75","838.8000001907349","75","0",""
"","html-keyboard-response","272","156293","0.0-272.0","34X6J5FLPUK64QNW1L83M3VPBP3QJG","A1G187YBG0DVMQ","3LN3BXKGC0HZB1VNEMH4SWP73O3GW1","","null","<img src=""img/food2.png"" style=""width:200px;border:14px solid red;"">","null","","","",""
"","image-keyboard-response","273","156850","0.0-273.0","34X6J5FLPUK64QNW1L83M3VPBP3QJG","A1G187YBG0DVMQ","3LN3BXKGC0HZB1VNEMH4SWP73O3GW1","","555","img/food6.png","75","556.6999998092651","75","1",""
"","html-keyboard-response","274","157157","0.0-274.0","34X6J5FLPUK64QNW1L83M3VPBP3QJG","A1G187YBG0DVMQ","3LN3BXKGC0HZB1VNEMH4SWP73O3GW1","","null","<img src=""img/food6.png"" style=""width:200px; border:14px solid green;"">","null","","","",""
"","image-keyboard-response","275","157882","0.0-275.0","34X6J5FLPUK64QNW1L83M3VPBP3QJG","A1G187YBG0DVMQ","3LN3BXKGC0HZB1VNEMH4SWP73O3GW1","","722.9000000953674","img/food2.png","76","724.6000003814697","76","0",""
"","html-keyboard-response","276","158189","0.0-276.0","34X6J5FLPUK64QNW1L83M3VPBP3QJG","A1G187YBG0DVMQ","3LN3BXKGC0HZB1VNEMH4SWP73O3GW1","","null","<img src=""img/food2.png"" style=""width:200px;border:14px solid red;"">","null","","","",""
"","image-keyboard-response","277","158798","0.0-277.0","34X6J5FLPUK64QNW1L83M3VPBP3QJG","A1G187YBG0DVMQ","3LN3BXKGC0HZB1VNEMH4SWP73O3GW1","","607.4000000953674","img/food6.png","75","609","75","0",""
"","html-keyboard-response","278","159109","0.0-278.0","34X6J5FLPUK64QNW1L83M3VPBP3QJG","A1G187YBG0DVMQ","3LN3BXKGC0HZB1VNEMH4SWP73O3GW1","","null","<img src=""img/food6.png"" style=""width:200px;border:14px solid red;"">","null","","","",""
"","image-keyboard-response","279","159499","0.0-279.0","34X6J5FLPUK64QNW1L83M3VPBP3QJG","A1G187YBG0DVMQ","3LN3BXKGC0HZB1VNEMH4SWP73O3GW1","","388.2000002861023","img/food6.png","75","390.1000003814697","75","1",""
"","html-keyboard-response","280","159805","0.0-280.0","34X6J5FLPUK64QNW1L83M3VPBP3QJG","A1G187YBG0DVMQ","3LN3BXKGC0HZB1VNEMH4SWP73O3GW1","","null","<img src=""img/food6.png"" style=""width:200px; border:14px solid green;"">","null","","","",""
"","image-keyboard-response","281","160329","0.0-281.0","34X6J5FLPUK64QNW1L83M3VPBP3QJG","A1G187YBG0DVMQ","3LN3BXKGC0HZB1VNEMH4SWP73O3GW1","","521.5999999046326","img/food4.png","74","523.5","74","1",""
"","html-keyboard-response","282","160638","0.0-282.0","34X6J5FLPUK64QNW1L83M3VPBP3QJG","A1G187YBG0DVMQ","3LN3BXKGC0HZB1VNEMH4SWP73O3GW1","","null","<img src=""img/food4.png"" style=""width:200px; border:14px solid green;"">","null","","","",""
"","image-keyboard-response","283","161121","0.0-283.0","34X6J5FLPUK64QNW1L83M3VPBP3QJG","A1G187YBG0DVMQ","3LN3BXKGC0HZB1VNEMH4SWP73O3GW1","","481.09999990463257","img/food6.png","75","482.69999980926514","75","1",""
"","html-keyboard-response","284","161429","0.0-284.0","34X6J5FLPUK64QNW1L83M3VPBP3QJG","A1G187YBG0DVMQ","3LN3BXKGC0HZB1VNEMH4SWP73O3GW1","","null","<img src=""img/food6.png"" style=""width:200px; border:14px solid green;"">","null","","","",""
"","image-keyboard-response","285","162038","0.0-285.0","34X6J5FLPUK64QNW1L83M3VPBP3QJG","A1G187YBG0DVMQ","3LN3BXKGC0HZB1VNEMH4SWP73O3GW1","","606.4000000953674","img/food2.png","76","608.1999998092651","76","0",""
"","html-keyboard-response","286","162341","0.0-286.0","34X6J5FLPUK64QNW1L83M3VPBP3QJG","A1G187YBG0DVMQ","3LN3BXKGC0HZB1VNEMH4SWP73O3GW1","","null","<img src=""img/food2.png"" style=""width:200px;border:14px solid red;"">","null","","","",""
"","image-keyboard-response","287","162908","0.0-287.0","34X6J5FLPUK64QNW1L83M3VPBP3QJG","A1G187YBG0DVMQ","3LN3BXKGC0HZB1VNEMH4SWP73O3GW1","","564.5","img/food2.png","75","566.3000001907349","75","0",""
"","html-keyboard-response","288","163213","0.0-288.0","34X6J5FLPUK64QNW1L83M3VPBP3QJG","A1G187YBG0DVMQ","3LN3BXKGC0HZB1VNEMH4SWP73O3GW1","","null","<img src=""img/food2.png"" style=""width:200px;border:14px solid red;"">","null","","","",""
"","image-keyboard-response","289","163722","0.0-289.0","34X6J5FLPUK64QNW1L83M3VPBP3QJG","A1G187YBG0DVMQ","3LN3BXKGC0HZB1VNEMH4SWP73O3GW1","","507.40000009536743","img/food4.png","74","509.2000002861023","74","1",""
"","html-keyboard-response","290","164029","0.0-290.0","34X6J5FLPUK64QNW1L83M3VPBP3QJG","A1G187YBG0DVMQ","3LN3BXKGC0HZB1VNEMH4SWP73O3GW1","","null","<img src=""img/food4.png"" style=""width:200px; border:14px solid green;"">","null","","","",""
"","image-keyboard-response","291","164452","0.0-291.0","34X6J5FLPUK64QNW1L83M3VPBP3QJG","A1G187YBG0DVMQ","3LN3BXKGC0HZB1VNEMH4SWP73O3GW1","","420.59999990463257","img/food4.png","74","422.5","74","1",""
"","html-keyboard-response","292","164757","0.0-292.0","34X6J5FLPUK64QNW1L83M3VPBP3QJG","A1G187YBG0DVMQ","3LN3BXKGC0HZB1VNEMH4SWP73O3GW1","","null","<img src=""img/food4.png"" style=""width:200px; border:14px solid green;"">","null","","","",""
"","image-keyboard-response","293","165511","0.0-293.0","34X6J5FLPUK64QNW1L83M3VPBP3QJG","A1G187YBG0DVMQ","3LN3BXKGC0HZB1VNEMH4SWP73O3GW1","","752.1999998092651","img/food2.png","74","753.9000000953674","74","0",""
"","html-keyboard-response","294","165821","0.0-294.0","34X6J5FLPUK64QNW1L83M3VPBP3QJG","A1G187YBG0DVMQ","3LN3BXKGC0HZB1VNEMH4SWP73O3GW1","","null","<img src=""img/food2.png"" style=""width:200px;border:14px solid red;"">","null","","","",""
"","image-keyboard-response","295","166502","0.0-295.0","34X6J5FLPUK64QNW1L83M3VPBP3QJG","A1G187YBG0DVMQ","3LN3BXKGC0HZB1VNEMH4SWP73O3GW1","","678.9000000953674","img/food4.png","74","680.3999996185303","74","0",""
"","html-keyboard-response","296","166804","0.0-296.0","34X6J5FLPUK64QNW1L83M3VPBP3QJG","A1G187YBG0DVMQ","3LN3BXKGC0HZB1VNEMH4SWP73O3GW1","","null","<img src=""img/food4.png"" style=""width:200px;border:14px solid red;"">","null","","","",""
"","image-keyboard-response","297","167324","0.0-297.0","34X6J5FLPUK64QNW1L83M3VPBP3QJG","A1G187YBG0DVMQ","3LN3BXKGC0HZB1VNEMH4SWP73O3GW1","","518.2999997138977","img/food4.png","74","519.7999997138977","74","1",""
"","html-keyboard-response","298","167629","0.0-298.0","34X6J5FLPUK64QNW1L83M3VPBP3QJG","A1G187YBG0DVMQ","3LN3BXKGC0HZB1VNEMH4SWP73O3GW1","","null","<img src=""img/food4.png"" style=""width:200px; border:14px solid green;"">","null","","","",""
"","image-keyboard-response","299","168328","0.0-299.0","34X6J5FLPUK64QNW1L83M3VPBP3QJG","A1G187YBG0DVMQ","3LN3BXKGC0HZB1VNEMH4SWP73O3GW1","","697.5999999046326","img/food2.png","75","699.0999999046326","75","1",""
"","html-keyboard-response","300","168637","0.0-300.0","34X6J5FLPUK64QNW1L83M3VPBP3QJG","A1G187YBG0DVMQ","3LN3BXKGC0HZB1VNEMH4SWP73O3GW1","","null","<img src=""img/food2.png"" style=""width:200px; border:14px solid green;"">","null","","","",""
"","image-keyboard-response","301","169029","0.0-301.0","34X6J5FLPUK64QNW1L83M3VPBP3QJG","A1G187YBG0DVMQ","3LN3BXKGC0HZB1VNEMH4SWP73O3GW1","","389.8999996185303","img/food2.png","75","391.3999996185303","75","1",""
"","html-keyboard-response","302","169333","0.0-302.0","34X6J5FLPUK64QNW1L83M3VPBP3QJG","A1G187YBG0DVMQ","3LN3BXKGC0HZB1VNEMH4SWP73O3GW1","","null","<img src=""img/food2.png"" style=""width:200px; border:14px solid green;"">","null","","","",""
"","image-keyboard-response","303","169662","0.0-303.0","34X6J5FLPUK64QNW1L83M3VPBP3QJG","A1G187YBG0DVMQ","3LN3BXKGC0HZB1VNEMH4SWP73O3GW1","","327.30000019073486","img/food2.png","75","329","75","1",""
"","html-keyboard-response","304","169965","0.0-304.0","34X6J5FLPUK64QNW1L83M3VPBP3QJG","A1G187YBG0DVMQ","3LN3BXKGC0HZB1VNEMH4SWP73O3GW1","","null","<img src=""img/food2.png"" style=""width:200px; border:14px solid green;"">","null","","","",""
"","image-keyboard-response","305","170356","0.0-305.0","34X6J5FLPUK64QNW1L83M3VPBP3QJG","A1G187YBG0DVMQ","3LN3BXKGC0HZB1VNEMH4SWP73O3GW1","","388.40000009536743","img/food2.png","75","390.3999996185303","75","0",""
"","html-keyboard-response","306","170661","0.0-306.0","34X6J5FLPUK64QNW1L83M3VPBP3QJG","A1G187YBG0DVMQ","3LN3BXKGC0HZB1VNEMH4SWP73O3GW1","","null","<img src=""img/food2.png"" style=""width:200px;border:14px solid red;"">","null","","","",""
"","image-keyboard-response","307","171272","0.0-307.0","34X6J5FLPUK64QNW1L83M3VPBP3QJG","A1G187YBG0DVMQ","3LN3BXKGC0HZB1VNEMH4SWP73O3GW1","","609.4000000953674","img/food4.png","74","611.3000001907349","74","1",""
"","html-keyboard-response","308","171581","0.0-308.0","34X6J5FLPUK64QNW1L83M3VPBP3QJG","A1G187YBG0DVMQ","3LN3BXKGC0HZB1VNEMH4SWP73O3GW1","","null","<img src=""img/food4.png"" style=""width:200px; border:14px solid green;"">","null","","","",""
"","image-keyboard-response","309","172072","0.0-309.0","34X6J5FLPUK64QNW1L83M3VPBP3QJG","A1G187YBG0DVMQ","3LN3BXKGC0HZB1VNEMH4SWP73O3GW1","","488.40000009536743","img/food2.png","75","490.2000002861023","75","0",""
"","html-keyboard-response","310","172381","0.0-310.0","34X6J5FLPUK64QNW1L83M3VPBP3QJG","A1G187YBG0DVMQ","3LN3BXKGC0HZB1VNEMH4SWP73O3GW1","","null","<img src=""img/food2.png"" style=""width:200px;border:14px solid red;"">","null","","","",""
"","image-keyboard-response","311","172957","0.0-311.0","34X6J5FLPUK64QNW1L83M3VPBP3QJG","A1G187YBG0DVMQ","3LN3BXKGC0HZB1VNEMH4SWP73O3GW1","","573.5","img/food6.png","75","575.4000000953674","75","1",""
"","html-keyboard-response","312","173261","0.0-312.0","34X6J5FLPUK64QNW1L83M3VPBP3QJG","A1G187YBG0DVMQ","3LN3BXKGC0HZB1VNEMH4SWP73O3GW1","","null","<img src=""img/food6.png"" style=""width:200px; border:14px solid green;"">","null","","","",""
"","image-keyboard-response","313","173643","0.0-313.0","34X6J5FLPUK64QNW1L83M3VPBP3QJG","A1G187YBG0DVMQ","3LN3BXKGC0HZB1VNEMH4SWP73O3GW1","","379.09999990463257","img/food6.png","75","381","75","1",""
"","html-keyboard-response","314","173949","0.0-314.0","34X6J5FLPUK64QNW1L83M3VPBP3QJG","A1G187YBG0DVMQ","3LN3BXKGC0HZB1VNEMH4SWP73O3GW1","","null","<img src=""img/food6.png"" style=""width:200px; border:14px solid green;"">","null","","","",""
"","image-keyboard-response","315","174316","0.0-315.0","34X6J5FLPUK64QNW1L83M3VPBP3QJG","A1G187YBG0DVMQ","3LN3BXKGC0HZB1VNEMH4SWP73O3GW1","","365.2999997138977","img/food6.png","75","366.90000009536743","75","1",""
"","html-keyboard-response","316","174621","0.0-316.0","34X6J5FLPUK64QNW1L83M3VPBP3QJG","A1G187YBG0DVMQ","3LN3BXKGC0HZB1VNEMH4SWP73O3GW1","","null","<img src=""img/food6.png"" style=""width:200px; border:14px solid green;"">","null","","","",""
"","image-keyboard-response","317","175129","0.0-317.0","34X6J5FLPUK64QNW1L83M3VPBP3QJG","A1G187YBG0DVMQ","3LN3BXKGC0HZB1VNEMH4SWP73O3GW1","","505.19999980926514","img/food2.png","75","506.7999997138977","75","0",""
"","html-keyboard-response","318","175437","0.0-318.0","34X6J5FLPUK64QNW1L83M3VPBP3QJG","A1G187YBG0DVMQ","3LN3BXKGC0HZB1VNEMH4SWP73O3GW1","","null","<img src=""img/food2.png"" style=""width:200px;border:14px solid red;"">","null","","","",""
"","image-keyboard-response","319","175915","0.0-319.0","34X6J5FLPUK64QNW1L83M3VPBP3QJG","A1G187YBG0DVMQ","3LN3BXKGC0HZB1VNEMH4SWP73O3GW1","","475.5","img/food6.png","75","477.2000002861023","75","1",""
"","html-keyboard-response","320","176221","0.0-320.0","34X6J5FLPUK64QNW1L83M3VPBP3QJG","A1G187YBG0DVMQ","3LN3BXKGC0HZB1VNEMH4SWP73O3GW1","","null","<img src=""img/food6.png"" style=""width:200px; border:14px solid green;"">","null","","","",""
"","image-keyboard-response","321","176617","0.0-321.0","34X6J5FLPUK64QNW1L83M3VPBP3QJG","A1G187YBG0DVMQ","3LN3BXKGC0HZB1VNEMH4SWP73O3GW1","","393.19999980926514","img/food6.png","75","394.8999996185303","75","1",""
"","html-keyboard-response","322","176925","0.0-322.0","34X6J5FLPUK64QNW1L83M3VPBP3QJG","A1G187YBG0DVMQ","3LN3BXKGC0HZB1VNEMH4SWP73O3GW1","","null","<img src=""img/food6.png"" style=""width:200px; border:14px solid green;"">","null","","","",""
"","image-keyboard-response","323","177296","0.0-323.0","34X6J5FLPUK64QNW1L83M3VPBP3QJG","A1G187YBG0DVMQ","3LN3BXKGC0HZB1VNEMH4SWP73O3GW1","","369.09999990463257","img/food4.png","74","370.6000003814697","74","1",""
"","html-keyboard-response","324","177605","0.0-324.0","34X6J5FLPUK64QNW1L83M3VPBP3QJG","A1G187YBG0DVMQ","3LN3BXKGC0HZB1VNEMH4SWP73O3GW1","","null","<img src=""img/food4.png"" style=""width:200px; border:14px solid green;"">","null","","","",""
"","image-keyboard-response","325","178320","0.0-325.0","34X6J5FLPUK64QNW1L83M3VPBP3QJG","A1G187YBG0DVMQ","3LN3BXKGC0HZB1VNEMH4SWP73O3GW1","","712.9000000953674","img/food6.png","75","714.9000000953674","75","0",""
"","html-keyboard-response","326","178629","0.0-326.0","34X6J5FLPUK64QNW1L83M3VPBP3QJG","A1G187YBG0DVMQ","3LN3BXKGC0HZB1VNEMH4SWP73O3GW1","","null","<img src=""img/food6.png"" style=""width:200px;border:14px solid red;"">","null","","","",""
"","image-keyboard-response","327","178914","0.0-327.0","34X6J5FLPUK64QNW1L83M3VPBP3QJG","A1G187YBG0DVMQ","3LN3BXKGC0HZB1VNEMH4SWP73O3GW1","","283.59999990463257","img/food4.png","75","285.40000009536743","75","0",""
"","html-keyboard-response","328","179221","0.0-328.0","34X6J5FLPUK64QNW1L83M3VPBP3QJG","A1G187YBG0DVMQ","3LN3BXKGC0HZB1VNEMH4SWP73O3GW1","","null","<img src=""img/food4.png"" style=""width:200px;border:14px solid red;"">","null","","","",""
"","image-keyboard-response","329","179788","0.0-329.0","34X6J5FLPUK64QNW1L83M3VPBP3QJG","A1G187YBG0DVMQ","3LN3BXKGC0HZB1VNEMH4SWP73O3GW1","","563.8999996185303","img/food4.png","74","565.9000000953674","74","1",""
"","html-keyboard-response","330","180093","0.0-330.0","34X6J5FLPUK64QNW1L83M3VPBP3QJG","A1G187YBG0DVMQ","3LN3BXKGC0HZB1VNEMH4SWP73O3GW1","","null","<img src=""img/food4.png"" style=""width:200px; border:14px solid green;"">","null","","","",""
"","image-keyboard-response","331","180544","0.0-331.0","34X6J5FLPUK64QNW1L83M3VPBP3QJG","A1G187YBG0DVMQ","3LN3BXKGC0HZB1VNEMH4SWP73O3GW1","","448.40000009536743","img/food4.png","74","450.30000019073486","74","1",""
"","html-keyboard-response","332","180853","0.0-332.0","34X6J5FLPUK64QNW1L83M3VPBP3QJG","A1G187YBG0DVMQ","3LN3BXKGC0HZB1VNEMH4SWP73O3GW1","","null","<img src=""img/food4.png"" style=""width:200px; border:14px solid green;"">","null","","","",""
"","image-keyboard-response","333","181303","0.0-333.0","34X6J5FLPUK64QNW1L83M3VPBP3QJG","A1G187YBG0DVMQ","3LN3BXKGC0HZB1VNEMH4SWP73O3GW1","","447.19999980926514","img/food2.png","75","448.7999997138977","75","0",""
"","html-keyboard-response","334","181612","0.0-334.0","34X6J5FLPUK64QNW1L83M3VPBP3QJG","A1G187YBG0DVMQ","3LN3BXKGC0HZB1VNEMH4SWP73O3GW1","","null","<img src=""img/food2.png"" style=""width:200px;border:14px solid red;"">","null","","","",""
"","image-keyboard-response","335","181959","0.0-335.0","34X6J5FLPUK64QNW1L83M3VPBP3QJG","A1G187YBG0DVMQ","3LN3BXKGC0HZB1VNEMH4SWP73O3GW1","","343.7999997138977","img/food4.png","74","345.80000019073486","74","1",""
"","html-keyboard-response","336","182268","0.0-336.0","34X6J5FLPUK64QNW1L83M3VPBP3QJG","A1G187YBG0DVMQ","3LN3BXKGC0HZB1VNEMH4SWP73O3GW1","","null","<img src=""img/food4.png"" style=""width:200px; border:14px solid green;"">","null","","","",""
"","image-keyboard-response","337","182677","0.0-337.0","34X6J5FLPUK64QNW1L83M3VPBP3QJG","A1G187YBG0DVMQ","3LN3BXKGC0HZB1VNEMH4SWP73O3GW1","","406.69999980926514","img/food2.png","75","408.69999980926514","75","1",""
"","html-keyboard-response","338","182989","0.0-338.0","34X6J5FLPUK64QNW1L83M3VPBP3QJG","A1G187YBG0DVMQ","3LN3BXKGC0HZB1VNEMH4SWP73O3GW1","","null","<img src=""img/food2.png"" style=""width:200px; border:14px solid green;"">","null","","","",""
"","image-keyboard-response","339","183360","0.0-339.0","34X6J5FLPUK64QNW1L83M3VPBP3QJG","A1G187YBG0DVMQ","3LN3BXKGC0HZB1VNEMH4SWP73O3GW1","","368.59999990463257","img/food2.png","75","369.8999996185303","75","1",""
"","html-keyboard-response","340","183669","0.0-340.0","34X6J5FLPUK64QNW1L83M3VPBP3QJG","A1G187YBG0DVMQ","3LN3BXKGC0HZB1VNEMH4SWP73O3GW1","","null","<img src=""img/food2.png"" style=""width:200px; border:14px solid green;"">","null","","","",""
"","image-keyboard-response","341","184090","0.0-341.0","34X6J5FLPUK64QNW1L83M3VPBP3QJG","A1G187YBG0DVMQ","3LN3BXKGC0HZB1VNEMH4SWP73O3GW1","","419.09999990463257","img/food6.png","74","420.69999980926514","74","0",""
"","html-keyboard-response","342","184397","0.0-342.0","34X6J5FLPUK64QNW1L83M3VPBP3QJG","A1G187YBG0DVMQ","3LN3BXKGC0HZB1VNEMH4SWP73O3GW1","","null","<img src=""img/food6.png"" style=""width:200px;border:14px solid red;"">","null","","","",""
"","image-keyboard-response","343","184987","0.0-343.0","34X6J5FLPUK64QNW1L83M3VPBP3QJG","A1G187YBG0DVMQ","3LN3BXKGC0HZB1VNEMH4SWP73O3GW1","","587.7999997138977","img/food4.png","74","589.5","74","1",""
"","html-keyboard-response","344","185292","0.0-344.0","34X6J5FLPUK64QNW1L83M3VPBP3QJG","A1G187YBG0DVMQ","3LN3BXKGC0HZB1VNEMH4SWP73O3GW1","","null","<img src=""img/food4.png"" style=""width:200px; border:14px solid green;"">","null","","","",""
"","image-keyboard-response","345","185778","0.0-345.0","34X6J5FLPUK64QNW1L83M3VPBP3QJG","A1G187YBG0DVMQ","3LN3BXKGC0HZB1VNEMH4SWP73O3GW1","","483.69999980926514","img/food4.png","74","485.2000002861023","74","1",""
"","html-keyboard-response","346","186084","0.0-346.0","34X6J5FLPUK64QNW1L83M3VPBP3QJG","A1G187YBG0DVMQ","3LN3BXKGC0HZB1VNEMH4SWP73O3GW1","","null","<img src=""img/food4.png"" style=""width:200px; border:14px solid green;"">","null","","","",""
"","image-keyboard-response","347","186568","0.0-347.0","34X6J5FLPUK64QNW1L83M3VPBP3QJG","A1G187YBG0DVMQ","3LN3BXKGC0HZB1VNEMH4SWP73O3GW1","","481.19999980926514","img/food4.png","74","483.09999990463257","74","1",""
"","html-keyboard-response","348","186877","0.0-348.0","34X6J5FLPUK64QNW1L83M3VPBP3QJG","A1G187YBG0DVMQ","3LN3BXKGC0HZB1VNEMH4SWP73O3GW1","","null","<img src=""img/food4.png"" style=""width:200px; border:14px solid green;"">","null","","","",""
"","image-keyboard-response","349","187332","0.0-349.0","34X6J5FLPUK64QNW1L83M3VPBP3QJG","A1G187YBG0DVMQ","3LN3BXKGC0HZB1VNEMH4SWP73O3GW1","","453.40000009536743","img/food4.png","74","454.7999997138977","74","1",""
"","html-keyboard-response","350","187636","0.0-350.0","34X6J5FLPUK64QNW1L83M3VPBP3QJG","A1G187YBG0DVMQ","3LN3BXKGC0HZB1VNEMH4SWP73O3GW1","","null","<img src=""img/food4.png"" style=""width:200px; border:14px solid green;"">","null","","","",""
"","image-keyboard-response","351","188337","0.0-351.0","34X6J5FLPUK64QNW1L83M3VPBP3QJG","A1G187YBG0DVMQ","3LN3BXKGC0HZB1VNEMH4SWP73O3GW1","","698.5","img/food2.png","75","700.3000001907349","75","0",""
"","html-keyboard-response","352","188644","0.0-352.0","34X6J5FLPUK64QNW1L83M3VPBP3QJG","A1G187YBG0DVMQ","3LN3BXKGC0HZB1VNEMH4SWP73O3GW1","","null","<img src=""img/food2.png"" style=""width:200px;border:14px solid red;"">","null","","","",""
"","image-keyboard-response","353","189058","0.0-353.0","34X6J5FLPUK64QNW1L83M3VPBP3QJG","A1G187YBG0DVMQ","3LN3BXKGC0HZB1VNEMH4SWP73O3GW1","","410.80000019073486","img/food2.png","75","412.7000002861023","75","1",""
"","html-keyboard-response","354","189364","0.0-354.0","34X6J5FLPUK64QNW1L83M3VPBP3QJG","A1G187YBG0DVMQ","3LN3BXKGC0HZB1VNEMH4SWP73O3GW1","","null","<img src=""img/food2.png"" style=""width:200px; border:14px solid green;"">","null","","","",""
"","image-keyboard-response","355","189736","0.0-355.0","34X6J5FLPUK64QNW1L83M3VPBP3QJG","A1G187YBG0DVMQ","3LN3BXKGC0HZB1VNEMH4SWP73O3GW1","","369.09999990463257","img/food2.png","75","370.7999997138977","75","0",""
"","html-keyboard-response","356","190045","0.0-356.0","34X6J5FLPUK64QNW1L83M3VPBP3QJG","A1G187YBG0DVMQ","3LN3BXKGC0HZB1VNEMH4SWP73O3GW1","","null","<img src=""img/food2.png"" style=""width:200px;border:14px solid red;"">","null","","","",""
"","image-keyboard-response","357","190690","0.0-357.0","34X6J5FLPUK64QNW1L83M3VPBP3QJG","A1G187YBG0DVMQ","3LN3BXKGC0HZB1VNEMH4SWP73O3GW1","","643.5","img/food6.png","75","645","75","1",""
"","html-keyboard-response","358","190997","0.0-358.0","34X6J5FLPUK64QNW1L83M3VPBP3QJG","A1G187YBG0DVMQ","3LN3BXKGC0HZB1VNEMH4SWP73O3GW1","","null","<img src=""img/food6.png"" style=""width:200px; border:14px solid green;"">","null","","","",""
"","image-keyboard-response","359","191370","0.0-359.0","34X6J5FLPUK64QNW1L83M3VPBP3QJG","A1G187YBG0DVMQ","3LN3BXKGC0HZB1VNEMH4SWP73O3GW1","","370.09999990463257","img/food6.png","75","371.90000009536743","75","1",""
"","html-keyboard-response","360","191677","0.0-360.0","34X6J5FLPUK64QNW1L83M3VPBP3QJG","A1G187YBG0DVMQ","3LN3BXKGC0HZB1VNEMH4SWP73O3GW1","","null","<img src=""img/food6.png"" style=""width:200px; border:14px solid green;"">","null","","","",""
"","image-keyboard-response","361","192314","0.0-361.0","34X6J5FLPUK64QNW1L83M3VPBP3QJG","A1G187YBG0DVMQ","3LN3BXKGC0HZB1VNEMH4SWP73O3GW1","","635.5999999046326","img/food4.png","74","637.5","74","1",""
"","html-keyboard-response","362","192620","0.0-362.0","34X6J5FLPUK64QNW1L83M3VPBP3QJG","A1G187YBG0DVMQ","3LN3BXKGC0HZB1VNEMH4SWP73O3GW1","","null","<img src=""img/food4.png"" style=""width:200px; border:14px solid green;"">","null","","","",""
"","instructions","363","194593","0.0-363.0","34X6J5FLPUK64QNW1L83M3VPBP3QJG","A1G187YBG0DVMQ","3LN3BXKGC0HZB1VNEMH4SWP73O3GW1","[{""page_index"":0,""viewing_time"":1970.7999997138977}]","1971.2999997138977","","","","","",""
"","survey-text","364","197960","0.0-364.0","34X6J5FLPUK64QNW1L83M3VPBP3QJG","A1G187YBG0DVMQ","3LN3BXKGC0HZB1VNEMH4SWP73O3GW1","","3362.300000190735","","","","","","{""Q0"":""A1G187YBG0DVMQ""}"
