"success","trial_type","trial_index","time_elapsed","internal_node_id","assignmentID","mturkID","hitID","view_history","rt","stimulus","key_press","reactionTime","a","r","warning","s","cond","reward_cond","reward_cond_actual","reward_matrix_idx","responses"
"true","fullscreen","0","4974","0.0-0.0","39LOEL67OTRPD8LBC6ZGK5T0P3O381","A1H5TB600ATGFS","3MXX6RQ9EVRTFC527Z18RDK8KW6P4R","","","","","","","","","","","","","",""
"","instructions","1","21949","0.0-1.0","39LOEL67OTRPD8LBC6ZGK5T0P3O381","A1H5TB600ATGFS","3MXX6RQ9EVRTFC527Z18RDK8KW6P4R","[{""page_index"":0,""viewing_time"":1762.2000000476837},{""page_index"":1,""viewing_time"":3220.399999976158},{""page_index"":2,""viewing_time"":1882.1000000238419},{""page_index"":3,""viewing_time"":4165.299999952316},{""page_index"":4,""viewing_time"":1818.1000000238419},{""page_index"":5,""viewing_time"":2267.7999999523163},{""page_index"":6,""viewing_time"":1858.1000000238419}]","16974.299999952316","","","","","","","","","","","",""
"","instructions","2","28277","0.0-2.0","39LOEL67OTRPD8LBC6ZGK5T0P3O381","A1H5TB600ATGFS","3MXX6RQ9EVRTFC527Z18RDK8KW6P4R","[{""page_index"":0,""viewing_time"":3826.7999999523163},{""page_index"":1,""viewing_time"":2499.7000000476837}]","6326.700000047684","","","","","","","","","","","",""
"","image-keyboard-response","3","28689","0.0-3.0","39LOEL67OTRPD8LBC6ZGK5T0P3O381","A1H5TB600ATGFS","3MXX6RQ9EVRTFC527Z18RDK8KW6P4R","","410.5","img/food2.png","74","411.7999999523163","1","0","false","3","2","1,0.5,0,1,0.5,0,0.5,0,1","1,0.5,0,1,0.5,0,0.5,0,1","1",""
"","html-keyboard-response","4","28998","0.0-4.0","39LOEL67OTRPD8LBC6ZGK5T0P3O381","A1H5TB600ATGFS","3MXX6RQ9EVRTFC527Z18RDK8KW6P4R","","null","<img src=""img/food2.png"" style=""width:200px;border:14px solid red;"">","null","","","","","","","","","",""
"","image-keyboard-response","5","29320","0.0-6.0","39LOEL67OTRPD8LBC6ZGK5T0P3O381","A1H5TB600ATGFS","3MXX6RQ9EVRTFC527Z18RDK8KW6P4R","","320.89999997615814","img/food3.png","75","321.89999997615814","2","1","false","1","2","1,0.5,0,1,0.5,0,0.5,0,1","1,0.5,0,1,0.5,0,0.5,0,1","1",""
"","html-keyboard-response","6","29626","0.0-7.0","39LOEL67OTRPD8LBC6ZGK5T0P3O381","A1H5TB600ATGFS","3MXX6RQ9EVRTFC527Z18RDK8KW6P4R","","null","<img src=""img/food3.png"" style=""width:200px; border:14px solid green;"">","null","","","","","","","","","",""
"","image-keyboard-response","7","30038","0.0-9.0","39LOEL67OTRPD8LBC6ZGK5T0P3O381","A1H5TB600ATGFS","3MXX6RQ9EVRTFC527Z18RDK8KW6P4R","","411","img/food3.png","75","411.7999999523163","2","0","false","1","2","1,0.5,0,1,0.5,0,0.5,0,1","1,0.5,0,1,0.5,0,0.5,0,1","1",""
"","html-keyboard-response","8","30348","0.0-10.0","39LOEL67OTRPD8LBC6ZGK5T0P3O381","A1H5TB600ATGFS","3MXX6RQ9EVRTFC527Z18RDK8KW6P4R","","null","<img src=""img/food3.png"" style=""width:200px;border:14px solid red;"">","null","","","","","","","","","",""
"","image-keyboard-response","9","30776","0.0-12.0","39LOEL67OTRPD8LBC6ZGK5T0P3O381","A1H5TB600ATGFS","3MXX6RQ9EVRTFC527Z18RDK8KW6P4R","","425.8000000715256","img/food2.png","76","427.2000000476837","3","1","false","3","2","1,0.5,0,1,0.5,0,0.5,0,1","1,0.5,0,1,0.5,0,0.5,0,1","1",""
"","html-keyboard-response","10","31082","0.0-13.0","39LOEL67OTRPD8LBC6ZGK5T0P3O381","A1H5TB600ATGFS","3MXX6RQ9EVRTFC527Z18RDK8KW6P4R","","null","<img src=""img/food2.png"" style=""width:200px; border:14px solid green;"">","null","","","","","","","","","",""
"","image-keyboard-response","11","31716","0.0-15.0","39LOEL67OTRPD8LBC6ZGK5T0P3O381","A1H5TB600ATGFS","3MXX6RQ9EVRTFC527Z18RDK8KW6P4R","","632.6000000238419","img/food2.png","76","633.3999999761581","3","1","false","3","2","1,0.5,0,1,0.5,0,0.5,0,1","1,0.5,0,1,0.5,0,0.5,0,1","1",""
"","html-keyboard-response","12","32029","0.0-16.0","39LOEL67OTRPD8LBC6ZGK5T0P3O381","A1H5TB600ATGFS","3MXX6RQ9EVRTFC527Z18RDK8KW6P4R","","null","<img src=""img/food2.png"" style=""width:200px; border:14px solid green;"">","null","","","","","","","","","",""
"","image-keyboard-response","13","32649","0.0-18.0","39LOEL67OTRPD8LBC6ZGK5T0P3O381","A1H5TB600ATGFS","3MXX6RQ9EVRTFC527Z18RDK8KW6P4R","","618.9000000953674","img/food4.png","74","619.8999999761581","1","1","false","2","2","1,0.5,0,1,0.5,0,0.5,0,1","1,0.5,0,1,0.5,0,0.5,0,1","1",""
"","html-keyboard-response","14","32954","0.0-19.0","39LOEL67OTRPD8LBC6ZGK5T0P3O381","A1H5TB600ATGFS","3MXX6RQ9EVRTFC527Z18RDK8KW6P4R","","null","<img src=""img/food4.png"" style=""width:200px; border:14px solid green;"">","null","","","","","","","","","",""
"","image-keyboard-response","15","33406","0.0-21.0","39LOEL67OTRPD8LBC6ZGK5T0P3O381","A1H5TB600ATGFS","3MXX6RQ9EVRTFC527Z18RDK8KW6P4R","","451.60000002384186","img/food2.png","76","452.39999997615814","3","1","false","3","2","1,0.5,0,1,0.5,0,0.5,0,1","1,0.5,0,1,0.5,0,0.5,0,1","1",""
"","html-keyboard-response","16","33716","0.0-22.0","39LOEL67OTRPD8LBC6ZGK5T0P3O381","A1H5TB600ATGFS","3MXX6RQ9EVRTFC527Z18RDK8KW6P4R","","null","<img src=""img/food2.png"" style=""width:200px; border:14px solid green;"">","null","","","","","","","","","",""
"","image-keyboard-response","17","34234","0.0-24.0","39LOEL67OTRPD8LBC6ZGK5T0P3O381","A1H5TB600ATGFS","3MXX6RQ9EVRTFC527Z18RDK8KW6P4R","","516.7999999523163","img/food4.png","75","517.5999999046326","2","0","false","2","2","1,0.5,0,1,0.5,0,0.5,0,1","1,0.5,0,1,0.5,0,0.5,0,1","1",""
"","html-keyboard-response","18","34540","0.0-25.0","39LOEL67OTRPD8LBC6ZGK5T0P3O381","A1H5TB600ATGFS","3MXX6RQ9EVRTFC527Z18RDK8KW6P4R","","null","<img src=""img/food4.png"" style=""width:200px;border:14px solid red;"">","null","","","","","","","","","",""
"","image-keyboard-response","19","34975","0.0-27.0","39LOEL67OTRPD8LBC6ZGK5T0P3O381","A1H5TB600ATGFS","3MXX6RQ9EVRTFC527Z18RDK8KW6P4R","","434.39999997615814","img/food3.png","76","435.39999997615814","3","0","false","1","2","1,0.5,0,1,0.5,0,0.5,0,1","1,0.5,0,1,0.5,0,0.5,0,1","1",""
"","html-keyboard-response","20","35284","0.0-28.0","39LOEL67OTRPD8LBC6ZGK5T0P3O381","A1H5TB600ATGFS","3MXX6RQ9EVRTFC527Z18RDK8KW6P4R","","null","<img src=""img/food3.png"" style=""width:200px;border:14px solid red;"">","null","","","","","","","","","",""
"","image-keyboard-response","21","35765","0.0-30.0","39LOEL67OTRPD8LBC6ZGK5T0P3O381","A1H5TB600ATGFS","3MXX6RQ9EVRTFC527Z18RDK8KW6P4R","","479.7999999523163","img/food3.png","76","480.59999990463257","3","0","false","1","2","1,0.5,0,1,0.5,0,0.5,0,1","1,0.5,0,1,0.5,0,0.5,0,1","1",""
"","html-keyboard-response","22","36077","0.0-31.0","39LOEL67OTRPD8LBC6ZGK5T0P3O381","A1H5TB600ATGFS","3MXX6RQ9EVRTFC527Z18RDK8KW6P4R","","null","<img src=""img/food3.png"" style=""width:200px;border:14px solid red;"">","null","","","","","","","","","",""
"","image-keyboard-response","23","36571","0.0-33.0","39LOEL67OTRPD8LBC6ZGK5T0P3O381","A1H5TB600ATGFS","3MXX6RQ9EVRTFC527Z18RDK8KW6P4R","","493","img/food4.png","76","493.8000000715256","3","0","false","2","2","1,0.5,0,1,0.5,0,0.5,0,1","1,0.5,0,1,0.5,0,0.5,0,1","1",""
"","html-keyboard-response","24","36885","0.0-34.0","39LOEL67OTRPD8LBC6ZGK5T0P3O381","A1H5TB600ATGFS","3MXX6RQ9EVRTFC527Z18RDK8KW6P4R","","null","<img src=""img/food4.png"" style=""width:200px;border:14px solid red;"">","null","","","","","","","","","",""
"","image-keyboard-response","25","37265","0.0-36.0","39LOEL67OTRPD8LBC6ZGK5T0P3O381","A1H5TB600ATGFS","3MXX6RQ9EVRTFC527Z18RDK8KW6P4R","","379.1999999284744","img/food2.png","74","380.1999999284744","1","1","false","3","2","1,0.5,0,1,0.5,0,0.5,0,1","1,0.5,0,1,0.5,0,0.5,0,1","1",""
"","html-keyboard-response","26","37570","0.0-37.0","39LOEL67OTRPD8LBC6ZGK5T0P3O381","A1H5TB600ATGFS","3MXX6RQ9EVRTFC527Z18RDK8KW6P4R","","null","<img src=""img/food2.png"" style=""width:200px; border:14px solid green;"">","null","","","","","","","","","",""
"","image-keyboard-response","27","38033","0.0-39.0","39LOEL67OTRPD8LBC6ZGK5T0P3O381","A1H5TB600ATGFS","3MXX6RQ9EVRTFC527Z18RDK8KW6P4R","","461.5","img/food3.png","75","462.2999999523163","2","0","false","1","2","1,0.5,0,1,0.5,0,0.5,0,1","1,0.5,0,1,0.5,0,0.5,0,1","1",""
"","html-keyboard-response","28","38340","0.0-40.0","39LOEL67OTRPD8LBC6ZGK5T0P3O381","A1H5TB600ATGFS","3MXX6RQ9EVRTFC527Z18RDK8KW6P4R","","null","<img src=""img/food3.png"" style=""width:200px;border:14px solid red;"">","null","","","","","","","","","",""
"","image-keyboard-response","29","38762","0.0-42.0","39LOEL67OTRPD8LBC6ZGK5T0P3O381","A1H5TB600ATGFS","3MXX6RQ9EVRTFC527Z18RDK8KW6P4R","","420.40000009536743","img/food3.png","76","421.10000002384186","3","0","false","1","2","1,0.5,0,1,0.5,0,0.5,0,1","1,0.5,0,1,0.5,0,0.5,0,1","1",""
"","html-keyboard-response","30","39064","0.0-43.0","39LOEL67OTRPD8LBC6ZGK5T0P3O381","A1H5TB600ATGFS","3MXX6RQ9EVRTFC527Z18RDK8KW6P4R","","null","<img src=""img/food3.png"" style=""width:200px;border:14px solid red;"">","null","","","","","","","","","",""
"","image-keyboard-response","31","39687","0.0-45.0","39LOEL67OTRPD8LBC6ZGK5T0P3O381","A1H5TB600ATGFS","3MXX6RQ9EVRTFC527Z18RDK8KW6P4R","","621.6000000238419","img/food2.png","76","622.3999999761581","3","1","false","3","2","1,0.5,0,1,0.5,0,0.5,0,1","1,0.5,0,1,0.5,0,0.5,0,1","1",""
"","html-keyboard-response","32","39997","0.0-46.0","39LOEL67OTRPD8LBC6ZGK5T0P3O381","A1H5TB600ATGFS","3MXX6RQ9EVRTFC527Z18RDK8KW6P4R","","null","<img src=""img/food2.png"" style=""width:200px; border:14px solid green;"">","null","","","","","","","","","",""
"","image-keyboard-response","33","40443","0.0-48.0","39LOEL67OTRPD8LBC6ZGK5T0P3O381","A1H5TB600ATGFS","3MXX6RQ9EVRTFC527Z18RDK8KW6P4R","","444.5","img/food3.png","74","445.5","1","1","false","1","2","1,0.5,0,1,0.5,0,0.5,0,1","1,0.5,0,1,0.5,0,0.5,0,1","1",""
"","html-keyboard-response","34","40753","0.0-49.0","39LOEL67OTRPD8LBC6ZGK5T0P3O381","A1H5TB600ATGFS","3MXX6RQ9EVRTFC527Z18RDK8KW6P4R","","null","<img src=""img/food3.png"" style=""width:200px; border:14px solid green;"">","null","","","","","","","","","",""
"","image-keyboard-response","35","41319","0.0-51.0","39LOEL67OTRPD8LBC6ZGK5T0P3O381","A1H5TB600ATGFS","3MXX6RQ9EVRTFC527Z18RDK8KW6P4R","","564.1000000238419","img/food2.png","75","564.8999999761581","2","0","false","3","2","1,0.5,0,1,0.5,0,0.5,0,1","1,0.5,0,1,0.5,0,0.5,0,1","1",""
"","html-keyboard-response","36","41629","0.0-52.0","39LOEL67OTRPD8LBC6ZGK5T0P3O381","A1H5TB600ATGFS","3MXX6RQ9EVRTFC527Z18RDK8KW6P4R","","null","<img src=""img/food2.png"" style=""width:200px;border:14px solid red;"">","null","","","","","","","","","",""
"","image-keyboard-response","37","42049","0.0-54.0","39LOEL67OTRPD8LBC6ZGK5T0P3O381","A1H5TB600ATGFS","3MXX6RQ9EVRTFC527Z18RDK8KW6P4R","","418.39999997615814","img/food4.png","74","419.3000000715256","1","1","false","2","2","1,0.5,0,1,0.5,0,0.5,0,1","1,0.5,0,1,0.5,0,0.5,0,1","1",""
"","html-keyboard-response","38","42356","0.0-55.0","39LOEL67OTRPD8LBC6ZGK5T0P3O381","A1H5TB600ATGFS","3MXX6RQ9EVRTFC527Z18RDK8KW6P4R","","null","<img src=""img/food4.png"" style=""width:200px; border:14px solid green;"">","null","","","","","","","","","",""
"","image-keyboard-response","39","42871","0.0-57.0","39LOEL67OTRPD8LBC6ZGK5T0P3O381","A1H5TB600ATGFS","3MXX6RQ9EVRTFC527Z18RDK8KW6P4R","","513.1000000238419","img/food3.png","76","514.1000000238419","3","0","false","1","2","1,0.5,0,1,0.5,0,0.5,0,1","1,0.5,0,1,0.5,0,0.5,0,1","1",""
"","html-keyboard-response","40","43181","0.0-58.0","39LOEL67OTRPD8LBC6ZGK5T0P3O381","A1H5TB600ATGFS","3MXX6RQ9EVRTFC527Z18RDK8KW6P4R","","null","<img src=""img/food3.png"" style=""width:200px;border:14px solid red;"">","null","","","","","","","","","",""
"","image-keyboard-response","41","43523","0.0-60.0","39LOEL67OTRPD8LBC6ZGK5T0P3O381","A1H5TB600ATGFS","3MXX6RQ9EVRTFC527Z18RDK8KW6P4R","","341.6999999284744","img/food3.png","75","342.6999999284744","2","0","false","1","2","1,0.5,0,1,0.5,0,0.5,0,1","1,0.5,0,1,0.5,0,0.5,0,1","1",""
"","html-keyboard-response","42","43837","0.0-61.0","39LOEL67OTRPD8LBC6ZGK5T0P3O381","A1H5TB600ATGFS","3MXX6RQ9EVRTFC527Z18RDK8KW6P4R","","null","<img src=""img/food3.png"" style=""width:200px;border:14px solid red;"">","null","","","","","","","","","",""
"","image-keyboard-response","43","44395","0.0-63.0","39LOEL67OTRPD8LBC6ZGK5T0P3O381","A1H5TB600ATGFS","3MXX6RQ9EVRTFC527Z18RDK8KW6P4R","","556.6000000238419","img/food4.png","76","557.5","3","0","false","2","2","1,0.5,0,1,0.5,0,0.5,0,1","1,0.5,0,1,0.5,0,0.5,0,1","1",""
"","html-keyboard-response","44","44708","0.0-64.0","39LOEL67OTRPD8LBC6ZGK5T0P3O381","A1H5TB600ATGFS","3MXX6RQ9EVRTFC527Z18RDK8KW6P4R","","null","<img src=""img/food4.png"" style=""width:200px;border:14px solid red;"">","null","","","","","","","","","",""
"","image-keyboard-response","45","45054","0.0-66.0","39LOEL67OTRPD8LBC6ZGK5T0P3O381","A1H5TB600ATGFS","3MXX6RQ9EVRTFC527Z18RDK8KW6P4R","","345.10000002384186","img/food3.png","74","345.8000000715256","1","1","false","1","2","1,0.5,0,1,0.5,0,0.5,0,1","1,0.5,0,1,0.5,0,0.5,0,1","1",""
"","html-keyboard-response","46","45365","0.0-67.0","39LOEL67OTRPD8LBC6ZGK5T0P3O381","A1H5TB600ATGFS","3MXX6RQ9EVRTFC527Z18RDK8KW6P4R","","null","<img src=""img/food3.png"" style=""width:200px; border:14px solid green;"">","null","","","","","","","","","",""
"","image-keyboard-response","47","45909","0.0-69.0","39LOEL67OTRPD8LBC6ZGK5T0P3O381","A1H5TB600ATGFS","3MXX6RQ9EVRTFC527Z18RDK8KW6P4R","","542.7999999523163","img/food3.png","74","543.8000000715256","1","1","false","1","2","1,0.5,0,1,0.5,0,0.5,0,1","1,0.5,0,1,0.5,0,0.5,0,1","1",""
"","html-keyboard-response","48","46221","0.0-70.0","39LOEL67OTRPD8LBC6ZGK5T0P3O381","A1H5TB600ATGFS","3MXX6RQ9EVRTFC527Z18RDK8KW6P4R","","null","<img src=""img/food3.png"" style=""width:200px; border:14px solid green;"">","null","","","","","","","","","",""
"","image-keyboard-response","49","46987","0.0-72.0","39LOEL67OTRPD8LBC6ZGK5T0P3O381","A1H5TB600ATGFS","3MXX6RQ9EVRTFC527Z18RDK8KW6P4R","","765.3000000715256","img/food3.png","74","766.3000000715256","1","1","false","1","2","1,0.5,0,1,0.5,0,0.5,0,1","1,0.5,0,1,0.5,0,0.5,0,1","1",""
"","html-keyboard-response","50","47301","0.0-73.0","39LOEL67OTRPD8LBC6ZGK5T0P3O381","A1H5TB600ATGFS","3MXX6RQ9EVRTFC527Z18RDK8KW6P4R","","null","<img src=""img/food3.png"" style=""width:200px; border:14px solid green;"">","null","","","","","","","","","",""
"","image-keyboard-response","51","47783","0.0-75.0","39LOEL67OTRPD8LBC6ZGK5T0P3O381","A1H5TB600ATGFS","3MXX6RQ9EVRTFC527Z18RDK8KW6P4R","","481.2999999523163","img/food4.png","75","482.10000002384186","2","1","false","2","2","1,0.5,0,1,0.5,0,0.5,0,1","1,0.5,0,1,0.5,0,0.5,0,1","1",""
"","html-keyboard-response","52","48093","0.0-76.0","39LOEL67OTRPD8LBC6ZGK5T0P3O381","A1H5TB600ATGFS","3MXX6RQ9EVRTFC527Z18RDK8KW6P4R","","null","<img src=""img/food4.png"" style=""width:200px; border:14px solid green;"">","null","","","","","","","","","",""
"","image-keyboard-response","53","48750","0.0-78.0","39LOEL67OTRPD8LBC6ZGK5T0P3O381","A1H5TB600ATGFS","3MXX6RQ9EVRTFC527Z18RDK8KW6P4R","","655.7999999523163","img/food3.png","76","656.6999999284744","3","0","false","1","2","1,0.5,0,1,0.5,0,0.5,0,1","1,0.5,0,1,0.5,0,0.5,0,1","1",""
"","html-keyboard-response","54","49057","0.0-79.0","39LOEL67OTRPD8LBC6ZGK5T0P3O381","A1H5TB600ATGFS","3MXX6RQ9EVRTFC527Z18RDK8KW6P4R","","null","<img src=""img/food3.png"" style=""width:200px;border:14px solid red;"">","null","","","","","","","","","",""
"","image-keyboard-response","55","49761","0.0-81.0","39LOEL67OTRPD8LBC6ZGK5T0P3O381","A1H5TB600ATGFS","3MXX6RQ9EVRTFC527Z18RDK8KW6P4R","","703.2000000476837","img/food4.png","75","704","2","0","false","2","2","1,0.5,0,1,0.5,0,0.5,0,1","1,0.5,0,1,0.5,0,0.5,0,1","1",""
"","html-keyboard-response","56","50069","0.0-82.0","39LOEL67OTRPD8LBC6ZGK5T0P3O381","A1H5TB600ATGFS","3MXX6RQ9EVRTFC527Z18RDK8KW6P4R","","null","<img src=""img/food4.png"" style=""width:200px;border:14px solid red;"">","null","","","","","","","","","",""
"","image-keyboard-response","57","50776","0.0-84.0","39LOEL67OTRPD8LBC6ZGK5T0P3O381","A1H5TB600ATGFS","3MXX6RQ9EVRTFC527Z18RDK8KW6P4R","","705.6999999284744","img/food2.png","76","706.6999999284744","3","1","false","3","2","1,0.5,0,1,0.5,0,0.5,0,1","1,0.5,0,1,0.5,0,0.5,0,1","1",""
"","html-keyboard-response","58","51080","0.0-85.0","39LOEL67OTRPD8LBC6ZGK5T0P3O381","A1H5TB600ATGFS","3MXX6RQ9EVRTFC527Z18RDK8KW6P4R","","null","<img src=""img/food2.png"" style=""width:200px; border:14px solid green;"">","null","","","","","","","","","",""
"","image-keyboard-response","59","51958","0.0-87.0","39LOEL67OTRPD8LBC6ZGK5T0P3O381","A1H5TB600ATGFS","3MXX6RQ9EVRTFC527Z18RDK8KW6P4R","","876.2000000476837","img/food4.png","75","877.2000000476837","2","0","false","2","2","1,0.5,0,1,0.5,0,0.5,0,1","1,0.5,0,1,0.5,0,0.5,0,1","1",""
"","html-keyboard-response","60","52264","0.0-88.0","39LOEL67OTRPD8LBC6ZGK5T0P3O381","A1H5TB600ATGFS","3MXX6RQ9EVRTFC527Z18RDK8KW6P4R","","null","<img src=""img/food4.png"" style=""width:200px;border:14px solid red;"">","null","","","","","","","","","",""
"","image-keyboard-response","61","52989","0.0-90.0","39LOEL67OTRPD8LBC6ZGK5T0P3O381","A1H5TB600ATGFS","3MXX6RQ9EVRTFC527Z18RDK8KW6P4R","","724.3999999761581","img/food2.png","74","725.3000000715256","1","1","false","3","2","1,0.5,0,1,0.5,0,0.5,0,1","1,0.5,0,1,0.5,0,0.5,0,1","1",""
"","html-keyboard-response","62","53301","0.0-91.0","39LOEL67OTRPD8LBC6ZGK5T0P3O381","A1H5TB600ATGFS","3MXX6RQ9EVRTFC527Z18RDK8KW6P4R","","null","<img src=""img/food2.png"" style=""width:200px; border:14px solid green;"">","null","","","","","","","","","",""
"","image-keyboard-response","63","54122","0.0-93.0","39LOEL67OTRPD8LBC6ZGK5T0P3O381","A1H5TB600ATGFS","3MXX6RQ9EVRTFC527Z18RDK8KW6P4R","","819.3999999761581","img/food4.png","74","820.2999999523163","1","1","false","2","2","1,0.5,0,1,0.5,0,0.5,0,1","1,0.5,0,1,0.5,0,0.5,0,1","1",""
"","html-keyboard-response","64","54428","0.0-94.0","39LOEL67OTRPD8LBC6ZGK5T0P3O381","A1H5TB600ATGFS","3MXX6RQ9EVRTFC527Z18RDK8KW6P4R","","null","<img src=""img/food4.png"" style=""width:200px; border:14px solid green;"">","null","","","","","","","","","",""
"","image-keyboard-response","65","54879","0.0-96.0","39LOEL67OTRPD8LBC6ZGK5T0P3O381","A1H5TB600ATGFS","3MXX6RQ9EVRTFC527Z18RDK8KW6P4R","","448.89999997615814","img/food3.png","74","450","1","1","false","1","2","1,0.5,0,1,0.5,0,0.5,0,1","1,0.5,0,1,0.5,0,0.5,0,1","1",""
"","html-keyboard-response","66","55188","0.0-97.0","39LOEL67OTRPD8LBC6ZGK5T0P3O381","A1H5TB600ATGFS","3MXX6RQ9EVRTFC527Z18RDK8KW6P4R","","null","<img src=""img/food3.png"" style=""width:200px; border:14px solid green;"">","null","","","","","","","","","",""
"","image-keyboard-response","67","55904","0.0-99.0","39LOEL67OTRPD8LBC6ZGK5T0P3O381","A1H5TB600ATGFS","3MXX6RQ9EVRTFC527Z18RDK8KW6P4R","","714.8999999761581","img/food2.png","76","715.7999999523163","3","1","false","3","2","1,0.5,0,1,0.5,0,0.5,0,1","1,0.5,0,1,0.5,0,0.5,0,1","1",""
"","html-keyboard-response","68","56212","0.0-100.0","39LOEL67OTRPD8LBC6ZGK5T0P3O381","A1H5TB600ATGFS","3MXX6RQ9EVRTFC527Z18RDK8KW6P4R","","null","<img src=""img/food2.png"" style=""width:200px; border:14px solid green;"">","null","","","","","","","","","",""
"","image-keyboard-response","69","57149","0.0-102.0","39LOEL67OTRPD8LBC6ZGK5T0P3O381","A1H5TB600ATGFS","3MXX6RQ9EVRTFC527Z18RDK8KW6P4R","","936.6999999284744","img/food4.png","74","937.5","1","1","false","2","2","1,0.5,0,1,0.5,0,0.5,0,1","1,0.5,0,1,0.5,0,0.5,0,1","1",""
"","html-keyboard-response","70","57460","0.0-103.0","39LOEL67OTRPD8LBC6ZGK5T0P3O381","A1H5TB600ATGFS","3MXX6RQ9EVRTFC527Z18RDK8KW6P4R","","null","<img src=""img/food4.png"" style=""width:200px; border:14px solid green;"">","null","","","","","","","","","",""
"","image-keyboard-response","71","57982","0.0-105.0","39LOEL67OTRPD8LBC6ZGK5T0P3O381","A1H5TB600ATGFS","3MXX6RQ9EVRTFC527Z18RDK8KW6P4R","","520.7000000476837","img/food4.png","74","521.6000000238419","1","1","false","2","2","1,0.5,0,1,0.5,0,0.5,0,1","1,0.5,0,1,0.5,0,0.5,0,1","1",""
"","html-keyboard-response","72","58292","0.0-106.0","39LOEL67OTRPD8LBC6ZGK5T0P3O381","A1H5TB600ATGFS","3MXX6RQ9EVRTFC527Z18RDK8KW6P4R","","null","<img src=""img/food4.png"" style=""width:200px; border:14px solid green;"">","null","","","","","","","","","",""
"","image-keyboard-response","73","58774","0.0-108.0","39LOEL67OTRPD8LBC6ZGK5T0P3O381","A1H5TB600ATGFS","3MXX6RQ9EVRTFC527Z18RDK8KW6P4R","","480.7999999523163","img/food3.png","74","481.59999990463257","1","1","false","1","2","1,0.5,0,1,0.5,0,0.5,0,1","1,0.5,0,1,0.5,0,0.5,0,1","1",""
"","html-keyboard-response","74","59080","0.0-109.0","39LOEL67OTRPD8LBC6ZGK5T0P3O381","A1H5TB600ATGFS","3MXX6RQ9EVRTFC527Z18RDK8KW6P4R","","null","<img src=""img/food3.png"" style=""width:200px; border:14px solid green;"">","null","","","","","","","","","",""
"","image-keyboard-response","75","59494","0.0-111.0","39LOEL67OTRPD8LBC6ZGK5T0P3O381","A1H5TB600ATGFS","3MXX6RQ9EVRTFC527Z18RDK8KW6P4R","","412.7000000476837","img/food3.png","74","413.39999997615814","1","1","false","1","2","1,0.5,0,1,0.5,0,0.5,0,1","1,0.5,0,1,0.5,0,0.5,0,1","1",""
"","html-keyboard-response","76","59801","0.0-112.0","39LOEL67OTRPD8LBC6ZGK5T0P3O381","A1H5TB600ATGFS","3MXX6RQ9EVRTFC527Z18RDK8KW6P4R","","null","<img src=""img/food3.png"" style=""width:200px; border:14px solid green;"">","null","","","","","","","","","",""
"","image-keyboard-response","77","60313","0.0-114.0","39LOEL67OTRPD8LBC6ZGK5T0P3O381","A1H5TB600ATGFS","3MXX6RQ9EVRTFC527Z18RDK8KW6P4R","","511","img/food4.png","75","511.7000000476837","2","0","false","2","2","1,0.5,0,1,0.5,0,0.5,0,1","1,0.5,0,1,0.5,0,0.5,0,1","1",""
"","html-keyboard-response","78","60617","0.0-115.0","39LOEL67OTRPD8LBC6ZGK5T0P3O381","A1H5TB600ATGFS","3MXX6RQ9EVRTFC527Z18RDK8KW6P4R","","null","<img src=""img/food4.png"" style=""width:200px;border:14px solid red;"">","null","","","","","","","","","",""
"","image-keyboard-response","79","61081","0.0-117.0","39LOEL67OTRPD8LBC6ZGK5T0P3O381","A1H5TB600ATGFS","3MXX6RQ9EVRTFC527Z18RDK8KW6P4R","","463.10000002384186","img/food4.png","74","463.7999999523163","1","1","false","2","2","1,0.5,0,1,0.5,0,0.5,0,1","1,0.5,0,1,0.5,0,0.5,0,1","1",""
"","html-keyboard-response","80","61385","0.0-118.0","39LOEL67OTRPD8LBC6ZGK5T0P3O381","A1H5TB600ATGFS","3MXX6RQ9EVRTFC527Z18RDK8KW6P4R","","null","<img src=""img/food4.png"" style=""width:200px; border:14px solid green;"">","null","","","","","","","","","",""
"","image-keyboard-response","81","62035","0.0-120.0","39LOEL67OTRPD8LBC6ZGK5T0P3O381","A1H5TB600ATGFS","3MXX6RQ9EVRTFC527Z18RDK8KW6P4R","","648.8999999761581","img/food2.png","76","649.8000000715256","3","1","false","3","2","1,0.5,0,1,0.5,0,0.5,0,1","1,0.5,0,1,0.5,0,0.5,0,1","1",""
"","html-keyboard-response","82","62349","0.0-121.0","39LOEL67OTRPD8LBC6ZGK5T0P3O381","A1H5TB600ATGFS","3MXX6RQ9EVRTFC527Z18RDK8KW6P4R","","null","<img src=""img/food2.png"" style=""width:200px; border:14px solid green;"">","null","","","","","","","","","",""
"","image-keyboard-response","83","62812","0.0-123.0","39LOEL67OTRPD8LBC6ZGK5T0P3O381","A1H5TB600ATGFS","3MXX6RQ9EVRTFC527Z18RDK8KW6P4R","","462.10000002384186","img/food2.png","76","463.10000002384186","3","1","false","3","2","1,0.5,0,1,0.5,0,0.5,0,1","1,0.5,0,1,0.5,0,0.5,0,1","1",""
"","html-keyboard-response","84","63122","0.0-124.0","39LOEL67OTRPD8LBC6ZGK5T0P3O381","A1H5TB600ATGFS","3MXX6RQ9EVRTFC527Z18RDK8KW6P4R","","null","<img src=""img/food2.png"" style=""width:200px; border:14px solid green;"">","null","","","","","","","","","",""
"","image-keyboard-response","85","63492","0.0-126.0","39LOEL67OTRPD8LBC6ZGK5T0P3O381","A1H5TB600ATGFS","3MXX6RQ9EVRTFC527Z18RDK8KW6P4R","","368.40000009536743","img/food2.png","76","369.3000000715256","3","1","false","3","2","1,0.5,0,1,0.5,0,0.5,0,1","1,0.5,0,1,0.5,0,0.5,0,1","1",""
"","html-keyboard-response","86","63805","0.0-127.0","39LOEL67OTRPD8LBC6ZGK5T0P3O381","A1H5TB600ATGFS","3MXX6RQ9EVRTFC527Z18RDK8KW6P4R","","null","<img src=""img/food2.png"" style=""width:200px; border:14px solid green;"">","null","","","","","","","","","",""
"","image-keyboard-response","87","64538","0.0-129.0","39LOEL67OTRPD8LBC6ZGK5T0P3O381","A1H5TB600ATGFS","3MXX6RQ9EVRTFC527Z18RDK8KW6P4R","","732","img/food3.png","74","733","1","1","false","1","2","1,0.5,0,1,0.5,0,0.5,0,1","1,0.5,0,1,0.5,0,0.5,0,1","1",""
"","html-keyboard-response","88","64843","0.0-130.0","39LOEL67OTRPD8LBC6ZGK5T0P3O381","A1H5TB600ATGFS","3MXX6RQ9EVRTFC527Z18RDK8KW6P4R","","null","<img src=""img/food3.png"" style=""width:200px; border:14px solid green;"">","null","","","","","","","","","",""
"","image-keyboard-response","89","65136","0.0-132.0","39LOEL67OTRPD8LBC6ZGK5T0P3O381","A1H5TB600ATGFS","3MXX6RQ9EVRTFC527Z18RDK8KW6P4R","","292","img/food3.png","74","292.7999999523163","1","1","false","1","2","1,0.5,0,1,0.5,0,0.5,0,1","1,0.5,0,1,0.5,0,0.5,0,1","1",""
"","html-keyboard-response","90","65444","0.0-133.0","39LOEL67OTRPD8LBC6ZGK5T0P3O381","A1H5TB600ATGFS","3MXX6RQ9EVRTFC527Z18RDK8KW6P4R","","null","<img src=""img/food3.png"" style=""width:200px; border:14px solid green;"">","null","","","","","","","","","",""
"","image-keyboard-response","91","65735","0.0-135.0","39LOEL67OTRPD8LBC6ZGK5T0P3O381","A1H5TB600ATGFS","3MXX6RQ9EVRTFC527Z18RDK8KW6P4R","","290.7000000476837","img/food4.png","74","291.60000002384186","1","1","false","2","2","1,0.5,0,1,0.5,0,0.5,0,1","1,0.5,0,1,0.5,0,0.5,0,1","1",""
"","html-keyboard-response","92","66044","0.0-136.0","39LOEL67OTRPD8LBC6ZGK5T0P3O381","A1H5TB600ATGFS","3MXX6RQ9EVRTFC527Z18RDK8KW6P4R","","null","<img src=""img/food4.png"" style=""width:200px; border:14px solid green;"">","null","","","","","","","","","",""
"","image-keyboard-response","93","66342","0.0-138.0","39LOEL67OTRPD8LBC6ZGK5T0P3O381","A1H5TB600ATGFS","3MXX6RQ9EVRTFC527Z18RDK8KW6P4R","","296.6999999284744","img/food4.png","74","297.5","1","1","false","2","2","1,0.5,0,1,0.5,0,0.5,0,1","1,0.5,0,1,0.5,0,0.5,0,1","1",""
"","html-keyboard-response","94","66649","0.0-139.0","39LOEL67OTRPD8LBC6ZGK5T0P3O381","A1H5TB600ATGFS","3MXX6RQ9EVRTFC527Z18RDK8KW6P4R","","null","<img src=""img/food4.png"" style=""width:200px; border:14px solid green;"">","null","","","","","","","","","",""
"","image-keyboard-response","95","66969","0.0-141.0","39LOEL67OTRPD8LBC6ZGK5T0P3O381","A1H5TB600ATGFS","3MXX6RQ9EVRTFC527Z18RDK8KW6P4R","","318.89999997615814","img/food4.png","74","319.7999999523163","1","1","false","2","2","1,0.5,0,1,0.5,0,0.5,0,1","1,0.5,0,1,0.5,0,0.5,0,1","1",""
"","html-keyboard-response","96","67273","0.0-142.0","39LOEL67OTRPD8LBC6ZGK5T0P3O381","A1H5TB600ATGFS","3MXX6RQ9EVRTFC527Z18RDK8KW6P4R","","null","<img src=""img/food4.png"" style=""width:200px; border:14px solid green;"">","null","","","","","","","","","",""
"","image-keyboard-response","97","67552","0.0-144.0","39LOEL67OTRPD8LBC6ZGK5T0P3O381","A1H5TB600ATGFS","3MXX6RQ9EVRTFC527Z18RDK8KW6P4R","","278.2000000476837","img/food3.png","74","279","1","1","false","1","2","1,0.5,0,1,0.5,0,0.5,0,1","1,0.5,0,1,0.5,0,0.5,0,1","1",""
"","html-keyboard-response","98","67857","0.0-145.0","39LOEL67OTRPD8LBC6ZGK5T0P3O381","A1H5TB600ATGFS","3MXX6RQ9EVRTFC527Z18RDK8KW6P4R","","null","<img src=""img/food3.png"" style=""width:200px; border:14px solid green;"">","null","","","","","","","","","",""
"","image-keyboard-response","99","68166","0.0-147.0","39LOEL67OTRPD8LBC6ZGK5T0P3O381","A1H5TB600ATGFS","3MXX6RQ9EVRTFC527Z18RDK8KW6P4R","","308.2999999523163","img/food3.png","74","309","1","1","false","1","2","1,0.5,0,1,0.5,0,0.5,0,1","1,0.5,0,1,0.5,0,0.5,0,1","1",""
"","html-keyboard-response","100","68472","0.0-148.0","39LOEL67OTRPD8LBC6ZGK5T0P3O381","A1H5TB600ATGFS","3MXX6RQ9EVRTFC527Z18RDK8KW6P4R","","null","<img src=""img/food3.png"" style=""width:200px; border:14px solid green;"">","null","","","","","","","","","",""
"","image-keyboard-response","101","69101","0.0-150.0","39LOEL67OTRPD8LBC6ZGK5T0P3O381","A1H5TB600ATGFS","3MXX6RQ9EVRTFC527Z18RDK8KW6P4R","","627.5","img/food4.png","74","628.3000000715256","1","1","false","2","2","1,0.5,0,1,0.5,0,0.5,0,1","1,0.5,0,1,0.5,0,0.5,0,1","1",""
"","html-keyboard-response","102","69411","0.0-151.0","39LOEL67OTRPD8LBC6ZGK5T0P3O381","A1H5TB600ATGFS","3MXX6RQ9EVRTFC527Z18RDK8KW6P4R","","null","<img src=""img/food4.png"" style=""width:200px; border:14px solid green;"">","null","","","","","","","","","",""
"","image-keyboard-response","103","70250","0.0-153.0","39LOEL67OTRPD8LBC6ZGK5T0P3O381","A1H5TB600ATGFS","3MXX6RQ9EVRTFC527Z18RDK8KW6P4R","","837.5","img/food2.png","76","838.2999999523163","3","1","false","3","2","1,0.5,0,1,0.5,0,0.5,0,1","1,0.5,0,1,0.5,0,0.5,0,1","1",""
"","html-keyboard-response","104","70560","0.0-154.0","39LOEL67OTRPD8LBC6ZGK5T0P3O381","A1H5TB600ATGFS","3MXX6RQ9EVRTFC527Z18RDK8KW6P4R","","null","<img src=""img/food2.png"" style=""width:200px; border:14px solid green;"">","null","","","","","","","","","",""
"","image-keyboard-response","105","71176","0.0-156.0","39LOEL67OTRPD8LBC6ZGK5T0P3O381","A1H5TB600ATGFS","3MXX6RQ9EVRTFC527Z18RDK8KW6P4R","","615.8000000715256","img/food3.png","74","616.7000000476837","1","1","false","1","2","1,0.5,0,1,0.5,0,0.5,0,1","1,0.5,0,1,0.5,0,0.5,0,1","1",""
"","html-keyboard-response","106","71479","0.0-157.0","39LOEL67OTRPD8LBC6ZGK5T0P3O381","A1H5TB600ATGFS","3MXX6RQ9EVRTFC527Z18RDK8KW6P4R","","null","<img src=""img/food3.png"" style=""width:200px; border:14px solid green;"">","null","","","","","","","","","",""
"","image-keyboard-response","107","72325","0.0-159.0","39LOEL67OTRPD8LBC6ZGK5T0P3O381","A1H5TB600ATGFS","3MXX6RQ9EVRTFC527Z18RDK8KW6P4R","","844.2999999523163","img/food2.png","76","845","3","1","false","3","2","1,0.5,0,1,0.5,0,0.5,0,1","1,0.5,0,1,0.5,0,0.5,0,1","1",""
"","html-keyboard-response","108","72627","0.0-160.0","39LOEL67OTRPD8LBC6ZGK5T0P3O381","A1H5TB600ATGFS","3MXX6RQ9EVRTFC527Z18RDK8KW6P4R","","null","<img src=""img/food2.png"" style=""width:200px; border:14px solid green;"">","null","","","","","","","","","",""
"","image-keyboard-response","109","73315","0.0-162.0","39LOEL67OTRPD8LBC6ZGK5T0P3O381","A1H5TB600ATGFS","3MXX6RQ9EVRTFC527Z18RDK8KW6P4R","","686.5999999046326","img/food4.png","74","687.6000000238419","1","1","false","2","2","1,0.5,0,1,0.5,0,0.5,0,1","1,0.5,0,1,0.5,0,0.5,0,1","1",""
"","html-keyboard-response","110","73629","0.0-163.0","39LOEL67OTRPD8LBC6ZGK5T0P3O381","A1H5TB600ATGFS","3MXX6RQ9EVRTFC527Z18RDK8KW6P4R","","null","<img src=""img/food4.png"" style=""width:200px; border:14px solid green;"">","null","","","","","","","","","",""
"","image-keyboard-response","111","73941","0.0-165.0","39LOEL67OTRPD8LBC6ZGK5T0P3O381","A1H5TB600ATGFS","3MXX6RQ9EVRTFC527Z18RDK8KW6P4R","","311.10000002384186","img/food3.png","74","312","1","1","false","1","2","1,0.5,0,1,0.5,0,0.5,0,1","1,0.5,0,1,0.5,0,0.5,0,1","1",""
"","html-keyboard-response","112","74253","0.0-166.0","39LOEL67OTRPD8LBC6ZGK5T0P3O381","A1H5TB600ATGFS","3MXX6RQ9EVRTFC527Z18RDK8KW6P4R","","null","<img src=""img/food3.png"" style=""width:200px; border:14px solid green;"">","null","","","","","","","","","",""
"","image-keyboard-response","113","74636","0.0-168.0","39LOEL67OTRPD8LBC6ZGK5T0P3O381","A1H5TB600ATGFS","3MXX6RQ9EVRTFC527Z18RDK8KW6P4R","","381.7999999523163","img/food4.png","74","382.6999999284744","1","1","false","2","2","1,0.5,0,1,0.5,0,0.5,0,1","1,0.5,0,1,0.5,0,0.5,0,1","1",""
"","html-keyboard-response","114","74945","0.0-169.0","39LOEL67OTRPD8LBC6ZGK5T0P3O381","A1H5TB600ATGFS","3MXX6RQ9EVRTFC527Z18RDK8KW6P4R","","null","<img src=""img/food4.png"" style=""width:200px; border:14px solid green;"">","null","","","","","","","","","",""
"","image-keyboard-response","115","75471","0.0-171.0","39LOEL67OTRPD8LBC6ZGK5T0P3O381","A1H5TB600ATGFS","3MXX6RQ9EVRTFC527Z18RDK8KW6P4R","","525.3999999761581","img/food2.png","76","526.1999999284744","3","1","false","3","2","1,0.5,0,1,0.5,0,0.5,0,1","1,0.5,0,1,0.5,0,0.5,0,1","1",""
"","html-keyboard-response","116","75776","0.0-172.0","39LOEL67OTRPD8LBC6ZGK5T0P3O381","A1H5TB600ATGFS","3MXX6RQ9EVRTFC527Z18RDK8KW6P4R","","null","<img src=""img/food2.png"" style=""width:200px; border:14px solid green;"">","null","","","","","","","","","",""
"","image-keyboard-response","117","76259","0.0-174.0","39LOEL67OTRPD8LBC6ZGK5T0P3O381","A1H5TB600ATGFS","3MXX6RQ9EVRTFC527Z18RDK8KW6P4R","","481.10000002384186","img/food3.png","74","482.2000000476837","1","1","false","1","2","1,0.5,0,1,0.5,0,0.5,0,1","1,0.5,0,1,0.5,0,0.5,0,1","1",""
"","html-keyboard-response","118","76572","0.0-175.0","39LOEL67OTRPD8LBC6ZGK5T0P3O381","A1H5TB600ATGFS","3MXX6RQ9EVRTFC527Z18RDK8KW6P4R","","null","<img src=""img/food3.png"" style=""width:200px; border:14px solid green;"">","null","","","","","","","","","",""
"","image-keyboard-response","119","76877","0.0-177.0","39LOEL67OTRPD8LBC6ZGK5T0P3O381","A1H5TB600ATGFS","3MXX6RQ9EVRTFC527Z18RDK8KW6P4R","","303.89999997615814","img/food2.png","74","304.7999999523163","1","0","false","3","2","1,0.5,0,1,0.5,0,0.5,0,1","1,0.5,0,1,0.5,0,0.5,0,1","1",""
"","html-keyboard-response","120","77188","0.0-178.0","39LOEL67OTRPD8LBC6ZGK5T0P3O381","A1H5TB600ATGFS","3MXX6RQ9EVRTFC527Z18RDK8KW6P4R","","null","<img src=""img/food2.png"" style=""width:200px;border:14px solid red;"">","null","","","","","","","","","",""
"","image-keyboard-response","121","77699","0.0-180.0","39LOEL67OTRPD8LBC6ZGK5T0P3O381","A1H5TB600ATGFS","3MXX6RQ9EVRTFC527Z18RDK8KW6P4R","","509.89999997615814","img/food4.png","74","510.7999999523163","1","1","false","2","2","1,0.5,0,1,0.5,0,0.5,0,1","1,0.5,0,1,0.5,0,0.5,0,1","1",""
"","html-keyboard-response","122","78008","0.0-181.0","39LOEL67OTRPD8LBC6ZGK5T0P3O381","A1H5TB600ATGFS","3MXX6RQ9EVRTFC527Z18RDK8KW6P4R","","null","<img src=""img/food4.png"" style=""width:200px; border:14px solid green;"">","null","","","","","","","","","",""
"","image-keyboard-response","123","78490","0.0-183.0","39LOEL67OTRPD8LBC6ZGK5T0P3O381","A1H5TB600ATGFS","3MXX6RQ9EVRTFC527Z18RDK8KW6P4R","","480.60000002384186","img/food3.png","74","481.5","1","1","false","1","2","1,0.5,0,1,0.5,0,0.5,0,1","1,0.5,0,1,0.5,0,0.5,0,1","1",""
"","html-keyboard-response","124","78804","0.0-184.0","39LOEL67OTRPD8LBC6ZGK5T0P3O381","A1H5TB600ATGFS","3MXX6RQ9EVRTFC527Z18RDK8KW6P4R","","null","<img src=""img/food3.png"" style=""width:200px; border:14px solid green;"">","null","","","","","","","","","",""
"","image-keyboard-response","125","79249","0.0-186.0","39LOEL67OTRPD8LBC6ZGK5T0P3O381","A1H5TB600ATGFS","3MXX6RQ9EVRTFC527Z18RDK8KW6P4R","","444","img/food4.png","74","444.89999997615814","1","1","false","2","2","1,0.5,0,1,0.5,0,0.5,0,1","1,0.5,0,1,0.5,0,0.5,0,1","1",""
"","html-keyboard-response","126","79552","0.0-187.0","39LOEL67OTRPD8LBC6ZGK5T0P3O381","A1H5TB600ATGFS","3MXX6RQ9EVRTFC527Z18RDK8KW6P4R","","null","<img src=""img/food4.png"" style=""width:200px; border:14px solid green;"">","null","","","","","","","","","",""
"","image-keyboard-response","127","80109","0.0-189.0","39LOEL67OTRPD8LBC6ZGK5T0P3O381","A1H5TB600ATGFS","3MXX6RQ9EVRTFC527Z18RDK8KW6P4R","","556.2999999523163","img/food3.png","74","557.2000000476837","1","1","false","1","2","1,0.5,0,1,0.5,0,0.5,0,1","1,0.5,0,1,0.5,0,0.5,0,1","1",""
"","html-keyboard-response","128","80419","0.0-190.0","39LOEL67OTRPD8LBC6ZGK5T0P3O381","A1H5TB600ATGFS","3MXX6RQ9EVRTFC527Z18RDK8KW6P4R","","null","<img src=""img/food3.png"" style=""width:200px; border:14px solid green;"">","null","","","","","","","","","",""
"","image-keyboard-response","129","80780","0.0-192.0","39LOEL67OTRPD8LBC6ZGK5T0P3O381","A1H5TB600ATGFS","3MXX6RQ9EVRTFC527Z18RDK8KW6P4R","","359.5","img/food3.png","74","360.39999997615814","1","1","false","1","2","1,0.5,0,1,0.5,0,0.5,0,1","1,0.5,0,1,0.5,0,0.5,0,1","1",""
"","html-keyboard-response","130","81092","0.0-193.0","39LOEL67OTRPD8LBC6ZGK5T0P3O381","A1H5TB600ATGFS","3MXX6RQ9EVRTFC527Z18RDK8KW6P4R","","null","<img src=""img/food3.png"" style=""width:200px; border:14px solid green;"">","null","","","","","","","","","",""
"","image-keyboard-response","131","81590","0.0-195.0","39LOEL67OTRPD8LBC6ZGK5T0P3O381","A1H5TB600ATGFS","3MXX6RQ9EVRTFC527Z18RDK8KW6P4R","","496.7999999523163","img/food2.png","76","497.59999990463257","3","1","false","3","2","1,0.5,0,1,0.5,0,0.5,0,1","1,0.5,0,1,0.5,0,0.5,0,1","1",""
"","html-keyboard-response","132","81900","0.0-196.0","39LOEL67OTRPD8LBC6ZGK5T0P3O381","A1H5TB600ATGFS","3MXX6RQ9EVRTFC527Z18RDK8KW6P4R","","null","<img src=""img/food2.png"" style=""width:200px; border:14px solid green;"">","null","","","","","","","","","",""
"","image-keyboard-response","133","82377","0.0-198.0","39LOEL67OTRPD8LBC6ZGK5T0P3O381","A1H5TB600ATGFS","3MXX6RQ9EVRTFC527Z18RDK8KW6P4R","","475.90000009536743","img/food2.png","76","476.7999999523163","3","1","false","3","2","1,0.5,0,1,0.5,0,0.5,0,1","1,0.5,0,1,0.5,0,0.5,0,1","1",""
"","html-keyboard-response","134","82683","0.0-199.0","39LOEL67OTRPD8LBC6ZGK5T0P3O381","A1H5TB600ATGFS","3MXX6RQ9EVRTFC527Z18RDK8KW6P4R","","null","<img src=""img/food2.png"" style=""width:200px; border:14px solid green;"">","null","","","","","","","","","",""
"","image-keyboard-response","135","83120","0.0-201.0","39LOEL67OTRPD8LBC6ZGK5T0P3O381","A1H5TB600ATGFS","3MXX6RQ9EVRTFC527Z18RDK8KW6P4R","","435.60000002384186","img/food3.png","74","436.60000002384186","1","1","false","1","2","1,0.5,0,1,0.5,0,0.5,0,1","1,0.5,0,1,0.5,0,0.5,0,1","1",""
"","html-keyboard-response","136","83425","0.0-202.0","39LOEL67OTRPD8LBC6ZGK5T0P3O381","A1H5TB600ATGFS","3MXX6RQ9EVRTFC527Z18RDK8KW6P4R","","null","<img src=""img/food3.png"" style=""width:200px; border:14px solid green;"">","null","","","","","","","","","",""
"","image-keyboard-response","137","84435","0.0-204.0","39LOEL67OTRPD8LBC6ZGK5T0P3O381","A1H5TB600ATGFS","3MXX6RQ9EVRTFC527Z18RDK8KW6P4R","","","img/food3.png","","1009.5","-1","0","true","1","2","1,0.5,0,1,0.5,0,0.5,0,1","1,0.5,0,1,0.5,0,0.5,0,1","1",""
"","html-keyboard-response","138","84746","0.0-205.0","39LOEL67OTRPD8LBC6ZGK5T0P3O381","A1H5TB600ATGFS","3MXX6RQ9EVRTFC527Z18RDK8KW6P4R","","null","<img src=""img/food3.png"" style=""width:200px;border:14px solid red;"">","null","","","","","","","","","",""
"","html-keyboard-response","139","93663","0.0-206.0-0.0","39LOEL67OTRPD8LBC6ZGK5T0P3O381","A1H5TB600ATGFS","3MXX6RQ9EVRTFC527Z18RDK8KW6P4R","","","","","","","","","","","","","",""
"","image-keyboard-response","140","94441","0.0-207.0","39LOEL67OTRPD8LBC6ZGK5T0P3O381","A1H5TB600ATGFS","3MXX6RQ9EVRTFC527Z18RDK8KW6P4R","","776.5","img/food4.png","74","777.8000000715256","1","1","false","2","2","1,0.5,0,1,0.5,0,0.5,0,1","1,0.5,0,1,0.5,0,0.5,0,1","1",""
"","html-keyboard-response","141","94744","0.0-208.0","39LOEL67OTRPD8LBC6ZGK5T0P3O381","A1H5TB600ATGFS","3MXX6RQ9EVRTFC527Z18RDK8KW6P4R","","null","<img src=""img/food4.png"" style=""width:200px; border:14px solid green;"">","null","","","","","","","","","",""
"","image-keyboard-response","142","95021","0.0-210.0","39LOEL67OTRPD8LBC6ZGK5T0P3O381","A1H5TB600ATGFS","3MXX6RQ9EVRTFC527Z18RDK8KW6P4R","","276","img/food4.png","74","277.10000002384186","1","1","false","2","2","1,0.5,0,1,0.5,0,0.5,0,1","1,0.5,0,1,0.5,0,0.5,0,1","1",""
"","html-keyboard-response","143","95332","0.0-211.0","39LOEL67OTRPD8LBC6ZGK5T0P3O381","A1H5TB600ATGFS","3MXX6RQ9EVRTFC527Z18RDK8KW6P4R","","null","<img src=""img/food4.png"" style=""width:200px; border:14px solid green;"">","null","","","","","","","","","",""
"","image-keyboard-response","144","95572","0.0-213.0","39LOEL67OTRPD8LBC6ZGK5T0P3O381","A1H5TB600ATGFS","3MXX6RQ9EVRTFC527Z18RDK8KW6P4R","","238.79999995231628","img/food4.png","74","239.59999990463257","1","1","false","2","2","1,0.5,0,1,0.5,0,0.5,0,1","1,0.5,0,1,0.5,0,0.5,0,1","1",""
"","html-keyboard-response","145","95880","0.0-214.0","39LOEL67OTRPD8LBC6ZGK5T0P3O381","A1H5TB600ATGFS","3MXX6RQ9EVRTFC527Z18RDK8KW6P4R","","null","<img src=""img/food4.png"" style=""width:200px; border:14px solid green;"">","null","","","","","","","","","",""
"","image-keyboard-response","146","96118","0.0-216.0","39LOEL67OTRPD8LBC6ZGK5T0P3O381","A1H5TB600ATGFS","3MXX6RQ9EVRTFC527Z18RDK8KW6P4R","","237.20000004768372","img/food2.png","74","238.10000002384186","1","1","false","3","2","1,0.5,0,1,0.5,0,0.5,0,1","1,0.5,0,1,0.5,0,0.5,0,1","1",""
"","html-keyboard-response","147","96427","0.0-217.0","39LOEL67OTRPD8LBC6ZGK5T0P3O381","A1H5TB600ATGFS","3MXX6RQ9EVRTFC527Z18RDK8KW6P4R","","null","<img src=""img/food2.png"" style=""width:200px; border:14px solid green;"">","null","","","","","","","","","",""
"","image-keyboard-response","148","96769","0.0-219.0","39LOEL67OTRPD8LBC6ZGK5T0P3O381","A1H5TB600ATGFS","3MXX6RQ9EVRTFC527Z18RDK8KW6P4R","","341.39999997615814","img/food2.png","74","342.1999999284744","1","1","false","3","2","1,0.5,0,1,0.5,0,0.5,0,1","1,0.5,0,1,0.5,0,0.5,0,1","1",""
"","html-keyboard-response","149","97082","0.0-220.0","39LOEL67OTRPD8LBC6ZGK5T0P3O381","A1H5TB600ATGFS","3MXX6RQ9EVRTFC527Z18RDK8KW6P4R","","null","<img src=""img/food2.png"" style=""width:200px; border:14px solid green;"">","null","","","","","","","","","",""
"","image-keyboard-response","150","97634","0.0-222.0","39LOEL67OTRPD8LBC6ZGK5T0P3O381","A1H5TB600ATGFS","3MXX6RQ9EVRTFC527Z18RDK8KW6P4R","","550.7999999523163","img/food4.png","74","551.7999999523163","1","1","false","2","2","1,0.5,0,1,0.5,0,0.5,0,1","1,0.5,0,1,0.5,0,0.5,0,1","1",""
"","html-keyboard-response","151","97945","0.0-223.0","39LOEL67OTRPD8LBC6ZGK5T0P3O381","A1H5TB600ATGFS","3MXX6RQ9EVRTFC527Z18RDK8KW6P4R","","null","<img src=""img/food4.png"" style=""width:200px; border:14px solid green;"">","null","","","","","","","","","",""
"","image-keyboard-response","152","98476","0.0-225.0","39LOEL67OTRPD8LBC6ZGK5T0P3O381","A1H5TB600ATGFS","3MXX6RQ9EVRTFC527Z18RDK8KW6P4R","","530","img/food2.png","74","530.8999999761581","1","1","false","3","2","1,0.5,0,1,0.5,0,0.5,0,1","1,0.5,0,1,0.5,0,0.5,0,1","1",""
"","html-keyboard-response","153","98788","0.0-226.0","39LOEL67OTRPD8LBC6ZGK5T0P3O381","A1H5TB600ATGFS","3MXX6RQ9EVRTFC527Z18RDK8KW6P4R","","null","<img src=""img/food2.png"" style=""width:200px; border:14px solid green;"">","null","","","","","","","","","",""
"","image-keyboard-response","154","99207","0.0-228.0","39LOEL67OTRPD8LBC6ZGK5T0P3O381","A1H5TB600ATGFS","3MXX6RQ9EVRTFC527Z18RDK8KW6P4R","","417.7000000476837","img/food3.png","74","418.6999999284744","1","1","false","1","2","1,0.5,0,1,0.5,0,0.5,0,1","1,0.5,0,1,0.5,0,0.5,0,1","1",""
"","html-keyboard-response","155","99515","0.0-229.0","39LOEL67OTRPD8LBC6ZGK5T0P3O381","A1H5TB600ATGFS","3MXX6RQ9EVRTFC527Z18RDK8KW6P4R","","null","<img src=""img/food3.png"" style=""width:200px; border:14px solid green;"">","null","","","","","","","","","",""
"","image-keyboard-response","156","99937","0.0-231.0","39LOEL67OTRPD8LBC6ZGK5T0P3O381","A1H5TB600ATGFS","3MXX6RQ9EVRTFC527Z18RDK8KW6P4R","","420.5","img/food4.png","74","421.5","1","1","false","2","2","1,0.5,0,1,0.5,0,0.5,0,1","1,0.5,0,1,0.5,0,0.5,0,1","1",""
"","html-keyboard-response","157","100244","0.0-232.0","39LOEL67OTRPD8LBC6ZGK5T0P3O381","A1H5TB600ATGFS","3MXX6RQ9EVRTFC527Z18RDK8KW6P4R","","null","<img src=""img/food4.png"" style=""width:200px; border:14px solid green;"">","null","","","","","","","","","",""
"","image-keyboard-response","158","100705","0.0-234.0","39LOEL67OTRPD8LBC6ZGK5T0P3O381","A1H5TB600ATGFS","3MXX6RQ9EVRTFC527Z18RDK8KW6P4R","","460.2999999523163","img/food2.png","74","461.1999999284744","1","1","false","3","2","1,0.5,0,1,0.5,0,0.5,0,1","1,0.5,0,1,0.5,0,0.5,0,1","1",""
"","html-keyboard-response","159","101015","0.0-235.0","39LOEL67OTRPD8LBC6ZGK5T0P3O381","A1H5TB600ATGFS","3MXX6RQ9EVRTFC527Z18RDK8KW6P4R","","null","<img src=""img/food2.png"" style=""width:200px; border:14px solid green;"">","null","","","","","","","","","",""
"","image-keyboard-response","160","101514","0.0-237.0","39LOEL67OTRPD8LBC6ZGK5T0P3O381","A1H5TB600ATGFS","3MXX6RQ9EVRTFC527Z18RDK8KW6P4R","","498.2000000476837","img/food4.png","74","499.10000002384186","1","1","false","2","2","1,0.5,0,1,0.5,0,0.5,0,1","1,0.5,0,1,0.5,0,0.5,0,1","1",""
"","html-keyboard-response","161","101827","0.0-238.0","39LOEL67OTRPD8LBC6ZGK5T0P3O381","A1H5TB600ATGFS","3MXX6RQ9EVRTFC527Z18RDK8KW6P4R","","null","<img src=""img/food4.png"" style=""width:200px; border:14px solid green;"">","null","","","","","","","","","",""
"","image-keyboard-response","162","102423","0.0-240.0","39LOEL67OTRPD8LBC6ZGK5T0P3O381","A1H5TB600ATGFS","3MXX6RQ9EVRTFC527Z18RDK8KW6P4R","","594.6000000238419","img/food2.png","74","595.5","1","1","false","3","2","1,0.5,0,1,0.5,0,0.5,0,1","1,0.5,0,1,0.5,0,0.5,0,1","1",""
"","html-keyboard-response","163","102731","0.0-241.0","39LOEL67OTRPD8LBC6ZGK5T0P3O381","A1H5TB600ATGFS","3MXX6RQ9EVRTFC527Z18RDK8KW6P4R","","null","<img src=""img/food2.png"" style=""width:200px; border:14px solid green;"">","null","","","","","","","","","",""
"","image-keyboard-response","164","103205","0.0-243.0","39LOEL67OTRPD8LBC6ZGK5T0P3O381","A1H5TB600ATGFS","3MXX6RQ9EVRTFC527Z18RDK8KW6P4R","","472.3000000715256","img/food3.png","74","473.1999999284744","1","1","false","1","2","1,0.5,0,1,0.5,0,0.5,0,1","1,0.5,0,1,0.5,0,0.5,0,1","1",""
"","html-keyboard-response","165","103511","0.0-244.0","39LOEL67OTRPD8LBC6ZGK5T0P3O381","A1H5TB600ATGFS","3MXX6RQ9EVRTFC527Z18RDK8KW6P4R","","null","<img src=""img/food3.png"" style=""width:200px; border:14px solid green;"">","null","","","","","","","","","",""
"","image-keyboard-response","166","104056","0.0-246.0","39LOEL67OTRPD8LBC6ZGK5T0P3O381","A1H5TB600ATGFS","3MXX6RQ9EVRTFC527Z18RDK8KW6P4R","","542.8999999761581","img/food4.png","74","543.7999999523163","1","1","false","2","2","1,0.5,0,1,0.5,0,0.5,0,1","1,0.5,0,1,0.5,0,0.5,0,1","1",""
"","html-keyboard-response","167","104363","0.0-247.0","39LOEL67OTRPD8LBC6ZGK5T0P3O381","A1H5TB600ATGFS","3MXX6RQ9EVRTFC527Z18RDK8KW6P4R","","null","<img src=""img/food4.png"" style=""width:200px; border:14px solid green;"">","null","","","","","","","","","",""
"","image-keyboard-response","168","104828","0.0-249.0","39LOEL67OTRPD8LBC6ZGK5T0P3O381","A1H5TB600ATGFS","3MXX6RQ9EVRTFC527Z18RDK8KW6P4R","","464.10000002384186","img/food2.png","74","465","1","0","false","3","2","1,0.5,0,1,0.5,0,0.5,0,1","1,0.5,0,1,0.5,0,0.5,0,1","1",""
"","html-keyboard-response","169","105139","0.0-250.0","39LOEL67OTRPD8LBC6ZGK5T0P3O381","A1H5TB600ATGFS","3MXX6RQ9EVRTFC527Z18RDK8KW6P4R","","null","<img src=""img/food2.png"" style=""width:200px;border:14px solid red;"">","null","","","","","","","","","",""
"","image-keyboard-response","170","105457","0.0-252.0","39LOEL67OTRPD8LBC6ZGK5T0P3O381","A1H5TB600ATGFS","3MXX6RQ9EVRTFC527Z18RDK8KW6P4R","","317","img/food2.png","74","317.89999997615814","1","1","false","3","2","1,0.5,0,1,0.5,0,0.5,0,1","1,0.5,0,1,0.5,0,0.5,0,1","1",""
"","html-keyboard-response","171","105764","0.0-253.0","39LOEL67OTRPD8LBC6ZGK5T0P3O381","A1H5TB600ATGFS","3MXX6RQ9EVRTFC527Z18RDK8KW6P4R","","null","<img src=""img/food2.png"" style=""width:200px; border:14px solid green;"">","null","","","","","","","","","",""
"","image-keyboard-response","172","106092","0.0-255.0","39LOEL67OTRPD8LBC6ZGK5T0P3O381","A1H5TB600ATGFS","3MXX6RQ9EVRTFC527Z18RDK8KW6P4R","","327.09999990463257","img/food2.png","74","327.89999997615814","1","1","false","3","2","1,0.5,0,1,0.5,0,0.5,0,1","1,0.5,0,1,0.5,0,0.5,0,1","1",""
"","html-keyboard-response","173","106402","0.0-256.0","39LOEL67OTRPD8LBC6ZGK5T0P3O381","A1H5TB600ATGFS","3MXX6RQ9EVRTFC527Z18RDK8KW6P4R","","null","<img src=""img/food2.png"" style=""width:200px; border:14px solid green;"">","null","","","","","","","","","",""
"","image-keyboard-response","174","106872","0.0-258.0","39LOEL67OTRPD8LBC6ZGK5T0P3O381","A1H5TB600ATGFS","3MXX6RQ9EVRTFC527Z18RDK8KW6P4R","","468.89999997615814","img/food4.png","74","469.89999997615814","1","1","false","2","2","1,0.5,0,1,0.5,0,0.5,0,1","1,0.5,0,1,0.5,0,0.5,0,1","1",""
"","html-keyboard-response","175","107180","0.0-259.0","39LOEL67OTRPD8LBC6ZGK5T0P3O381","A1H5TB600ATGFS","3MXX6RQ9EVRTFC527Z18RDK8KW6P4R","","null","<img src=""img/food4.png"" style=""width:200px; border:14px solid green;"">","null","","","","","","","","","",""
"","image-keyboard-response","176","107444","0.0-261.0","39LOEL67OTRPD8LBC6ZGK5T0P3O381","A1H5TB600ATGFS","3MXX6RQ9EVRTFC527Z18RDK8KW6P4R","","263.6999999284744","img/food2.png","74","264.5","1","1","false","3","2","1,0.5,0,1,0.5,0,0.5,0,1","1,0.5,0,1,0.5,0,0.5,0,1","1",""
"","html-keyboard-response","177","107756","0.0-262.0","39LOEL67OTRPD8LBC6ZGK5T0P3O381","A1H5TB600ATGFS","3MXX6RQ9EVRTFC527Z18RDK8KW6P4R","","null","<img src=""img/food2.png"" style=""width:200px; border:14px solid green;"">","null","","","","","","","","","",""
"","image-keyboard-response","178","107939","0.0-264.0","39LOEL67OTRPD8LBC6ZGK5T0P3O381","A1H5TB600ATGFS","3MXX6RQ9EVRTFC527Z18RDK8KW6P4R","","182.5","img/food4.png","74","183.30000007152557","1","1","false","2","2","1,0.5,0,1,0.5,0,0.5,0,1","1,0.5,0,1,0.5,0,0.5,0,1","1",""
"","html-keyboard-response","179","108252","0.0-265.0","39LOEL67OTRPD8LBC6ZGK5T0P3O381","A1H5TB600ATGFS","3MXX6RQ9EVRTFC527Z18RDK8KW6P4R","","null","<img src=""img/food4.png"" style=""width:200px; border:14px solid green;"">","null","","","","","","","","","",""
"","image-keyboard-response","180","108472","0.0-267.0","39LOEL67OTRPD8LBC6ZGK5T0P3O381","A1H5TB600ATGFS","3MXX6RQ9EVRTFC527Z18RDK8KW6P4R","","219","img/food2.png","74","219.89999997615814","1","0","false","3","2","1,0.5,0,1,0.5,0,0.5,0,1","1,0.5,0,1,0.5,0,0.5,0,1","1",""
"","html-keyboard-response","181","108776","0.0-268.0","39LOEL67OTRPD8LBC6ZGK5T0P3O381","A1H5TB600ATGFS","3MXX6RQ9EVRTFC527Z18RDK8KW6P4R","","null","<img src=""img/food2.png"" style=""width:200px;border:14px solid red;"">","null","","","","","","","","","",""
"","image-keyboard-response","182","109154","0.0-270.0","39LOEL67OTRPD8LBC6ZGK5T0P3O381","A1H5TB600ATGFS","3MXX6RQ9EVRTFC527Z18RDK8KW6P4R","","377.09999990463257","img/food2.png","76","378.10000002384186","3","1","false","3","2","1,0.5,0,1,0.5,0,0.5,0,1","1,0.5,0,1,0.5,0,0.5,0,1","1",""
"","html-keyboard-response","183","109467","0.0-271.0","39LOEL67OTRPD8LBC6ZGK5T0P3O381","A1H5TB600ATGFS","3MXX6RQ9EVRTFC527Z18RDK8KW6P4R","","null","<img src=""img/food2.png"" style=""width:200px; border:14px solid green;"">","null","","","","","","","","","",""
"","instructions","184","119188","0.0-273.0","39LOEL67OTRPD8LBC6ZGK5T0P3O381","A1H5TB600ATGFS","3MXX6RQ9EVRTFC527Z18RDK8KW6P4R","[{""page_index"":0,""viewing_time"":8357.700000047684},{""page_index"":1,""viewing_time"":1362.2999999523163}]","9720.300000071526","","","","","","","","","","","",""
"","image-keyboard-response","185","119582","0.0-274.0","39LOEL67OTRPD8LBC6ZGK5T0P3O381","A1H5TB600ATGFS","3MXX6RQ9EVRTFC527Z18RDK8KW6P4R","","392.89999997615814","img/food6.png","74","394.09999990463257","1","0","","1","1","1,0.5,0,1,0.5,0,0.5,0,1","0.5,0,1,0.5,0,1,0,1,0.5","2",""
"","html-keyboard-response","186","119891","0.0-275.0","39LOEL67OTRPD8LBC6ZGK5T0P3O381","A1H5TB600ATGFS","3MXX6RQ9EVRTFC527Z18RDK8KW6P4R","","null","<img src=""img/food6.png"" style=""width:200px;border:14px solid red;"">","null","","","","","","","","","",""
"","image-keyboard-response","187","120076","0.0-276.0","39LOEL67OTRPD8LBC6ZGK5T0P3O381","A1H5TB600ATGFS","3MXX6RQ9EVRTFC527Z18RDK8KW6P4R","","184.80000007152557","img/food5.png","76","185.60000002384186","3","1","","3","1","1,0.5,0,1,0.5,0,0.5,0,1","0.5,0,1,0.5,0,1,0,1,0.5","2",""
"","html-keyboard-response","188","120383","0.0-277.0","39LOEL67OTRPD8LBC6ZGK5T0P3O381","A1H5TB600ATGFS","3MXX6RQ9EVRTFC527Z18RDK8KW6P4R","","null","<img src=""img/food5.png"" style=""width:200px; border:14px solid green;"">","null","","","","","","","","","",""
"","image-keyboard-response","189","120678","0.0-278.0","39LOEL67OTRPD8LBC6ZGK5T0P3O381","A1H5TB600ATGFS","3MXX6RQ9EVRTFC527Z18RDK8KW6P4R","","294.1999999284744","img/food1.png","76","295","3","1","","2","1","1,0.5,0,1,0.5,0,0.5,0,1","0.5,0,1,0.5,0,1,0,1,0.5","2",""
"","html-keyboard-response","190","120984","0.0-279.0","39LOEL67OTRPD8LBC6ZGK5T0P3O381","A1H5TB600ATGFS","3MXX6RQ9EVRTFC527Z18RDK8KW6P4R","","null","<img src=""img/food1.png"" style=""width:200px; border:14px solid green;"">","null","","","","","","","","","",""
"","image-keyboard-response","191","121244","0.0-280.0","39LOEL67OTRPD8LBC6ZGK5T0P3O381","A1H5TB600ATGFS","3MXX6RQ9EVRTFC527Z18RDK8KW6P4R","","258.5","img/food5.png","76","259.5","3","1","","3","1","1,0.5,0,1,0.5,0,0.5,0,1","0.5,0,1,0.5,0,1,0,1,0.5","2",""
"","html-keyboard-response","192","121554","0.0-281.0","39LOEL67OTRPD8LBC6ZGK5T0P3O381","A1H5TB600ATGFS","3MXX6RQ9EVRTFC527Z18RDK8KW6P4R","","null","<img src=""img/food5.png"" style=""width:200px; border:14px solid green;"">","null","","","","","","","","","",""
"","image-keyboard-response","193","121752","0.0-282.0","39LOEL67OTRPD8LBC6ZGK5T0P3O381","A1H5TB600ATGFS","3MXX6RQ9EVRTFC527Z18RDK8KW6P4R","","197","img/food1.png","76","197.89999997615814","3","1","","2","1","1,0.5,0,1,0.5,0,0.5,0,1","0.5,0,1,0.5,0,1,0,1,0.5","2",""
"","html-keyboard-response","194","122059","0.0-283.0","39LOEL67OTRPD8LBC6ZGK5T0P3O381","A1H5TB600ATGFS","3MXX6RQ9EVRTFC527Z18RDK8KW6P4R","","null","<img src=""img/food1.png"" style=""width:200px; border:14px solid green;"">","null","","","","","","","","","",""
"","image-keyboard-response","195","122301","0.0-284.0","39LOEL67OTRPD8LBC6ZGK5T0P3O381","A1H5TB600ATGFS","3MXX6RQ9EVRTFC527Z18RDK8KW6P4R","","241.10000002384186","img/food1.png","76","242","3","1","","2","1","1,0.5,0,1,0.5,0,0.5,0,1","0.5,0,1,0.5,0,1,0,1,0.5","2",""
"","html-keyboard-response","196","122609","0.0-285.0","39LOEL67OTRPD8LBC6ZGK5T0P3O381","A1H5TB600ATGFS","3MXX6RQ9EVRTFC527Z18RDK8KW6P4R","","null","<img src=""img/food1.png"" style=""width:200px; border:14px solid green;"">","null","","","","","","","","","",""
"","image-keyboard-response","197","122858","0.0-286.0","39LOEL67OTRPD8LBC6ZGK5T0P3O381","A1H5TB600ATGFS","3MXX6RQ9EVRTFC527Z18RDK8KW6P4R","","247.39999997615814","img/food6.png","76","248.20000004768372","3","1","","1","1","1,0.5,0,1,0.5,0,0.5,0,1","0.5,0,1,0.5,0,1,0,1,0.5","2",""
"","html-keyboard-response","198","123169","0.0-287.0","39LOEL67OTRPD8LBC6ZGK5T0P3O381","A1H5TB600ATGFS","3MXX6RQ9EVRTFC527Z18RDK8KW6P4R","","null","<img src=""img/food6.png"" style=""width:200px; border:14px solid green;"">","null","","","","","","","","","",""
"","image-keyboard-response","199","123350","0.0-288.0","39LOEL67OTRPD8LBC6ZGK5T0P3O381","A1H5TB600ATGFS","3MXX6RQ9EVRTFC527Z18RDK8KW6P4R","","180","img/food6.png","76","180.80000007152557","3","1","","1","1","1,0.5,0,1,0.5,0,0.5,0,1","0.5,0,1,0.5,0,1,0,1,0.5","2",""
"","html-keyboard-response","200","123655","0.0-289.0","39LOEL67OTRPD8LBC6ZGK5T0P3O381","A1H5TB600ATGFS","3MXX6RQ9EVRTFC527Z18RDK8KW6P4R","","null","<img src=""img/food6.png"" style=""width:200px; border:14px solid green;"">","null","","","","","","","","","",""
"","image-keyboard-response","201","124100","0.0-290.0","39LOEL67OTRPD8LBC6ZGK5T0P3O381","A1H5TB600ATGFS","3MXX6RQ9EVRTFC527Z18RDK8KW6P4R","","443.5","img/food1.png","76","444.2000000476837","3","1","","2","1","1,0.5,0,1,0.5,0,0.5,0,1","0.5,0,1,0.5,0,1,0,1,0.5","2",""
"","html-keyboard-response","202","124411","0.0-291.0","39LOEL67OTRPD8LBC6ZGK5T0P3O381","A1H5TB600ATGFS","3MXX6RQ9EVRTFC527Z18RDK8KW6P4R","","null","<img src=""img/food1.png"" style=""width:200px; border:14px solid green;"">","null","","","","","","","","","",""
"","image-keyboard-response","203","124671","0.0-292.0","39LOEL67OTRPD8LBC6ZGK5T0P3O381","A1H5TB600ATGFS","3MXX6RQ9EVRTFC527Z18RDK8KW6P4R","","259","img/food1.png","76","259.7999999523163","3","1","","2","1","1,0.5,0,1,0.5,0,0.5,0,1","0.5,0,1,0.5,0,1,0,1,0.5","2",""
"","html-keyboard-response","204","124979","0.0-293.0","39LOEL67OTRPD8LBC6ZGK5T0P3O381","A1H5TB600ATGFS","3MXX6RQ9EVRTFC527Z18RDK8KW6P4R","","null","<img src=""img/food1.png"" style=""width:200px; border:14px solid green;"">","null","","","","","","","","","",""
"","image-keyboard-response","205","125270","0.0-294.0","39LOEL67OTRPD8LBC6ZGK5T0P3O381","A1H5TB600ATGFS","3MXX6RQ9EVRTFC527Z18RDK8KW6P4R","","289.89999997615814","img/food1.png","76","290.7999999523163","3","1","","2","1","1,0.5,0,1,0.5,0,0.5,0,1","0.5,0,1,0.5,0,1,0,1,0.5","2",""
"","html-keyboard-response","206","125577","0.0-295.0","39LOEL67OTRPD8LBC6ZGK5T0P3O381","A1H5TB600ATGFS","3MXX6RQ9EVRTFC527Z18RDK8KW6P4R","","null","<img src=""img/food1.png"" style=""width:200px; border:14px solid green;"">","null","","","","","","","","","",""
"","image-keyboard-response","207","126060","0.0-296.0","39LOEL67OTRPD8LBC6ZGK5T0P3O381","A1H5TB600ATGFS","3MXX6RQ9EVRTFC527Z18RDK8KW6P4R","","482.7999999523163","img/food5.png","76","483.7999999523163","3","1","","3","1","1,0.5,0,1,0.5,0,0.5,0,1","0.5,0,1,0.5,0,1,0,1,0.5","2",""
"","html-keyboard-response","208","126371","0.0-297.0","39LOEL67OTRPD8LBC6ZGK5T0P3O381","A1H5TB600ATGFS","3MXX6RQ9EVRTFC527Z18RDK8KW6P4R","","null","<img src=""img/food5.png"" style=""width:200px; border:14px solid green;"">","null","","","","","","","","","",""
"","image-keyboard-response","209","126636","0.0-298.0","39LOEL67OTRPD8LBC6ZGK5T0P3O381","A1H5TB600ATGFS","3MXX6RQ9EVRTFC527Z18RDK8KW6P4R","","264.7999999523163","img/food1.png","76","265.6999999284744","3","1","","2","1","1,0.5,0,1,0.5,0,0.5,0,1","0.5,0,1,0.5,0,1,0,1,0.5","2",""
"","html-keyboard-response","210","126943","0.0-299.0","39LOEL67OTRPD8LBC6ZGK5T0P3O381","A1H5TB600ATGFS","3MXX6RQ9EVRTFC527Z18RDK8KW6P4R","","null","<img src=""img/food1.png"" style=""width:200px; border:14px solid green;"">","null","","","","","","","","","",""
"","image-keyboard-response","211","127187","0.0-300.0","39LOEL67OTRPD8LBC6ZGK5T0P3O381","A1H5TB600ATGFS","3MXX6RQ9EVRTFC527Z18RDK8KW6P4R","","243","img/food6.png","76","244","3","1","","1","1","1,0.5,0,1,0.5,0,0.5,0,1","0.5,0,1,0.5,0,1,0,1,0.5","2",""
"","html-keyboard-response","212","127495","0.0-301.0","39LOEL67OTRPD8LBC6ZGK5T0P3O381","A1H5TB600ATGFS","3MXX6RQ9EVRTFC527Z18RDK8KW6P4R","","null","<img src=""img/food6.png"" style=""width:200px; border:14px solid green;"">","null","","","","","","","","","",""
"","image-keyboard-response","213","127707","0.0-302.0","39LOEL67OTRPD8LBC6ZGK5T0P3O381","A1H5TB600ATGFS","3MXX6RQ9EVRTFC527Z18RDK8KW6P4R","","210.10000002384186","img/food6.png","76","211","3","1","","1","1","1,0.5,0,1,0.5,0,0.5,0,1","0.5,0,1,0.5,0,1,0,1,0.5","2",""
"","html-keyboard-response","214","128018","0.0-303.0","39LOEL67OTRPD8LBC6ZGK5T0P3O381","A1H5TB600ATGFS","3MXX6RQ9EVRTFC527Z18RDK8KW6P4R","","null","<img src=""img/food6.png"" style=""width:200px; border:14px solid green;"">","null","","","","","","","","","",""
"","image-keyboard-response","215","128241","0.0-304.0","39LOEL67OTRPD8LBC6ZGK5T0P3O381","A1H5TB600ATGFS","3MXX6RQ9EVRTFC527Z18RDK8KW6P4R","","222.29999995231628","img/food6.png","76","223.19999992847443","3","1","","1","1","1,0.5,0,1,0.5,0,0.5,0,1","0.5,0,1,0.5,0,1,0,1,0.5","2",""
"","html-keyboard-response","216","128553","0.0-305.0","39LOEL67OTRPD8LBC6ZGK5T0P3O381","A1H5TB600ATGFS","3MXX6RQ9EVRTFC527Z18RDK8KW6P4R","","null","<img src=""img/food6.png"" style=""width:200px; border:14px solid green;"">","null","","","","","","","","","",""
"","image-keyboard-response","217","128823","0.0-306.0","39LOEL67OTRPD8LBC6ZGK5T0P3O381","A1H5TB600ATGFS","3MXX6RQ9EVRTFC527Z18RDK8KW6P4R","","269.39999997615814","img/food5.png","76","270.2000000476837","3","0","","3","1","1,0.5,0,1,0.5,0,0.5,0,1","0.5,0,1,0.5,0,1,0,1,0.5","2",""
"","html-keyboard-response","218","129127","0.0-307.0","39LOEL67OTRPD8LBC6ZGK5T0P3O381","A1H5TB600ATGFS","3MXX6RQ9EVRTFC527Z18RDK8KW6P4R","","null","<img src=""img/food5.png"" style=""width:200px;border:14px solid red;"">","null","","","","","","","","","",""
"","image-keyboard-response","219","129690","0.0-308.0","39LOEL67OTRPD8LBC6ZGK5T0P3O381","A1H5TB600ATGFS","3MXX6RQ9EVRTFC527Z18RDK8KW6P4R","","562.5","img/food6.png","74","563.3999999761581","1","0","","1","1","1,0.5,0,1,0.5,0,0.5,0,1","0.5,0,1,0.5,0,1,0,1,0.5","2",""
"","html-keyboard-response","220","129998","0.0-309.0","39LOEL67OTRPD8LBC6ZGK5T0P3O381","A1H5TB600ATGFS","3MXX6RQ9EVRTFC527Z18RDK8KW6P4R","","null","<img src=""img/food6.png"" style=""width:200px;border:14px solid red;"">","null","","","","","","","","","",""
"","image-keyboard-response","221","130434","0.0-310.0","39LOEL67OTRPD8LBC6ZGK5T0P3O381","A1H5TB600ATGFS","3MXX6RQ9EVRTFC527Z18RDK8KW6P4R","","435.10000002384186","img/food5.png","76","436","3","1","","3","1","1,0.5,0,1,0.5,0,0.5,0,1","0.5,0,1,0.5,0,1,0,1,0.5","2",""
"","html-keyboard-response","222","130747","0.0-311.0","39LOEL67OTRPD8LBC6ZGK5T0P3O381","A1H5TB600ATGFS","3MXX6RQ9EVRTFC527Z18RDK8KW6P4R","","null","<img src=""img/food5.png"" style=""width:200px; border:14px solid green;"">","null","","","","","","","","","",""
"","image-keyboard-response","223","130913","0.0-312.0","39LOEL67OTRPD8LBC6ZGK5T0P3O381","A1H5TB600ATGFS","3MXX6RQ9EVRTFC527Z18RDK8KW6P4R","","164.89999997615814","img/food1.png","76","165.79999995231628","3","1","","2","1","1,0.5,0,1,0.5,0,0.5,0,1","0.5,0,1,0.5,0,1,0,1,0.5","2",""
"","html-keyboard-response","224","131227","0.0-313.0","39LOEL67OTRPD8LBC6ZGK5T0P3O381","A1H5TB600ATGFS","3MXX6RQ9EVRTFC527Z18RDK8KW6P4R","","null","<img src=""img/food1.png"" style=""width:200px; border:14px solid green;"">","null","","","","","","","","","",""
"","image-keyboard-response","225","131326","0.0-314.0","39LOEL67OTRPD8LBC6ZGK5T0P3O381","A1H5TB600ATGFS","3MXX6RQ9EVRTFC527Z18RDK8KW6P4R","","98.10000002384186","img/food5.png","76","99","3","1","","3","1","1,0.5,0,1,0.5,0,0.5,0,1","0.5,0,1,0.5,0,1,0,1,0.5","2",""
"","html-keyboard-response","226","131632","0.0-315.0","39LOEL67OTRPD8LBC6ZGK5T0P3O381","A1H5TB600ATGFS","3MXX6RQ9EVRTFC527Z18RDK8KW6P4R","","null","<img src=""img/food5.png"" style=""width:200px; border:14px solid green;"">","null","","","","","","","","","",""
"","image-keyboard-response","227","131756","0.0-316.0","39LOEL67OTRPD8LBC6ZGK5T0P3O381","A1H5TB600ATGFS","3MXX6RQ9EVRTFC527Z18RDK8KW6P4R","","123","img/food5.png","76","124","3","0","","3","1","1,0.5,0,1,0.5,0,0.5,0,1","0.5,0,1,0.5,0,1,0,1,0.5","2",""
"","html-keyboard-response","228","132065","0.0-317.0","39LOEL67OTRPD8LBC6ZGK5T0P3O381","A1H5TB600ATGFS","3MXX6RQ9EVRTFC527Z18RDK8KW6P4R","","null","<img src=""img/food5.png"" style=""width:200px;border:14px solid red;"">","null","","","","","","","","","",""
"","image-keyboard-response","229","132646","0.0-318.0","39LOEL67OTRPD8LBC6ZGK5T0P3O381","A1H5TB600ATGFS","3MXX6RQ9EVRTFC527Z18RDK8KW6P4R","","579.7000000476837","img/food6.png","75","580.6000000238419","2","0","","1","1","1,0.5,0,1,0.5,0,0.5,0,1","0.5,0,1,0.5,0,1,0,1,0.5","2",""
"","html-keyboard-response","230","132951","0.0-319.0","39LOEL67OTRPD8LBC6ZGK5T0P3O381","A1H5TB600ATGFS","3MXX6RQ9EVRTFC527Z18RDK8KW6P4R","","null","<img src=""img/food6.png"" style=""width:200px;border:14px solid red;"">","null","","","","","","","","","",""
"","image-keyboard-response","231","133225","0.0-320.0","39LOEL67OTRPD8LBC6ZGK5T0P3O381","A1H5TB600ATGFS","3MXX6RQ9EVRTFC527Z18RDK8KW6P4R","","273.5","img/food5.png","74","274.39999997615814","1","0","","3","1","1,0.5,0,1,0.5,0,0.5,0,1","0.5,0,1,0.5,0,1,0,1,0.5","2",""
"","html-keyboard-response","232","133539","0.0-321.0","39LOEL67OTRPD8LBC6ZGK5T0P3O381","A1H5TB600ATGFS","3MXX6RQ9EVRTFC527Z18RDK8KW6P4R","","null","<img src=""img/food5.png"" style=""width:200px;border:14px solid red;"">","null","","","","","","","","","",""
"","image-keyboard-response","233","133678","0.0-322.0","39LOEL67OTRPD8LBC6ZGK5T0P3O381","A1H5TB600ATGFS","3MXX6RQ9EVRTFC527Z18RDK8KW6P4R","","137.79999995231628","img/food6.png","76","138.69999992847443","3","1","","1","1","1,0.5,0,1,0.5,0,0.5,0,1","0.5,0,1,0.5,0,1,0,1,0.5","2",""
"","html-keyboard-response","234","133983","0.0-323.0","39LOEL67OTRPD8LBC6ZGK5T0P3O381","A1H5TB600ATGFS","3MXX6RQ9EVRTFC527Z18RDK8KW6P4R","","null","<img src=""img/food6.png"" style=""width:200px; border:14px solid green;"">","null","","","","","","","","","",""
"","image-keyboard-response","235","134199","0.0-324.0","39LOEL67OTRPD8LBC6ZGK5T0P3O381","A1H5TB600ATGFS","3MXX6RQ9EVRTFC527Z18RDK8KW6P4R","","214.60000002384186","img/food5.png","76","215.69999992847443","3","0","","3","1","1,0.5,0,1,0.5,0,0.5,0,1","0.5,0,1,0.5,0,1,0,1,0.5","2",""
"","html-keyboard-response","236","134504","0.0-325.0","39LOEL67OTRPD8LBC6ZGK5T0P3O381","A1H5TB600ATGFS","3MXX6RQ9EVRTFC527Z18RDK8KW6P4R","","null","<img src=""img/food5.png"" style=""width:200px;border:14px solid red;"">","null","","","","","","","","","",""
"","image-keyboard-response","237","134903","0.0-326.0","39LOEL67OTRPD8LBC6ZGK5T0P3O381","A1H5TB600ATGFS","3MXX6RQ9EVRTFC527Z18RDK8KW6P4R","","398","img/food6.png","76","398.89999997615814","3","1","","1","1","1,0.5,0,1,0.5,0,0.5,0,1","0.5,0,1,0.5,0,1,0,1,0.5","2",""
"","html-keyboard-response","238","135206","0.0-327.0","39LOEL67OTRPD8LBC6ZGK5T0P3O381","A1H5TB600ATGFS","3MXX6RQ9EVRTFC527Z18RDK8KW6P4R","","null","<img src=""img/food6.png"" style=""width:200px; border:14px solid green;"">","null","","","","","","","","","",""
"","image-keyboard-response","239","135456","0.0-328.0","39LOEL67OTRPD8LBC6ZGK5T0P3O381","A1H5TB600ATGFS","3MXX6RQ9EVRTFC527Z18RDK8KW6P4R","","248.5","img/food6.png","76","249.29999995231628","3","1","","1","1","1,0.5,0,1,0.5,0,0.5,0,1","0.5,0,1,0.5,0,1,0,1,0.5","2",""
"","html-keyboard-response","240","135762","0.0-329.0","39LOEL67OTRPD8LBC6ZGK5T0P3O381","A1H5TB600ATGFS","3MXX6RQ9EVRTFC527Z18RDK8KW6P4R","","null","<img src=""img/food6.png"" style=""width:200px; border:14px solid green;"">","null","","","","","","","","","",""
"","image-keyboard-response","241","135988","0.0-330.0","39LOEL67OTRPD8LBC6ZGK5T0P3O381","A1H5TB600ATGFS","3MXX6RQ9EVRTFC527Z18RDK8KW6P4R","","224.29999995231628","img/food5.png","76","225.20000004768372","3","1","","3","1","1,0.5,0,1,0.5,0,0.5,0,1","0.5,0,1,0.5,0,1,0,1,0.5","2",""
"","html-keyboard-response","242","136296","0.0-331.0","39LOEL67OTRPD8LBC6ZGK5T0P3O381","A1H5TB600ATGFS","3MXX6RQ9EVRTFC527Z18RDK8KW6P4R","","null","<img src=""img/food5.png"" style=""width:200px; border:14px solid green;"">","null","","","","","","","","","",""
"","image-keyboard-response","243","136560","0.0-332.0","39LOEL67OTRPD8LBC6ZGK5T0P3O381","A1H5TB600ATGFS","3MXX6RQ9EVRTFC527Z18RDK8KW6P4R","","262.39999997615814","img/food5.png","76","263.3000000715256","3","1","","3","1","1,0.5,0,1,0.5,0,0.5,0,1","0.5,0,1,0.5,0,1,0,1,0.5","2",""
"","html-keyboard-response","244","136867","0.0-333.0","39LOEL67OTRPD8LBC6ZGK5T0P3O381","A1H5TB600ATGFS","3MXX6RQ9EVRTFC527Z18RDK8KW6P4R","","null","<img src=""img/food5.png"" style=""width:200px; border:14px solid green;"">","null","","","","","","","","","",""
"","image-keyboard-response","245","137055","0.0-334.0","39LOEL67OTRPD8LBC6ZGK5T0P3O381","A1H5TB600ATGFS","3MXX6RQ9EVRTFC527Z18RDK8KW6P4R","","186.39999997615814","img/food6.png","76","187.5","3","1","","1","1","1,0.5,0,1,0.5,0,0.5,0,1","0.5,0,1,0.5,0,1,0,1,0.5","2",""
"","html-keyboard-response","246","137363","0.0-335.0","39LOEL67OTRPD8LBC6ZGK5T0P3O381","A1H5TB600ATGFS","3MXX6RQ9EVRTFC527Z18RDK8KW6P4R","","null","<img src=""img/food6.png"" style=""width:200px; border:14px solid green;"">","null","","","","","","","","","",""
"","image-keyboard-response","247","137528","0.0-336.0","39LOEL67OTRPD8LBC6ZGK5T0P3O381","A1H5TB600ATGFS","3MXX6RQ9EVRTFC527Z18RDK8KW6P4R","","164","img/food1.png","76","165","3","1","","2","1","1,0.5,0,1,0.5,0,0.5,0,1","0.5,0,1,0.5,0,1,0,1,0.5","2",""
"","html-keyboard-response","248","137835","0.0-337.0","39LOEL67OTRPD8LBC6ZGK5T0P3O381","A1H5TB600ATGFS","3MXX6RQ9EVRTFC527Z18RDK8KW6P4R","","null","<img src=""img/food1.png"" style=""width:200px; border:14px solid green;"">","null","","","","","","","","","",""
"","image-keyboard-response","249","138116","0.0-338.0","39LOEL67OTRPD8LBC6ZGK5T0P3O381","A1H5TB600ATGFS","3MXX6RQ9EVRTFC527Z18RDK8KW6P4R","","279.5","img/food6.png","76","280.39999997615814","3","1","","1","1","1,0.5,0,1,0.5,0,0.5,0,1","0.5,0,1,0.5,0,1,0,1,0.5","2",""
"","html-keyboard-response","250","138426","0.0-339.0","39LOEL67OTRPD8LBC6ZGK5T0P3O381","A1H5TB600ATGFS","3MXX6RQ9EVRTFC527Z18RDK8KW6P4R","","null","<img src=""img/food6.png"" style=""width:200px; border:14px solid green;"">","null","","","","","","","","","",""
"","image-keyboard-response","251","138627","0.0-340.0","39LOEL67OTRPD8LBC6ZGK5T0P3O381","A1H5TB600ATGFS","3MXX6RQ9EVRTFC527Z18RDK8KW6P4R","","200","img/food5.png","76","200.89999997615814","3","0","","3","1","1,0.5,0,1,0.5,0,0.5,0,1","0.5,0,1,0.5,0,1,0,1,0.5","2",""
"","html-keyboard-response","252","138938","0.0-341.0","39LOEL67OTRPD8LBC6ZGK5T0P3O381","A1H5TB600ATGFS","3MXX6RQ9EVRTFC527Z18RDK8KW6P4R","","null","<img src=""img/food5.png"" style=""width:200px;border:14px solid red;"">","null","","","","","","","","","",""
"","image-keyboard-response","253","139412","0.0-342.0","39LOEL67OTRPD8LBC6ZGK5T0P3O381","A1H5TB600ATGFS","3MXX6RQ9EVRTFC527Z18RDK8KW6P4R","","473.5","img/food5.png","74","474.5","1","0","","3","1","1,0.5,0,1,0.5,0,0.5,0,1","0.5,0,1,0.5,0,1,0,1,0.5","2",""
"","html-keyboard-response","254","139718","0.0-343.0","39LOEL67OTRPD8LBC6ZGK5T0P3O381","A1H5TB600ATGFS","3MXX6RQ9EVRTFC527Z18RDK8KW6P4R","","null","<img src=""img/food5.png"" style=""width:200px;border:14px solid red;"">","null","","","","","","","","","",""
"","image-keyboard-response","255","139880","0.0-344.0","39LOEL67OTRPD8LBC6ZGK5T0P3O381","A1H5TB600ATGFS","3MXX6RQ9EVRTFC527Z18RDK8KW6P4R","","160.60000002384186","img/food5.png","75","161.59999990463257","2","1","","3","1","1,0.5,0,1,0.5,0,0.5,0,1","0.5,0,1,0.5,0,1,0,1,0.5","2",""
"","html-keyboard-response","256","140187","0.0-345.0","39LOEL67OTRPD8LBC6ZGK5T0P3O381","A1H5TB600ATGFS","3MXX6RQ9EVRTFC527Z18RDK8KW6P4R","","null","<img src=""img/food5.png"" style=""width:200px; border:14px solid green;"">","null","","","","","","","","","",""
"","image-keyboard-response","257","141214","0.0-346.0","39LOEL67OTRPD8LBC6ZGK5T0P3O381","A1H5TB600ATGFS","3MXX6RQ9EVRTFC527Z18RDK8KW6P4R","","1026.2000000476837","img/food1.png","76","1027","3","1","","2","1","1,0.5,0,1,0.5,0,0.5,0,1","0.5,0,1,0.5,0,1,0,1,0.5","2",""
"","html-keyboard-response","258","141523","0.0-347.0","39LOEL67OTRPD8LBC6ZGK5T0P3O381","A1H5TB600ATGFS","3MXX6RQ9EVRTFC527Z18RDK8KW6P4R","","null","<img src=""img/food1.png"" style=""width:200px; border:14px solid green;"">","null","","","","","","","","","",""
"","image-keyboard-response","259","141804","0.0-348.0","39LOEL67OTRPD8LBC6ZGK5T0P3O381","A1H5TB600ATGFS","3MXX6RQ9EVRTFC527Z18RDK8KW6P4R","","280.2999999523163","img/food6.png","76","281.09999990463257","3","1","","1","1","1,0.5,0,1,0.5,0,0.5,0,1","0.5,0,1,0.5,0,1,0,1,0.5","2",""
"","html-keyboard-response","260","142114","0.0-349.0","39LOEL67OTRPD8LBC6ZGK5T0P3O381","A1H5TB600ATGFS","3MXX6RQ9EVRTFC527Z18RDK8KW6P4R","","null","<img src=""img/food6.png"" style=""width:200px; border:14px solid green;"">","null","","","","","","","","","",""
"","image-keyboard-response","261","142389","0.0-350.0","39LOEL67OTRPD8LBC6ZGK5T0P3O381","A1H5TB600ATGFS","3MXX6RQ9EVRTFC527Z18RDK8KW6P4R","","273.60000002384186","img/food1.png","76","274.40000009536743","3","1","","2","1","1,0.5,0,1,0.5,0,0.5,0,1","0.5,0,1,0.5,0,1,0,1,0.5","2",""
"","html-keyboard-response","262","142698","0.0-351.0","39LOEL67OTRPD8LBC6ZGK5T0P3O381","A1H5TB600ATGFS","3MXX6RQ9EVRTFC527Z18RDK8KW6P4R","","null","<img src=""img/food1.png"" style=""width:200px; border:14px solid green;"">","null","","","","","","","","","",""
"","image-keyboard-response","263","142949","0.0-352.0","39LOEL67OTRPD8LBC6ZGK5T0P3O381","A1H5TB600ATGFS","3MXX6RQ9EVRTFC527Z18RDK8KW6P4R","","250","img/food5.png","76","251","3","0","","3","1","1,0.5,0,1,0.5,0,0.5,0,1","0.5,0,1,0.5,0,1,0,1,0.5","2",""
"","html-keyboard-response","264","143259","0.0-353.0","39LOEL67OTRPD8LBC6ZGK5T0P3O381","A1H5TB600ATGFS","3MXX6RQ9EVRTFC527Z18RDK8KW6P4R","","null","<img src=""img/food5.png"" style=""width:200px;border:14px solid red;"">","null","","","","","","","","","",""
"","image-keyboard-response","265","143455","0.0-354.0","39LOEL67OTRPD8LBC6ZGK5T0P3O381","A1H5TB600ATGFS","3MXX6RQ9EVRTFC527Z18RDK8KW6P4R","","195.20000004768372","img/food1.png","74","196.10000002384186","1","0","","2","1","1,0.5,0,1,0.5,0,0.5,0,1","0.5,0,1,0.5,0,1,0,1,0.5","2",""
"","html-keyboard-response","266","143763","0.0-355.0","39LOEL67OTRPD8LBC6ZGK5T0P3O381","A1H5TB600ATGFS","3MXX6RQ9EVRTFC527Z18RDK8KW6P4R","","null","<img src=""img/food1.png"" style=""width:200px;border:14px solid red;"">","null","","","","","","","","","",""
"","image-keyboard-response","267","143838","0.0-356.0","39LOEL67OTRPD8LBC6ZGK5T0P3O381","A1H5TB600ATGFS","3MXX6RQ9EVRTFC527Z18RDK8KW6P4R","","74","img/food6.png","75","75","2","0","","1","1","1,0.5,0,1,0.5,0,0.5,0,1","0.5,0,1,0.5,0,1,0,1,0.5","2",""
"","html-keyboard-response","268","144146","0.0-357.0","39LOEL67OTRPD8LBC6ZGK5T0P3O381","A1H5TB600ATGFS","3MXX6RQ9EVRTFC527Z18RDK8KW6P4R","","null","<img src=""img/food6.png"" style=""width:200px;border:14px solid red;"">","null","","","","","","","","","",""
"","image-keyboard-response","269","144292","0.0-358.0","39LOEL67OTRPD8LBC6ZGK5T0P3O381","A1H5TB600ATGFS","3MXX6RQ9EVRTFC527Z18RDK8KW6P4R","","144.60000002384186","img/food6.png","76","145.60000002384186","3","1","","1","1","1,0.5,0,1,0.5,0,0.5,0,1","0.5,0,1,0.5,0,1,0,1,0.5","2",""
"","html-keyboard-response","270","144599","0.0-359.0","39LOEL67OTRPD8LBC6ZGK5T0P3O381","A1H5TB600ATGFS","3MXX6RQ9EVRTFC527Z18RDK8KW6P4R","","null","<img src=""img/food6.png"" style=""width:200px; border:14px solid green;"">","null","","","","","","","","","",""
"","image-keyboard-response","271","145173","0.0-360.0","39LOEL67OTRPD8LBC6ZGK5T0P3O381","A1H5TB600ATGFS","3MXX6RQ9EVRTFC527Z18RDK8KW6P4R","","573","img/food1.png","76","574","3","1","","2","1","1,0.5,0,1,0.5,0,0.5,0,1","0.5,0,1,0.5,0,1,0,1,0.5","2",""
"","html-keyboard-response","272","145483","0.0-361.0","39LOEL67OTRPD8LBC6ZGK5T0P3O381","A1H5TB600ATGFS","3MXX6RQ9EVRTFC527Z18RDK8KW6P4R","","null","<img src=""img/food1.png"" style=""width:200px; border:14px solid green;"">","null","","","","","","","","","",""
"","image-keyboard-response","273","145767","0.0-362.0","39LOEL67OTRPD8LBC6ZGK5T0P3O381","A1H5TB600ATGFS","3MXX6RQ9EVRTFC527Z18RDK8KW6P4R","","283.2000000476837","img/food5.png","76","284.2000000476837","3","0","","3","1","1,0.5,0,1,0.5,0,0.5,0,1","0.5,0,1,0.5,0,1,0,1,0.5","2",""
"","html-keyboard-response","274","146069","0.0-363.0","39LOEL67OTRPD8LBC6ZGK5T0P3O381","A1H5TB600ATGFS","3MXX6RQ9EVRTFC527Z18RDK8KW6P4R","","null","<img src=""img/food5.png"" style=""width:200px;border:14px solid red;"">","null","","","","","","","","","",""
"","image-keyboard-response","275","146258","0.0-364.0","39LOEL67OTRPD8LBC6ZGK5T0P3O381","A1H5TB600ATGFS","3MXX6RQ9EVRTFC527Z18RDK8KW6P4R","","186.89999997615814","img/food1.png","74","187.89999997615814","1","0","","2","1","1,0.5,0,1,0.5,0,0.5,0,1","0.5,0,1,0.5,0,1,0,1,0.5","2",""
"","html-keyboard-response","276","146570","0.0-365.0","39LOEL67OTRPD8LBC6ZGK5T0P3O381","A1H5TB600ATGFS","3MXX6RQ9EVRTFC527Z18RDK8KW6P4R","","null","<img src=""img/food1.png"" style=""width:200px;border:14px solid red;"">","null","","","","","","","","","",""
"","image-keyboard-response","277","146645","0.0-366.0","39LOEL67OTRPD8LBC6ZGK5T0P3O381","A1H5TB600ATGFS","3MXX6RQ9EVRTFC527Z18RDK8KW6P4R","","73.10000002384186","img/food1.png","76","74","3","1","","2","1","1,0.5,0,1,0.5,0,0.5,0,1","0.5,0,1,0.5,0,1,0,1,0.5","2",""
"","html-keyboard-response","278","146951","0.0-367.0","39LOEL67OTRPD8LBC6ZGK5T0P3O381","A1H5TB600ATGFS","3MXX6RQ9EVRTFC527Z18RDK8KW6P4R","","null","<img src=""img/food1.png"" style=""width:200px; border:14px solid green;"">","null","","","","","","","","","",""
"","image-keyboard-response","279","147147","0.0-368.0","39LOEL67OTRPD8LBC6ZGK5T0P3O381","A1H5TB600ATGFS","3MXX6RQ9EVRTFC527Z18RDK8KW6P4R","","194.80000007152557","img/food1.png","76","195.60000002384186","3","1","","2","1","1,0.5,0,1,0.5,0,0.5,0,1","0.5,0,1,0.5,0,1,0,1,0.5","2",""
"","html-keyboard-response","280","147458","0.0-369.0","39LOEL67OTRPD8LBC6ZGK5T0P3O381","A1H5TB600ATGFS","3MXX6RQ9EVRTFC527Z18RDK8KW6P4R","","null","<img src=""img/food1.png"" style=""width:200px; border:14px solid green;"">","null","","","","","","","","","",""
"","image-keyboard-response","281","147736","0.0-370.0","39LOEL67OTRPD8LBC6ZGK5T0P3O381","A1H5TB600ATGFS","3MXX6RQ9EVRTFC527Z18RDK8KW6P4R","","277.7999999523163","img/food1.png","76","278.6999999284744","3","1","","2","1","1,0.5,0,1,0.5,0,0.5,0,1","0.5,0,1,0.5,0,1,0,1,0.5","2",""
"","html-keyboard-response","282","148050","0.0-371.0","39LOEL67OTRPD8LBC6ZGK5T0P3O381","A1H5TB600ATGFS","3MXX6RQ9EVRTFC527Z18RDK8KW6P4R","","null","<img src=""img/food1.png"" style=""width:200px; border:14px solid green;"">","null","","","","","","","","","",""
"","image-keyboard-response","283","148297","0.0-372.0","39LOEL67OTRPD8LBC6ZGK5T0P3O381","A1H5TB600ATGFS","3MXX6RQ9EVRTFC527Z18RDK8KW6P4R","","246.29999995231628","img/food1.png","76","247","3","1","","2","1","1,0.5,0,1,0.5,0,0.5,0,1","0.5,0,1,0.5,0,1,0,1,0.5","2",""
"","html-keyboard-response","284","148609","0.0-373.0","39LOEL67OTRPD8LBC6ZGK5T0P3O381","A1H5TB600ATGFS","3MXX6RQ9EVRTFC527Z18RDK8KW6P4R","","null","<img src=""img/food1.png"" style=""width:200px; border:14px solid green;"">","null","","","","","","","","","",""
"","image-keyboard-response","285","149116","0.0-374.0","39LOEL67OTRPD8LBC6ZGK5T0P3O381","A1H5TB600ATGFS","3MXX6RQ9EVRTFC527Z18RDK8KW6P4R","","506.5","img/food5.png","74","507.1999999284744","1","0","","3","1","1,0.5,0,1,0.5,0,0.5,0,1","0.5,0,1,0.5,0,1,0,1,0.5","2",""
"","html-keyboard-response","286","149423","0.0-375.0","39LOEL67OTRPD8LBC6ZGK5T0P3O381","A1H5TB600ATGFS","3MXX6RQ9EVRTFC527Z18RDK8KW6P4R","","null","<img src=""img/food5.png"" style=""width:200px;border:14px solid red;"">","null","","","","","","","","","",""
"","image-keyboard-response","287","149668","0.0-376.0","39LOEL67OTRPD8LBC6ZGK5T0P3O381","A1H5TB600ATGFS","3MXX6RQ9EVRTFC527Z18RDK8KW6P4R","","243.5","img/food6.png","76","245.39999997615814","3","1","","1","1","1,0.5,0,1,0.5,0,0.5,0,1","0.5,0,1,0.5,0,1,0,1,0.5","2",""
"","html-keyboard-response","288","149979","0.0-377.0","39LOEL67OTRPD8LBC6ZGK5T0P3O381","A1H5TB600ATGFS","3MXX6RQ9EVRTFC527Z18RDK8KW6P4R","","null","<img src=""img/food6.png"" style=""width:200px; border:14px solid green;"">","null","","","","","","","","","",""
"","image-keyboard-response","289","150270","0.0-378.0","39LOEL67OTRPD8LBC6ZGK5T0P3O381","A1H5TB600ATGFS","3MXX6RQ9EVRTFC527Z18RDK8KW6P4R","","290.7000000476837","img/food5.png","76","291.6999999284744","3","1","","3","1","1,0.5,0,1,0.5,0,0.5,0,1","0.5,0,1,0.5,0,1,0,1,0.5","2",""
"","html-keyboard-response","290","150579","0.0-379.0","39LOEL67OTRPD8LBC6ZGK5T0P3O381","A1H5TB600ATGFS","3MXX6RQ9EVRTFC527Z18RDK8KW6P4R","","null","<img src=""img/food5.png"" style=""width:200px; border:14px solid green;"">","null","","","","","","","","","",""
"","image-keyboard-response","291","150860","0.0-380.0","39LOEL67OTRPD8LBC6ZGK5T0P3O381","A1H5TB600ATGFS","3MXX6RQ9EVRTFC527Z18RDK8KW6P4R","","280.5","img/food5.png","76","281.39999997615814","3","1","","3","1","1,0.5,0,1,0.5,0,0.5,0,1","0.5,0,1,0.5,0,1,0,1,0.5","2",""
"","html-keyboard-response","292","151170","0.0-381.0","39LOEL67OTRPD8LBC6ZGK5T0P3O381","A1H5TB600ATGFS","3MXX6RQ9EVRTFC527Z18RDK8KW6P4R","","null","<img src=""img/food5.png"" style=""width:200px; border:14px solid green;"">","null","","","","","","","","","",""
"","image-keyboard-response","293","151468","0.0-382.0","39LOEL67OTRPD8LBC6ZGK5T0P3O381","A1H5TB600ATGFS","3MXX6RQ9EVRTFC527Z18RDK8KW6P4R","","297","img/food6.png","76","297.89999997615814","3","1","","1","1","1,0.5,0,1,0.5,0,0.5,0,1","0.5,0,1,0.5,0,1,0,1,0.5","2",""
"","html-keyboard-response","294","151778","0.0-383.0","39LOEL67OTRPD8LBC6ZGK5T0P3O381","A1H5TB600ATGFS","3MXX6RQ9EVRTFC527Z18RDK8KW6P4R","","null","<img src=""img/food6.png"" style=""width:200px; border:14px solid green;"">","null","","","","","","","","","",""
"","image-keyboard-response","295","152035","0.0-384.0","39LOEL67OTRPD8LBC6ZGK5T0P3O381","A1H5TB600ATGFS","3MXX6RQ9EVRTFC527Z18RDK8KW6P4R","","256.3000000715256","img/food6.png","76","257.2000000476837","3","1","","1","1","1,0.5,0,1,0.5,0,0.5,0,1","0.5,0,1,0.5,0,1,0,1,0.5","2",""
"","html-keyboard-response","296","152346","0.0-385.0","39LOEL67OTRPD8LBC6ZGK5T0P3O381","A1H5TB600ATGFS","3MXX6RQ9EVRTFC527Z18RDK8KW6P4R","","null","<img src=""img/food6.png"" style=""width:200px; border:14px solid green;"">","null","","","","","","","","","",""
"","image-keyboard-response","297","152646","0.0-386.0","39LOEL67OTRPD8LBC6ZGK5T0P3O381","A1H5TB600ATGFS","3MXX6RQ9EVRTFC527Z18RDK8KW6P4R","","298.90000009536743","img/food6.png","76","299.7000000476837","3","1","","1","1","1,0.5,0,1,0.5,0,0.5,0,1","0.5,0,1,0.5,0,1,0,1,0.5","2",""
"","html-keyboard-response","298","152955","0.0-387.0","39LOEL67OTRPD8LBC6ZGK5T0P3O381","A1H5TB600ATGFS","3MXX6RQ9EVRTFC527Z18RDK8KW6P4R","","null","<img src=""img/food6.png"" style=""width:200px; border:14px solid green;"">","null","","","","","","","","","",""
"","image-keyboard-response","299","153280","0.0-388.0","39LOEL67OTRPD8LBC6ZGK5T0P3O381","A1H5TB600ATGFS","3MXX6RQ9EVRTFC527Z18RDK8KW6P4R","","324.10000002384186","img/food6.png","76","325","3","1","","1","1","1,0.5,0,1,0.5,0,0.5,0,1","0.5,0,1,0.5,0,1,0,1,0.5","2",""
"","html-keyboard-response","300","153591","0.0-389.0","39LOEL67OTRPD8LBC6ZGK5T0P3O381","A1H5TB600ATGFS","3MXX6RQ9EVRTFC527Z18RDK8KW6P4R","","null","<img src=""img/food6.png"" style=""width:200px; border:14px solid green;"">","null","","","","","","","","","",""
"","image-keyboard-response","301","153857","0.0-390.0","39LOEL67OTRPD8LBC6ZGK5T0P3O381","A1H5TB600ATGFS","3MXX6RQ9EVRTFC527Z18RDK8KW6P4R","","265.40000009536743","img/food1.png","76","266.39999997615814","3","1","","2","1","1,0.5,0,1,0.5,0,0.5,0,1","0.5,0,1,0.5,0,1,0,1,0.5","2",""
"","html-keyboard-response","302","154170","0.0-391.0","39LOEL67OTRPD8LBC6ZGK5T0P3O381","A1H5TB600ATGFS","3MXX6RQ9EVRTFC527Z18RDK8KW6P4R","","null","<img src=""img/food1.png"" style=""width:200px; border:14px solid green;"">","null","","","","","","","","","",""
"","image-keyboard-response","303","154357","0.0-392.0","39LOEL67OTRPD8LBC6ZGK5T0P3O381","A1H5TB600ATGFS","3MXX6RQ9EVRTFC527Z18RDK8KW6P4R","","186.29999995231628","img/food5.png","76","187.10000002384186","3","0","","3","1","1,0.5,0,1,0.5,0,0.5,0,1","0.5,0,1,0.5,0,1,0,1,0.5","2",""
"","html-keyboard-response","304","154663","0.0-393.0","39LOEL67OTRPD8LBC6ZGK5T0P3O381","A1H5TB600ATGFS","3MXX6RQ9EVRTFC527Z18RDK8KW6P4R","","null","<img src=""img/food5.png"" style=""width:200px;border:14px solid red;"">","null","","","","","","","","","",""
"","image-keyboard-response","305","155078","0.0-394.0","39LOEL67OTRPD8LBC6ZGK5T0P3O381","A1H5TB600ATGFS","3MXX6RQ9EVRTFC527Z18RDK8KW6P4R","","413.89999997615814","img/food5.png","74","414.89999997615814","1","0","","3","1","1,0.5,0,1,0.5,0,0.5,0,1","0.5,0,1,0.5,0,1,0,1,0.5","2",""
"","html-keyboard-response","306","155383","0.0-395.0","39LOEL67OTRPD8LBC6ZGK5T0P3O381","A1H5TB600ATGFS","3MXX6RQ9EVRTFC527Z18RDK8KW6P4R","","null","<img src=""img/food5.png"" style=""width:200px;border:14px solid red;"">","null","","","","","","","","","",""
"","image-keyboard-response","307","155489","0.0-396.0","39LOEL67OTRPD8LBC6ZGK5T0P3O381","A1H5TB600ATGFS","3MXX6RQ9EVRTFC527Z18RDK8KW6P4R","","104.80000007152557","img/food5.png","76","105.5","3","1","","3","1","1,0.5,0,1,0.5,0,0.5,0,1","0.5,0,1,0.5,0,1,0,1,0.5","2",""
"","html-keyboard-response","308","155803","0.0-397.0","39LOEL67OTRPD8LBC6ZGK5T0P3O381","A1H5TB600ATGFS","3MXX6RQ9EVRTFC527Z18RDK8KW6P4R","","null","<img src=""img/food5.png"" style=""width:200px; border:14px solid green;"">","null","","","","","","","","","",""
"","image-keyboard-response","309","155854","0.0-398.0","39LOEL67OTRPD8LBC6ZGK5T0P3O381","A1H5TB600ATGFS","3MXX6RQ9EVRTFC527Z18RDK8KW6P4R","","49.89999997615814","img/food1.png","75","50.799999952316284","2","0","","2","1","1,0.5,0,1,0.5,0,0.5,0,1","0.5,0,1,0.5,0,1,0,1,0.5","2",""
"","html-keyboard-response","310","156163","0.0-399.0","39LOEL67OTRPD8LBC6ZGK5T0P3O381","A1H5TB600ATGFS","3MXX6RQ9EVRTFC527Z18RDK8KW6P4R","","null","<img src=""img/food1.png"" style=""width:200px;border:14px solid red;"">","null","","","","","","","","","",""
"","image-keyboard-response","311","156406","0.0-400.0","39LOEL67OTRPD8LBC6ZGK5T0P3O381","A1H5TB600ATGFS","3MXX6RQ9EVRTFC527Z18RDK8KW6P4R","","242","img/food5.png","76","243.10000002384186","3","1","","3","1","1,0.5,0,1,0.5,0,0.5,0,1","0.5,0,1,0.5,0,1,0,1,0.5","2",""
"","html-keyboard-response","312","156711","0.0-401.0","39LOEL67OTRPD8LBC6ZGK5T0P3O381","A1H5TB600ATGFS","3MXX6RQ9EVRTFC527Z18RDK8KW6P4R","","null","<img src=""img/food5.png"" style=""width:200px; border:14px solid green;"">","null","","","","","","","","","",""
"","image-keyboard-response","313","157024","0.0-402.0","39LOEL67OTRPD8LBC6ZGK5T0P3O381","A1H5TB600ATGFS","3MXX6RQ9EVRTFC527Z18RDK8KW6P4R","","311.1999999284744","img/food1.png","76","312","3","1","","2","1","1,0.5,0,1,0.5,0,0.5,0,1","0.5,0,1,0.5,0,1,0,1,0.5","2",""
"","html-keyboard-response","314","157335","0.0-403.0","39LOEL67OTRPD8LBC6ZGK5T0P3O381","A1H5TB600ATGFS","3MXX6RQ9EVRTFC527Z18RDK8KW6P4R","","null","<img src=""img/food1.png"" style=""width:200px; border:14px solid green;"">","null","","","","","","","","","",""
"","image-keyboard-response","315","157613","0.0-404.0","39LOEL67OTRPD8LBC6ZGK5T0P3O381","A1H5TB600ATGFS","3MXX6RQ9EVRTFC527Z18RDK8KW6P4R","","276.60000002384186","img/food1.png","76","277.5","3","1","","2","1","1,0.5,0,1,0.5,0,0.5,0,1","0.5,0,1,0.5,0,1,0,1,0.5","2",""
"","html-keyboard-response","316","157921","0.0-405.0","39LOEL67OTRPD8LBC6ZGK5T0P3O381","A1H5TB600ATGFS","3MXX6RQ9EVRTFC527Z18RDK8KW6P4R","","null","<img src=""img/food1.png"" style=""width:200px; border:14px solid green;"">","null","","","","","","","","","",""
"","image-keyboard-response","317","158443","0.0-406.0","39LOEL67OTRPD8LBC6ZGK5T0P3O381","A1H5TB600ATGFS","3MXX6RQ9EVRTFC527Z18RDK8KW6P4R","","520.6999999284744","img/food6.png","76","521.6999999284744","3","1","","1","1","1,0.5,0,1,0.5,0,0.5,0,1","0.5,0,1,0.5,0,1,0,1,0.5","2",""
"","html-keyboard-response","318","158750","0.0-407.0","39LOEL67OTRPD8LBC6ZGK5T0P3O381","A1H5TB600ATGFS","3MXX6RQ9EVRTFC527Z18RDK8KW6P4R","","null","<img src=""img/food6.png"" style=""width:200px; border:14px solid green;"">","null","","","","","","","","","",""
"","image-keyboard-response","319","159027","0.0-408.0","39LOEL67OTRPD8LBC6ZGK5T0P3O381","A1H5TB600ATGFS","3MXX6RQ9EVRTFC527Z18RDK8KW6P4R","","276.10000002384186","img/food6.png","76","277","3","1","","1","1","1,0.5,0,1,0.5,0,0.5,0,1","0.5,0,1,0.5,0,1,0,1,0.5","2",""
"","html-keyboard-response","320","159334","0.0-409.0","39LOEL67OTRPD8LBC6ZGK5T0P3O381","A1H5TB600ATGFS","3MXX6RQ9EVRTFC527Z18RDK8KW6P4R","","null","<img src=""img/food6.png"" style=""width:200px; border:14px solid green;"">","null","","","","","","","","","",""
"","image-keyboard-response","321","159574","0.0-410.0","39LOEL67OTRPD8LBC6ZGK5T0P3O381","A1H5TB600ATGFS","3MXX6RQ9EVRTFC527Z18RDK8KW6P4R","","239","img/food6.png","76","239.80000007152557","3","1","","1","1","1,0.5,0,1,0.5,0,0.5,0,1","0.5,0,1,0.5,0,1,0,1,0.5","2",""
"","html-keyboard-response","322","159878","0.0-411.0","39LOEL67OTRPD8LBC6ZGK5T0P3O381","A1H5TB600ATGFS","3MXX6RQ9EVRTFC527Z18RDK8KW6P4R","","null","<img src=""img/food6.png"" style=""width:200px; border:14px solid green;"">","null","","","","","","","","","",""
"","image-keyboard-response","323","160104","0.0-412.0","39LOEL67OTRPD8LBC6ZGK5T0P3O381","A1H5TB600ATGFS","3MXX6RQ9EVRTFC527Z18RDK8KW6P4R","","225.39999997615814","img/food1.png","76","226.30000007152557","3","1","","2","1","1,0.5,0,1,0.5,0,0.5,0,1","0.5,0,1,0.5,0,1,0,1,0.5","2",""
"","html-keyboard-response","324","160418","0.0-413.0","39LOEL67OTRPD8LBC6ZGK5T0P3O381","A1H5TB600ATGFS","3MXX6RQ9EVRTFC527Z18RDK8KW6P4R","","null","<img src=""img/food1.png"" style=""width:200px; border:14px solid green;"">","null","","","","","","","","","",""
"","image-keyboard-response","325","160574","0.0-414.0","39LOEL67OTRPD8LBC6ZGK5T0P3O381","A1H5TB600ATGFS","3MXX6RQ9EVRTFC527Z18RDK8KW6P4R","","154","img/food6.png","76","155","3","1","","1","1","1,0.5,0,1,0.5,0,0.5,0,1","0.5,0,1,0.5,0,1,0,1,0.5","2",""
"","html-keyboard-response","326","160879","0.0-415.0","39LOEL67OTRPD8LBC6ZGK5T0P3O381","A1H5TB600ATGFS","3MXX6RQ9EVRTFC527Z18RDK8KW6P4R","","null","<img src=""img/food6.png"" style=""width:200px; border:14px solid green;"">","null","","","","","","","","","",""
"","image-keyboard-response","327","161090","0.0-416.0","39LOEL67OTRPD8LBC6ZGK5T0P3O381","A1H5TB600ATGFS","3MXX6RQ9EVRTFC527Z18RDK8KW6P4R","","210.29999995231628","img/food5.png","76","211.5","3","0","","3","1","1,0.5,0,1,0.5,0,0.5,0,1","0.5,0,1,0.5,0,1,0,1,0.5","2",""
"","html-keyboard-response","328","161402","0.0-417.0","39LOEL67OTRPD8LBC6ZGK5T0P3O381","A1H5TB600ATGFS","3MXX6RQ9EVRTFC527Z18RDK8KW6P4R","","null","<img src=""img/food5.png"" style=""width:200px;border:14px solid red;"">","null","","","","","","","","","",""
"","image-keyboard-response","329","161689","0.0-418.0","39LOEL67OTRPD8LBC6ZGK5T0P3O381","A1H5TB600ATGFS","3MXX6RQ9EVRTFC527Z18RDK8KW6P4R","","285.8000000715256","img/food1.png","74","286.8000000715256","1","0","","2","1","1,0.5,0,1,0.5,0,0.5,0,1","0.5,0,1,0.5,0,1,0,1,0.5","2",""
"","html-keyboard-response","330","161998","0.0-419.0","39LOEL67OTRPD8LBC6ZGK5T0P3O381","A1H5TB600ATGFS","3MXX6RQ9EVRTFC527Z18RDK8KW6P4R","","null","<img src=""img/food1.png"" style=""width:200px;border:14px solid red;"">","null","","","","","","","","","",""
"","image-keyboard-response","331","162171","0.0-420.0","39LOEL67OTRPD8LBC6ZGK5T0P3O381","A1H5TB600ATGFS","3MXX6RQ9EVRTFC527Z18RDK8KW6P4R","","172.89999997615814","img/food5.png","76","173.80000007152557","3","1","","3","1","1,0.5,0,1,0.5,0,0.5,0,1","0.5,0,1,0.5,0,1,0,1,0.5","2",""
"","html-keyboard-response","332","162479","0.0-421.0","39LOEL67OTRPD8LBC6ZGK5T0P3O381","A1H5TB600ATGFS","3MXX6RQ9EVRTFC527Z18RDK8KW6P4R","","null","<img src=""img/food5.png"" style=""width:200px; border:14px solid green;"">","null","","","","","","","","","",""
"","image-keyboard-response","333","162647","0.0-422.0","39LOEL67OTRPD8LBC6ZGK5T0P3O381","A1H5TB600ATGFS","3MXX6RQ9EVRTFC527Z18RDK8KW6P4R","","166.29999995231628","img/food6.png","76","167.10000002384186","3","1","","1","1","1,0.5,0,1,0.5,0,0.5,0,1","0.5,0,1,0.5,0,1,0,1,0.5","2",""
"","html-keyboard-response","334","162951","0.0-423.0","39LOEL67OTRPD8LBC6ZGK5T0P3O381","A1H5TB600ATGFS","3MXX6RQ9EVRTFC527Z18RDK8KW6P4R","","null","<img src=""img/food6.png"" style=""width:200px; border:14px solid green;"">","null","","","","","","","","","",""
"","image-keyboard-response","335","163164","0.0-424.0","39LOEL67OTRPD8LBC6ZGK5T0P3O381","A1H5TB600ATGFS","3MXX6RQ9EVRTFC527Z18RDK8KW6P4R","","212.39999997615814","img/food6.png","76","213.39999997615814","3","1","","1","1","1,0.5,0,1,0.5,0,0.5,0,1","0.5,0,1,0.5,0,1,0,1,0.5","2",""
"","html-keyboard-response","336","163473","0.0-425.0","39LOEL67OTRPD8LBC6ZGK5T0P3O381","A1H5TB600ATGFS","3MXX6RQ9EVRTFC527Z18RDK8KW6P4R","","null","<img src=""img/food6.png"" style=""width:200px; border:14px solid green;"">","null","","","","","","","","","",""
"","image-keyboard-response","337","163710","0.0-426.0","39LOEL67OTRPD8LBC6ZGK5T0P3O381","A1H5TB600ATGFS","3MXX6RQ9EVRTFC527Z18RDK8KW6P4R","","236.20000004768372","img/food1.png","76","237","3","1","","2","1","1,0.5,0,1,0.5,0,0.5,0,1","0.5,0,1,0.5,0,1,0,1,0.5","2",""
"","html-keyboard-response","338","164017","0.0-427.0","39LOEL67OTRPD8LBC6ZGK5T0P3O381","A1H5TB600ATGFS","3MXX6RQ9EVRTFC527Z18RDK8KW6P4R","","null","<img src=""img/food1.png"" style=""width:200px; border:14px solid green;"">","null","","","","","","","","","",""
"","image-keyboard-response","339","164264","0.0-428.0","39LOEL67OTRPD8LBC6ZGK5T0P3O381","A1H5TB600ATGFS","3MXX6RQ9EVRTFC527Z18RDK8KW6P4R","","245.59999990463257","img/food5.png","76","246.5","3","0","","3","1","1,0.5,0,1,0.5,0,0.5,0,1","0.5,0,1,0.5,0,1,0,1,0.5","2",""
"","html-keyboard-response","340","164577","0.0-429.0","39LOEL67OTRPD8LBC6ZGK5T0P3O381","A1H5TB600ATGFS","3MXX6RQ9EVRTFC527Z18RDK8KW6P4R","","null","<img src=""img/food5.png"" style=""width:200px;border:14px solid red;"">","null","","","","","","","","","",""
"","image-keyboard-response","341","164687","0.0-430.0","39LOEL67OTRPD8LBC6ZGK5T0P3O381","A1H5TB600ATGFS","3MXX6RQ9EVRTFC527Z18RDK8KW6P4R","","109.39999997615814","img/food6.png","76","110.39999997615814","3","1","","1","1","1,0.5,0,1,0.5,0,0.5,0,1","0.5,0,1,0.5,0,1,0,1,0.5","2",""
"","html-keyboard-response","342","164994","0.0-431.0","39LOEL67OTRPD8LBC6ZGK5T0P3O381","A1H5TB600ATGFS","3MXX6RQ9EVRTFC527Z18RDK8KW6P4R","","null","<img src=""img/food6.png"" style=""width:200px; border:14px solid green;"">","null","","","","","","","","","",""
"","image-keyboard-response","343","165105","0.0-432.0","39LOEL67OTRPD8LBC6ZGK5T0P3O381","A1H5TB600ATGFS","3MXX6RQ9EVRTFC527Z18RDK8KW6P4R","","110.30000007152557","img/food5.png","76","111.20000004768372","3","1","","3","1","1,0.5,0,1,0.5,0,0.5,0,1","0.5,0,1,0.5,0,1,0,1,0.5","2",""
"","html-keyboard-response","344","165414","0.0-433.0","39LOEL67OTRPD8LBC6ZGK5T0P3O381","A1H5TB600ATGFS","3MXX6RQ9EVRTFC527Z18RDK8KW6P4R","","null","<img src=""img/food5.png"" style=""width:200px; border:14px solid green;"">","null","","","","","","","","","",""
"","image-keyboard-response","345","165696","0.0-434.0","39LOEL67OTRPD8LBC6ZGK5T0P3O381","A1H5TB600ATGFS","3MXX6RQ9EVRTFC527Z18RDK8KW6P4R","","280.60000002384186","img/food1.png","76","281.5","3","1","","2","1","1,0.5,0,1,0.5,0,0.5,0,1","0.5,0,1,0.5,0,1,0,1,0.5","2",""
"","html-keyboard-response","346","166009","0.0-435.0","39LOEL67OTRPD8LBC6ZGK5T0P3O381","A1H5TB600ATGFS","3MXX6RQ9EVRTFC527Z18RDK8KW6P4R","","null","<img src=""img/food1.png"" style=""width:200px; border:14px solid green;"">","null","","","","","","","","","",""
"","image-keyboard-response","347","166483","0.0-436.0","39LOEL67OTRPD8LBC6ZGK5T0P3O381","A1H5TB600ATGFS","3MXX6RQ9EVRTFC527Z18RDK8KW6P4R","","473.10000002384186","img/food1.png","76","474","3","1","","2","1","1,0.5,0,1,0.5,0,0.5,0,1","0.5,0,1,0.5,0,1,0,1,0.5","2",""
"","html-keyboard-response","348","166794","0.0-437.0","39LOEL67OTRPD8LBC6ZGK5T0P3O381","A1H5TB600ATGFS","3MXX6RQ9EVRTFC527Z18RDK8KW6P4R","","null","<img src=""img/food1.png"" style=""width:200px; border:14px solid green;"">","null","","","","","","","","","",""
"","image-keyboard-response","349","167188","0.0-438.0","39LOEL67OTRPD8LBC6ZGK5T0P3O381","A1H5TB600ATGFS","3MXX6RQ9EVRTFC527Z18RDK8KW6P4R","","392.89999997615814","img/food1.png","76","393.7999999523163","3","1","","2","1","1,0.5,0,1,0.5,0,0.5,0,1","0.5,0,1,0.5,0,1,0,1,0.5","2",""
"","html-keyboard-response","350","167498","0.0-439.0","39LOEL67OTRPD8LBC6ZGK5T0P3O381","A1H5TB600ATGFS","3MXX6RQ9EVRTFC527Z18RDK8KW6P4R","","null","<img src=""img/food1.png"" style=""width:200px; border:14px solid green;"">","null","","","","","","","","","",""
"","image-keyboard-response","351","167824","0.0-440.0","39LOEL67OTRPD8LBC6ZGK5T0P3O381","A1H5TB600ATGFS","3MXX6RQ9EVRTFC527Z18RDK8KW6P4R","","325.10000002384186","img/food1.png","76","325.89999997615814","3","1","","2","1","1,0.5,0,1,0.5,0,0.5,0,1","0.5,0,1,0.5,0,1,0,1,0.5","2",""
"","html-keyboard-response","352","168135","0.0-441.0","39LOEL67OTRPD8LBC6ZGK5T0P3O381","A1H5TB600ATGFS","3MXX6RQ9EVRTFC527Z18RDK8KW6P4R","","null","<img src=""img/food1.png"" style=""width:200px; border:14px solid green;"">","null","","","","","","","","","",""
"","image-keyboard-response","353","168441","0.0-442.0","39LOEL67OTRPD8LBC6ZGK5T0P3O381","A1H5TB600ATGFS","3MXX6RQ9EVRTFC527Z18RDK8KW6P4R","","304.8000000715256","img/food1.png","76","305.5","3","1","","2","1","1,0.5,0,1,0.5,0,0.5,0,1","0.5,0,1,0.5,0,1,0,1,0.5","2",""
"","html-keyboard-response","354","168754","0.0-443.0","39LOEL67OTRPD8LBC6ZGK5T0P3O381","A1H5TB600ATGFS","3MXX6RQ9EVRTFC527Z18RDK8KW6P4R","","null","<img src=""img/food1.png"" style=""width:200px; border:14px solid green;"">","null","","","","","","","","","",""
"","image-keyboard-response","355","169413","0.0-444.0","39LOEL67OTRPD8LBC6ZGK5T0P3O381","A1H5TB600ATGFS","3MXX6RQ9EVRTFC527Z18RDK8KW6P4R","","658","img/food5.png","74","659","1","0","","3","1","1,0.5,0,1,0.5,0,0.5,0,1","0.5,0,1,0.5,0,1,0,1,0.5","2",""
"","html-keyboard-response","356","169722","0.0-445.0","39LOEL67OTRPD8LBC6ZGK5T0P3O381","A1H5TB600ATGFS","3MXX6RQ9EVRTFC527Z18RDK8KW6P4R","","null","<img src=""img/food5.png"" style=""width:200px;border:14px solid red;"">","null","","","","","","","","","",""
"","image-keyboard-response","357","169920","0.0-446.0","39LOEL67OTRPD8LBC6ZGK5T0P3O381","A1H5TB600ATGFS","3MXX6RQ9EVRTFC527Z18RDK8KW6P4R","","196.20000004768372","img/food6.png","76","197.20000004768372","3","1","","1","1","1,0.5,0,1,0.5,0,0.5,0,1","0.5,0,1,0.5,0,1,0,1,0.5","2",""
"","html-keyboard-response","358","170230","0.0-447.0","39LOEL67OTRPD8LBC6ZGK5T0P3O381","A1H5TB600ATGFS","3MXX6RQ9EVRTFC527Z18RDK8KW6P4R","","null","<img src=""img/food6.png"" style=""width:200px; border:14px solid green;"">","null","","","","","","","","","",""
"","image-keyboard-response","359","170481","0.0-448.0","39LOEL67OTRPD8LBC6ZGK5T0P3O381","A1H5TB600ATGFS","3MXX6RQ9EVRTFC527Z18RDK8KW6P4R","","250.29999995231628","img/food6.png","76","251.09999990463257","3","1","","1","1","1,0.5,0,1,0.5,0,0.5,0,1","0.5,0,1,0.5,0,1,0,1,0.5","2",""
"","html-keyboard-response","360","170789","0.0-449.0","39LOEL67OTRPD8LBC6ZGK5T0P3O381","A1H5TB600ATGFS","3MXX6RQ9EVRTFC527Z18RDK8KW6P4R","","null","<img src=""img/food6.png"" style=""width:200px; border:14px solid green;"">","null","","","","","","","","","",""
"","image-keyboard-response","361","171248","0.0-450.0","39LOEL67OTRPD8LBC6ZGK5T0P3O381","A1H5TB600ATGFS","3MXX6RQ9EVRTFC527Z18RDK8KW6P4R","","457.7999999523163","img/food5.png","76","458.7999999523163","3","1","","3","1","1,0.5,0,1,0.5,0,0.5,0,1","0.5,0,1,0.5,0,1,0,1,0.5","2",""
"","html-keyboard-response","362","171559","0.0-451.0","39LOEL67OTRPD8LBC6ZGK5T0P3O381","A1H5TB600ATGFS","3MXX6RQ9EVRTFC527Z18RDK8KW6P4R","","null","<img src=""img/food5.png"" style=""width:200px; border:14px solid green;"">","null","","","","","","","","","",""
"","image-keyboard-response","363","171756","0.0-452.0","39LOEL67OTRPD8LBC6ZGK5T0P3O381","A1H5TB600ATGFS","3MXX6RQ9EVRTFC527Z18RDK8KW6P4R","","195.69999992847443","img/food5.png","76","196.79999995231628","3","0","","3","1","1,0.5,0,1,0.5,0,0.5,0,1","0.5,0,1,0.5,0,1,0,1,0.5","2",""
"","html-keyboard-response","364","172058","0.0-453.0","39LOEL67OTRPD8LBC6ZGK5T0P3O381","A1H5TB600ATGFS","3MXX6RQ9EVRTFC527Z18RDK8KW6P4R","","null","<img src=""img/food5.png"" style=""width:200px;border:14px solid red;"">","null","","","","","","","","","",""
"","html-keyboard-response","365","174045","0.0-454.0","39LOEL67OTRPD8LBC6ZGK5T0P3O381","A1H5TB600ATGFS","3MXX6RQ9EVRTFC527Z18RDK8KW6P4R","","","","","","","","","","","","","",""
"","instructions","366","176617","0.0-455.0","39LOEL67OTRPD8LBC6ZGK5T0P3O381","A1H5TB600ATGFS","3MXX6RQ9EVRTFC527Z18RDK8KW6P4R","[{""page_index"":0,""viewing_time"":2570.5}]","2570.899999976158","","","","","","","","","","","",""
"","survey-text","367","186983","0.0-456.0","39LOEL67OTRPD8LBC6ZGK5T0P3O381","A1H5TB600ATGFS","3MXX6RQ9EVRTFC527Z18RDK8KW6P4R","","10361.199999928474","","","","","","","","","","","","{""Q0"":""A1H5TB600ATGFS""}"
