"success","trial_type","trial_index","time_elapsed","internal_node_id","assignmentID","mturkID","hitID","view_history","rt","stimulus","key_press","reactionTime","a","r","s","cond","reward_cond","reward_cond_actual","reward_matrix_idx","warning","responses"
"true","fullscreen","0","5888","0.0-0.0","3YJ6NA41JC2L4EMH18TEMY5FAAWJPZ","A1K2R6FBPUA5TQ","37SDSEDIN9ORHL92Y0GV7TIFJ2X187","","","","","","","","","","","","","",""
"","instructions","1","172033","0.0-1.0","3YJ6NA41JC2L4EMH18TEMY5FAAWJPZ","A1K2R6FBPUA5TQ","37SDSEDIN9ORHL92Y0GV7TIFJ2X187","[{""page_index"":0,""viewing_time"":4624},{""page_index"":1,""viewing_time"":4080},{""page_index"":2,""viewing_time"":6783},{""page_index"":3,""viewing_time"":8723},{""page_index"":4,""viewing_time"":4598},{""page_index"":5,""viewing_time"":9589},{""page_index"":6,""viewing_time"":127746}]","166143","","","","","","","","","","","",""
"","image-keyboard-response","2","173288","0.0-2.0","3YJ6NA41JC2L4EMH18TEMY5FAAWJPZ","A1K2R6FBPUA5TQ","37SDSEDIN9ORHL92Y0GV7TIFJ2X187","","1247","img/food6.png","74","1253","1","1","2","1","1,0.5,0,1,0.5,0,0.5,0,1","1,0.5,0,1,0.5,0,0.5,0,1","1","",""
"","html-keyboard-response","3","173600","0.0-3.0","3YJ6NA41JC2L4EMH18TEMY5FAAWJPZ","A1K2R6FBPUA5TQ","37SDSEDIN9ORHL92Y0GV7TIFJ2X187","","null","<img src=""img/food6.png"" style=""width:200px; border:14px solid green;"">","null","","","","","","","","","",""
"","image-keyboard-response","4","174614","0.0-4.0","3YJ6NA41JC2L4EMH18TEMY5FAAWJPZ","A1K2R6FBPUA5TQ","37SDSEDIN9ORHL92Y0GV7TIFJ2X187","","1003","img/food4.png","74","1013","1","1","3","1","1,0.5,0,1,0.5,0,0.5,0,1","1,0.5,0,1,0.5,0,0.5,0,1","1","",""
"","html-keyboard-response","5","174924","0.0-5.0","3YJ6NA41JC2L4EMH18TEMY5FAAWJPZ","A1K2R6FBPUA5TQ","37SDSEDIN9ORHL92Y0GV7TIFJ2X187","","null","<img src=""img/food4.png"" style=""width:200px; border:14px solid green;"">","null","","","","","","","","","",""
"","image-keyboard-response","6","175693","0.0-6.0","3YJ6NA41JC2L4EMH18TEMY5FAAWJPZ","A1K2R6FBPUA5TQ","37SDSEDIN9ORHL92Y0GV7TIFJ2X187","","758","img/food5.png","74","768","1","1","1","1","1,0.5,0,1,0.5,0,0.5,0,1","1,0.5,0,1,0.5,0,0.5,0,1","1","",""
"","html-keyboard-response","7","176003","0.0-7.0","3YJ6NA41JC2L4EMH18TEMY5FAAWJPZ","A1K2R6FBPUA5TQ","37SDSEDIN9ORHL92Y0GV7TIFJ2X187","","null","<img src=""img/food5.png"" style=""width:200px; border:14px solid green;"">","null","","","","","","","","","",""
"","image-keyboard-response","8","176786","0.0-8.0","3YJ6NA41JC2L4EMH18TEMY5FAAWJPZ","A1K2R6FBPUA5TQ","37SDSEDIN9ORHL92Y0GV7TIFJ2X187","","773","img/food5.png","74","781","1","1","1","1","1,0.5,0,1,0.5,0,0.5,0,1","1,0.5,0,1,0.5,0,0.5,0,1","1","",""
"","html-keyboard-response","9","177096","0.0-9.0","3YJ6NA41JC2L4EMH18TEMY5FAAWJPZ","A1K2R6FBPUA5TQ","37SDSEDIN9ORHL92Y0GV7TIFJ2X187","","null","<img src=""img/food5.png"" style=""width:200px; border:14px solid green;"">","null","","","","","","","","","",""
"","image-keyboard-response","10","177758","0.0-10.0","3YJ6NA41JC2L4EMH18TEMY5FAAWJPZ","A1K2R6FBPUA5TQ","37SDSEDIN9ORHL92Y0GV7TIFJ2X187","","653","img/food6.png","74","662","1","1","2","1","1,0.5,0,1,0.5,0,0.5,0,1","1,0.5,0,1,0.5,0,0.5,0,1","1","",""
"","html-keyboard-response","11","178066","0.0-11.0","3YJ6NA41JC2L4EMH18TEMY5FAAWJPZ","A1K2R6FBPUA5TQ","37SDSEDIN9ORHL92Y0GV7TIFJ2X187","","null","<img src=""img/food6.png"" style=""width:200px; border:14px solid green;"">","null","","","","","","","","","",""
"","image-keyboard-response","12","178802","0.0-12.0","3YJ6NA41JC2L4EMH18TEMY5FAAWJPZ","A1K2R6FBPUA5TQ","37SDSEDIN9ORHL92Y0GV7TIFJ2X187","","724.9999999999709","img/food4.png","74","734.0000000000291","1","1","3","1","1,0.5,0,1,0.5,0,0.5,0,1","1,0.5,0,1,0.5,0,0.5,0,1","1","",""
"","html-keyboard-response","13","179112","0.0-13.0","3YJ6NA41JC2L4EMH18TEMY5FAAWJPZ","A1K2R6FBPUA5TQ","37SDSEDIN9ORHL92Y0GV7TIFJ2X187","","null","<img src=""img/food4.png"" style=""width:200px; border:14px solid green;"">","null","","","","","","","","","",""
"","image-keyboard-response","14","179695","0.0-14.0","3YJ6NA41JC2L4EMH18TEMY5FAAWJPZ","A1K2R6FBPUA5TQ","37SDSEDIN9ORHL92Y0GV7TIFJ2X187","","573","img/food4.png","74","582.0000000000291","1","0","3","1","1,0.5,0,1,0.5,0,0.5,0,1","1,0.5,0,1,0.5,0,0.5,0,1","1","",""
"","html-keyboard-response","15","180004","0.0-15.0","3YJ6NA41JC2L4EMH18TEMY5FAAWJPZ","A1K2R6FBPUA5TQ","37SDSEDIN9ORHL92Y0GV7TIFJ2X187","","null","<img src=""img/food4.png"" style=""width:200px;border:14px solid red;"">","null","","","","","","","","","",""
"","image-keyboard-response","16","180708","0.0-16.0","3YJ6NA41JC2L4EMH18TEMY5FAAWJPZ","A1K2R6FBPUA5TQ","37SDSEDIN9ORHL92Y0GV7TIFJ2X187","","694","img/food4.png","74","704","1","0","3","1","1,0.5,0,1,0.5,0,0.5,0,1","1,0.5,0,1,0.5,0,0.5,0,1","1","",""
"","html-keyboard-response","17","181018","0.0-17.0","3YJ6NA41JC2L4EMH18TEMY5FAAWJPZ","A1K2R6FBPUA5TQ","37SDSEDIN9ORHL92Y0GV7TIFJ2X187","","null","<img src=""img/food4.png"" style=""width:200px;border:14px solid red;"">","null","","","","","","","","","",""
"","image-keyboard-response","18","181659","0.0-18.0","3YJ6NA41JC2L4EMH18TEMY5FAAWJPZ","A1K2R6FBPUA5TQ","37SDSEDIN9ORHL92Y0GV7TIFJ2X187","","631","img/food6.png","74","641","1","1","2","1","1,0.5,0,1,0.5,0,0.5,0,1","1,0.5,0,1,0.5,0,0.5,0,1","1","",""
"","html-keyboard-response","19","181970","0.0-19.0","3YJ6NA41JC2L4EMH18TEMY5FAAWJPZ","A1K2R6FBPUA5TQ","37SDSEDIN9ORHL92Y0GV7TIFJ2X187","","null","<img src=""img/food6.png"" style=""width:200px; border:14px solid green;"">","null","","","","","","","","","",""
"","image-keyboard-response","20","182430","0.0-20.0","3YJ6NA41JC2L4EMH18TEMY5FAAWJPZ","A1K2R6FBPUA5TQ","37SDSEDIN9ORHL92Y0GV7TIFJ2X187","","449","img/food6.png","74","459","1","1","2","1","1,0.5,0,1,0.5,0,0.5,0,1","1,0.5,0,1,0.5,0,0.5,0,1","1","",""
"","html-keyboard-response","21","182741","0.0-21.0","3YJ6NA41JC2L4EMH18TEMY5FAAWJPZ","A1K2R6FBPUA5TQ","37SDSEDIN9ORHL92Y0GV7TIFJ2X187","","null","<img src=""img/food6.png"" style=""width:200px; border:14px solid green;"">","null","","","","","","","","","",""
"","image-keyboard-response","22","183394","0.0-22.0","3YJ6NA41JC2L4EMH18TEMY5FAAWJPZ","A1K2R6FBPUA5TQ","37SDSEDIN9ORHL92Y0GV7TIFJ2X187","","642","img/food5.png","74","652","1","1","1","1","1,0.5,0,1,0.5,0,0.5,0,1","1,0.5,0,1,0.5,0,0.5,0,1","1","",""
"","html-keyboard-response","23","183704","0.0-23.0","3YJ6NA41JC2L4EMH18TEMY5FAAWJPZ","A1K2R6FBPUA5TQ","37SDSEDIN9ORHL92Y0GV7TIFJ2X187","","null","<img src=""img/food5.png"" style=""width:200px; border:14px solid green;"">","null","","","","","","","","","",""
"","image-keyboard-response","24","184225","0.0-24.0","3YJ6NA41JC2L4EMH18TEMY5FAAWJPZ","A1K2R6FBPUA5TQ","37SDSEDIN9ORHL92Y0GV7TIFJ2X187","","512","img/food5.png","74","520.0000000000291","1","1","1","1","1,0.5,0,1,0.5,0,0.5,0,1","1,0.5,0,1,0.5,0,0.5,0,1","1","",""
"","html-keyboard-response","25","184534","0.0-25.0","3YJ6NA41JC2L4EMH18TEMY5FAAWJPZ","A1K2R6FBPUA5TQ","37SDSEDIN9ORHL92Y0GV7TIFJ2X187","","null","<img src=""img/food5.png"" style=""width:200px; border:14px solid green;"">","null","","","","","","","","","",""
"","image-keyboard-response","26","185141","0.0-26.0","3YJ6NA41JC2L4EMH18TEMY5FAAWJPZ","A1K2R6FBPUA5TQ","37SDSEDIN9ORHL92Y0GV7TIFJ2X187","","596","img/food5.png","74","606","1","1","1","1","1,0.5,0,1,0.5,0,0.5,0,1","1,0.5,0,1,0.5,0,0.5,0,1","1","",""
"","html-keyboard-response","27","185451","0.0-27.0","3YJ6NA41JC2L4EMH18TEMY5FAAWJPZ","A1K2R6FBPUA5TQ","37SDSEDIN9ORHL92Y0GV7TIFJ2X187","","null","<img src=""img/food5.png"" style=""width:200px; border:14px solid green;"">","null","","","","","","","","","",""
"","image-keyboard-response","28","185853","0.0-28.0","3YJ6NA41JC2L4EMH18TEMY5FAAWJPZ","A1K2R6FBPUA5TQ","37SDSEDIN9ORHL92Y0GV7TIFJ2X187","","393","img/food5.png","74","401","1","1","1","1","1,0.5,0,1,0.5,0,0.5,0,1","1,0.5,0,1,0.5,0,0.5,0,1","1","",""
"","html-keyboard-response","29","186161","0.0-29.0","3YJ6NA41JC2L4EMH18TEMY5FAAWJPZ","A1K2R6FBPUA5TQ","37SDSEDIN9ORHL92Y0GV7TIFJ2X187","","null","<img src=""img/food5.png"" style=""width:200px; border:14px solid green;"">","null","","","","","","","","","",""
"","image-keyboard-response","30","186690","0.0-30.0","3YJ6NA41JC2L4EMH18TEMY5FAAWJPZ","A1K2R6FBPUA5TQ","37SDSEDIN9ORHL92Y0GV7TIFJ2X187","","518.9999999999709","img/food4.png","74","529","1","1","3","1","1,0.5,0,1,0.5,0,0.5,0,1","1,0.5,0,1,0.5,0,0.5,0,1","1","",""
"","html-keyboard-response","31","187000","0.0-31.0","3YJ6NA41JC2L4EMH18TEMY5FAAWJPZ","A1K2R6FBPUA5TQ","37SDSEDIN9ORHL92Y0GV7TIFJ2X187","","null","<img src=""img/food4.png"" style=""width:200px; border:14px solid green;"">","null","","","","","","","","","",""
"","image-keyboard-response","32","187588","0.0-32.0","3YJ6NA41JC2L4EMH18TEMY5FAAWJPZ","A1K2R6FBPUA5TQ","37SDSEDIN9ORHL92Y0GV7TIFJ2X187","","578","img/food5.png","74","587.0000000000291","1","1","1","1","1,0.5,0,1,0.5,0,0.5,0,1","1,0.5,0,1,0.5,0,0.5,0,1","1","",""
"","html-keyboard-response","33","187898","0.0-33.0","3YJ6NA41JC2L4EMH18TEMY5FAAWJPZ","A1K2R6FBPUA5TQ","37SDSEDIN9ORHL92Y0GV7TIFJ2X187","","null","<img src=""img/food5.png"" style=""width:200px; border:14px solid green;"">","null","","","","","","","","","",""
"","image-keyboard-response","34","188454","0.0-34.0","3YJ6NA41JC2L4EMH18TEMY5FAAWJPZ","A1K2R6FBPUA5TQ","37SDSEDIN9ORHL92Y0GV7TIFJ2X187","","546","img/food6.png","74","556","1","1","2","1","1,0.5,0,1,0.5,0,0.5,0,1","1,0.5,0,1,0.5,0,0.5,0,1","1","",""
"","html-keyboard-response","35","188764","0.0-35.0","3YJ6NA41JC2L4EMH18TEMY5FAAWJPZ","A1K2R6FBPUA5TQ","37SDSEDIN9ORHL92Y0GV7TIFJ2X187","","null","<img src=""img/food6.png"" style=""width:200px; border:14px solid green;"">","null","","","","","","","","","",""
"","image-keyboard-response","36","189258","0.0-36.0","3YJ6NA41JC2L4EMH18TEMY5FAAWJPZ","A1K2R6FBPUA5TQ","37SDSEDIN9ORHL92Y0GV7TIFJ2X187","","482","img/food4.png","74","493","1","0","3","1","1,0.5,0,1,0.5,0,0.5,0,1","1,0.5,0,1,0.5,0,0.5,0,1","1","",""
"","html-keyboard-response","37","189567","0.0-37.0","3YJ6NA41JC2L4EMH18TEMY5FAAWJPZ","A1K2R6FBPUA5TQ","37SDSEDIN9ORHL92Y0GV7TIFJ2X187","","null","<img src=""img/food4.png"" style=""width:200px;border:14px solid red;"">","null","","","","","","","","","",""
"","image-keyboard-response","38","190263","0.0-38.0","3YJ6NA41JC2L4EMH18TEMY5FAAWJPZ","A1K2R6FBPUA5TQ","37SDSEDIN9ORHL92Y0GV7TIFJ2X187","","685","img/food6.png","74","694","1","1","2","1","1,0.5,0,1,0.5,0,0.5,0,1","1,0.5,0,1,0.5,0,0.5,0,1","1","",""
"","html-keyboard-response","39","190573","0.0-39.0","3YJ6NA41JC2L4EMH18TEMY5FAAWJPZ","A1K2R6FBPUA5TQ","37SDSEDIN9ORHL92Y0GV7TIFJ2X187","","null","<img src=""img/food6.png"" style=""width:200px; border:14px solid green;"">","null","","","","","","","","","",""
"","image-keyboard-response","40","190946","0.0-40.0","3YJ6NA41JC2L4EMH18TEMY5FAAWJPZ","A1K2R6FBPUA5TQ","37SDSEDIN9ORHL92Y0GV7TIFJ2X187","","363","img/food4.png","74","373","1","0","3","1","1,0.5,0,1,0.5,0,0.5,0,1","1,0.5,0,1,0.5,0,0.5,0,1","1","",""
"","html-keyboard-response","41","191257","0.0-41.0","3YJ6NA41JC2L4EMH18TEMY5FAAWJPZ","A1K2R6FBPUA5TQ","37SDSEDIN9ORHL92Y0GV7TIFJ2X187","","null","<img src=""img/food4.png"" style=""width:200px;border:14px solid red;"">","null","","","","","","","","","",""
"","image-keyboard-response","42","192013","0.0-42.0","3YJ6NA41JC2L4EMH18TEMY5FAAWJPZ","A1K2R6FBPUA5TQ","37SDSEDIN9ORHL92Y0GV7TIFJ2X187","","746","img/food5.png","74","756","1","1","1","1","1,0.5,0,1,0.5,0,0.5,0,1","1,0.5,0,1,0.5,0,0.5,0,1","1","",""
"","html-keyboard-response","43","192323","0.0-43.0","3YJ6NA41JC2L4EMH18TEMY5FAAWJPZ","A1K2R6FBPUA5TQ","37SDSEDIN9ORHL92Y0GV7TIFJ2X187","","null","<img src=""img/food5.png"" style=""width:200px; border:14px solid green;"">","null","","","","","","","","","",""
"","image-keyboard-response","44","192820","0.0-44.0","3YJ6NA41JC2L4EMH18TEMY5FAAWJPZ","A1K2R6FBPUA5TQ","37SDSEDIN9ORHL92Y0GV7TIFJ2X187","","486","img/food6.png","74","496.0000000000291","1","1","2","1","1,0.5,0,1,0.5,0,0.5,0,1","1,0.5,0,1,0.5,0,0.5,0,1","1","",""
"","html-keyboard-response","45","193129","0.0-45.0","3YJ6NA41JC2L4EMH18TEMY5FAAWJPZ","A1K2R6FBPUA5TQ","37SDSEDIN9ORHL92Y0GV7TIFJ2X187","","null","<img src=""img/food6.png"" style=""width:200px; border:14px solid green;"">","null","","","","","","","","","",""
"","image-keyboard-response","46","193615","0.0-46.0","3YJ6NA41JC2L4EMH18TEMY5FAAWJPZ","A1K2R6FBPUA5TQ","37SDSEDIN9ORHL92Y0GV7TIFJ2X187","","475","img/food5.png","74","485","1","1","1","1","1,0.5,0,1,0.5,0,0.5,0,1","1,0.5,0,1,0.5,0,0.5,0,1","1","",""
"","html-keyboard-response","47","193924","0.0-47.0","3YJ6NA41JC2L4EMH18TEMY5FAAWJPZ","A1K2R6FBPUA5TQ","37SDSEDIN9ORHL92Y0GV7TIFJ2X187","","null","<img src=""img/food5.png"" style=""width:200px; border:14px solid green;"">","null","","","","","","","","","",""
"","image-keyboard-response","48","194373","0.0-48.0","3YJ6NA41JC2L4EMH18TEMY5FAAWJPZ","A1K2R6FBPUA5TQ","37SDSEDIN9ORHL92Y0GV7TIFJ2X187","","439","img/food4.png","74","449","1","1","3","1","1,0.5,0,1,0.5,0,0.5,0,1","1,0.5,0,1,0.5,0,0.5,0,1","1","",""
"","html-keyboard-response","49","194683","0.0-49.0","3YJ6NA41JC2L4EMH18TEMY5FAAWJPZ","A1K2R6FBPUA5TQ","37SDSEDIN9ORHL92Y0GV7TIFJ2X187","","null","<img src=""img/food4.png"" style=""width:200px; border:14px solid green;"">","null","","","","","","","","","",""
"","image-keyboard-response","50","195210","0.0-50.0","3YJ6NA41JC2L4EMH18TEMY5FAAWJPZ","A1K2R6FBPUA5TQ","37SDSEDIN9ORHL92Y0GV7TIFJ2X187","","516","img/food6.png","74","526","1","1","2","1","1,0.5,0,1,0.5,0,0.5,0,1","1,0.5,0,1,0.5,0,0.5,0,1","1","",""
"","html-keyboard-response","51","195519","0.0-51.0","3YJ6NA41JC2L4EMH18TEMY5FAAWJPZ","A1K2R6FBPUA5TQ","37SDSEDIN9ORHL92Y0GV7TIFJ2X187","","null","<img src=""img/food6.png"" style=""width:200px; border:14px solid green;"">","null","","","","","","","","","",""
"","image-keyboard-response","52","195947","0.0-52.0","3YJ6NA41JC2L4EMH18TEMY5FAAWJPZ","A1K2R6FBPUA5TQ","37SDSEDIN9ORHL92Y0GV7TIFJ2X187","","417","img/food6.png","74","427","1","1","2","1","1,0.5,0,1,0.5,0,0.5,0,1","1,0.5,0,1,0.5,0,0.5,0,1","1","",""
"","html-keyboard-response","53","196257","0.0-53.0","3YJ6NA41JC2L4EMH18TEMY5FAAWJPZ","A1K2R6FBPUA5TQ","37SDSEDIN9ORHL92Y0GV7TIFJ2X187","","null","<img src=""img/food6.png"" style=""width:200px; border:14px solid green;"">","null","","","","","","","","","",""
"","image-keyboard-response","54","196825","0.0-54.0","3YJ6NA41JC2L4EMH18TEMY5FAAWJPZ","A1K2R6FBPUA5TQ","37SDSEDIN9ORHL92Y0GV7TIFJ2X187","","559","img/food5.png","74","568.0000000000291","1","1","1","1","1,0.5,0,1,0.5,0,0.5,0,1","1,0.5,0,1,0.5,0,0.5,0,1","1","",""
"","html-keyboard-response","55","197136","0.0-55.0","3YJ6NA41JC2L4EMH18TEMY5FAAWJPZ","A1K2R6FBPUA5TQ","37SDSEDIN9ORHL92Y0GV7TIFJ2X187","","null","<img src=""img/food5.png"" style=""width:200px; border:14px solid green;"">","null","","","","","","","","","",""
"","image-keyboard-response","56","197661","0.0-56.0","3YJ6NA41JC2L4EMH18TEMY5FAAWJPZ","A1K2R6FBPUA5TQ","37SDSEDIN9ORHL92Y0GV7TIFJ2X187","","515","img/food6.png","74","525","1","1","2","1","1,0.5,0,1,0.5,0,0.5,0,1","1,0.5,0,1,0.5,0,0.5,0,1","1","",""
"","html-keyboard-response","57","197971","0.0-57.0","3YJ6NA41JC2L4EMH18TEMY5FAAWJPZ","A1K2R6FBPUA5TQ","37SDSEDIN9ORHL92Y0GV7TIFJ2X187","","null","<img src=""img/food6.png"" style=""width:200px; border:14px solid green;"">","null","","","","","","","","","",""
"","image-keyboard-response","58","198421","0.0-58.0","3YJ6NA41JC2L4EMH18TEMY5FAAWJPZ","A1K2R6FBPUA5TQ","37SDSEDIN9ORHL92Y0GV7TIFJ2X187","","440","img/food5.png","74","450","1","1","1","1","1,0.5,0,1,0.5,0,0.5,0,1","1,0.5,0,1,0.5,0,0.5,0,1","1","",""
"","html-keyboard-response","59","198731","0.0-59.0","3YJ6NA41JC2L4EMH18TEMY5FAAWJPZ","A1K2R6FBPUA5TQ","37SDSEDIN9ORHL92Y0GV7TIFJ2X187","","null","<img src=""img/food5.png"" style=""width:200px; border:14px solid green;"">","null","","","","","","","","","",""
"","image-keyboard-response","60","199166","0.0-60.0","3YJ6NA41JC2L4EMH18TEMY5FAAWJPZ","A1K2R6FBPUA5TQ","37SDSEDIN9ORHL92Y0GV7TIFJ2X187","","425","img/food4.png","74","435","1","0","3","1","1,0.5,0,1,0.5,0,0.5,0,1","1,0.5,0,1,0.5,0,0.5,0,1","1","",""
"","html-keyboard-response","61","199476","0.0-61.0","3YJ6NA41JC2L4EMH18TEMY5FAAWJPZ","A1K2R6FBPUA5TQ","37SDSEDIN9ORHL92Y0GV7TIFJ2X187","","null","<img src=""img/food4.png"" style=""width:200px;border:14px solid red;"">","null","","","","","","","","","",""
"","image-keyboard-response","62","200014","0.0-62.0","3YJ6NA41JC2L4EMH18TEMY5FAAWJPZ","A1K2R6FBPUA5TQ","37SDSEDIN9ORHL92Y0GV7TIFJ2X187","","528","img/food6.png","74","538","1","1","2","1","1,0.5,0,1,0.5,0,0.5,0,1","1,0.5,0,1,0.5,0,0.5,0,1","1","",""
"","html-keyboard-response","63","200324","0.0-63.0","3YJ6NA41JC2L4EMH18TEMY5FAAWJPZ","A1K2R6FBPUA5TQ","37SDSEDIN9ORHL92Y0GV7TIFJ2X187","","null","<img src=""img/food6.png"" style=""width:200px; border:14px solid green;"">","null","","","","","","","","","",""
"","image-keyboard-response","64","200760","0.0-64.0","3YJ6NA41JC2L4EMH18TEMY5FAAWJPZ","A1K2R6FBPUA5TQ","37SDSEDIN9ORHL92Y0GV7TIFJ2X187","","426","img/food5.png","74","436","1","1","1","1","1,0.5,0,1,0.5,0,0.5,0,1","1,0.5,0,1,0.5,0,0.5,0,1","1","",""
"","html-keyboard-response","65","201070","0.0-65.0","3YJ6NA41JC2L4EMH18TEMY5FAAWJPZ","A1K2R6FBPUA5TQ","37SDSEDIN9ORHL92Y0GV7TIFJ2X187","","null","<img src=""img/food5.png"" style=""width:200px; border:14px solid green;"">","null","","","","","","","","","",""
"","image-keyboard-response","66","201436","0.0-66.0","3YJ6NA41JC2L4EMH18TEMY5FAAWJPZ","A1K2R6FBPUA5TQ","37SDSEDIN9ORHL92Y0GV7TIFJ2X187","","355","img/food5.png","74","365","1","1","1","1","1,0.5,0,1,0.5,0,0.5,0,1","1,0.5,0,1,0.5,0,0.5,0,1","1","",""
"","html-keyboard-response","67","201747","0.0-67.0","3YJ6NA41JC2L4EMH18TEMY5FAAWJPZ","A1K2R6FBPUA5TQ","37SDSEDIN9ORHL92Y0GV7TIFJ2X187","","null","<img src=""img/food5.png"" style=""width:200px; border:14px solid green;"">","null","","","","","","","","","",""
"","image-keyboard-response","68","202120","0.0-68.0","3YJ6NA41JC2L4EMH18TEMY5FAAWJPZ","A1K2R6FBPUA5TQ","37SDSEDIN9ORHL92Y0GV7TIFJ2X187","","364","img/food5.png","74","373","1","1","1","1","1,0.5,0,1,0.5,0,0.5,0,1","1,0.5,0,1,0.5,0,0.5,0,1","1","",""
"","html-keyboard-response","69","202431","0.0-69.0","3YJ6NA41JC2L4EMH18TEMY5FAAWJPZ","A1K2R6FBPUA5TQ","37SDSEDIN9ORHL92Y0GV7TIFJ2X187","","null","<img src=""img/food5.png"" style=""width:200px; border:14px solid green;"">","null","","","","","","","","","",""
"","image-keyboard-response","70","202874","0.0-70.0","3YJ6NA41JC2L4EMH18TEMY5FAAWJPZ","A1K2R6FBPUA5TQ","37SDSEDIN9ORHL92Y0GV7TIFJ2X187","","433.0000000000291","img/food6.png","74","443","1","1","2","1","1,0.5,0,1,0.5,0,0.5,0,1","1,0.5,0,1,0.5,0,0.5,0,1","1","",""
"","html-keyboard-response","71","203184","0.0-71.0","3YJ6NA41JC2L4EMH18TEMY5FAAWJPZ","A1K2R6FBPUA5TQ","37SDSEDIN9ORHL92Y0GV7TIFJ2X187","","null","<img src=""img/food6.png"" style=""width:200px; border:14px solid green;"">","null","","","","","","","","","",""
"","image-keyboard-response","72","203679","0.0-72.0","3YJ6NA41JC2L4EMH18TEMY5FAAWJPZ","A1K2R6FBPUA5TQ","37SDSEDIN9ORHL92Y0GV7TIFJ2X187","","485","img/food5.png","74","495","1","1","1","1","1,0.5,0,1,0.5,0,0.5,0,1","1,0.5,0,1,0.5,0,0.5,0,1","1","",""
"","html-keyboard-response","73","203989","0.0-73.0","3YJ6NA41JC2L4EMH18TEMY5FAAWJPZ","A1K2R6FBPUA5TQ","37SDSEDIN9ORHL92Y0GV7TIFJ2X187","","null","<img src=""img/food5.png"" style=""width:200px; border:14px solid green;"">","null","","","","","","","","","",""
"","image-keyboard-response","74","204414","0.0-74.0","3YJ6NA41JC2L4EMH18TEMY5FAAWJPZ","A1K2R6FBPUA5TQ","37SDSEDIN9ORHL92Y0GV7TIFJ2X187","","414.9999999999709","img/food6.png","74","425.0000000000291","1","1","2","1","1,0.5,0,1,0.5,0,0.5,0,1","1,0.5,0,1,0.5,0,0.5,0,1","1","",""
"","html-keyboard-response","75","204723","0.0-75.0","3YJ6NA41JC2L4EMH18TEMY5FAAWJPZ","A1K2R6FBPUA5TQ","37SDSEDIN9ORHL92Y0GV7TIFJ2X187","","null","<img src=""img/food6.png"" style=""width:200px; border:14px solid green;"">","null","","","","","","","","","",""
"","image-keyboard-response","76","205124","0.0-76.0","3YJ6NA41JC2L4EMH18TEMY5FAAWJPZ","A1K2R6FBPUA5TQ","37SDSEDIN9ORHL92Y0GV7TIFJ2X187","","391.0000000000291","img/food6.png","74","401","1","1","2","1","1,0.5,0,1,0.5,0,0.5,0,1","1,0.5,0,1,0.5,0,0.5,0,1","1","",""
"","html-keyboard-response","77","205434","0.0-77.0","3YJ6NA41JC2L4EMH18TEMY5FAAWJPZ","A1K2R6FBPUA5TQ","37SDSEDIN9ORHL92Y0GV7TIFJ2X187","","null","<img src=""img/food6.png"" style=""width:200px; border:14px solid green;"">","null","","","","","","","","","",""
"","image-keyboard-response","78","206039","0.0-78.0","3YJ6NA41JC2L4EMH18TEMY5FAAWJPZ","A1K2R6FBPUA5TQ","37SDSEDIN9ORHL92Y0GV7TIFJ2X187","","595","img/food4.png","75","605.0000000000291","2","0","3","1","1,0.5,0,1,0.5,0,0.5,0,1","1,0.5,0,1,0.5,0,0.5,0,1","1","",""
"","html-keyboard-response","79","206349","0.0-79.0","3YJ6NA41JC2L4EMH18TEMY5FAAWJPZ","A1K2R6FBPUA5TQ","37SDSEDIN9ORHL92Y0GV7TIFJ2X187","","null","<img src=""img/food4.png"" style=""width:200px;border:14px solid red;"">","null","","","","","","","","","",""
"","image-keyboard-response","80","207472","0.0-80.0","3YJ6NA41JC2L4EMH18TEMY5FAAWJPZ","A1K2R6FBPUA5TQ","37SDSEDIN9ORHL92Y0GV7TIFJ2X187","","1114","img/food4.png","76","1122.999999999971","3","1","3","1","1,0.5,0,1,0.5,0,0.5,0,1","1,0.5,0,1,0.5,0,0.5,0,1","1","",""
"","html-keyboard-response","81","207782","0.0-81.0","3YJ6NA41JC2L4EMH18TEMY5FAAWJPZ","A1K2R6FBPUA5TQ","37SDSEDIN9ORHL92Y0GV7TIFJ2X187","","null","<img src=""img/food4.png"" style=""width:200px; border:14px solid green;"">","null","","","","","","","","","",""
"","image-keyboard-response","82","208640","0.0-82.0","3YJ6NA41JC2L4EMH18TEMY5FAAWJPZ","A1K2R6FBPUA5TQ","37SDSEDIN9ORHL92Y0GV7TIFJ2X187","","847","img/food5.png","74","858","1","1","1","1","1,0.5,0,1,0.5,0,0.5,0,1","1,0.5,0,1,0.5,0,0.5,0,1","1","",""
"","html-keyboard-response","83","208948","0.0-83.0","3YJ6NA41JC2L4EMH18TEMY5FAAWJPZ","A1K2R6FBPUA5TQ","37SDSEDIN9ORHL92Y0GV7TIFJ2X187","","null","<img src=""img/food5.png"" style=""width:200px; border:14px solid green;"">","null","","","","","","","","","",""
"","image-keyboard-response","84","209308","0.0-84.0","3YJ6NA41JC2L4EMH18TEMY5FAAWJPZ","A1K2R6FBPUA5TQ","37SDSEDIN9ORHL92Y0GV7TIFJ2X187","","352.0000000000291","img/food5.png","74","360","1","1","1","1","1,0.5,0,1,0.5,0,0.5,0,1","1,0.5,0,1,0.5,0,0.5,0,1","1","",""
"","html-keyboard-response","85","209618","0.0-85.0","3YJ6NA41JC2L4EMH18TEMY5FAAWJPZ","A1K2R6FBPUA5TQ","37SDSEDIN9ORHL92Y0GV7TIFJ2X187","","null","<img src=""img/food5.png"" style=""width:200px; border:14px solid green;"">","null","","","","","","","","","",""
"","image-keyboard-response","86","209964","0.0-86.0","3YJ6NA41JC2L4EMH18TEMY5FAAWJPZ","A1K2R6FBPUA5TQ","37SDSEDIN9ORHL92Y0GV7TIFJ2X187","","336","img/food5.png","74","345","1","1","1","1","1,0.5,0,1,0.5,0,0.5,0,1","1,0.5,0,1,0.5,0,0.5,0,1","1","",""
"","html-keyboard-response","87","210274","0.0-87.0","3YJ6NA41JC2L4EMH18TEMY5FAAWJPZ","A1K2R6FBPUA5TQ","37SDSEDIN9ORHL92Y0GV7TIFJ2X187","","null","<img src=""img/food5.png"" style=""width:200px; border:14px solid green;"">","null","","","","","","","","","",""
"","image-keyboard-response","88","210762","0.0-88.0","3YJ6NA41JC2L4EMH18TEMY5FAAWJPZ","A1K2R6FBPUA5TQ","37SDSEDIN9ORHL92Y0GV7TIFJ2X187","","477.9999999999709","img/food6.png","74","488","1","1","2","1","1,0.5,0,1,0.5,0,0.5,0,1","1,0.5,0,1,0.5,0,0.5,0,1","1","",""
"","html-keyboard-response","89","211072","0.0-89.0","3YJ6NA41JC2L4EMH18TEMY5FAAWJPZ","A1K2R6FBPUA5TQ","37SDSEDIN9ORHL92Y0GV7TIFJ2X187","","null","<img src=""img/food6.png"" style=""width:200px; border:14px solid green;"">","null","","","","","","","","","",""
"","image-keyboard-response","90","211514","0.0-90.0","3YJ6NA41JC2L4EMH18TEMY5FAAWJPZ","A1K2R6FBPUA5TQ","37SDSEDIN9ORHL92Y0GV7TIFJ2X187","","431.9999999999709","img/food5.png","74","441","1","1","1","1","1,0.5,0,1,0.5,0,0.5,0,1","1,0.5,0,1,0.5,0,0.5,0,1","1","",""
"","html-keyboard-response","91","211824","0.0-91.0","3YJ6NA41JC2L4EMH18TEMY5FAAWJPZ","A1K2R6FBPUA5TQ","37SDSEDIN9ORHL92Y0GV7TIFJ2X187","","null","<img src=""img/food5.png"" style=""width:200px; border:14px solid green;"">","null","","","","","","","","","",""
"","image-keyboard-response","92","212804","0.0-92.0","3YJ6NA41JC2L4EMH18TEMY5FAAWJPZ","A1K2R6FBPUA5TQ","37SDSEDIN9ORHL92Y0GV7TIFJ2X187","","970","img/food4.png","76","979","3","1","3","1","1,0.5,0,1,0.5,0,0.5,0,1","1,0.5,0,1,0.5,0,0.5,0,1","1","",""
"","html-keyboard-response","93","213114","0.0-93.0","3YJ6NA41JC2L4EMH18TEMY5FAAWJPZ","A1K2R6FBPUA5TQ","37SDSEDIN9ORHL92Y0GV7TIFJ2X187","","null","<img src=""img/food4.png"" style=""width:200px; border:14px solid green;"">","null","","","","","","","","","",""
"","image-keyboard-response","94","213507","0.0-94.0","3YJ6NA41JC2L4EMH18TEMY5FAAWJPZ","A1K2R6FBPUA5TQ","37SDSEDIN9ORHL92Y0GV7TIFJ2X187","","382","img/food4.png","76","392","3","1","3","1","1,0.5,0,1,0.5,0,0.5,0,1","1,0.5,0,1,0.5,0,0.5,0,1","1","",""
"","html-keyboard-response","95","213817","0.0-95.0","3YJ6NA41JC2L4EMH18TEMY5FAAWJPZ","A1K2R6FBPUA5TQ","37SDSEDIN9ORHL92Y0GV7TIFJ2X187","","null","<img src=""img/food4.png"" style=""width:200px; border:14px solid green;"">","null","","","","","","","","","",""
"","image-keyboard-response","96","214649","0.0-96.0","3YJ6NA41JC2L4EMH18TEMY5FAAWJPZ","A1K2R6FBPUA5TQ","37SDSEDIN9ORHL92Y0GV7TIFJ2X187","","822","img/food6.png","74","832","1","1","2","1","1,0.5,0,1,0.5,0,0.5,0,1","1,0.5,0,1,0.5,0,0.5,0,1","1","",""
"","html-keyboard-response","97","214957","0.0-97.0","3YJ6NA41JC2L4EMH18TEMY5FAAWJPZ","A1K2R6FBPUA5TQ","37SDSEDIN9ORHL92Y0GV7TIFJ2X187","","null","<img src=""img/food6.png"" style=""width:200px; border:14px solid green;"">","null","","","","","","","","","",""
"","image-keyboard-response","98","215979","0.0-98.0","3YJ6NA41JC2L4EMH18TEMY5FAAWJPZ","A1K2R6FBPUA5TQ","37SDSEDIN9ORHL92Y0GV7TIFJ2X187","","1012","img/food4.png","76","1022","3","1","3","1","1,0.5,0,1,0.5,0,0.5,0,1","1,0.5,0,1,0.5,0,0.5,0,1","1","",""
"","html-keyboard-response","99","216289","0.0-99.0","3YJ6NA41JC2L4EMH18TEMY5FAAWJPZ","A1K2R6FBPUA5TQ","37SDSEDIN9ORHL92Y0GV7TIFJ2X187","","null","<img src=""img/food4.png"" style=""width:200px; border:14px solid green;"">","null","","","","","","","","","",""
"","image-keyboard-response","100","216716","0.0-100.0","3YJ6NA41JC2L4EMH18TEMY5FAAWJPZ","A1K2R6FBPUA5TQ","37SDSEDIN9ORHL92Y0GV7TIFJ2X187","","417","img/food4.png","76","425","3","1","3","1","1,0.5,0,1,0.5,0,0.5,0,1","1,0.5,0,1,0.5,0,0.5,0,1","1","",""
"","html-keyboard-response","101","217026","0.0-101.0","3YJ6NA41JC2L4EMH18TEMY5FAAWJPZ","A1K2R6FBPUA5TQ","37SDSEDIN9ORHL92Y0GV7TIFJ2X187","","null","<img src=""img/food4.png"" style=""width:200px; border:14px solid green;"">","null","","","","","","","","","",""
"","image-keyboard-response","102","217580","0.0-102.0","3YJ6NA41JC2L4EMH18TEMY5FAAWJPZ","A1K2R6FBPUA5TQ","37SDSEDIN9ORHL92Y0GV7TIFJ2X187","","544","img/food4.png","76","553","3","1","3","1","1,0.5,0,1,0.5,0,0.5,0,1","1,0.5,0,1,0.5,0,0.5,0,1","1","",""
"","html-keyboard-response","103","217890","0.0-103.0","3YJ6NA41JC2L4EMH18TEMY5FAAWJPZ","A1K2R6FBPUA5TQ","37SDSEDIN9ORHL92Y0GV7TIFJ2X187","","null","<img src=""img/food4.png"" style=""width:200px; border:14px solid green;"">","null","","","","","","","","","",""
"","image-keyboard-response","104","218841","0.0-104.0","3YJ6NA41JC2L4EMH18TEMY5FAAWJPZ","A1K2R6FBPUA5TQ","37SDSEDIN9ORHL92Y0GV7TIFJ2X187","","941","img/food6.png","74","950","1","1","2","1","1,0.5,0,1,0.5,0,0.5,0,1","1,0.5,0,1,0.5,0,0.5,0,1","1","",""
"","html-keyboard-response","105","219151","0.0-105.0","3YJ6NA41JC2L4EMH18TEMY5FAAWJPZ","A1K2R6FBPUA5TQ","37SDSEDIN9ORHL92Y0GV7TIFJ2X187","","null","<img src=""img/food6.png"" style=""width:200px; border:14px solid green;"">","null","","","","","","","","","",""
"","image-keyboard-response","106","219541","0.0-106.0","3YJ6NA41JC2L4EMH18TEMY5FAAWJPZ","A1K2R6FBPUA5TQ","37SDSEDIN9ORHL92Y0GV7TIFJ2X187","","380","img/food6.png","74","390","1","1","2","1","1,0.5,0,1,0.5,0,0.5,0,1","1,0.5,0,1,0.5,0,0.5,0,1","1","",""
"","html-keyboard-response","107","219851","0.0-107.0","3YJ6NA41JC2L4EMH18TEMY5FAAWJPZ","A1K2R6FBPUA5TQ","37SDSEDIN9ORHL92Y0GV7TIFJ2X187","","null","<img src=""img/food6.png"" style=""width:200px; border:14px solid green;"">","null","","","","","","","","","",""
"","image-keyboard-response","108","220303","0.0-108.0","3YJ6NA41JC2L4EMH18TEMY5FAAWJPZ","A1K2R6FBPUA5TQ","37SDSEDIN9ORHL92Y0GV7TIFJ2X187","","444.0000000000291","img/food6.png","74","452","1","1","2","1","1,0.5,0,1,0.5,0,0.5,0,1","1,0.5,0,1,0.5,0,0.5,0,1","1","",""
"","html-keyboard-response","109","220613","0.0-109.0","3YJ6NA41JC2L4EMH18TEMY5FAAWJPZ","A1K2R6FBPUA5TQ","37SDSEDIN9ORHL92Y0GV7TIFJ2X187","","null","<img src=""img/food6.png"" style=""width:200px; border:14px solid green;"">","null","","","","","","","","","",""
"","image-keyboard-response","110","221495","0.0-110.0","3YJ6NA41JC2L4EMH18TEMY5FAAWJPZ","A1K2R6FBPUA5TQ","37SDSEDIN9ORHL92Y0GV7TIFJ2X187","","872","img/food4.png","76","881","3","1","3","1","1,0.5,0,1,0.5,0,0.5,0,1","1,0.5,0,1,0.5,0,0.5,0,1","1","",""
"","html-keyboard-response","111","221805","0.0-111.0","3YJ6NA41JC2L4EMH18TEMY5FAAWJPZ","A1K2R6FBPUA5TQ","37SDSEDIN9ORHL92Y0GV7TIFJ2X187","","null","<img src=""img/food4.png"" style=""width:200px; border:14px solid green;"">","null","","","","","","","","","",""
"","image-keyboard-response","112","222983","0.0-112.0","3YJ6NA41JC2L4EMH18TEMY5FAAWJPZ","A1K2R6FBPUA5TQ","37SDSEDIN9ORHL92Y0GV7TIFJ2X187","","1167","img/food6.png","74","1177","1","1","2","1","1,0.5,0,1,0.5,0,0.5,0,1","1,0.5,0,1,0.5,0,0.5,0,1","1","",""
"","html-keyboard-response","113","223293","0.0-113.0","3YJ6NA41JC2L4EMH18TEMY5FAAWJPZ","A1K2R6FBPUA5TQ","37SDSEDIN9ORHL92Y0GV7TIFJ2X187","","null","<img src=""img/food6.png"" style=""width:200px; border:14px solid green;"">","null","","","","","","","","","",""
"","image-keyboard-response","114","223860","0.0-114.0","3YJ6NA41JC2L4EMH18TEMY5FAAWJPZ","A1K2R6FBPUA5TQ","37SDSEDIN9ORHL92Y0GV7TIFJ2X187","","557.9999999999709","img/food5.png","74","567","1","1","1","1","1,0.5,0,1,0.5,0,0.5,0,1","1,0.5,0,1,0.5,0,0.5,0,1","1","",""
"","html-keyboard-response","115","224169","0.0-115.0","3YJ6NA41JC2L4EMH18TEMY5FAAWJPZ","A1K2R6FBPUA5TQ","37SDSEDIN9ORHL92Y0GV7TIFJ2X187","","null","<img src=""img/food5.png"" style=""width:200px; border:14px solid green;"">","null","","","","","","","","","",""
"","image-keyboard-response","116","225262","0.0-116.0","3YJ6NA41JC2L4EMH18TEMY5FAAWJPZ","A1K2R6FBPUA5TQ","37SDSEDIN9ORHL92Y0GV7TIFJ2X187","","1083","img/food4.png","76","1093","3","1","3","1","1,0.5,0,1,0.5,0,0.5,0,1","1,0.5,0,1,0.5,0,0.5,0,1","1","",""
"","html-keyboard-response","117","225573","0.0-117.0","3YJ6NA41JC2L4EMH18TEMY5FAAWJPZ","A1K2R6FBPUA5TQ","37SDSEDIN9ORHL92Y0GV7TIFJ2X187","","null","<img src=""img/food4.png"" style=""width:200px; border:14px solid green;"">","null","","","","","","","","","",""
"","image-keyboard-response","118","226583","0.0-118.0","3YJ6NA41JC2L4EMH18TEMY5FAAWJPZ","A1K2R6FBPUA5TQ","37SDSEDIN9ORHL92Y0GV7TIFJ2X187","","1000","img/food6.png","74","1009","1","1","2","1","1,0.5,0,1,0.5,0,0.5,0,1","1,0.5,0,1,0.5,0,0.5,0,1","1","",""
"","html-keyboard-response","119","226893","0.0-119.0","3YJ6NA41JC2L4EMH18TEMY5FAAWJPZ","A1K2R6FBPUA5TQ","37SDSEDIN9ORHL92Y0GV7TIFJ2X187","","null","<img src=""img/food6.png"" style=""width:200px; border:14px solid green;"">","null","","","","","","","","","",""
"","image-keyboard-response","120","228172","0.0-120.0","3YJ6NA41JC2L4EMH18TEMY5FAAWJPZ","A1K2R6FBPUA5TQ","37SDSEDIN9ORHL92Y0GV7TIFJ2X187","","1269.000000000029","img/food4.png","76","1278","3","1","3","1","1,0.5,0,1,0.5,0,0.5,0,1","1,0.5,0,1,0.5,0,0.5,0,1","1","",""
"","html-keyboard-response","121","228482","0.0-121.0","3YJ6NA41JC2L4EMH18TEMY5FAAWJPZ","A1K2R6FBPUA5TQ","37SDSEDIN9ORHL92Y0GV7TIFJ2X187","","null","<img src=""img/food4.png"" style=""width:200px; border:14px solid green;"">","null","","","","","","","","","",""
"","image-keyboard-response","122","228902","0.0-122.0","3YJ6NA41JC2L4EMH18TEMY5FAAWJPZ","A1K2R6FBPUA5TQ","37SDSEDIN9ORHL92Y0GV7TIFJ2X187","","409","img/food4.png","76","419","3","1","3","1","1,0.5,0,1,0.5,0,0.5,0,1","1,0.5,0,1,0.5,0,0.5,0,1","1","",""
"","html-keyboard-response","123","229212","0.0-123.0","3YJ6NA41JC2L4EMH18TEMY5FAAWJPZ","A1K2R6FBPUA5TQ","37SDSEDIN9ORHL92Y0GV7TIFJ2X187","","null","<img src=""img/food4.png"" style=""width:200px; border:14px solid green;"">","null","","","","","","","","","",""
"","image-keyboard-response","124","230161","0.0-124.0","3YJ6NA41JC2L4EMH18TEMY5FAAWJPZ","A1K2R6FBPUA5TQ","37SDSEDIN9ORHL92Y0GV7TIFJ2X187","","939","img/food6.png","74","948.9999999999709","1","1","2","1","1,0.5,0,1,0.5,0,0.5,0,1","1,0.5,0,1,0.5,0,0.5,0,1","1","",""
"","html-keyboard-response","125","230471","0.0-125.0","3YJ6NA41JC2L4EMH18TEMY5FAAWJPZ","A1K2R6FBPUA5TQ","37SDSEDIN9ORHL92Y0GV7TIFJ2X187","","null","<img src=""img/food6.png"" style=""width:200px; border:14px solid green;"">","null","","","","","","","","","",""
"","image-keyboard-response","126","231489","0.0-126.0","3YJ6NA41JC2L4EMH18TEMY5FAAWJPZ","A1K2R6FBPUA5TQ","37SDSEDIN9ORHL92Y0GV7TIFJ2X187","","1007.9999999999709","img/food4.png","76","1018","3","1","3","1","1,0.5,0,1,0.5,0,0.5,0,1","1,0.5,0,1,0.5,0,0.5,0,1","1","",""
"","html-keyboard-response","127","231800","0.0-127.0","3YJ6NA41JC2L4EMH18TEMY5FAAWJPZ","A1K2R6FBPUA5TQ","37SDSEDIN9ORHL92Y0GV7TIFJ2X187","","null","<img src=""img/food4.png"" style=""width:200px; border:14px solid green;"">","null","","","","","","","","","",""
"","image-keyboard-response","128","232634","0.0-128.0","3YJ6NA41JC2L4EMH18TEMY5FAAWJPZ","A1K2R6FBPUA5TQ","37SDSEDIN9ORHL92Y0GV7TIFJ2X187","","824","img/food5.png","74","834","1","1","1","1","1,0.5,0,1,0.5,0,0.5,0,1","1,0.5,0,1,0.5,0,0.5,0,1","1","",""
"","html-keyboard-response","129","232945","0.0-129.0","3YJ6NA41JC2L4EMH18TEMY5FAAWJPZ","A1K2R6FBPUA5TQ","37SDSEDIN9ORHL92Y0GV7TIFJ2X187","","null","<img src=""img/food5.png"" style=""width:200px; border:14px solid green;"">","null","","","","","","","","","",""
"","image-keyboard-response","130","233985","0.0-130.0","3YJ6NA41JC2L4EMH18TEMY5FAAWJPZ","A1K2R6FBPUA5TQ","37SDSEDIN9ORHL92Y0GV7TIFJ2X187","","1032.999999999971","img/food4.png","76","1039.999999999971","3","1","3","1","1,0.5,0,1,0.5,0,0.5,0,1","1,0.5,0,1,0.5,0,0.5,0,1","1","",""
"","html-keyboard-response","131","234295","0.0-131.0","3YJ6NA41JC2L4EMH18TEMY5FAAWJPZ","A1K2R6FBPUA5TQ","37SDSEDIN9ORHL92Y0GV7TIFJ2X187","","null","<img src=""img/food4.png"" style=""width:200px; border:14px solid green;"">","null","","","","","","","","","",""
"","image-keyboard-response","132","234760","0.0-132.0","3YJ6NA41JC2L4EMH18TEMY5FAAWJPZ","A1K2R6FBPUA5TQ","37SDSEDIN9ORHL92Y0GV7TIFJ2X187","","454","img/food4.png","76","463.9999999999709","3","1","3","1","1,0.5,0,1,0.5,0,0.5,0,1","1,0.5,0,1,0.5,0,0.5,0,1","1","",""
"","html-keyboard-response","133","235070","0.0-133.0","3YJ6NA41JC2L4EMH18TEMY5FAAWJPZ","A1K2R6FBPUA5TQ","37SDSEDIN9ORHL92Y0GV7TIFJ2X187","","null","<img src=""img/food4.png"" style=""width:200px; border:14px solid green;"">","null","","","","","","","","","",""
"","image-keyboard-response","134","235627","0.0-134.0","3YJ6NA41JC2L4EMH18TEMY5FAAWJPZ","A1K2R6FBPUA5TQ","37SDSEDIN9ORHL92Y0GV7TIFJ2X187","","547","img/food4.png","76","556","3","1","3","1","1,0.5,0,1,0.5,0,0.5,0,1","1,0.5,0,1,0.5,0,0.5,0,1","1","",""
"","html-keyboard-response","135","235937","0.0-135.0","3YJ6NA41JC2L4EMH18TEMY5FAAWJPZ","A1K2R6FBPUA5TQ","37SDSEDIN9ORHL92Y0GV7TIFJ2X187","","null","<img src=""img/food4.png"" style=""width:200px; border:14px solid green;"">","null","","","","","","","","","",""
"","image-keyboard-response","136","236964","0.0-136.0","3YJ6NA41JC2L4EMH18TEMY5FAAWJPZ","A1K2R6FBPUA5TQ","37SDSEDIN9ORHL92Y0GV7TIFJ2X187","","1017","img/food6.png","74","1027","1","1","2","1","1,0.5,0,1,0.5,0,0.5,0,1","1,0.5,0,1,0.5,0,0.5,0,1","1","",""
"","html-keyboard-response","137","237274","0.0-137.0","3YJ6NA41JC2L4EMH18TEMY5FAAWJPZ","A1K2R6FBPUA5TQ","37SDSEDIN9ORHL92Y0GV7TIFJ2X187","","null","<img src=""img/food6.png"" style=""width:200px; border:14px solid green;"">","null","","","","","","","","","",""
"","image-keyboard-response","138","237916","0.0-138.0","3YJ6NA41JC2L4EMH18TEMY5FAAWJPZ","A1K2R6FBPUA5TQ","37SDSEDIN9ORHL92Y0GV7TIFJ2X187","","631.9999999999709","img/food5.png","74","642","1","1","1","1","1,0.5,0,1,0.5,0,0.5,0,1","1,0.5,0,1,0.5,0,0.5,0,1","1","",""
"","html-keyboard-response","139","238227","0.0-139.0","3YJ6NA41JC2L4EMH18TEMY5FAAWJPZ","A1K2R6FBPUA5TQ","37SDSEDIN9ORHL92Y0GV7TIFJ2X187","","null","<img src=""img/food5.png"" style=""width:200px; border:14px solid green;"">","null","","","","","","","","","",""
"","image-keyboard-response","140","238723","0.0-140.0","3YJ6NA41JC2L4EMH18TEMY5FAAWJPZ","A1K2R6FBPUA5TQ","37SDSEDIN9ORHL92Y0GV7TIFJ2X187","","485.9999999999709","img/food6.png","74","496","1","1","2","1","1,0.5,0,1,0.5,0,0.5,0,1","1,0.5,0,1,0.5,0,0.5,0,1","1","",""
"","html-keyboard-response","141","239034","0.0-141.0","3YJ6NA41JC2L4EMH18TEMY5FAAWJPZ","A1K2R6FBPUA5TQ","37SDSEDIN9ORHL92Y0GV7TIFJ2X187","","null","<img src=""img/food6.png"" style=""width:200px; border:14px solid green;"">","null","","","","","","","","","",""
"","image-keyboard-response","142","239772","0.0-142.0","3YJ6NA41JC2L4EMH18TEMY5FAAWJPZ","A1K2R6FBPUA5TQ","37SDSEDIN9ORHL92Y0GV7TIFJ2X187","","733","img/food4.png","76","737.9999999999709","3","1","3","1","1,0.5,0,1,0.5,0,0.5,0,1","1,0.5,0,1,0.5,0,0.5,0,1","1","",""
"","html-keyboard-response","143","240082","0.0-143.0","3YJ6NA41JC2L4EMH18TEMY5FAAWJPZ","A1K2R6FBPUA5TQ","37SDSEDIN9ORHL92Y0GV7TIFJ2X187","","null","<img src=""img/food4.png"" style=""width:200px; border:14px solid green;"">","null","","","","","","","","","",""
"","image-keyboard-response","144","240833","0.0-144.0","3YJ6NA41JC2L4EMH18TEMY5FAAWJPZ","A1K2R6FBPUA5TQ","37SDSEDIN9ORHL92Y0GV7TIFJ2X187","","741","img/food5.png","74","751","1","1","1","1","1,0.5,0,1,0.5,0,0.5,0,1","1,0.5,0,1,0.5,0,0.5,0,1","1","",""
"","html-keyboard-response","145","241143","0.0-145.0","3YJ6NA41JC2L4EMH18TEMY5FAAWJPZ","A1K2R6FBPUA5TQ","37SDSEDIN9ORHL92Y0GV7TIFJ2X187","","null","<img src=""img/food5.png"" style=""width:200px; border:14px solid green;"">","null","","","","","","","","","",""
"","image-keyboard-response","146","241750","0.0-146.0","3YJ6NA41JC2L4EMH18TEMY5FAAWJPZ","A1K2R6FBPUA5TQ","37SDSEDIN9ORHL92Y0GV7TIFJ2X187","","596.9999999999709","img/food6.png","74","607","1","1","2","1","1,0.5,0,1,0.5,0,0.5,0,1","1,0.5,0,1,0.5,0,0.5,0,1","1","",""
"","html-keyboard-response","147","242060","0.0-147.0","3YJ6NA41JC2L4EMH18TEMY5FAAWJPZ","A1K2R6FBPUA5TQ","37SDSEDIN9ORHL92Y0GV7TIFJ2X187","","null","<img src=""img/food6.png"" style=""width:200px; border:14px solid green;"">","null","","","","","","","","","",""
"","image-keyboard-response","148","242669","0.0-148.0","3YJ6NA41JC2L4EMH18TEMY5FAAWJPZ","A1K2R6FBPUA5TQ","37SDSEDIN9ORHL92Y0GV7TIFJ2X187","","598","img/food5.png","74","609","1","1","1","1","1,0.5,0,1,0.5,0,0.5,0,1","1,0.5,0,1,0.5,0,0.5,0,1","1","",""
"","html-keyboard-response","149","242980","0.0-149.0","3YJ6NA41JC2L4EMH18TEMY5FAAWJPZ","A1K2R6FBPUA5TQ","37SDSEDIN9ORHL92Y0GV7TIFJ2X187","","null","<img src=""img/food5.png"" style=""width:200px; border:14px solid green;"">","null","","","","","","","","","",""
"","image-keyboard-response","150","243802","0.0-150.0","3YJ6NA41JC2L4EMH18TEMY5FAAWJPZ","A1K2R6FBPUA5TQ","37SDSEDIN9ORHL92Y0GV7TIFJ2X187","","813.0000000000291","img/food4.png","76","821","3","1","3","1","1,0.5,0,1,0.5,0,0.5,0,1","1,0.5,0,1,0.5,0,0.5,0,1","1","",""
"","html-keyboard-response","151","244113","0.0-151.0","3YJ6NA41JC2L4EMH18TEMY5FAAWJPZ","A1K2R6FBPUA5TQ","37SDSEDIN9ORHL92Y0GV7TIFJ2X187","","null","<img src=""img/food4.png"" style=""width:200px; border:14px solid green;"">","null","","","","","","","","","",""
"","image-keyboard-response","152","244568","0.0-152.0","3YJ6NA41JC2L4EMH18TEMY5FAAWJPZ","A1K2R6FBPUA5TQ","37SDSEDIN9ORHL92Y0GV7TIFJ2X187","","446","img/food4.png","76","456","3","1","3","1","1,0.5,0,1,0.5,0,0.5,0,1","1,0.5,0,1,0.5,0,0.5,0,1","1","",""
"","html-keyboard-response","153","244879","0.0-153.0","3YJ6NA41JC2L4EMH18TEMY5FAAWJPZ","A1K2R6FBPUA5TQ","37SDSEDIN9ORHL92Y0GV7TIFJ2X187","","null","<img src=""img/food4.png"" style=""width:200px; border:14px solid green;"">","null","","","","","","","","","",""
"","image-keyboard-response","154","245710","0.0-154.0","3YJ6NA41JC2L4EMH18TEMY5FAAWJPZ","A1K2R6FBPUA5TQ","37SDSEDIN9ORHL92Y0GV7TIFJ2X187","","821","img/food5.png","74","830.9999999999709","1","1","1","1","1,0.5,0,1,0.5,0,0.5,0,1","1,0.5,0,1,0.5,0,0.5,0,1","1","",""
"","html-keyboard-response","155","246020","0.0-155.0","3YJ6NA41JC2L4EMH18TEMY5FAAWJPZ","A1K2R6FBPUA5TQ","37SDSEDIN9ORHL92Y0GV7TIFJ2X187","","null","<img src=""img/food5.png"" style=""width:200px; border:14px solid green;"">","null","","","","","","","","","",""
"","image-keyboard-response","156","246434","0.0-156.0","3YJ6NA41JC2L4EMH18TEMY5FAAWJPZ","A1K2R6FBPUA5TQ","37SDSEDIN9ORHL92Y0GV7TIFJ2X187","","404","img/food5.png","74","414","1","1","1","1","1,0.5,0,1,0.5,0,0.5,0,1","1,0.5,0,1,0.5,0,0.5,0,1","1","",""
"","html-keyboard-response","157","246745","0.0-157.0","3YJ6NA41JC2L4EMH18TEMY5FAAWJPZ","A1K2R6FBPUA5TQ","37SDSEDIN9ORHL92Y0GV7TIFJ2X187","","null","<img src=""img/food5.png"" style=""width:200px; border:14px solid green;"">","null","","","","","","","","","",""
"","image-keyboard-response","158","247280","0.0-158.0","3YJ6NA41JC2L4EMH18TEMY5FAAWJPZ","A1K2R6FBPUA5TQ","37SDSEDIN9ORHL92Y0GV7TIFJ2X187","","524.9999999999709","img/food6.png","74","535","1","1","2","1","1,0.5,0,1,0.5,0,0.5,0,1","1,0.5,0,1,0.5,0,0.5,0,1","1","",""
"","html-keyboard-response","159","247591","0.0-159.0","3YJ6NA41JC2L4EMH18TEMY5FAAWJPZ","A1K2R6FBPUA5TQ","37SDSEDIN9ORHL92Y0GV7TIFJ2X187","","null","<img src=""img/food6.png"" style=""width:200px; border:14px solid green;"">","null","","","","","","","","","",""
"","image-keyboard-response","160","247971","0.0-160.0","3YJ6NA41JC2L4EMH18TEMY5FAAWJPZ","A1K2R6FBPUA5TQ","37SDSEDIN9ORHL92Y0GV7TIFJ2X187","","370","img/food6.png","74","380","1","1","2","1","1,0.5,0,1,0.5,0,0.5,0,1","1,0.5,0,1,0.5,0,0.5,0,1","1","",""
"","html-keyboard-response","161","248281","0.0-161.0","3YJ6NA41JC2L4EMH18TEMY5FAAWJPZ","A1K2R6FBPUA5TQ","37SDSEDIN9ORHL92Y0GV7TIFJ2X187","","null","<img src=""img/food6.png"" style=""width:200px; border:14px solid green;"">","null","","","","","","","","","",""
"","image-keyboard-response","162","248685","0.0-162.0","3YJ6NA41JC2L4EMH18TEMY5FAAWJPZ","A1K2R6FBPUA5TQ","37SDSEDIN9ORHL92Y0GV7TIFJ2X187","","394","img/food6.png","74","404","1","1","2","1","1,0.5,0,1,0.5,0,0.5,0,1","1,0.5,0,1,0.5,0,0.5,0,1","1","",""
"","html-keyboard-response","163","248995","0.0-163.0","3YJ6NA41JC2L4EMH18TEMY5FAAWJPZ","A1K2R6FBPUA5TQ","37SDSEDIN9ORHL92Y0GV7TIFJ2X187","","null","<img src=""img/food6.png"" style=""width:200px; border:14px solid green;"">","null","","","","","","","","","",""
"","image-keyboard-response","164","249781","0.0-164.0","3YJ6NA41JC2L4EMH18TEMY5FAAWJPZ","A1K2R6FBPUA5TQ","37SDSEDIN9ORHL92Y0GV7TIFJ2X187","","775.9999999999709","img/food5.png","74","785","1","1","1","1","1,0.5,0,1,0.5,0,0.5,0,1","1,0.5,0,1,0.5,0,0.5,0,1","1","",""
"","html-keyboard-response","165","250091","0.0-165.0","3YJ6NA41JC2L4EMH18TEMY5FAAWJPZ","A1K2R6FBPUA5TQ","37SDSEDIN9ORHL92Y0GV7TIFJ2X187","","null","<img src=""img/food5.png"" style=""width:200px; border:14px solid green;"">","null","","","","","","","","","",""
"","image-keyboard-response","166","250441","0.0-166.0","3YJ6NA41JC2L4EMH18TEMY5FAAWJPZ","A1K2R6FBPUA5TQ","37SDSEDIN9ORHL92Y0GV7TIFJ2X187","","340.9999999999709","img/food5.png","74","350","1","1","1","1","1,0.5,0,1,0.5,0,0.5,0,1","1,0.5,0,1,0.5,0,0.5,0,1","1","",""
"","html-keyboard-response","167","250752","0.0-167.0","3YJ6NA41JC2L4EMH18TEMY5FAAWJPZ","A1K2R6FBPUA5TQ","37SDSEDIN9ORHL92Y0GV7TIFJ2X187","","null","<img src=""img/food5.png"" style=""width:200px; border:14px solid green;"">","null","","","","","","","","","",""
"","image-keyboard-response","168","251095","0.0-168.0","3YJ6NA41JC2L4EMH18TEMY5FAAWJPZ","A1K2R6FBPUA5TQ","37SDSEDIN9ORHL92Y0GV7TIFJ2X187","","333.9999999999709","img/food5.png","74","343","1","1","1","1","1,0.5,0,1,0.5,0,0.5,0,1","1,0.5,0,1,0.5,0,0.5,0,1","1","",""
"","html-keyboard-response","169","251406","0.0-169.0","3YJ6NA41JC2L4EMH18TEMY5FAAWJPZ","A1K2R6FBPUA5TQ","37SDSEDIN9ORHL92Y0GV7TIFJ2X187","","null","<img src=""img/food5.png"" style=""width:200px; border:14px solid green;"">","null","","","","","","","","","",""
"","image-keyboard-response","170","251808","0.0-170.0","3YJ6NA41JC2L4EMH18TEMY5FAAWJPZ","A1K2R6FBPUA5TQ","37SDSEDIN9ORHL92Y0GV7TIFJ2X187","","392.0000000000291","img/food5.png","74","402","1","1","1","1","1,0.5,0,1,0.5,0,0.5,0,1","1,0.5,0,1,0.5,0,0.5,0,1","1","",""
"","html-keyboard-response","171","252119","0.0-171.0","3YJ6NA41JC2L4EMH18TEMY5FAAWJPZ","A1K2R6FBPUA5TQ","37SDSEDIN9ORHL92Y0GV7TIFJ2X187","","null","<img src=""img/food5.png"" style=""width:200px; border:14px solid green;"">","null","","","","","","","","","",""
"","image-keyboard-response","172","253310","0.0-172.0","3YJ6NA41JC2L4EMH18TEMY5FAAWJPZ","A1K2R6FBPUA5TQ","37SDSEDIN9ORHL92Y0GV7TIFJ2X187","","1179.999999999971","img/food4.png","76","1190","3","1","3","1","1,0.5,0,1,0.5,0,0.5,0,1","1,0.5,0,1,0.5,0,0.5,0,1","1","",""
"","html-keyboard-response","173","253620","0.0-173.0","3YJ6NA41JC2L4EMH18TEMY5FAAWJPZ","A1K2R6FBPUA5TQ","37SDSEDIN9ORHL92Y0GV7TIFJ2X187","","null","<img src=""img/food4.png"" style=""width:200px; border:14px solid green;"">","null","","","","","","","","","",""
"","image-keyboard-response","174","254637","0.0-174.0","3YJ6NA41JC2L4EMH18TEMY5FAAWJPZ","A1K2R6FBPUA5TQ","37SDSEDIN9ORHL92Y0GV7TIFJ2X187","","1007","img/food6.png","74","1016.0000000000291","1","1","2","1","1,0.5,0,1,0.5,0,0.5,0,1","1,0.5,0,1,0.5,0,0.5,0,1","1","",""
"","html-keyboard-response","175","254947","0.0-175.0","3YJ6NA41JC2L4EMH18TEMY5FAAWJPZ","A1K2R6FBPUA5TQ","37SDSEDIN9ORHL92Y0GV7TIFJ2X187","","null","<img src=""img/food6.png"" style=""width:200px; border:14px solid green;"">","null","","","","","","","","","",""
"","image-keyboard-response","176","255727","0.0-176.0","3YJ6NA41JC2L4EMH18TEMY5FAAWJPZ","A1K2R6FBPUA5TQ","37SDSEDIN9ORHL92Y0GV7TIFJ2X187","","769","img/food6.png","74","779","1","1","2","1","1,0.5,0,1,0.5,0,0.5,0,1","1,0.5,0,1,0.5,0,0.5,0,1","1","",""
"","html-keyboard-response","177","256035","0.0-177.0","3YJ6NA41JC2L4EMH18TEMY5FAAWJPZ","A1K2R6FBPUA5TQ","37SDSEDIN9ORHL92Y0GV7TIFJ2X187","","null","<img src=""img/food6.png"" style=""width:200px; border:14px solid green;"">","null","","","","","","","","","",""
"","image-keyboard-response","178","257143","0.0-178.0","3YJ6NA41JC2L4EMH18TEMY5FAAWJPZ","A1K2R6FBPUA5TQ","37SDSEDIN9ORHL92Y0GV7TIFJ2X187","","1098.000000000029","img/food4.png","76","1106.999999999971","3","1","3","1","1,0.5,0,1,0.5,0,0.5,0,1","1,0.5,0,1,0.5,0,0.5,0,1","1","",""
"","html-keyboard-response","179","257450","0.0-179.0","3YJ6NA41JC2L4EMH18TEMY5FAAWJPZ","A1K2R6FBPUA5TQ","37SDSEDIN9ORHL92Y0GV7TIFJ2X187","","null","<img src=""img/food4.png"" style=""width:200px; border:14px solid green;"">","null","","","","","","","","","",""
"","image-keyboard-response","180","257953","0.0-180.0","3YJ6NA41JC2L4EMH18TEMY5FAAWJPZ","A1K2R6FBPUA5TQ","37SDSEDIN9ORHL92Y0GV7TIFJ2X187","","495.9999999999709","img/food4.png","76","502","3","1","3","1","1,0.5,0,1,0.5,0,0.5,0,1","1,0.5,0,1,0.5,0,0.5,0,1","1","",""
"","html-keyboard-response","181","258263","0.0-181.0","3YJ6NA41JC2L4EMH18TEMY5FAAWJPZ","A1K2R6FBPUA5TQ","37SDSEDIN9ORHL92Y0GV7TIFJ2X187","","null","<img src=""img/food4.png"" style=""width:200px; border:14px solid green;"">","null","","","","","","","","","",""
"","html-keyboard-response","182","263991","0.0-182.0","3YJ6NA41JC2L4EMH18TEMY5FAAWJPZ","A1K2R6FBPUA5TQ","37SDSEDIN9ORHL92Y0GV7TIFJ2X187","","","","","","","","","","","","","",""
"","instructions","183","273781","0.0-183.0","3YJ6NA41JC2L4EMH18TEMY5FAAWJPZ","A1K2R6FBPUA5TQ","37SDSEDIN9ORHL92Y0GV7TIFJ2X187","[{""page_index"":0,""viewing_time"":8694},{""page_index"":1,""viewing_time"":1094}]","9788","","","","","","","","","","","",""
"","image-keyboard-response","184","274491","0.0-184.0","3YJ6NA41JC2L4EMH18TEMY5FAAWJPZ","A1K2R6FBPUA5TQ","37SDSEDIN9ORHL92Y0GV7TIFJ2X187","","704","img/food2.png","74","710","1","0","3","2","1,0.5,0,1,0.5,0,0.5,0,1","1,0.5,0,1,0.5,0,0.5,0,1","1","false",""
"","html-keyboard-response","185","274802","0.0-185.0","3YJ6NA41JC2L4EMH18TEMY5FAAWJPZ","A1K2R6FBPUA5TQ","37SDSEDIN9ORHL92Y0GV7TIFJ2X187","","null","<img src=""img/food2.png"" style=""width:200px;border:14px solid red;"">","null","","","","","","","","","",""
"","image-keyboard-response","186","275086","0.0-187.0","3YJ6NA41JC2L4EMH18TEMY5FAAWJPZ","A1K2R6FBPUA5TQ","37SDSEDIN9ORHL92Y0GV7TIFJ2X187","","272","img/food2.png","74","283","1","0","3","2","1,0.5,0,1,0.5,0,0.5,0,1","1,0.5,0,1,0.5,0,0.5,0,1","1","false",""
"","html-keyboard-response","187","275396","0.0-188.0","3YJ6NA41JC2L4EMH18TEMY5FAAWJPZ","A1K2R6FBPUA5TQ","37SDSEDIN9ORHL92Y0GV7TIFJ2X187","","null","<img src=""img/food2.png"" style=""width:200px;border:14px solid red;"">","null","","","","","","","","","",""
"","image-keyboard-response","188","275918","0.0-190.0","3YJ6NA41JC2L4EMH18TEMY5FAAWJPZ","A1K2R6FBPUA5TQ","37SDSEDIN9ORHL92Y0GV7TIFJ2X187","","512.0000000000582","img/food3.png","75","522","2","1","1","2","1,0.5,0,1,0.5,0,0.5,0,1","1,0.5,0,1,0.5,0,0.5,0,1","1","false",""
"","html-keyboard-response","189","276229","0.0-191.0","3YJ6NA41JC2L4EMH18TEMY5FAAWJPZ","A1K2R6FBPUA5TQ","37SDSEDIN9ORHL92Y0GV7TIFJ2X187","","null","<img src=""img/food3.png"" style=""width:200px; border:14px solid green;"">","null","","","","","","","","","",""
"","image-keyboard-response","190","276755","0.0-193.0","3YJ6NA41JC2L4EMH18TEMY5FAAWJPZ","A1K2R6FBPUA5TQ","37SDSEDIN9ORHL92Y0GV7TIFJ2X187","","518","img/food1.png","74","526","1","1","2","2","1,0.5,0,1,0.5,0,0.5,0,1","1,0.5,0,1,0.5,0,0.5,0,1","1","false",""
"","html-keyboard-response","191","277065","0.0-194.0","3YJ6NA41JC2L4EMH18TEMY5FAAWJPZ","A1K2R6FBPUA5TQ","37SDSEDIN9ORHL92Y0GV7TIFJ2X187","","null","<img src=""img/food1.png"" style=""width:200px; border:14px solid green;"">","null","","","","","","","","","",""
"","image-keyboard-response","192","277373","0.0-196.0","3YJ6NA41JC2L4EMH18TEMY5FAAWJPZ","A1K2R6FBPUA5TQ","37SDSEDIN9ORHL92Y0GV7TIFJ2X187","","297","img/food2.png","74","306.9999999999418","1","1","3","2","1,0.5,0,1,0.5,0,0.5,0,1","1,0.5,0,1,0.5,0,0.5,0,1","1","false",""
"","html-keyboard-response","193","277684","0.0-197.0","3YJ6NA41JC2L4EMH18TEMY5FAAWJPZ","A1K2R6FBPUA5TQ","37SDSEDIN9ORHL92Y0GV7TIFJ2X187","","null","<img src=""img/food2.png"" style=""width:200px; border:14px solid green;"">","null","","","","","","","","","",""
"","image-keyboard-response","194","278059","0.0-199.0","3YJ6NA41JC2L4EMH18TEMY5FAAWJPZ","A1K2R6FBPUA5TQ","37SDSEDIN9ORHL92Y0GV7TIFJ2X187","","365","img/food3.png","74","375","1","1","1","2","1,0.5,0,1,0.5,0,0.5,0,1","1,0.5,0,1,0.5,0,0.5,0,1","1","false",""
"","html-keyboard-response","195","278369","0.0-200.0","3YJ6NA41JC2L4EMH18TEMY5FAAWJPZ","A1K2R6FBPUA5TQ","37SDSEDIN9ORHL92Y0GV7TIFJ2X187","","null","<img src=""img/food3.png"" style=""width:200px; border:14px solid green;"">","null","","","","","","","","","",""
"","image-keyboard-response","196","278788","0.0-202.0","3YJ6NA41JC2L4EMH18TEMY5FAAWJPZ","A1K2R6FBPUA5TQ","37SDSEDIN9ORHL92Y0GV7TIFJ2X187","","408.0000000000582","img/food2.png","74","418","1","0","3","2","1,0.5,0,1,0.5,0,0.5,0,1","1,0.5,0,1,0.5,0,0.5,0,1","1","false",""
"","html-keyboard-response","197","279098","0.0-203.0","3YJ6NA41JC2L4EMH18TEMY5FAAWJPZ","A1K2R6FBPUA5TQ","37SDSEDIN9ORHL92Y0GV7TIFJ2X187","","null","<img src=""img/food2.png"" style=""width:200px;border:14px solid red;"">","null","","","","","","","","","",""
"","image-keyboard-response","198","279563","0.0-205.0","3YJ6NA41JC2L4EMH18TEMY5FAAWJPZ","A1K2R6FBPUA5TQ","37SDSEDIN9ORHL92Y0GV7TIFJ2X187","","455","img/food1.png","74","465","1","1","2","2","1,0.5,0,1,0.5,0,0.5,0,1","1,0.5,0,1,0.5,0,0.5,0,1","1","false",""
"","html-keyboard-response","199","279873","0.0-206.0","3YJ6NA41JC2L4EMH18TEMY5FAAWJPZ","A1K2R6FBPUA5TQ","37SDSEDIN9ORHL92Y0GV7TIFJ2X187","","null","<img src=""img/food1.png"" style=""width:200px; border:14px solid green;"">","null","","","","","","","","","",""
"","image-keyboard-response","200","280188","0.0-208.0","3YJ6NA41JC2L4EMH18TEMY5FAAWJPZ","A1K2R6FBPUA5TQ","37SDSEDIN9ORHL92Y0GV7TIFJ2X187","","307","img/food1.png","74","314","1","1","2","2","1,0.5,0,1,0.5,0,0.5,0,1","1,0.5,0,1,0.5,0,0.5,0,1","1","false",""
"","html-keyboard-response","201","280496","0.0-209.0","3YJ6NA41JC2L4EMH18TEMY5FAAWJPZ","A1K2R6FBPUA5TQ","37SDSEDIN9ORHL92Y0GV7TIFJ2X187","","null","<img src=""img/food1.png"" style=""width:200px; border:14px solid green;"">","null","","","","","","","","","",""
"","image-keyboard-response","202","280842","0.0-211.0","3YJ6NA41JC2L4EMH18TEMY5FAAWJPZ","A1K2R6FBPUA5TQ","37SDSEDIN9ORHL92Y0GV7TIFJ2X187","","338","img/food1.png","74","344","1","1","2","2","1,0.5,0,1,0.5,0,0.5,0,1","1,0.5,0,1,0.5,0,0.5,0,1","1","false",""
"","html-keyboard-response","203","281152","0.0-212.0","3YJ6NA41JC2L4EMH18TEMY5FAAWJPZ","A1K2R6FBPUA5TQ","37SDSEDIN9ORHL92Y0GV7TIFJ2X187","","null","<img src=""img/food1.png"" style=""width:200px; border:14px solid green;"">","null","","","","","","","","","",""
"","image-keyboard-response","204","281625","0.0-214.0","3YJ6NA41JC2L4EMH18TEMY5FAAWJPZ","A1K2R6FBPUA5TQ","37SDSEDIN9ORHL92Y0GV7TIFJ2X187","","461.9999999999418","img/food2.png","75","472","2","0","3","2","1,0.5,0,1,0.5,0,0.5,0,1","1,0.5,0,1,0.5,0,0.5,0,1","1","false",""
"","html-keyboard-response","205","281934","0.0-215.0","3YJ6NA41JC2L4EMH18TEMY5FAAWJPZ","A1K2R6FBPUA5TQ","37SDSEDIN9ORHL92Y0GV7TIFJ2X187","","null","<img src=""img/food2.png"" style=""width:200px;border:14px solid red;"">","null","","","","","","","","","",""
"","image-keyboard-response","206","282389","0.0-217.0","3YJ6NA41JC2L4EMH18TEMY5FAAWJPZ","A1K2R6FBPUA5TQ","37SDSEDIN9ORHL92Y0GV7TIFJ2X187","","445.0000000000582","img/food3.png","74","455","1","1","1","2","1,0.5,0,1,0.5,0,0.5,0,1","1,0.5,0,1,0.5,0,0.5,0,1","1","false",""
"","html-keyboard-response","207","282699","0.0-218.0","3YJ6NA41JC2L4EMH18TEMY5FAAWJPZ","A1K2R6FBPUA5TQ","37SDSEDIN9ORHL92Y0GV7TIFJ2X187","","null","<img src=""img/food3.png"" style=""width:200px; border:14px solid green;"">","null","","","","","","","","","",""
"","image-keyboard-response","208","282977","0.0-220.0","3YJ6NA41JC2L4EMH18TEMY5FAAWJPZ","A1K2R6FBPUA5TQ","37SDSEDIN9ORHL92Y0GV7TIFJ2X187","","267","img/food3.png","74","277.0000000000582","1","1","1","2","1,0.5,0,1,0.5,0,0.5,0,1","1,0.5,0,1,0.5,0,0.5,0,1","1","false",""
"","html-keyboard-response","209","283287","0.0-221.0","3YJ6NA41JC2L4EMH18TEMY5FAAWJPZ","A1K2R6FBPUA5TQ","37SDSEDIN9ORHL92Y0GV7TIFJ2X187","","null","<img src=""img/food3.png"" style=""width:200px; border:14px solid green;"">","null","","","","","","","","","",""
"","image-keyboard-response","210","283723","0.0-223.0","3YJ6NA41JC2L4EMH18TEMY5FAAWJPZ","A1K2R6FBPUA5TQ","37SDSEDIN9ORHL92Y0GV7TIFJ2X187","","426","img/food3.png","74","434.9999999999418","1","1","1","2","1,0.5,0,1,0.5,0,0.5,0,1","1,0.5,0,1,0.5,0,0.5,0,1","1","false",""
"","html-keyboard-response","211","284031","0.0-224.0","3YJ6NA41JC2L4EMH18TEMY5FAAWJPZ","A1K2R6FBPUA5TQ","37SDSEDIN9ORHL92Y0GV7TIFJ2X187","","null","<img src=""img/food3.png"" style=""width:200px; border:14px solid green;"">","null","","","","","","","","","",""
"","image-keyboard-response","212","284331","0.0-226.0","3YJ6NA41JC2L4EMH18TEMY5FAAWJPZ","A1K2R6FBPUA5TQ","37SDSEDIN9ORHL92Y0GV7TIFJ2X187","","289","img/food1.png","74","299","1","1","2","2","1,0.5,0,1,0.5,0,0.5,0,1","1,0.5,0,1,0.5,0,0.5,0,1","1","false",""
"","html-keyboard-response","213","284641","0.0-227.0","3YJ6NA41JC2L4EMH18TEMY5FAAWJPZ","A1K2R6FBPUA5TQ","37SDSEDIN9ORHL92Y0GV7TIFJ2X187","","null","<img src=""img/food1.png"" style=""width:200px; border:14px solid green;"">","null","","","","","","","","","",""
"","image-keyboard-response","214","285090","0.0-229.0","3YJ6NA41JC2L4EMH18TEMY5FAAWJPZ","A1K2R6FBPUA5TQ","37SDSEDIN9ORHL92Y0GV7TIFJ2X187","","442","img/food3.png","74","448","1","1","1","2","1,0.5,0,1,0.5,0,0.5,0,1","1,0.5,0,1,0.5,0,0.5,0,1","1","false",""
"","html-keyboard-response","215","285400","0.0-230.0","3YJ6NA41JC2L4EMH18TEMY5FAAWJPZ","A1K2R6FBPUA5TQ","37SDSEDIN9ORHL92Y0GV7TIFJ2X187","","null","<img src=""img/food3.png"" style=""width:200px; border:14px solid green;"">","null","","","","","","","","","",""
"","image-keyboard-response","216","285863","0.0-232.0","3YJ6NA41JC2L4EMH18TEMY5FAAWJPZ","A1K2R6FBPUA5TQ","37SDSEDIN9ORHL92Y0GV7TIFJ2X187","","453","img/food2.png","76","462.9999999999418","3","1","3","2","1,0.5,0,1,0.5,0,0.5,0,1","1,0.5,0,1,0.5,0,0.5,0,1","1","false",""
"","html-keyboard-response","217","286173","0.0-233.0","3YJ6NA41JC2L4EMH18TEMY5FAAWJPZ","A1K2R6FBPUA5TQ","37SDSEDIN9ORHL92Y0GV7TIFJ2X187","","null","<img src=""img/food2.png"" style=""width:200px; border:14px solid green;"">","null","","","","","","","","","",""
"","image-keyboard-response","218","286573","0.0-235.0","3YJ6NA41JC2L4EMH18TEMY5FAAWJPZ","A1K2R6FBPUA5TQ","37SDSEDIN9ORHL92Y0GV7TIFJ2X187","","389","img/food3.png","74","398","1","1","1","2","1,0.5,0,1,0.5,0,0.5,0,1","1,0.5,0,1,0.5,0,0.5,0,1","1","false",""
"","html-keyboard-response","219","286883","0.0-236.0","3YJ6NA41JC2L4EMH18TEMY5FAAWJPZ","A1K2R6FBPUA5TQ","37SDSEDIN9ORHL92Y0GV7TIFJ2X187","","null","<img src=""img/food3.png"" style=""width:200px; border:14px solid green;"">","null","","","","","","","","","",""
"","image-keyboard-response","220","287273","0.0-238.0","3YJ6NA41JC2L4EMH18TEMY5FAAWJPZ","A1K2R6FBPUA5TQ","37SDSEDIN9ORHL92Y0GV7TIFJ2X187","","379","img/food3.png","74","389","1","1","1","2","1,0.5,0,1,0.5,0,0.5,0,1","1,0.5,0,1,0.5,0,0.5,0,1","1","false",""
"","html-keyboard-response","221","287584","0.0-239.0","3YJ6NA41JC2L4EMH18TEMY5FAAWJPZ","A1K2R6FBPUA5TQ","37SDSEDIN9ORHL92Y0GV7TIFJ2X187","","null","<img src=""img/food3.png"" style=""width:200px; border:14px solid green;"">","null","","","","","","","","","",""
"","image-keyboard-response","222","288072","0.0-241.0","3YJ6NA41JC2L4EMH18TEMY5FAAWJPZ","A1K2R6FBPUA5TQ","37SDSEDIN9ORHL92Y0GV7TIFJ2X187","","479","img/food1.png","76","488","3","0","2","2","1,0.5,0,1,0.5,0,0.5,0,1","1,0.5,0,1,0.5,0,0.5,0,1","1","false",""
"","html-keyboard-response","223","288382","0.0-242.0","3YJ6NA41JC2L4EMH18TEMY5FAAWJPZ","A1K2R6FBPUA5TQ","37SDSEDIN9ORHL92Y0GV7TIFJ2X187","","null","<img src=""img/food1.png"" style=""width:200px;border:14px solid red;"">","null","","","","","","","","","",""
"","image-keyboard-response","224","288649","0.0-244.0","3YJ6NA41JC2L4EMH18TEMY5FAAWJPZ","A1K2R6FBPUA5TQ","37SDSEDIN9ORHL92Y0GV7TIFJ2X187","","256","img/food3.png","74","266","1","1","1","2","1,0.5,0,1,0.5,0,0.5,0,1","1,0.5,0,1,0.5,0,0.5,0,1","1","false",""
"","html-keyboard-response","225","288959","0.0-245.0","3YJ6NA41JC2L4EMH18TEMY5FAAWJPZ","A1K2R6FBPUA5TQ","37SDSEDIN9ORHL92Y0GV7TIFJ2X187","","null","<img src=""img/food3.png"" style=""width:200px; border:14px solid green;"">","null","","","","","","","","","",""
"","image-keyboard-response","226","289243","0.0-247.0","3YJ6NA41JC2L4EMH18TEMY5FAAWJPZ","A1K2R6FBPUA5TQ","37SDSEDIN9ORHL92Y0GV7TIFJ2X187","","273","img/food1.png","74","282","1","1","2","2","1,0.5,0,1,0.5,0,0.5,0,1","1,0.5,0,1,0.5,0,0.5,0,1","1","false",""
"","html-keyboard-response","227","289556","0.0-248.0","3YJ6NA41JC2L4EMH18TEMY5FAAWJPZ","A1K2R6FBPUA5TQ","37SDSEDIN9ORHL92Y0GV7TIFJ2X187","","null","<img src=""img/food1.png"" style=""width:200px; border:14px solid green;"">","null","","","","","","","","","",""
"","image-keyboard-response","228","289985","0.0-250.0","3YJ6NA41JC2L4EMH18TEMY5FAAWJPZ","A1K2R6FBPUA5TQ","37SDSEDIN9ORHL92Y0GV7TIFJ2X187","","417","img/food3.png","74","428","1","1","1","2","1,0.5,0,1,0.5,0,0.5,0,1","1,0.5,0,1,0.5,0,0.5,0,1","1","false",""
"","html-keyboard-response","229","290296","0.0-251.0","3YJ6NA41JC2L4EMH18TEMY5FAAWJPZ","A1K2R6FBPUA5TQ","37SDSEDIN9ORHL92Y0GV7TIFJ2X187","","null","<img src=""img/food3.png"" style=""width:200px; border:14px solid green;"">","null","","","","","","","","","",""
"","image-keyboard-response","230","290598","0.0-253.0","3YJ6NA41JC2L4EMH18TEMY5FAAWJPZ","A1K2R6FBPUA5TQ","37SDSEDIN9ORHL92Y0GV7TIFJ2X187","","291","img/food1.png","74","301","1","1","2","2","1,0.5,0,1,0.5,0,0.5,0,1","1,0.5,0,1,0.5,0,0.5,0,1","1","false",""
"","html-keyboard-response","231","290909","0.0-254.0","3YJ6NA41JC2L4EMH18TEMY5FAAWJPZ","A1K2R6FBPUA5TQ","37SDSEDIN9ORHL92Y0GV7TIFJ2X187","","null","<img src=""img/food1.png"" style=""width:200px; border:14px solid green;"">","null","","","","","","","","","",""
"","image-keyboard-response","232","291421","0.0-256.0","3YJ6NA41JC2L4EMH18TEMY5FAAWJPZ","A1K2R6FBPUA5TQ","37SDSEDIN9ORHL92Y0GV7TIFJ2X187","","501","img/food2.png","76","512","3","1","3","2","1,0.5,0,1,0.5,0,0.5,0,1","1,0.5,0,1,0.5,0,0.5,0,1","1","false",""
"","html-keyboard-response","233","291731","0.0-257.0","3YJ6NA41JC2L4EMH18TEMY5FAAWJPZ","A1K2R6FBPUA5TQ","37SDSEDIN9ORHL92Y0GV7TIFJ2X187","","null","<img src=""img/food2.png"" style=""width:200px; border:14px solid green;"">","null","","","","","","","","","",""
"","image-keyboard-response","234","292021","0.0-259.0","3YJ6NA41JC2L4EMH18TEMY5FAAWJPZ","A1K2R6FBPUA5TQ","37SDSEDIN9ORHL92Y0GV7TIFJ2X187","","279","img/food3.png","74","289","1","1","1","2","1,0.5,0,1,0.5,0,0.5,0,1","1,0.5,0,1,0.5,0,0.5,0,1","1","false",""
"","html-keyboard-response","235","292331","0.0-260.0","3YJ6NA41JC2L4EMH18TEMY5FAAWJPZ","A1K2R6FBPUA5TQ","37SDSEDIN9ORHL92Y0GV7TIFJ2X187","","null","<img src=""img/food3.png"" style=""width:200px; border:14px solid green;"">","null","","","","","","","","","",""
"","image-keyboard-response","236","292666","0.0-262.0","3YJ6NA41JC2L4EMH18TEMY5FAAWJPZ","A1K2R6FBPUA5TQ","37SDSEDIN9ORHL92Y0GV7TIFJ2X187","","324","img/food3.png","74","334","1","1","1","2","1,0.5,0,1,0.5,0,0.5,0,1","1,0.5,0,1,0.5,0,0.5,0,1","1","false",""
"","html-keyboard-response","237","292976","0.0-263.0","3YJ6NA41JC2L4EMH18TEMY5FAAWJPZ","A1K2R6FBPUA5TQ","37SDSEDIN9ORHL92Y0GV7TIFJ2X187","","null","<img src=""img/food3.png"" style=""width:200px; border:14px solid green;"">","null","","","","","","","","","",""
"","image-keyboard-response","238","293351","0.0-265.0","3YJ6NA41JC2L4EMH18TEMY5FAAWJPZ","A1K2R6FBPUA5TQ","37SDSEDIN9ORHL92Y0GV7TIFJ2X187","","364","img/food1.png","74","372","1","1","2","2","1,0.5,0,1,0.5,0,0.5,0,1","1,0.5,0,1,0.5,0,0.5,0,1","1","false",""
"","html-keyboard-response","239","293661","0.0-266.0","3YJ6NA41JC2L4EMH18TEMY5FAAWJPZ","A1K2R6FBPUA5TQ","37SDSEDIN9ORHL92Y0GV7TIFJ2X187","","null","<img src=""img/food1.png"" style=""width:200px; border:14px solid green;"">","null","","","","","","","","","",""
"","image-keyboard-response","240","294289","0.0-268.0","3YJ6NA41JC2L4EMH18TEMY5FAAWJPZ","A1K2R6FBPUA5TQ","37SDSEDIN9ORHL92Y0GV7TIFJ2X187","","618","img/food2.png","76","625.9999999999418","3","1","3","2","1,0.5,0,1,0.5,0,0.5,0,1","1,0.5,0,1,0.5,0,0.5,0,1","1","false",""
"","html-keyboard-response","241","294599","0.0-269.0","3YJ6NA41JC2L4EMH18TEMY5FAAWJPZ","A1K2R6FBPUA5TQ","37SDSEDIN9ORHL92Y0GV7TIFJ2X187","","null","<img src=""img/food2.png"" style=""width:200px; border:14px solid green;"">","null","","","","","","","","","",""
"","image-keyboard-response","242","294994","0.0-271.0","3YJ6NA41JC2L4EMH18TEMY5FAAWJPZ","A1K2R6FBPUA5TQ","37SDSEDIN9ORHL92Y0GV7TIFJ2X187","","383","img/food3.png","74","394","1","1","1","2","1,0.5,0,1,0.5,0,0.5,0,1","1,0.5,0,1,0.5,0,0.5,0,1","1","false",""
"","html-keyboard-response","243","295304","0.0-272.0","3YJ6NA41JC2L4EMH18TEMY5FAAWJPZ","A1K2R6FBPUA5TQ","37SDSEDIN9ORHL92Y0GV7TIFJ2X187","","null","<img src=""img/food3.png"" style=""width:200px; border:14px solid green;"">","null","","","","","","","","","",""
"","image-keyboard-response","244","295586","0.0-274.0","3YJ6NA41JC2L4EMH18TEMY5FAAWJPZ","A1K2R6FBPUA5TQ","37SDSEDIN9ORHL92Y0GV7TIFJ2X187","","271","img/food1.png","74","280.9999999999418","1","1","2","2","1,0.5,0,1,0.5,0,0.5,0,1","1,0.5,0,1,0.5,0,0.5,0,1","1","false",""
"","html-keyboard-response","245","295896","0.0-275.0","3YJ6NA41JC2L4EMH18TEMY5FAAWJPZ","A1K2R6FBPUA5TQ","37SDSEDIN9ORHL92Y0GV7TIFJ2X187","","null","<img src=""img/food1.png"" style=""width:200px; border:14px solid green;"">","null","","","","","","","","","",""
"","image-keyboard-response","246","296363","0.0-277.0","3YJ6NA41JC2L4EMH18TEMY5FAAWJPZ","A1K2R6FBPUA5TQ","37SDSEDIN9ORHL92Y0GV7TIFJ2X187","","457","img/food2.png","76","466","3","1","3","2","1,0.5,0,1,0.5,0,0.5,0,1","1,0.5,0,1,0.5,0,0.5,0,1","1","false",""
"","html-keyboard-response","247","296673","0.0-278.0","3YJ6NA41JC2L4EMH18TEMY5FAAWJPZ","A1K2R6FBPUA5TQ","37SDSEDIN9ORHL92Y0GV7TIFJ2X187","","null","<img src=""img/food2.png"" style=""width:200px; border:14px solid green;"">","null","","","","","","","","","",""
"","image-keyboard-response","248","296991","0.0-280.0","3YJ6NA41JC2L4EMH18TEMY5FAAWJPZ","A1K2R6FBPUA5TQ","37SDSEDIN9ORHL92Y0GV7TIFJ2X187","","307.0000000000582","img/food1.png","74","315.9999999999418","1","1","2","2","1,0.5,0,1,0.5,0,0.5,0,1","1,0.5,0,1,0.5,0,0.5,0,1","1","false",""
"","html-keyboard-response","249","297300","0.0-281.0","3YJ6NA41JC2L4EMH18TEMY5FAAWJPZ","A1K2R6FBPUA5TQ","37SDSEDIN9ORHL92Y0GV7TIFJ2X187","","null","<img src=""img/food1.png"" style=""width:200px; border:14px solid green;"">","null","","","","","","","","","",""
"","image-keyboard-response","250","297787","0.0-283.0","3YJ6NA41JC2L4EMH18TEMY5FAAWJPZ","A1K2R6FBPUA5TQ","37SDSEDIN9ORHL92Y0GV7TIFJ2X187","","476","img/food2.png","74","485","1","0","3","2","1,0.5,0,1,0.5,0,0.5,0,1","1,0.5,0,1,0.5,0,0.5,0,1","1","false",""
"","html-keyboard-response","251","298098","0.0-284.0","3YJ6NA41JC2L4EMH18TEMY5FAAWJPZ","A1K2R6FBPUA5TQ","37SDSEDIN9ORHL92Y0GV7TIFJ2X187","","null","<img src=""img/food2.png"" style=""width:200px;border:14px solid red;"">","null","","","","","","","","","",""
"","image-keyboard-response","252","298557","0.0-286.0","3YJ6NA41JC2L4EMH18TEMY5FAAWJPZ","A1K2R6FBPUA5TQ","37SDSEDIN9ORHL92Y0GV7TIFJ2X187","","449","img/food1.png","74","458","1","1","2","2","1,0.5,0,1,0.5,0,0.5,0,1","1,0.5,0,1,0.5,0,0.5,0,1","1","false",""
"","html-keyboard-response","253","298868","0.0-287.0","3YJ6NA41JC2L4EMH18TEMY5FAAWJPZ","A1K2R6FBPUA5TQ","37SDSEDIN9ORHL92Y0GV7TIFJ2X187","","null","<img src=""img/food1.png"" style=""width:200px; border:14px solid green;"">","null","","","","","","","","","",""
"","image-keyboard-response","254","299214","0.0-289.0","3YJ6NA41JC2L4EMH18TEMY5FAAWJPZ","A1K2R6FBPUA5TQ","37SDSEDIN9ORHL92Y0GV7TIFJ2X187","","335.9999999999418","img/food1.png","74","345","1","1","2","2","1,0.5,0,1,0.5,0,0.5,0,1","1,0.5,0,1,0.5,0,0.5,0,1","1","false",""
"","html-keyboard-response","255","299524","0.0-290.0","3YJ6NA41JC2L4EMH18TEMY5FAAWJPZ","A1K2R6FBPUA5TQ","37SDSEDIN9ORHL92Y0GV7TIFJ2X187","","null","<img src=""img/food1.png"" style=""width:200px; border:14px solid green;"">","null","","","","","","","","","",""
"","image-keyboard-response","256","299961","0.0-292.0","3YJ6NA41JC2L4EMH18TEMY5FAAWJPZ","A1K2R6FBPUA5TQ","37SDSEDIN9ORHL92Y0GV7TIFJ2X187","","427","img/food2.png","76","436","3","1","3","2","1,0.5,0,1,0.5,0,0.5,0,1","1,0.5,0,1,0.5,0,0.5,0,1","1","false",""
"","html-keyboard-response","257","300268","0.0-293.0","3YJ6NA41JC2L4EMH18TEMY5FAAWJPZ","A1K2R6FBPUA5TQ","37SDSEDIN9ORHL92Y0GV7TIFJ2X187","","null","<img src=""img/food2.png"" style=""width:200px; border:14px solid green;"">","null","","","","","","","","","",""
"","image-keyboard-response","258","300677","0.0-295.0","3YJ6NA41JC2L4EMH18TEMY5FAAWJPZ","A1K2R6FBPUA5TQ","37SDSEDIN9ORHL92Y0GV7TIFJ2X187","","398","img/food3.png","74","407","1","1","1","2","1,0.5,0,1,0.5,0,0.5,0,1","1,0.5,0,1,0.5,0,0.5,0,1","1","false",""
"","html-keyboard-response","259","300987","0.0-296.0","3YJ6NA41JC2L4EMH18TEMY5FAAWJPZ","A1K2R6FBPUA5TQ","37SDSEDIN9ORHL92Y0GV7TIFJ2X187","","null","<img src=""img/food3.png"" style=""width:200px; border:14px solid green;"">","null","","","","","","","","","",""
"","image-keyboard-response","260","301336","0.0-298.0","3YJ6NA41JC2L4EMH18TEMY5FAAWJPZ","A1K2R6FBPUA5TQ","37SDSEDIN9ORHL92Y0GV7TIFJ2X187","","338","img/food3.png","74","348","1","1","1","2","1,0.5,0,1,0.5,0,0.5,0,1","1,0.5,0,1,0.5,0,0.5,0,1","1","false",""
"","html-keyboard-response","261","301647","0.0-299.0","3YJ6NA41JC2L4EMH18TEMY5FAAWJPZ","A1K2R6FBPUA5TQ","37SDSEDIN9ORHL92Y0GV7TIFJ2X187","","null","<img src=""img/food3.png"" style=""width:200px; border:14px solid green;"">","null","","","","","","","","","",""
"","image-keyboard-response","262","302075","0.0-301.0","3YJ6NA41JC2L4EMH18TEMY5FAAWJPZ","A1K2R6FBPUA5TQ","37SDSEDIN9ORHL92Y0GV7TIFJ2X187","","413","img/food2.png","76","423","3","1","3","2","1,0.5,0,1,0.5,0,0.5,0,1","1,0.5,0,1,0.5,0,0.5,0,1","1","false",""
"","html-keyboard-response","263","302385","0.0-302.0","3YJ6NA41JC2L4EMH18TEMY5FAAWJPZ","A1K2R6FBPUA5TQ","37SDSEDIN9ORHL92Y0GV7TIFJ2X187","","null","<img src=""img/food2.png"" style=""width:200px; border:14px solid green;"">","null","","","","","","","","","",""
"","image-keyboard-response","264","302723","0.0-304.0","3YJ6NA41JC2L4EMH18TEMY5FAAWJPZ","A1K2R6FBPUA5TQ","37SDSEDIN9ORHL92Y0GV7TIFJ2X187","","328","img/food1.png","74","338","1","1","2","2","1,0.5,0,1,0.5,0,0.5,0,1","1,0.5,0,1,0.5,0,0.5,0,1","1","false",""
"","html-keyboard-response","265","303034","0.0-305.0","3YJ6NA41JC2L4EMH18TEMY5FAAWJPZ","A1K2R6FBPUA5TQ","37SDSEDIN9ORHL92Y0GV7TIFJ2X187","","null","<img src=""img/food1.png"" style=""width:200px; border:14px solid green;"">","null","","","","","","","","","",""
"","image-keyboard-response","266","303340","0.0-307.0","3YJ6NA41JC2L4EMH18TEMY5FAAWJPZ","A1K2R6FBPUA5TQ","37SDSEDIN9ORHL92Y0GV7TIFJ2X187","","295","img/food1.png","74","305","1","1","2","2","1,0.5,0,1,0.5,0,0.5,0,1","1,0.5,0,1,0.5,0,0.5,0,1","1","false",""
"","html-keyboard-response","267","303650","0.0-308.0","3YJ6NA41JC2L4EMH18TEMY5FAAWJPZ","A1K2R6FBPUA5TQ","37SDSEDIN9ORHL92Y0GV7TIFJ2X187","","null","<img src=""img/food1.png"" style=""width:200px; border:14px solid green;"">","null","","","","","","","","","",""
"","image-keyboard-response","268","304107","0.0-310.0","3YJ6NA41JC2L4EMH18TEMY5FAAWJPZ","A1K2R6FBPUA5TQ","37SDSEDIN9ORHL92Y0GV7TIFJ2X187","","446","img/food2.png","76","455.9999999999418","3","1","3","2","1,0.5,0,1,0.5,0,0.5,0,1","1,0.5,0,1,0.5,0,0.5,0,1","1","false",""
"","html-keyboard-response","269","304416","0.0-311.0","3YJ6NA41JC2L4EMH18TEMY5FAAWJPZ","A1K2R6FBPUA5TQ","37SDSEDIN9ORHL92Y0GV7TIFJ2X187","","null","<img src=""img/food2.png"" style=""width:200px; border:14px solid green;"">","null","","","","","","","","","",""
"","image-keyboard-response","270","304855","0.0-313.0","3YJ6NA41JC2L4EMH18TEMY5FAAWJPZ","A1K2R6FBPUA5TQ","37SDSEDIN9ORHL92Y0GV7TIFJ2X187","","432","img/food2.png","76","438","3","1","3","2","1,0.5,0,1,0.5,0,0.5,0,1","1,0.5,0,1,0.5,0,0.5,0,1","1","false",""
"","html-keyboard-response","271","305165","0.0-314.0","3YJ6NA41JC2L4EMH18TEMY5FAAWJPZ","A1K2R6FBPUA5TQ","37SDSEDIN9ORHL92Y0GV7TIFJ2X187","","null","<img src=""img/food2.png"" style=""width:200px; border:14px solid green;"">","null","","","","","","","","","",""
"","image-keyboard-response","272","305551","0.0-316.0","3YJ6NA41JC2L4EMH18TEMY5FAAWJPZ","A1K2R6FBPUA5TQ","37SDSEDIN9ORHL92Y0GV7TIFJ2X187","","375.9999999999418","img/food3.png","74","386","1","1","1","2","1,0.5,0,1,0.5,0,0.5,0,1","1,0.5,0,1,0.5,0,0.5,0,1","1","false",""
"","html-keyboard-response","273","305862","0.0-317.0","3YJ6NA41JC2L4EMH18TEMY5FAAWJPZ","A1K2R6FBPUA5TQ","37SDSEDIN9ORHL92Y0GV7TIFJ2X187","","null","<img src=""img/food3.png"" style=""width:200px; border:14px solid green;"">","null","","","","","","","","","",""
"","image-keyboard-response","274","306298","0.0-319.0","3YJ6NA41JC2L4EMH18TEMY5FAAWJPZ","A1K2R6FBPUA5TQ","37SDSEDIN9ORHL92Y0GV7TIFJ2X187","","425","img/food2.png","76","435","3","1","3","2","1,0.5,0,1,0.5,0,0.5,0,1","1,0.5,0,1,0.5,0,0.5,0,1","1","false",""
"","html-keyboard-response","275","306608","0.0-320.0","3YJ6NA41JC2L4EMH18TEMY5FAAWJPZ","A1K2R6FBPUA5TQ","37SDSEDIN9ORHL92Y0GV7TIFJ2X187","","null","<img src=""img/food2.png"" style=""width:200px; border:14px solid green;"">","null","","","","","","","","","",""
"","image-keyboard-response","276","307015","0.0-322.0","3YJ6NA41JC2L4EMH18TEMY5FAAWJPZ","A1K2R6FBPUA5TQ","37SDSEDIN9ORHL92Y0GV7TIFJ2X187","","399","img/food1.png","74","406","1","1","2","2","1,0.5,0,1,0.5,0,0.5,0,1","1,0.5,0,1,0.5,0,0.5,0,1","1","false",""
"","html-keyboard-response","277","307325","0.0-323.0","3YJ6NA41JC2L4EMH18TEMY5FAAWJPZ","A1K2R6FBPUA5TQ","37SDSEDIN9ORHL92Y0GV7TIFJ2X187","","null","<img src=""img/food1.png"" style=""width:200px; border:14px solid green;"">","null","","","","","","","","","",""
"","image-keyboard-response","278","307764","0.0-325.0","3YJ6NA41JC2L4EMH18TEMY5FAAWJPZ","A1K2R6FBPUA5TQ","37SDSEDIN9ORHL92Y0GV7TIFJ2X187","","428.0000000000582","img/food3.png","74","438.0000000000582","1","1","1","2","1,0.5,0,1,0.5,0,0.5,0,1","1,0.5,0,1,0.5,0,0.5,0,1","1","false",""
"","html-keyboard-response","279","308073","0.0-326.0","3YJ6NA41JC2L4EMH18TEMY5FAAWJPZ","A1K2R6FBPUA5TQ","37SDSEDIN9ORHL92Y0GV7TIFJ2X187","","null","<img src=""img/food3.png"" style=""width:200px; border:14px solid green;"">","null","","","","","","","","","",""
"","image-keyboard-response","280","308555","0.0-328.0","3YJ6NA41JC2L4EMH18TEMY5FAAWJPZ","A1K2R6FBPUA5TQ","37SDSEDIN9ORHL92Y0GV7TIFJ2X187","","472.0000000000582","img/food1.png","76","482","3","0","2","2","1,0.5,0,1,0.5,0,0.5,0,1","1,0.5,0,1,0.5,0,0.5,0,1","1","false",""
"","html-keyboard-response","281","308865","0.0-329.0","3YJ6NA41JC2L4EMH18TEMY5FAAWJPZ","A1K2R6FBPUA5TQ","37SDSEDIN9ORHL92Y0GV7TIFJ2X187","","null","<img src=""img/food1.png"" style=""width:200px;border:14px solid red;"">","null","","","","","","","","","",""
"","image-keyboard-response","282","308976","0.0-331.0","3YJ6NA41JC2L4EMH18TEMY5FAAWJPZ","A1K2R6FBPUA5TQ","37SDSEDIN9ORHL92Y0GV7TIFJ2X187","","100","img/food1.png","74","110","1","1","2","2","1,0.5,0,1,0.5,0,0.5,0,1","1,0.5,0,1,0.5,0,0.5,0,1","1","false",""
"","html-keyboard-response","283","309286","0.0-332.0","3YJ6NA41JC2L4EMH18TEMY5FAAWJPZ","A1K2R6FBPUA5TQ","37SDSEDIN9ORHL92Y0GV7TIFJ2X187","","null","<img src=""img/food1.png"" style=""width:200px; border:14px solid green;"">","null","","","","","","","","","",""
"","image-keyboard-response","284","309639","0.0-334.0","3YJ6NA41JC2L4EMH18TEMY5FAAWJPZ","A1K2R6FBPUA5TQ","37SDSEDIN9ORHL92Y0GV7TIFJ2X187","","343.0000000000582","img/food1.png","74","351.9999999999418","1","1","2","2","1,0.5,0,1,0.5,0,0.5,0,1","1,0.5,0,1,0.5,0,0.5,0,1","1","false",""
"","html-keyboard-response","285","309949","0.0-335.0","3YJ6NA41JC2L4EMH18TEMY5FAAWJPZ","A1K2R6FBPUA5TQ","37SDSEDIN9ORHL92Y0GV7TIFJ2X187","","null","<img src=""img/food1.png"" style=""width:200px; border:14px solid green;"">","null","","","","","","","","","",""
"","image-keyboard-response","286","310404","0.0-337.0","3YJ6NA41JC2L4EMH18TEMY5FAAWJPZ","A1K2R6FBPUA5TQ","37SDSEDIN9ORHL92Y0GV7TIFJ2X187","","443","img/food3.png","74","453","1","1","1","2","1,0.5,0,1,0.5,0,0.5,0,1","1,0.5,0,1,0.5,0,0.5,0,1","1","false",""
"","html-keyboard-response","287","310714","0.0-338.0","3YJ6NA41JC2L4EMH18TEMY5FAAWJPZ","A1K2R6FBPUA5TQ","37SDSEDIN9ORHL92Y0GV7TIFJ2X187","","null","<img src=""img/food3.png"" style=""width:200px; border:14px solid green;"">","null","","","","","","","","","",""
"","image-keyboard-response","288","311167","0.0-340.0","3YJ6NA41JC2L4EMH18TEMY5FAAWJPZ","A1K2R6FBPUA5TQ","37SDSEDIN9ORHL92Y0GV7TIFJ2X187","","443","img/food2.png","76","453.0000000000582","3","1","3","2","1,0.5,0,1,0.5,0,0.5,0,1","1,0.5,0,1,0.5,0,0.5,0,1","1","false",""
"","html-keyboard-response","289","311478","0.0-341.0","3YJ6NA41JC2L4EMH18TEMY5FAAWJPZ","A1K2R6FBPUA5TQ","37SDSEDIN9ORHL92Y0GV7TIFJ2X187","","null","<img src=""img/food2.png"" style=""width:200px; border:14px solid green;"">","null","","","","","","","","","",""
"","image-keyboard-response","290","311924","0.0-343.0","3YJ6NA41JC2L4EMH18TEMY5FAAWJPZ","A1K2R6FBPUA5TQ","37SDSEDIN9ORHL92Y0GV7TIFJ2X187","","436","img/food2.png","76","446.0000000000582","3","1","3","2","1,0.5,0,1,0.5,0,0.5,0,1","1,0.5,0,1,0.5,0,0.5,0,1","1","false",""
"","html-keyboard-response","291","312235","0.0-344.0","3YJ6NA41JC2L4EMH18TEMY5FAAWJPZ","A1K2R6FBPUA5TQ","37SDSEDIN9ORHL92Y0GV7TIFJ2X187","","null","<img src=""img/food2.png"" style=""width:200px; border:14px solid green;"">","null","","","","","","","","","",""
"","image-keyboard-response","292","312649","0.0-346.0","3YJ6NA41JC2L4EMH18TEMY5FAAWJPZ","A1K2R6FBPUA5TQ","37SDSEDIN9ORHL92Y0GV7TIFJ2X187","","404","img/food3.png","74","414","1","1","1","2","1,0.5,0,1,0.5,0,0.5,0,1","1,0.5,0,1,0.5,0,0.5,0,1","1","false",""
"","html-keyboard-response","293","312960","0.0-347.0","3YJ6NA41JC2L4EMH18TEMY5FAAWJPZ","A1K2R6FBPUA5TQ","37SDSEDIN9ORHL92Y0GV7TIFJ2X187","","null","<img src=""img/food3.png"" style=""width:200px; border:14px solid green;"">","null","","","","","","","","","",""
"","image-keyboard-response","294","313453","0.0-349.0","3YJ6NA41JC2L4EMH18TEMY5FAAWJPZ","A1K2R6FBPUA5TQ","37SDSEDIN9ORHL92Y0GV7TIFJ2X187","","482","img/food2.png","76","492.0000000000582","3","1","3","2","1,0.5,0,1,0.5,0,0.5,0,1","1,0.5,0,1,0.5,0,0.5,0,1","1","false",""
"","html-keyboard-response","295","313764","0.0-350.0","3YJ6NA41JC2L4EMH18TEMY5FAAWJPZ","A1K2R6FBPUA5TQ","37SDSEDIN9ORHL92Y0GV7TIFJ2X187","","null","<img src=""img/food2.png"" style=""width:200px; border:14px solid green;"">","null","","","","","","","","","",""
"","image-keyboard-response","296","314112","0.0-352.0","3YJ6NA41JC2L4EMH18TEMY5FAAWJPZ","A1K2R6FBPUA5TQ","37SDSEDIN9ORHL92Y0GV7TIFJ2X187","","338","img/food3.png","74","347","1","1","1","2","1,0.5,0,1,0.5,0,0.5,0,1","1,0.5,0,1,0.5,0,0.5,0,1","1","false",""
"","html-keyboard-response","297","314423","0.0-353.0","3YJ6NA41JC2L4EMH18TEMY5FAAWJPZ","A1K2R6FBPUA5TQ","37SDSEDIN9ORHL92Y0GV7TIFJ2X187","","null","<img src=""img/food3.png"" style=""width:200px; border:14px solid green;"">","null","","","","","","","","","",""
"","image-keyboard-response","298","314886","0.0-355.0","3YJ6NA41JC2L4EMH18TEMY5FAAWJPZ","A1K2R6FBPUA5TQ","37SDSEDIN9ORHL92Y0GV7TIFJ2X187","","450","img/food2.png","76","460.9999999999418","3","1","3","2","1,0.5,0,1,0.5,0,0.5,0,1","1,0.5,0,1,0.5,0,0.5,0,1","1","false",""
"","html-keyboard-response","299","315197","0.0-356.0","3YJ6NA41JC2L4EMH18TEMY5FAAWJPZ","A1K2R6FBPUA5TQ","37SDSEDIN9ORHL92Y0GV7TIFJ2X187","","null","<img src=""img/food2.png"" style=""width:200px; border:14px solid green;"">","null","","","","","","","","","",""
"","image-keyboard-response","300","315577","0.0-358.0","3YJ6NA41JC2L4EMH18TEMY5FAAWJPZ","A1K2R6FBPUA5TQ","37SDSEDIN9ORHL92Y0GV7TIFJ2X187","","370","img/food1.png","74","380","1","1","2","2","1,0.5,0,1,0.5,0,0.5,0,1","1,0.5,0,1,0.5,0,0.5,0,1","1","false",""
"","html-keyboard-response","301","315887","0.0-359.0","3YJ6NA41JC2L4EMH18TEMY5FAAWJPZ","A1K2R6FBPUA5TQ","37SDSEDIN9ORHL92Y0GV7TIFJ2X187","","null","<img src=""img/food1.png"" style=""width:200px; border:14px solid green;"">","null","","","","","","","","","",""
"","image-keyboard-response","302","316183","0.0-361.0","3YJ6NA41JC2L4EMH18TEMY5FAAWJPZ","A1K2R6FBPUA5TQ","37SDSEDIN9ORHL92Y0GV7TIFJ2X187","","286","img/food1.png","74","294.9999999999418","1","1","2","2","1,0.5,0,1,0.5,0,0.5,0,1","1,0.5,0,1,0.5,0,0.5,0,1","1","false",""
"","html-keyboard-response","303","316494","0.0-362.0","3YJ6NA41JC2L4EMH18TEMY5FAAWJPZ","A1K2R6FBPUA5TQ","37SDSEDIN9ORHL92Y0GV7TIFJ2X187","","null","<img src=""img/food1.png"" style=""width:200px; border:14px solid green;"">","null","","","","","","","","","",""
"","image-keyboard-response","304","316805","0.0-364.0","3YJ6NA41JC2L4EMH18TEMY5FAAWJPZ","A1K2R6FBPUA5TQ","37SDSEDIN9ORHL92Y0GV7TIFJ2X187","","302.0000000000582","img/food1.png","74","311","1","1","2","2","1,0.5,0,1,0.5,0,0.5,0,1","1,0.5,0,1,0.5,0,0.5,0,1","1","false",""
"","html-keyboard-response","305","317116","0.0-365.0","3YJ6NA41JC2L4EMH18TEMY5FAAWJPZ","A1K2R6FBPUA5TQ","37SDSEDIN9ORHL92Y0GV7TIFJ2X187","","null","<img src=""img/food1.png"" style=""width:200px; border:14px solid green;"">","null","","","","","","","","","",""
"","image-keyboard-response","306","317568","0.0-367.0","3YJ6NA41JC2L4EMH18TEMY5FAAWJPZ","A1K2R6FBPUA5TQ","37SDSEDIN9ORHL92Y0GV7TIFJ2X187","","440.9999999999418","img/food2.png","76","452","3","1","3","2","1,0.5,0,1,0.5,0,0.5,0,1","1,0.5,0,1,0.5,0,0.5,0,1","1","false",""
"","html-keyboard-response","307","317878","0.0-368.0","3YJ6NA41JC2L4EMH18TEMY5FAAWJPZ","A1K2R6FBPUA5TQ","37SDSEDIN9ORHL92Y0GV7TIFJ2X187","","null","<img src=""img/food2.png"" style=""width:200px; border:14px solid green;"">","null","","","","","","","","","",""
"","image-keyboard-response","308","318250","0.0-370.0","3YJ6NA41JC2L4EMH18TEMY5FAAWJPZ","A1K2R6FBPUA5TQ","37SDSEDIN9ORHL92Y0GV7TIFJ2X187","","359.9999999999418","img/food2.png","76","370","3","1","3","2","1,0.5,0,1,0.5,0,0.5,0,1","1,0.5,0,1,0.5,0,0.5,0,1","1","false",""
"","html-keyboard-response","309","318561","0.0-371.0","3YJ6NA41JC2L4EMH18TEMY5FAAWJPZ","A1K2R6FBPUA5TQ","37SDSEDIN9ORHL92Y0GV7TIFJ2X187","","null","<img src=""img/food2.png"" style=""width:200px; border:14px solid green;"">","null","","","","","","","","","",""
"","image-keyboard-response","310","318884","0.0-373.0","3YJ6NA41JC2L4EMH18TEMY5FAAWJPZ","A1K2R6FBPUA5TQ","37SDSEDIN9ORHL92Y0GV7TIFJ2X187","","313","img/food2.png","76","321.9999999999418","3","1","3","2","1,0.5,0,1,0.5,0,0.5,0,1","1,0.5,0,1,0.5,0,0.5,0,1","1","false",""
"","html-keyboard-response","311","319194","0.0-374.0","3YJ6NA41JC2L4EMH18TEMY5FAAWJPZ","A1K2R6FBPUA5TQ","37SDSEDIN9ORHL92Y0GV7TIFJ2X187","","null","<img src=""img/food2.png"" style=""width:200px; border:14px solid green;"">","null","","","","","","","","","",""
"","image-keyboard-response","312","319500","0.0-376.0","3YJ6NA41JC2L4EMH18TEMY5FAAWJPZ","A1K2R6FBPUA5TQ","37SDSEDIN9ORHL92Y0GV7TIFJ2X187","","295","img/food2.png","76","305","3","1","3","2","1,0.5,0,1,0.5,0,0.5,0,1","1,0.5,0,1,0.5,0,0.5,0,1","1","false",""
"","html-keyboard-response","313","319811","0.0-377.0","3YJ6NA41JC2L4EMH18TEMY5FAAWJPZ","A1K2R6FBPUA5TQ","37SDSEDIN9ORHL92Y0GV7TIFJ2X187","","null","<img src=""img/food2.png"" style=""width:200px; border:14px solid green;"">","null","","","","","","","","","",""
"","image-keyboard-response","314","320124","0.0-379.0","3YJ6NA41JC2L4EMH18TEMY5FAAWJPZ","A1K2R6FBPUA5TQ","37SDSEDIN9ORHL92Y0GV7TIFJ2X187","","302","img/food2.png","76","311.9999999999418","3","1","3","2","1,0.5,0,1,0.5,0,0.5,0,1","1,0.5,0,1,0.5,0,0.5,0,1","1","false",""
"","html-keyboard-response","315","320433","0.0-380.0","3YJ6NA41JC2L4EMH18TEMY5FAAWJPZ","A1K2R6FBPUA5TQ","37SDSEDIN9ORHL92Y0GV7TIFJ2X187","","null","<img src=""img/food2.png"" style=""width:200px; border:14px solid green;"">","null","","","","","","","","","",""
"","image-keyboard-response","316","320868","0.0-382.0","3YJ6NA41JC2L4EMH18TEMY5FAAWJPZ","A1K2R6FBPUA5TQ","37SDSEDIN9ORHL92Y0GV7TIFJ2X187","","424","img/food3.png","74","434","1","1","1","2","1,0.5,0,1,0.5,0,0.5,0,1","1,0.5,0,1,0.5,0,0.5,0,1","1","false",""
"","html-keyboard-response","317","321179","0.0-383.0","3YJ6NA41JC2L4EMH18TEMY5FAAWJPZ","A1K2R6FBPUA5TQ","37SDSEDIN9ORHL92Y0GV7TIFJ2X187","","null","<img src=""img/food3.png"" style=""width:200px; border:14px solid green;"">","null","","","","","","","","","",""
"","image-keyboard-response","318","321652","0.0-385.0","3YJ6NA41JC2L4EMH18TEMY5FAAWJPZ","A1K2R6FBPUA5TQ","37SDSEDIN9ORHL92Y0GV7TIFJ2X187","","463","img/food1.png","76","472.9999999999418","3","0","2","2","1,0.5,0,1,0.5,0,0.5,0,1","1,0.5,0,1,0.5,0,0.5,0,1","1","false",""
"","html-keyboard-response","319","321963","0.0-386.0","3YJ6NA41JC2L4EMH18TEMY5FAAWJPZ","A1K2R6FBPUA5TQ","37SDSEDIN9ORHL92Y0GV7TIFJ2X187","","null","<img src=""img/food1.png"" style=""width:200px;border:14px solid red;"">","null","","","","","","","","","",""
"","image-keyboard-response","320","322391","0.0-388.0","3YJ6NA41JC2L4EMH18TEMY5FAAWJPZ","A1K2R6FBPUA5TQ","37SDSEDIN9ORHL92Y0GV7TIFJ2X187","","418","img/food3.png","74","428","1","1","1","2","1,0.5,0,1,0.5,0,0.5,0,1","1,0.5,0,1,0.5,0,0.5,0,1","1","false",""
"","html-keyboard-response","321","322701","0.0-389.0","3YJ6NA41JC2L4EMH18TEMY5FAAWJPZ","A1K2R6FBPUA5TQ","37SDSEDIN9ORHL92Y0GV7TIFJ2X187","","null","<img src=""img/food3.png"" style=""width:200px; border:14px solid green;"">","null","","","","","","","","","",""
"","image-keyboard-response","322","323266","0.0-391.0","3YJ6NA41JC2L4EMH18TEMY5FAAWJPZ","A1K2R6FBPUA5TQ","37SDSEDIN9ORHL92Y0GV7TIFJ2X187","","555","img/food2.png","76","564","3","1","3","2","1,0.5,0,1,0.5,0,0.5,0,1","1,0.5,0,1,0.5,0,0.5,0,1","1","false",""
"","html-keyboard-response","323","323576","0.0-392.0","3YJ6NA41JC2L4EMH18TEMY5FAAWJPZ","A1K2R6FBPUA5TQ","37SDSEDIN9ORHL92Y0GV7TIFJ2X187","","null","<img src=""img/food2.png"" style=""width:200px; border:14px solid green;"">","null","","","","","","","","","",""
"","image-keyboard-response","324","324023","0.0-394.0","3YJ6NA41JC2L4EMH18TEMY5FAAWJPZ","A1K2R6FBPUA5TQ","37SDSEDIN9ORHL92Y0GV7TIFJ2X187","","436","img/food3.png","74","445","1","1","1","2","1,0.5,0,1,0.5,0,0.5,0,1","1,0.5,0,1,0.5,0,0.5,0,1","1","false",""
"","html-keyboard-response","325","324333","0.0-395.0","3YJ6NA41JC2L4EMH18TEMY5FAAWJPZ","A1K2R6FBPUA5TQ","37SDSEDIN9ORHL92Y0GV7TIFJ2X187","","null","<img src=""img/food3.png"" style=""width:200px; border:14px solid green;"">","null","","","","","","","","","",""
"","image-keyboard-response","326","324679","0.0-397.0","3YJ6NA41JC2L4EMH18TEMY5FAAWJPZ","A1K2R6FBPUA5TQ","37SDSEDIN9ORHL92Y0GV7TIFJ2X187","","335","img/food3.png","74","345.0000000000582","1","1","1","2","1,0.5,0,1,0.5,0,0.5,0,1","1,0.5,0,1,0.5,0,0.5,0,1","1","false",""
"","html-keyboard-response","327","324988","0.0-398.0","3YJ6NA41JC2L4EMH18TEMY5FAAWJPZ","A1K2R6FBPUA5TQ","37SDSEDIN9ORHL92Y0GV7TIFJ2X187","","null","<img src=""img/food3.png"" style=""width:200px; border:14px solid green;"">","null","","","","","","","","","",""
"","image-keyboard-response","328","325474","0.0-400.0","3YJ6NA41JC2L4EMH18TEMY5FAAWJPZ","A1K2R6FBPUA5TQ","37SDSEDIN9ORHL92Y0GV7TIFJ2X187","","475","img/food1.png","74","483.9999999999418","1","1","2","2","1,0.5,0,1,0.5,0,0.5,0,1","1,0.5,0,1,0.5,0,0.5,0,1","1","false",""
"","html-keyboard-response","329","325784","0.0-401.0","3YJ6NA41JC2L4EMH18TEMY5FAAWJPZ","A1K2R6FBPUA5TQ","37SDSEDIN9ORHL92Y0GV7TIFJ2X187","","null","<img src=""img/food1.png"" style=""width:200px; border:14px solid green;"">","null","","","","","","","","","",""
"","image-keyboard-response","330","326279","0.0-403.0","3YJ6NA41JC2L4EMH18TEMY5FAAWJPZ","A1K2R6FBPUA5TQ","37SDSEDIN9ORHL92Y0GV7TIFJ2X187","","485","img/food3.png","74","494","1","1","1","2","1,0.5,0,1,0.5,0,0.5,0,1","1,0.5,0,1,0.5,0,0.5,0,1","1","false",""
"","html-keyboard-response","331","326590","0.0-404.0","3YJ6NA41JC2L4EMH18TEMY5FAAWJPZ","A1K2R6FBPUA5TQ","37SDSEDIN9ORHL92Y0GV7TIFJ2X187","","null","<img src=""img/food3.png"" style=""width:200px; border:14px solid green;"">","null","","","","","","","","","",""
"","image-keyboard-response","332","327111","0.0-406.0","3YJ6NA41JC2L4EMH18TEMY5FAAWJPZ","A1K2R6FBPUA5TQ","37SDSEDIN9ORHL92Y0GV7TIFJ2X187","","514","img/food1.png","74","520.9999999999418","1","1","2","2","1,0.5,0,1,0.5,0,0.5,0,1","1,0.5,0,1,0.5,0,0.5,0,1","1","false",""
"","html-keyboard-response","333","327421","0.0-407.0","3YJ6NA41JC2L4EMH18TEMY5FAAWJPZ","A1K2R6FBPUA5TQ","37SDSEDIN9ORHL92Y0GV7TIFJ2X187","","null","<img src=""img/food1.png"" style=""width:200px; border:14px solid green;"">","null","","","","","","","","","",""
"","image-keyboard-response","334","327873","0.0-409.0","3YJ6NA41JC2L4EMH18TEMY5FAAWJPZ","A1K2R6FBPUA5TQ","37SDSEDIN9ORHL92Y0GV7TIFJ2X187","","441","img/food3.png","74","451","1","1","1","2","1,0.5,0,1,0.5,0,0.5,0,1","1,0.5,0,1,0.5,0,0.5,0,1","1","false",""
"","html-keyboard-response","335","328183","0.0-410.0","3YJ6NA41JC2L4EMH18TEMY5FAAWJPZ","A1K2R6FBPUA5TQ","37SDSEDIN9ORHL92Y0GV7TIFJ2X187","","null","<img src=""img/food3.png"" style=""width:200px; border:14px solid green;"">","null","","","","","","","","","",""
"","image-keyboard-response","336","328773","0.0-412.0","3YJ6NA41JC2L4EMH18TEMY5FAAWJPZ","A1K2R6FBPUA5TQ","37SDSEDIN9ORHL92Y0GV7TIFJ2X187","","579","img/food2.png","76","589","3","1","3","2","1,0.5,0,1,0.5,0,0.5,0,1","1,0.5,0,1,0.5,0,0.5,0,1","1","false",""
"","html-keyboard-response","337","329083","0.0-413.0","3YJ6NA41JC2L4EMH18TEMY5FAAWJPZ","A1K2R6FBPUA5TQ","37SDSEDIN9ORHL92Y0GV7TIFJ2X187","","null","<img src=""img/food2.png"" style=""width:200px; border:14px solid green;"">","null","","","","","","","","","",""
"","image-keyboard-response","338","329562","0.0-415.0","3YJ6NA41JC2L4EMH18TEMY5FAAWJPZ","A1K2R6FBPUA5TQ","37SDSEDIN9ORHL92Y0GV7TIFJ2X187","","468.0000000000582","img/food3.png","74","478","1","1","1","2","1,0.5,0,1,0.5,0,0.5,0,1","1,0.5,0,1,0.5,0,0.5,0,1","1","false",""
"","html-keyboard-response","339","329872","0.0-416.0","3YJ6NA41JC2L4EMH18TEMY5FAAWJPZ","A1K2R6FBPUA5TQ","37SDSEDIN9ORHL92Y0GV7TIFJ2X187","","null","<img src=""img/food3.png"" style=""width:200px; border:14px solid green;"">","null","","","","","","","","","",""
"","image-keyboard-response","340","330439","0.0-418.0","3YJ6NA41JC2L4EMH18TEMY5FAAWJPZ","A1K2R6FBPUA5TQ","37SDSEDIN9ORHL92Y0GV7TIFJ2X187","","556","img/food3.png","74","566","1","1","1","2","1,0.5,0,1,0.5,0,0.5,0,1","1,0.5,0,1,0.5,0,0.5,0,1","1","false",""
"","html-keyboard-response","341","330749","0.0-419.0","3YJ6NA41JC2L4EMH18TEMY5FAAWJPZ","A1K2R6FBPUA5TQ","37SDSEDIN9ORHL92Y0GV7TIFJ2X187","","null","<img src=""img/food3.png"" style=""width:200px; border:14px solid green;"">","null","","","","","","","","","",""
"","image-keyboard-response","342","331239","0.0-421.0","3YJ6NA41JC2L4EMH18TEMY5FAAWJPZ","A1K2R6FBPUA5TQ","37SDSEDIN9ORHL92Y0GV7TIFJ2X187","","481","img/food2.png","74","488","1","0","3","2","1,0.5,0,1,0.5,0,0.5,0,1","1,0.5,0,1,0.5,0,0.5,0,1","1","false",""
"","html-keyboard-response","343","331550","0.0-422.0","3YJ6NA41JC2L4EMH18TEMY5FAAWJPZ","A1K2R6FBPUA5TQ","37SDSEDIN9ORHL92Y0GV7TIFJ2X187","","null","<img src=""img/food2.png"" style=""width:200px;border:14px solid red;"">","null","","","","","","","","","",""
"","image-keyboard-response","344","332087","0.0-424.0","3YJ6NA41JC2L4EMH18TEMY5FAAWJPZ","A1K2R6FBPUA5TQ","37SDSEDIN9ORHL92Y0GV7TIFJ2X187","","526","img/food1.png","74","537","1","1","2","2","1,0.5,0,1,0.5,0,0.5,0,1","1,0.5,0,1,0.5,0,0.5,0,1","1","false",""
"","html-keyboard-response","345","332396","0.0-425.0","3YJ6NA41JC2L4EMH18TEMY5FAAWJPZ","A1K2R6FBPUA5TQ","37SDSEDIN9ORHL92Y0GV7TIFJ2X187","","null","<img src=""img/food1.png"" style=""width:200px; border:14px solid green;"">","null","","","","","","","","","",""
"","image-keyboard-response","346","332794","0.0-427.0","3YJ6NA41JC2L4EMH18TEMY5FAAWJPZ","A1K2R6FBPUA5TQ","37SDSEDIN9ORHL92Y0GV7TIFJ2X187","","391","img/food2.png","76","397","3","1","3","2","1,0.5,0,1,0.5,0,0.5,0,1","1,0.5,0,1,0.5,0,0.5,0,1","1","false",""
"","html-keyboard-response","347","333104","0.0-428.0","3YJ6NA41JC2L4EMH18TEMY5FAAWJPZ","A1K2R6FBPUA5TQ","37SDSEDIN9ORHL92Y0GV7TIFJ2X187","","null","<img src=""img/food2.png"" style=""width:200px; border:14px solid green;"">","null","","","","","","","","","",""
"","image-keyboard-response","348","333499","0.0-430.0","3YJ6NA41JC2L4EMH18TEMY5FAAWJPZ","A1K2R6FBPUA5TQ","37SDSEDIN9ORHL92Y0GV7TIFJ2X187","","385","img/food2.png","76","394","3","1","3","2","1,0.5,0,1,0.5,0,0.5,0,1","1,0.5,0,1,0.5,0,0.5,0,1","1","false",""
"","html-keyboard-response","349","333809","0.0-431.0","3YJ6NA41JC2L4EMH18TEMY5FAAWJPZ","A1K2R6FBPUA5TQ","37SDSEDIN9ORHL92Y0GV7TIFJ2X187","","null","<img src=""img/food2.png"" style=""width:200px; border:14px solid green;"">","null","","","","","","","","","",""
"","image-keyboard-response","350","334276","0.0-433.0","3YJ6NA41JC2L4EMH18TEMY5FAAWJPZ","A1K2R6FBPUA5TQ","37SDSEDIN9ORHL92Y0GV7TIFJ2X187","","453.0000000000582","img/food1.png","74","466","1","1","2","2","1,0.5,0,1,0.5,0,0.5,0,1","1,0.5,0,1,0.5,0,0.5,0,1","1","false",""
"","html-keyboard-response","351","334587","0.0-434.0","3YJ6NA41JC2L4EMH18TEMY5FAAWJPZ","A1K2R6FBPUA5TQ","37SDSEDIN9ORHL92Y0GV7TIFJ2X187","","null","<img src=""img/food1.png"" style=""width:200px; border:14px solid green;"">","null","","","","","","","","","",""
"","image-keyboard-response","352","335058","0.0-436.0","3YJ6NA41JC2L4EMH18TEMY5FAAWJPZ","A1K2R6FBPUA5TQ","37SDSEDIN9ORHL92Y0GV7TIFJ2X187","","462","img/food3.png","74","470","1","1","1","2","1,0.5,0,1,0.5,0,0.5,0,1","1,0.5,0,1,0.5,0,0.5,0,1","1","false",""
"","html-keyboard-response","353","335368","0.0-437.0","3YJ6NA41JC2L4EMH18TEMY5FAAWJPZ","A1K2R6FBPUA5TQ","37SDSEDIN9ORHL92Y0GV7TIFJ2X187","","null","<img src=""img/food3.png"" style=""width:200px; border:14px solid green;"">","null","","","","","","","","","",""
"","image-keyboard-response","354","336014","0.0-439.0","3YJ6NA41JC2L4EMH18TEMY5FAAWJPZ","A1K2R6FBPUA5TQ","37SDSEDIN9ORHL92Y0GV7TIFJ2X187","","635","img/food1.png","74","643.0000000000582","1","1","2","2","1,0.5,0,1,0.5,0,0.5,0,1","1,0.5,0,1,0.5,0,0.5,0,1","1","false",""
"","html-keyboard-response","355","336324","0.0-440.0","3YJ6NA41JC2L4EMH18TEMY5FAAWJPZ","A1K2R6FBPUA5TQ","37SDSEDIN9ORHL92Y0GV7TIFJ2X187","","null","<img src=""img/food1.png"" style=""width:200px; border:14px solid green;"">","null","","","","","","","","","",""
"","image-keyboard-response","356","336731","0.0-442.0","3YJ6NA41JC2L4EMH18TEMY5FAAWJPZ","A1K2R6FBPUA5TQ","37SDSEDIN9ORHL92Y0GV7TIFJ2X187","","396","img/food1.png","74","406","1","1","2","2","1,0.5,0,1,0.5,0,0.5,0,1","1,0.5,0,1,0.5,0,0.5,0,1","1","false",""
"","html-keyboard-response","357","337041","0.0-443.0","3YJ6NA41JC2L4EMH18TEMY5FAAWJPZ","A1K2R6FBPUA5TQ","37SDSEDIN9ORHL92Y0GV7TIFJ2X187","","null","<img src=""img/food1.png"" style=""width:200px; border:14px solid green;"">","null","","","","","","","","","",""
"","image-keyboard-response","358","337535","0.0-445.0","3YJ6NA41JC2L4EMH18TEMY5FAAWJPZ","A1K2R6FBPUA5TQ","37SDSEDIN9ORHL92Y0GV7TIFJ2X187","","484.9999999999418","img/food3.png","74","492.9999999999418","1","1","1","2","1,0.5,0,1,0.5,0,0.5,0,1","1,0.5,0,1,0.5,0,0.5,0,1","1","false",""
"","html-keyboard-response","359","337845","0.0-446.0","3YJ6NA41JC2L4EMH18TEMY5FAAWJPZ","A1K2R6FBPUA5TQ","37SDSEDIN9ORHL92Y0GV7TIFJ2X187","","null","<img src=""img/food3.png"" style=""width:200px; border:14px solid green;"">","null","","","","","","","","","",""
"","image-keyboard-response","360","338373","0.0-448.0","3YJ6NA41JC2L4EMH18TEMY5FAAWJPZ","A1K2R6FBPUA5TQ","37SDSEDIN9ORHL92Y0GV7TIFJ2X187","","517","img/food2.png","76","526","3","1","3","2","1,0.5,0,1,0.5,0,0.5,0,1","1,0.5,0,1,0.5,0,0.5,0,1","1","false",""
"","html-keyboard-response","361","338683","0.0-449.0","3YJ6NA41JC2L4EMH18TEMY5FAAWJPZ","A1K2R6FBPUA5TQ","37SDSEDIN9ORHL92Y0GV7TIFJ2X187","","null","<img src=""img/food2.png"" style=""width:200px; border:14px solid green;"">","null","","","","","","","","","",""
"","image-keyboard-response","362","339207","0.0-451.0","3YJ6NA41JC2L4EMH18TEMY5FAAWJPZ","A1K2R6FBPUA5TQ","37SDSEDIN9ORHL92Y0GV7TIFJ2X187","","514.9999999999418","img/food1.png","74","523","1","1","2","2","1,0.5,0,1,0.5,0,0.5,0,1","1,0.5,0,1,0.5,0,0.5,0,1","1","false",""
"","html-keyboard-response","363","339518","0.0-452.0","3YJ6NA41JC2L4EMH18TEMY5FAAWJPZ","A1K2R6FBPUA5TQ","37SDSEDIN9ORHL92Y0GV7TIFJ2X187","","null","<img src=""img/food1.png"" style=""width:200px; border:14px solid green;"">","null","","","","","","","","","",""
"","instructions","364","342215","0.0-454.0","3YJ6NA41JC2L4EMH18TEMY5FAAWJPZ","A1K2R6FBPUA5TQ","37SDSEDIN9ORHL92Y0GV7TIFJ2X187","[{""page_index"":0,""viewing_time"":2694}]","2695.000000000058","","","","","","","","","","","",""
"","survey-text","365","359722","0.0-455.0","3YJ6NA41JC2L4EMH18TEMY5FAAWJPZ","A1K2R6FBPUA5TQ","37SDSEDIN9ORHL92Y0GV7TIFJ2X187","","17480","","","","","","","","","","","","{""Q0"":""A1K2R6FBPUA5TQ""}"
