"success","trial_type","trial_index","time_elapsed","internal_node_id","assignmentID","mturkID","hitID","view_history","rt","stimulus","key_press","reactionTime","a","r","warning","s","cond","reward_cond","reward_cond_actual","reward_matrix_idx","responses"
"true","fullscreen","0","2886","0.0-0.0","3NPFYT4IZDQGMLY7FTISJYZ2KHNXGW","A1K4FKVCBTX1RN","36U4VBVNQOZD8NFWZXWF9CIHKRIURB","","","","","","","","","","","","","",""
"","instructions","1","161507","0.0-1.0","3NPFYT4IZDQGMLY7FTISJYZ2KHNXGW","A1K4FKVCBTX1RN","36U4VBVNQOZD8NFWZXWF9CIHKRIURB","[{""page_index"":0,""viewing_time"":6482.19999999553},{""page_index"":1,""viewing_time"":6692},{""page_index"":2,""viewing_time"":12388},{""page_index"":3,""viewing_time"":130325.89999999851},{""page_index"":4,""viewing_time"":1247.9000000059605},{""page_index"":5,""viewing_time"":796.2999999970198},{""page_index"":6,""viewing_time"":683.7999999970198}]","158617.09999999404","","","","","","","","","","","",""
"","instructions","2","183106","0.0-2.0","3NPFYT4IZDQGMLY7FTISJYZ2KHNXGW","A1K4FKVCBTX1RN","36U4VBVNQOZD8NFWZXWF9CIHKRIURB","[{""page_index"":0,""viewing_time"":16693.29999999702},{""page_index"":1,""viewing_time"":4904.10000000149}]","21597.60000000149","","","","","","","","","","","",""
"","image-keyboard-response","3","183850","0.0-3.0","3NPFYT4IZDQGMLY7FTISJYZ2KHNXGW","A1K4FKVCBTX1RN","36U4VBVNQOZD8NFWZXWF9CIHKRIURB","","741.1000000014901","img/food5.png","74","743.8999999985099","1","0","false","2","2","1,0.5,0,1,0.5,0,0.5,0,1","0,1,0.5,0,1,0.5,1,0.5,0","3",""
"","html-keyboard-response","4","184164","0.0-4.0","3NPFYT4IZDQGMLY7FTISJYZ2KHNXGW","A1K4FKVCBTX1RN","36U4VBVNQOZD8NFWZXWF9CIHKRIURB","","null","<img src=""img/food5.png"" style=""width:200px;border:14px solid red;"">","null","","","","","","","","","",""
"","image-keyboard-response","5","184616","0.0-6.0","3NPFYT4IZDQGMLY7FTISJYZ2KHNXGW","A1K4FKVCBTX1RN","36U4VBVNQOZD8NFWZXWF9CIHKRIURB","","447.80000000447035","img/food4.png","74","450.5","1","1","false","3","2","1,0.5,0,1,0.5,0,0.5,0,1","0,1,0.5,0,1,0.5,1,0.5,0","3",""
"","html-keyboard-response","6","184920","0.0-7.0","3NPFYT4IZDQGMLY7FTISJYZ2KHNXGW","A1K4FKVCBTX1RN","36U4VBVNQOZD8NFWZXWF9CIHKRIURB","","null","<img src=""img/food4.png"" style=""width:200px; border:14px solid green;"">","null","","","","","","","","","",""
"","image-keyboard-response","7","185600","0.0-9.0","3NPFYT4IZDQGMLY7FTISJYZ2KHNXGW","A1K4FKVCBTX1RN","36U4VBVNQOZD8NFWZXWF9CIHKRIURB","","677","img/food2.png","74","679.1000000014901","1","0","false","1","2","1,0.5,0,1,0.5,0,0.5,0,1","0,1,0.5,0,1,0.5,1,0.5,0","3",""
"","html-keyboard-response","8","185904","0.0-10.0","3NPFYT4IZDQGMLY7FTISJYZ2KHNXGW","A1K4FKVCBTX1RN","36U4VBVNQOZD8NFWZXWF9CIHKRIURB","","null","<img src=""img/food2.png"" style=""width:200px;border:14px solid red;"">","null","","","","","","","","","",""
"","image-keyboard-response","9","186480","0.0-12.0","3NPFYT4IZDQGMLY7FTISJYZ2KHNXGW","A1K4FKVCBTX1RN","36U4VBVNQOZD8NFWZXWF9CIHKRIURB","","573.7000000029802","img/food4.png","75","576.2000000029802","2","0","false","3","2","1,0.5,0,1,0.5,0,0.5,0,1","0,1,0.5,0,1,0.5,1,0.5,0","3",""
"","html-keyboard-response","10","186784","0.0-13.0","3NPFYT4IZDQGMLY7FTISJYZ2KHNXGW","A1K4FKVCBTX1RN","36U4VBVNQOZD8NFWZXWF9CIHKRIURB","","null","<img src=""img/food4.png"" style=""width:200px;border:14px solid red;"">","null","","","","","","","","","",""
"","image-keyboard-response","11","186864","0.0-15.0","3NPFYT4IZDQGMLY7FTISJYZ2KHNXGW","A1K4FKVCBTX1RN","36U4VBVNQOZD8NFWZXWF9CIHKRIURB","","76.89999999850988","img/food4.png","75","78.90000000596046","2","0","false","3","2","1,0.5,0,1,0.5,0,0.5,0,1","0,1,0.5,0,1,0.5,1,0.5,0","3",""
"","html-keyboard-response","12","187167","0.0-16.0","3NPFYT4IZDQGMLY7FTISJYZ2KHNXGW","A1K4FKVCBTX1RN","36U4VBVNQOZD8NFWZXWF9CIHKRIURB","","null","<img src=""img/food4.png"" style=""width:200px;border:14px solid red;"">","null","","","","","","","","","",""
"","image-keyboard-response","13","187744","0.0-18.0","3NPFYT4IZDQGMLY7FTISJYZ2KHNXGW","A1K4FKVCBTX1RN","36U4VBVNQOZD8NFWZXWF9CIHKRIURB","","573.8999999985099","img/food5.png","75","575.8999999985099","2","1","false","2","2","1,0.5,0,1,0.5,0,0.5,0,1","0,1,0.5,0,1,0.5,1,0.5,0","3",""
"","html-keyboard-response","14","188047","0.0-19.0","3NPFYT4IZDQGMLY7FTISJYZ2KHNXGW","A1K4FKVCBTX1RN","36U4VBVNQOZD8NFWZXWF9CIHKRIURB","","null","<img src=""img/food5.png"" style=""width:200px; border:14px solid green;"">","null","","","","","","","","","",""
"","image-keyboard-response","15","188816","0.0-21.0","3NPFYT4IZDQGMLY7FTISJYZ2KHNXGW","A1K4FKVCBTX1RN","36U4VBVNQOZD8NFWZXWF9CIHKRIURB","","766.7999999970198","img/food5.png","75","768.7999999970198","2","1","false","2","2","1,0.5,0,1,0.5,0,0.5,0,1","0,1,0.5,0,1,0.5,1,0.5,0","3",""
"","html-keyboard-response","16","189120","0.0-22.0","3NPFYT4IZDQGMLY7FTISJYZ2KHNXGW","A1K4FKVCBTX1RN","36U4VBVNQOZD8NFWZXWF9CIHKRIURB","","null","<img src=""img/food5.png"" style=""width:200px; border:14px solid green;"">","null","","","","","","","","","",""
"","image-keyboard-response","17","189480","0.0-24.0","3NPFYT4IZDQGMLY7FTISJYZ2KHNXGW","A1K4FKVCBTX1RN","36U4VBVNQOZD8NFWZXWF9CIHKRIURB","","357","img/food5.png","75","359","2","1","false","2","2","1,0.5,0,1,0.5,0,0.5,0,1","0,1,0.5,0,1,0.5,1,0.5,0","3",""
"","html-keyboard-response","18","189783","0.0-25.0","3NPFYT4IZDQGMLY7FTISJYZ2KHNXGW","A1K4FKVCBTX1RN","36U4VBVNQOZD8NFWZXWF9CIHKRIURB","","null","<img src=""img/food5.png"" style=""width:200px; border:14px solid green;"">","null","","","","","","","","","",""
"","image-keyboard-response","19","190320","0.0-27.0","3NPFYT4IZDQGMLY7FTISJYZ2KHNXGW","A1K4FKVCBTX1RN","36U4VBVNQOZD8NFWZXWF9CIHKRIURB","","534.1000000014901","img/food4.png","75","536.2000000029802","2","0","false","3","2","1,0.5,0,1,0.5,0,0.5,0,1","0,1,0.5,0,1,0.5,1,0.5,0","3",""
"","html-keyboard-response","20","190623","0.0-28.0","3NPFYT4IZDQGMLY7FTISJYZ2KHNXGW","A1K4FKVCBTX1RN","36U4VBVNQOZD8NFWZXWF9CIHKRIURB","","null","<img src=""img/food4.png"" style=""width:200px;border:14px solid red;"">","null","","","","","","","","","",""
"","image-keyboard-response","21","191104","0.0-30.0","3NPFYT4IZDQGMLY7FTISJYZ2KHNXGW","A1K4FKVCBTX1RN","36U4VBVNQOZD8NFWZXWF9CIHKRIURB","","478.69999999552965","img/food5.png","75","480.3999999985099","2","1","false","2","2","1,0.5,0,1,0.5,0,0.5,0,1","0,1,0.5,0,1,0.5,1,0.5,0","3",""
"","html-keyboard-response","22","191408","0.0-31.0","3NPFYT4IZDQGMLY7FTISJYZ2KHNXGW","A1K4FKVCBTX1RN","36U4VBVNQOZD8NFWZXWF9CIHKRIURB","","null","<img src=""img/food5.png"" style=""width:200px; border:14px solid green;"">","null","","","","","","","","","",""
"","image-keyboard-response","23","192264","0.0-33.0","3NPFYT4IZDQGMLY7FTISJYZ2KHNXGW","A1K4FKVCBTX1RN","36U4VBVNQOZD8NFWZXWF9CIHKRIURB","","854.5","img/food4.png","75","856.1000000014901","2","1","false","3","2","1,0.5,0,1,0.5,0,0.5,0,1","0,1,0.5,0,1,0.5,1,0.5,0","3",""
"","html-keyboard-response","24","192568","0.0-34.0","3NPFYT4IZDQGMLY7FTISJYZ2KHNXGW","A1K4FKVCBTX1RN","36U4VBVNQOZD8NFWZXWF9CIHKRIURB","","null","<img src=""img/food4.png"" style=""width:200px; border:14px solid green;"">","null","","","","","","","","","",""
"","image-keyboard-response","25","193080","0.0-36.0","3NPFYT4IZDQGMLY7FTISJYZ2KHNXGW","A1K4FKVCBTX1RN","36U4VBVNQOZD8NFWZXWF9CIHKRIURB","","508.8999999985099","img/food4.png","75","511.1000000014901","2","1","false","3","2","1,0.5,0,1,0.5,0,0.5,0,1","0,1,0.5,0,1,0.5,1,0.5,0","3",""
"","html-keyboard-response","26","193383","0.0-37.0","3NPFYT4IZDQGMLY7FTISJYZ2KHNXGW","A1K4FKVCBTX1RN","36U4VBVNQOZD8NFWZXWF9CIHKRIURB","","null","<img src=""img/food4.png"" style=""width:200px; border:14px solid green;"">","null","","","","","","","","","",""
"","image-keyboard-response","27","193600","0.0-39.0","3NPFYT4IZDQGMLY7FTISJYZ2KHNXGW","A1K4FKVCBTX1RN","36U4VBVNQOZD8NFWZXWF9CIHKRIURB","","214.60000000149012","img/food4.png","75","216.10000000149012","2","1","false","3","2","1,0.5,0,1,0.5,0,0.5,0,1","0,1,0.5,0,1,0.5,1,0.5,0","3",""
"","html-keyboard-response","28","193904","0.0-40.0","3NPFYT4IZDQGMLY7FTISJYZ2KHNXGW","A1K4FKVCBTX1RN","36U4VBVNQOZD8NFWZXWF9CIHKRIURB","","null","<img src=""img/food4.png"" style=""width:200px; border:14px solid green;"">","null","","","","","","","","","",""
"","image-keyboard-response","29","194192","0.0-42.0","3NPFYT4IZDQGMLY7FTISJYZ2KHNXGW","A1K4FKVCBTX1RN","36U4VBVNQOZD8NFWZXWF9CIHKRIURB","","285","img/food2.png","75","286.8999999985099","2","1","false","1","2","1,0.5,0,1,0.5,0,0.5,0,1","0,1,0.5,0,1,0.5,1,0.5,0","3",""
"","html-keyboard-response","30","194494","0.0-43.0","3NPFYT4IZDQGMLY7FTISJYZ2KHNXGW","A1K4FKVCBTX1RN","36U4VBVNQOZD8NFWZXWF9CIHKRIURB","","null","<img src=""img/food2.png"" style=""width:200px; border:14px solid green;"">","null","","","","","","","","","",""
"","image-keyboard-response","31","194648","0.0-45.0","3NPFYT4IZDQGMLY7FTISJYZ2KHNXGW","A1K4FKVCBTX1RN","36U4VBVNQOZD8NFWZXWF9CIHKRIURB","","151.10000000149012","img/food5.png","74","152.89999999850988","1","0","false","2","2","1,0.5,0,1,0.5,0,0.5,0,1","0,1,0.5,0,1,0.5,1,0.5,0","3",""
"","html-keyboard-response","32","194952","0.0-46.0","3NPFYT4IZDQGMLY7FTISJYZ2KHNXGW","A1K4FKVCBTX1RN","36U4VBVNQOZD8NFWZXWF9CIHKRIURB","","null","<img src=""img/food5.png"" style=""width:200px;border:14px solid red;"">","null","","","","","","","","","",""
"","image-keyboard-response","33","195320","0.0-48.0","3NPFYT4IZDQGMLY7FTISJYZ2KHNXGW","A1K4FKVCBTX1RN","36U4VBVNQOZD8NFWZXWF9CIHKRIURB","","365.3999999985099","img/food2.png","74","367.29999999701977","1","0","false","1","2","1,0.5,0,1,0.5,0,0.5,0,1","0,1,0.5,0,1,0.5,1,0.5,0","3",""
"","html-keyboard-response","34","195624","0.0-49.0","3NPFYT4IZDQGMLY7FTISJYZ2KHNXGW","A1K4FKVCBTX1RN","36U4VBVNQOZD8NFWZXWF9CIHKRIURB","","null","<img src=""img/food2.png"" style=""width:200px;border:14px solid red;"">","null","","","","","","","","","",""
"","image-keyboard-response","35","196024","0.0-51.0","3NPFYT4IZDQGMLY7FTISJYZ2KHNXGW","A1K4FKVCBTX1RN","36U4VBVNQOZD8NFWZXWF9CIHKRIURB","","395.8999999985099","img/food2.png","75","398.29999999701977","2","1","false","1","2","1,0.5,0,1,0.5,0,0.5,0,1","0,1,0.5,0,1,0.5,1,0.5,0","3",""
"","html-keyboard-response","36","196327","0.0-52.0","3NPFYT4IZDQGMLY7FTISJYZ2KHNXGW","A1K4FKVCBTX1RN","36U4VBVNQOZD8NFWZXWF9CIHKRIURB","","null","<img src=""img/food2.png"" style=""width:200px; border:14px solid green;"">","null","","","","","","","","","",""
"","image-keyboard-response","37","196704","0.0-54.0","3NPFYT4IZDQGMLY7FTISJYZ2KHNXGW","A1K4FKVCBTX1RN","36U4VBVNQOZD8NFWZXWF9CIHKRIURB","","373.80000000447035","img/food4.png","74","375.70000000298023","1","1","false","3","2","1,0.5,0,1,0.5,0,0.5,0,1","0,1,0.5,0,1,0.5,1,0.5,0","3",""
"","html-keyboard-response","38","197011","0.0-55.0","3NPFYT4IZDQGMLY7FTISJYZ2KHNXGW","A1K4FKVCBTX1RN","36U4VBVNQOZD8NFWZXWF9CIHKRIURB","","null","<img src=""img/food4.png"" style=""width:200px; border:14px solid green;"">","null","","","","","","","","","",""
"","image-keyboard-response","39","197488","0.0-57.0","3NPFYT4IZDQGMLY7FTISJYZ2KHNXGW","A1K4FKVCBTX1RN","36U4VBVNQOZD8NFWZXWF9CIHKRIURB","","473.8999999985099","img/food5.png","74","476","1","0","false","2","2","1,0.5,0,1,0.5,0,0.5,0,1","0,1,0.5,0,1,0.5,1,0.5,0","3",""
"","html-keyboard-response","40","197791","0.0-58.0","3NPFYT4IZDQGMLY7FTISJYZ2KHNXGW","A1K4FKVCBTX1RN","36U4VBVNQOZD8NFWZXWF9CIHKRIURB","","null","<img src=""img/food5.png"" style=""width:200px;border:14px solid red;"">","null","","","","","","","","","",""
"","image-keyboard-response","41","198208","0.0-60.0","3NPFYT4IZDQGMLY7FTISJYZ2KHNXGW","A1K4FKVCBTX1RN","36U4VBVNQOZD8NFWZXWF9CIHKRIURB","","414.8999999985099","img/food2.png","75","416.19999999552965","2","1","false","1","2","1,0.5,0,1,0.5,0,0.5,0,1","0,1,0.5,0,1,0.5,1,0.5,0","3",""
"","html-keyboard-response","42","198512","0.0-61.0","3NPFYT4IZDQGMLY7FTISJYZ2KHNXGW","A1K4FKVCBTX1RN","36U4VBVNQOZD8NFWZXWF9CIHKRIURB","","null","<img src=""img/food2.png"" style=""width:200px; border:14px solid green;"">","null","","","","","","","","","",""
"","image-keyboard-response","43","199208","0.0-63.0","3NPFYT4IZDQGMLY7FTISJYZ2KHNXGW","A1K4FKVCBTX1RN","36U4VBVNQOZD8NFWZXWF9CIHKRIURB","","692.7999999970198","img/food5.png","75","695.2000000029802","2","1","false","2","2","1,0.5,0,1,0.5,0,0.5,0,1","0,1,0.5,0,1,0.5,1,0.5,0","3",""
"","html-keyboard-response","44","199513","0.0-64.0","3NPFYT4IZDQGMLY7FTISJYZ2KHNXGW","A1K4FKVCBTX1RN","36U4VBVNQOZD8NFWZXWF9CIHKRIURB","","null","<img src=""img/food5.png"" style=""width:200px; border:14px solid green;"">","null","","","","","","","","","",""
"","image-keyboard-response","45","199912","0.0-66.0","3NPFYT4IZDQGMLY7FTISJYZ2KHNXGW","A1K4FKVCBTX1RN","36U4VBVNQOZD8NFWZXWF9CIHKRIURB","","396.80000000447035","img/food2.png","75","398.5","2","1","false","1","2","1,0.5,0,1,0.5,0,0.5,0,1","0,1,0.5,0,1,0.5,1,0.5,0","3",""
"","html-keyboard-response","46","200219","0.0-67.0","3NPFYT4IZDQGMLY7FTISJYZ2KHNXGW","A1K4FKVCBTX1RN","36U4VBVNQOZD8NFWZXWF9CIHKRIURB","","null","<img src=""img/food2.png"" style=""width:200px; border:14px solid green;"">","null","","","","","","","","","",""
"","image-keyboard-response","47","200624","0.0-69.0","3NPFYT4IZDQGMLY7FTISJYZ2KHNXGW","A1K4FKVCBTX1RN","36U4VBVNQOZD8NFWZXWF9CIHKRIURB","","402.1000000014901","img/food4.png","75","403.8999999985099","2","1","false","3","2","1,0.5,0,1,0.5,0,0.5,0,1","0,1,0.5,0,1,0.5,1,0.5,0","3",""
"","html-keyboard-response","48","200927","0.0-70.0","3NPFYT4IZDQGMLY7FTISJYZ2KHNXGW","A1K4FKVCBTX1RN","36U4VBVNQOZD8NFWZXWF9CIHKRIURB","","null","<img src=""img/food4.png"" style=""width:200px; border:14px solid green;"">","null","","","","","","","","","",""
"","image-keyboard-response","49","201344","0.0-72.0","3NPFYT4IZDQGMLY7FTISJYZ2KHNXGW","A1K4FKVCBTX1RN","36U4VBVNQOZD8NFWZXWF9CIHKRIURB","","413.29999999701977","img/food2.png","74","416.5","1","0","false","1","2","1,0.5,0,1,0.5,0,0.5,0,1","0,1,0.5,0,1,0.5,1,0.5,0","3",""
"","html-keyboard-response","50","201649","0.0-73.0","3NPFYT4IZDQGMLY7FTISJYZ2KHNXGW","A1K4FKVCBTX1RN","36U4VBVNQOZD8NFWZXWF9CIHKRIURB","","null","<img src=""img/food2.png"" style=""width:200px;border:14px solid red;"">","null","","","","","","","","","",""
"","image-keyboard-response","51","202048","0.0-75.0","3NPFYT4IZDQGMLY7FTISJYZ2KHNXGW","A1K4FKVCBTX1RN","36U4VBVNQOZD8NFWZXWF9CIHKRIURB","","396","img/food4.png","75","398.5","2","0","false","3","2","1,0.5,0,1,0.5,0,0.5,0,1","0,1,0.5,0,1,0.5,1,0.5,0","3",""
"","html-keyboard-response","52","202364","0.0-76.0","3NPFYT4IZDQGMLY7FTISJYZ2KHNXGW","A1K4FKVCBTX1RN","36U4VBVNQOZD8NFWZXWF9CIHKRIURB","","null","<img src=""img/food4.png"" style=""width:200px;border:14px solid red;"">","null","","","","","","","","","",""
"","image-keyboard-response","53","202728","0.0-78.0","3NPFYT4IZDQGMLY7FTISJYZ2KHNXGW","A1K4FKVCBTX1RN","36U4VBVNQOZD8NFWZXWF9CIHKRIURB","","361.3999999985099","img/food4.png","75","363.29999999701977","2","1","false","3","2","1,0.5,0,1,0.5,0,0.5,0,1","0,1,0.5,0,1,0.5,1,0.5,0","3",""
"","html-keyboard-response","54","203031","0.0-79.0","3NPFYT4IZDQGMLY7FTISJYZ2KHNXGW","A1K4FKVCBTX1RN","36U4VBVNQOZD8NFWZXWF9CIHKRIURB","","null","<img src=""img/food4.png"" style=""width:200px; border:14px solid green;"">","null","","","","","","","","","",""
"","image-keyboard-response","55","203200","0.0-81.0","3NPFYT4IZDQGMLY7FTISJYZ2KHNXGW","A1K4FKVCBTX1RN","36U4VBVNQOZD8NFWZXWF9CIHKRIURB","","165.89999999850988","img/food4.png","75","168","2","0","false","3","2","1,0.5,0,1,0.5,0,0.5,0,1","0,1,0.5,0,1,0.5,1,0.5,0","3",""
"","html-keyboard-response","56","203507","0.0-82.0","3NPFYT4IZDQGMLY7FTISJYZ2KHNXGW","A1K4FKVCBTX1RN","36U4VBVNQOZD8NFWZXWF9CIHKRIURB","","null","<img src=""img/food4.png"" style=""width:200px;border:14px solid red;"">","null","","","","","","","","","",""
"","image-keyboard-response","57","203712","0.0-84.0","3NPFYT4IZDQGMLY7FTISJYZ2KHNXGW","A1K4FKVCBTX1RN","36U4VBVNQOZD8NFWZXWF9CIHKRIURB","","202.70000000298023","img/food5.png","75","204.69999999552965","2","1","false","2","2","1,0.5,0,1,0.5,0,0.5,0,1","0,1,0.5,0,1,0.5,1,0.5,0","3",""
"","html-keyboard-response","58","204015","0.0-85.0","3NPFYT4IZDQGMLY7FTISJYZ2KHNXGW","A1K4FKVCBTX1RN","36U4VBVNQOZD8NFWZXWF9CIHKRIURB","","null","<img src=""img/food5.png"" style=""width:200px; border:14px solid green;"">","null","","","","","","","","","",""
"","image-keyboard-response","59","204415","0.0-87.0","3NPFYT4IZDQGMLY7FTISJYZ2KHNXGW","A1K4FKVCBTX1RN","36U4VBVNQOZD8NFWZXWF9CIHKRIURB","","398.19999999552965","img/food2.png","74","399.69999999552965","1","0","false","1","2","1,0.5,0,1,0.5,0,0.5,0,1","0,1,0.5,0,1,0.5,1,0.5,0","3",""
"","html-keyboard-response","60","204718","0.0-88.0","3NPFYT4IZDQGMLY7FTISJYZ2KHNXGW","A1K4FKVCBTX1RN","36U4VBVNQOZD8NFWZXWF9CIHKRIURB","","null","<img src=""img/food2.png"" style=""width:200px;border:14px solid red;"">","null","","","","","","","","","",""
"","image-keyboard-response","61","204864","0.0-90.0","3NPFYT4IZDQGMLY7FTISJYZ2KHNXGW","A1K4FKVCBTX1RN","36U4VBVNQOZD8NFWZXWF9CIHKRIURB","","143.40000000596046","img/food4.png","75","145.40000000596046","2","1","false","3","2","1,0.5,0,1,0.5,0,0.5,0,1","0,1,0.5,0,1,0.5,1,0.5,0","3",""
"","html-keyboard-response","62","205168","0.0-91.0","3NPFYT4IZDQGMLY7FTISJYZ2KHNXGW","A1K4FKVCBTX1RN","36U4VBVNQOZD8NFWZXWF9CIHKRIURB","","null","<img src=""img/food4.png"" style=""width:200px; border:14px solid green;"">","null","","","","","","","","","",""
"","image-keyboard-response","63","205456","0.0-93.0","3NPFYT4IZDQGMLY7FTISJYZ2KHNXGW","A1K4FKVCBTX1RN","36U4VBVNQOZD8NFWZXWF9CIHKRIURB","","285.1000000014901","img/food2.png","75","287.19999999552965","2","1","false","1","2","1,0.5,0,1,0.5,0,0.5,0,1","0,1,0.5,0,1,0.5,1,0.5,0","3",""
"","html-keyboard-response","64","205759","0.0-94.0","3NPFYT4IZDQGMLY7FTISJYZ2KHNXGW","A1K4FKVCBTX1RN","36U4VBVNQOZD8NFWZXWF9CIHKRIURB","","null","<img src=""img/food2.png"" style=""width:200px; border:14px solid green;"">","null","","","","","","","","","",""
"","image-keyboard-response","65","205912","0.0-96.0","3NPFYT4IZDQGMLY7FTISJYZ2KHNXGW","A1K4FKVCBTX1RN","36U4VBVNQOZD8NFWZXWF9CIHKRIURB","","150.19999999552965","img/food5.png","75","152.19999999552965","2","1","false","2","2","1,0.5,0,1,0.5,0,0.5,0,1","0,1,0.5,0,1,0.5,1,0.5,0","3",""
"","html-keyboard-response","66","206216","0.0-97.0","3NPFYT4IZDQGMLY7FTISJYZ2KHNXGW","A1K4FKVCBTX1RN","36U4VBVNQOZD8NFWZXWF9CIHKRIURB","","null","<img src=""img/food5.png"" style=""width:200px; border:14px solid green;"">","null","","","","","","","","","",""
"","image-keyboard-response","67","206464","0.0-99.0","3NPFYT4IZDQGMLY7FTISJYZ2KHNXGW","A1K4FKVCBTX1RN","36U4VBVNQOZD8NFWZXWF9CIHKRIURB","","245.10000000149012","img/food2.png","74","246.90000000596046","1","0","false","1","2","1,0.5,0,1,0.5,0,0.5,0,1","0,1,0.5,0,1,0.5,1,0.5,0","3",""
"","html-keyboard-response","68","206767","0.0-100.0","3NPFYT4IZDQGMLY7FTISJYZ2KHNXGW","A1K4FKVCBTX1RN","36U4VBVNQOZD8NFWZXWF9CIHKRIURB","","null","<img src=""img/food2.png"" style=""width:200px;border:14px solid red;"">","null","","","","","","","","","",""
"","image-keyboard-response","69","207152","0.0-102.0","3NPFYT4IZDQGMLY7FTISJYZ2KHNXGW","A1K4FKVCBTX1RN","36U4VBVNQOZD8NFWZXWF9CIHKRIURB","","382.29999999701977","img/food2.png","74","384.29999999701977","1","0","false","1","2","1,0.5,0,1,0.5,0,0.5,0,1","0,1,0.5,0,1,0.5,1,0.5,0","3",""
"","html-keyboard-response","70","207455","0.0-103.0","3NPFYT4IZDQGMLY7FTISJYZ2KHNXGW","A1K4FKVCBTX1RN","36U4VBVNQOZD8NFWZXWF9CIHKRIURB","","null","<img src=""img/food2.png"" style=""width:200px;border:14px solid red;"">","null","","","","","","","","","",""
"","image-keyboard-response","71","207888","0.0-105.0","3NPFYT4IZDQGMLY7FTISJYZ2KHNXGW","A1K4FKVCBTX1RN","36U4VBVNQOZD8NFWZXWF9CIHKRIURB","","429.5","img/food4.png","74","431.8999999985099","1","1","false","3","2","1,0.5,0,1,0.5,0,0.5,0,1","0,1,0.5,0,1,0.5,1,0.5,0","3",""
"","html-keyboard-response","72","208192","0.0-106.0","3NPFYT4IZDQGMLY7FTISJYZ2KHNXGW","A1K4FKVCBTX1RN","36U4VBVNQOZD8NFWZXWF9CIHKRIURB","","null","<img src=""img/food4.png"" style=""width:200px; border:14px solid green;"">","null","","","","","","","","","",""
"","image-keyboard-response","73","208448","0.0-108.0","3NPFYT4IZDQGMLY7FTISJYZ2KHNXGW","A1K4FKVCBTX1RN","36U4VBVNQOZD8NFWZXWF9CIHKRIURB","","253.60000000149012","img/food4.png","74","255.39999999850988","1","1","false","3","2","1,0.5,0,1,0.5,0,0.5,0,1","0,1,0.5,0,1,0.5,1,0.5,0","3",""
"","html-keyboard-response","74","208752","0.0-109.0","3NPFYT4IZDQGMLY7FTISJYZ2KHNXGW","A1K4FKVCBTX1RN","36U4VBVNQOZD8NFWZXWF9CIHKRIURB","","null","<img src=""img/food4.png"" style=""width:200px; border:14px solid green;"">","null","","","","","","","","","",""
"","image-keyboard-response","75","208928","0.0-111.0","3NPFYT4IZDQGMLY7FTISJYZ2KHNXGW","A1K4FKVCBTX1RN","36U4VBVNQOZD8NFWZXWF9CIHKRIURB","","173.09999999403954","img/food2.png","74","175.10000000149012","1","0","false","1","2","1,0.5,0,1,0.5,0,0.5,0,1","0,1,0.5,0,1,0.5,1,0.5,0","3",""
"","html-keyboard-response","76","209231","0.0-112.0","3NPFYT4IZDQGMLY7FTISJYZ2KHNXGW","A1K4FKVCBTX1RN","36U4VBVNQOZD8NFWZXWF9CIHKRIURB","","null","<img src=""img/food2.png"" style=""width:200px;border:14px solid red;"">","null","","","","","","","","","",""
"","image-keyboard-response","77","209242","0.0-114.0","3NPFYT4IZDQGMLY7FTISJYZ2KHNXGW","A1K4FKVCBTX1RN","36U4VBVNQOZD8NFWZXWF9CIHKRIURB","","8.399999998509884","img/food2.png","75","10.200000002980232","2","1","false","1","2","1,0.5,0,1,0.5,0,0.5,0,1","0,1,0.5,0,1,0.5,1,0.5,0","3",""
"","html-keyboard-response","78","209544","0.0-115.0","3NPFYT4IZDQGMLY7FTISJYZ2KHNXGW","A1K4FKVCBTX1RN","36U4VBVNQOZD8NFWZXWF9CIHKRIURB","","null","<img src=""img/food2.png"" style=""width:200px; border:14px solid green;"">","null","","","","","","","","","",""
"","image-keyboard-response","79","209816","0.0-117.0","3NPFYT4IZDQGMLY7FTISJYZ2KHNXGW","A1K4FKVCBTX1RN","36U4VBVNQOZD8NFWZXWF9CIHKRIURB","","269.6000000014901","img/food4.png","75","271.5","2","0","false","3","2","1,0.5,0,1,0.5,0,0.5,0,1","0,1,0.5,0,1,0.5,1,0.5,0","3",""
"","html-keyboard-response","80","210118","0.0-118.0","3NPFYT4IZDQGMLY7FTISJYZ2KHNXGW","A1K4FKVCBTX1RN","36U4VBVNQOZD8NFWZXWF9CIHKRIURB","","null","<img src=""img/food4.png"" style=""width:200px;border:14px solid red;"">","null","","","","","","","","","",""
"","image-keyboard-response","81","210296","0.0-120.0","3NPFYT4IZDQGMLY7FTISJYZ2KHNXGW","A1K4FKVCBTX1RN","36U4VBVNQOZD8NFWZXWF9CIHKRIURB","","174.60000000149012","img/food5.png","75","176.60000000149012","2","1","false","2","2","1,0.5,0,1,0.5,0,0.5,0,1","0,1,0.5,0,1,0.5,1,0.5,0","3",""
"","html-keyboard-response","82","210600","0.0-121.0","3NPFYT4IZDQGMLY7FTISJYZ2KHNXGW","A1K4FKVCBTX1RN","36U4VBVNQOZD8NFWZXWF9CIHKRIURB","","null","<img src=""img/food5.png"" style=""width:200px; border:14px solid green;"">","null","","","","","","","","","",""
"","image-keyboard-response","83","210896","0.0-123.0","3NPFYT4IZDQGMLY7FTISJYZ2KHNXGW","A1K4FKVCBTX1RN","36U4VBVNQOZD8NFWZXWF9CIHKRIURB","","292.8999999985099","img/food2.png","75","295.20000000298023","2","1","false","1","2","1,0.5,0,1,0.5,0,0.5,0,1","0,1,0.5,0,1,0.5,1,0.5,0","3",""
"","html-keyboard-response","84","211200","0.0-124.0","3NPFYT4IZDQGMLY7FTISJYZ2KHNXGW","A1K4FKVCBTX1RN","36U4VBVNQOZD8NFWZXWF9CIHKRIURB","","null","<img src=""img/food2.png"" style=""width:200px; border:14px solid green;"">","null","","","","","","","","","",""
"","image-keyboard-response","85","211520","0.0-126.0","3NPFYT4IZDQGMLY7FTISJYZ2KHNXGW","A1K4FKVCBTX1RN","36U4VBVNQOZD8NFWZXWF9CIHKRIURB","","317.69999999552965","img/food4.png","74","319.20000000298023","1","1","false","3","2","1,0.5,0,1,0.5,0,0.5,0,1","0,1,0.5,0,1,0.5,1,0.5,0","3",""
"","html-keyboard-response","86","211823","0.0-127.0","3NPFYT4IZDQGMLY7FTISJYZ2KHNXGW","A1K4FKVCBTX1RN","36U4VBVNQOZD8NFWZXWF9CIHKRIURB","","null","<img src=""img/food4.png"" style=""width:200px; border:14px solid green;"">","null","","","","","","","","","",""
"","image-keyboard-response","87","212280","0.0-129.0","3NPFYT4IZDQGMLY7FTISJYZ2KHNXGW","A1K4FKVCBTX1RN","36U4VBVNQOZD8NFWZXWF9CIHKRIURB","","454.5","img/food4.png","75","456.3999999985099","2","0","false","3","2","1,0.5,0,1,0.5,0,0.5,0,1","0,1,0.5,0,1,0.5,1,0.5,0","3",""
"","html-keyboard-response","88","212586","0.0-130.0","3NPFYT4IZDQGMLY7FTISJYZ2KHNXGW","A1K4FKVCBTX1RN","36U4VBVNQOZD8NFWZXWF9CIHKRIURB","","null","<img src=""img/food4.png"" style=""width:200px;border:14px solid red;"">","null","","","","","","","","","",""
"","image-keyboard-response","89","212736","0.0-132.0","3NPFYT4IZDQGMLY7FTISJYZ2KHNXGW","A1K4FKVCBTX1RN","36U4VBVNQOZD8NFWZXWF9CIHKRIURB","","146.89999999850988","img/food4.png","74","148.60000000149012","1","1","false","3","2","1,0.5,0,1,0.5,0,0.5,0,1","0,1,0.5,0,1,0.5,1,0.5,0","3",""
"","html-keyboard-response","90","213040","0.0-133.0","3NPFYT4IZDQGMLY7FTISJYZ2KHNXGW","A1K4FKVCBTX1RN","36U4VBVNQOZD8NFWZXWF9CIHKRIURB","","null","<img src=""img/food4.png"" style=""width:200px; border:14px solid green;"">","null","","","","","","","","","",""
"","image-keyboard-response","91","213464","0.0-135.0","3NPFYT4IZDQGMLY7FTISJYZ2KHNXGW","A1K4FKVCBTX1RN","36U4VBVNQOZD8NFWZXWF9CIHKRIURB","","421.20000000298023","img/food4.png","74","423.20000000298023","1","1","false","3","2","1,0.5,0,1,0.5,0,0.5,0,1","0,1,0.5,0,1,0.5,1,0.5,0","3",""
"","html-keyboard-response","92","213768","0.0-136.0","3NPFYT4IZDQGMLY7FTISJYZ2KHNXGW","A1K4FKVCBTX1RN","36U4VBVNQOZD8NFWZXWF9CIHKRIURB","","null","<img src=""img/food4.png"" style=""width:200px; border:14px solid green;"">","null","","","","","","","","","",""
"","image-keyboard-response","93","214064","0.0-138.0","3NPFYT4IZDQGMLY7FTISJYZ2KHNXGW","A1K4FKVCBTX1RN","36U4VBVNQOZD8NFWZXWF9CIHKRIURB","","293.5","img/food5.png","75","295.5","2","1","false","2","2","1,0.5,0,1,0.5,0,0.5,0,1","0,1,0.5,0,1,0.5,1,0.5,0","3",""
"","html-keyboard-response","94","214367","0.0-139.0","3NPFYT4IZDQGMLY7FTISJYZ2KHNXGW","A1K4FKVCBTX1RN","36U4VBVNQOZD8NFWZXWF9CIHKRIURB","","null","<img src=""img/food5.png"" style=""width:200px; border:14px solid green;"">","null","","","","","","","","","",""
"","image-keyboard-response","95","214912","0.0-141.0","3NPFYT4IZDQGMLY7FTISJYZ2KHNXGW","A1K4FKVCBTX1RN","36U4VBVNQOZD8NFWZXWF9CIHKRIURB","","542.6000000014901","img/food5.png","74","544.5","1","0","false","2","2","1,0.5,0,1,0.5,0,0.5,0,1","0,1,0.5,0,1,0.5,1,0.5,0","3",""
"","html-keyboard-response","96","215215","0.0-142.0","3NPFYT4IZDQGMLY7FTISJYZ2KHNXGW","A1K4FKVCBTX1RN","36U4VBVNQOZD8NFWZXWF9CIHKRIURB","","null","<img src=""img/food5.png"" style=""width:200px;border:14px solid red;"">","null","","","","","","","","","",""
"","image-keyboard-response","97","215408","0.0-144.0","3NPFYT4IZDQGMLY7FTISJYZ2KHNXGW","A1K4FKVCBTX1RN","36U4VBVNQOZD8NFWZXWF9CIHKRIURB","","190.5","img/food5.png","75","192.39999999850988","2","1","false","2","2","1,0.5,0,1,0.5,0,0.5,0,1","0,1,0.5,0,1,0.5,1,0.5,0","3",""
"","html-keyboard-response","98","215712","0.0-145.0","3NPFYT4IZDQGMLY7FTISJYZ2KHNXGW","A1K4FKVCBTX1RN","36U4VBVNQOZD8NFWZXWF9CIHKRIURB","","null","<img src=""img/food5.png"" style=""width:200px; border:14px solid green;"">","null","","","","","","","","","",""
"","image-keyboard-response","99","216184","0.0-147.0","3NPFYT4IZDQGMLY7FTISJYZ2KHNXGW","A1K4FKVCBTX1RN","36U4VBVNQOZD8NFWZXWF9CIHKRIURB","","469.29999999701977","img/food4.png","75","471.19999999552965","2","1","false","3","2","1,0.5,0,1,0.5,0,0.5,0,1","0,1,0.5,0,1,0.5,1,0.5,0","3",""
"","html-keyboard-response","100","216487","0.0-148.0","3NPFYT4IZDQGMLY7FTISJYZ2KHNXGW","A1K4FKVCBTX1RN","36U4VBVNQOZD8NFWZXWF9CIHKRIURB","","null","<img src=""img/food4.png"" style=""width:200px; border:14px solid green;"">","null","","","","","","","","","",""
"","image-keyboard-response","101","217040","0.0-150.0","3NPFYT4IZDQGMLY7FTISJYZ2KHNXGW","A1K4FKVCBTX1RN","36U4VBVNQOZD8NFWZXWF9CIHKRIURB","","549.8999999985099","img/food5.png","75","552.0999999940395","2","1","false","2","2","1,0.5,0,1,0.5,0,0.5,0,1","0,1,0.5,0,1,0.5,1,0.5,0","3",""
"","html-keyboard-response","102","217344","0.0-151.0","3NPFYT4IZDQGMLY7FTISJYZ2KHNXGW","A1K4FKVCBTX1RN","36U4VBVNQOZD8NFWZXWF9CIHKRIURB","","null","<img src=""img/food5.png"" style=""width:200px; border:14px solid green;"">","null","","","","","","","","","",""
"","image-keyboard-response","103","217472","0.0-153.0","3NPFYT4IZDQGMLY7FTISJYZ2KHNXGW","A1K4FKVCBTX1RN","36U4VBVNQOZD8NFWZXWF9CIHKRIURB","","124.09999999403954","img/food2.png","74","127.09999999403954","1","0","false","1","2","1,0.5,0,1,0.5,0,0.5,0,1","0,1,0.5,0,1,0.5,1,0.5,0","3",""
"","html-keyboard-response","104","217775","0.0-154.0","3NPFYT4IZDQGMLY7FTISJYZ2KHNXGW","A1K4FKVCBTX1RN","36U4VBVNQOZD8NFWZXWF9CIHKRIURB","","null","<img src=""img/food2.png"" style=""width:200px;border:14px solid red;"">","null","","","","","","","","","",""
"","image-keyboard-response","105","218352","0.0-156.0","3NPFYT4IZDQGMLY7FTISJYZ2KHNXGW","A1K4FKVCBTX1RN","36U4VBVNQOZD8NFWZXWF9CIHKRIURB","","573.8999999985099","img/food2.png","74","575.8999999985099","1","0","false","1","2","1,0.5,0,1,0.5,0,0.5,0,1","0,1,0.5,0,1,0.5,1,0.5,0","3",""
"","html-keyboard-response","106","218655","0.0-157.0","3NPFYT4IZDQGMLY7FTISJYZ2KHNXGW","A1K4FKVCBTX1RN","36U4VBVNQOZD8NFWZXWF9CIHKRIURB","","null","<img src=""img/food2.png"" style=""width:200px;border:14px solid red;"">","null","","","","","","","","","",""
"","image-keyboard-response","107","219360","0.0-159.0","3NPFYT4IZDQGMLY7FTISJYZ2KHNXGW","A1K4FKVCBTX1RN","36U4VBVNQOZD8NFWZXWF9CIHKRIURB","","702.1000000014901","img/food4.png","74","704","1","1","false","3","2","1,0.5,0,1,0.5,0,0.5,0,1","0,1,0.5,0,1,0.5,1,0.5,0","3",""
"","html-keyboard-response","108","219664","0.0-160.0","3NPFYT4IZDQGMLY7FTISJYZ2KHNXGW","A1K4FKVCBTX1RN","36U4VBVNQOZD8NFWZXWF9CIHKRIURB","","null","<img src=""img/food4.png"" style=""width:200px; border:14px solid green;"">","null","","","","","","","","","",""
"","image-keyboard-response","109","220200","0.0-162.0","3NPFYT4IZDQGMLY7FTISJYZ2KHNXGW","A1K4FKVCBTX1RN","36U4VBVNQOZD8NFWZXWF9CIHKRIURB","","533.3000000044703","img/food4.png","74","535.7000000029802","1","1","false","3","2","1,0.5,0,1,0.5,0,0.5,0,1","0,1,0.5,0,1,0.5,1,0.5,0","3",""
"","html-keyboard-response","110","220504","0.0-163.0","3NPFYT4IZDQGMLY7FTISJYZ2KHNXGW","A1K4FKVCBTX1RN","36U4VBVNQOZD8NFWZXWF9CIHKRIURB","","null","<img src=""img/food4.png"" style=""width:200px; border:14px solid green;"">","null","","","","","","","","","",""
"","image-keyboard-response","111","221336","0.0-165.0","3NPFYT4IZDQGMLY7FTISJYZ2KHNXGW","A1K4FKVCBTX1RN","36U4VBVNQOZD8NFWZXWF9CIHKRIURB","","829.5","img/food5.png","74","831.4000000059605","1","0","false","2","2","1,0.5,0,1,0.5,0,0.5,0,1","0,1,0.5,0,1,0.5,1,0.5,0","3",""
"","html-keyboard-response","112","221639","0.0-166.0","3NPFYT4IZDQGMLY7FTISJYZ2KHNXGW","A1K4FKVCBTX1RN","36U4VBVNQOZD8NFWZXWF9CIHKRIURB","","null","<img src=""img/food5.png"" style=""width:200px;border:14px solid red;"">","null","","","","","","","","","",""
"","image-keyboard-response","113","222256","0.0-168.0","3NPFYT4IZDQGMLY7FTISJYZ2KHNXGW","A1K4FKVCBTX1RN","36U4VBVNQOZD8NFWZXWF9CIHKRIURB","","614.3999999985099","img/food2.png","74","616.1000000014901","1","0","false","1","2","1,0.5,0,1,0.5,0,0.5,0,1","0,1,0.5,0,1,0.5,1,0.5,0","3",""
"","html-keyboard-response","114","222560","0.0-169.0","3NPFYT4IZDQGMLY7FTISJYZ2KHNXGW","A1K4FKVCBTX1RN","36U4VBVNQOZD8NFWZXWF9CIHKRIURB","","null","<img src=""img/food2.png"" style=""width:200px;border:14px solid red;"">","null","","","","","","","","","",""
"","image-keyboard-response","115","223160","0.0-171.0","3NPFYT4IZDQGMLY7FTISJYZ2KHNXGW","A1K4FKVCBTX1RN","36U4VBVNQOZD8NFWZXWF9CIHKRIURB","","597.3999999985099","img/food2.png","74","599.6000000014901","1","0","false","1","2","1,0.5,0,1,0.5,0,0.5,0,1","0,1,0.5,0,1,0.5,1,0.5,0","3",""
"","html-keyboard-response","116","223463","0.0-172.0","3NPFYT4IZDQGMLY7FTISJYZ2KHNXGW","A1K4FKVCBTX1RN","36U4VBVNQOZD8NFWZXWF9CIHKRIURB","","null","<img src=""img/food2.png"" style=""width:200px;border:14px solid red;"">","null","","","","","","","","","",""
"","image-keyboard-response","117","224024","0.0-174.0","3NPFYT4IZDQGMLY7FTISJYZ2KHNXGW","A1K4FKVCBTX1RN","36U4VBVNQOZD8NFWZXWF9CIHKRIURB","","558.3000000044703","img/food5.png","74","560.2999999970198","1","0","false","2","2","1,0.5,0,1,0.5,0,0.5,0,1","0,1,0.5,0,1,0.5,1,0.5,0","3",""
"","html-keyboard-response","118","224328","0.0-175.0","3NPFYT4IZDQGMLY7FTISJYZ2KHNXGW","A1K4FKVCBTX1RN","36U4VBVNQOZD8NFWZXWF9CIHKRIURB","","null","<img src=""img/food5.png"" style=""width:200px;border:14px solid red;"">","null","","","","","","","","","",""
"","image-keyboard-response","119","225088","0.0-177.0","3NPFYT4IZDQGMLY7FTISJYZ2KHNXGW","A1K4FKVCBTX1RN","36U4VBVNQOZD8NFWZXWF9CIHKRIURB","","757.5","img/food4.png","74","759.4000000059605","1","1","false","3","2","1,0.5,0,1,0.5,0,0.5,0,1","0,1,0.5,0,1,0.5,1,0.5,0","3",""
"","html-keyboard-response","120","225391","0.0-178.0","3NPFYT4IZDQGMLY7FTISJYZ2KHNXGW","A1K4FKVCBTX1RN","36U4VBVNQOZD8NFWZXWF9CIHKRIURB","","null","<img src=""img/food4.png"" style=""width:200px; border:14px solid green;"">","null","","","","","","","","","",""
"","image-keyboard-response","121","226312","0.0-180.0","3NPFYT4IZDQGMLY7FTISJYZ2KHNXGW","A1K4FKVCBTX1RN","36U4VBVNQOZD8NFWZXWF9CIHKRIURB","","918","img/food5.png","74","920.0999999940395","1","0","false","2","2","1,0.5,0,1,0.5,0,0.5,0,1","0,1,0.5,0,1,0.5,1,0.5,0","3",""
"","html-keyboard-response","122","226615","0.0-181.0","3NPFYT4IZDQGMLY7FTISJYZ2KHNXGW","A1K4FKVCBTX1RN","36U4VBVNQOZD8NFWZXWF9CIHKRIURB","","null","<img src=""img/food5.png"" style=""width:200px;border:14px solid red;"">","null","","","","","","","","","",""
"","image-keyboard-response","123","227192","0.0-183.0","3NPFYT4IZDQGMLY7FTISJYZ2KHNXGW","A1K4FKVCBTX1RN","36U4VBVNQOZD8NFWZXWF9CIHKRIURB","","574.7000000029802","img/food2.png","75","576.7000000029802","2","1","false","1","2","1,0.5,0,1,0.5,0,0.5,0,1","0,1,0.5,0,1,0.5,1,0.5,0","3",""
"","html-keyboard-response","124","227504","0.0-184.0","3NPFYT4IZDQGMLY7FTISJYZ2KHNXGW","A1K4FKVCBTX1RN","36U4VBVNQOZD8NFWZXWF9CIHKRIURB","","null","<img src=""img/food2.png"" style=""width:200px; border:14px solid green;"">","null","","","","","","","","","",""
"","image-keyboard-response","125","228168","0.0-186.0","3NPFYT4IZDQGMLY7FTISJYZ2KHNXGW","A1K4FKVCBTX1RN","36U4VBVNQOZD8NFWZXWF9CIHKRIURB","","661.5","img/food4.png","74","663.3999999985099","1","1","false","3","2","1,0.5,0,1,0.5,0,0.5,0,1","0,1,0.5,0,1,0.5,1,0.5,0","3",""
"","html-keyboard-response","126","228472","0.0-187.0","3NPFYT4IZDQGMLY7FTISJYZ2KHNXGW","A1K4FKVCBTX1RN","36U4VBVNQOZD8NFWZXWF9CIHKRIURB","","null","<img src=""img/food4.png"" style=""width:200px; border:14px solid green;"">","null","","","","","","","","","",""
"","image-keyboard-response","127","228856","0.0-189.0","3NPFYT4IZDQGMLY7FTISJYZ2KHNXGW","A1K4FKVCBTX1RN","36U4VBVNQOZD8NFWZXWF9CIHKRIURB","","381.3999999985099","img/food2.png","75","383.30000000447035","2","1","false","1","2","1,0.5,0,1,0.5,0,0.5,0,1","0,1,0.5,0,1,0.5,1,0.5,0","3",""
"","html-keyboard-response","128","229158","0.0-190.0","3NPFYT4IZDQGMLY7FTISJYZ2KHNXGW","A1K4FKVCBTX1RN","36U4VBVNQOZD8NFWZXWF9CIHKRIURB","","null","<img src=""img/food2.png"" style=""width:200px; border:14px solid green;"">","null","","","","","","","","","",""
"","image-keyboard-response","129","229984","0.0-192.0","3NPFYT4IZDQGMLY7FTISJYZ2KHNXGW","A1K4FKVCBTX1RN","36U4VBVNQOZD8NFWZXWF9CIHKRIURB","","823.3999999985099","img/food5.png","74","825.2999999970198","1","0","false","2","2","1,0.5,0,1,0.5,0,0.5,0,1","0,1,0.5,0,1,0.5,1,0.5,0","3",""
"","html-keyboard-response","130","230291","0.0-193.0","3NPFYT4IZDQGMLY7FTISJYZ2KHNXGW","A1K4FKVCBTX1RN","36U4VBVNQOZD8NFWZXWF9CIHKRIURB","","null","<img src=""img/food5.png"" style=""width:200px;border:14px solid red;"">","null","","","","","","","","","",""
"","image-keyboard-response","131","230760","0.0-195.0","3NPFYT4IZDQGMLY7FTISJYZ2KHNXGW","A1K4FKVCBTX1RN","36U4VBVNQOZD8NFWZXWF9CIHKRIURB","","466.1000000014901","img/food2.png","75","467.8999999985099","2","1","false","1","2","1,0.5,0,1,0.5,0,0.5,0,1","0,1,0.5,0,1,0.5,1,0.5,0","3",""
"","html-keyboard-response","132","231064","0.0-196.0","3NPFYT4IZDQGMLY7FTISJYZ2KHNXGW","A1K4FKVCBTX1RN","36U4VBVNQOZD8NFWZXWF9CIHKRIURB","","null","<img src=""img/food2.png"" style=""width:200px; border:14px solid green;"">","null","","","","","","","","","",""
"","image-keyboard-response","133","231696","0.0-198.0","3NPFYT4IZDQGMLY7FTISJYZ2KHNXGW","A1K4FKVCBTX1RN","36U4VBVNQOZD8NFWZXWF9CIHKRIURB","","629.1999999955297","img/food4.png","74","631.1999999955297","1","1","false","3","2","1,0.5,0,1,0.5,0,0.5,0,1","0,1,0.5,0,1,0.5,1,0.5,0","3",""
"","html-keyboard-response","134","231998","0.0-199.0","3NPFYT4IZDQGMLY7FTISJYZ2KHNXGW","A1K4FKVCBTX1RN","36U4VBVNQOZD8NFWZXWF9CIHKRIURB","","null","<img src=""img/food4.png"" style=""width:200px; border:14px solid green;"">","null","","","","","","","","","",""
"","image-keyboard-response","135","232464","0.0-201.0","3NPFYT4IZDQGMLY7FTISJYZ2KHNXGW","A1K4FKVCBTX1RN","36U4VBVNQOZD8NFWZXWF9CIHKRIURB","","463.1000000014901","img/food5.png","75","465","2","1","false","2","2","1,0.5,0,1,0.5,0,0.5,0,1","0,1,0.5,0,1,0.5,1,0.5,0","3",""
"","html-keyboard-response","136","232767","0.0-202.0","3NPFYT4IZDQGMLY7FTISJYZ2KHNXGW","A1K4FKVCBTX1RN","36U4VBVNQOZD8NFWZXWF9CIHKRIURB","","null","<img src=""img/food5.png"" style=""width:200px; border:14px solid green;"">","null","","","","","","","","","",""
"","image-keyboard-response","137","233416","0.0-204.0","3NPFYT4IZDQGMLY7FTISJYZ2KHNXGW","A1K4FKVCBTX1RN","36U4VBVNQOZD8NFWZXWF9CIHKRIURB","","646.6000000014901","img/food2.png","75","648.2000000029802","2","1","false","1","2","1,0.5,0,1,0.5,0,0.5,0,1","0,1,0.5,0,1,0.5,1,0.5,0","3",""
"","html-keyboard-response","138","233720","0.0-205.0","3NPFYT4IZDQGMLY7FTISJYZ2KHNXGW","A1K4FKVCBTX1RN","36U4VBVNQOZD8NFWZXWF9CIHKRIURB","","null","<img src=""img/food2.png"" style=""width:200px; border:14px solid green;"">","null","","","","","","","","","",""
"","image-keyboard-response","139","234520","0.0-207.0","3NPFYT4IZDQGMLY7FTISJYZ2KHNXGW","A1K4FKVCBTX1RN","36U4VBVNQOZD8NFWZXWF9CIHKRIURB","","796.5","img/food5.png","74","799","1","0","false","2","2","1,0.5,0,1,0.5,0,0.5,0,1","0,1,0.5,0,1,0.5,1,0.5,0","3",""
"","html-keyboard-response","140","234823","0.0-208.0","3NPFYT4IZDQGMLY7FTISJYZ2KHNXGW","A1K4FKVCBTX1RN","36U4VBVNQOZD8NFWZXWF9CIHKRIURB","","null","<img src=""img/food5.png"" style=""width:200px;border:14px solid red;"">","null","","","","","","","","","",""
"","image-keyboard-response","141","235376","0.0-210.0","3NPFYT4IZDQGMLY7FTISJYZ2KHNXGW","A1K4FKVCBTX1RN","36U4VBVNQOZD8NFWZXWF9CIHKRIURB","","549.7999999970198","img/food5.png","74","551.7999999970198","1","0","false","2","2","1,0.5,0,1,0.5,0,0.5,0,1","0,1,0.5,0,1,0.5,1,0.5,0","3",""
"","html-keyboard-response","142","235686","0.0-211.0","3NPFYT4IZDQGMLY7FTISJYZ2KHNXGW","A1K4FKVCBTX1RN","36U4VBVNQOZD8NFWZXWF9CIHKRIURB","","null","<img src=""img/food5.png"" style=""width:200px;border:14px solid red;"">","null","","","","","","","","","",""
"","image-keyboard-response","143","236280","0.0-213.0","3NPFYT4IZDQGMLY7FTISJYZ2KHNXGW","A1K4FKVCBTX1RN","36U4VBVNQOZD8NFWZXWF9CIHKRIURB","","591.6000000014901","img/food2.png","75","593.5","2","1","false","1","2","1,0.5,0,1,0.5,0,0.5,0,1","0,1,0.5,0,1,0.5,1,0.5,0","3",""
"","html-keyboard-response","144","236583","0.0-214.0","3NPFYT4IZDQGMLY7FTISJYZ2KHNXGW","A1K4FKVCBTX1RN","36U4VBVNQOZD8NFWZXWF9CIHKRIURB","","null","<img src=""img/food2.png"" style=""width:200px; border:14px solid green;"">","null","","","","","","","","","",""
"","image-keyboard-response","145","237327","0.0-216.0","3NPFYT4IZDQGMLY7FTISJYZ2KHNXGW","A1K4FKVCBTX1RN","36U4VBVNQOZD8NFWZXWF9CIHKRIURB","","741.1000000014901","img/food5.png","74","743.2000000029802","1","0","false","2","2","1,0.5,0,1,0.5,0,0.5,0,1","0,1,0.5,0,1,0.5,1,0.5,0","3",""
"","html-keyboard-response","146","237630","0.0-217.0","3NPFYT4IZDQGMLY7FTISJYZ2KHNXGW","A1K4FKVCBTX1RN","36U4VBVNQOZD8NFWZXWF9CIHKRIURB","","null","<img src=""img/food5.png"" style=""width:200px;border:14px solid red;"">","null","","","","","","","","","",""
"","image-keyboard-response","147","238007","0.0-219.0","3NPFYT4IZDQGMLY7FTISJYZ2KHNXGW","A1K4FKVCBTX1RN","36U4VBVNQOZD8NFWZXWF9CIHKRIURB","","375","img/food5.png","74","376.80000000447035","1","0","false","2","2","1,0.5,0,1,0.5,0,0.5,0,1","0,1,0.5,0,1,0.5,1,0.5,0","3",""
"","html-keyboard-response","148","238311","0.0-220.0","3NPFYT4IZDQGMLY7FTISJYZ2KHNXGW","A1K4FKVCBTX1RN","36U4VBVNQOZD8NFWZXWF9CIHKRIURB","","null","<img src=""img/food5.png"" style=""width:200px;border:14px solid red;"">","null","","","","","","","","","",""
"","image-keyboard-response","149","238719","0.0-222.0","3NPFYT4IZDQGMLY7FTISJYZ2KHNXGW","A1K4FKVCBTX1RN","36U4VBVNQOZD8NFWZXWF9CIHKRIURB","","405.30000000447035","img/food5.png","74","407.20000000298023","1","0","false","2","2","1,0.5,0,1,0.5,0,0.5,0,1","0,1,0.5,0,1,0.5,1,0.5,0","3",""
"","html-keyboard-response","150","239023","0.0-223.0","3NPFYT4IZDQGMLY7FTISJYZ2KHNXGW","A1K4FKVCBTX1RN","36U4VBVNQOZD8NFWZXWF9CIHKRIURB","","null","<img src=""img/food5.png"" style=""width:200px;border:14px solid red;"">","null","","","","","","","","","",""
"","image-keyboard-response","151","239567","0.0-225.0","3NPFYT4IZDQGMLY7FTISJYZ2KHNXGW","A1K4FKVCBTX1RN","36U4VBVNQOZD8NFWZXWF9CIHKRIURB","","540.1999999955297","img/food2.png","75","542.6000000014901","2","1","false","1","2","1,0.5,0,1,0.5,0,0.5,0,1","0,1,0.5,0,1,0.5,1,0.5,0","3",""
"","html-keyboard-response","152","239871","0.0-226.0","3NPFYT4IZDQGMLY7FTISJYZ2KHNXGW","A1K4FKVCBTX1RN","36U4VBVNQOZD8NFWZXWF9CIHKRIURB","","null","<img src=""img/food2.png"" style=""width:200px; border:14px solid green;"">","null","","","","","","","","","",""
"","image-keyboard-response","153","240503","0.0-228.0","3NPFYT4IZDQGMLY7FTISJYZ2KHNXGW","A1K4FKVCBTX1RN","36U4VBVNQOZD8NFWZXWF9CIHKRIURB","","629.7999999970198","img/food4.png","74","631.7000000029802","1","1","false","3","2","1,0.5,0,1,0.5,0,0.5,0,1","0,1,0.5,0,1,0.5,1,0.5,0","3",""
"","html-keyboard-response","154","240807","0.0-229.0","3NPFYT4IZDQGMLY7FTISJYZ2KHNXGW","A1K4FKVCBTX1RN","36U4VBVNQOZD8NFWZXWF9CIHKRIURB","","null","<img src=""img/food4.png"" style=""width:200px; border:14px solid green;"">","null","","","","","","","","","",""
"","image-keyboard-response","155","241335","0.0-231.0","3NPFYT4IZDQGMLY7FTISJYZ2KHNXGW","A1K4FKVCBTX1RN","36U4VBVNQOZD8NFWZXWF9CIHKRIURB","","525.8999999985099","img/food4.png","74","527.8999999985099","1","1","false","3","2","1,0.5,0,1,0.5,0,0.5,0,1","0,1,0.5,0,1,0.5,1,0.5,0","3",""
"","html-keyboard-response","156","241639","0.0-232.0","3NPFYT4IZDQGMLY7FTISJYZ2KHNXGW","A1K4FKVCBTX1RN","36U4VBVNQOZD8NFWZXWF9CIHKRIURB","","null","<img src=""img/food4.png"" style=""width:200px; border:14px solid green;"">","null","","","","","","","","","",""
"","image-keyboard-response","157","242111","0.0-234.0","3NPFYT4IZDQGMLY7FTISJYZ2KHNXGW","A1K4FKVCBTX1RN","36U4VBVNQOZD8NFWZXWF9CIHKRIURB","","469.19999999552965","img/food5.png","75","471.20000000298023","2","1","false","2","2","1,0.5,0,1,0.5,0,0.5,0,1","0,1,0.5,0,1,0.5,1,0.5,0","3",""
"","html-keyboard-response","158","242414","0.0-235.0","3NPFYT4IZDQGMLY7FTISJYZ2KHNXGW","A1K4FKVCBTX1RN","36U4VBVNQOZD8NFWZXWF9CIHKRIURB","","null","<img src=""img/food5.png"" style=""width:200px; border:14px solid green;"">","null","","","","","","","","","",""
"","image-keyboard-response","159","242759","0.0-237.0","3NPFYT4IZDQGMLY7FTISJYZ2KHNXGW","A1K4FKVCBTX1RN","36U4VBVNQOZD8NFWZXWF9CIHKRIURB","","342.8999999985099","img/food5.png","74","344.8999999985099","1","0","false","2","2","1,0.5,0,1,0.5,0,0.5,0,1","0,1,0.5,0,1,0.5,1,0.5,0","3",""
"","html-keyboard-response","160","243062","0.0-238.0","3NPFYT4IZDQGMLY7FTISJYZ2KHNXGW","A1K4FKVCBTX1RN","36U4VBVNQOZD8NFWZXWF9CIHKRIURB","","null","<img src=""img/food5.png"" style=""width:200px;border:14px solid red;"">","null","","","","","","","","","",""
"","image-keyboard-response","161","243831","0.0-240.0","3NPFYT4IZDQGMLY7FTISJYZ2KHNXGW","A1K4FKVCBTX1RN","36U4VBVNQOZD8NFWZXWF9CIHKRIURB","","766.1000000014901","img/food4.png","75","767.8999999985099","2","0","false","3","2","1,0.5,0,1,0.5,0,0.5,0,1","0,1,0.5,0,1,0.5,1,0.5,0","3",""
"","html-keyboard-response","162","244137","0.0-241.0","3NPFYT4IZDQGMLY7FTISJYZ2KHNXGW","A1K4FKVCBTX1RN","36U4VBVNQOZD8NFWZXWF9CIHKRIURB","","null","<img src=""img/food4.png"" style=""width:200px;border:14px solid red;"">","null","","","","","","","","","",""
"","image-keyboard-response","163","244831","0.0-243.0","3NPFYT4IZDQGMLY7FTISJYZ2KHNXGW","A1K4FKVCBTX1RN","36U4VBVNQOZD8NFWZXWF9CIHKRIURB","","690.5","img/food2.png","75","693","2","1","false","1","2","1,0.5,0,1,0.5,0,0.5,0,1","0,1,0.5,0,1,0.5,1,0.5,0","3",""
"","html-keyboard-response","164","245135","0.0-244.0","3NPFYT4IZDQGMLY7FTISJYZ2KHNXGW","A1K4FKVCBTX1RN","36U4VBVNQOZD8NFWZXWF9CIHKRIURB","","null","<img src=""img/food2.png"" style=""width:200px; border:14px solid green;"">","null","","","","","","","","","",""
"","image-keyboard-response","165","245775","0.0-246.0","3NPFYT4IZDQGMLY7FTISJYZ2KHNXGW","A1K4FKVCBTX1RN","36U4VBVNQOZD8NFWZXWF9CIHKRIURB","","636.3000000044703","img/food5.png","74","639","1","0","false","2","2","1,0.5,0,1,0.5,0,0.5,0,1","0,1,0.5,0,1,0.5,1,0.5,0","3",""
"","html-keyboard-response","166","246086","0.0-247.0","3NPFYT4IZDQGMLY7FTISJYZ2KHNXGW","A1K4FKVCBTX1RN","36U4VBVNQOZD8NFWZXWF9CIHKRIURB","","null","<img src=""img/food5.png"" style=""width:200px;border:14px solid red;"">","null","","","","","","","","","",""
"","image-keyboard-response","167","246415","0.0-249.0","3NPFYT4IZDQGMLY7FTISJYZ2KHNXGW","A1K4FKVCBTX1RN","36U4VBVNQOZD8NFWZXWF9CIHKRIURB","","326","img/food5.png","74","328","1","0","false","2","2","1,0.5,0,1,0.5,0,0.5,0,1","0,1,0.5,0,1,0.5,1,0.5,0","3",""
"","html-keyboard-response","168","246718","0.0-250.0","3NPFYT4IZDQGMLY7FTISJYZ2KHNXGW","A1K4FKVCBTX1RN","36U4VBVNQOZD8NFWZXWF9CIHKRIURB","","null","<img src=""img/food5.png"" style=""width:200px;border:14px solid red;"">","null","","","","","","","","","",""
"","image-keyboard-response","169","247591","0.0-252.0","3NPFYT4IZDQGMLY7FTISJYZ2KHNXGW","A1K4FKVCBTX1RN","36U4VBVNQOZD8NFWZXWF9CIHKRIURB","","870.2999999970198","img/food2.png","75","872.3999999985099","2","1","false","1","2","1,0.5,0,1,0.5,0,0.5,0,1","0,1,0.5,0,1,0.5,1,0.5,0","3",""
"","html-keyboard-response","170","247895","0.0-253.0","3NPFYT4IZDQGMLY7FTISJYZ2KHNXGW","A1K4FKVCBTX1RN","36U4VBVNQOZD8NFWZXWF9CIHKRIURB","","null","<img src=""img/food2.png"" style=""width:200px; border:14px solid green;"">","null","","","","","","","","","",""
"","image-keyboard-response","171","248413","0.0-255.0","3NPFYT4IZDQGMLY7FTISJYZ2KHNXGW","A1K4FKVCBTX1RN","36U4VBVNQOZD8NFWZXWF9CIHKRIURB","","517.2999999970198","img/food2.png","75","518.5999999940395","2","1","false","1","2","1,0.5,0,1,0.5,0,0.5,0,1","0,1,0.5,0,1,0.5,1,0.5,0","3",""
"","html-keyboard-response","172","248716","0.0-256.0","3NPFYT4IZDQGMLY7FTISJYZ2KHNXGW","A1K4FKVCBTX1RN","36U4VBVNQOZD8NFWZXWF9CIHKRIURB","","null","<img src=""img/food2.png"" style=""width:200px; border:14px solid green;"">","null","","","","","","","","","",""
"","image-keyboard-response","173","249207","0.0-258.0","3NPFYT4IZDQGMLY7FTISJYZ2KHNXGW","A1K4FKVCBTX1RN","36U4VBVNQOZD8NFWZXWF9CIHKRIURB","","488.69999999552965","img/food2.png","75","490.20000000298023","2","1","false","1","2","1,0.5,0,1,0.5,0,0.5,0,1","0,1,0.5,0,1,0.5,1,0.5,0","3",""
"","html-keyboard-response","174","249511","0.0-259.0","3NPFYT4IZDQGMLY7FTISJYZ2KHNXGW","A1K4FKVCBTX1RN","36U4VBVNQOZD8NFWZXWF9CIHKRIURB","","null","<img src=""img/food2.png"" style=""width:200px; border:14px solid green;"">","null","","","","","","","","","",""
"","image-keyboard-response","175","249910","0.0-261.0","3NPFYT4IZDQGMLY7FTISJYZ2KHNXGW","A1K4FKVCBTX1RN","36U4VBVNQOZD8NFWZXWF9CIHKRIURB","","395.8999999985099","img/food2.png","75","397.3999999985099","2","1","false","1","2","1,0.5,0,1,0.5,0,0.5,0,1","0,1,0.5,0,1,0.5,1,0.5,0","3",""
"","html-keyboard-response","176","250213","0.0-262.0","3NPFYT4IZDQGMLY7FTISJYZ2KHNXGW","A1K4FKVCBTX1RN","36U4VBVNQOZD8NFWZXWF9CIHKRIURB","","null","<img src=""img/food2.png"" style=""width:200px; border:14px solid green;"">","null","","","","","","","","","",""
"","image-keyboard-response","177","250614","0.0-264.0","3NPFYT4IZDQGMLY7FTISJYZ2KHNXGW","A1K4FKVCBTX1RN","36U4VBVNQOZD8NFWZXWF9CIHKRIURB","","399.3999999985099","img/food2.png","75","400.6000000014901","2","1","false","1","2","1,0.5,0,1,0.5,0,0.5,0,1","0,1,0.5,0,1,0.5,1,0.5,0","3",""
"","html-keyboard-response","178","250917","0.0-265.0","3NPFYT4IZDQGMLY7FTISJYZ2KHNXGW","A1K4FKVCBTX1RN","36U4VBVNQOZD8NFWZXWF9CIHKRIURB","","null","<img src=""img/food2.png"" style=""width:200px; border:14px solid green;"">","null","","","","","","","","","",""
"","image-keyboard-response","179","251921","0.0-267.0","3NPFYT4IZDQGMLY7FTISJYZ2KHNXGW","A1K4FKVCBTX1RN","36U4VBVNQOZD8NFWZXWF9CIHKRIURB","","","img/food4.png","","1003","-1","0","true","3","2","1,0.5,0,1,0.5,0,0.5,0,1","0,1,0.5,0,1,0.5,1,0.5,0","3",""
"","html-keyboard-response","180","252222","0.0-268.0","3NPFYT4IZDQGMLY7FTISJYZ2KHNXGW","A1K4FKVCBTX1RN","36U4VBVNQOZD8NFWZXWF9CIHKRIURB","","null","<img src=""img/food4.png"" style=""width:200px;border:14px solid red;"">","null","","","","","","","","","",""
"","html-keyboard-response","181","256105","0.0-269.0-0.0","3NPFYT4IZDQGMLY7FTISJYZ2KHNXGW","A1K4FKVCBTX1RN","36U4VBVNQOZD8NFWZXWF9CIHKRIURB","","","","","","","","","","","","","",""
"","image-keyboard-response","182","257107","0.0-270.0","3NPFYT4IZDQGMLY7FTISJYZ2KHNXGW","A1K4FKVCBTX1RN","36U4VBVNQOZD8NFWZXWF9CIHKRIURB","","","img/food5.png","","1002","-1","0","true","2","2","1,0.5,0,1,0.5,0,0.5,0,1","0,1,0.5,0,1,0.5,1,0.5,0","3",""
"","html-keyboard-response","183","257411","0.0-271.0","3NPFYT4IZDQGMLY7FTISJYZ2KHNXGW","A1K4FKVCBTX1RN","36U4VBVNQOZD8NFWZXWF9CIHKRIURB","","null","<img src=""img/food5.png"" style=""width:200px;border:14px solid red;"">","null","","","","","","","","","",""
"","html-keyboard-response","184","264599","0.0-272.0-0.0","3NPFYT4IZDQGMLY7FTISJYZ2KHNXGW","A1K4FKVCBTX1RN","36U4VBVNQOZD8NFWZXWF9CIHKRIURB","","","","","","","","","","","","","",""
"","instructions","185","280575","0.0-273.0","3NPFYT4IZDQGMLY7FTISJYZ2KHNXGW","A1K4FKVCBTX1RN","36U4VBVNQOZD8NFWZXWF9CIHKRIURB","[{""page_index"":0,""viewing_time"":15055.10000000149},{""page_index"":1,""viewing_time"":919.8999999985099}]","15975.30000000447","","","","","","","","","","","",""
"","image-keyboard-response","186","282711","0.0-274.0","3NPFYT4IZDQGMLY7FTISJYZ2KHNXGW","A1K4FKVCBTX1RN","36U4VBVNQOZD8NFWZXWF9CIHKRIURB","","2133.8000000044703","img/food3.png","76","2136.5","3","0","","3","1","1,0.5,0,1,0.5,0,0.5,0,1","0,1,0.5,0,1,0.5,1,0.5,0","3",""
"","html-keyboard-response","187","283017","0.0-275.0","3NPFYT4IZDQGMLY7FTISJYZ2KHNXGW","A1K4FKVCBTX1RN","36U4VBVNQOZD8NFWZXWF9CIHKRIURB","","null","<img src=""img/food3.png"" style=""width:200px;border:14px solid red;"">","null","","","","","","","","","",""
"","image-keyboard-response","188","283639","0.0-276.0","3NPFYT4IZDQGMLY7FTISJYZ2KHNXGW","A1K4FKVCBTX1RN","36U4VBVNQOZD8NFWZXWF9CIHKRIURB","","619.7999999970198","img/food3.png","76","621.6999999955297","3","0","","3","1","1,0.5,0,1,0.5,0,0.5,0,1","0,1,0.5,0,1,0.5,1,0.5,0","3",""
"","html-keyboard-response","189","283942","0.0-277.0","3NPFYT4IZDQGMLY7FTISJYZ2KHNXGW","A1K4FKVCBTX1RN","36U4VBVNQOZD8NFWZXWF9CIHKRIURB","","null","<img src=""img/food3.png"" style=""width:200px;border:14px solid red;"">","null","","","","","","","","","",""
"","image-keyboard-response","190","284975","0.0-278.0","3NPFYT4IZDQGMLY7FTISJYZ2KHNXGW","A1K4FKVCBTX1RN","36U4VBVNQOZD8NFWZXWF9CIHKRIURB","","1030.1000000014901","img/food1.png","74","1032.2000000029802","1","0","","1","1","1,0.5,0,1,0.5,0,0.5,0,1","0,1,0.5,0,1,0.5,1,0.5,0","3",""
"","html-keyboard-response","191","285279","0.0-279.0","3NPFYT4IZDQGMLY7FTISJYZ2KHNXGW","A1K4FKVCBTX1RN","36U4VBVNQOZD8NFWZXWF9CIHKRIURB","","null","<img src=""img/food1.png"" style=""width:200px;border:14px solid red;"">","null","","","","","","","","","",""
"","image-keyboard-response","192","285935","0.0-280.0","3NPFYT4IZDQGMLY7FTISJYZ2KHNXGW","A1K4FKVCBTX1RN","36U4VBVNQOZD8NFWZXWF9CIHKRIURB","","653.3999999985099","img/food1.png","74","655.5","1","0","","1","1","1,0.5,0,1,0.5,0,0.5,0,1","0,1,0.5,0,1,0.5,1,0.5,0","3",""
"","html-keyboard-response","193","286239","0.0-281.0","3NPFYT4IZDQGMLY7FTISJYZ2KHNXGW","A1K4FKVCBTX1RN","36U4VBVNQOZD8NFWZXWF9CIHKRIURB","","null","<img src=""img/food1.png"" style=""width:200px;border:14px solid red;"">","null","","","","","","","","","",""
"","image-keyboard-response","194","287567","0.0-282.0","3NPFYT4IZDQGMLY7FTISJYZ2KHNXGW","A1K4FKVCBTX1RN","36U4VBVNQOZD8NFWZXWF9CIHKRIURB","","1325.2000000029802","img/food6.png","76","1327.5","3","0","","2","1","1,0.5,0,1,0.5,0,0.5,0,1","0,1,0.5,0,1,0.5,1,0.5,0","3",""
"","html-keyboard-response","195","287871","0.0-283.0","3NPFYT4IZDQGMLY7FTISJYZ2KHNXGW","A1K4FKVCBTX1RN","36U4VBVNQOZD8NFWZXWF9CIHKRIURB","","null","<img src=""img/food6.png"" style=""width:200px;border:14px solid red;"">","null","","","","","","","","","",""
"","image-keyboard-response","196","288671","0.0-284.0","3NPFYT4IZDQGMLY7FTISJYZ2KHNXGW","A1K4FKVCBTX1RN","36U4VBVNQOZD8NFWZXWF9CIHKRIURB","","797.2000000029802","img/food3.png","76","799.2000000029802","3","0","","3","1","1,0.5,0,1,0.5,0,0.5,0,1","0,1,0.5,0,1,0.5,1,0.5,0","3",""
"","html-keyboard-response","197","288974","0.0-285.0","3NPFYT4IZDQGMLY7FTISJYZ2KHNXGW","A1K4FKVCBTX1RN","36U4VBVNQOZD8NFWZXWF9CIHKRIURB","","null","<img src=""img/food3.png"" style=""width:200px;border:14px solid red;"">","null","","","","","","","","","",""
"","image-keyboard-response","198","290183","0.0-286.0","3NPFYT4IZDQGMLY7FTISJYZ2KHNXGW","A1K4FKVCBTX1RN","36U4VBVNQOZD8NFWZXWF9CIHKRIURB","","1206.8999999985099","img/food1.png","74","1208.8999999985099","1","0","","1","1","1,0.5,0,1,0.5,0,0.5,0,1","0,1,0.5,0,1,0.5,1,0.5,0","3",""
"","html-keyboard-response","199","290493","0.0-287.0","3NPFYT4IZDQGMLY7FTISJYZ2KHNXGW","A1K4FKVCBTX1RN","36U4VBVNQOZD8NFWZXWF9CIHKRIURB","","null","<img src=""img/food1.png"" style=""width:200px;border:14px solid red;"">","null","","","","","","","","","",""
"","image-keyboard-response","200","292215","0.0-288.0","3NPFYT4IZDQGMLY7FTISJYZ2KHNXGW","A1K4FKVCBTX1RN","36U4VBVNQOZD8NFWZXWF9CIHKRIURB","","1719.6000000014901","img/food6.png","76","1721.6999999955297","3","0","","2","1","1,0.5,0,1,0.5,0,0.5,0,1","0,1,0.5,0,1,0.5,1,0.5,0","3",""
"","html-keyboard-response","201","292518","0.0-289.0","3NPFYT4IZDQGMLY7FTISJYZ2KHNXGW","A1K4FKVCBTX1RN","36U4VBVNQOZD8NFWZXWF9CIHKRIURB","","null","<img src=""img/food6.png"" style=""width:200px;border:14px solid red;"">","null","","","","","","","","","",""
"","image-keyboard-response","202","293055","0.0-290.0","3NPFYT4IZDQGMLY7FTISJYZ2KHNXGW","A1K4FKVCBTX1RN","36U4VBVNQOZD8NFWZXWF9CIHKRIURB","","533.6000000014901","img/food3.png","76","536.1999999955297","3","0","","3","1","1,0.5,0,1,0.5,0,0.5,0,1","0,1,0.5,0,1,0.5,1,0.5,0","3",""
"","html-keyboard-response","203","293365","0.0-291.0","3NPFYT4IZDQGMLY7FTISJYZ2KHNXGW","A1K4FKVCBTX1RN","36U4VBVNQOZD8NFWZXWF9CIHKRIURB","","null","<img src=""img/food3.png"" style=""width:200px;border:14px solid red;"">","null","","","","","","","","","",""
"","image-keyboard-response","204","294119","0.0-292.0","3NPFYT4IZDQGMLY7FTISJYZ2KHNXGW","A1K4FKVCBTX1RN","36U4VBVNQOZD8NFWZXWF9CIHKRIURB","","751.4000000059605","img/food6.png","76","753.6000000014901","3","0","","2","1","1,0.5,0,1,0.5,0,0.5,0,1","0,1,0.5,0,1,0.5,1,0.5,0","3",""
"","html-keyboard-response","205","294423","0.0-293.0","3NPFYT4IZDQGMLY7FTISJYZ2KHNXGW","A1K4FKVCBTX1RN","36U4VBVNQOZD8NFWZXWF9CIHKRIURB","","null","<img src=""img/food6.png"" style=""width:200px;border:14px solid red;"">","null","","","","","","","","","",""
"","image-keyboard-response","206","295047","0.0-294.0","3NPFYT4IZDQGMLY7FTISJYZ2KHNXGW","A1K4FKVCBTX1RN","36U4VBVNQOZD8NFWZXWF9CIHKRIURB","","621.7999999970198","img/food3.png","76","623.7999999970198","3","0","","3","1","1,0.5,0,1,0.5,0,0.5,0,1","0,1,0.5,0,1,0.5,1,0.5,0","3",""
"","html-keyboard-response","207","295351","0.0-295.0","3NPFYT4IZDQGMLY7FTISJYZ2KHNXGW","A1K4FKVCBTX1RN","36U4VBVNQOZD8NFWZXWF9CIHKRIURB","","null","<img src=""img/food3.png"" style=""width:200px;border:14px solid red;"">","null","","","","","","","","","",""
"","image-keyboard-response","208","295911","0.0-296.0","3NPFYT4IZDQGMLY7FTISJYZ2KHNXGW","A1K4FKVCBTX1RN","36U4VBVNQOZD8NFWZXWF9CIHKRIURB","","558.0999999940395","img/food6.png","76","560","3","0","","2","1","1,0.5,0,1,0.5,0,0.5,0,1","0,1,0.5,0,1,0.5,1,0.5,0","3",""
"","html-keyboard-response","209","296214","0.0-297.0","3NPFYT4IZDQGMLY7FTISJYZ2KHNXGW","A1K4FKVCBTX1RN","36U4VBVNQOZD8NFWZXWF9CIHKRIURB","","null","<img src=""img/food6.png"" style=""width:200px;border:14px solid red;"">","null","","","","","","","","","",""
"","image-keyboard-response","210","297008","0.0-298.0","3NPFYT4IZDQGMLY7FTISJYZ2KHNXGW","A1K4FKVCBTX1RN","36U4VBVNQOZD8NFWZXWF9CIHKRIURB","","790.5","img/food6.png","76","792.5","3","0","","2","1","1,0.5,0,1,0.5,0,0.5,0,1","0,1,0.5,0,1,0.5,1,0.5,0","3",""
"","html-keyboard-response","211","297311","0.0-299.0","3NPFYT4IZDQGMLY7FTISJYZ2KHNXGW","A1K4FKVCBTX1RN","36U4VBVNQOZD8NFWZXWF9CIHKRIURB","","null","<img src=""img/food6.png"" style=""width:200px;border:14px solid red;"">","null","","","","","","","","","",""
"","image-keyboard-response","212","297752","0.0-300.0","3NPFYT4IZDQGMLY7FTISJYZ2KHNXGW","A1K4FKVCBTX1RN","36U4VBVNQOZD8NFWZXWF9CIHKRIURB","","438.30000000447035","img/food6.png","76","440.3999999985099","3","1","","2","1","1,0.5,0,1,0.5,0,0.5,0,1","0,1,0.5,0,1,0.5,1,0.5,0","3",""
"","html-keyboard-response","213","298056","0.0-301.0","3NPFYT4IZDQGMLY7FTISJYZ2KHNXGW","A1K4FKVCBTX1RN","36U4VBVNQOZD8NFWZXWF9CIHKRIURB","","null","<img src=""img/food6.png"" style=""width:200px; border:14px solid green;"">","null","","","","","","","","","",""
"","image-keyboard-response","214","298440","0.0-302.0","3NPFYT4IZDQGMLY7FTISJYZ2KHNXGW","A1K4FKVCBTX1RN","36U4VBVNQOZD8NFWZXWF9CIHKRIURB","","381.8999999985099","img/food6.png","76","383.6000000014901","3","0","","2","1","1,0.5,0,1,0.5,0,0.5,0,1","0,1,0.5,0,1,0.5,1,0.5,0","3",""
"","html-keyboard-response","215","298744","0.0-303.0","3NPFYT4IZDQGMLY7FTISJYZ2KHNXGW","A1K4FKVCBTX1RN","36U4VBVNQOZD8NFWZXWF9CIHKRIURB","","null","<img src=""img/food6.png"" style=""width:200px;border:14px solid red;"">","null","","","","","","","","","",""
"","image-keyboard-response","216","299584","0.0-304.0","3NPFYT4IZDQGMLY7FTISJYZ2KHNXGW","A1K4FKVCBTX1RN","36U4VBVNQOZD8NFWZXWF9CIHKRIURB","","836.7999999970198","img/food6.png","76","839.0999999940395","3","1","","2","1","1,0.5,0,1,0.5,0,0.5,0,1","0,1,0.5,0,1,0.5,1,0.5,0","3",""
"","html-keyboard-response","217","299886","0.0-305.0","3NPFYT4IZDQGMLY7FTISJYZ2KHNXGW","A1K4FKVCBTX1RN","36U4VBVNQOZD8NFWZXWF9CIHKRIURB","","null","<img src=""img/food6.png"" style=""width:200px; border:14px solid green;"">","null","","","","","","","","","",""
"","image-keyboard-response","218","300552","0.0-306.0","3NPFYT4IZDQGMLY7FTISJYZ2KHNXGW","A1K4FKVCBTX1RN","36U4VBVNQOZD8NFWZXWF9CIHKRIURB","","663.7000000029802","img/food6.png","76","665.7000000029802","3","1","","2","1","1,0.5,0,1,0.5,0,0.5,0,1","0,1,0.5,0,1,0.5,1,0.5,0","3",""
"","html-keyboard-response","219","300856","0.0-307.0","3NPFYT4IZDQGMLY7FTISJYZ2KHNXGW","A1K4FKVCBTX1RN","36U4VBVNQOZD8NFWZXWF9CIHKRIURB","","null","<img src=""img/food6.png"" style=""width:200px; border:14px solid green;"">","null","","","","","","","","","",""
"","image-keyboard-response","220","301512","0.0-308.0","3NPFYT4IZDQGMLY7FTISJYZ2KHNXGW","A1K4FKVCBTX1RN","36U4VBVNQOZD8NFWZXWF9CIHKRIURB","","653.5","img/food3.png","76","655.3000000044703","3","0","","3","1","1,0.5,0,1,0.5,0,0.5,0,1","0,1,0.5,0,1,0.5,1,0.5,0","3",""
"","html-keyboard-response","221","301815","0.0-309.0","3NPFYT4IZDQGMLY7FTISJYZ2KHNXGW","A1K4FKVCBTX1RN","36U4VBVNQOZD8NFWZXWF9CIHKRIURB","","null","<img src=""img/food3.png"" style=""width:200px;border:14px solid red;"">","null","","","","","","","","","",""
"","image-keyboard-response","222","302400","0.0-310.0","3NPFYT4IZDQGMLY7FTISJYZ2KHNXGW","A1K4FKVCBTX1RN","36U4VBVNQOZD8NFWZXWF9CIHKRIURB","","582","img/food3.png","76","584.1000000014901","3","0","","3","1","1,0.5,0,1,0.5,0,0.5,0,1","0,1,0.5,0,1,0.5,1,0.5,0","3",""
"","html-keyboard-response","223","302705","0.0-311.0","3NPFYT4IZDQGMLY7FTISJYZ2KHNXGW","A1K4FKVCBTX1RN","36U4VBVNQOZD8NFWZXWF9CIHKRIURB","","null","<img src=""img/food3.png"" style=""width:200px;border:14px solid red;"">","null","","","","","","","","","",""
"","image-keyboard-response","224","303680","0.0-312.0","3NPFYT4IZDQGMLY7FTISJYZ2KHNXGW","A1K4FKVCBTX1RN","36U4VBVNQOZD8NFWZXWF9CIHKRIURB","","972.7999999970198","img/food1.png","74","974.6999999955297","1","0","","1","1","1,0.5,0,1,0.5,0,0.5,0,1","0,1,0.5,0,1,0.5,1,0.5,0","3",""
"","html-keyboard-response","225","303983","0.0-313.0","3NPFYT4IZDQGMLY7FTISJYZ2KHNXGW","A1K4FKVCBTX1RN","36U4VBVNQOZD8NFWZXWF9CIHKRIURB","","null","<img src=""img/food1.png"" style=""width:200px;border:14px solid red;"">","null","","","","","","","","","",""
"","image-keyboard-response","226","304856","0.0-314.0","3NPFYT4IZDQGMLY7FTISJYZ2KHNXGW","A1K4FKVCBTX1RN","36U4VBVNQOZD8NFWZXWF9CIHKRIURB","","870.2000000029802","img/food3.png","76","872.1000000014901","3","0","","3","1","1,0.5,0,1,0.5,0,0.5,0,1","0,1,0.5,0,1,0.5,1,0.5,0","3",""
"","html-keyboard-response","227","305159","0.0-315.0","3NPFYT4IZDQGMLY7FTISJYZ2KHNXGW","A1K4FKVCBTX1RN","36U4VBVNQOZD8NFWZXWF9CIHKRIURB","","null","<img src=""img/food3.png"" style=""width:200px;border:14px solid red;"">","null","","","","","","","","","",""
"","image-keyboard-response","228","305976","0.0-316.0","3NPFYT4IZDQGMLY7FTISJYZ2KHNXGW","A1K4FKVCBTX1RN","36U4VBVNQOZD8NFWZXWF9CIHKRIURB","","814.3999999985099","img/food1.png","74","816.8000000044703","1","0","","1","1","1,0.5,0,1,0.5,0,0.5,0,1","0,1,0.5,0,1,0.5,1,0.5,0","3",""
"","html-keyboard-response","229","306281","0.0-317.0","3NPFYT4IZDQGMLY7FTISJYZ2KHNXGW","A1K4FKVCBTX1RN","36U4VBVNQOZD8NFWZXWF9CIHKRIURB","","null","<img src=""img/food1.png"" style=""width:200px;border:14px solid red;"">","null","","","","","","","","","",""
"","image-keyboard-response","230","306800","0.0-318.0","3NPFYT4IZDQGMLY7FTISJYZ2KHNXGW","A1K4FKVCBTX1RN","36U4VBVNQOZD8NFWZXWF9CIHKRIURB","","516.3000000044703","img/food1.png","74","518.6999999955297","1","0","","1","1","1,0.5,0,1,0.5,0,0.5,0,1","0,1,0.5,0,1,0.5,1,0.5,0","3",""
"","html-keyboard-response","231","307104","0.0-319.0","3NPFYT4IZDQGMLY7FTISJYZ2KHNXGW","A1K4FKVCBTX1RN","36U4VBVNQOZD8NFWZXWF9CIHKRIURB","","null","<img src=""img/food1.png"" style=""width:200px;border:14px solid red;"">","null","","","","","","","","","",""
"","image-keyboard-response","232","307960","0.0-320.0","3NPFYT4IZDQGMLY7FTISJYZ2KHNXGW","A1K4FKVCBTX1RN","36U4VBVNQOZD8NFWZXWF9CIHKRIURB","","853.3999999985099","img/food3.png","76","855.7000000029802","3","0","","3","1","1,0.5,0,1,0.5,0,0.5,0,1","0,1,0.5,0,1,0.5,1,0.5,0","3",""
"","html-keyboard-response","233","308263","0.0-321.0","3NPFYT4IZDQGMLY7FTISJYZ2KHNXGW","A1K4FKVCBTX1RN","36U4VBVNQOZD8NFWZXWF9CIHKRIURB","","null","<img src=""img/food3.png"" style=""width:200px;border:14px solid red;"">","null","","","","","","","","","",""
"","image-keyboard-response","234","308864","0.0-322.0","3NPFYT4IZDQGMLY7FTISJYZ2KHNXGW","A1K4FKVCBTX1RN","36U4VBVNQOZD8NFWZXWF9CIHKRIURB","","597.8999999985099","img/food3.png","76","599.7999999970198","3","0","","3","1","1,0.5,0,1,0.5,0,0.5,0,1","0,1,0.5,0,1,0.5,1,0.5,0","3",""
"","html-keyboard-response","235","309169","0.0-323.0","3NPFYT4IZDQGMLY7FTISJYZ2KHNXGW","A1K4FKVCBTX1RN","36U4VBVNQOZD8NFWZXWF9CIHKRIURB","","null","<img src=""img/food3.png"" style=""width:200px;border:14px solid red;"">","null","","","","","","","","","",""
"","image-keyboard-response","236","310144","0.0-324.0","3NPFYT4IZDQGMLY7FTISJYZ2KHNXGW","A1K4FKVCBTX1RN","36U4VBVNQOZD8NFWZXWF9CIHKRIURB","","972.3999999985099","img/food3.png","76","974.6000000014901","3","0","","3","1","1,0.5,0,1,0.5,0,0.5,0,1","0,1,0.5,0,1,0.5,1,0.5,0","3",""
"","html-keyboard-response","237","310446","0.0-325.0","3NPFYT4IZDQGMLY7FTISJYZ2KHNXGW","A1K4FKVCBTX1RN","36U4VBVNQOZD8NFWZXWF9CIHKRIURB","","null","<img src=""img/food3.png"" style=""width:200px;border:14px solid red;"">","null","","","","","","","","","",""
"","image-keyboard-response","238","311360","0.0-326.0","3NPFYT4IZDQGMLY7FTISJYZ2KHNXGW","A1K4FKVCBTX1RN","36U4VBVNQOZD8NFWZXWF9CIHKRIURB","","911","img/food1.png","74","913.3000000044703","1","0","","1","1","1,0.5,0,1,0.5,0,0.5,0,1","0,1,0.5,0,1,0.5,1,0.5,0","3",""
"","html-keyboard-response","239","311664","0.0-327.0","3NPFYT4IZDQGMLY7FTISJYZ2KHNXGW","A1K4FKVCBTX1RN","36U4VBVNQOZD8NFWZXWF9CIHKRIURB","","null","<img src=""img/food1.png"" style=""width:200px;border:14px solid red;"">","null","","","","","","","","","",""
"","image-keyboard-response","240","312608","0.0-328.0","3NPFYT4IZDQGMLY7FTISJYZ2KHNXGW","A1K4FKVCBTX1RN","36U4VBVNQOZD8NFWZXWF9CIHKRIURB","","941.1999999955297","img/food3.png","76","943.1999999955297","3","0","","3","1","1,0.5,0,1,0.5,0,0.5,0,1","0,1,0.5,0,1,0.5,1,0.5,0","3",""
"","html-keyboard-response","241","312910","0.0-329.0","3NPFYT4IZDQGMLY7FTISJYZ2KHNXGW","A1K4FKVCBTX1RN","36U4VBVNQOZD8NFWZXWF9CIHKRIURB","","null","<img src=""img/food3.png"" style=""width:200px;border:14px solid red;"">","null","","","","","","","","","",""
"","image-keyboard-response","242","317232","0.0-330.0","3NPFYT4IZDQGMLY7FTISJYZ2KHNXGW","A1K4FKVCBTX1RN","36U4VBVNQOZD8NFWZXWF9CIHKRIURB","","4318.69999999553","img/food3.png","76","4321.0999999940395","3","0","","3","1","1,0.5,0,1,0.5,0,0.5,0,1","0,1,0.5,0,1,0.5,1,0.5,0","3",""
"","html-keyboard-response","243","317535","0.0-331.0","3NPFYT4IZDQGMLY7FTISJYZ2KHNXGW","A1K4FKVCBTX1RN","36U4VBVNQOZD8NFWZXWF9CIHKRIURB","","null","<img src=""img/food3.png"" style=""width:200px;border:14px solid red;"">","null","","","","","","","","","",""
"","image-keyboard-response","244","317960","0.0-332.0","3NPFYT4IZDQGMLY7FTISJYZ2KHNXGW","A1K4FKVCBTX1RN","36U4VBVNQOZD8NFWZXWF9CIHKRIURB","","422.5","img/food3.png","76","424.5","3","0","","3","1","1,0.5,0,1,0.5,0,0.5,0,1","0,1,0.5,0,1,0.5,1,0.5,0","3",""
"","html-keyboard-response","245","318264","0.0-333.0","3NPFYT4IZDQGMLY7FTISJYZ2KHNXGW","A1K4FKVCBTX1RN","36U4VBVNQOZD8NFWZXWF9CIHKRIURB","","null","<img src=""img/food3.png"" style=""width:200px;border:14px solid red;"">","null","","","","","","","","","",""
"","image-keyboard-response","246","319240","0.0-334.0","3NPFYT4IZDQGMLY7FTISJYZ2KHNXGW","A1K4FKVCBTX1RN","36U4VBVNQOZD8NFWZXWF9CIHKRIURB","","973.5","img/food1.png","74","975.6000000014901","1","0","","1","1","1,0.5,0,1,0.5,0,0.5,0,1","0,1,0.5,0,1,0.5,1,0.5,0","3",""
"","html-keyboard-response","247","319544","0.0-335.0","3NPFYT4IZDQGMLY7FTISJYZ2KHNXGW","A1K4FKVCBTX1RN","36U4VBVNQOZD8NFWZXWF9CIHKRIURB","","null","<img src=""img/food1.png"" style=""width:200px;border:14px solid red;"">","null","","","","","","","","","",""
"","image-keyboard-response","248","320424","0.0-336.0","3NPFYT4IZDQGMLY7FTISJYZ2KHNXGW","A1K4FKVCBTX1RN","36U4VBVNQOZD8NFWZXWF9CIHKRIURB","","876.8999999985099","img/food6.png","76","879.1000000014901","3","1","","2","1","1,0.5,0,1,0.5,0,0.5,0,1","0,1,0.5,0,1,0.5,1,0.5,0","3",""
"","html-keyboard-response","249","320728","0.0-337.0","3NPFYT4IZDQGMLY7FTISJYZ2KHNXGW","A1K4FKVCBTX1RN","36U4VBVNQOZD8NFWZXWF9CIHKRIURB","","null","<img src=""img/food6.png"" style=""width:200px; border:14px solid green;"">","null","","","","","","","","","",""
"","image-keyboard-response","250","321400","0.0-338.0","3NPFYT4IZDQGMLY7FTISJYZ2KHNXGW","A1K4FKVCBTX1RN","36U4VBVNQOZD8NFWZXWF9CIHKRIURB","","669.3000000044703","img/food6.png","76","671.5","3","0","","2","1","1,0.5,0,1,0.5,0,0.5,0,1","0,1,0.5,0,1,0.5,1,0.5,0","3",""
"","html-keyboard-response","251","321704","0.0-339.0","3NPFYT4IZDQGMLY7FTISJYZ2KHNXGW","A1K4FKVCBTX1RN","36U4VBVNQOZD8NFWZXWF9CIHKRIURB","","null","<img src=""img/food6.png"" style=""width:200px;border:14px solid red;"">","null","","","","","","","","","",""
"","image-keyboard-response","252","322528","0.0-340.0","3NPFYT4IZDQGMLY7FTISJYZ2KHNXGW","A1K4FKVCBTX1RN","36U4VBVNQOZD8NFWZXWF9CIHKRIURB","","821.5","img/food6.png","76","823.7999999970198","3","1","","2","1","1,0.5,0,1,0.5,0,0.5,0,1","0,1,0.5,0,1,0.5,1,0.5,0","3",""
"","html-keyboard-response","253","322832","0.0-341.0","3NPFYT4IZDQGMLY7FTISJYZ2KHNXGW","A1K4FKVCBTX1RN","36U4VBVNQOZD8NFWZXWF9CIHKRIURB","","null","<img src=""img/food6.png"" style=""width:200px; border:14px solid green;"">","null","","","","","","","","","",""
"","image-keyboard-response","254","323431","0.0-342.0","3NPFYT4IZDQGMLY7FTISJYZ2KHNXGW","A1K4FKVCBTX1RN","36U4VBVNQOZD8NFWZXWF9CIHKRIURB","","596.3999999985099","img/food6.png","76","598.6000000014901","3","0","","2","1","1,0.5,0,1,0.5,0,0.5,0,1","0,1,0.5,0,1,0.5,1,0.5,0","3",""
"","html-keyboard-response","255","323736","0.0-343.0","3NPFYT4IZDQGMLY7FTISJYZ2KHNXGW","A1K4FKVCBTX1RN","36U4VBVNQOZD8NFWZXWF9CIHKRIURB","","null","<img src=""img/food6.png"" style=""width:200px;border:14px solid red;"">","null","","","","","","","","","",""
"","image-keyboard-response","256","325616","0.0-344.0","3NPFYT4IZDQGMLY7FTISJYZ2KHNXGW","A1K4FKVCBTX1RN","36U4VBVNQOZD8NFWZXWF9CIHKRIURB","","1876.5","img/food3.png","76","1878.8999999985099","3","0","","3","1","1,0.5,0,1,0.5,0,0.5,0,1","0,1,0.5,0,1,0.5,1,0.5,0","3",""
"","html-keyboard-response","257","325919","0.0-345.0","3NPFYT4IZDQGMLY7FTISJYZ2KHNXGW","A1K4FKVCBTX1RN","36U4VBVNQOZD8NFWZXWF9CIHKRIURB","","null","<img src=""img/food3.png"" style=""width:200px;border:14px solid red;"">","null","","","","","","","","","",""
"","image-keyboard-response","258","327320","0.0-346.0","3NPFYT4IZDQGMLY7FTISJYZ2KHNXGW","A1K4FKVCBTX1RN","36U4VBVNQOZD8NFWZXWF9CIHKRIURB","","1398.2999999970198","img/food1.png","74","1400.2999999970198","1","0","","1","1","1,0.5,0,1,0.5,0,0.5,0,1","0,1,0.5,0,1,0.5,1,0.5,0","3",""
"","html-keyboard-response","259","327623","0.0-347.0","3NPFYT4IZDQGMLY7FTISJYZ2KHNXGW","A1K4FKVCBTX1RN","36U4VBVNQOZD8NFWZXWF9CIHKRIURB","","null","<img src=""img/food1.png"" style=""width:200px;border:14px solid red;"">","null","","","","","","","","","",""
"","image-keyboard-response","260","333632","0.0-348.0","3NPFYT4IZDQGMLY7FTISJYZ2KHNXGW","A1K4FKVCBTX1RN","36U4VBVNQOZD8NFWZXWF9CIHKRIURB","","6006.4000000059605","img/food3.png","76","6008.5","3","0","","3","1","1,0.5,0,1,0.5,0,0.5,0,1","0,1,0.5,0,1,0.5,1,0.5,0","3",""
"","html-keyboard-response","261","333937","0.0-349.0","3NPFYT4IZDQGMLY7FTISJYZ2KHNXGW","A1K4FKVCBTX1RN","36U4VBVNQOZD8NFWZXWF9CIHKRIURB","","null","<img src=""img/food3.png"" style=""width:200px;border:14px solid red;"">","null","","","","","","","","","",""
"","image-keyboard-response","262","334648","0.0-350.0","3NPFYT4IZDQGMLY7FTISJYZ2KHNXGW","A1K4FKVCBTX1RN","36U4VBVNQOZD8NFWZXWF9CIHKRIURB","","708","img/food6.png","76","710.2999999970198","3","1","","2","1","1,0.5,0,1,0.5,0,0.5,0,1","0,1,0.5,0,1,0.5,1,0.5,0","3",""
"","html-keyboard-response","263","334952","0.0-351.0","3NPFYT4IZDQGMLY7FTISJYZ2KHNXGW","A1K4FKVCBTX1RN","36U4VBVNQOZD8NFWZXWF9CIHKRIURB","","null","<img src=""img/food6.png"" style=""width:200px; border:14px solid green;"">","null","","","","","","","","","",""
"","image-keyboard-response","264","336544","0.0-352.0","3NPFYT4IZDQGMLY7FTISJYZ2KHNXGW","A1K4FKVCBTX1RN","36U4VBVNQOZD8NFWZXWF9CIHKRIURB","","1589.3999999985099","img/food1.png","74","1591.3999999985099","1","0","","1","1","1,0.5,0,1,0.5,0,0.5,0,1","0,1,0.5,0,1,0.5,1,0.5,0","3",""
"","html-keyboard-response","265","336848","0.0-353.0","3NPFYT4IZDQGMLY7FTISJYZ2KHNXGW","A1K4FKVCBTX1RN","36U4VBVNQOZD8NFWZXWF9CIHKRIURB","","null","<img src=""img/food1.png"" style=""width:200px;border:14px solid red;"">","null","","","","","","","","","",""
"","image-keyboard-response","266","337656","0.0-354.0","3NPFYT4IZDQGMLY7FTISJYZ2KHNXGW","A1K4FKVCBTX1RN","36U4VBVNQOZD8NFWZXWF9CIHKRIURB","","805","img/food6.png","76","807.2999999970198","3","0","","2","1","1,0.5,0,1,0.5,0,0.5,0,1","0,1,0.5,0,1,0.5,1,0.5,0","3",""
"","html-keyboard-response","267","337959","0.0-355.0","3NPFYT4IZDQGMLY7FTISJYZ2KHNXGW","A1K4FKVCBTX1RN","36U4VBVNQOZD8NFWZXWF9CIHKRIURB","","null","<img src=""img/food6.png"" style=""width:200px;border:14px solid red;"">","null","","","","","","","","","",""
"","image-keyboard-response","268","338752","0.0-356.0","3NPFYT4IZDQGMLY7FTISJYZ2KHNXGW","A1K4FKVCBTX1RN","36U4VBVNQOZD8NFWZXWF9CIHKRIURB","","789.7999999970198","img/food1.png","74","792","1","0","","1","1","1,0.5,0,1,0.5,0,0.5,0,1","0,1,0.5,0,1,0.5,1,0.5,0","3",""
"","html-keyboard-response","269","339055","0.0-357.0","3NPFYT4IZDQGMLY7FTISJYZ2KHNXGW","A1K4FKVCBTX1RN","36U4VBVNQOZD8NFWZXWF9CIHKRIURB","","null","<img src=""img/food1.png"" style=""width:200px;border:14px solid red;"">","null","","","","","","","","","",""
"","image-keyboard-response","270","339696","0.0-358.0","3NPFYT4IZDQGMLY7FTISJYZ2KHNXGW","A1K4FKVCBTX1RN","36U4VBVNQOZD8NFWZXWF9CIHKRIURB","","637.7999999970198","img/food1.png","74","640.4000000059605","1","0","","1","1","1,0.5,0,1,0.5,0,0.5,0,1","0,1,0.5,0,1,0.5,1,0.5,0","3",""
"","html-keyboard-response","271","340000","0.0-359.0","3NPFYT4IZDQGMLY7FTISJYZ2KHNXGW","A1K4FKVCBTX1RN","36U4VBVNQOZD8NFWZXWF9CIHKRIURB","","null","<img src=""img/food1.png"" style=""width:200px;border:14px solid red;"">","null","","","","","","","","","",""
"","image-keyboard-response","272","340432","0.0-360.0","3NPFYT4IZDQGMLY7FTISJYZ2KHNXGW","A1K4FKVCBTX1RN","36U4VBVNQOZD8NFWZXWF9CIHKRIURB","","428.70000000298023","img/food1.png","74","431.1000000014901","1","0","","1","1","1,0.5,0,1,0.5,0,0.5,0,1","0,1,0.5,0,1,0.5,1,0.5,0","3",""
"","html-keyboard-response","273","340736","0.0-361.0","3NPFYT4IZDQGMLY7FTISJYZ2KHNXGW","A1K4FKVCBTX1RN","36U4VBVNQOZD8NFWZXWF9CIHKRIURB","","null","<img src=""img/food1.png"" style=""width:200px;border:14px solid red;"">","null","","","","","","","","","",""
"","image-keyboard-response","274","341528","0.0-362.0","3NPFYT4IZDQGMLY7FTISJYZ2KHNXGW","A1K4FKVCBTX1RN","36U4VBVNQOZD8NFWZXWF9CIHKRIURB","","789.6000000014901","img/food3.png","76","791.5","3","0","","3","1","1,0.5,0,1,0.5,0,0.5,0,1","0,1,0.5,0,1,0.5,1,0.5,0","3",""
"","html-keyboard-response","275","341833","0.0-363.0","3NPFYT4IZDQGMLY7FTISJYZ2KHNXGW","A1K4FKVCBTX1RN","36U4VBVNQOZD8NFWZXWF9CIHKRIURB","","null","<img src=""img/food3.png"" style=""width:200px;border:14px solid red;"">","null","","","","","","","","","",""
"","image-keyboard-response","276","342544","0.0-364.0","3NPFYT4IZDQGMLY7FTISJYZ2KHNXGW","A1K4FKVCBTX1RN","36U4VBVNQOZD8NFWZXWF9CIHKRIURB","","708.6000000014901","img/food3.png","76","710.7000000029802","3","0","","3","1","1,0.5,0,1,0.5,0,0.5,0,1","0,1,0.5,0,1,0.5,1,0.5,0","3",""
"","html-keyboard-response","277","342855","0.0-365.0","3NPFYT4IZDQGMLY7FTISJYZ2KHNXGW","A1K4FKVCBTX1RN","36U4VBVNQOZD8NFWZXWF9CIHKRIURB","","null","<img src=""img/food3.png"" style=""width:200px;border:14px solid red;"">","null","","","","","","","","","",""
"","image-keyboard-response","278","343408","0.0-366.0","3NPFYT4IZDQGMLY7FTISJYZ2KHNXGW","A1K4FKVCBTX1RN","36U4VBVNQOZD8NFWZXWF9CIHKRIURB","","549.7999999970198","img/food3.png","76","551.8999999985099","3","0","","3","1","1,0.5,0,1,0.5,0,0.5,0,1","0,1,0.5,0,1,0.5,1,0.5,0","3",""
"","html-keyboard-response","279","343712","0.0-367.0","3NPFYT4IZDQGMLY7FTISJYZ2KHNXGW","A1K4FKVCBTX1RN","36U4VBVNQOZD8NFWZXWF9CIHKRIURB","","null","<img src=""img/food3.png"" style=""width:200px;border:14px solid red;"">","null","","","","","","","","","",""
"","image-keyboard-response","280","344960","0.0-368.0","3NPFYT4IZDQGMLY7FTISJYZ2KHNXGW","A1K4FKVCBTX1RN","36U4VBVNQOZD8NFWZXWF9CIHKRIURB","","1245.7999999970198","img/food3.png","76","1247.7999999970198","3","0","","3","1","1,0.5,0,1,0.5,0,0.5,0,1","0,1,0.5,0,1,0.5,1,0.5,0","3",""
"","html-keyboard-response","281","345263","0.0-369.0","3NPFYT4IZDQGMLY7FTISJYZ2KHNXGW","A1K4FKVCBTX1RN","36U4VBVNQOZD8NFWZXWF9CIHKRIURB","","null","<img src=""img/food3.png"" style=""width:200px;border:14px solid red;"">","null","","","","","","","","","",""
"","image-keyboard-response","282","346056","0.0-370.0","3NPFYT4IZDQGMLY7FTISJYZ2KHNXGW","A1K4FKVCBTX1RN","36U4VBVNQOZD8NFWZXWF9CIHKRIURB","","790.8000000044703","img/food1.png","74","792.4000000059605","1","0","","1","1","1,0.5,0,1,0.5,0,0.5,0,1","0,1,0.5,0,1,0.5,1,0.5,0","3",""
"","html-keyboard-response","283","346359","0.0-371.0","3NPFYT4IZDQGMLY7FTISJYZ2KHNXGW","A1K4FKVCBTX1RN","36U4VBVNQOZD8NFWZXWF9CIHKRIURB","","null","<img src=""img/food1.png"" style=""width:200px;border:14px solid red;"">","null","","","","","","","","","",""
"","image-keyboard-response","284","346943","0.0-372.0","3NPFYT4IZDQGMLY7FTISJYZ2KHNXGW","A1K4FKVCBTX1RN","36U4VBVNQOZD8NFWZXWF9CIHKRIURB","","582.5","img/food1.png","74","584.3000000044703","1","0","","1","1","1,0.5,0,1,0.5,0,0.5,0,1","0,1,0.5,0,1,0.5,1,0.5,0","3",""
"","html-keyboard-response","285","347246","0.0-373.0","3NPFYT4IZDQGMLY7FTISJYZ2KHNXGW","A1K4FKVCBTX1RN","36U4VBVNQOZD8NFWZXWF9CIHKRIURB","","null","<img src=""img/food1.png"" style=""width:200px;border:14px solid red;"">","null","","","","","","","","","",""
"","image-keyboard-response","286","347848","0.0-374.0","3NPFYT4IZDQGMLY7FTISJYZ2KHNXGW","A1K4FKVCBTX1RN","36U4VBVNQOZD8NFWZXWF9CIHKRIURB","","598.3999999985099","img/food3.png","76","600.7000000029802","3","0","","3","1","1,0.5,0,1,0.5,0,0.5,0,1","0,1,0.5,0,1,0.5,1,0.5,0","3",""
"","html-keyboard-response","287","348152","0.0-375.0","3NPFYT4IZDQGMLY7FTISJYZ2KHNXGW","A1K4FKVCBTX1RN","36U4VBVNQOZD8NFWZXWF9CIHKRIURB","","null","<img src=""img/food3.png"" style=""width:200px;border:14px solid red;"">","null","","","","","","","","","",""
"","image-keyboard-response","288","348992","0.0-376.0","3NPFYT4IZDQGMLY7FTISJYZ2KHNXGW","A1K4FKVCBTX1RN","36U4VBVNQOZD8NFWZXWF9CIHKRIURB","","837.2000000029802","img/food6.png","76","839.5999999940395","3","1","","2","1","1,0.5,0,1,0.5,0,0.5,0,1","0,1,0.5,0,1,0.5,1,0.5,0","3",""
"","html-keyboard-response","289","349296","0.0-377.0","3NPFYT4IZDQGMLY7FTISJYZ2KHNXGW","A1K4FKVCBTX1RN","36U4VBVNQOZD8NFWZXWF9CIHKRIURB","","null","<img src=""img/food6.png"" style=""width:200px; border:14px solid green;"">","null","","","","","","","","","",""
"","image-keyboard-response","290","349856","0.0-378.0","3NPFYT4IZDQGMLY7FTISJYZ2KHNXGW","A1K4FKVCBTX1RN","36U4VBVNQOZD8NFWZXWF9CIHKRIURB","","557.2000000029802","img/food3.png","76","559.4000000059605","3","0","","3","1","1,0.5,0,1,0.5,0,0.5,0,1","0,1,0.5,0,1,0.5,1,0.5,0","3",""
"","html-keyboard-response","291","350161","0.0-379.0","3NPFYT4IZDQGMLY7FTISJYZ2KHNXGW","A1K4FKVCBTX1RN","36U4VBVNQOZD8NFWZXWF9CIHKRIURB","","null","<img src=""img/food3.png"" style=""width:200px;border:14px solid red;"">","null","","","","","","","","","",""
"","image-keyboard-response","292","350712","0.0-380.0","3NPFYT4IZDQGMLY7FTISJYZ2KHNXGW","A1K4FKVCBTX1RN","36U4VBVNQOZD8NFWZXWF9CIHKRIURB","","547.2999999970198","img/food6.png","76","550.1000000014901","3","1","","2","1","1,0.5,0,1,0.5,0,0.5,0,1","0,1,0.5,0,1,0.5,1,0.5,0","3",""
"","html-keyboard-response","293","351015","0.0-381.0","3NPFYT4IZDQGMLY7FTISJYZ2KHNXGW","A1K4FKVCBTX1RN","36U4VBVNQOZD8NFWZXWF9CIHKRIURB","","null","<img src=""img/food6.png"" style=""width:200px; border:14px solid green;"">","null","","","","","","","","","",""
"","image-keyboard-response","294","351824","0.0-382.0","3NPFYT4IZDQGMLY7FTISJYZ2KHNXGW","A1K4FKVCBTX1RN","36U4VBVNQOZD8NFWZXWF9CIHKRIURB","","806.2999999970198","img/food1.png","74","808.2999999970198","1","0","","1","1","1,0.5,0,1,0.5,0,0.5,0,1","0,1,0.5,0,1,0.5,1,0.5,0","3",""
"","html-keyboard-response","295","352127","0.0-383.0","3NPFYT4IZDQGMLY7FTISJYZ2KHNXGW","A1K4FKVCBTX1RN","36U4VBVNQOZD8NFWZXWF9CIHKRIURB","","null","<img src=""img/food1.png"" style=""width:200px;border:14px solid red;"">","null","","","","","","","","","",""
"","image-keyboard-response","296","353072","0.0-384.0","3NPFYT4IZDQGMLY7FTISJYZ2KHNXGW","A1K4FKVCBTX1RN","36U4VBVNQOZD8NFWZXWF9CIHKRIURB","","942.3999999985099","img/food6.png","76","944.5","3","1","","2","1","1,0.5,0,1,0.5,0,0.5,0,1","0,1,0.5,0,1,0.5,1,0.5,0","3",""
"","html-keyboard-response","297","353379","0.0-385.0","3NPFYT4IZDQGMLY7FTISJYZ2KHNXGW","A1K4FKVCBTX1RN","36U4VBVNQOZD8NFWZXWF9CIHKRIURB","","null","<img src=""img/food6.png"" style=""width:200px; border:14px solid green;"">","null","","","","","","","","","",""
"","image-keyboard-response","298","354103","0.0-386.0","3NPFYT4IZDQGMLY7FTISJYZ2KHNXGW","A1K4FKVCBTX1RN","36U4VBVNQOZD8NFWZXWF9CIHKRIURB","","722.3999999985099","img/food3.png","76","724.3999999985099","3","0","","3","1","1,0.5,0,1,0.5,0,0.5,0,1","0,1,0.5,0,1,0.5,1,0.5,0","3",""
"","html-keyboard-response","299","354407","0.0-387.0","3NPFYT4IZDQGMLY7FTISJYZ2KHNXGW","A1K4FKVCBTX1RN","36U4VBVNQOZD8NFWZXWF9CIHKRIURB","","null","<img src=""img/food3.png"" style=""width:200px;border:14px solid red;"">","null","","","","","","","","","",""
"","image-keyboard-response","300","354888","0.0-388.0","3NPFYT4IZDQGMLY7FTISJYZ2KHNXGW","A1K4FKVCBTX1RN","36U4VBVNQOZD8NFWZXWF9CIHKRIURB","","478.09999999403954","img/food6.png","76","480.29999999701977","3","1","","2","1","1,0.5,0,1,0.5,0,0.5,0,1","0,1,0.5,0,1,0.5,1,0.5,0","3",""
"","html-keyboard-response","301","355192","0.0-389.0","3NPFYT4IZDQGMLY7FTISJYZ2KHNXGW","A1K4FKVCBTX1RN","36U4VBVNQOZD8NFWZXWF9CIHKRIURB","","null","<img src=""img/food6.png"" style=""width:200px; border:14px solid green;"">","null","","","","","","","","","",""
"","image-keyboard-response","302","355976","0.0-390.0","3NPFYT4IZDQGMLY7FTISJYZ2KHNXGW","A1K4FKVCBTX1RN","36U4VBVNQOZD8NFWZXWF9CIHKRIURB","","782.6000000014901","img/food1.png","74","784.2000000029802","1","0","","1","1","1,0.5,0,1,0.5,0,0.5,0,1","0,1,0.5,0,1,0.5,1,0.5,0","3",""
"","html-keyboard-response","303","356279","0.0-391.0","3NPFYT4IZDQGMLY7FTISJYZ2KHNXGW","A1K4FKVCBTX1RN","36U4VBVNQOZD8NFWZXWF9CIHKRIURB","","null","<img src=""img/food1.png"" style=""width:200px;border:14px solid red;"">","null","","","","","","","","","",""
"","image-keyboard-response","304","356848","0.0-392.0","3NPFYT4IZDQGMLY7FTISJYZ2KHNXGW","A1K4FKVCBTX1RN","36U4VBVNQOZD8NFWZXWF9CIHKRIURB","","567.1000000014901","img/food6.png","74","568.8000000044703","1","0","","2","1","1,0.5,0,1,0.5,0,0.5,0,1","0,1,0.5,0,1,0.5,1,0.5,0","3",""
"","html-keyboard-response","305","357152","0.0-393.0","3NPFYT4IZDQGMLY7FTISJYZ2KHNXGW","A1K4FKVCBTX1RN","36U4VBVNQOZD8NFWZXWF9CIHKRIURB","","null","<img src=""img/food6.png"" style=""width:200px;border:14px solid red;"">","null","","","","","","","","","",""
"","image-keyboard-response","306","358159","0.0-394.0","3NPFYT4IZDQGMLY7FTISJYZ2KHNXGW","A1K4FKVCBTX1RN","36U4VBVNQOZD8NFWZXWF9CIHKRIURB","","1004.8000000044703","img/food1.png","74","1007","1","0","","1","1","1,0.5,0,1,0.5,0,0.5,0,1","0,1,0.5,0,1,0.5,1,0.5,0","3",""
"","html-keyboard-response","307","358462","0.0-395.0","3NPFYT4IZDQGMLY7FTISJYZ2KHNXGW","A1K4FKVCBTX1RN","36U4VBVNQOZD8NFWZXWF9CIHKRIURB","","null","<img src=""img/food1.png"" style=""width:200px;border:14px solid red;"">","null","","","","","","","","","",""
"","image-keyboard-response","308","359103","0.0-396.0","3NPFYT4IZDQGMLY7FTISJYZ2KHNXGW","A1K4FKVCBTX1RN","36U4VBVNQOZD8NFWZXWF9CIHKRIURB","","638.3000000044703","img/food3.png","76","640.2999999970198","3","0","","3","1","1,0.5,0,1,0.5,0,0.5,0,1","0,1,0.5,0,1,0.5,1,0.5,0","3",""
"","html-keyboard-response","309","359410","0.0-397.0","3NPFYT4IZDQGMLY7FTISJYZ2KHNXGW","A1K4FKVCBTX1RN","36U4VBVNQOZD8NFWZXWF9CIHKRIURB","","null","<img src=""img/food3.png"" style=""width:200px;border:14px solid red;"">","null","","","","","","","","","",""
"","image-keyboard-response","310","360351","0.0-398.0","3NPFYT4IZDQGMLY7FTISJYZ2KHNXGW","A1K4FKVCBTX1RN","36U4VBVNQOZD8NFWZXWF9CIHKRIURB","","939.8000000044703","img/food1.png","74","941.3999999985099","1","0","","1","1","1,0.5,0,1,0.5,0,0.5,0,1","0,1,0.5,0,1,0.5,1,0.5,0","3",""
"","html-keyboard-response","311","360654","0.0-399.0","3NPFYT4IZDQGMLY7FTISJYZ2KHNXGW","A1K4FKVCBTX1RN","36U4VBVNQOZD8NFWZXWF9CIHKRIURB","","null","<img src=""img/food1.png"" style=""width:200px;border:14px solid red;"">","null","","","","","","","","","",""
"","image-keyboard-response","312","361503","0.0-400.0","3NPFYT4IZDQGMLY7FTISJYZ2KHNXGW","A1K4FKVCBTX1RN","36U4VBVNQOZD8NFWZXWF9CIHKRIURB","","846.2000000029802","img/food6.png","76","848.2999999970198","3","1","","2","1","1,0.5,0,1,0.5,0,0.5,0,1","0,1,0.5,0,1,0.5,1,0.5,0","3",""
"","html-keyboard-response","313","361807","0.0-401.0","3NPFYT4IZDQGMLY7FTISJYZ2KHNXGW","A1K4FKVCBTX1RN","36U4VBVNQOZD8NFWZXWF9CIHKRIURB","","null","<img src=""img/food6.png"" style=""width:200px; border:14px solid green;"">","null","","","","","","","","","",""
"","image-keyboard-response","314","362543","0.0-402.0","3NPFYT4IZDQGMLY7FTISJYZ2KHNXGW","A1K4FKVCBTX1RN","36U4VBVNQOZD8NFWZXWF9CIHKRIURB","","734.2000000029802","img/food3.png","76","736.3000000044703","3","0","","3","1","1,0.5,0,1,0.5,0,0.5,0,1","0,1,0.5,0,1,0.5,1,0.5,0","3",""
"","html-keyboard-response","315","362847","0.0-403.0","3NPFYT4IZDQGMLY7FTISJYZ2KHNXGW","A1K4FKVCBTX1RN","36U4VBVNQOZD8NFWZXWF9CIHKRIURB","","null","<img src=""img/food3.png"" style=""width:200px;border:14px solid red;"">","null","","","","","","","","","",""
"","image-keyboard-response","316","363479","0.0-404.0","3NPFYT4IZDQGMLY7FTISJYZ2KHNXGW","A1K4FKVCBTX1RN","36U4VBVNQOZD8NFWZXWF9CIHKRIURB","","628.6999999955297","img/food6.png","76","630.8999999985099","3","0","","2","1","1,0.5,0,1,0.5,0,0.5,0,1","0,1,0.5,0,1,0.5,1,0.5,0","3",""
"","html-keyboard-response","317","363782","0.0-405.0","3NPFYT4IZDQGMLY7FTISJYZ2KHNXGW","A1K4FKVCBTX1RN","36U4VBVNQOZD8NFWZXWF9CIHKRIURB","","null","<img src=""img/food6.png"" style=""width:200px;border:14px solid red;"">","null","","","","","","","","","",""
"","image-keyboard-response","318","364335","0.0-406.0","3NPFYT4IZDQGMLY7FTISJYZ2KHNXGW","A1K4FKVCBTX1RN","36U4VBVNQOZD8NFWZXWF9CIHKRIURB","","550.5","img/food3.png","76","552.6000000014901","3","0","","3","1","1,0.5,0,1,0.5,0,0.5,0,1","0,1,0.5,0,1,0.5,1,0.5,0","3",""
"","html-keyboard-response","319","364639","0.0-407.0","3NPFYT4IZDQGMLY7FTISJYZ2KHNXGW","A1K4FKVCBTX1RN","36U4VBVNQOZD8NFWZXWF9CIHKRIURB","","null","<img src=""img/food3.png"" style=""width:200px;border:14px solid red;"">","null","","","","","","","","","",""
"","image-keyboard-response","320","365655","0.0-408.0","3NPFYT4IZDQGMLY7FTISJYZ2KHNXGW","A1K4FKVCBTX1RN","36U4VBVNQOZD8NFWZXWF9CIHKRIURB","","1013.2000000029802","img/food3.png","76","1015.3999999985099","3","0","","3","1","1,0.5,0,1,0.5,0,0.5,0,1","0,1,0.5,0,1,0.5,1,0.5,0","3",""
"","html-keyboard-response","321","365959","0.0-409.0","3NPFYT4IZDQGMLY7FTISJYZ2KHNXGW","A1K4FKVCBTX1RN","36U4VBVNQOZD8NFWZXWF9CIHKRIURB","","null","<img src=""img/food3.png"" style=""width:200px;border:14px solid red;"">","null","","","","","","","","","",""
"","image-keyboard-response","322","366686","0.0-410.0","3NPFYT4IZDQGMLY7FTISJYZ2KHNXGW","A1K4FKVCBTX1RN","36U4VBVNQOZD8NFWZXWF9CIHKRIURB","","724.1000000014901","img/food1.png","74","726.3999999985099","1","0","","1","1","1,0.5,0,1,0.5,0,0.5,0,1","0,1,0.5,0,1,0.5,1,0.5,0","3",""
"","html-keyboard-response","323","366989","0.0-411.0","3NPFYT4IZDQGMLY7FTISJYZ2KHNXGW","A1K4FKVCBTX1RN","36U4VBVNQOZD8NFWZXWF9CIHKRIURB","","null","<img src=""img/food1.png"" style=""width:200px;border:14px solid red;"">","null","","","","","","","","","",""
"","image-keyboard-response","324","367510","0.0-412.0","3NPFYT4IZDQGMLY7FTISJYZ2KHNXGW","A1K4FKVCBTX1RN","36U4VBVNQOZD8NFWZXWF9CIHKRIURB","","518.3999999985099","img/food1.png","74","520.5","1","0","","1","1","1,0.5,0,1,0.5,0,0.5,0,1","0,1,0.5,0,1,0.5,1,0.5,0","3",""
"","html-keyboard-response","325","367813","0.0-413.0","3NPFYT4IZDQGMLY7FTISJYZ2KHNXGW","A1K4FKVCBTX1RN","36U4VBVNQOZD8NFWZXWF9CIHKRIURB","","null","<img src=""img/food1.png"" style=""width:200px;border:14px solid red;"">","null","","","","","","","","","",""
"","image-keyboard-response","326","368375","0.0-414.0","3NPFYT4IZDQGMLY7FTISJYZ2KHNXGW","A1K4FKVCBTX1RN","36U4VBVNQOZD8NFWZXWF9CIHKRIURB","","559.2000000029802","img/food1.png","74","561.5","1","0","","1","1","1,0.5,0,1,0.5,0,0.5,0,1","0,1,0.5,0,1,0.5,1,0.5,0","3",""
"","html-keyboard-response","327","368680","0.0-415.0","3NPFYT4IZDQGMLY7FTISJYZ2KHNXGW","A1K4FKVCBTX1RN","36U4VBVNQOZD8NFWZXWF9CIHKRIURB","","null","<img src=""img/food1.png"" style=""width:200px;border:14px solid red;"">","null","","","","","","","","","",""
"","image-keyboard-response","328","369167","0.0-416.0","3NPFYT4IZDQGMLY7FTISJYZ2KHNXGW","A1K4FKVCBTX1RN","36U4VBVNQOZD8NFWZXWF9CIHKRIURB","","483.19999999552965","img/food1.png","74","485.79999999701977","1","0","","1","1","1,0.5,0,1,0.5,0,0.5,0,1","0,1,0.5,0,1,0.5,1,0.5,0","3",""
"","html-keyboard-response","329","369470","0.0-417.0","3NPFYT4IZDQGMLY7FTISJYZ2KHNXGW","A1K4FKVCBTX1RN","36U4VBVNQOZD8NFWZXWF9CIHKRIURB","","null","<img src=""img/food1.png"" style=""width:200px;border:14px solid red;"">","null","","","","","","","","","",""
"","image-keyboard-response","330","370063","0.0-418.0","3NPFYT4IZDQGMLY7FTISJYZ2KHNXGW","A1K4FKVCBTX1RN","36U4VBVNQOZD8NFWZXWF9CIHKRIURB","","591.3999999985099","img/food1.png","74","593","1","0","","1","1","1,0.5,0,1,0.5,0,0.5,0,1","0,1,0.5,0,1,0.5,1,0.5,0","3",""
"","html-keyboard-response","331","370367","0.0-419.0","3NPFYT4IZDQGMLY7FTISJYZ2KHNXGW","A1K4FKVCBTX1RN","36U4VBVNQOZD8NFWZXWF9CIHKRIURB","","null","<img src=""img/food1.png"" style=""width:200px;border:14px solid red;"">","null","","","","","","","","","",""
"","image-keyboard-response","332","371079","0.0-420.0","3NPFYT4IZDQGMLY7FTISJYZ2KHNXGW","A1K4FKVCBTX1RN","36U4VBVNQOZD8NFWZXWF9CIHKRIURB","","709.3999999985099","img/food6.png","76","711.5","3","1","","2","1","1,0.5,0,1,0.5,0,0.5,0,1","0,1,0.5,0,1,0.5,1,0.5,0","3",""
"","html-keyboard-response","333","371382","0.0-421.0","3NPFYT4IZDQGMLY7FTISJYZ2KHNXGW","A1K4FKVCBTX1RN","36U4VBVNQOZD8NFWZXWF9CIHKRIURB","","null","<img src=""img/food6.png"" style=""width:200px; border:14px solid green;"">","null","","","","","","","","","",""
"","image-keyboard-response","334","371831","0.0-422.0","3NPFYT4IZDQGMLY7FTISJYZ2KHNXGW","A1K4FKVCBTX1RN","36U4VBVNQOZD8NFWZXWF9CIHKRIURB","","446.6000000014901","img/food6.png","76","448.80000000447035","3","0","","2","1","1,0.5,0,1,0.5,0,0.5,0,1","0,1,0.5,0,1,0.5,1,0.5,0","3",""
"","html-keyboard-response","335","372135","0.0-423.0","3NPFYT4IZDQGMLY7FTISJYZ2KHNXGW","A1K4FKVCBTX1RN","36U4VBVNQOZD8NFWZXWF9CIHKRIURB","","null","<img src=""img/food6.png"" style=""width:200px;border:14px solid red;"">","null","","","","","","","","","",""
"","image-keyboard-response","336","372575","0.0-424.0","3NPFYT4IZDQGMLY7FTISJYZ2KHNXGW","A1K4FKVCBTX1RN","36U4VBVNQOZD8NFWZXWF9CIHKRIURB","","438.30000000447035","img/food6.png","76","440","3","1","","2","1","1,0.5,0,1,0.5,0,0.5,0,1","0,1,0.5,0,1,0.5,1,0.5,0","3",""
"","html-keyboard-response","337","372879","0.0-425.0","3NPFYT4IZDQGMLY7FTISJYZ2KHNXGW","A1K4FKVCBTX1RN","36U4VBVNQOZD8NFWZXWF9CIHKRIURB","","null","<img src=""img/food6.png"" style=""width:200px; border:14px solid green;"">","null","","","","","","","","","",""
"","image-keyboard-response","338","373639","0.0-426.0","3NPFYT4IZDQGMLY7FTISJYZ2KHNXGW","A1K4FKVCBTX1RN","36U4VBVNQOZD8NFWZXWF9CIHKRIURB","","758","img/food1.png","74","759.8999999985099","1","0","","1","1","1,0.5,0,1,0.5,0,0.5,0,1","0,1,0.5,0,1,0.5,1,0.5,0","3",""
"","html-keyboard-response","339","373943","0.0-427.0","3NPFYT4IZDQGMLY7FTISJYZ2KHNXGW","A1K4FKVCBTX1RN","36U4VBVNQOZD8NFWZXWF9CIHKRIURB","","null","<img src=""img/food1.png"" style=""width:200px;border:14px solid red;"">","null","","","","","","","","","",""
"","image-keyboard-response","340","374871","0.0-428.0","3NPFYT4IZDQGMLY7FTISJYZ2KHNXGW","A1K4FKVCBTX1RN","36U4VBVNQOZD8NFWZXWF9CIHKRIURB","","925.5999999940395","img/food3.png","76","927.8999999985099","3","0","","3","1","1,0.5,0,1,0.5,0,0.5,0,1","0,1,0.5,0,1,0.5,1,0.5,0","3",""
"","html-keyboard-response","341","375175","0.0-429.0","3NPFYT4IZDQGMLY7FTISJYZ2KHNXGW","A1K4FKVCBTX1RN","36U4VBVNQOZD8NFWZXWF9CIHKRIURB","","null","<img src=""img/food3.png"" style=""width:200px;border:14px solid red;"">","null","","","","","","","","","",""
"","image-keyboard-response","342","375687","0.0-430.0","3NPFYT4IZDQGMLY7FTISJYZ2KHNXGW","A1K4FKVCBTX1RN","36U4VBVNQOZD8NFWZXWF9CIHKRIURB","","509.5","img/food6.png","76","511.79999999701977","3","0","","2","1","1,0.5,0,1,0.5,0,0.5,0,1","0,1,0.5,0,1,0.5,1,0.5,0","3",""
"","html-keyboard-response","343","375992","0.0-431.0","3NPFYT4IZDQGMLY7FTISJYZ2KHNXGW","A1K4FKVCBTX1RN","36U4VBVNQOZD8NFWZXWF9CIHKRIURB","","null","<img src=""img/food6.png"" style=""width:200px;border:14px solid red;"">","null","","","","","","","","","",""
"","image-keyboard-response","344","376607","0.0-432.0","3NPFYT4IZDQGMLY7FTISJYZ2KHNXGW","A1K4FKVCBTX1RN","36U4VBVNQOZD8NFWZXWF9CIHKRIURB","","612.3999999985099","img/food6.png","76","614.3999999985099","3","1","","2","1","1,0.5,0,1,0.5,0,0.5,0,1","0,1,0.5,0,1,0.5,1,0.5,0","3",""
"","html-keyboard-response","345","376912","0.0-433.0","3NPFYT4IZDQGMLY7FTISJYZ2KHNXGW","A1K4FKVCBTX1RN","36U4VBVNQOZD8NFWZXWF9CIHKRIURB","","null","<img src=""img/food6.png"" style=""width:200px; border:14px solid green;"">","null","","","","","","","","","",""
"","image-keyboard-response","346","377592","0.0-434.0","3NPFYT4IZDQGMLY7FTISJYZ2KHNXGW","A1K4FKVCBTX1RN","36U4VBVNQOZD8NFWZXWF9CIHKRIURB","","677.2000000029802","img/food6.png","76","679.3000000044703","3","1","","2","1","1,0.5,0,1,0.5,0,0.5,0,1","0,1,0.5,0,1,0.5,1,0.5,0","3",""
"","html-keyboard-response","347","377897","0.0-435.0","3NPFYT4IZDQGMLY7FTISJYZ2KHNXGW","A1K4FKVCBTX1RN","36U4VBVNQOZD8NFWZXWF9CIHKRIURB","","null","<img src=""img/food6.png"" style=""width:200px; border:14px solid green;"">","null","","","","","","","","","",""
"","image-keyboard-response","348","379639","0.0-436.0","3NPFYT4IZDQGMLY7FTISJYZ2KHNXGW","A1K4FKVCBTX1RN","36U4VBVNQOZD8NFWZXWF9CIHKRIURB","","1739.3000000044703","img/food1.png","74","1741.6000000014901","1","0","","1","1","1,0.5,0,1,0.5,0,0.5,0,1","0,1,0.5,0,1,0.5,1,0.5,0","3",""
"","html-keyboard-response","349","379944","0.0-437.0","3NPFYT4IZDQGMLY7FTISJYZ2KHNXGW","A1K4FKVCBTX1RN","36U4VBVNQOZD8NFWZXWF9CIHKRIURB","","null","<img src=""img/food1.png"" style=""width:200px;border:14px solid red;"">","null","","","","","","","","","",""
"","image-keyboard-response","350","380679","0.0-438.0","3NPFYT4IZDQGMLY7FTISJYZ2KHNXGW","A1K4FKVCBTX1RN","36U4VBVNQOZD8NFWZXWF9CIHKRIURB","","734","img/food6.png","76","735.5","3","0","","2","1","1,0.5,0,1,0.5,0,0.5,0,1","0,1,0.5,0,1,0.5,1,0.5,0","3",""
"","html-keyboard-response","351","380983","0.0-439.0","3NPFYT4IZDQGMLY7FTISJYZ2KHNXGW","A1K4FKVCBTX1RN","36U4VBVNQOZD8NFWZXWF9CIHKRIURB","","null","<img src=""img/food6.png"" style=""width:200px;border:14px solid red;"">","null","","","","","","","","","",""
"","image-keyboard-response","352","381719","0.0-440.0","3NPFYT4IZDQGMLY7FTISJYZ2KHNXGW","A1K4FKVCBTX1RN","36U4VBVNQOZD8NFWZXWF9CIHKRIURB","","734","img/food1.png","74","736.2000000029802","1","0","","1","1","1,0.5,0,1,0.5,0,0.5,0,1","0,1,0.5,0,1,0.5,1,0.5,0","3",""
"","html-keyboard-response","353","382023","0.0-441.0","3NPFYT4IZDQGMLY7FTISJYZ2KHNXGW","A1K4FKVCBTX1RN","36U4VBVNQOZD8NFWZXWF9CIHKRIURB","","null","<img src=""img/food1.png"" style=""width:200px;border:14px solid red;"">","null","","","","","","","","","",""
"","image-keyboard-response","354","382511","0.0-442.0","3NPFYT4IZDQGMLY7FTISJYZ2KHNXGW","A1K4FKVCBTX1RN","36U4VBVNQOZD8NFWZXWF9CIHKRIURB","","485.79999999701977","img/food1.png","74","488","1","0","","1","1","1,0.5,0,1,0.5,0,0.5,0,1","0,1,0.5,0,1,0.5,1,0.5,0","3",""
"","html-keyboard-response","355","382815","0.0-443.0","3NPFYT4IZDQGMLY7FTISJYZ2KHNXGW","A1K4FKVCBTX1RN","36U4VBVNQOZD8NFWZXWF9CIHKRIURB","","null","<img src=""img/food1.png"" style=""width:200px;border:14px solid red;"">","null","","","","","","","","","",""
"","image-keyboard-response","356","383567","0.0-444.0","3NPFYT4IZDQGMLY7FTISJYZ2KHNXGW","A1K4FKVCBTX1RN","36U4VBVNQOZD8NFWZXWF9CIHKRIURB","","748.7000000029802","img/food6.png","76","751.6000000014901","3","1","","2","1","1,0.5,0,1,0.5,0,0.5,0,1","0,1,0.5,0,1,0.5,1,0.5,0","3",""
"","html-keyboard-response","357","383870","0.0-445.0","3NPFYT4IZDQGMLY7FTISJYZ2KHNXGW","A1K4FKVCBTX1RN","36U4VBVNQOZD8NFWZXWF9CIHKRIURB","","null","<img src=""img/food6.png"" style=""width:200px; border:14px solid green;"">","null","","","","","","","","","",""
"","image-keyboard-response","358","385358","0.0-446.0","3NPFYT4IZDQGMLY7FTISJYZ2KHNXGW","A1K4FKVCBTX1RN","36U4VBVNQOZD8NFWZXWF9CIHKRIURB","","1484.7000000029802","img/food1.png","74","1486.8000000044703","1","0","","1","1","1,0.5,0,1,0.5,0,0.5,0,1","0,1,0.5,0,1,0.5,1,0.5,0","3",""
"","html-keyboard-response","359","385662","0.0-447.0","3NPFYT4IZDQGMLY7FTISJYZ2KHNXGW","A1K4FKVCBTX1RN","36U4VBVNQOZD8NFWZXWF9CIHKRIURB","","null","<img src=""img/food1.png"" style=""width:200px;border:14px solid red;"">","null","","","","","","","","","",""
"","image-keyboard-response","360","386271","0.0-448.0","3NPFYT4IZDQGMLY7FTISJYZ2KHNXGW","A1K4FKVCBTX1RN","36U4VBVNQOZD8NFWZXWF9CIHKRIURB","","607.7000000029802","img/food3.png","74","609.5","1","1","","3","1","1,0.5,0,1,0.5,0,0.5,0,1","0,1,0.5,0,1,0.5,1,0.5,0","3",""
"","html-keyboard-response","361","386574","0.0-449.0","3NPFYT4IZDQGMLY7FTISJYZ2KHNXGW","A1K4FKVCBTX1RN","36U4VBVNQOZD8NFWZXWF9CIHKRIURB","","null","<img src=""img/food3.png"" style=""width:200px; border:14px solid green;"">","null","","","","","","","","","",""
"","image-keyboard-response","362","387183","0.0-450.0","3NPFYT4IZDQGMLY7FTISJYZ2KHNXGW","A1K4FKVCBTX1RN","36U4VBVNQOZD8NFWZXWF9CIHKRIURB","","606.5","img/food3.png","76","608.5","3","0","","3","1","1,0.5,0,1,0.5,0,0.5,0,1","0,1,0.5,0,1,0.5,1,0.5,0","3",""
"","html-keyboard-response","363","387486","0.0-451.0","3NPFYT4IZDQGMLY7FTISJYZ2KHNXGW","A1K4FKVCBTX1RN","36U4VBVNQOZD8NFWZXWF9CIHKRIURB","","null","<img src=""img/food3.png"" style=""width:200px;border:14px solid red;"">","null","","","","","","","","","",""
"","image-keyboard-response","364","388583","0.0-452.0","3NPFYT4IZDQGMLY7FTISJYZ2KHNXGW","A1K4FKVCBTX1RN","36U4VBVNQOZD8NFWZXWF9CIHKRIURB","","1094.6999999955297","img/food1.png","74","1096.8999999985099","1","0","","1","1","1,0.5,0,1,0.5,0,0.5,0,1","0,1,0.5,0,1,0.5,1,0.5,0","3",""
"","html-keyboard-response","365","388888","0.0-453.0","3NPFYT4IZDQGMLY7FTISJYZ2KHNXGW","A1K4FKVCBTX1RN","36U4VBVNQOZD8NFWZXWF9CIHKRIURB","","null","<img src=""img/food1.png"" style=""width:200px;border:14px solid red;"">","null","","","","","","","","","",""
"","html-keyboard-response","366","393685","0.0-454.0","3NPFYT4IZDQGMLY7FTISJYZ2KHNXGW","A1K4FKVCBTX1RN","36U4VBVNQOZD8NFWZXWF9CIHKRIURB","","","","","","","","","","","","","",""
"","instructions","367","396870","0.0-455.0","3NPFYT4IZDQGMLY7FTISJYZ2KHNXGW","A1K4FKVCBTX1RN","36U4VBVNQOZD8NFWZXWF9CIHKRIURB","[{""page_index"":0,""viewing_time"":3182.89999999851}]","3183.2000000029802","","","","","","","","","","","",""
"","survey-text","368","402673","0.0-456.0","3NPFYT4IZDQGMLY7FTISJYZ2KHNXGW","A1K4FKVCBTX1RN","36U4VBVNQOZD8NFWZXWF9CIHKRIURB","","5796.5","","","","","","","","","","","","{""Q0"":""A1K4FKVCBTX1RN""}"
