"success","trial_type","trial_index","time_elapsed","internal_node_id","assignmentID","mturkID","hitID","view_history","rt","stimulus","key_press","reactionTime","a","r","s","cond","reward_cond","reward_cond_actual","reward_matrix_idx","warning","responses"
"true","fullscreen","0","2778","0.0-0.0","3HVVDCPGTFE9RVAN4P311VL0CAEYTN","A1K8QNLYYYX21W","31YWE12TE0YV78PCVO9WO2QLDWO7XY","","","","","","","","","","","","","",""
"","instructions","1","11363","0.0-1.0","3HVVDCPGTFE9RVAN4P311VL0CAEYTN","A1K8QNLYYYX21W","31YWE12TE0YV78PCVO9WO2QLDWO7XY","[{""page_index"":0,""viewing_time"":1513.4000000953674},{""page_index"":1,""viewing_time"":997.2999997138977},{""page_index"":2,""viewing_time"":827.1000003814697},{""page_index"":3,""viewing_time"":1664.0999999046326},{""page_index"":4,""viewing_time"":1428.5999999046326},{""page_index"":5,""viewing_time"":978.6999998092651},{""page_index"":6,""viewing_time"":1168.5}]","8579.099999904633","","","","","","","","","","","",""
"","image-keyboard-response","2","11816","0.0-2.0","3HVVDCPGTFE9RVAN4P311VL0CAEYTN","A1K8QNLYYYX21W","31YWE12TE0YV78PCVO9WO2QLDWO7XY","","445.7000002861023","img/food4.png","74","452.40000009536743","1","0","2","1","1,0.5,0,1,0.5,0,0.5,0,1","0,1,0.5,0,1,0.5,1,0.5,0","3","",""
"","html-keyboard-response","3","12131","0.0-3.0","3HVVDCPGTFE9RVAN4P311VL0CAEYTN","A1K8QNLYYYX21W","31YWE12TE0YV78PCVO9WO2QLDWO7XY","","null","<img src=""img/food4.png"" style=""width:200px;border:14px solid red;"">","null","","","","","","","","","",""
"","image-keyboard-response","4","12494","0.0-4.0","3HVVDCPGTFE9RVAN4P311VL0CAEYTN","A1K8QNLYYYX21W","31YWE12TE0YV78PCVO9WO2QLDWO7XY","","355","img/food4.png","75","360.09999990463257","2","1","2","1","1,0.5,0,1,0.5,0,0.5,0,1","0,1,0.5,0,1,0.5,1,0.5,0","3","",""
"","html-keyboard-response","5","12824","0.0-5.0","3HVVDCPGTFE9RVAN4P311VL0CAEYTN","A1K8QNLYYYX21W","31YWE12TE0YV78PCVO9WO2QLDWO7XY","","null","<img src=""img/food4.png"" style=""width:200px; border:14px solid green;"">","null","","","","","","","","","",""
"","image-keyboard-response","6","13154","0.0-6.0","3HVVDCPGTFE9RVAN4P311VL0CAEYTN","A1K8QNLYYYX21W","31YWE12TE0YV78PCVO9WO2QLDWO7XY","","323","img/food4.png","74","330.19999980926514","1","0","2","1","1,0.5,0,1,0.5,0,0.5,0,1","0,1,0.5,0,1,0.5,1,0.5,0","3","",""
"","html-keyboard-response","7","13468","0.0-7.0","3HVVDCPGTFE9RVAN4P311VL0CAEYTN","A1K8QNLYYYX21W","31YWE12TE0YV78PCVO9WO2QLDWO7XY","","null","<img src=""img/food4.png"" style=""width:200px;border:14px solid red;"">","null","","","","","","","","","",""
"","image-keyboard-response","8","13728","0.0-8.0","3HVVDCPGTFE9RVAN4P311VL0CAEYTN","A1K8QNLYYYX21W","31YWE12TE0YV78PCVO9WO2QLDWO7XY","","256.19999980926514","img/food4.png","74","259.09999990463257","1","0","2","1","1,0.5,0,1,0.5,0,0.5,0,1","0,1,0.5,0,1,0.5,1,0.5,0","3","",""
"","html-keyboard-response","9","14042","0.0-9.0","3HVVDCPGTFE9RVAN4P311VL0CAEYTN","A1K8QNLYYYX21W","31YWE12TE0YV78PCVO9WO2QLDWO7XY","","null","<img src=""img/food4.png"" style=""width:200px;border:14px solid red;"">","null","","","","","","","","","",""
"","image-keyboard-response","10","14396","0.0-10.0","3HVVDCPGTFE9RVAN4P311VL0CAEYTN","A1K8QNLYYYX21W","31YWE12TE0YV78PCVO9WO2QLDWO7XY","","346.30000019073486","img/food6.png","76","352","3","0","3","1","1,0.5,0,1,0.5,0,0.5,0,1","0,1,0.5,0,1,0.5,1,0.5,0","3","",""
"","html-keyboard-response","11","14710","0.0-11.0","3HVVDCPGTFE9RVAN4P311VL0CAEYTN","A1K8QNLYYYX21W","31YWE12TE0YV78PCVO9WO2QLDWO7XY","","null","<img src=""img/food6.png"" style=""width:200px;border:14px solid red;"">","null","","","","","","","","","",""
"","image-keyboard-response","12","14959","0.0-12.0","3HVVDCPGTFE9RVAN4P311VL0CAEYTN","A1K8QNLYYYX21W","31YWE12TE0YV78PCVO9WO2QLDWO7XY","","245.7000002861023","img/food4.png","75","248.59999990463257","2","1","2","1","1,0.5,0,1,0.5,0,0.5,0,1","0,1,0.5,0,1,0.5,1,0.5,0","3","",""
"","html-keyboard-response","13","15264","0.0-13.0","3HVVDCPGTFE9RVAN4P311VL0CAEYTN","A1K8QNLYYYX21W","31YWE12TE0YV78PCVO9WO2QLDWO7XY","","null","<img src=""img/food4.png"" style=""width:200px; border:14px solid green;"">","null","","","","","","","","","",""
"","image-keyboard-response","14","15501","0.0-14.0","3HVVDCPGTFE9RVAN4P311VL0CAEYTN","A1K8QNLYYYX21W","31YWE12TE0YV78PCVO9WO2QLDWO7XY","","234.09999990463257","img/food4.png","74","236.7999997138977","1","0","2","1","1,0.5,0,1,0.5,0,0.5,0,1","0,1,0.5,0,1,0.5,1,0.5,0","3","",""
"","html-keyboard-response","15","15824","0.0-15.0","3HVVDCPGTFE9RVAN4P311VL0CAEYTN","A1K8QNLYYYX21W","31YWE12TE0YV78PCVO9WO2QLDWO7XY","","null","<img src=""img/food4.png"" style=""width:200px;border:14px solid red;"">","null","","","","","","","","","",""
"","image-keyboard-response","16","16133","0.0-16.0","3HVVDCPGTFE9RVAN4P311VL0CAEYTN","A1K8QNLYYYX21W","31YWE12TE0YV78PCVO9WO2QLDWO7XY","","302.80000019073486","img/food6.png","74","308.19999980926514","1","1","3","1","1,0.5,0,1,0.5,0,0.5,0,1","0,1,0.5,0,1,0.5,1,0.5,0","3","",""
"","html-keyboard-response","17","16462","0.0-17.0","3HVVDCPGTFE9RVAN4P311VL0CAEYTN","A1K8QNLYYYX21W","31YWE12TE0YV78PCVO9WO2QLDWO7XY","","null","<img src=""img/food6.png"" style=""width:200px; border:14px solid green;"">","null","","","","","","","","","",""
"","image-keyboard-response","18","16698","0.0-18.0","3HVVDCPGTFE9RVAN4P311VL0CAEYTN","A1K8QNLYYYX21W","31YWE12TE0YV78PCVO9WO2QLDWO7XY","","228","img/food5.png","76","235","3","1","1","1","1,0.5,0,1,0.5,0,0.5,0,1","0,1,0.5,0,1,0.5,1,0.5,0","3","",""
"","html-keyboard-response","19","17003","0.0-19.0","3HVVDCPGTFE9RVAN4P311VL0CAEYTN","A1K8QNLYYYX21W","31YWE12TE0YV78PCVO9WO2QLDWO7XY","","null","<img src=""img/food5.png"" style=""width:200px; border:14px solid green;"">","null","","","","","","","","","",""
"","image-keyboard-response","20","17217","0.0-20.0","3HVVDCPGTFE9RVAN4P311VL0CAEYTN","A1K8QNLYYYX21W","31YWE12TE0YV78PCVO9WO2QLDWO7XY","","207.5","img/food6.png","75","213.39999961853027","2","1","3","1","1,0.5,0,1,0.5,0,0.5,0,1","0,1,0.5,0,1,0.5,1,0.5,0","3","",""
"","html-keyboard-response","21","17540","0.0-21.0","3HVVDCPGTFE9RVAN4P311VL0CAEYTN","A1K8QNLYYYX21W","31YWE12TE0YV78PCVO9WO2QLDWO7XY","","null","<img src=""img/food6.png"" style=""width:200px; border:14px solid green;"">","null","","","","","","","","","",""
"","image-keyboard-response","22","17792","0.0-22.0","3HVVDCPGTFE9RVAN4P311VL0CAEYTN","A1K8QNLYYYX21W","31YWE12TE0YV78PCVO9WO2QLDWO7XY","","247.80000019073486","img/food6.png","74","251.59999990463257","1","1","3","1","1,0.5,0,1,0.5,0,0.5,0,1","0,1,0.5,0,1,0.5,1,0.5,0","3","",""
"","html-keyboard-response","23","18106","0.0-23.0","3HVVDCPGTFE9RVAN4P311VL0CAEYTN","A1K8QNLYYYX21W","31YWE12TE0YV78PCVO9WO2QLDWO7XY","","null","<img src=""img/food6.png"" style=""width:200px; border:14px solid green;"">","null","","","","","","","","","",""
"","image-keyboard-response","24","18381","0.0-24.0","3HVVDCPGTFE9RVAN4P311VL0CAEYTN","A1K8QNLYYYX21W","31YWE12TE0YV78PCVO9WO2QLDWO7XY","","270.80000019073486","img/food4.png","76","274.19999980926514","3","1","2","1","1,0.5,0,1,0.5,0,0.5,0,1","0,1,0.5,0,1,0.5,1,0.5,0","3","",""
"","html-keyboard-response","25","18691","0.0-25.0","3HVVDCPGTFE9RVAN4P311VL0CAEYTN","A1K8QNLYYYX21W","31YWE12TE0YV78PCVO9WO2QLDWO7XY","","null","<img src=""img/food4.png"" style=""width:200px; border:14px solid green;"">","null","","","","","","","","","",""
"","image-keyboard-response","26","18841","0.0-26.0","3HVVDCPGTFE9RVAN4P311VL0CAEYTN","A1K8QNLYYYX21W","31YWE12TE0YV78PCVO9WO2QLDWO7XY","","142.5","img/food6.png","75","148.19999980926514","2","1","3","1","1,0.5,0,1,0.5,0,0.5,0,1","0,1,0.5,0,1,0.5,1,0.5,0","3","",""
"","html-keyboard-response","27","19152","0.0-27.0","3HVVDCPGTFE9RVAN4P311VL0CAEYTN","A1K8QNLYYYX21W","31YWE12TE0YV78PCVO9WO2QLDWO7XY","","null","<img src=""img/food6.png"" style=""width:200px; border:14px solid green;"">","null","","","","","","","","","",""
"","image-keyboard-response","28","19462","0.0-28.0","3HVVDCPGTFE9RVAN4P311VL0CAEYTN","A1K8QNLYYYX21W","31YWE12TE0YV78PCVO9WO2QLDWO7XY","","306.2000002861023","img/food6.png","76","308.8999996185303","3","0","3","1","1,0.5,0,1,0.5,0,0.5,0,1","0,1,0.5,0,1,0.5,1,0.5,0","3","",""
"","html-keyboard-response","29","19772","0.0-29.0","3HVVDCPGTFE9RVAN4P311VL0CAEYTN","A1K8QNLYYYX21W","31YWE12TE0YV78PCVO9WO2QLDWO7XY","","null","<img src=""img/food6.png"" style=""width:200px;border:14px solid red;"">","null","","","","","","","","","",""
"","image-keyboard-response","30","20183","0.0-30.0","3HVVDCPGTFE9RVAN4P311VL0CAEYTN","A1K8QNLYYYX21W","31YWE12TE0YV78PCVO9WO2QLDWO7XY","","407.69999980926514","img/food4.png","74","410.5","1","0","2","1","1,0.5,0,1,0.5,0,0.5,0,1","0,1,0.5,0,1,0.5,1,0.5,0","3","",""
"","html-keyboard-response","31","20493","0.0-31.0","3HVVDCPGTFE9RVAN4P311VL0CAEYTN","A1K8QNLYYYX21W","31YWE12TE0YV78PCVO9WO2QLDWO7XY","","null","<img src=""img/food4.png"" style=""width:200px;border:14px solid red;"">","null","","","","","","","","","",""
"","image-keyboard-response","32","21031","0.0-32.0","3HVVDCPGTFE9RVAN4P311VL0CAEYTN","A1K8QNLYYYX21W","31YWE12TE0YV78PCVO9WO2QLDWO7XY","","531.7999997138977","img/food5.png","76","538.1999998092651","3","0","1","1","1,0.5,0,1,0.5,0,0.5,0,1","0,1,0.5,0,1,0.5,1,0.5,0","3","",""
"","html-keyboard-response","33","21349","0.0-33.0","3HVVDCPGTFE9RVAN4P311VL0CAEYTN","A1K8QNLYYYX21W","31YWE12TE0YV78PCVO9WO2QLDWO7XY","","null","<img src=""img/food5.png"" style=""width:200px;border:14px solid red;"">","null","","","","","","","","","",""
"","image-keyboard-response","34","21664","0.0-34.0","3HVVDCPGTFE9RVAN4P311VL0CAEYTN","A1K8QNLYYYX21W","31YWE12TE0YV78PCVO9WO2QLDWO7XY","","311.30000019073486","img/food6.png","76","314.5","3","0","3","1","1,0.5,0,1,0.5,0,0.5,0,1","0,1,0.5,0,1,0.5,1,0.5,0","3","",""
"","html-keyboard-response","35","21986","0.0-35.0","3HVVDCPGTFE9RVAN4P311VL0CAEYTN","A1K8QNLYYYX21W","31YWE12TE0YV78PCVO9WO2QLDWO7XY","","null","<img src=""img/food6.png"" style=""width:200px;border:14px solid red;"">","null","","","","","","","","","",""
"","image-keyboard-response","36","22342","0.0-36.0","3HVVDCPGTFE9RVAN4P311VL0CAEYTN","A1K8QNLYYYX21W","31YWE12TE0YV78PCVO9WO2QLDWO7XY","","351.59999990463257","img/food5.png","74","355.2000002861023","1","0","1","1","1,0.5,0,1,0.5,0,0.5,0,1","0,1,0.5,0,1,0.5,1,0.5,0","3","",""
"","html-keyboard-response","37","22649","0.0-37.0","3HVVDCPGTFE9RVAN4P311VL0CAEYTN","A1K8QNLYYYX21W","31YWE12TE0YV78PCVO9WO2QLDWO7XY","","null","<img src=""img/food5.png"" style=""width:200px;border:14px solid red;"">","null","","","","","","","","","",""
"","image-keyboard-response","38","22922","0.0-38.0","3HVVDCPGTFE9RVAN4P311VL0CAEYTN","A1K8QNLYYYX21W","31YWE12TE0YV78PCVO9WO2QLDWO7XY","","269.69999980926514","img/food4.png","76","273","3","1","2","1","1,0.5,0,1,0.5,0,0.5,0,1","0,1,0.5,0,1,0.5,1,0.5,0","3","",""
"","html-keyboard-response","39","23231","0.0-39.0","3HVVDCPGTFE9RVAN4P311VL0CAEYTN","A1K8QNLYYYX21W","31YWE12TE0YV78PCVO9WO2QLDWO7XY","","null","<img src=""img/food4.png"" style=""width:200px; border:14px solid green;"">","null","","","","","","","","","",""
"","image-keyboard-response","40","23454","0.0-40.0","3HVVDCPGTFE9RVAN4P311VL0CAEYTN","A1K8QNLYYYX21W","31YWE12TE0YV78PCVO9WO2QLDWO7XY","","219.60000038146973","img/food4.png","75","223","2","1","2","1","1,0.5,0,1,0.5,0,0.5,0,1","0,1,0.5,0,1,0.5,1,0.5,0","3","",""
"","html-keyboard-response","41","23770","0.0-41.0","3HVVDCPGTFE9RVAN4P311VL0CAEYTN","A1K8QNLYYYX21W","31YWE12TE0YV78PCVO9WO2QLDWO7XY","","null","<img src=""img/food4.png"" style=""width:200px; border:14px solid green;"">","null","","","","","","","","","",""
"","image-keyboard-response","42","24005","0.0-42.0","3HVVDCPGTFE9RVAN4P311VL0CAEYTN","A1K8QNLYYYX21W","31YWE12TE0YV78PCVO9WO2QLDWO7XY","","231","img/food5.png","74","233.80000019073486","1","0","1","1","1,0.5,0,1,0.5,0,0.5,0,1","0,1,0.5,0,1,0.5,1,0.5,0","3","",""
"","html-keyboard-response","43","24319","0.0-43.0","3HVVDCPGTFE9RVAN4P311VL0CAEYTN","A1K8QNLYYYX21W","31YWE12TE0YV78PCVO9WO2QLDWO7XY","","null","<img src=""img/food5.png"" style=""width:200px;border:14px solid red;"">","null","","","","","","","","","",""
"","image-keyboard-response","44","24610","0.0-44.0","3HVVDCPGTFE9RVAN4P311VL0CAEYTN","A1K8QNLYYYX21W","31YWE12TE0YV78PCVO9WO2QLDWO7XY","","286.40000009536743","img/food6.png","76","289.30000019073486","3","0","3","1","1,0.5,0,1,0.5,0,0.5,0,1","0,1,0.5,0,1,0.5,1,0.5,0","3","",""
"","html-keyboard-response","45","24929","0.0-45.0","3HVVDCPGTFE9RVAN4P311VL0CAEYTN","A1K8QNLYYYX21W","31YWE12TE0YV78PCVO9WO2QLDWO7XY","","null","<img src=""img/food6.png"" style=""width:200px;border:14px solid red;"">","null","","","","","","","","","",""
"","image-keyboard-response","46","25301","0.0-46.0","3HVVDCPGTFE9RVAN4P311VL0CAEYTN","A1K8QNLYYYX21W","31YWE12TE0YV78PCVO9WO2QLDWO7XY","","369.30000019073486","img/food4.png","76","372.1000003814697","3","1","2","1","1,0.5,0,1,0.5,0,0.5,0,1","0,1,0.5,0,1,0.5,1,0.5,0","3","",""
"","html-keyboard-response","47","25614","0.0-47.0","3HVVDCPGTFE9RVAN4P311VL0CAEYTN","A1K8QNLYYYX21W","31YWE12TE0YV78PCVO9WO2QLDWO7XY","","null","<img src=""img/food4.png"" style=""width:200px; border:14px solid green;"">","null","","","","","","","","","",""
"","image-keyboard-response","48","25925","0.0-48.0","3HVVDCPGTFE9RVAN4P311VL0CAEYTN","A1K8QNLYYYX21W","31YWE12TE0YV78PCVO9WO2QLDWO7XY","","307","img/food5.png","75","310.2999997138977","2","1","1","1","1,0.5,0,1,0.5,0,0.5,0,1","0,1,0.5,0,1,0.5,1,0.5,0","3","",""
"","html-keyboard-response","49","26244","0.0-49.0","3HVVDCPGTFE9RVAN4P311VL0CAEYTN","A1K8QNLYYYX21W","31YWE12TE0YV78PCVO9WO2QLDWO7XY","","null","<img src=""img/food5.png"" style=""width:200px; border:14px solid green;"">","null","","","","","","","","","",""
"","image-keyboard-response","50","26434","0.0-50.0","3HVVDCPGTFE9RVAN4P311VL0CAEYTN","A1K8QNLYYYX21W","31YWE12TE0YV78PCVO9WO2QLDWO7XY","","168.80000019073486","img/food6.png","76","179.2000002861023","3","0","3","1","1,0.5,0,1,0.5,0,0.5,0,1","0,1,0.5,0,1,0.5,1,0.5,0","3","",""
"","html-keyboard-response","51","26740","0.0-51.0","3HVVDCPGTFE9RVAN4P311VL0CAEYTN","A1K8QNLYYYX21W","31YWE12TE0YV78PCVO9WO2QLDWO7XY","","null","<img src=""img/food6.png"" style=""width:200px;border:14px solid red;"">","null","","","","","","","","","",""
"","image-keyboard-response","52","27029","0.0-52.0","3HVVDCPGTFE9RVAN4P311VL0CAEYTN","A1K8QNLYYYX21W","31YWE12TE0YV78PCVO9WO2QLDWO7XY","","285.5","img/food5.png","76","288.59999990463257","3","1","1","1","1,0.5,0,1,0.5,0,0.5,0,1","0,1,0.5,0,1,0.5,1,0.5,0","3","",""
"","html-keyboard-response","53","27344","0.0-53.0","3HVVDCPGTFE9RVAN4P311VL0CAEYTN","A1K8QNLYYYX21W","31YWE12TE0YV78PCVO9WO2QLDWO7XY","","null","<img src=""img/food5.png"" style=""width:200px; border:14px solid green;"">","null","","","","","","","","","",""
"","image-keyboard-response","54","28122","0.0-54.0","3HVVDCPGTFE9RVAN4P311VL0CAEYTN","A1K8QNLYYYX21W","31YWE12TE0YV78PCVO9WO2QLDWO7XY","","773.0999999046326","img/food5.png","74","775.7000002861023","1","0","1","1","1,0.5,0,1,0.5,0,0.5,0,1","0,1,0.5,0,1,0.5,1,0.5,0","3","",""
"","html-keyboard-response","55","28432","0.0-55.0","3HVVDCPGTFE9RVAN4P311VL0CAEYTN","A1K8QNLYYYX21W","31YWE12TE0YV78PCVO9WO2QLDWO7XY","","null","<img src=""img/food5.png"" style=""width:200px;border:14px solid red;"">","null","","","","","","","","","",""
"","image-keyboard-response","56","28543","0.0-56.0","3HVVDCPGTFE9RVAN4P311VL0CAEYTN","A1K8QNLYYYX21W","31YWE12TE0YV78PCVO9WO2QLDWO7XY","","108.59999990463257","img/food5.png","76","111.09999990463257","3","1","1","1","1,0.5,0,1,0.5,0,0.5,0,1","0,1,0.5,0,1,0.5,1,0.5,0","3","",""
"","html-keyboard-response","57","28863","0.0-57.0","3HVVDCPGTFE9RVAN4P311VL0CAEYTN","A1K8QNLYYYX21W","31YWE12TE0YV78PCVO9WO2QLDWO7XY","","null","<img src=""img/food5.png"" style=""width:200px; border:14px solid green;"">","null","","","","","","","","","",""
"","image-keyboard-response","58","29396","0.0-58.0","3HVVDCPGTFE9RVAN4P311VL0CAEYTN","A1K8QNLYYYX21W","31YWE12TE0YV78PCVO9WO2QLDWO7XY","","530.4000000953674","img/food5.png","76","533.3000001907349","3","1","1","1","1,0.5,0,1,0.5,0,0.5,0,1","0,1,0.5,0,1,0.5,1,0.5,0","3","",""
"","html-keyboard-response","59","29702","0.0-59.0","3HVVDCPGTFE9RVAN4P311VL0CAEYTN","A1K8QNLYYYX21W","31YWE12TE0YV78PCVO9WO2QLDWO7XY","","null","<img src=""img/food5.png"" style=""width:200px; border:14px solid green;"">","null","","","","","","","","","",""
"","image-keyboard-response","60","29973","0.0-60.0","3HVVDCPGTFE9RVAN4P311VL0CAEYTN","A1K8QNLYYYX21W","31YWE12TE0YV78PCVO9WO2QLDWO7XY","","264.7000002861023","img/food5.png","75","269.69999980926514","2","1","1","1","1,0.5,0,1,0.5,0,0.5,0,1","0,1,0.5,0,1,0.5,1,0.5,0","3","",""
"","html-keyboard-response","61","30331","0.0-61.0","3HVVDCPGTFE9RVAN4P311VL0CAEYTN","A1K8QNLYYYX21W","31YWE12TE0YV78PCVO9WO2QLDWO7XY","","null","<img src=""img/food5.png"" style=""width:200px; border:14px solid green;"">","null","","","","","","","","","",""
"","image-keyboard-response","62","30661","0.0-62.0","3HVVDCPGTFE9RVAN4P311VL0CAEYTN","A1K8QNLYYYX21W","31YWE12TE0YV78PCVO9WO2QLDWO7XY","","327.40000009536743","img/food5.png","74","330.09999990463257","1","0","1","1","1,0.5,0,1,0.5,0,0.5,0,1","0,1,0.5,0,1,0.5,1,0.5,0","3","",""
"","html-keyboard-response","63","30968","0.0-63.0","3HVVDCPGTFE9RVAN4P311VL0CAEYTN","A1K8QNLYYYX21W","31YWE12TE0YV78PCVO9WO2QLDWO7XY","","null","<img src=""img/food5.png"" style=""width:200px;border:14px solid red;"">","null","","","","","","","","","",""
"","image-keyboard-response","64","31260","0.0-64.0","3HVVDCPGTFE9RVAN4P311VL0CAEYTN","A1K8QNLYYYX21W","31YWE12TE0YV78PCVO9WO2QLDWO7XY","","286.09999990463257","img/food6.png","76","290.19999980926514","3","0","3","1","1,0.5,0,1,0.5,0,0.5,0,1","0,1,0.5,0,1,0.5,1,0.5,0","3","",""
"","html-keyboard-response","65","31565","0.0-65.0","3HVVDCPGTFE9RVAN4P311VL0CAEYTN","A1K8QNLYYYX21W","31YWE12TE0YV78PCVO9WO2QLDWO7XY","","null","<img src=""img/food6.png"" style=""width:200px;border:14px solid red;"">","null","","","","","","","","","",""
"","image-keyboard-response","66","31994","0.0-66.0","3HVVDCPGTFE9RVAN4P311VL0CAEYTN","A1K8QNLYYYX21W","31YWE12TE0YV78PCVO9WO2QLDWO7XY","","424.5","img/food6.png","76","427.8999996185303","3","0","3","1","1,0.5,0,1,0.5,0,0.5,0,1","0,1,0.5,0,1,0.5,1,0.5,0","3","",""
"","html-keyboard-response","67","32308","0.0-67.0","3HVVDCPGTFE9RVAN4P311VL0CAEYTN","A1K8QNLYYYX21W","31YWE12TE0YV78PCVO9WO2QLDWO7XY","","null","<img src=""img/food6.png"" style=""width:200px;border:14px solid red;"">","null","","","","","","","","","",""
"","image-keyboard-response","68","32603","0.0-68.0","3HVVDCPGTFE9RVAN4P311VL0CAEYTN","A1K8QNLYYYX21W","31YWE12TE0YV78PCVO9WO2QLDWO7XY","","291.90000009536743","img/food5.png","75","294.7000002861023","2","1","1","1","1,0.5,0,1,0.5,0,0.5,0,1","0,1,0.5,0,1,0.5,1,0.5,0","3","",""
"","html-keyboard-response","69","32908","0.0-69.0","3HVVDCPGTFE9RVAN4P311VL0CAEYTN","A1K8QNLYYYX21W","31YWE12TE0YV78PCVO9WO2QLDWO7XY","","null","<img src=""img/food5.png"" style=""width:200px; border:14px solid green;"">","null","","","","","","","","","",""
"","image-keyboard-response","70","33258","0.0-70.0","3HVVDCPGTFE9RVAN4P311VL0CAEYTN","A1K8QNLYYYX21W","31YWE12TE0YV78PCVO9WO2QLDWO7XY","","343.5","img/food5.png","74","348.5","1","0","1","1","1,0.5,0,1,0.5,0,0.5,0,1","0,1,0.5,0,1,0.5,1,0.5,0","3","",""
"","html-keyboard-response","71","33567","0.0-71.0","3HVVDCPGTFE9RVAN4P311VL0CAEYTN","A1K8QNLYYYX21W","31YWE12TE0YV78PCVO9WO2QLDWO7XY","","null","<img src=""img/food5.png"" style=""width:200px;border:14px solid red;"">","null","","","","","","","","","",""
"","image-keyboard-response","72","33996","0.0-72.0","3HVVDCPGTFE9RVAN4P311VL0CAEYTN","A1K8QNLYYYX21W","31YWE12TE0YV78PCVO9WO2QLDWO7XY","","426.40000009536743","img/food6.png","74","428.59999990463257","1","1","3","1","1,0.5,0,1,0.5,0,0.5,0,1","0,1,0.5,0,1,0.5,1,0.5,0","3","",""
"","html-keyboard-response","73","34302","0.0-73.0","3HVVDCPGTFE9RVAN4P311VL0CAEYTN","A1K8QNLYYYX21W","31YWE12TE0YV78PCVO9WO2QLDWO7XY","","null","<img src=""img/food6.png"" style=""width:200px; border:14px solid green;"">","null","","","","","","","","","",""
"","image-keyboard-response","74","34743","0.0-74.0","3HVVDCPGTFE9RVAN4P311VL0CAEYTN","A1K8QNLYYYX21W","31YWE12TE0YV78PCVO9WO2QLDWO7XY","","437.7999997138977","img/food6.png","74","440.5","1","1","3","1","1,0.5,0,1,0.5,0,0.5,0,1","0,1,0.5,0,1,0.5,1,0.5,0","3","",""
"","html-keyboard-response","75","35055","0.0-75.0","3HVVDCPGTFE9RVAN4P311VL0CAEYTN","A1K8QNLYYYX21W","31YWE12TE0YV78PCVO9WO2QLDWO7XY","","null","<img src=""img/food6.png"" style=""width:200px; border:14px solid green;"">","null","","","","","","","","","",""
"","image-keyboard-response","76","35234","0.0-76.0","3HVVDCPGTFE9RVAN4P311VL0CAEYTN","A1K8QNLYYYX21W","31YWE12TE0YV78PCVO9WO2QLDWO7XY","","173.09999990463257","img/food4.png","75","177.89999961853027","2","1","2","1","1,0.5,0,1,0.5,0,0.5,0,1","0,1,0.5,0,1,0.5,1,0.5,0","3","",""
"","html-keyboard-response","77","35539","0.0-77.0","3HVVDCPGTFE9RVAN4P311VL0CAEYTN","A1K8QNLYYYX21W","31YWE12TE0YV78PCVO9WO2QLDWO7XY","","null","<img src=""img/food4.png"" style=""width:200px; border:14px solid green;"">","null","","","","","","","","","",""
"","image-keyboard-response","78","35901","0.0-78.0","3HVVDCPGTFE9RVAN4P311VL0CAEYTN","A1K8QNLYYYX21W","31YWE12TE0YV78PCVO9WO2QLDWO7XY","","358.80000019073486","img/food5.png","75","362.40000009536743","2","1","1","1","1,0.5,0,1,0.5,0,0.5,0,1","0,1,0.5,0,1,0.5,1,0.5,0","3","",""
"","html-keyboard-response","79","36212","0.0-79.0","3HVVDCPGTFE9RVAN4P311VL0CAEYTN","A1K8QNLYYYX21W","31YWE12TE0YV78PCVO9WO2QLDWO7XY","","null","<img src=""img/food5.png"" style=""width:200px; border:14px solid green;"">","null","","","","","","","","","",""
"","image-keyboard-response","80","36594","0.0-80.0","3HVVDCPGTFE9RVAN4P311VL0CAEYTN","A1K8QNLYYYX21W","31YWE12TE0YV78PCVO9WO2QLDWO7XY","","372","img/food4.png","76","380.69999980926514","3","1","2","1","1,0.5,0,1,0.5,0,0.5,0,1","0,1,0.5,0,1,0.5,1,0.5,0","3","",""
"","html-keyboard-response","81","36907","0.0-81.0","3HVVDCPGTFE9RVAN4P311VL0CAEYTN","A1K8QNLYYYX21W","31YWE12TE0YV78PCVO9WO2QLDWO7XY","","null","<img src=""img/food4.png"" style=""width:200px; border:14px solid green;"">","null","","","","","","","","","",""
"","image-keyboard-response","82","37271","0.0-82.0","3HVVDCPGTFE9RVAN4P311VL0CAEYTN","A1K8QNLYYYX21W","31YWE12TE0YV78PCVO9WO2QLDWO7XY","","356.30000019073486","img/food5.png","76","361.30000019073486","3","1","1","1","1,0.5,0,1,0.5,0,0.5,0,1","0,1,0.5,0,1,0.5,1,0.5,0","3","",""
"","html-keyboard-response","83","37581","0.0-83.0","3HVVDCPGTFE9RVAN4P311VL0CAEYTN","A1K8QNLYYYX21W","31YWE12TE0YV78PCVO9WO2QLDWO7XY","","null","<img src=""img/food5.png"" style=""width:200px; border:14px solid green;"">","null","","","","","","","","","",""
"","image-keyboard-response","84","37991","0.0-84.0","3HVVDCPGTFE9RVAN4P311VL0CAEYTN","A1K8QNLYYYX21W","31YWE12TE0YV78PCVO9WO2QLDWO7XY","","407.09999990463257","img/food6.png","75","409.90000009536743","2","1","3","1","1,0.5,0,1,0.5,0,0.5,0,1","0,1,0.5,0,1,0.5,1,0.5,0","3","",""
"","html-keyboard-response","85","38301","0.0-85.0","3HVVDCPGTFE9RVAN4P311VL0CAEYTN","A1K8QNLYYYX21W","31YWE12TE0YV78PCVO9WO2QLDWO7XY","","null","<img src=""img/food6.png"" style=""width:200px; border:14px solid green;"">","null","","","","","","","","","",""
"","image-keyboard-response","86","38736","0.0-86.0","3HVVDCPGTFE9RVAN4P311VL0CAEYTN","A1K8QNLYYYX21W","31YWE12TE0YV78PCVO9WO2QLDWO7XY","","430.59999990463257","img/food5.png","74","433.7999997138977","1","0","1","1","1,0.5,0,1,0.5,0,0.5,0,1","0,1,0.5,0,1,0.5,1,0.5,0","3","",""
"","html-keyboard-response","87","39047","0.0-87.0","3HVVDCPGTFE9RVAN4P311VL0CAEYTN","A1K8QNLYYYX21W","31YWE12TE0YV78PCVO9WO2QLDWO7XY","","null","<img src=""img/food5.png"" style=""width:200px;border:14px solid red;"">","null","","","","","","","","","",""
"","image-keyboard-response","88","39426","0.0-88.0","3HVVDCPGTFE9RVAN4P311VL0CAEYTN","A1K8QNLYYYX21W","31YWE12TE0YV78PCVO9WO2QLDWO7XY","","376.19999980926514","img/food5.png","76","379.69999980926514","3","1","1","1","1,0.5,0,1,0.5,0,0.5,0,1","0,1,0.5,0,1,0.5,1,0.5,0","3","",""
"","html-keyboard-response","89","39737","0.0-89.0","3HVVDCPGTFE9RVAN4P311VL0CAEYTN","A1K8QNLYYYX21W","31YWE12TE0YV78PCVO9WO2QLDWO7XY","","null","<img src=""img/food5.png"" style=""width:200px; border:14px solid green;"">","null","","","","","","","","","",""
"","image-keyboard-response","90","40113","0.0-90.0","3HVVDCPGTFE9RVAN4P311VL0CAEYTN","A1K8QNLYYYX21W","31YWE12TE0YV78PCVO9WO2QLDWO7XY","","369.7999997138977","img/food5.png","74","374.59999990463257","1","0","1","1","1,0.5,0,1,0.5,0,0.5,0,1","0,1,0.5,0,1,0.5,1,0.5,0","3","",""
"","html-keyboard-response","91","40422","0.0-91.0","3HVVDCPGTFE9RVAN4P311VL0CAEYTN","A1K8QNLYYYX21W","31YWE12TE0YV78PCVO9WO2QLDWO7XY","","null","<img src=""img/food5.png"" style=""width:200px;border:14px solid red;"">","null","","","","","","","","","",""
"","image-keyboard-response","92","40709","0.0-92.0","3HVVDCPGTFE9RVAN4P311VL0CAEYTN","A1K8QNLYYYX21W","31YWE12TE0YV78PCVO9WO2QLDWO7XY","","283.69999980926514","img/food4.png","75","286.59999990463257","2","1","2","1","1,0.5,0,1,0.5,0,0.5,0,1","0,1,0.5,0,1,0.5,1,0.5,0","3","",""
"","html-keyboard-response","93","41020","0.0-93.0","3HVVDCPGTFE9RVAN4P311VL0CAEYTN","A1K8QNLYYYX21W","31YWE12TE0YV78PCVO9WO2QLDWO7XY","","null","<img src=""img/food4.png"" style=""width:200px; border:14px solid green;"">","null","","","","","","","","","",""
"","image-keyboard-response","94","41412","0.0-94.0","3HVVDCPGTFE9RVAN4P311VL0CAEYTN","A1K8QNLYYYX21W","31YWE12TE0YV78PCVO9WO2QLDWO7XY","","386","img/food6.png","76","391","3","0","3","1","1,0.5,0,1,0.5,0,0.5,0,1","0,1,0.5,0,1,0.5,1,0.5,0","3","",""
"","html-keyboard-response","95","41722","0.0-95.0","3HVVDCPGTFE9RVAN4P311VL0CAEYTN","A1K8QNLYYYX21W","31YWE12TE0YV78PCVO9WO2QLDWO7XY","","null","<img src=""img/food6.png"" style=""width:200px;border:14px solid red;"">","null","","","","","","","","","",""
"","image-keyboard-response","96","42134","0.0-96.0","3HVVDCPGTFE9RVAN4P311VL0CAEYTN","A1K8QNLYYYX21W","31YWE12TE0YV78PCVO9WO2QLDWO7XY","","405.80000019073486","img/food5.png","76","410.59999990463257","3","0","1","1","1,0.5,0,1,0.5,0,0.5,0,1","0,1,0.5,0,1,0.5,1,0.5,0","3","",""
"","html-keyboard-response","97","42453","0.0-97.0","3HVVDCPGTFE9RVAN4P311VL0CAEYTN","A1K8QNLYYYX21W","31YWE12TE0YV78PCVO9WO2QLDWO7XY","","null","<img src=""img/food5.png"" style=""width:200px;border:14px solid red;"">","null","","","","","","","","","",""
"","image-keyboard-response","98","42810","0.0-98.0","3HVVDCPGTFE9RVAN4P311VL0CAEYTN","A1K8QNLYYYX21W","31YWE12TE0YV78PCVO9WO2QLDWO7XY","","346.59999990463257","img/food4.png","75","354.40000009536743","2","1","2","1","1,0.5,0,1,0.5,0,0.5,0,1","0,1,0.5,0,1,0.5,1,0.5,0","3","",""
"","html-keyboard-response","99","43119","0.0-99.0","3HVVDCPGTFE9RVAN4P311VL0CAEYTN","A1K8QNLYYYX21W","31YWE12TE0YV78PCVO9WO2QLDWO7XY","","null","<img src=""img/food4.png"" style=""width:200px; border:14px solid green;"">","null","","","","","","","","","",""
"","image-keyboard-response","100","43504","0.0-100.0","3HVVDCPGTFE9RVAN4P311VL0CAEYTN","A1K8QNLYYYX21W","31YWE12TE0YV78PCVO9WO2QLDWO7XY","","379.19999980926514","img/food6.png","74","383.7000002861023","1","1","3","1","1,0.5,0,1,0.5,0,0.5,0,1","0,1,0.5,0,1,0.5,1,0.5,0","3","",""
"","html-keyboard-response","101","43815","0.0-101.0","3HVVDCPGTFE9RVAN4P311VL0CAEYTN","A1K8QNLYYYX21W","31YWE12TE0YV78PCVO9WO2QLDWO7XY","","null","<img src=""img/food6.png"" style=""width:200px; border:14px solid green;"">","null","","","","","","","","","",""
"","image-keyboard-response","102","44146","0.0-102.0","3HVVDCPGTFE9RVAN4P311VL0CAEYTN","A1K8QNLYYYX21W","31YWE12TE0YV78PCVO9WO2QLDWO7XY","","323","img/food4.png","74","329.09999990463257","1","0","2","1","1,0.5,0,1,0.5,0,0.5,0,1","0,1,0.5,0,1,0.5,1,0.5,0","3","",""
"","html-keyboard-response","103","44460","0.0-103.0","3HVVDCPGTFE9RVAN4P311VL0CAEYTN","A1K8QNLYYYX21W","31YWE12TE0YV78PCVO9WO2QLDWO7XY","","null","<img src=""img/food4.png"" style=""width:200px;border:14px solid red;"">","null","","","","","","","","","",""
"","image-keyboard-response","104","44740","0.0-104.0","3HVVDCPGTFE9RVAN4P311VL0CAEYTN","A1K8QNLYYYX21W","31YWE12TE0YV78PCVO9WO2QLDWO7XY","","272","img/food4.png","76","277.90000009536743","3","1","2","1","1,0.5,0,1,0.5,0,0.5,0,1","0,1,0.5,0,1,0.5,1,0.5,0","3","",""
"","html-keyboard-response","105","45053","0.0-105.0","3HVVDCPGTFE9RVAN4P311VL0CAEYTN","A1K8QNLYYYX21W","31YWE12TE0YV78PCVO9WO2QLDWO7XY","","null","<img src=""img/food4.png"" style=""width:200px; border:14px solid green;"">","null","","","","","","","","","",""
"","image-keyboard-response","106","45330","0.0-106.0","3HVVDCPGTFE9RVAN4P311VL0CAEYTN","A1K8QNLYYYX21W","31YWE12TE0YV78PCVO9WO2QLDWO7XY","","271.30000019073486","img/food6.png","75","275.5","2","1","3","1","1,0.5,0,1,0.5,0,0.5,0,1","0,1,0.5,0,1,0.5,1,0.5,0","3","",""
"","html-keyboard-response","107","45637","0.0-107.0","3HVVDCPGTFE9RVAN4P311VL0CAEYTN","A1K8QNLYYYX21W","31YWE12TE0YV78PCVO9WO2QLDWO7XY","","null","<img src=""img/food6.png"" style=""width:200px; border:14px solid green;"">","null","","","","","","","","","",""
"","image-keyboard-response","108","45849","0.0-108.0","3HVVDCPGTFE9RVAN4P311VL0CAEYTN","A1K8QNLYYYX21W","31YWE12TE0YV78PCVO9WO2QLDWO7XY","","206.40000009536743","img/food4.png","74","211.30000019073486","1","0","2","1","1,0.5,0,1,0.5,0,0.5,0,1","0,1,0.5,0,1,0.5,1,0.5,0","3","",""
"","html-keyboard-response","109","46155","0.0-109.0","3HVVDCPGTFE9RVAN4P311VL0CAEYTN","A1K8QNLYYYX21W","31YWE12TE0YV78PCVO9WO2QLDWO7XY","","null","<img src=""img/food4.png"" style=""width:200px;border:14px solid red;"">","null","","","","","","","","","",""
"","image-keyboard-response","110","46496","0.0-110.0","3HVVDCPGTFE9RVAN4P311VL0CAEYTN","A1K8QNLYYYX21W","31YWE12TE0YV78PCVO9WO2QLDWO7XY","","335.1000003814697","img/food5.png","76","340","3","0","1","1","1,0.5,0,1,0.5,0,0.5,0,1","0,1,0.5,0,1,0.5,1,0.5,0","3","",""
"","html-keyboard-response","111","46803","0.0-111.0","3HVVDCPGTFE9RVAN4P311VL0CAEYTN","A1K8QNLYYYX21W","31YWE12TE0YV78PCVO9WO2QLDWO7XY","","null","<img src=""img/food5.png"" style=""width:200px;border:14px solid red;"">","null","","","","","","","","","",""
"","image-keyboard-response","112","47158","0.0-112.0","3HVVDCPGTFE9RVAN4P311VL0CAEYTN","A1K8QNLYYYX21W","31YWE12TE0YV78PCVO9WO2QLDWO7XY","","350.5","img/food4.png","76","354.30000019073486","3","0","2","1","1,0.5,0,1,0.5,0,0.5,0,1","0,1,0.5,0,1,0.5,1,0.5,0","3","",""
"","html-keyboard-response","113","47468","0.0-113.0","3HVVDCPGTFE9RVAN4P311VL0CAEYTN","A1K8QNLYYYX21W","31YWE12TE0YV78PCVO9WO2QLDWO7XY","","null","<img src=""img/food4.png"" style=""width:200px;border:14px solid red;"">","null","","","","","","","","","",""
"","image-keyboard-response","114","47778","0.0-114.0","3HVVDCPGTFE9RVAN4P311VL0CAEYTN","A1K8QNLYYYX21W","31YWE12TE0YV78PCVO9WO2QLDWO7XY","","305","img/food6.png","74","309","1","1","3","1","1,0.5,0,1,0.5,0,0.5,0,1","0,1,0.5,0,1,0.5,1,0.5,0","3","",""
"","html-keyboard-response","115","48088","0.0-115.0","3HVVDCPGTFE9RVAN4P311VL0CAEYTN","A1K8QNLYYYX21W","31YWE12TE0YV78PCVO9WO2QLDWO7XY","","null","<img src=""img/food6.png"" style=""width:200px; border:14px solid green;"">","null","","","","","","","","","",""
"","image-keyboard-response","116","48465","0.0-116.0","3HVVDCPGTFE9RVAN4P311VL0CAEYTN","A1K8QNLYYYX21W","31YWE12TE0YV78PCVO9WO2QLDWO7XY","","370.19999980926514","img/food4.png","74","375.5","1","0","2","1","1,0.5,0,1,0.5,0,0.5,0,1","0,1,0.5,0,1,0.5,1,0.5,0","3","",""
"","html-keyboard-response","117","48776","0.0-117.0","3HVVDCPGTFE9RVAN4P311VL0CAEYTN","A1K8QNLYYYX21W","31YWE12TE0YV78PCVO9WO2QLDWO7XY","","null","<img src=""img/food4.png"" style=""width:200px;border:14px solid red;"">","null","","","","","","","","","",""
"","image-keyboard-response","118","48986","0.0-118.0","3HVVDCPGTFE9RVAN4P311VL0CAEYTN","A1K8QNLYYYX21W","31YWE12TE0YV78PCVO9WO2QLDWO7XY","","203.39999961853027","img/food4.png","75","207.90000009536743","2","1","2","1","1,0.5,0,1,0.5,0,0.5,0,1","0,1,0.5,0,1,0.5,1,0.5,0","3","",""
"","html-keyboard-response","119","49299","0.0-119.0","3HVVDCPGTFE9RVAN4P311VL0CAEYTN","A1K8QNLYYYX21W","31YWE12TE0YV78PCVO9WO2QLDWO7XY","","null","<img src=""img/food4.png"" style=""width:200px; border:14px solid green;"">","null","","","","","","","","","",""
"","image-keyboard-response","120","49658","0.0-120.0","3HVVDCPGTFE9RVAN4P311VL0CAEYTN","A1K8QNLYYYX21W","31YWE12TE0YV78PCVO9WO2QLDWO7XY","","353.90000009536743","img/food6.png","75","358.59999990463257","2","1","3","1","1,0.5,0,1,0.5,0,0.5,0,1","0,1,0.5,0,1,0.5,1,0.5,0","3","",""
"","html-keyboard-response","121","49967","0.0-121.0","3HVVDCPGTFE9RVAN4P311VL0CAEYTN","A1K8QNLYYYX21W","31YWE12TE0YV78PCVO9WO2QLDWO7XY","","null","<img src=""img/food6.png"" style=""width:200px; border:14px solid green;"">","null","","","","","","","","","",""
"","image-keyboard-response","122","50267","0.0-122.0","3HVVDCPGTFE9RVAN4P311VL0CAEYTN","A1K8QNLYYYX21W","31YWE12TE0YV78PCVO9WO2QLDWO7XY","","296.19999980926514","img/food4.png","74","299.5","1","0","2","1","1,0.5,0,1,0.5,0,0.5,0,1","0,1,0.5,0,1,0.5,1,0.5,0","3","",""
"","html-keyboard-response","123","50576","0.0-123.0","3HVVDCPGTFE9RVAN4P311VL0CAEYTN","A1K8QNLYYYX21W","31YWE12TE0YV78PCVO9WO2QLDWO7XY","","null","<img src=""img/food4.png"" style=""width:200px;border:14px solid red;"">","null","","","","","","","","","",""
"","image-keyboard-response","124","50801","0.0-124.0","3HVVDCPGTFE9RVAN4P311VL0CAEYTN","A1K8QNLYYYX21W","31YWE12TE0YV78PCVO9WO2QLDWO7XY","","222.59999990463257","img/food6.png","74","224.90000009536743","1","1","3","1","1,0.5,0,1,0.5,0,0.5,0,1","0,1,0.5,0,1,0.5,1,0.5,0","3","",""
"","html-keyboard-response","125","51108","0.0-125.0","3HVVDCPGTFE9RVAN4P311VL0CAEYTN","A1K8QNLYYYX21W","31YWE12TE0YV78PCVO9WO2QLDWO7XY","","null","<img src=""img/food6.png"" style=""width:200px; border:14px solid green;"">","null","","","","","","","","","",""
"","image-keyboard-response","126","51359","0.0-126.0","3HVVDCPGTFE9RVAN4P311VL0CAEYTN","A1K8QNLYYYX21W","31YWE12TE0YV78PCVO9WO2QLDWO7XY","","246.19999980926514","img/food4.png","74","250.40000009536743","1","0","2","1","1,0.5,0,1,0.5,0,0.5,0,1","0,1,0.5,0,1,0.5,1,0.5,0","3","",""
"","html-keyboard-response","127","51665","0.0-127.0","3HVVDCPGTFE9RVAN4P311VL0CAEYTN","A1K8QNLYYYX21W","31YWE12TE0YV78PCVO9WO2QLDWO7XY","","null","<img src=""img/food4.png"" style=""width:200px;border:14px solid red;"">","null","","","","","","","","","",""
"","image-keyboard-response","128","51904","0.0-128.0","3HVVDCPGTFE9RVAN4P311VL0CAEYTN","A1K8QNLYYYX21W","31YWE12TE0YV78PCVO9WO2QLDWO7XY","","232.69999980926514","img/food5.png","76","237.69999980926514","3","0","1","1","1,0.5,0,1,0.5,0,0.5,0,1","0,1,0.5,0,1,0.5,1,0.5,0","3","",""
"","html-keyboard-response","129","52217","0.0-129.0","3HVVDCPGTFE9RVAN4P311VL0CAEYTN","A1K8QNLYYYX21W","31YWE12TE0YV78PCVO9WO2QLDWO7XY","","null","<img src=""img/food5.png"" style=""width:200px;border:14px solid red;"">","null","","","","","","","","","",""
"","image-keyboard-response","130","52486","0.0-130.0","3HVVDCPGTFE9RVAN4P311VL0CAEYTN","A1K8QNLYYYX21W","31YWE12TE0YV78PCVO9WO2QLDWO7XY","","257.90000009536743","img/food4.png","75","265.80000019073486","2","1","2","1","1,0.5,0,1,0.5,0,0.5,0,1","0,1,0.5,0,1,0.5,1,0.5,0","3","",""
"","html-keyboard-response","131","52798","0.0-131.0","3HVVDCPGTFE9RVAN4P311VL0CAEYTN","A1K8QNLYYYX21W","31YWE12TE0YV78PCVO9WO2QLDWO7XY","","null","<img src=""img/food4.png"" style=""width:200px; border:14px solid green;"">","null","","","","","","","","","",""
"","image-keyboard-response","132","53107","0.0-132.0","3HVVDCPGTFE9RVAN4P311VL0CAEYTN","A1K8QNLYYYX21W","31YWE12TE0YV78PCVO9WO2QLDWO7XY","","304.30000019073486","img/food6.png","74","308.19999980926514","1","1","3","1","1,0.5,0,1,0.5,0,0.5,0,1","0,1,0.5,0,1,0.5,1,0.5,0","3","",""
"","html-keyboard-response","133","53417","0.0-133.0","3HVVDCPGTFE9RVAN4P311VL0CAEYTN","A1K8QNLYYYX21W","31YWE12TE0YV78PCVO9WO2QLDWO7XY","","null","<img src=""img/food6.png"" style=""width:200px; border:14px solid green;"">","null","","","","","","","","","",""
"","image-keyboard-response","134","53728","0.0-134.0","3HVVDCPGTFE9RVAN4P311VL0CAEYTN","A1K8QNLYYYX21W","31YWE12TE0YV78PCVO9WO2QLDWO7XY","","304.90000009536743","img/food6.png","74","309.59999990463257","1","1","3","1","1,0.5,0,1,0.5,0,0.5,0,1","0,1,0.5,0,1,0.5,1,0.5,0","3","",""
"","html-keyboard-response","135","54034","0.0-135.0","3HVVDCPGTFE9RVAN4P311VL0CAEYTN","A1K8QNLYYYX21W","31YWE12TE0YV78PCVO9WO2QLDWO7XY","","null","<img src=""img/food6.png"" style=""width:200px; border:14px solid green;"">","null","","","","","","","","","",""
"","image-keyboard-response","136","54520","0.0-136.0","3HVVDCPGTFE9RVAN4P311VL0CAEYTN","A1K8QNLYYYX21W","31YWE12TE0YV78PCVO9WO2QLDWO7XY","","476.30000019073486","img/food6.png","75","485.09999990463257","2","1","3","1","1,0.5,0,1,0.5,0,0.5,0,1","0,1,0.5,0,1,0.5,1,0.5,0","3","",""
"","html-keyboard-response","137","54826","0.0-137.0","3HVVDCPGTFE9RVAN4P311VL0CAEYTN","A1K8QNLYYYX21W","31YWE12TE0YV78PCVO9WO2QLDWO7XY","","null","<img src=""img/food6.png"" style=""width:200px; border:14px solid green;"">","null","","","","","","","","","",""
"","image-keyboard-response","138","55177","0.0-138.0","3HVVDCPGTFE9RVAN4P311VL0CAEYTN","A1K8QNLYYYX21W","31YWE12TE0YV78PCVO9WO2QLDWO7XY","","345.5","img/food6.png","76","349.80000019073486","3","0","3","1","1,0.5,0,1,0.5,0,0.5,0,1","0,1,0.5,0,1,0.5,1,0.5,0","3","",""
"","html-keyboard-response","139","55487","0.0-139.0","3HVVDCPGTFE9RVAN4P311VL0CAEYTN","A1K8QNLYYYX21W","31YWE12TE0YV78PCVO9WO2QLDWO7XY","","null","<img src=""img/food6.png"" style=""width:200px;border:14px solid red;"">","null","","","","","","","","","",""
"","image-keyboard-response","140","55864","0.0-140.0","3HVVDCPGTFE9RVAN4P311VL0CAEYTN","A1K8QNLYYYX21W","31YWE12TE0YV78PCVO9WO2QLDWO7XY","","368.2000002861023","img/food4.png","75","375.5","2","1","2","1","1,0.5,0,1,0.5,0,0.5,0,1","0,1,0.5,0,1,0.5,1,0.5,0","3","",""
"","html-keyboard-response","141","56171","0.0-141.0","3HVVDCPGTFE9RVAN4P311VL0CAEYTN","A1K8QNLYYYX21W","31YWE12TE0YV78PCVO9WO2QLDWO7XY","","null","<img src=""img/food4.png"" style=""width:200px; border:14px solid green;"">","null","","","","","","","","","",""
"","image-keyboard-response","142","56453","0.0-142.0","3HVVDCPGTFE9RVAN4P311VL0CAEYTN","A1K8QNLYYYX21W","31YWE12TE0YV78PCVO9WO2QLDWO7XY","","275.59999990463257","img/food4.png","74","281.09999990463257","1","0","2","1","1,0.5,0,1,0.5,0,0.5,0,1","0,1,0.5,0,1,0.5,1,0.5,0","3","",""
"","html-keyboard-response","143","56763","0.0-143.0","3HVVDCPGTFE9RVAN4P311VL0CAEYTN","A1K8QNLYYYX21W","31YWE12TE0YV78PCVO9WO2QLDWO7XY","","null","<img src=""img/food4.png"" style=""width:200px;border:14px solid red;"">","null","","","","","","","","","",""
"","image-keyboard-response","144","57390","0.0-144.0","3HVVDCPGTFE9RVAN4P311VL0CAEYTN","A1K8QNLYYYX21W","31YWE12TE0YV78PCVO9WO2QLDWO7XY","","618.9000000953674","img/food5.png","74","625.2999997138977","1","0","1","1","1,0.5,0,1,0.5,0,0.5,0,1","0,1,0.5,0,1,0.5,1,0.5,0","3","",""
"","html-keyboard-response","145","57694","0.0-145.0","3HVVDCPGTFE9RVAN4P311VL0CAEYTN","A1K8QNLYYYX21W","31YWE12TE0YV78PCVO9WO2QLDWO7XY","","null","<img src=""img/food5.png"" style=""width:200px;border:14px solid red;"">","null","","","","","","","","","",""
"","image-keyboard-response","146","58138","0.0-146.0","3HVVDCPGTFE9RVAN4P311VL0CAEYTN","A1K8QNLYYYX21W","31YWE12TE0YV78PCVO9WO2QLDWO7XY","","437.40000009536743","img/food6.png","75","442.40000009536743","2","0","3","1","1,0.5,0,1,0.5,0,0.5,0,1","0,1,0.5,0,1,0.5,1,0.5,0","3","",""
"","html-keyboard-response","147","58448","0.0-147.0","3HVVDCPGTFE9RVAN4P311VL0CAEYTN","A1K8QNLYYYX21W","31YWE12TE0YV78PCVO9WO2QLDWO7XY","","null","<img src=""img/food6.png"" style=""width:200px;border:14px solid red;"">","null","","","","","","","","","",""
"","image-keyboard-response","148","58826","0.0-148.0","3HVVDCPGTFE9RVAN4P311VL0CAEYTN","A1K8QNLYYYX21W","31YWE12TE0YV78PCVO9WO2QLDWO7XY","","369.90000009536743","img/food5.png","76","374.90000009536743","3","0","1","1","1,0.5,0,1,0.5,0,0.5,0,1","0,1,0.5,0,1,0.5,1,0.5,0","3","",""
"","html-keyboard-response","149","59134","0.0-149.0","3HVVDCPGTFE9RVAN4P311VL0CAEYTN","A1K8QNLYYYX21W","31YWE12TE0YV78PCVO9WO2QLDWO7XY","","null","<img src=""img/food5.png"" style=""width:200px;border:14px solid red;"">","null","","","","","","","","","",""
"","image-keyboard-response","150","59821","0.0-150.0","3HVVDCPGTFE9RVAN4P311VL0CAEYTN","A1K8QNLYYYX21W","31YWE12TE0YV78PCVO9WO2QLDWO7XY","","680.8999996185303","img/food5.png","76","685.8000001907349","3","1","1","1","1,0.5,0,1,0.5,0,0.5,0,1","0,1,0.5,0,1,0.5,1,0.5,0","3","",""
"","html-keyboard-response","151","60132","0.0-151.0","3HVVDCPGTFE9RVAN4P311VL0CAEYTN","A1K8QNLYYYX21W","31YWE12TE0YV78PCVO9WO2QLDWO7XY","","null","<img src=""img/food5.png"" style=""width:200px; border:14px solid green;"">","null","","","","","","","","","",""
"","image-keyboard-response","152","60404","0.0-152.0","3HVVDCPGTFE9RVAN4P311VL0CAEYTN","A1K8QNLYYYX21W","31YWE12TE0YV78PCVO9WO2QLDWO7XY","","265.8999996185303","img/food6.png","75","270.40000009536743","2","1","3","1","1,0.5,0,1,0.5,0,0.5,0,1","0,1,0.5,0,1,0.5,1,0.5,0","3","",""
"","html-keyboard-response","153","60709","0.0-153.0","3HVVDCPGTFE9RVAN4P311VL0CAEYTN","A1K8QNLYYYX21W","31YWE12TE0YV78PCVO9WO2QLDWO7XY","","null","<img src=""img/food6.png"" style=""width:200px; border:14px solid green;"">","null","","","","","","","","","",""
"","image-keyboard-response","154","61112","0.0-154.0","3HVVDCPGTFE9RVAN4P311VL0CAEYTN","A1K8QNLYYYX21W","31YWE12TE0YV78PCVO9WO2QLDWO7XY","","396.59999990463257","img/food4.png","74","401.59999990463257","1","0","2","1","1,0.5,0,1,0.5,0,0.5,0,1","0,1,0.5,0,1,0.5,1,0.5,0","3","",""
"","html-keyboard-response","155","61422","0.0-155.0","3HVVDCPGTFE9RVAN4P311VL0CAEYTN","A1K8QNLYYYX21W","31YWE12TE0YV78PCVO9WO2QLDWO7XY","","null","<img src=""img/food4.png"" style=""width:200px;border:14px solid red;"">","null","","","","","","","","","",""
"","image-keyboard-response","156","61842","0.0-156.0","3HVVDCPGTFE9RVAN4P311VL0CAEYTN","A1K8QNLYYYX21W","31YWE12TE0YV78PCVO9WO2QLDWO7XY","","413.90000009536743","img/food6.png","76","419.40000009536743","3","0","3","1","1,0.5,0,1,0.5,0,0.5,0,1","0,1,0.5,0,1,0.5,1,0.5,0","3","",""
"","html-keyboard-response","157","62151","0.0-157.0","3HVVDCPGTFE9RVAN4P311VL0CAEYTN","A1K8QNLYYYX21W","31YWE12TE0YV78PCVO9WO2QLDWO7XY","","null","<img src=""img/food6.png"" style=""width:200px;border:14px solid red;"">","null","","","","","","","","","",""
"","image-keyboard-response","158","62596","0.0-158.0","3HVVDCPGTFE9RVAN4P311VL0CAEYTN","A1K8QNLYYYX21W","31YWE12TE0YV78PCVO9WO2QLDWO7XY","","441.19999980926514","img/food6.png","76","444.5","3","0","3","1","1,0.5,0,1,0.5,0,0.5,0,1","0,1,0.5,0,1,0.5,1,0.5,0","3","",""
"","html-keyboard-response","159","62907","0.0-159.0","3HVVDCPGTFE9RVAN4P311VL0CAEYTN","A1K8QNLYYYX21W","31YWE12TE0YV78PCVO9WO2QLDWO7XY","","null","<img src=""img/food6.png"" style=""width:200px;border:14px solid red;"">","null","","","","","","","","","",""
"","image-keyboard-response","160","63209","0.0-160.0","3HVVDCPGTFE9RVAN4P311VL0CAEYTN","A1K8QNLYYYX21W","31YWE12TE0YV78PCVO9WO2QLDWO7XY","","295.7999997138977","img/food5.png","75","300.7999997138977","2","1","1","1","1,0.5,0,1,0.5,0,0.5,0,1","0,1,0.5,0,1,0.5,1,0.5,0","3","",""
"","html-keyboard-response","161","63518","0.0-161.0","3HVVDCPGTFE9RVAN4P311VL0CAEYTN","A1K8QNLYYYX21W","31YWE12TE0YV78PCVO9WO2QLDWO7XY","","null","<img src=""img/food5.png"" style=""width:200px; border:14px solid green;"">","null","","","","","","","","","",""
"","image-keyboard-response","162","63903","0.0-162.0","3HVVDCPGTFE9RVAN4P311VL0CAEYTN","A1K8QNLYYYX21W","31YWE12TE0YV78PCVO9WO2QLDWO7XY","","381.7000002861023","img/food6.png","74","384.3999996185303","1","1","3","1","1,0.5,0,1,0.5,0,0.5,0,1","0,1,0.5,0,1,0.5,1,0.5,0","3","",""
"","html-keyboard-response","163","64213","0.0-163.0","3HVVDCPGTFE9RVAN4P311VL0CAEYTN","A1K8QNLYYYX21W","31YWE12TE0YV78PCVO9WO2QLDWO7XY","","null","<img src=""img/food6.png"" style=""width:200px; border:14px solid green;"">","null","","","","","","","","","",""
"","image-keyboard-response","164","64532","0.0-164.0","3HVVDCPGTFE9RVAN4P311VL0CAEYTN","A1K8QNLYYYX21W","31YWE12TE0YV78PCVO9WO2QLDWO7XY","","313.90000009536743","img/food5.png","75","317.8999996185303","2","1","1","1","1,0.5,0,1,0.5,0,0.5,0,1","0,1,0.5,0,1,0.5,1,0.5,0","3","",""
"","html-keyboard-response","165","64838","0.0-165.0","3HVVDCPGTFE9RVAN4P311VL0CAEYTN","A1K8QNLYYYX21W","31YWE12TE0YV78PCVO9WO2QLDWO7XY","","null","<img src=""img/food5.png"" style=""width:200px; border:14px solid green;"">","null","","","","","","","","","",""
"","image-keyboard-response","166","65310","0.0-166.0","3HVVDCPGTFE9RVAN4P311VL0CAEYTN","A1K8QNLYYYX21W","31YWE12TE0YV78PCVO9WO2QLDWO7XY","","464.2000002861023","img/food5.png","76","471.1000003814697","3","0","1","1","1,0.5,0,1,0.5,0,0.5,0,1","0,1,0.5,0,1,0.5,1,0.5,0","3","",""
"","html-keyboard-response","167","65616","0.0-167.0","3HVVDCPGTFE9RVAN4P311VL0CAEYTN","A1K8QNLYYYX21W","31YWE12TE0YV78PCVO9WO2QLDWO7XY","","null","<img src=""img/food5.png"" style=""width:200px;border:14px solid red;"">","null","","","","","","","","","",""
"","image-keyboard-response","168","66002","0.0-168.0","3HVVDCPGTFE9RVAN4P311VL0CAEYTN","A1K8QNLYYYX21W","31YWE12TE0YV78PCVO9WO2QLDWO7XY","","375.80000019073486","img/food4.png","76","380.69999980926514","3","1","2","1","1,0.5,0,1,0.5,0,0.5,0,1","0,1,0.5,0,1,0.5,1,0.5,0","3","",""
"","html-keyboard-response","169","66310","0.0-169.0","3HVVDCPGTFE9RVAN4P311VL0CAEYTN","A1K8QNLYYYX21W","31YWE12TE0YV78PCVO9WO2QLDWO7XY","","null","<img src=""img/food4.png"" style=""width:200px; border:14px solid green;"">","null","","","","","","","","","",""
"","image-keyboard-response","170","66684","0.0-170.0","3HVVDCPGTFE9RVAN4P311VL0CAEYTN","A1K8QNLYYYX21W","31YWE12TE0YV78PCVO9WO2QLDWO7XY","","370.8999996185303","img/food5.png","75","373.7999997138977","2","1","1","1","1,0.5,0,1,0.5,0,0.5,0,1","0,1,0.5,0,1,0.5,1,0.5,0","3","",""
"","html-keyboard-response","171","66995","0.0-171.0","3HVVDCPGTFE9RVAN4P311VL0CAEYTN","A1K8QNLYYYX21W","31YWE12TE0YV78PCVO9WO2QLDWO7XY","","null","<img src=""img/food5.png"" style=""width:200px; border:14px solid green;"">","null","","","","","","","","","",""
"","image-keyboard-response","172","67335","0.0-172.0","3HVVDCPGTFE9RVAN4P311VL0CAEYTN","A1K8QNLYYYX21W","31YWE12TE0YV78PCVO9WO2QLDWO7XY","","335.2999997138977","img/food6.png","74","339.40000009536743","1","1","3","1","1,0.5,0,1,0.5,0,0.5,0,1","0,1,0.5,0,1,0.5,1,0.5,0","3","",""
"","html-keyboard-response","173","67640","0.0-173.0","3HVVDCPGTFE9RVAN4P311VL0CAEYTN","A1K8QNLYYYX21W","31YWE12TE0YV78PCVO9WO2QLDWO7XY","","null","<img src=""img/food6.png"" style=""width:200px; border:14px solid green;"">","null","","","","","","","","","",""
"","image-keyboard-response","174","67923","0.0-174.0","3HVVDCPGTFE9RVAN4P311VL0CAEYTN","A1K8QNLYYYX21W","31YWE12TE0YV78PCVO9WO2QLDWO7XY","","277.69999980926514","img/food5.png","74","280.5","1","0","1","1","1,0.5,0,1,0.5,0,0.5,0,1","0,1,0.5,0,1,0.5,1,0.5,0","3","",""
"","html-keyboard-response","175","68235","0.0-175.0","3HVVDCPGTFE9RVAN4P311VL0CAEYTN","A1K8QNLYYYX21W","31YWE12TE0YV78PCVO9WO2QLDWO7XY","","null","<img src=""img/food5.png"" style=""width:200px;border:14px solid red;"">","null","","","","","","","","","",""
"","image-keyboard-response","176","68486","0.0-176.0","3HVVDCPGTFE9RVAN4P311VL0CAEYTN","A1K8QNLYYYX21W","31YWE12TE0YV78PCVO9WO2QLDWO7XY","","241.09999990463257","img/food4.png","76","249.30000019073486","3","1","2","1","1,0.5,0,1,0.5,0,0.5,0,1","0,1,0.5,0,1,0.5,1,0.5,0","3","",""
"","html-keyboard-response","177","68795","0.0-177.0","3HVVDCPGTFE9RVAN4P311VL0CAEYTN","A1K8QNLYYYX21W","31YWE12TE0YV78PCVO9WO2QLDWO7XY","","null","<img src=""img/food4.png"" style=""width:200px; border:14px solid green;"">","null","","","","","","","","","",""
"","image-keyboard-response","178","69070","0.0-178.0","3HVVDCPGTFE9RVAN4P311VL0CAEYTN","A1K8QNLYYYX21W","31YWE12TE0YV78PCVO9WO2QLDWO7XY","","269.5","img/food4.png","75","273.40000009536743","2","1","2","1","1,0.5,0,1,0.5,0,0.5,0,1","0,1,0.5,0,1,0.5,1,0.5,0","3","",""
"","html-keyboard-response","179","69379","0.0-179.0","3HVVDCPGTFE9RVAN4P311VL0CAEYTN","A1K8QNLYYYX21W","31YWE12TE0YV78PCVO9WO2QLDWO7XY","","null","<img src=""img/food4.png"" style=""width:200px; border:14px solid green;"">","null","","","","","","","","","",""
"","image-keyboard-response","180","69711","0.0-180.0","3HVVDCPGTFE9RVAN4P311VL0CAEYTN","A1K8QNLYYYX21W","31YWE12TE0YV78PCVO9WO2QLDWO7XY","","328.5","img/food5.png","76","331.30000019073486","3","0","1","1","1,0.5,0,1,0.5,0,0.5,0,1","0,1,0.5,0,1,0.5,1,0.5,0","3","",""
"","html-keyboard-response","181","70022","0.0-181.0","3HVVDCPGTFE9RVAN4P311VL0CAEYTN","A1K8QNLYYYX21W","31YWE12TE0YV78PCVO9WO2QLDWO7XY","","null","<img src=""img/food5.png"" style=""width:200px;border:14px solid red;"">","null","","","","","","","","","",""
"","html-keyboard-response","182","72564","0.0-182.0","3HVVDCPGTFE9RVAN4P311VL0CAEYTN","A1K8QNLYYYX21W","31YWE12TE0YV78PCVO9WO2QLDWO7XY","","","","","","","","","","","","","",""
"","instructions","183","75645","0.0-183.0","3HVVDCPGTFE9RVAN4P311VL0CAEYTN","A1K8QNLYYYX21W","31YWE12TE0YV78PCVO9WO2QLDWO7XY","[{""page_index"":0,""viewing_time"":2156.5999999046326},{""page_index"":1,""viewing_time"":919.5999999046326}]","3077.199999809265","","","","","","","","","","","",""
"","image-keyboard-response","184","75784","0.0-184.0","3HVVDCPGTFE9RVAN4P311VL0CAEYTN","A1K8QNLYYYX21W","31YWE12TE0YV78PCVO9WO2QLDWO7XY","","134.5","img/food1.png","76","138.80000019073486","3","1","1","2","1,0.5,0,1,0.5,0,0.5,0,1","0.5,0,1,0.5,0,1,0,1,0.5","2","false",""
"","html-keyboard-response","185","76093","0.0-185.0","3HVVDCPGTFE9RVAN4P311VL0CAEYTN","A1K8QNLYYYX21W","31YWE12TE0YV78PCVO9WO2QLDWO7XY","","null","<img src=""img/food1.png"" style=""width:200px; border:14px solid green;"">","null","","","","","","","","","",""
"","image-keyboard-response","186","76221","0.0-187.0","3HVVDCPGTFE9RVAN4P311VL0CAEYTN","A1K8QNLYYYX21W","31YWE12TE0YV78PCVO9WO2QLDWO7XY","","118.40000009536743","img/food1.png","74","124.39999961853027","1","1","1","2","1,0.5,0,1,0.5,0,0.5,0,1","0.5,0,1,0.5,0,1,0,1,0.5","2","false",""
"","html-keyboard-response","187","76531","0.0-188.0","3HVVDCPGTFE9RVAN4P311VL0CAEYTN","A1K8QNLYYYX21W","31YWE12TE0YV78PCVO9WO2QLDWO7XY","","null","<img src=""img/food1.png"" style=""width:200px; border:14px solid green;"">","null","","","","","","","","","",""
"","image-keyboard-response","188","77138","0.0-190.0","3HVVDCPGTFE9RVAN4P311VL0CAEYTN","A1K8QNLYYYX21W","31YWE12TE0YV78PCVO9WO2QLDWO7XY","","601.7000002861023","img/food1.png","74","604.1999998092651","1","1","1","2","1,0.5,0,1,0.5,0,0.5,0,1","0.5,0,1,0.5,0,1,0,1,0.5","2","false",""
"","html-keyboard-response","189","77443","0.0-191.0","3HVVDCPGTFE9RVAN4P311VL0CAEYTN","A1K8QNLYYYX21W","31YWE12TE0YV78PCVO9WO2QLDWO7XY","","null","<img src=""img/food1.png"" style=""width:200px; border:14px solid green;"">","null","","","","","","","","","",""
"","image-keyboard-response","190","78002","0.0-193.0","3HVVDCPGTFE9RVAN4P311VL0CAEYTN","A1K8QNLYYYX21W","31YWE12TE0YV78PCVO9WO2QLDWO7XY","","555.2999997138977","img/food1.png","74","557.5999999046326","1","1","1","2","1,0.5,0,1,0.5,0,0.5,0,1","0.5,0,1,0.5,0,1,0,1,0.5","2","false",""
"","html-keyboard-response","191","78309","0.0-194.0","3HVVDCPGTFE9RVAN4P311VL0CAEYTN","A1K8QNLYYYX21W","31YWE12TE0YV78PCVO9WO2QLDWO7XY","","null","<img src=""img/food1.png"" style=""width:200px; border:14px solid green;"">","null","","","","","","","","","",""
"","image-keyboard-response","192","78662","0.0-196.0","3HVVDCPGTFE9RVAN4P311VL0CAEYTN","A1K8QNLYYYX21W","31YWE12TE0YV78PCVO9WO2QLDWO7XY","","348.2999997138977","img/food1.png","74","351.40000009536743","1","1","1","2","1,0.5,0,1,0.5,0,0.5,0,1","0.5,0,1,0.5,0,1,0,1,0.5","2","false",""
"","html-keyboard-response","193","78974","0.0-197.0","3HVVDCPGTFE9RVAN4P311VL0CAEYTN","A1K8QNLYYYX21W","31YWE12TE0YV78PCVO9WO2QLDWO7XY","","null","<img src=""img/food1.png"" style=""width:200px; border:14px solid green;"">","null","","","","","","","","","",""
"","image-keyboard-response","194","79323","0.0-199.0","3HVVDCPGTFE9RVAN4P311VL0CAEYTN","A1K8QNLYYYX21W","31YWE12TE0YV78PCVO9WO2QLDWO7XY","","336.80000019073486","img/food3.png","74","343","1","0","2","2","1,0.5,0,1,0.5,0,0.5,0,1","0.5,0,1,0.5,0,1,0,1,0.5","2","false",""
"","html-keyboard-response","195","79642","0.0-200.0","3HVVDCPGTFE9RVAN4P311VL0CAEYTN","A1K8QNLYYYX21W","31YWE12TE0YV78PCVO9WO2QLDWO7XY","","null","<img src=""img/food3.png"" style=""width:200px;border:14px solid red;"">","null","","","","","","","","","",""
"","image-keyboard-response","196","79826","0.0-202.0","3HVVDCPGTFE9RVAN4P311VL0CAEYTN","A1K8QNLYYYX21W","31YWE12TE0YV78PCVO9WO2QLDWO7XY","","173.60000038146973","img/food3.png","76","181.5","3","1","2","2","1,0.5,0,1,0.5,0,0.5,0,1","0.5,0,1,0.5,0,1,0,1,0.5","2","false",""
"","html-keyboard-response","197","80135","0.0-203.0","3HVVDCPGTFE9RVAN4P311VL0CAEYTN","A1K8QNLYYYX21W","31YWE12TE0YV78PCVO9WO2QLDWO7XY","","null","<img src=""img/food3.png"" style=""width:200px; border:14px solid green;"">","null","","","","","","","","","",""
"","image-keyboard-response","198","80497","0.0-205.0","3HVVDCPGTFE9RVAN4P311VL0CAEYTN","A1K8QNLYYYX21W","31YWE12TE0YV78PCVO9WO2QLDWO7XY","","356.6000003814697","img/food2.png","75","361.19999980926514","2","1","3","2","1,0.5,0,1,0.5,0,0.5,0,1","0.5,0,1,0.5,0,1,0,1,0.5","2","false",""
"","html-keyboard-response","199","80805","0.0-206.0","3HVVDCPGTFE9RVAN4P311VL0CAEYTN","A1K8QNLYYYX21W","31YWE12TE0YV78PCVO9WO2QLDWO7XY","","null","<img src=""img/food2.png"" style=""width:200px; border:14px solid green;"">","null","","","","","","","","","",""
"","image-keyboard-response","200","81133","0.0-208.0","3HVVDCPGTFE9RVAN4P311VL0CAEYTN","A1K8QNLYYYX21W","31YWE12TE0YV78PCVO9WO2QLDWO7XY","","317.7000002861023","img/food3.png","76","325.6000003814697","3","1","2","2","1,0.5,0,1,0.5,0,0.5,0,1","0.5,0,1,0.5,0,1,0,1,0.5","2","false",""
"","html-keyboard-response","201","81449","0.0-209.0","3HVVDCPGTFE9RVAN4P311VL0CAEYTN","A1K8QNLYYYX21W","31YWE12TE0YV78PCVO9WO2QLDWO7XY","","null","<img src=""img/food3.png"" style=""width:200px; border:14px solid green;"">","null","","","","","","","","","",""
"","image-keyboard-response","202","81714","0.0-211.0","3HVVDCPGTFE9RVAN4P311VL0CAEYTN","A1K8QNLYYYX21W","31YWE12TE0YV78PCVO9WO2QLDWO7XY","","256.59999990463257","img/food2.png","76","261.40000009536743","3","0","3","2","1,0.5,0,1,0.5,0,0.5,0,1","0.5,0,1,0.5,0,1,0,1,0.5","2","false",""
"","html-keyboard-response","203","82026","0.0-212.0","3HVVDCPGTFE9RVAN4P311VL0CAEYTN","A1K8QNLYYYX21W","31YWE12TE0YV78PCVO9WO2QLDWO7XY","","null","<img src=""img/food2.png"" style=""width:200px;border:14px solid red;"">","null","","","","","","","","","",""
"","image-keyboard-response","204","82534","0.0-214.0","3HVVDCPGTFE9RVAN4P311VL0CAEYTN","A1K8QNLYYYX21W","31YWE12TE0YV78PCVO9WO2QLDWO7XY","","497.5","img/food3.png","76","502.19999980926514","3","1","2","2","1,0.5,0,1,0.5,0,0.5,0,1","0.5,0,1,0.5,0,1,0,1,0.5","2","false",""
"","html-keyboard-response","205","82841","0.0-215.0","3HVVDCPGTFE9RVAN4P311VL0CAEYTN","A1K8QNLYYYX21W","31YWE12TE0YV78PCVO9WO2QLDWO7XY","","null","<img src=""img/food3.png"" style=""width:200px; border:14px solid green;"">","null","","","","","","","","","",""
"","image-keyboard-response","206","83452","0.0-217.0","3HVVDCPGTFE9RVAN4P311VL0CAEYTN","A1K8QNLYYYX21W","31YWE12TE0YV78PCVO9WO2QLDWO7XY","","602.9000000953674","img/food1.png","74","607.5999999046326","1","1","1","2","1,0.5,0,1,0.5,0,0.5,0,1","0.5,0,1,0.5,0,1,0,1,0.5","2","false",""
"","html-keyboard-response","207","83763","0.0-218.0","3HVVDCPGTFE9RVAN4P311VL0CAEYTN","A1K8QNLYYYX21W","31YWE12TE0YV78PCVO9WO2QLDWO7XY","","null","<img src=""img/food1.png"" style=""width:200px; border:14px solid green;"">","null","","","","","","","","","",""
"","image-keyboard-response","208","84183","0.0-220.0","3HVVDCPGTFE9RVAN4P311VL0CAEYTN","A1K8QNLYYYX21W","31YWE12TE0YV78PCVO9WO2QLDWO7XY","","412.1000003814697","img/food3.png","74","417.69999980926514","1","1","2","2","1,0.5,0,1,0.5,0,0.5,0,1","0.5,0,1,0.5,0,1,0,1,0.5","2","false",""
"","html-keyboard-response","209","84495","0.0-221.0","3HVVDCPGTFE9RVAN4P311VL0CAEYTN","A1K8QNLYYYX21W","31YWE12TE0YV78PCVO9WO2QLDWO7XY","","null","<img src=""img/food3.png"" style=""width:200px; border:14px solid green;"">","null","","","","","","","","","",""
"","image-keyboard-response","210","84776","0.0-223.0","3HVVDCPGTFE9RVAN4P311VL0CAEYTN","A1K8QNLYYYX21W","31YWE12TE0YV78PCVO9WO2QLDWO7XY","","275.09999990463257","img/food3.png","75","279.1000003814697","2","0","2","2","1,0.5,0,1,0.5,0,0.5,0,1","0.5,0,1,0.5,0,1,0,1,0.5","2","false",""
"","html-keyboard-response","211","85086","0.0-224.0","3HVVDCPGTFE9RVAN4P311VL0CAEYTN","A1K8QNLYYYX21W","31YWE12TE0YV78PCVO9WO2QLDWO7XY","","null","<img src=""img/food3.png"" style=""width:200px;border:14px solid red;"">","null","","","","","","","","","",""
"","image-keyboard-response","212","85417","0.0-226.0","3HVVDCPGTFE9RVAN4P311VL0CAEYTN","A1K8QNLYYYX21W","31YWE12TE0YV78PCVO9WO2QLDWO7XY","","322.90000009536743","img/food3.png","76","328.5","3","1","2","2","1,0.5,0,1,0.5,0,0.5,0,1","0.5,0,1,0.5,0,1,0,1,0.5","2","false",""
"","html-keyboard-response","213","85728","0.0-227.0","3HVVDCPGTFE9RVAN4P311VL0CAEYTN","A1K8QNLYYYX21W","31YWE12TE0YV78PCVO9WO2QLDWO7XY","","null","<img src=""img/food3.png"" style=""width:200px; border:14px solid green;"">","null","","","","","","","","","",""
"","image-keyboard-response","214","86009","0.0-229.0","3HVVDCPGTFE9RVAN4P311VL0CAEYTN","A1K8QNLYYYX21W","31YWE12TE0YV78PCVO9WO2QLDWO7XY","","273.69999980926514","img/food1.png","75","279","2","0","1","2","1,0.5,0,1,0.5,0,0.5,0,1","0.5,0,1,0.5,0,1,0,1,0.5","2","false",""
"","html-keyboard-response","215","86326","0.0-230.0","3HVVDCPGTFE9RVAN4P311VL0CAEYTN","A1K8QNLYYYX21W","31YWE12TE0YV78PCVO9WO2QLDWO7XY","","null","<img src=""img/food1.png"" style=""width:200px;border:14px solid red;"">","null","","","","","","","","","",""
"","image-keyboard-response","216","86647","0.0-232.0","3HVVDCPGTFE9RVAN4P311VL0CAEYTN","A1K8QNLYYYX21W","31YWE12TE0YV78PCVO9WO2QLDWO7XY","","309.40000009536743","img/food3.png","76","316.8999996185303","3","1","2","2","1,0.5,0,1,0.5,0,0.5,0,1","0.5,0,1,0.5,0,1,0,1,0.5","2","false",""
"","html-keyboard-response","217","86958","0.0-233.0","3HVVDCPGTFE9RVAN4P311VL0CAEYTN","A1K8QNLYYYX21W","31YWE12TE0YV78PCVO9WO2QLDWO7XY","","null","<img src=""img/food3.png"" style=""width:200px; border:14px solid green;"">","null","","","","","","","","","",""
"","image-keyboard-response","218","87344","0.0-235.0","3HVVDCPGTFE9RVAN4P311VL0CAEYTN","A1K8QNLYYYX21W","31YWE12TE0YV78PCVO9WO2QLDWO7XY","","373.7999997138977","img/food2.png","75","382.09999990463257","2","1","3","2","1,0.5,0,1,0.5,0,0.5,0,1","0.5,0,1,0.5,0,1,0,1,0.5","2","false",""
"","html-keyboard-response","219","87653","0.0-236.0","3HVVDCPGTFE9RVAN4P311VL0CAEYTN","A1K8QNLYYYX21W","31YWE12TE0YV78PCVO9WO2QLDWO7XY","","null","<img src=""img/food2.png"" style=""width:200px; border:14px solid green;"">","null","","","","","","","","","",""
"","image-keyboard-response","220","88011","0.0-238.0","3HVVDCPGTFE9RVAN4P311VL0CAEYTN","A1K8QNLYYYX21W","31YWE12TE0YV78PCVO9WO2QLDWO7XY","","349.7999997138977","img/food3.png","74","354.19999980926514","1","1","2","2","1,0.5,0,1,0.5,0,0.5,0,1","0.5,0,1,0.5,0,1,0,1,0.5","2","false",""
"","html-keyboard-response","221","88322","0.0-239.0","3HVVDCPGTFE9RVAN4P311VL0CAEYTN","A1K8QNLYYYX21W","31YWE12TE0YV78PCVO9WO2QLDWO7XY","","null","<img src=""img/food3.png"" style=""width:200px; border:14px solid green;"">","null","","","","","","","","","",""
"","image-keyboard-response","222","88733","0.0-241.0","3HVVDCPGTFE9RVAN4P311VL0CAEYTN","A1K8QNLYYYX21W","31YWE12TE0YV78PCVO9WO2QLDWO7XY","","404.5","img/food3.png","76","408.5","3","1","2","2","1,0.5,0,1,0.5,0,0.5,0,1","0.5,0,1,0.5,0,1,0,1,0.5","2","false",""
"","html-keyboard-response","223","89047","0.0-242.0","3HVVDCPGTFE9RVAN4P311VL0CAEYTN","A1K8QNLYYYX21W","31YWE12TE0YV78PCVO9WO2QLDWO7XY","","null","<img src=""img/food3.png"" style=""width:200px; border:14px solid green;"">","null","","","","","","","","","",""
"","image-keyboard-response","224","89351","0.0-244.0","3HVVDCPGTFE9RVAN4P311VL0CAEYTN","A1K8QNLYYYX21W","31YWE12TE0YV78PCVO9WO2QLDWO7XY","","290.59999990463257","img/food2.png","75","302","2","1","3","2","1,0.5,0,1,0.5,0,0.5,0,1","0.5,0,1,0.5,0,1,0,1,0.5","2","false",""
"","html-keyboard-response","225","89672","0.0-245.0","3HVVDCPGTFE9RVAN4P311VL0CAEYTN","A1K8QNLYYYX21W","31YWE12TE0YV78PCVO9WO2QLDWO7XY","","null","<img src=""img/food2.png"" style=""width:200px; border:14px solid green;"">","null","","","","","","","","","",""
"","image-keyboard-response","226","90128","0.0-247.0","3HVVDCPGTFE9RVAN4P311VL0CAEYTN","A1K8QNLYYYX21W","31YWE12TE0YV78PCVO9WO2QLDWO7XY","","448.09999990463257","img/food3.png","74","452.5","1","0","2","2","1,0.5,0,1,0.5,0,0.5,0,1","0.5,0,1,0.5,0,1,0,1,0.5","2","false",""
"","html-keyboard-response","227","90435","0.0-248.0","3HVVDCPGTFE9RVAN4P311VL0CAEYTN","A1K8QNLYYYX21W","31YWE12TE0YV78PCVO9WO2QLDWO7XY","","null","<img src=""img/food3.png"" style=""width:200px;border:14px solid red;"">","null","","","","","","","","","",""
"","image-keyboard-response","228","90827","0.0-250.0","3HVVDCPGTFE9RVAN4P311VL0CAEYTN","A1K8QNLYYYX21W","31YWE12TE0YV78PCVO9WO2QLDWO7XY","","387.7000002861023","img/food1.png","76","391.30000019073486","3","1","1","2","1,0.5,0,1,0.5,0,0.5,0,1","0.5,0,1,0.5,0,1,0,1,0.5","2","false",""
"","html-keyboard-response","229","91138","0.0-251.0","3HVVDCPGTFE9RVAN4P311VL0CAEYTN","A1K8QNLYYYX21W","31YWE12TE0YV78PCVO9WO2QLDWO7XY","","null","<img src=""img/food1.png"" style=""width:200px; border:14px solid green;"">","null","","","","","","","","","",""
"","image-keyboard-response","230","91587","0.0-253.0","3HVVDCPGTFE9RVAN4P311VL0CAEYTN","A1K8QNLYYYX21W","31YWE12TE0YV78PCVO9WO2QLDWO7XY","","441.09999990463257","img/food3.png","76","446.90000009536743","3","1","2","2","1,0.5,0,1,0.5,0,0.5,0,1","0.5,0,1,0.5,0,1,0,1,0.5","2","false",""
"","html-keyboard-response","231","91896","0.0-254.0","3HVVDCPGTFE9RVAN4P311VL0CAEYTN","A1K8QNLYYYX21W","31YWE12TE0YV78PCVO9WO2QLDWO7XY","","null","<img src=""img/food3.png"" style=""width:200px; border:14px solid green;"">","null","","","","","","","","","",""
"","image-keyboard-response","232","92205","0.0-256.0","3HVVDCPGTFE9RVAN4P311VL0CAEYTN","A1K8QNLYYYX21W","31YWE12TE0YV78PCVO9WO2QLDWO7XY","","300.5","img/food1.png","75","306.5","2","0","1","2","1,0.5,0,1,0.5,0,0.5,0,1","0.5,0,1,0.5,0,1,0,1,0.5","2","false",""
"","html-keyboard-response","233","92513","0.0-257.0","3HVVDCPGTFE9RVAN4P311VL0CAEYTN","A1K8QNLYYYX21W","31YWE12TE0YV78PCVO9WO2QLDWO7XY","","null","<img src=""img/food1.png"" style=""width:200px;border:14px solid red;"">","null","","","","","","","","","",""
"","image-keyboard-response","234","92811","0.0-259.0","3HVVDCPGTFE9RVAN4P311VL0CAEYTN","A1K8QNLYYYX21W","31YWE12TE0YV78PCVO9WO2QLDWO7XY","","286.30000019073486","img/food2.png","74","295.09999990463257","1","0","3","2","1,0.5,0,1,0.5,0,0.5,0,1","0.5,0,1,0.5,0,1,0,1,0.5","2","false",""
"","html-keyboard-response","235","93117","0.0-260.0","3HVVDCPGTFE9RVAN4P311VL0CAEYTN","A1K8QNLYYYX21W","31YWE12TE0YV78PCVO9WO2QLDWO7XY","","null","<img src=""img/food2.png"" style=""width:200px;border:14px solid red;"">","null","","","","","","","","","",""
"","image-keyboard-response","236","93622","0.0-262.0","3HVVDCPGTFE9RVAN4P311VL0CAEYTN","A1K8QNLYYYX21W","31YWE12TE0YV78PCVO9WO2QLDWO7XY","","498","img/food2.png","75","502.30000019073486","2","1","3","2","1,0.5,0,1,0.5,0,0.5,0,1","0.5,0,1,0.5,0,1,0,1,0.5","2","false",""
"","html-keyboard-response","237","93932","0.0-263.0","3HVVDCPGTFE9RVAN4P311VL0CAEYTN","A1K8QNLYYYX21W","31YWE12TE0YV78PCVO9WO2QLDWO7XY","","null","<img src=""img/food2.png"" style=""width:200px; border:14px solid green;"">","null","","","","","","","","","",""
"","image-keyboard-response","238","94300","0.0-265.0","3HVVDCPGTFE9RVAN4P311VL0CAEYTN","A1K8QNLYYYX21W","31YWE12TE0YV78PCVO9WO2QLDWO7XY","","360.2000002861023","img/food2.png","76","364.7999997138977","3","1","3","2","1,0.5,0,1,0.5,0,0.5,0,1","0.5,0,1,0.5,0,1,0,1,0.5","2","false",""
"","html-keyboard-response","239","94617","0.0-266.0","3HVVDCPGTFE9RVAN4P311VL0CAEYTN","A1K8QNLYYYX21W","31YWE12TE0YV78PCVO9WO2QLDWO7XY","","null","<img src=""img/food2.png"" style=""width:200px; border:14px solid green;"">","null","","","","","","","","","",""
"","image-keyboard-response","240","94965","0.0-268.0","3HVVDCPGTFE9RVAN4P311VL0CAEYTN","A1K8QNLYYYX21W","31YWE12TE0YV78PCVO9WO2QLDWO7XY","","341.59999990463257","img/food1.png","75","344.40000009536743","2","0","1","2","1,0.5,0,1,0.5,0,0.5,0,1","0.5,0,1,0.5,0,1,0,1,0.5","2","false",""
"","html-keyboard-response","241","95273","0.0-269.0","3HVVDCPGTFE9RVAN4P311VL0CAEYTN","A1K8QNLYYYX21W","31YWE12TE0YV78PCVO9WO2QLDWO7XY","","null","<img src=""img/food1.png"" style=""width:200px;border:14px solid red;"">","null","","","","","","","","","",""
"","image-keyboard-response","242","95656","0.0-271.0","3HVVDCPGTFE9RVAN4P311VL0CAEYTN","A1K8QNLYYYX21W","31YWE12TE0YV78PCVO9WO2QLDWO7XY","","374.59999990463257","img/food3.png","74","380.2999997138977","1","0","2","2","1,0.5,0,1,0.5,0,0.5,0,1","0.5,0,1,0.5,0,1,0,1,0.5","2","false",""
"","html-keyboard-response","243","95980","0.0-272.0","3HVVDCPGTFE9RVAN4P311VL0CAEYTN","A1K8QNLYYYX21W","31YWE12TE0YV78PCVO9WO2QLDWO7XY","","null","<img src=""img/food3.png"" style=""width:200px;border:14px solid red;"">","null","","","","","","","","","",""
"","image-keyboard-response","244","96194","0.0-274.0","3HVVDCPGTFE9RVAN4P311VL0CAEYTN","A1K8QNLYYYX21W","31YWE12TE0YV78PCVO9WO2QLDWO7XY","","205.5","img/food2.png","74","210.59999990463257","1","0","3","2","1,0.5,0,1,0.5,0,0.5,0,1","0.5,0,1,0.5,0,1,0,1,0.5","2","false",""
"","html-keyboard-response","245","96506","0.0-275.0","3HVVDCPGTFE9RVAN4P311VL0CAEYTN","A1K8QNLYYYX21W","31YWE12TE0YV78PCVO9WO2QLDWO7XY","","null","<img src=""img/food2.png"" style=""width:200px;border:14px solid red;"">","null","","","","","","","","","",""
"","image-keyboard-response","246","96807","0.0-277.0","3HVVDCPGTFE9RVAN4P311VL0CAEYTN","A1K8QNLYYYX21W","31YWE12TE0YV78PCVO9WO2QLDWO7XY","","292.2000002861023","img/food2.png","75","297.40000009536743","2","1","3","2","1,0.5,0,1,0.5,0,0.5,0,1","0.5,0,1,0.5,0,1,0,1,0.5","2","false",""
"","html-keyboard-response","247","97115","0.0-278.0","3HVVDCPGTFE9RVAN4P311VL0CAEYTN","A1K8QNLYYYX21W","31YWE12TE0YV78PCVO9WO2QLDWO7XY","","null","<img src=""img/food2.png"" style=""width:200px; border:14px solid green;"">","null","","","","","","","","","",""
"","image-keyboard-response","248","97381","0.0-280.0","3HVVDCPGTFE9RVAN4P311VL0CAEYTN","A1K8QNLYYYX21W","31YWE12TE0YV78PCVO9WO2QLDWO7XY","","258.59999990463257","img/food2.png","74","263.7000002861023","1","0","3","2","1,0.5,0,1,0.5,0,0.5,0,1","0.5,0,1,0.5,0,1,0,1,0.5","2","false",""
"","html-keyboard-response","249","97691","0.0-281.0","3HVVDCPGTFE9RVAN4P311VL0CAEYTN","A1K8QNLYYYX21W","31YWE12TE0YV78PCVO9WO2QLDWO7XY","","null","<img src=""img/food2.png"" style=""width:200px;border:14px solid red;"">","null","","","","","","","","","",""
"","image-keyboard-response","250","98017","0.0-283.0","3HVVDCPGTFE9RVAN4P311VL0CAEYTN","A1K8QNLYYYX21W","31YWE12TE0YV78PCVO9WO2QLDWO7XY","","311.5","img/food1.png","75","323.7999997138977","2","0","1","2","1,0.5,0,1,0.5,0,0.5,0,1","0.5,0,1,0.5,0,1,0,1,0.5","2","false",""
"","html-keyboard-response","251","98330","0.0-284.0","3HVVDCPGTFE9RVAN4P311VL0CAEYTN","A1K8QNLYYYX21W","31YWE12TE0YV78PCVO9WO2QLDWO7XY","","null","<img src=""img/food1.png"" style=""width:200px;border:14px solid red;"">","null","","","","","","","","","",""
"","image-keyboard-response","252","98569","0.0-286.0","3HVVDCPGTFE9RVAN4P311VL0CAEYTN","A1K8QNLYYYX21W","31YWE12TE0YV78PCVO9WO2QLDWO7XY","","230.09999990463257","img/food2.png","76","235","3","0","3","2","1,0.5,0,1,0.5,0,0.5,0,1","0.5,0,1,0.5,0,1,0,1,0.5","2","false",""
"","html-keyboard-response","253","98881","0.0-287.0","3HVVDCPGTFE9RVAN4P311VL0CAEYTN","A1K8QNLYYYX21W","31YWE12TE0YV78PCVO9WO2QLDWO7XY","","null","<img src=""img/food2.png"" style=""width:200px;border:14px solid red;"">","null","","","","","","","","","",""
"","image-keyboard-response","254","99322","0.0-289.0","3HVVDCPGTFE9RVAN4P311VL0CAEYTN","A1K8QNLYYYX21W","31YWE12TE0YV78PCVO9WO2QLDWO7XY","","431.80000019073486","img/food2.png","75","437.5","2","1","3","2","1,0.5,0,1,0.5,0,0.5,0,1","0.5,0,1,0.5,0,1,0,1,0.5","2","false",""
"","html-keyboard-response","255","99631","0.0-290.0","3HVVDCPGTFE9RVAN4P311VL0CAEYTN","A1K8QNLYYYX21W","31YWE12TE0YV78PCVO9WO2QLDWO7XY","","null","<img src=""img/food2.png"" style=""width:200px; border:14px solid green;"">","null","","","","","","","","","",""
"","image-keyboard-response","256","100012","0.0-292.0","3HVVDCPGTFE9RVAN4P311VL0CAEYTN","A1K8QNLYYYX21W","31YWE12TE0YV78PCVO9WO2QLDWO7XY","","375.90000009536743","img/food3.png","74","379","1","1","2","2","1,0.5,0,1,0.5,0,0.5,0,1","0.5,0,1,0.5,0,1,0,1,0.5","2","false",""
"","html-keyboard-response","257","100324","0.0-293.0","3HVVDCPGTFE9RVAN4P311VL0CAEYTN","A1K8QNLYYYX21W","31YWE12TE0YV78PCVO9WO2QLDWO7XY","","null","<img src=""img/food3.png"" style=""width:200px; border:14px solid green;"">","null","","","","","","","","","",""
"","image-keyboard-response","258","100695","0.0-295.0","3HVVDCPGTFE9RVAN4P311VL0CAEYTN","A1K8QNLYYYX21W","31YWE12TE0YV78PCVO9WO2QLDWO7XY","","360.8999996185303","img/food1.png","74","364.5","1","1","1","2","1,0.5,0,1,0.5,0,0.5,0,1","0.5,0,1,0.5,0,1,0,1,0.5","2","false",""
"","html-keyboard-response","259","101001","0.0-296.0","3HVVDCPGTFE9RVAN4P311VL0CAEYTN","A1K8QNLYYYX21W","31YWE12TE0YV78PCVO9WO2QLDWO7XY","","null","<img src=""img/food1.png"" style=""width:200px; border:14px solid green;"">","null","","","","","","","","","",""
"","image-keyboard-response","260","101821","0.0-298.0","3HVVDCPGTFE9RVAN4P311VL0CAEYTN","A1K8QNLYYYX21W","31YWE12TE0YV78PCVO9WO2QLDWO7XY","","815.2000002861023","img/food1.png","75","819.2999997138977","2","0","1","2","1,0.5,0,1,0.5,0,0.5,0,1","0.5,0,1,0.5,0,1,0,1,0.5","2","false",""
"","html-keyboard-response","261","102132","0.0-299.0","3HVVDCPGTFE9RVAN4P311VL0CAEYTN","A1K8QNLYYYX21W","31YWE12TE0YV78PCVO9WO2QLDWO7XY","","null","<img src=""img/food1.png"" style=""width:200px;border:14px solid red;"">","null","","","","","","","","","",""
"","image-keyboard-response","262","102532","0.0-301.0","3HVVDCPGTFE9RVAN4P311VL0CAEYTN","A1K8QNLYYYX21W","31YWE12TE0YV78PCVO9WO2QLDWO7XY","","392.40000009536743","img/food1.png","75","396.80000019073486","2","0","1","2","1,0.5,0,1,0.5,0,0.5,0,1","0.5,0,1,0.5,0,1,0,1,0.5","2","false",""
"","html-keyboard-response","263","102839","0.0-302.0","3HVVDCPGTFE9RVAN4P311VL0CAEYTN","A1K8QNLYYYX21W","31YWE12TE0YV78PCVO9WO2QLDWO7XY","","null","<img src=""img/food1.png"" style=""width:200px;border:14px solid red;"">","null","","","","","","","","","",""
"","image-keyboard-response","264","103324","0.0-304.0","3HVVDCPGTFE9RVAN4P311VL0CAEYTN","A1K8QNLYYYX21W","31YWE12TE0YV78PCVO9WO2QLDWO7XY","","477.5","img/food2.png","76","482.09999990463257","3","1","3","2","1,0.5,0,1,0.5,0,0.5,0,1","0.5,0,1,0.5,0,1,0,1,0.5","2","false",""
"","html-keyboard-response","265","103629","0.0-305.0","3HVVDCPGTFE9RVAN4P311VL0CAEYTN","A1K8QNLYYYX21W","31YWE12TE0YV78PCVO9WO2QLDWO7XY","","null","<img src=""img/food2.png"" style=""width:200px; border:14px solid green;"">","null","","","","","","","","","",""
"","image-keyboard-response","266","104427","0.0-307.0","3HVVDCPGTFE9RVAN4P311VL0CAEYTN","A1K8QNLYYYX21W","31YWE12TE0YV78PCVO9WO2QLDWO7XY","","790.7000002861023","img/food1.png","76","795.6999998092651","3","1","1","2","1,0.5,0,1,0.5,0,0.5,0,1","0.5,0,1,0.5,0,1,0,1,0.5","2","false",""
"","html-keyboard-response","267","104737","0.0-308.0","3HVVDCPGTFE9RVAN4P311VL0CAEYTN","A1K8QNLYYYX21W","31YWE12TE0YV78PCVO9WO2QLDWO7XY","","null","<img src=""img/food1.png"" style=""width:200px; border:14px solid green;"">","null","","","","","","","","","",""
"","image-keyboard-response","268","105117","0.0-310.0","3HVVDCPGTFE9RVAN4P311VL0CAEYTN","A1K8QNLYYYX21W","31YWE12TE0YV78PCVO9WO2QLDWO7XY","","371.80000019073486","img/food1.png","74","376.7999997138977","1","0","1","2","1,0.5,0,1,0.5,0,0.5,0,1","0.5,0,1,0.5,0,1,0,1,0.5","2","false",""
"","html-keyboard-response","269","105427","0.0-311.0","3HVVDCPGTFE9RVAN4P311VL0CAEYTN","A1K8QNLYYYX21W","31YWE12TE0YV78PCVO9WO2QLDWO7XY","","null","<img src=""img/food1.png"" style=""width:200px;border:14px solid red;"">","null","","","","","","","","","",""
"","image-keyboard-response","270","106434","0.0-313.0","3HVVDCPGTFE9RVAN4P311VL0CAEYTN","A1K8QNLYYYX21W","31YWE12TE0YV78PCVO9WO2QLDWO7XY","","","img/food1.png","","1005.6000003814697","-1","0","1","2","1,0.5,0,1,0.5,0,0.5,0,1","0.5,0,1,0.5,0,1,0,1,0.5","2","true",""
"","html-keyboard-response","271","106745","0.0-314.0","3HVVDCPGTFE9RVAN4P311VL0CAEYTN","A1K8QNLYYYX21W","31YWE12TE0YV78PCVO9WO2QLDWO7XY","","null","<img src=""img/food1.png"" style=""width:200px;border:14px solid red;"">","null","","","","","","","","","",""
"","html-keyboard-response","272","130926","0.0-315.0-0.0","3HVVDCPGTFE9RVAN4P311VL0CAEYTN","A1K8QNLYYYX21W","31YWE12TE0YV78PCVO9WO2QLDWO7XY","","","","","","","","","","","","","",""
"","image-keyboard-response","273","131176","0.0-316.0","3HVVDCPGTFE9RVAN4P311VL0CAEYTN","A1K8QNLYYYX21W","31YWE12TE0YV78PCVO9WO2QLDWO7XY","","243.80000019073486","img/food2.png","75","249.69999980926514","2","1","3","2","1,0.5,0,1,0.5,0,0.5,0,1","0.5,0,1,0.5,0,1,0,1,0.5","2","false",""
"","html-keyboard-response","274","131489","0.0-317.0","3HVVDCPGTFE9RVAN4P311VL0CAEYTN","A1K8QNLYYYX21W","31YWE12TE0YV78PCVO9WO2QLDWO7XY","","null","<img src=""img/food2.png"" style=""width:200px; border:14px solid green;"">","null","","","","","","","","","",""
"","image-keyboard-response","275","131702","0.0-319.0","3HVVDCPGTFE9RVAN4P311VL0CAEYTN","A1K8QNLYYYX21W","31YWE12TE0YV78PCVO9WO2QLDWO7XY","","205.5","img/food2.png","76","209.60000038146973","3","1","3","2","1,0.5,0,1,0.5,0,0.5,0,1","0.5,0,1,0.5,0,1,0,1,0.5","2","false",""
"","html-keyboard-response","276","132008","0.0-320.0","3HVVDCPGTFE9RVAN4P311VL0CAEYTN","A1K8QNLYYYX21W","31YWE12TE0YV78PCVO9WO2QLDWO7XY","","null","<img src=""img/food2.png"" style=""width:200px; border:14px solid green;"">","null","","","","","","","","","",""
"","image-keyboard-response","277","132075","0.0-322.0","3HVVDCPGTFE9RVAN4P311VL0CAEYTN","A1K8QNLYYYX21W","31YWE12TE0YV78PCVO9WO2QLDWO7XY","","58.69999980926514","img/food1.png","75","64.40000009536743","2","0","1","2","1,0.5,0,1,0.5,0,0.5,0,1","0.5,0,1,0.5,0,1,0,1,0.5","2","false",""
"","html-keyboard-response","278","132382","0.0-323.0","3HVVDCPGTFE9RVAN4P311VL0CAEYTN","A1K8QNLYYYX21W","31YWE12TE0YV78PCVO9WO2QLDWO7XY","","null","<img src=""img/food1.png"" style=""width:200px;border:14px solid red;"">","null","","","","","","","","","",""
"","image-keyboard-response","279","132390","0.0-325.0","3HVVDCPGTFE9RVAN4P311VL0CAEYTN","A1K8QNLYYYX21W","31YWE12TE0YV78PCVO9WO2QLDWO7XY","","4.900000095367432","img/food1.png","76","7.200000286102295","3","1","1","2","1,0.5,0,1,0.5,0,0.5,0,1","0.5,0,1,0.5,0,1,0,1,0.5","2","false",""
"","html-keyboard-response","280","132697","0.0-326.0","3HVVDCPGTFE9RVAN4P311VL0CAEYTN","A1K8QNLYYYX21W","31YWE12TE0YV78PCVO9WO2QLDWO7XY","","null","<img src=""img/food1.png"" style=""width:200px; border:14px solid green;"">","null","","","","","","","","","",""
"","image-keyboard-response","281","132719","0.0-328.0","3HVVDCPGTFE9RVAN4P311VL0CAEYTN","A1K8QNLYYYX21W","31YWE12TE0YV78PCVO9WO2QLDWO7XY","","17.5","img/food2.png","74","20.299999713897705","1","0","3","2","1,0.5,0,1,0.5,0,0.5,0,1","0.5,0,1,0.5,0,1,0,1,0.5","2","false",""
"","html-keyboard-response","282","133025","0.0-329.0","3HVVDCPGTFE9RVAN4P311VL0CAEYTN","A1K8QNLYYYX21W","31YWE12TE0YV78PCVO9WO2QLDWO7XY","","null","<img src=""img/food2.png"" style=""width:200px;border:14px solid red;"">","null","","","","","","","","","",""
"","image-keyboard-response","283","133135","0.0-331.0","3HVVDCPGTFE9RVAN4P311VL0CAEYTN","A1K8QNLYYYX21W","31YWE12TE0YV78PCVO9WO2QLDWO7XY","","101.69999980926514","img/food3.png","74","108.69999980926514","1","1","2","2","1,0.5,0,1,0.5,0,0.5,0,1","0.5,0,1,0.5,0,1,0,1,0.5","2","false",""
"","html-keyboard-response","284","133444","0.0-332.0","3HVVDCPGTFE9RVAN4P311VL0CAEYTN","A1K8QNLYYYX21W","31YWE12TE0YV78PCVO9WO2QLDWO7XY","","null","<img src=""img/food3.png"" style=""width:200px; border:14px solid green;"">","null","","","","","","","","","",""
"","image-keyboard-response","285","133523","0.0-334.0","3HVVDCPGTFE9RVAN4P311VL0CAEYTN","A1K8QNLYYYX21W","31YWE12TE0YV78PCVO9WO2QLDWO7XY","","73.10000038146973","img/food3.png","75","76.2999997138977","2","0","2","2","1,0.5,0,1,0.5,0,0.5,0,1","0.5,0,1,0.5,0,1,0,1,0.5","2","false",""
"","html-keyboard-response","286","133828","0.0-335.0","3HVVDCPGTFE9RVAN4P311VL0CAEYTN","A1K8QNLYYYX21W","31YWE12TE0YV78PCVO9WO2QLDWO7XY","","null","<img src=""img/food3.png"" style=""width:200px;border:14px solid red;"">","null","","","","","","","","","",""
"","image-keyboard-response","287","133918","0.0-337.0","3HVVDCPGTFE9RVAN4P311VL0CAEYTN","A1K8QNLYYYX21W","31YWE12TE0YV78PCVO9WO2QLDWO7XY","","77.59999990463257","img/food2.png","74","87.2999997138977","1","0","3","2","1,0.5,0,1,0.5,0,0.5,0,1","0.5,0,1,0.5,0,1,0,1,0.5","2","false",""
"","html-keyboard-response","288","134229","0.0-338.0","3HVVDCPGTFE9RVAN4P311VL0CAEYTN","A1K8QNLYYYX21W","31YWE12TE0YV78PCVO9WO2QLDWO7XY","","null","<img src=""img/food2.png"" style=""width:200px;border:14px solid red;"">","null","","","","","","","","","",""
"","image-keyboard-response","289","134421","0.0-340.0","3HVVDCPGTFE9RVAN4P311VL0CAEYTN","A1K8QNLYYYX21W","31YWE12TE0YV78PCVO9WO2QLDWO7XY","","183","img/food1.png","76","189.2000002861023","3","1","1","2","1,0.5,0,1,0.5,0,0.5,0,1","0.5,0,1,0.5,0,1,0,1,0.5","2","false",""
"","html-keyboard-response","290","134731","0.0-341.0","3HVVDCPGTFE9RVAN4P311VL0CAEYTN","A1K8QNLYYYX21W","31YWE12TE0YV78PCVO9WO2QLDWO7XY","","null","<img src=""img/food1.png"" style=""width:200px; border:14px solid green;"">","null","","","","","","","","","",""
"","image-keyboard-response","291","134846","0.0-343.0","3HVVDCPGTFE9RVAN4P311VL0CAEYTN","A1K8QNLYYYX21W","31YWE12TE0YV78PCVO9WO2QLDWO7XY","","105.59999990463257","img/food3.png","76","112.90000009536743","3","1","2","2","1,0.5,0,1,0.5,0,0.5,0,1","0.5,0,1,0.5,0,1,0,1,0.5","2","false",""
"","html-keyboard-response","292","135155","0.0-344.0","3HVVDCPGTFE9RVAN4P311VL0CAEYTN","A1K8QNLYYYX21W","31YWE12TE0YV78PCVO9WO2QLDWO7XY","","null","<img src=""img/food3.png"" style=""width:200px; border:14px solid green;"">","null","","","","","","","","","",""
"","image-keyboard-response","293","135386","0.0-346.0","3HVVDCPGTFE9RVAN4P311VL0CAEYTN","A1K8QNLYYYX21W","31YWE12TE0YV78PCVO9WO2QLDWO7XY","","223.5","img/food2.png","75","228.80000019073486","2","1","3","2","1,0.5,0,1,0.5,0,0.5,0,1","0.5,0,1,0.5,0,1,0,1,0.5","2","false",""
"","html-keyboard-response","294","135692","0.0-347.0","3HVVDCPGTFE9RVAN4P311VL0CAEYTN","A1K8QNLYYYX21W","31YWE12TE0YV78PCVO9WO2QLDWO7XY","","null","<img src=""img/food2.png"" style=""width:200px; border:14px solid green;"">","null","","","","","","","","","",""
"","image-keyboard-response","295","135798","0.0-349.0","3HVVDCPGTFE9RVAN4P311VL0CAEYTN","A1K8QNLYYYX21W","31YWE12TE0YV78PCVO9WO2QLDWO7XY","","97.2000002861023","img/food2.png","74","102.5","1","0","3","2","1,0.5,0,1,0.5,0,0.5,0,1","0.5,0,1,0.5,0,1,0,1,0.5","2","false",""
"","html-keyboard-response","296","136108","0.0-350.0","3HVVDCPGTFE9RVAN4P311VL0CAEYTN","A1K8QNLYYYX21W","31YWE12TE0YV78PCVO9WO2QLDWO7XY","","null","<img src=""img/food2.png"" style=""width:200px;border:14px solid red;"">","null","","","","","","","","","",""
"","image-keyboard-response","297","136147","0.0-352.0","3HVVDCPGTFE9RVAN4P311VL0CAEYTN","A1K8QNLYYYX21W","31YWE12TE0YV78PCVO9WO2QLDWO7XY","","31.199999809265137","img/food2.png","75","35.5","2","1","3","2","1,0.5,0,1,0.5,0,0.5,0,1","0.5,0,1,0.5,0,1,0,1,0.5","2","false",""
"","html-keyboard-response","298","136451","0.0-353.0","3HVVDCPGTFE9RVAN4P311VL0CAEYTN","A1K8QNLYYYX21W","31YWE12TE0YV78PCVO9WO2QLDWO7XY","","null","<img src=""img/food2.png"" style=""width:200px; border:14px solid green;"">","null","","","","","","","","","",""
"","image-keyboard-response","299","136540","0.0-355.0","3HVVDCPGTFE9RVAN4P311VL0CAEYTN","A1K8QNLYYYX21W","31YWE12TE0YV78PCVO9WO2QLDWO7XY","","84.19999980926514","img/food1.png","74","87.09999990463257","1","0","1","2","1,0.5,0,1,0.5,0,0.5,0,1","0.5,0,1,0.5,0,1,0,1,0.5","2","false",""
"","html-keyboard-response","300","136846","0.0-356.0","3HVVDCPGTFE9RVAN4P311VL0CAEYTN","A1K8QNLYYYX21W","31YWE12TE0YV78PCVO9WO2QLDWO7XY","","null","<img src=""img/food1.png"" style=""width:200px;border:14px solid red;"">","null","","","","","","","","","",""
"","image-keyboard-response","301","136909","0.0-358.0","3HVVDCPGTFE9RVAN4P311VL0CAEYTN","A1K8QNLYYYX21W","31YWE12TE0YV78PCVO9WO2QLDWO7XY","","54.700000286102295","img/food1.png","76","61.40000009536743","3","1","1","2","1,0.5,0,1,0.5,0,0.5,0,1","0.5,0,1,0.5,0,1,0,1,0.5","2","false",""
"","html-keyboard-response","302","137216","0.0-359.0","3HVVDCPGTFE9RVAN4P311VL0CAEYTN","A1K8QNLYYYX21W","31YWE12TE0YV78PCVO9WO2QLDWO7XY","","null","<img src=""img/food1.png"" style=""width:200px; border:14px solid green;"">","null","","","","","","","","","",""
"","image-keyboard-response","303","137317","0.0-361.0","3HVVDCPGTFE9RVAN4P311VL0CAEYTN","A1K8QNLYYYX21W","31YWE12TE0YV78PCVO9WO2QLDWO7XY","","94","img/food2.png","75","98.40000009536743","2","1","3","2","1,0.5,0,1,0.5,0,0.5,0,1","0.5,0,1,0.5,0,1,0,1,0.5","2","false",""
"","html-keyboard-response","304","137623","0.0-362.0","3HVVDCPGTFE9RVAN4P311VL0CAEYTN","A1K8QNLYYYX21W","31YWE12TE0YV78PCVO9WO2QLDWO7XY","","null","<img src=""img/food2.png"" style=""width:200px; border:14px solid green;"">","null","","","","","","","","","",""
"","image-keyboard-response","305","137671","0.0-364.0","3HVVDCPGTFE9RVAN4P311VL0CAEYTN","A1K8QNLYYYX21W","31YWE12TE0YV78PCVO9WO2QLDWO7XY","","39.09999990463257","img/food3.png","75","43.90000009536743","2","0","2","2","1,0.5,0,1,0.5,0,0.5,0,1","0.5,0,1,0.5,0,1,0,1,0.5","2","false",""
"","html-keyboard-response","306","137979","0.0-365.0","3HVVDCPGTFE9RVAN4P311VL0CAEYTN","A1K8QNLYYYX21W","31YWE12TE0YV78PCVO9WO2QLDWO7XY","","null","<img src=""img/food3.png"" style=""width:200px;border:14px solid red;"">","null","","","","","","","","","",""
"","image-keyboard-response","307","138030","0.0-367.0","3HVVDCPGTFE9RVAN4P311VL0CAEYTN","A1K8QNLYYYX21W","31YWE12TE0YV78PCVO9WO2QLDWO7XY","","44.40000009536743","img/food3.png","75","49.19999980926514","2","0","2","2","1,0.5,0,1,0.5,0,0.5,0,1","0.5,0,1,0.5,0,1,0,1,0.5","2","false",""
"","html-keyboard-response","308","138336","0.0-368.0","3HVVDCPGTFE9RVAN4P311VL0CAEYTN","A1K8QNLYYYX21W","31YWE12TE0YV78PCVO9WO2QLDWO7XY","","null","<img src=""img/food3.png"" style=""width:200px;border:14px solid red;"">","null","","","","","","","","","",""
"","image-keyboard-response","309","138444","0.0-370.0","3HVVDCPGTFE9RVAN4P311VL0CAEYTN","A1K8QNLYYYX21W","31YWE12TE0YV78PCVO9WO2QLDWO7XY","","104.40000009536743","img/food2.png","75","107.19999980926514","2","1","3","2","1,0.5,0,1,0.5,0,0.5,0,1","0.5,0,1,0.5,0,1,0,1,0.5","2","false",""
"","html-keyboard-response","310","138754","0.0-371.0","3HVVDCPGTFE9RVAN4P311VL0CAEYTN","A1K8QNLYYYX21W","31YWE12TE0YV78PCVO9WO2QLDWO7XY","","null","<img src=""img/food2.png"" style=""width:200px; border:14px solid green;"">","null","","","","","","","","","",""
"","image-keyboard-response","311","138807","0.0-373.0","3HVVDCPGTFE9RVAN4P311VL0CAEYTN","A1K8QNLYYYX21W","31YWE12TE0YV78PCVO9WO2QLDWO7XY","","45.30000019073486","img/food2.png","75","50.30000019073486","2","1","3","2","1,0.5,0,1,0.5,0,0.5,0,1","0.5,0,1,0.5,0,1,0,1,0.5","2","false",""
"","html-keyboard-response","312","139115","0.0-374.0","3HVVDCPGTFE9RVAN4P311VL0CAEYTN","A1K8QNLYYYX21W","31YWE12TE0YV78PCVO9WO2QLDWO7XY","","null","<img src=""img/food2.png"" style=""width:200px; border:14px solid green;"">","null","","","","","","","","","",""
"","image-keyboard-response","313","139184","0.0-376.0","3HVVDCPGTFE9RVAN4P311VL0CAEYTN","A1K8QNLYYYX21W","31YWE12TE0YV78PCVO9WO2QLDWO7XY","","55.700000286102295","img/food1.png","76","64.40000009536743","3","1","1","2","1,0.5,0,1,0.5,0,0.5,0,1","0.5,0,1,0.5,0,1,0,1,0.5","2","false",""
"","html-keyboard-response","314","139491","0.0-377.0","3HVVDCPGTFE9RVAN4P311VL0CAEYTN","A1K8QNLYYYX21W","31YWE12TE0YV78PCVO9WO2QLDWO7XY","","null","<img src=""img/food1.png"" style=""width:200px; border:14px solid green;"">","null","","","","","","","","","",""
"","image-keyboard-response","315","139570","0.0-379.0","3HVVDCPGTFE9RVAN4P311VL0CAEYTN","A1K8QNLYYYX21W","31YWE12TE0YV78PCVO9WO2QLDWO7XY","","70.69999980926514","img/food2.png","76","74.7999997138977","3","1","3","2","1,0.5,0,1,0.5,0,0.5,0,1","0.5,0,1,0.5,0,1,0,1,0.5","2","false",""
"","html-keyboard-response","316","139876","0.0-380.0","3HVVDCPGTFE9RVAN4P311VL0CAEYTN","A1K8QNLYYYX21W","31YWE12TE0YV78PCVO9WO2QLDWO7XY","","null","<img src=""img/food2.png"" style=""width:200px; border:14px solid green;"">","null","","","","","","","","","",""
"","image-keyboard-response","317","139953","0.0-382.0","3HVVDCPGTFE9RVAN4P311VL0CAEYTN","A1K8QNLYYYX21W","31YWE12TE0YV78PCVO9WO2QLDWO7XY","","68.10000038146973","img/food3.png","76","74.2000002861023","3","1","2","2","1,0.5,0,1,0.5,0,0.5,0,1","0.5,0,1,0.5,0,1,0,1,0.5","2","false",""
"","html-keyboard-response","318","140264","0.0-383.0","3HVVDCPGTFE9RVAN4P311VL0CAEYTN","A1K8QNLYYYX21W","31YWE12TE0YV78PCVO9WO2QLDWO7XY","","null","<img src=""img/food3.png"" style=""width:200px; border:14px solid green;"">","null","","","","","","","","","",""
"","image-keyboard-response","319","140446","0.0-385.0","3HVVDCPGTFE9RVAN4P311VL0CAEYTN","A1K8QNLYYYX21W","31YWE12TE0YV78PCVO9WO2QLDWO7XY","","174.7000002861023","img/food3.png","75","180.09999990463257","2","0","2","2","1,0.5,0,1,0.5,0,0.5,0,1","0.5,0,1,0.5,0,1,0,1,0.5","2","false",""
"","html-keyboard-response","320","140754","0.0-386.0","3HVVDCPGTFE9RVAN4P311VL0CAEYTN","A1K8QNLYYYX21W","31YWE12TE0YV78PCVO9WO2QLDWO7XY","","null","<img src=""img/food3.png"" style=""width:200px;border:14px solid red;"">","null","","","","","","","","","",""
"","image-keyboard-response","321","140836","0.0-388.0","3HVVDCPGTFE9RVAN4P311VL0CAEYTN","A1K8QNLYYYX21W","31YWE12TE0YV78PCVO9WO2QLDWO7XY","","73.2999997138977","img/food1.png","75","78.69999980926514","2","0","1","2","1,0.5,0,1,0.5,0,0.5,0,1","0.5,0,1,0.5,0,1,0,1,0.5","2","false",""
"","html-keyboard-response","322","141146","0.0-389.0","3HVVDCPGTFE9RVAN4P311VL0CAEYTN","A1K8QNLYYYX21W","31YWE12TE0YV78PCVO9WO2QLDWO7XY","","null","<img src=""img/food1.png"" style=""width:200px;border:14px solid red;"">","null","","","","","","","","","",""
"","image-keyboard-response","323","141239","0.0-391.0","3HVVDCPGTFE9RVAN4P311VL0CAEYTN","A1K8QNLYYYX21W","31YWE12TE0YV78PCVO9WO2QLDWO7XY","","89.19999980926514","img/food3.png","75","92.40000009536743","2","0","2","2","1,0.5,0,1,0.5,0,0.5,0,1","0.5,0,1,0.5,0,1,0,1,0.5","2","false",""
"","html-keyboard-response","324","141546","0.0-392.0","3HVVDCPGTFE9RVAN4P311VL0CAEYTN","A1K8QNLYYYX21W","31YWE12TE0YV78PCVO9WO2QLDWO7XY","","null","<img src=""img/food3.png"" style=""width:200px;border:14px solid red;"">","null","","","","","","","","","",""
"","image-keyboard-response","325","141782","0.0-394.0","3HVVDCPGTFE9RVAN4P311VL0CAEYTN","A1K8QNLYYYX21W","31YWE12TE0YV78PCVO9WO2QLDWO7XY","","230.5","img/food3.png","75","233.90000009536743","2","0","2","2","1,0.5,0,1,0.5,0,0.5,0,1","0.5,0,1,0.5,0,1,0,1,0.5","2","false",""
"","html-keyboard-response","326","142095","0.0-395.0","3HVVDCPGTFE9RVAN4P311VL0CAEYTN","A1K8QNLYYYX21W","31YWE12TE0YV78PCVO9WO2QLDWO7XY","","null","<img src=""img/food3.png"" style=""width:200px;border:14px solid red;"">","null","","","","","","","","","",""
"","image-keyboard-response","327","142340","0.0-397.0","3HVVDCPGTFE9RVAN4P311VL0CAEYTN","A1K8QNLYYYX21W","31YWE12TE0YV78PCVO9WO2QLDWO7XY","","235.80000019073486","img/food2.png","75","240","2","1","3","2","1,0.5,0,1,0.5,0,0.5,0,1","0.5,0,1,0.5,0,1,0,1,0.5","2","false",""
"","html-keyboard-response","328","142661","0.0-398.0","3HVVDCPGTFE9RVAN4P311VL0CAEYTN","A1K8QNLYYYX21W","31YWE12TE0YV78PCVO9WO2QLDWO7XY","","null","<img src=""img/food2.png"" style=""width:200px; border:14px solid green;"">","null","","","","","","","","","",""
"","image-keyboard-response","329","142696","0.0-400.0","3HVVDCPGTFE9RVAN4P311VL0CAEYTN","A1K8QNLYYYX21W","31YWE12TE0YV78PCVO9WO2QLDWO7XY","","27.699999809265137","img/food1.png","75","32.799999713897705","2","0","1","2","1,0.5,0,1,0.5,0,0.5,0,1","0.5,0,1,0.5,0,1,0,1,0.5","2","false",""
"","html-keyboard-response","330","143005","0.0-401.0","3HVVDCPGTFE9RVAN4P311VL0CAEYTN","A1K8QNLYYYX21W","31YWE12TE0YV78PCVO9WO2QLDWO7XY","","null","<img src=""img/food1.png"" style=""width:200px;border:14px solid red;"">","null","","","","","","","","","",""
"","image-keyboard-response","331","143169","0.0-403.0","3HVVDCPGTFE9RVAN4P311VL0CAEYTN","A1K8QNLYYYX21W","31YWE12TE0YV78PCVO9WO2QLDWO7XY","","157.90000009536743","img/food2.png","75","162.2000002861023","2","1","3","2","1,0.5,0,1,0.5,0,0.5,0,1","0.5,0,1,0.5,0,1,0,1,0.5","2","false",""
"","html-keyboard-response","332","143480","0.0-404.0","3HVVDCPGTFE9RVAN4P311VL0CAEYTN","A1K8QNLYYYX21W","31YWE12TE0YV78PCVO9WO2QLDWO7XY","","null","<img src=""img/food2.png"" style=""width:200px; border:14px solid green;"">","null","","","","","","","","","",""
"","image-keyboard-response","333","143571","0.0-406.0","3HVVDCPGTFE9RVAN4P311VL0CAEYTN","A1K8QNLYYYX21W","31YWE12TE0YV78PCVO9WO2QLDWO7XY","","80.59999990463257","img/food3.png","75","86.80000019073486","2","0","2","2","1,0.5,0,1,0.5,0,0.5,0,1","0.5,0,1,0.5,0,1,0,1,0.5","2","false",""
"","html-keyboard-response","334","143879","0.0-407.0","3HVVDCPGTFE9RVAN4P311VL0CAEYTN","A1K8QNLYYYX21W","31YWE12TE0YV78PCVO9WO2QLDWO7XY","","null","<img src=""img/food3.png"" style=""width:200px;border:14px solid red;"">","null","","","","","","","","","",""
"","image-keyboard-response","335","144062","0.0-409.0","3HVVDCPGTFE9RVAN4P311VL0CAEYTN","A1K8QNLYYYX21W","31YWE12TE0YV78PCVO9WO2QLDWO7XY","","178","img/food2.png","75","181.5","2","1","3","2","1,0.5,0,1,0.5,0,0.5,0,1","0.5,0,1,0.5,0,1,0,1,0.5","2","false",""
"","html-keyboard-response","336","144373","0.0-410.0","3HVVDCPGTFE9RVAN4P311VL0CAEYTN","A1K8QNLYYYX21W","31YWE12TE0YV78PCVO9WO2QLDWO7XY","","null","<img src=""img/food2.png"" style=""width:200px; border:14px solid green;"">","null","","","","","","","","","",""
"","image-keyboard-response","337","144466","0.0-412.0","3HVVDCPGTFE9RVAN4P311VL0CAEYTN","A1K8QNLYYYX21W","31YWE12TE0YV78PCVO9WO2QLDWO7XY","","87.40000009536743","img/food2.png","76","91.40000009536743","3","1","3","2","1,0.5,0,1,0.5,0,0.5,0,1","0.5,0,1,0.5,0,1,0,1,0.5","2","false",""
"","html-keyboard-response","338","144778","0.0-413.0","3HVVDCPGTFE9RVAN4P311VL0CAEYTN","A1K8QNLYYYX21W","31YWE12TE0YV78PCVO9WO2QLDWO7XY","","null","<img src=""img/food2.png"" style=""width:200px; border:14px solid green;"">","null","","","","","","","","","",""
"","image-keyboard-response","339","144950","0.0-415.0","3HVVDCPGTFE9RVAN4P311VL0CAEYTN","A1K8QNLYYYX21W","31YWE12TE0YV78PCVO9WO2QLDWO7XY","","162.5","img/food3.png","76","169.40000009536743","3","1","2","2","1,0.5,0,1,0.5,0,0.5,0,1","0.5,0,1,0.5,0,1,0,1,0.5","2","false",""
"","html-keyboard-response","340","145260","0.0-416.0","3HVVDCPGTFE9RVAN4P311VL0CAEYTN","A1K8QNLYYYX21W","31YWE12TE0YV78PCVO9WO2QLDWO7XY","","null","<img src=""img/food3.png"" style=""width:200px; border:14px solid green;"">","null","","","","","","","","","",""
"","image-keyboard-response","341","145332","0.0-418.0","3HVVDCPGTFE9RVAN4P311VL0CAEYTN","A1K8QNLYYYX21W","31YWE12TE0YV78PCVO9WO2QLDWO7XY","","66.69999980926514","img/food3.png","74","70.10000038146973","1","0","2","2","1,0.5,0,1,0.5,0,0.5,0,1","0.5,0,1,0.5,0,1,0,1,0.5","2","false",""
"","html-keyboard-response","342","145640","0.0-419.0","3HVVDCPGTFE9RVAN4P311VL0CAEYTN","A1K8QNLYYYX21W","31YWE12TE0YV78PCVO9WO2QLDWO7XY","","null","<img src=""img/food3.png"" style=""width:200px;border:14px solid red;"">","null","","","","","","","","","",""
"","image-keyboard-response","343","145668","0.0-421.0","3HVVDCPGTFE9RVAN4P311VL0CAEYTN","A1K8QNLYYYX21W","31YWE12TE0YV78PCVO9WO2QLDWO7XY","","23.59999990463257","img/food1.png","74","26.90000009536743","1","1","1","2","1,0.5,0,1,0.5,0,0.5,0,1","0.5,0,1,0.5,0,1,0,1,0.5","2","false",""
"","html-keyboard-response","344","145973","0.0-422.0","3HVVDCPGTFE9RVAN4P311VL0CAEYTN","A1K8QNLYYYX21W","31YWE12TE0YV78PCVO9WO2QLDWO7XY","","null","<img src=""img/food1.png"" style=""width:200px; border:14px solid green;"">","null","","","","","","","","","",""
"","image-keyboard-response","345","146240","0.0-424.0","3HVVDCPGTFE9RVAN4P311VL0CAEYTN","A1K8QNLYYYX21W","31YWE12TE0YV78PCVO9WO2QLDWO7XY","","257.30000019073486","img/food3.png","75","264.7000002861023","2","0","2","2","1,0.5,0,1,0.5,0,0.5,0,1","0.5,0,1,0.5,0,1,0,1,0.5","2","false",""
"","html-keyboard-response","346","146552","0.0-425.0","3HVVDCPGTFE9RVAN4P311VL0CAEYTN","A1K8QNLYYYX21W","31YWE12TE0YV78PCVO9WO2QLDWO7XY","","null","<img src=""img/food3.png"" style=""width:200px;border:14px solid red;"">","null","","","","","","","","","",""
"","image-keyboard-response","347","146575","0.0-427.0","3HVVDCPGTFE9RVAN4P311VL0CAEYTN","A1K8QNLYYYX21W","31YWE12TE0YV78PCVO9WO2QLDWO7XY","","18.800000190734863","img/food2.png","76","21.100000381469727","3","0","3","2","1,0.5,0,1,0.5,0,0.5,0,1","0.5,0,1,0.5,0,1,0,1,0.5","2","false",""
"","html-keyboard-response","348","146881","0.0-428.0","3HVVDCPGTFE9RVAN4P311VL0CAEYTN","A1K8QNLYYYX21W","31YWE12TE0YV78PCVO9WO2QLDWO7XY","","null","<img src=""img/food2.png"" style=""width:200px;border:14px solid red;"">","null","","","","","","","","","",""
"","image-keyboard-response","349","147068","0.0-430.0","3HVVDCPGTFE9RVAN4P311VL0CAEYTN","A1K8QNLYYYX21W","31YWE12TE0YV78PCVO9WO2QLDWO7XY","","177.90000009536743","img/food1.png","75","183.19999980926514","2","0","1","2","1,0.5,0,1,0.5,0,0.5,0,1","0.5,0,1,0.5,0,1,0,1,0.5","2","false",""
"","html-keyboard-response","350","147378","0.0-431.0","3HVVDCPGTFE9RVAN4P311VL0CAEYTN","A1K8QNLYYYX21W","31YWE12TE0YV78PCVO9WO2QLDWO7XY","","null","<img src=""img/food1.png"" style=""width:200px;border:14px solid red;"">","null","","","","","","","","","",""
"","image-keyboard-response","351","147535","0.0-433.0","3HVVDCPGTFE9RVAN4P311VL0CAEYTN","A1K8QNLYYYX21W","31YWE12TE0YV78PCVO9WO2QLDWO7XY","","152.90000009536743","img/food3.png","75","156","2","0","2","2","1,0.5,0,1,0.5,0,0.5,0,1","0.5,0,1,0.5,0,1,0,1,0.5","2","false",""
"","html-keyboard-response","352","147842","0.0-434.0","3HVVDCPGTFE9RVAN4P311VL0CAEYTN","A1K8QNLYYYX21W","31YWE12TE0YV78PCVO9WO2QLDWO7XY","","null","<img src=""img/food3.png"" style=""width:200px;border:14px solid red;"">","null","","","","","","","","","",""
"","image-keyboard-response","353","148058","0.0-436.0","3HVVDCPGTFE9RVAN4P311VL0CAEYTN","A1K8QNLYYYX21W","31YWE12TE0YV78PCVO9WO2QLDWO7XY","","205.80000019073486","img/food3.png","75","214.09999990463257","2","0","2","2","1,0.5,0,1,0.5,0,0.5,0,1","0.5,0,1,0.5,0,1,0,1,0.5","2","false",""
"","html-keyboard-response","354","148370","0.0-437.0","3HVVDCPGTFE9RVAN4P311VL0CAEYTN","A1K8QNLYYYX21W","31YWE12TE0YV78PCVO9WO2QLDWO7XY","","null","<img src=""img/food3.png"" style=""width:200px;border:14px solid red;"">","null","","","","","","","","","",""
"","image-keyboard-response","355","148506","0.0-439.0","3HVVDCPGTFE9RVAN4P311VL0CAEYTN","A1K8QNLYYYX21W","31YWE12TE0YV78PCVO9WO2QLDWO7XY","","131.69999980926514","img/food1.png","75","134","2","0","1","2","1,0.5,0,1,0.5,0,0.5,0,1","0.5,0,1,0.5,0,1,0,1,0.5","2","false",""
"","html-keyboard-response","356","148813","0.0-440.0","3HVVDCPGTFE9RVAN4P311VL0CAEYTN","A1K8QNLYYYX21W","31YWE12TE0YV78PCVO9WO2QLDWO7XY","","null","<img src=""img/food1.png"" style=""width:200px;border:14px solid red;"">","null","","","","","","","","","",""
"","image-keyboard-response","357","148937","0.0-442.0","3HVVDCPGTFE9RVAN4P311VL0CAEYTN","A1K8QNLYYYX21W","31YWE12TE0YV78PCVO9WO2QLDWO7XY","","115.09999990463257","img/food3.png","75","120.69999980926514","2","0","2","2","1,0.5,0,1,0.5,0,0.5,0,1","0.5,0,1,0.5,0,1,0,1,0.5","2","false",""
"","html-keyboard-response","358","149248","0.0-443.0","3HVVDCPGTFE9RVAN4P311VL0CAEYTN","A1K8QNLYYYX21W","31YWE12TE0YV78PCVO9WO2QLDWO7XY","","null","<img src=""img/food3.png"" style=""width:200px;border:14px solid red;"">","null","","","","","","","","","",""
"","image-keyboard-response","359","149367","0.0-445.0","3HVVDCPGTFE9RVAN4P311VL0CAEYTN","A1K8QNLYYYX21W","31YWE12TE0YV78PCVO9WO2QLDWO7XY","","109.7000002861023","img/food1.png","75","115.59999990463257","2","0","1","2","1,0.5,0,1,0.5,0,0.5,0,1","0.5,0,1,0.5,0,1,0,1,0.5","2","false",""
"","html-keyboard-response","360","149672","0.0-446.0","3HVVDCPGTFE9RVAN4P311VL0CAEYTN","A1K8QNLYYYX21W","31YWE12TE0YV78PCVO9WO2QLDWO7XY","","null","<img src=""img/food1.png"" style=""width:200px;border:14px solid red;"">","null","","","","","","","","","",""
"","image-keyboard-response","361","149789","0.0-448.0","3HVVDCPGTFE9RVAN4P311VL0CAEYTN","A1K8QNLYYYX21W","31YWE12TE0YV78PCVO9WO2QLDWO7XY","","107.2000002861023","img/food2.png","75","114.5","2","1","3","2","1,0.5,0,1,0.5,0,0.5,0,1","0.5,0,1,0.5,0,1,0,1,0.5","2","false",""
"","html-keyboard-response","362","150098","0.0-449.0","3HVVDCPGTFE9RVAN4P311VL0CAEYTN","A1K8QNLYYYX21W","31YWE12TE0YV78PCVO9WO2QLDWO7XY","","null","<img src=""img/food2.png"" style=""width:200px; border:14px solid green;"">","null","","","","","","","","","",""
"","image-keyboard-response","363","150253","0.0-451.0","3HVVDCPGTFE9RVAN4P311VL0CAEYTN","A1K8QNLYYYX21W","31YWE12TE0YV78PCVO9WO2QLDWO7XY","","147.19999980926514","img/food1.png","74","152.40000009536743","1","0","1","2","1,0.5,0,1,0.5,0,0.5,0,1","0.5,0,1,0.5,0,1,0,1,0.5","2","false",""
"","html-keyboard-response","364","150563","0.0-452.0","3HVVDCPGTFE9RVAN4P311VL0CAEYTN","A1K8QNLYYYX21W","31YWE12TE0YV78PCVO9WO2QLDWO7XY","","null","<img src=""img/food1.png"" style=""width:200px;border:14px solid red;"">","null","","","","","","","","","",""
"","instructions","365","152712","0.0-454.0","3HVVDCPGTFE9RVAN4P311VL0CAEYTN","A1K8QNLYYYX21W","31YWE12TE0YV78PCVO9WO2QLDWO7XY","[{""page_index"":0,""viewing_time"":2145.0999999046326}]","2146.199999809265","","","","","","","","","","","",""
"","survey-text","366","155802","0.0-455.0","3HVVDCPGTFE9RVAN4P311VL0CAEYTN","A1K8QNLYYYX21W","31YWE12TE0YV78PCVO9WO2QLDWO7XY","","3073.7000002861023","","","","","","","","","","","","{""Q0"":""A1K8QNLYYYX21W""}"
