"success","trial_type","trial_index","time_elapsed","internal_node_id","assignmentID","mturkID","hitID","view_history","rt","stimulus","key_press","reactionTime","a","r","s","cond","reward_cond","reward_cond_actual","reward_matrix_idx","warning","responses"
"true","fullscreen","0","8973","0.0-0.0","3TVRFO09GL1W8DC8QKF8WQ4AGWFLXS","A1KAOUCQHCB3WV","3SA4EMRVJVOCGON1OYE6FAUV3KKP05","","","","","","","","","","","","","",""
"","instructions","1","17977","0.0-1.0","3TVRFO09GL1W8DC8QKF8WQ4AGWFLXS","A1KAOUCQHCB3WV","3SA4EMRVJVOCGON1OYE6FAUV3KKP05","[{""page_index"":0,""viewing_time"":1543},{""page_index"":1,""viewing_time"":1751},{""page_index"":2,""viewing_time"":964},{""page_index"":3,""viewing_time"":1249},{""page_index"":4,""viewing_time"":1379},{""page_index"":5,""viewing_time"":938},{""page_index"":6,""viewing_time"":1173}]","8999","","","","","","","","","","","",""
"","image-keyboard-response","2","19624","0.0-2.0","3TVRFO09GL1W8DC8QKF8WQ4AGWFLXS","A1KAOUCQHCB3WV","3SA4EMRVJVOCGON1OYE6FAUV3KKP05","","1640","img/food2.png","75","1645","2","0","2","1","1,0.5,0,1,0.5,0,0.5,0,1","0.5,0,1,0.5,0,1,0,1,0.5","2","",""
"","html-keyboard-response","3","19928","0.0-3.0","3TVRFO09GL1W8DC8QKF8WQ4AGWFLXS","A1KAOUCQHCB3WV","3SA4EMRVJVOCGON1OYE6FAUV3KKP05","","null","<img src=""img/food2.png"" style=""width:200px;border:14px solid red;"">","null","","","","","","","","","",""
"","image-keyboard-response","4","19952","0.0-4.0","3TVRFO09GL1W8DC8QKF8WQ4AGWFLXS","A1KAOUCQHCB3WV","3SA4EMRVJVOCGON1OYE6FAUV3KKP05","","21","img/food2.png","76","23","3","1","2","1","1,0.5,0,1,0.5,0,0.5,0,1","0.5,0,1,0.5,0,1,0,1,0.5","2","",""
"","html-keyboard-response","5","20253","0.0-5.0","3TVRFO09GL1W8DC8QKF8WQ4AGWFLXS","A1KAOUCQHCB3WV","3SA4EMRVJVOCGON1OYE6FAUV3KKP05","","null","<img src=""img/food2.png"" style=""width:200px; border:14px solid green;"">","null","","","","","","","","","",""
"","image-keyboard-response","6","20274","0.0-6.0","3TVRFO09GL1W8DC8QKF8WQ4AGWFLXS","A1KAOUCQHCB3WV","3SA4EMRVJVOCGON1OYE6FAUV3KKP05","","18","img/food3.png","76","20","3","1","3","1","1,0.5,0,1,0.5,0,0.5,0,1","0.5,0,1,0.5,0,1,0,1,0.5","2","",""
"","html-keyboard-response","7","20578","0.0-7.0","3TVRFO09GL1W8DC8QKF8WQ4AGWFLXS","A1KAOUCQHCB3WV","3SA4EMRVJVOCGON1OYE6FAUV3KKP05","","null","<img src=""img/food3.png"" style=""width:200px; border:14px solid green;"">","null","","","","","","","","","",""
"","image-keyboard-response","8","20611","0.0-8.0","3TVRFO09GL1W8DC8QKF8WQ4AGWFLXS","A1KAOUCQHCB3WV","3SA4EMRVJVOCGON1OYE6FAUV3KKP05","","30","img/food3.png","76","32","3","0","3","1","1,0.5,0,1,0.5,0,0.5,0,1","0.5,0,1,0.5,0,1,0,1,0.5","2","",""
"","html-keyboard-response","9","20916","0.0-9.0","3TVRFO09GL1W8DC8QKF8WQ4AGWFLXS","A1KAOUCQHCB3WV","3SA4EMRVJVOCGON1OYE6FAUV3KKP05","","null","<img src=""img/food3.png"" style=""width:200px;border:14px solid red;"">","null","","","","","","","","","",""
"","image-keyboard-response","10","20962","0.0-10.0","3TVRFO09GL1W8DC8QKF8WQ4AGWFLXS","A1KAOUCQHCB3WV","3SA4EMRVJVOCGON1OYE6FAUV3KKP05","","44","img/food6.png","76","46","3","1","1","1","1,0.5,0,1,0.5,0,0.5,0,1","0.5,0,1,0.5,0,1,0,1,0.5","2","",""
"","html-keyboard-response","11","21265","0.0-11.0","3TVRFO09GL1W8DC8QKF8WQ4AGWFLXS","A1KAOUCQHCB3WV","3SA4EMRVJVOCGON1OYE6FAUV3KKP05","","null","<img src=""img/food6.png"" style=""width:200px; border:14px solid green;"">","null","","","","","","","","","",""
"","image-keyboard-response","12","21317","0.0-12.0","3TVRFO09GL1W8DC8QKF8WQ4AGWFLXS","A1KAOUCQHCB3WV","3SA4EMRVJVOCGON1OYE6FAUV3KKP05","","49","img/food3.png","76","51","3","0","3","1","1,0.5,0,1,0.5,0,0.5,0,1","0.5,0,1,0.5,0,1,0,1,0.5","2","",""
"","html-keyboard-response","13","21843","0.0-13.0","3TVRFO09GL1W8DC8QKF8WQ4AGWFLXS","A1KAOUCQHCB3WV","3SA4EMRVJVOCGON1OYE6FAUV3KKP05","","null","<img src=""img/food3.png"" style=""width:200px;border:14px solid red;"">","null","","","","","","","","","",""
"","image-keyboard-response","14","21851","0.0-14.0","3TVRFO09GL1W8DC8QKF8WQ4AGWFLXS","A1KAOUCQHCB3WV","3SA4EMRVJVOCGON1OYE6FAUV3KKP05","","6","img/food2.png","75","7","2","0","2","1","1,0.5,0,1,0.5,0,0.5,0,1","0.5,0,1,0.5,0,1,0,1,0.5","2","",""
"","html-keyboard-response","15","22153","0.0-15.0","3TVRFO09GL1W8DC8QKF8WQ4AGWFLXS","A1KAOUCQHCB3WV","3SA4EMRVJVOCGON1OYE6FAUV3KKP05","","null","<img src=""img/food2.png"" style=""width:200px;border:14px solid red;"">","null","","","","","","","","","",""
"","image-keyboard-response","16","22233","0.0-16.0","3TVRFO09GL1W8DC8QKF8WQ4AGWFLXS","A1KAOUCQHCB3WV","3SA4EMRVJVOCGON1OYE6FAUV3KKP05","","79","img/food3.png","75","79","2","1","3","1","1,0.5,0,1,0.5,0,0.5,0,1","0.5,0,1,0.5,0,1,0,1,0.5","2","",""
"","html-keyboard-response","17","22540","0.0-17.0","3TVRFO09GL1W8DC8QKF8WQ4AGWFLXS","A1KAOUCQHCB3WV","3SA4EMRVJVOCGON1OYE6FAUV3KKP05","","null","<img src=""img/food3.png"" style=""width:200px; border:14px solid green;"">","null","","","","","","","","","",""
"","image-keyboard-response","18","22592","0.0-18.0","3TVRFO09GL1W8DC8QKF8WQ4AGWFLXS","A1KAOUCQHCB3WV","3SA4EMRVJVOCGON1OYE6FAUV3KKP05","","49","img/food2.png","76","50","3","1","2","1","1,0.5,0,1,0.5,0,0.5,0,1","0.5,0,1,0.5,0,1,0,1,0.5","2","",""
"","html-keyboard-response","19","22894","0.0-19.0","3TVRFO09GL1W8DC8QKF8WQ4AGWFLXS","A1KAOUCQHCB3WV","3SA4EMRVJVOCGON1OYE6FAUV3KKP05","","null","<img src=""img/food2.png"" style=""width:200px; border:14px solid green;"">","null","","","","","","","","","",""
"","image-keyboard-response","20","22923","0.0-20.0","3TVRFO09GL1W8DC8QKF8WQ4AGWFLXS","A1KAOUCQHCB3WV","3SA4EMRVJVOCGON1OYE6FAUV3KKP05","","27","img/food3.png","75","28","2","1","3","1","1,0.5,0,1,0.5,0,0.5,0,1","0.5,0,1,0.5,0,1,0,1,0.5","2","",""
"","html-keyboard-response","21","23227","0.0-21.0","3TVRFO09GL1W8DC8QKF8WQ4AGWFLXS","A1KAOUCQHCB3WV","3SA4EMRVJVOCGON1OYE6FAUV3KKP05","","null","<img src=""img/food3.png"" style=""width:200px; border:14px solid green;"">","null","","","","","","","","","",""
"","image-keyboard-response","22","23292","0.0-22.0","3TVRFO09GL1W8DC8QKF8WQ4AGWFLXS","A1KAOUCQHCB3WV","3SA4EMRVJVOCGON1OYE6FAUV3KKP05","","63","img/food2.png","75","64","2","0","2","1","1,0.5,0,1,0.5,0,0.5,0,1","0.5,0,1,0.5,0,1,0,1,0.5","2","",""
"","html-keyboard-response","23","23594","0.0-23.0","3TVRFO09GL1W8DC8QKF8WQ4AGWFLXS","A1KAOUCQHCB3WV","3SA4EMRVJVOCGON1OYE6FAUV3KKP05","","null","<img src=""img/food2.png"" style=""width:200px;border:14px solid red;"">","null","","","","","","","","","",""
"","image-keyboard-response","24","23603","0.0-24.0","3TVRFO09GL1W8DC8QKF8WQ4AGWFLXS","A1KAOUCQHCB3WV","3SA4EMRVJVOCGON1OYE6FAUV3KKP05","","7","img/food6.png","75","8","2","0","1","1","1,0.5,0,1,0.5,0,0.5,0,1","0.5,0,1,0.5,0,1,0,1,0.5","2","",""
"","html-keyboard-response","25","23905","0.0-25.0","3TVRFO09GL1W8DC8QKF8WQ4AGWFLXS","A1KAOUCQHCB3WV","3SA4EMRVJVOCGON1OYE6FAUV3KKP05","","null","<img src=""img/food6.png"" style=""width:200px;border:14px solid red;"">","null","","","","","","","","","",""
"","image-keyboard-response","26","23922","0.0-26.0","3TVRFO09GL1W8DC8QKF8WQ4AGWFLXS","A1KAOUCQHCB3WV","3SA4EMRVJVOCGON1OYE6FAUV3KKP05","","16","img/food2.png","76","16","3","1","2","1","1,0.5,0,1,0.5,0,0.5,0,1","0.5,0,1,0.5,0,1,0,1,0.5","2","",""
"","html-keyboard-response","27","24304","0.0-27.0","3TVRFO09GL1W8DC8QKF8WQ4AGWFLXS","A1KAOUCQHCB3WV","3SA4EMRVJVOCGON1OYE6FAUV3KKP05","","null","<img src=""img/food2.png"" style=""width:200px; border:14px solid green;"">","null","","","","","","","","","",""
"","image-keyboard-response","28","24422","0.0-28.0","3TVRFO09GL1W8DC8QKF8WQ4AGWFLXS","A1KAOUCQHCB3WV","3SA4EMRVJVOCGON1OYE6FAUV3KKP05","","117","img/food6.png","76","118","3","1","1","1","1,0.5,0,1,0.5,0,0.5,0,1","0.5,0,1,0.5,0,1,0,1,0.5","2","",""
"","html-keyboard-response","29","24736","0.0-29.0","3TVRFO09GL1W8DC8QKF8WQ4AGWFLXS","A1KAOUCQHCB3WV","3SA4EMRVJVOCGON1OYE6FAUV3KKP05","","null","<img src=""img/food6.png"" style=""width:200px; border:14px solid green;"">","null","","","","","","","","","",""
"","image-keyboard-response","30","24887","0.0-30.0","3TVRFO09GL1W8DC8QKF8WQ4AGWFLXS","A1KAOUCQHCB3WV","3SA4EMRVJVOCGON1OYE6FAUV3KKP05","","148","img/food2.png","75","150","2","0","2","1","1,0.5,0,1,0.5,0,0.5,0,1","0.5,0,1,0.5,0,1,0,1,0.5","2","",""
"","html-keyboard-response","31","25189","0.0-31.0","3TVRFO09GL1W8DC8QKF8WQ4AGWFLXS","A1KAOUCQHCB3WV","3SA4EMRVJVOCGON1OYE6FAUV3KKP05","","null","<img src=""img/food2.png"" style=""width:200px;border:14px solid red;"">","null","","","","","","","","","",""
"","image-keyboard-response","32","25202","0.0-32.0","3TVRFO09GL1W8DC8QKF8WQ4AGWFLXS","A1KAOUCQHCB3WV","3SA4EMRVJVOCGON1OYE6FAUV3KKP05","","12","img/food6.png","75","12","2","0","1","1","1,0.5,0,1,0.5,0,0.5,0,1","0.5,0,1,0.5,0,1,0,1,0.5","2","",""
"","html-keyboard-response","33","25509","0.0-33.0","3TVRFO09GL1W8DC8QKF8WQ4AGWFLXS","A1KAOUCQHCB3WV","3SA4EMRVJVOCGON1OYE6FAUV3KKP05","","null","<img src=""img/food6.png"" style=""width:200px;border:14px solid red;"">","null","","","","","","","","","",""
"","image-keyboard-response","34","25564","0.0-34.0","3TVRFO09GL1W8DC8QKF8WQ4AGWFLXS","A1KAOUCQHCB3WV","3SA4EMRVJVOCGON1OYE6FAUV3KKP05","","46","img/food2.png","76","51","3","1","2","1","1,0.5,0,1,0.5,0,0.5,0,1","0.5,0,1,0.5,0,1,0,1,0.5","2","",""
"","html-keyboard-response","35","25867","0.0-35.0","3TVRFO09GL1W8DC8QKF8WQ4AGWFLXS","A1KAOUCQHCB3WV","3SA4EMRVJVOCGON1OYE6FAUV3KKP05","","null","<img src=""img/food2.png"" style=""width:200px; border:14px solid green;"">","null","","","","","","","","","",""
"","image-keyboard-response","36","25913","0.0-36.0","3TVRFO09GL1W8DC8QKF8WQ4AGWFLXS","A1KAOUCQHCB3WV","3SA4EMRVJVOCGON1OYE6FAUV3KKP05","","44","img/food6.png","76","46","3","1","1","1","1,0.5,0,1,0.5,0,0.5,0,1","0.5,0,1,0.5,0,1,0,1,0.5","2","",""
"","html-keyboard-response","37","26216","0.0-37.0","3TVRFO09GL1W8DC8QKF8WQ4AGWFLXS","A1KAOUCQHCB3WV","3SA4EMRVJVOCGON1OYE6FAUV3KKP05","","null","<img src=""img/food6.png"" style=""width:200px; border:14px solid green;"">","null","","","","","","","","","",""
"","image-keyboard-response","38","26294","0.0-38.0","3TVRFO09GL1W8DC8QKF8WQ4AGWFLXS","A1KAOUCQHCB3WV","3SA4EMRVJVOCGON1OYE6FAUV3KKP05","","76","img/food2.png","76","78","3","1","2","1","1,0.5,0,1,0.5,0,0.5,0,1","0.5,0,1,0.5,0,1,0,1,0.5","2","",""
"","html-keyboard-response","39","26597","0.0-39.0","3TVRFO09GL1W8DC8QKF8WQ4AGWFLXS","A1KAOUCQHCB3WV","3SA4EMRVJVOCGON1OYE6FAUV3KKP05","","null","<img src=""img/food2.png"" style=""width:200px; border:14px solid green;"">","null","","","","","","","","","",""
"","image-keyboard-response","40","26712","0.0-40.0","3TVRFO09GL1W8DC8QKF8WQ4AGWFLXS","A1KAOUCQHCB3WV","3SA4EMRVJVOCGON1OYE6FAUV3KKP05","","113","img/food2.png","76","114","3","1","2","1","1,0.5,0,1,0.5,0,0.5,0,1","0.5,0,1,0.5,0,1,0,1,0.5","2","",""
"","html-keyboard-response","41","27020","0.0-41.0","3TVRFO09GL1W8DC8QKF8WQ4AGWFLXS","A1KAOUCQHCB3WV","3SA4EMRVJVOCGON1OYE6FAUV3KKP05","","null","<img src=""img/food2.png"" style=""width:200px; border:14px solid green;"">","null","","","","","","","","","",""
"","image-keyboard-response","42","27051","0.0-42.0","3TVRFO09GL1W8DC8QKF8WQ4AGWFLXS","A1KAOUCQHCB3WV","3SA4EMRVJVOCGON1OYE6FAUV3KKP05","","30","img/food3.png","75","30","2","1","3","1","1,0.5,0,1,0.5,0,0.5,0,1","0.5,0,1,0.5,0,1,0,1,0.5","2","",""
"","html-keyboard-response","43","27353","0.0-43.0","3TVRFO09GL1W8DC8QKF8WQ4AGWFLXS","A1KAOUCQHCB3WV","3SA4EMRVJVOCGON1OYE6FAUV3KKP05","","null","<img src=""img/food3.png"" style=""width:200px; border:14px solid green;"">","null","","","","","","","","","",""
"","image-keyboard-response","44","27472","0.0-44.0","3TVRFO09GL1W8DC8QKF8WQ4AGWFLXS","A1KAOUCQHCB3WV","3SA4EMRVJVOCGON1OYE6FAUV3KKP05","","116","img/food6.png","75","118","2","0","1","1","1,0.5,0,1,0.5,0,0.5,0,1","0.5,0,1,0.5,0,1,0,1,0.5","2","",""
"","html-keyboard-response","45","27774","0.0-45.0","3TVRFO09GL1W8DC8QKF8WQ4AGWFLXS","A1KAOUCQHCB3WV","3SA4EMRVJVOCGON1OYE6FAUV3KKP05","","null","<img src=""img/food6.png"" style=""width:200px;border:14px solid red;"">","null","","","","","","","","","",""
"","image-keyboard-response","46","27823","0.0-46.0","3TVRFO09GL1W8DC8QKF8WQ4AGWFLXS","A1KAOUCQHCB3WV","3SA4EMRVJVOCGON1OYE6FAUV3KKP05","","46","img/food6.png","75","48","2","0","1","1","1,0.5,0,1,0.5,0,0.5,0,1","0.5,0,1,0.5,0,1,0,1,0.5","2","",""
"","html-keyboard-response","47","28249","0.0-47.0","3TVRFO09GL1W8DC8QKF8WQ4AGWFLXS","A1KAOUCQHCB3WV","3SA4EMRVJVOCGON1OYE6FAUV3KKP05","","null","<img src=""img/food6.png"" style=""width:200px;border:14px solid red;"">","null","","","","","","","","","",""
"","image-keyboard-response","48","28370","0.0-48.0","3TVRFO09GL1W8DC8QKF8WQ4AGWFLXS","A1KAOUCQHCB3WV","3SA4EMRVJVOCGON1OYE6FAUV3KKP05","","119","img/food3.png","76","120","3","1","3","1","1,0.5,0,1,0.5,0,0.5,0,1","0.5,0,1,0.5,0,1,0,1,0.5","2","",""
"","html-keyboard-response","49","28838","0.0-49.0","3TVRFO09GL1W8DC8QKF8WQ4AGWFLXS","A1KAOUCQHCB3WV","3SA4EMRVJVOCGON1OYE6FAUV3KKP05","","null","<img src=""img/food3.png"" style=""width:200px; border:14px solid green;"">","null","","","","","","","","","",""
"","image-keyboard-response","50","28904","0.0-50.0","3TVRFO09GL1W8DC8QKF8WQ4AGWFLXS","A1KAOUCQHCB3WV","3SA4EMRVJVOCGON1OYE6FAUV3KKP05","","63","img/food2.png","75","66","2","0","2","1","1,0.5,0,1,0.5,0,0.5,0,1","0.5,0,1,0.5,0,1,0,1,0.5","2","",""
"","html-keyboard-response","51","29208","0.0-51.0","3TVRFO09GL1W8DC8QKF8WQ4AGWFLXS","A1KAOUCQHCB3WV","3SA4EMRVJVOCGON1OYE6FAUV3KKP05","","null","<img src=""img/food2.png"" style=""width:200px;border:14px solid red;"">","null","","","","","","","","","",""
"","image-keyboard-response","52","29213","0.0-52.0","3TVRFO09GL1W8DC8QKF8WQ4AGWFLXS","A1KAOUCQHCB3WV","3SA4EMRVJVOCGON1OYE6FAUV3KKP05","","3","img/food2.png","75","4","2","0","2","1","1,0.5,0,1,0.5,0,0.5,0,1","0.5,0,1,0.5,0,1,0,1,0.5","2","",""
"","html-keyboard-response","53","29515","0.0-53.0","3TVRFO09GL1W8DC8QKF8WQ4AGWFLXS","A1KAOUCQHCB3WV","3SA4EMRVJVOCGON1OYE6FAUV3KKP05","","null","<img src=""img/food2.png"" style=""width:200px;border:14px solid red;"">","null","","","","","","","","","",""
"","image-keyboard-response","54","29532","0.0-54.0","3TVRFO09GL1W8DC8QKF8WQ4AGWFLXS","A1KAOUCQHCB3WV","3SA4EMRVJVOCGON1OYE6FAUV3KKP05","","15","img/food2.png","75","16","2","0","2","1","1,0.5,0,1,0.5,0,0.5,0,1","0.5,0,1,0.5,0,1,0,1,0.5","2","",""
"","html-keyboard-response","55","29835","0.0-55.0","3TVRFO09GL1W8DC8QKF8WQ4AGWFLXS","A1KAOUCQHCB3WV","3SA4EMRVJVOCGON1OYE6FAUV3KKP05","","null","<img src=""img/food2.png"" style=""width:200px;border:14px solid red;"">","null","","","","","","","","","",""
"","image-keyboard-response","56","29875","0.0-56.0","3TVRFO09GL1W8DC8QKF8WQ4AGWFLXS","A1KAOUCQHCB3WV","3SA4EMRVJVOCGON1OYE6FAUV3KKP05","","37","img/food2.png","75","40","2","0","2","1","1,0.5,0,1,0.5,0,0.5,0,1","0.5,0,1,0.5,0,1,0,1,0.5","2","",""
"","html-keyboard-response","57","30179","0.0-57.0","3TVRFO09GL1W8DC8QKF8WQ4AGWFLXS","A1KAOUCQHCB3WV","3SA4EMRVJVOCGON1OYE6FAUV3KKP05","","null","<img src=""img/food2.png"" style=""width:200px;border:14px solid red;"">","null","","","","","","","","","",""
"","image-keyboard-response","58","30266","0.0-58.0","3TVRFO09GL1W8DC8QKF8WQ4AGWFLXS","A1KAOUCQHCB3WV","3SA4EMRVJVOCGON1OYE6FAUV3KKP05","","86","img/food2.png","75","86","2","0","2","1","1,0.5,0,1,0.5,0,0.5,0,1","0.5,0,1,0.5,0,1,0,1,0.5","2","",""
"","html-keyboard-response","59","30568","0.0-59.0","3TVRFO09GL1W8DC8QKF8WQ4AGWFLXS","A1KAOUCQHCB3WV","3SA4EMRVJVOCGON1OYE6FAUV3KKP05","","null","<img src=""img/food2.png"" style=""width:200px;border:14px solid red;"">","null","","","","","","","","","",""
"","image-keyboard-response","60","30680","0.0-60.0","3TVRFO09GL1W8DC8QKF8WQ4AGWFLXS","A1KAOUCQHCB3WV","3SA4EMRVJVOCGON1OYE6FAUV3KKP05","","110","img/food6.png","75","111","2","0","1","1","1,0.5,0,1,0.5,0,0.5,0,1","0.5,0,1,0.5,0,1,0,1,0.5","2","",""
"","html-keyboard-response","61","30982","0.0-61.0","3TVRFO09GL1W8DC8QKF8WQ4AGWFLXS","A1KAOUCQHCB3WV","3SA4EMRVJVOCGON1OYE6FAUV3KKP05","","null","<img src=""img/food6.png"" style=""width:200px;border:14px solid red;"">","null","","","","","","","","","",""
"","image-keyboard-response","62","31004","0.0-62.0","3TVRFO09GL1W8DC8QKF8WQ4AGWFLXS","A1KAOUCQHCB3WV","3SA4EMRVJVOCGON1OYE6FAUV3KKP05","","21","img/food6.png","75","22","2","0","1","1","1,0.5,0,1,0.5,0,0.5,0,1","0.5,0,1,0.5,0,1,0,1,0.5","2","",""
"","html-keyboard-response","63","31373","0.0-63.0","3TVRFO09GL1W8DC8QKF8WQ4AGWFLXS","A1KAOUCQHCB3WV","3SA4EMRVJVOCGON1OYE6FAUV3KKP05","","null","<img src=""img/food6.png"" style=""width:200px;border:14px solid red;"">","null","","","","","","","","","",""
"","image-keyboard-response","64","31473","0.0-64.0","3TVRFO09GL1W8DC8QKF8WQ4AGWFLXS","A1KAOUCQHCB3WV","3SA4EMRVJVOCGON1OYE6FAUV3KKP05","","97","img/food3.png","76","98","3","1","3","1","1,0.5,0,1,0.5,0,0.5,0,1","0.5,0,1,0.5,0,1,0,1,0.5","2","",""
"","html-keyboard-response","65","31845","0.0-65.0","3TVRFO09GL1W8DC8QKF8WQ4AGWFLXS","A1KAOUCQHCB3WV","3SA4EMRVJVOCGON1OYE6FAUV3KKP05","","null","<img src=""img/food3.png"" style=""width:200px; border:14px solid green;"">","null","","","","","","","","","",""
"","image-keyboard-response","66","31918","0.0-66.0","3TVRFO09GL1W8DC8QKF8WQ4AGWFLXS","A1KAOUCQHCB3WV","3SA4EMRVJVOCGON1OYE6FAUV3KKP05","","71","img/food2.png","76","73","3","1","2","1","1,0.5,0,1,0.5,0,0.5,0,1","0.5,0,1,0.5,0,1,0,1,0.5","2","",""
"","html-keyboard-response","67","32221","0.0-67.0","3TVRFO09GL1W8DC8QKF8WQ4AGWFLXS","A1KAOUCQHCB3WV","3SA4EMRVJVOCGON1OYE6FAUV3KKP05","","null","<img src=""img/food2.png"" style=""width:200px; border:14px solid green;"">","null","","","","","","","","","",""
"","image-keyboard-response","68","32253","0.0-68.0","3TVRFO09GL1W8DC8QKF8WQ4AGWFLXS","A1KAOUCQHCB3WV","3SA4EMRVJVOCGON1OYE6FAUV3KKP05","","29","img/food3.png","76","31","3","1","3","1","1,0.5,0,1,0.5,0,0.5,0,1","0.5,0,1,0.5,0,1,0,1,0.5","2","",""
"","html-keyboard-response","69","32555","0.0-69.0","3TVRFO09GL1W8DC8QKF8WQ4AGWFLXS","A1KAOUCQHCB3WV","3SA4EMRVJVOCGON1OYE6FAUV3KKP05","","null","<img src=""img/food3.png"" style=""width:200px; border:14px solid green;"">","null","","","","","","","","","",""
"","image-keyboard-response","70","32636","0.0-70.0","3TVRFO09GL1W8DC8QKF8WQ4AGWFLXS","A1KAOUCQHCB3WV","3SA4EMRVJVOCGON1OYE6FAUV3KKP05","","78","img/food3.png","76","81","3","0","3","1","1,0.5,0,1,0.5,0,0.5,0,1","0.5,0,1,0.5,0,1,0,1,0.5","2","",""
"","html-keyboard-response","71","32941","0.0-71.0","3TVRFO09GL1W8DC8QKF8WQ4AGWFLXS","A1KAOUCQHCB3WV","3SA4EMRVJVOCGON1OYE6FAUV3KKP05","","null","<img src=""img/food3.png"" style=""width:200px;border:14px solid red;"">","null","","","","","","","","","",""
"","image-keyboard-response","72","32979","0.0-72.0","3TVRFO09GL1W8DC8QKF8WQ4AGWFLXS","A1KAOUCQHCB3WV","3SA4EMRVJVOCGON1OYE6FAUV3KKP05","","36","img/food3.png","76","37","3","0","3","1","1,0.5,0,1,0.5,0,0.5,0,1","0.5,0,1,0.5,0,1,0,1,0.5","2","",""
"","html-keyboard-response","73","33282","0.0-73.0","3TVRFO09GL1W8DC8QKF8WQ4AGWFLXS","A1KAOUCQHCB3WV","3SA4EMRVJVOCGON1OYE6FAUV3KKP05","","null","<img src=""img/food3.png"" style=""width:200px;border:14px solid red;"">","null","","","","","","","","","",""
"","image-keyboard-response","74","33328","0.0-74.0","3TVRFO09GL1W8DC8QKF8WQ4AGWFLXS","A1KAOUCQHCB3WV","3SA4EMRVJVOCGON1OYE6FAUV3KKP05","","45","img/food2.png","76","45","3","1","2","1","1,0.5,0,1,0.5,0,0.5,0,1","0.5,0,1,0.5,0,1,0,1,0.5","2","",""
"","html-keyboard-response","75","33630","0.0-75.0","3TVRFO09GL1W8DC8QKF8WQ4AGWFLXS","A1KAOUCQHCB3WV","3SA4EMRVJVOCGON1OYE6FAUV3KKP05","","null","<img src=""img/food2.png"" style=""width:200px; border:14px solid green;"">","null","","","","","","","","","",""
"","image-keyboard-response","76","33634","0.0-76.0","3TVRFO09GL1W8DC8QKF8WQ4AGWFLXS","A1KAOUCQHCB3WV","3SA4EMRVJVOCGON1OYE6FAUV3KKP05","","2","img/food3.png","75","3","2","1","3","1","1,0.5,0,1,0.5,0,0.5,0,1","0.5,0,1,0.5,0,1,0,1,0.5","2","",""
"","html-keyboard-response","77","33936","0.0-77.0","3TVRFO09GL1W8DC8QKF8WQ4AGWFLXS","A1KAOUCQHCB3WV","3SA4EMRVJVOCGON1OYE6FAUV3KKP05","","null","<img src=""img/food3.png"" style=""width:200px; border:14px solid green;"">","null","","","","","","","","","",""
"","image-keyboard-response","78","33944","0.0-78.0","3TVRFO09GL1W8DC8QKF8WQ4AGWFLXS","A1KAOUCQHCB3WV","3SA4EMRVJVOCGON1OYE6FAUV3KKP05","","3","img/food3.png","76","7","3","1","3","1","1,0.5,0,1,0.5,0,0.5,0,1","0.5,0,1,0.5,0,1,0,1,0.5","2","",""
"","html-keyboard-response","79","34247","0.0-79.0","3TVRFO09GL1W8DC8QKF8WQ4AGWFLXS","A1KAOUCQHCB3WV","3SA4EMRVJVOCGON1OYE6FAUV3KKP05","","null","<img src=""img/food3.png"" style=""width:200px; border:14px solid green;"">","null","","","","","","","","","",""
"","image-keyboard-response","80","34353","0.0-80.0","3TVRFO09GL1W8DC8QKF8WQ4AGWFLXS","A1KAOUCQHCB3WV","3SA4EMRVJVOCGON1OYE6FAUV3KKP05","","102","img/food6.png","75","104","2","0","1","1","1,0.5,0,1,0.5,0,0.5,0,1","0.5,0,1,0.5,0,1,0,1,0.5","2","",""
"","html-keyboard-response","81","34655","0.0-81.0","3TVRFO09GL1W8DC8QKF8WQ4AGWFLXS","A1KAOUCQHCB3WV","3SA4EMRVJVOCGON1OYE6FAUV3KKP05","","null","<img src=""img/food6.png"" style=""width:200px;border:14px solid red;"">","null","","","","","","","","","",""
"","image-keyboard-response","82","34734","0.0-82.0","3TVRFO09GL1W8DC8QKF8WQ4AGWFLXS","A1KAOUCQHCB3WV","3SA4EMRVJVOCGON1OYE6FAUV3KKP05","","77","img/food6.png","75","78","2","0","1","1","1,0.5,0,1,0.5,0,0.5,0,1","0.5,0,1,0.5,0,1,0,1,0.5","2","",""
"","html-keyboard-response","83","35153","0.0-83.0","3TVRFO09GL1W8DC8QKF8WQ4AGWFLXS","A1KAOUCQHCB3WV","3SA4EMRVJVOCGON1OYE6FAUV3KKP05","","null","<img src=""img/food6.png"" style=""width:200px;border:14px solid red;"">","null","","","","","","","","","",""
"","image-keyboard-response","84","35167","0.0-84.0","3TVRFO09GL1W8DC8QKF8WQ4AGWFLXS","A1KAOUCQHCB3WV","3SA4EMRVJVOCGON1OYE6FAUV3KKP05","","13","img/food2.png","76","14","3","1","2","1","1,0.5,0,1,0.5,0,0.5,0,1","0.5,0,1,0.5,0,1,0,1,0.5","2","",""
"","html-keyboard-response","85","35546","0.0-85.0","3TVRFO09GL1W8DC8QKF8WQ4AGWFLXS","A1KAOUCQHCB3WV","3SA4EMRVJVOCGON1OYE6FAUV3KKP05","","null","<img src=""img/food2.png"" style=""width:200px; border:14px solid green;"">","null","","","","","","","","","",""
"","image-keyboard-response","86","35604","0.0-86.0","3TVRFO09GL1W8DC8QKF8WQ4AGWFLXS","A1KAOUCQHCB3WV","3SA4EMRVJVOCGON1OYE6FAUV3KKP05","","54","img/food3.png","76","56","3","0","3","1","1,0.5,0,1,0.5,0,0.5,0,1","0.5,0,1,0.5,0,1,0,1,0.5","2","",""
"","html-keyboard-response","87","35908","0.0-87.0","3TVRFO09GL1W8DC8QKF8WQ4AGWFLXS","A1KAOUCQHCB3WV","3SA4EMRVJVOCGON1OYE6FAUV3KKP05","","null","<img src=""img/food3.png"" style=""width:200px;border:14px solid red;"">","null","","","","","","","","","",""
"","image-keyboard-response","88","35952","0.0-88.0","3TVRFO09GL1W8DC8QKF8WQ4AGWFLXS","A1KAOUCQHCB3WV","3SA4EMRVJVOCGON1OYE6FAUV3KKP05","","44","img/food6.png","76","44","3","1","1","1","1,0.5,0,1,0.5,0,0.5,0,1","0.5,0,1,0.5,0,1,0,1,0.5","2","",""
"","html-keyboard-response","89","36256","0.0-89.0","3TVRFO09GL1W8DC8QKF8WQ4AGWFLXS","A1KAOUCQHCB3WV","3SA4EMRVJVOCGON1OYE6FAUV3KKP05","","null","<img src=""img/food6.png"" style=""width:200px; border:14px solid green;"">","null","","","","","","","","","",""
"","image-keyboard-response","90","36396","0.0-90.0","3TVRFO09GL1W8DC8QKF8WQ4AGWFLXS","A1KAOUCQHCB3WV","3SA4EMRVJVOCGON1OYE6FAUV3KKP05","","138","img/food3.png","76","139","3","0","3","1","1,0.5,0,1,0.5,0,0.5,0,1","0.5,0,1,0.5,0,1,0,1,0.5","2","",""
"","html-keyboard-response","91","36701","0.0-91.0","3TVRFO09GL1W8DC8QKF8WQ4AGWFLXS","A1KAOUCQHCB3WV","3SA4EMRVJVOCGON1OYE6FAUV3KKP05","","null","<img src=""img/food3.png"" style=""width:200px;border:14px solid red;"">","null","","","","","","","","","",""
"","image-keyboard-response","92","36734","0.0-92.0","3TVRFO09GL1W8DC8QKF8WQ4AGWFLXS","A1KAOUCQHCB3WV","3SA4EMRVJVOCGON1OYE6FAUV3KKP05","","31","img/food2.png","75","33","2","0","2","1","1,0.5,0,1,0.5,0,0.5,0,1","0.5,0,1,0.5,0,1,0,1,0.5","2","",""
"","html-keyboard-response","93","37035","0.0-93.0","3TVRFO09GL1W8DC8QKF8WQ4AGWFLXS","A1KAOUCQHCB3WV","3SA4EMRVJVOCGON1OYE6FAUV3KKP05","","null","<img src=""img/food2.png"" style=""width:200px;border:14px solid red;"">","null","","","","","","","","","",""
"","image-keyboard-response","94","37101","0.0-94.0","3TVRFO09GL1W8DC8QKF8WQ4AGWFLXS","A1KAOUCQHCB3WV","3SA4EMRVJVOCGON1OYE6FAUV3KKP05","","57","img/food3.png","76","65","3","1","3","1","1,0.5,0,1,0.5,0,0.5,0,1","0.5,0,1,0.5,0,1,0,1,0.5","2","",""
"","html-keyboard-response","95","37409","0.0-95.0","3TVRFO09GL1W8DC8QKF8WQ4AGWFLXS","A1KAOUCQHCB3WV","3SA4EMRVJVOCGON1OYE6FAUV3KKP05","","null","<img src=""img/food3.png"" style=""width:200px; border:14px solid green;"">","null","","","","","","","","","",""
"","image-keyboard-response","96","37483","0.0-96.0","3TVRFO09GL1W8DC8QKF8WQ4AGWFLXS","A1KAOUCQHCB3WV","3SA4EMRVJVOCGON1OYE6FAUV3KKP05","","72","img/food3.png","76","73","3","0","3","1","1,0.5,0,1,0.5,0,0.5,0,1","0.5,0,1,0.5,0,1,0,1,0.5","2","",""
"","html-keyboard-response","97","37784","0.0-97.0","3TVRFO09GL1W8DC8QKF8WQ4AGWFLXS","A1KAOUCQHCB3WV","3SA4EMRVJVOCGON1OYE6FAUV3KKP05","","null","<img src=""img/food3.png"" style=""width:200px;border:14px solid red;"">","null","","","","","","","","","",""
"","image-keyboard-response","98","37863","0.0-98.0","3TVRFO09GL1W8DC8QKF8WQ4AGWFLXS","A1KAOUCQHCB3WV","3SA4EMRVJVOCGON1OYE6FAUV3KKP05","","75","img/food2.png","76","78","3","1","2","1","1,0.5,0,1,0.5,0,0.5,0,1","0.5,0,1,0.5,0,1,0,1,0.5","2","",""
"","html-keyboard-response","99","38164","0.0-99.0","3TVRFO09GL1W8DC8QKF8WQ4AGWFLXS","A1KAOUCQHCB3WV","3SA4EMRVJVOCGON1OYE6FAUV3KKP05","","null","<img src=""img/food2.png"" style=""width:200px; border:14px solid green;"">","null","","","","","","","","","",""
"","image-keyboard-response","100","38209","0.0-100.0","3TVRFO09GL1W8DC8QKF8WQ4AGWFLXS","A1KAOUCQHCB3WV","3SA4EMRVJVOCGON1OYE6FAUV3KKP05","","43","img/food6.png","75","45","2","0","1","1","1,0.5,0,1,0.5,0,0.5,0,1","0.5,0,1,0.5,0,1,0,1,0.5","2","",""
"","html-keyboard-response","101","38512","0.0-101.0","3TVRFO09GL1W8DC8QKF8WQ4AGWFLXS","A1KAOUCQHCB3WV","3SA4EMRVJVOCGON1OYE6FAUV3KKP05","","null","<img src=""img/food6.png"" style=""width:200px;border:14px solid red;"">","null","","","","","","","","","",""
"","image-keyboard-response","102","38603","0.0-102.0","3TVRFO09GL1W8DC8QKF8WQ4AGWFLXS","A1KAOUCQHCB3WV","3SA4EMRVJVOCGON1OYE6FAUV3KKP05","","88","img/food6.png","75","90","2","0","1","1","1,0.5,0,1,0.5,0,0.5,0,1","0.5,0,1,0.5,0,1,0,1,0.5","2","",""
"","html-keyboard-response","103","38905","0.0-103.0","3TVRFO09GL1W8DC8QKF8WQ4AGWFLXS","A1KAOUCQHCB3WV","3SA4EMRVJVOCGON1OYE6FAUV3KKP05","","null","<img src=""img/food6.png"" style=""width:200px;border:14px solid red;"">","null","","","","","","","","","",""
"","image-keyboard-response","104","39015","0.0-104.0","3TVRFO09GL1W8DC8QKF8WQ4AGWFLXS","A1KAOUCQHCB3WV","3SA4EMRVJVOCGON1OYE6FAUV3KKP05","","110","img/food2.png","75","110","2","0","2","1","1,0.5,0,1,0.5,0,0.5,0,1","0.5,0,1,0.5,0,1,0,1,0.5","2","",""
"","html-keyboard-response","105","39338","0.0-105.0","3TVRFO09GL1W8DC8QKF8WQ4AGWFLXS","A1KAOUCQHCB3WV","3SA4EMRVJVOCGON1OYE6FAUV3KKP05","","null","<img src=""img/food2.png"" style=""width:200px;border:14px solid red;"">","null","","","","","","","","","",""
"","image-keyboard-response","106","39470","0.0-106.0","3TVRFO09GL1W8DC8QKF8WQ4AGWFLXS","A1KAOUCQHCB3WV","3SA4EMRVJVOCGON1OYE6FAUV3KKP05","","130","img/food2.png","76","130","3","1","2","1","1,0.5,0,1,0.5,0,0.5,0,1","0.5,0,1,0.5,0,1,0,1,0.5","2","",""
"","html-keyboard-response","107","39789","0.0-107.0","3TVRFO09GL1W8DC8QKF8WQ4AGWFLXS","A1KAOUCQHCB3WV","3SA4EMRVJVOCGON1OYE6FAUV3KKP05","","null","<img src=""img/food2.png"" style=""width:200px; border:14px solid green;"">","null","","","","","","","","","",""
"","image-keyboard-response","108","40116","0.0-108.0","3TVRFO09GL1W8DC8QKF8WQ4AGWFLXS","A1KAOUCQHCB3WV","3SA4EMRVJVOCGON1OYE6FAUV3KKP05","","324","img/food3.png","76","326","3","1","3","1","1,0.5,0,1,0.5,0,0.5,0,1","0.5,0,1,0.5,0,1,0,1,0.5","2","",""
"","html-keyboard-response","109","40421","0.0-109.0","3TVRFO09GL1W8DC8QKF8WQ4AGWFLXS","A1KAOUCQHCB3WV","3SA4EMRVJVOCGON1OYE6FAUV3KKP05","","null","<img src=""img/food3.png"" style=""width:200px; border:14px solid green;"">","null","","","","","","","","","",""
"","image-keyboard-response","110","40465","0.0-110.0","3TVRFO09GL1W8DC8QKF8WQ4AGWFLXS","A1KAOUCQHCB3WV","3SA4EMRVJVOCGON1OYE6FAUV3KKP05","","41","img/food3.png","75","43","2","1","3","1","1,0.5,0,1,0.5,0,0.5,0,1","0.5,0,1,0.5,0,1,0,1,0.5","2","",""
"","html-keyboard-response","111","40766","0.0-111.0","3TVRFO09GL1W8DC8QKF8WQ4AGWFLXS","A1KAOUCQHCB3WV","3SA4EMRVJVOCGON1OYE6FAUV3KKP05","","null","<img src=""img/food3.png"" style=""width:200px; border:14px solid green;"">","null","","","","","","","","","",""
"","image-keyboard-response","112","40834","0.0-112.0","3TVRFO09GL1W8DC8QKF8WQ4AGWFLXS","A1KAOUCQHCB3WV","3SA4EMRVJVOCGON1OYE6FAUV3KKP05","","67","img/food6.png","76","68","3","1","1","1","1,0.5,0,1,0.5,0,0.5,0,1","0.5,0,1,0.5,0,1,0,1,0.5","2","",""
"","html-keyboard-response","113","41137","0.0-113.0","3TVRFO09GL1W8DC8QKF8WQ4AGWFLXS","A1KAOUCQHCB3WV","3SA4EMRVJVOCGON1OYE6FAUV3KKP05","","null","<img src=""img/food6.png"" style=""width:200px; border:14px solid green;"">","null","","","","","","","","","",""
"","image-keyboard-response","114","41164","0.0-114.0","3TVRFO09GL1W8DC8QKF8WQ4AGWFLXS","A1KAOUCQHCB3WV","3SA4EMRVJVOCGON1OYE6FAUV3KKP05","","24","img/food3.png","75","26","2","1","3","1","1,0.5,0,1,0.5,0,0.5,0,1","0.5,0,1,0.5,0,1,0,1,0.5","2","",""
"","html-keyboard-response","115","41466","0.0-115.0","3TVRFO09GL1W8DC8QKF8WQ4AGWFLXS","A1KAOUCQHCB3WV","3SA4EMRVJVOCGON1OYE6FAUV3KKP05","","null","<img src=""img/food3.png"" style=""width:200px; border:14px solid green;"">","null","","","","","","","","","",""
"","image-keyboard-response","116","41555","0.0-116.0","3TVRFO09GL1W8DC8QKF8WQ4AGWFLXS","A1KAOUCQHCB3WV","3SA4EMRVJVOCGON1OYE6FAUV3KKP05","","79","img/food6.png","76","88","3","1","1","1","1,0.5,0,1,0.5,0,0.5,0,1","0.5,0,1,0.5,0,1,0,1,0.5","2","",""
"","html-keyboard-response","117","41857","0.0-117.0","3TVRFO09GL1W8DC8QKF8WQ4AGWFLXS","A1KAOUCQHCB3WV","3SA4EMRVJVOCGON1OYE6FAUV3KKP05","","null","<img src=""img/food6.png"" style=""width:200px; border:14px solid green;"">","null","","","","","","","","","",""
"","image-keyboard-response","118","41903","0.0-118.0","3TVRFO09GL1W8DC8QKF8WQ4AGWFLXS","A1KAOUCQHCB3WV","3SA4EMRVJVOCGON1OYE6FAUV3KKP05","","44","img/food3.png","76","45","3","0","3","1","1,0.5,0,1,0.5,0,0.5,0,1","0.5,0,1,0.5,0,1,0,1,0.5","2","",""
"","html-keyboard-response","119","42207","0.0-119.0","3TVRFO09GL1W8DC8QKF8WQ4AGWFLXS","A1KAOUCQHCB3WV","3SA4EMRVJVOCGON1OYE6FAUV3KKP05","","null","<img src=""img/food3.png"" style=""width:200px;border:14px solid red;"">","null","","","","","","","","","",""
"","image-keyboard-response","120","42224","0.0-120.0","3TVRFO09GL1W8DC8QKF8WQ4AGWFLXS","A1KAOUCQHCB3WV","3SA4EMRVJVOCGON1OYE6FAUV3KKP05","","16","img/food6.png","75","16","2","0","1","1","1,0.5,0,1,0.5,0,0.5,0,1","0.5,0,1,0.5,0,1,0,1,0.5","2","",""
"","html-keyboard-response","121","42526","0.0-121.0","3TVRFO09GL1W8DC8QKF8WQ4AGWFLXS","A1KAOUCQHCB3WV","3SA4EMRVJVOCGON1OYE6FAUV3KKP05","","null","<img src=""img/food6.png"" style=""width:200px;border:14px solid red;"">","null","","","","","","","","","",""
"","image-keyboard-response","122","42572","0.0-122.0","3TVRFO09GL1W8DC8QKF8WQ4AGWFLXS","A1KAOUCQHCB3WV","3SA4EMRVJVOCGON1OYE6FAUV3KKP05","","44","img/food3.png","76","45","3","0","3","1","1,0.5,0,1,0.5,0,0.5,0,1","0.5,0,1,0.5,0,1,0,1,0.5","2","",""
"","html-keyboard-response","123","42875","0.0-123.0","3TVRFO09GL1W8DC8QKF8WQ4AGWFLXS","A1KAOUCQHCB3WV","3SA4EMRVJVOCGON1OYE6FAUV3KKP05","","null","<img src=""img/food3.png"" style=""width:200px;border:14px solid red;"">","null","","","","","","","","","",""
"","image-keyboard-response","124","42894","0.0-124.0","3TVRFO09GL1W8DC8QKF8WQ4AGWFLXS","A1KAOUCQHCB3WV","3SA4EMRVJVOCGON1OYE6FAUV3KKP05","","18","img/food6.png","75","18","2","0","1","1","1,0.5,0,1,0.5,0,0.5,0,1","0.5,0,1,0.5,0,1,0,1,0.5","2","",""
"","html-keyboard-response","125","43304","0.0-125.0","3TVRFO09GL1W8DC8QKF8WQ4AGWFLXS","A1KAOUCQHCB3WV","3SA4EMRVJVOCGON1OYE6FAUV3KKP05","","null","<img src=""img/food6.png"" style=""width:200px;border:14px solid red;"">","null","","","","","","","","","",""
"","image-keyboard-response","126","43316","0.0-126.0","3TVRFO09GL1W8DC8QKF8WQ4AGWFLXS","A1KAOUCQHCB3WV","3SA4EMRVJVOCGON1OYE6FAUV3KKP05","","10","img/food6.png","76","12","3","1","1","1","1,0.5,0,1,0.5,0,0.5,0,1","0.5,0,1,0.5,0,1,0,1,0.5","2","",""
"","html-keyboard-response","127","43765","0.0-127.0","3TVRFO09GL1W8DC8QKF8WQ4AGWFLXS","A1KAOUCQHCB3WV","3SA4EMRVJVOCGON1OYE6FAUV3KKP05","","null","<img src=""img/food6.png"" style=""width:200px; border:14px solid green;"">","null","","","","","","","","","",""
"","image-keyboard-response","128","43889","0.0-128.0","3TVRFO09GL1W8DC8QKF8WQ4AGWFLXS","A1KAOUCQHCB3WV","3SA4EMRVJVOCGON1OYE6FAUV3KKP05","","122","img/food6.png","76","123","3","1","1","1","1,0.5,0,1,0.5,0,0.5,0,1","0.5,0,1,0.5,0,1,0,1,0.5","2","",""
"","html-keyboard-response","129","44192","0.0-129.0","3TVRFO09GL1W8DC8QKF8WQ4AGWFLXS","A1KAOUCQHCB3WV","3SA4EMRVJVOCGON1OYE6FAUV3KKP05","","null","<img src=""img/food6.png"" style=""width:200px; border:14px solid green;"">","null","","","","","","","","","",""
"","image-keyboard-response","130","44228","0.0-130.0","3TVRFO09GL1W8DC8QKF8WQ4AGWFLXS","A1KAOUCQHCB3WV","3SA4EMRVJVOCGON1OYE6FAUV3KKP05","","33","img/food6.png","75","35","2","0","1","1","1,0.5,0,1,0.5,0,0.5,0,1","0.5,0,1,0.5,0,1,0,1,0.5","2","",""
"","html-keyboard-response","131","44529","0.0-131.0","3TVRFO09GL1W8DC8QKF8WQ4AGWFLXS","A1KAOUCQHCB3WV","3SA4EMRVJVOCGON1OYE6FAUV3KKP05","","null","<img src=""img/food6.png"" style=""width:200px;border:14px solid red;"">","null","","","","","","","","","",""
"","image-keyboard-response","132","44573","0.0-132.0","3TVRFO09GL1W8DC8QKF8WQ4AGWFLXS","A1KAOUCQHCB3WV","3SA4EMRVJVOCGON1OYE6FAUV3KKP05","","41","img/food6.png","76","43","3","1","1","1","1,0.5,0,1,0.5,0,0.5,0,1","0.5,0,1,0.5,0,1,0,1,0.5","2","",""
"","html-keyboard-response","133","44873","0.0-133.0","3TVRFO09GL1W8DC8QKF8WQ4AGWFLXS","A1KAOUCQHCB3WV","3SA4EMRVJVOCGON1OYE6FAUV3KKP05","","null","<img src=""img/food6.png"" style=""width:200px; border:14px solid green;"">","null","","","","","","","","","",""
"","image-keyboard-response","134","44992","0.0-134.0","3TVRFO09GL1W8DC8QKF8WQ4AGWFLXS","A1KAOUCQHCB3WV","3SA4EMRVJVOCGON1OYE6FAUV3KKP05","","116","img/food2.png","76","117","3","1","2","1","1,0.5,0,1,0.5,0,0.5,0,1","0.5,0,1,0.5,0,1,0,1,0.5","2","",""
"","html-keyboard-response","135","45294","0.0-135.0","3TVRFO09GL1W8DC8QKF8WQ4AGWFLXS","A1KAOUCQHCB3WV","3SA4EMRVJVOCGON1OYE6FAUV3KKP05","","null","<img src=""img/food2.png"" style=""width:200px; border:14px solid green;"">","null","","","","","","","","","",""
"","image-keyboard-response","136","45413","0.0-136.0","3TVRFO09GL1W8DC8QKF8WQ4AGWFLXS","A1KAOUCQHCB3WV","3SA4EMRVJVOCGON1OYE6FAUV3KKP05","","117","img/food2.png","76","118","3","1","2","1","1,0.5,0,1,0.5,0,0.5,0,1","0.5,0,1,0.5,0,1,0,1,0.5","2","",""
"","html-keyboard-response","137","45715","0.0-137.0","3TVRFO09GL1W8DC8QKF8WQ4AGWFLXS","A1KAOUCQHCB3WV","3SA4EMRVJVOCGON1OYE6FAUV3KKP05","","null","<img src=""img/food2.png"" style=""width:200px; border:14px solid green;"">","null","","","","","","","","","",""
"","image-keyboard-response","138","45752","0.0-138.0","3TVRFO09GL1W8DC8QKF8WQ4AGWFLXS","A1KAOUCQHCB3WV","3SA4EMRVJVOCGON1OYE6FAUV3KKP05","","36","img/food3.png","76","36","3","1","3","1","1,0.5,0,1,0.5,0,0.5,0,1","0.5,0,1,0.5,0,1,0,1,0.5","2","",""
"","html-keyboard-response","139","46055","0.0-139.0","3TVRFO09GL1W8DC8QKF8WQ4AGWFLXS","A1KAOUCQHCB3WV","3SA4EMRVJVOCGON1OYE6FAUV3KKP05","","null","<img src=""img/food3.png"" style=""width:200px; border:14px solid green;"">","null","","","","","","","","","",""
"","image-keyboard-response","140","46073","0.0-140.0","3TVRFO09GL1W8DC8QKF8WQ4AGWFLXS","A1KAOUCQHCB3WV","3SA4EMRVJVOCGON1OYE6FAUV3KKP05","","17","img/food6.png","75","18","2","0","1","1","1,0.5,0,1,0.5,0,0.5,0,1","0.5,0,1,0.5,0,1,0,1,0.5","2","",""
"","html-keyboard-response","141","46375","0.0-141.0","3TVRFO09GL1W8DC8QKF8WQ4AGWFLXS","A1KAOUCQHCB3WV","3SA4EMRVJVOCGON1OYE6FAUV3KKP05","","null","<img src=""img/food6.png"" style=""width:200px;border:14px solid red;"">","null","","","","","","","","","",""
"","image-keyboard-response","142","46385","0.0-142.0","3TVRFO09GL1W8DC8QKF8WQ4AGWFLXS","A1KAOUCQHCB3WV","3SA4EMRVJVOCGON1OYE6FAUV3KKP05","","8","img/food2.png","76","8","3","1","2","1","1,0.5,0,1,0.5,0,0.5,0,1","0.5,0,1,0.5,0,1,0,1,0.5","2","",""
"","html-keyboard-response","143","46688","0.0-143.0","3TVRFO09GL1W8DC8QKF8WQ4AGWFLXS","A1KAOUCQHCB3WV","3SA4EMRVJVOCGON1OYE6FAUV3KKP05","","null","<img src=""img/food2.png"" style=""width:200px; border:14px solid green;"">","null","","","","","","","","","",""
"","image-keyboard-response","144","46724","0.0-144.0","3TVRFO09GL1W8DC8QKF8WQ4AGWFLXS","A1KAOUCQHCB3WV","3SA4EMRVJVOCGON1OYE6FAUV3KKP05","","33","img/food2.png","76","34","3","1","2","1","1,0.5,0,1,0.5,0,0.5,0,1","0.5,0,1,0.5,0,1,0,1,0.5","2","",""
"","html-keyboard-response","145","47158","0.0-145.0","3TVRFO09GL1W8DC8QKF8WQ4AGWFLXS","A1KAOUCQHCB3WV","3SA4EMRVJVOCGON1OYE6FAUV3KKP05","","null","<img src=""img/food2.png"" style=""width:200px; border:14px solid green;"">","null","","","","","","","","","",""
"","image-keyboard-response","146","47294","0.0-146.0","3TVRFO09GL1W8DC8QKF8WQ4AGWFLXS","A1KAOUCQHCB3WV","3SA4EMRVJVOCGON1OYE6FAUV3KKP05","","133","img/food6.png","76","135","3","1","1","1","1,0.5,0,1,0.5,0,0.5,0,1","0.5,0,1,0.5,0,1,0,1,0.5","2","",""
"","html-keyboard-response","147","47616","0.0-147.0","3TVRFO09GL1W8DC8QKF8WQ4AGWFLXS","A1KAOUCQHCB3WV","3SA4EMRVJVOCGON1OYE6FAUV3KKP05","","null","<img src=""img/food6.png"" style=""width:200px; border:14px solid green;"">","null","","","","","","","","","",""
"","image-keyboard-response","148","47704","0.0-148.0","3TVRFO09GL1W8DC8QKF8WQ4AGWFLXS","A1KAOUCQHCB3WV","3SA4EMRVJVOCGON1OYE6FAUV3KKP05","","86","img/food6.png","76","87","3","1","1","1","1,0.5,0,1,0.5,0,0.5,0,1","0.5,0,1,0.5,0,1,0,1,0.5","2","",""
"","html-keyboard-response","149","48010","0.0-149.0","3TVRFO09GL1W8DC8QKF8WQ4AGWFLXS","A1KAOUCQHCB3WV","3SA4EMRVJVOCGON1OYE6FAUV3KKP05","","null","<img src=""img/food6.png"" style=""width:200px; border:14px solid green;"">","null","","","","","","","","","",""
"","image-keyboard-response","150","48063","0.0-150.0","3TVRFO09GL1W8DC8QKF8WQ4AGWFLXS","A1KAOUCQHCB3WV","3SA4EMRVJVOCGON1OYE6FAUV3KKP05","","49","img/food6.png","75","50","2","0","1","1","1,0.5,0,1,0.5,0,0.5,0,1","0.5,0,1,0.5,0,1,0,1,0.5","2","",""
"","html-keyboard-response","151","48368","0.0-151.0","3TVRFO09GL1W8DC8QKF8WQ4AGWFLXS","A1KAOUCQHCB3WV","3SA4EMRVJVOCGON1OYE6FAUV3KKP05","","null","<img src=""img/food6.png"" style=""width:200px;border:14px solid red;"">","null","","","","","","","","","",""
"","image-keyboard-response","152","48376","0.0-152.0","3TVRFO09GL1W8DC8QKF8WQ4AGWFLXS","A1KAOUCQHCB3WV","3SA4EMRVJVOCGON1OYE6FAUV3KKP05","","4","img/food3.png","76","7","3","1","3","1","1,0.5,0,1,0.5,0,0.5,0,1","0.5,0,1,0.5,0,1,0,1,0.5","2","",""
"","html-keyboard-response","153","48681","0.0-153.0","3TVRFO09GL1W8DC8QKF8WQ4AGWFLXS","A1KAOUCQHCB3WV","3SA4EMRVJVOCGON1OYE6FAUV3KKP05","","null","<img src=""img/food3.png"" style=""width:200px; border:14px solid green;"">","null","","","","","","","","","",""
"","image-keyboard-response","154","48715","0.0-154.0","3TVRFO09GL1W8DC8QKF8WQ4AGWFLXS","A1KAOUCQHCB3WV","3SA4EMRVJVOCGON1OYE6FAUV3KKP05","","32","img/food2.png","75","33","2","0","2","1","1,0.5,0,1,0.5,0,0.5,0,1","0.5,0,1,0.5,0,1,0,1,0.5","2","",""
"","html-keyboard-response","155","49018","0.0-155.0","3TVRFO09GL1W8DC8QKF8WQ4AGWFLXS","A1KAOUCQHCB3WV","3SA4EMRVJVOCGON1OYE6FAUV3KKP05","","null","<img src=""img/food2.png"" style=""width:200px;border:14px solid red;"">","null","","","","","","","","","",""
"","image-keyboard-response","156","49050","0.0-156.0","3TVRFO09GL1W8DC8QKF8WQ4AGWFLXS","A1KAOUCQHCB3WV","3SA4EMRVJVOCGON1OYE6FAUV3KKP05","","31","img/food3.png","76","31","3","0","3","1","1,0.5,0,1,0.5,0,0.5,0,1","0.5,0,1,0.5,0,1,0,1,0.5","2","",""
"","html-keyboard-response","157","49352","0.0-157.0","3TVRFO09GL1W8DC8QKF8WQ4AGWFLXS","A1KAOUCQHCB3WV","3SA4EMRVJVOCGON1OYE6FAUV3KKP05","","null","<img src=""img/food3.png"" style=""width:200px;border:14px solid red;"">","null","","","","","","","","","",""
"","image-keyboard-response","158","49355","0.0-158.0","3TVRFO09GL1W8DC8QKF8WQ4AGWFLXS","A1KAOUCQHCB3WV","3SA4EMRVJVOCGON1OYE6FAUV3KKP05","","0","img/food6.png","75","1","2","0","1","1","1,0.5,0,1,0.5,0,0.5,0,1","0.5,0,1,0.5,0,1,0,1,0.5","2","",""
"","html-keyboard-response","159","49657","0.0-159.0","3TVRFO09GL1W8DC8QKF8WQ4AGWFLXS","A1KAOUCQHCB3WV","3SA4EMRVJVOCGON1OYE6FAUV3KKP05","","null","<img src=""img/food6.png"" style=""width:200px;border:14px solid red;"">","null","","","","","","","","","",""
"","image-keyboard-response","160","49723","0.0-160.0","3TVRFO09GL1W8DC8QKF8WQ4AGWFLXS","A1KAOUCQHCB3WV","3SA4EMRVJVOCGON1OYE6FAUV3KKP05","","65","img/food6.png","76","65","3","1","1","1","1,0.5,0,1,0.5,0,0.5,0,1","0.5,0,1,0.5,0,1,0,1,0.5","2","",""
"","html-keyboard-response","161","50030","0.0-161.0","3TVRFO09GL1W8DC8QKF8WQ4AGWFLXS","A1KAOUCQHCB3WV","3SA4EMRVJVOCGON1OYE6FAUV3KKP05","","null","<img src=""img/food6.png"" style=""width:200px; border:14px solid green;"">","null","","","","","","","","","",""
"","image-keyboard-response","162","50071","0.0-162.0","3TVRFO09GL1W8DC8QKF8WQ4AGWFLXS","A1KAOUCQHCB3WV","3SA4EMRVJVOCGON1OYE6FAUV3KKP05","","38","img/food6.png","75","38","2","0","1","1","1,0.5,0,1,0.5,0,0.5,0,1","0.5,0,1,0.5,0,1,0,1,0.5","2","",""
"","html-keyboard-response","163","50374","0.0-163.0","3TVRFO09GL1W8DC8QKF8WQ4AGWFLXS","A1KAOUCQHCB3WV","3SA4EMRVJVOCGON1OYE6FAUV3KKP05","","null","<img src=""img/food6.png"" style=""width:200px;border:14px solid red;"">","null","","","","","","","","","",""
"","image-keyboard-response","164","50503","0.0-164.0","3TVRFO09GL1W8DC8QKF8WQ4AGWFLXS","A1KAOUCQHCB3WV","3SA4EMRVJVOCGON1OYE6FAUV3KKP05","","126","img/food3.png","75","128","2","1","3","1","1,0.5,0,1,0.5,0,0.5,0,1","0.5,0,1,0.5,0,1,0,1,0.5","2","",""
"","html-keyboard-response","165","50818","0.0-165.0","3TVRFO09GL1W8DC8QKF8WQ4AGWFLXS","A1KAOUCQHCB3WV","3SA4EMRVJVOCGON1OYE6FAUV3KKP05","","null","<img src=""img/food3.png"" style=""width:200px; border:14px solid green;"">","null","","","","","","","","","",""
"","image-keyboard-response","166","50841","0.0-166.0","3TVRFO09GL1W8DC8QKF8WQ4AGWFLXS","A1KAOUCQHCB3WV","3SA4EMRVJVOCGON1OYE6FAUV3KKP05","","21","img/food2.png","75","22","2","0","2","1","1,0.5,0,1,0.5,0,0.5,0,1","0.5,0,1,0.5,0,1,0,1,0.5","2","",""
"","html-keyboard-response","167","51183","0.0-167.0","3TVRFO09GL1W8DC8QKF8WQ4AGWFLXS","A1KAOUCQHCB3WV","3SA4EMRVJVOCGON1OYE6FAUV3KKP05","","null","<img src=""img/food2.png"" style=""width:200px;border:14px solid red;"">","null","","","","","","","","","",""
"","image-keyboard-response","168","51632","0.0-168.0","3TVRFO09GL1W8DC8QKF8WQ4AGWFLXS","A1KAOUCQHCB3WV","3SA4EMRVJVOCGON1OYE6FAUV3KKP05","","446","img/food3.png","75","448","2","1","3","1","1,0.5,0,1,0.5,0,0.5,0,1","0.5,0,1,0.5,0,1,0,1,0.5","2","",""
"","html-keyboard-response","169","51935","0.0-169.0","3TVRFO09GL1W8DC8QKF8WQ4AGWFLXS","A1KAOUCQHCB3WV","3SA4EMRVJVOCGON1OYE6FAUV3KKP05","","null","<img src=""img/food3.png"" style=""width:200px; border:14px solid green;"">","null","","","","","","","","","",""
"","image-keyboard-response","170","51973","0.0-170.0","3TVRFO09GL1W8DC8QKF8WQ4AGWFLXS","A1KAOUCQHCB3WV","3SA4EMRVJVOCGON1OYE6FAUV3KKP05","","36","img/food2.png","76","38","3","1","2","1","1,0.5,0,1,0.5,0,0.5,0,1","0.5,0,1,0.5,0,1,0,1,0.5","2","",""
"","html-keyboard-response","171","52276","0.0-171.0","3TVRFO09GL1W8DC8QKF8WQ4AGWFLXS","A1KAOUCQHCB3WV","3SA4EMRVJVOCGON1OYE6FAUV3KKP05","","null","<img src=""img/food2.png"" style=""width:200px; border:14px solid green;"">","null","","","","","","","","","",""
"","image-keyboard-response","172","52374","0.0-172.0","3TVRFO09GL1W8DC8QKF8WQ4AGWFLXS","A1KAOUCQHCB3WV","3SA4EMRVJVOCGON1OYE6FAUV3KKP05","","91","img/food3.png","75","95","2","1","3","1","1,0.5,0,1,0.5,0,0.5,0,1","0.5,0,1,0.5,0,1,0,1,0.5","2","",""
"","html-keyboard-response","173","52678","0.0-173.0","3TVRFO09GL1W8DC8QKF8WQ4AGWFLXS","A1KAOUCQHCB3WV","3SA4EMRVJVOCGON1OYE6FAUV3KKP05","","null","<img src=""img/food3.png"" style=""width:200px; border:14px solid green;"">","null","","","","","","","","","",""
"","image-keyboard-response","174","52743","0.0-174.0","3TVRFO09GL1W8DC8QKF8WQ4AGWFLXS","A1KAOUCQHCB3WV","3SA4EMRVJVOCGON1OYE6FAUV3KKP05","","63","img/food3.png","75","64","2","1","3","1","1,0.5,0,1,0.5,0,0.5,0,1","0.5,0,1,0.5,0,1,0,1,0.5","2","",""
"","html-keyboard-response","175","53046","0.0-175.0","3TVRFO09GL1W8DC8QKF8WQ4AGWFLXS","A1KAOUCQHCB3WV","3SA4EMRVJVOCGON1OYE6FAUV3KKP05","","null","<img src=""img/food3.png"" style=""width:200px; border:14px solid green;"">","null","","","","","","","","","",""
"","image-keyboard-response","176","53221","0.0-176.0","3TVRFO09GL1W8DC8QKF8WQ4AGWFLXS","A1KAOUCQHCB3WV","3SA4EMRVJVOCGON1OYE6FAUV3KKP05","","173","img/food2.png","76","174","3","1","2","1","1,0.5,0,1,0.5,0,0.5,0,1","0.5,0,1,0.5,0,1,0,1,0.5","2","",""
"","html-keyboard-response","177","53609","0.0-177.0","3TVRFO09GL1W8DC8QKF8WQ4AGWFLXS","A1KAOUCQHCB3WV","3SA4EMRVJVOCGON1OYE6FAUV3KKP05","","null","<img src=""img/food2.png"" style=""width:200px; border:14px solid green;"">","null","","","","","","","","","",""
"","image-keyboard-response","178","53845","0.0-178.0","3TVRFO09GL1W8DC8QKF8WQ4AGWFLXS","A1KAOUCQHCB3WV","3SA4EMRVJVOCGON1OYE6FAUV3KKP05","","224","img/food6.png","76","231","3","1","1","1","1,0.5,0,1,0.5,0,0.5,0,1","0.5,0,1,0.5,0,1,0,1,0.5","2","",""
"","html-keyboard-response","179","54149","0.0-179.0","3TVRFO09GL1W8DC8QKF8WQ4AGWFLXS","A1KAOUCQHCB3WV","3SA4EMRVJVOCGON1OYE6FAUV3KKP05","","null","<img src=""img/food6.png"" style=""width:200px; border:14px solid green;"">","null","","","","","","","","","",""
"","image-keyboard-response","180","54224","0.0-180.0","3TVRFO09GL1W8DC8QKF8WQ4AGWFLXS","A1KAOUCQHCB3WV","3SA4EMRVJVOCGON1OYE6FAUV3KKP05","","69","img/food3.png","76","72","3","0","3","1","1,0.5,0,1,0.5,0,0.5,0,1","0.5,0,1,0.5,0,1,0,1,0.5","2","",""
"","html-keyboard-response","181","54527","0.0-181.0","3TVRFO09GL1W8DC8QKF8WQ4AGWFLXS","A1KAOUCQHCB3WV","3SA4EMRVJVOCGON1OYE6FAUV3KKP05","","null","<img src=""img/food3.png"" style=""width:200px;border:14px solid red;"">","null","","","","","","","","","",""
"","html-keyboard-response","182","58513","0.0-182.0","3TVRFO09GL1W8DC8QKF8WQ4AGWFLXS","A1KAOUCQHCB3WV","3SA4EMRVJVOCGON1OYE6FAUV3KKP05","","","","","","","","","","","","","",""
"","instructions","183","63635","0.0-183.0","3TVRFO09GL1W8DC8QKF8WQ4AGWFLXS","A1KAOUCQHCB3WV","3SA4EMRVJVOCGON1OYE6FAUV3KKP05","[{""page_index"":0,""viewing_time"":3999},{""page_index"":1,""viewing_time"":1121}]","5120","","","","","","","","","","","",""
"","image-keyboard-response","184","64640","0.0-184.0","3TVRFO09GL1W8DC8QKF8WQ4AGWFLXS","A1KAOUCQHCB3WV","3SA4EMRVJVOCGON1OYE6FAUV3KKP05","","","img/food5.png","","1004","-1","0","1","2","1,0.5,0,1,0.5,0,0.5,0,1","0.5,0,1,0.5,0,1,0,1,0.5","2","true",""
"","html-keyboard-response","185","64943","0.0-185.0","3TVRFO09GL1W8DC8QKF8WQ4AGWFLXS","A1KAOUCQHCB3WV","3SA4EMRVJVOCGON1OYE6FAUV3KKP05","","null","<img src=""img/food5.png"" style=""width:200px;border:14px solid red;"">","null","","","","","","","","","",""
"","html-keyboard-response","186","67734","0.0-186.0-0.0","3TVRFO09GL1W8DC8QKF8WQ4AGWFLXS","A1KAOUCQHCB3WV","3SA4EMRVJVOCGON1OYE6FAUV3KKP05","","","","","","","","","","","","","",""
"","image-keyboard-response","187","68733","0.0-187.0","3TVRFO09GL1W8DC8QKF8WQ4AGWFLXS","A1KAOUCQHCB3WV","3SA4EMRVJVOCGON1OYE6FAUV3KKP05","","997","img/food5.png","76","998","3","1","1","2","1,0.5,0,1,0.5,0,0.5,0,1","0.5,0,1,0.5,0,1,0,1,0.5","2","false",""
"","html-keyboard-response","188","69035","0.0-188.0","3TVRFO09GL1W8DC8QKF8WQ4AGWFLXS","A1KAOUCQHCB3WV","3SA4EMRVJVOCGON1OYE6FAUV3KKP05","","null","<img src=""img/food5.png"" style=""width:200px; border:14px solid green;"">","null","","","","","","","","","",""
"","image-keyboard-response","189","69981","0.0-190.0","3TVRFO09GL1W8DC8QKF8WQ4AGWFLXS","A1KAOUCQHCB3WV","3SA4EMRVJVOCGON1OYE6FAUV3KKP05","","942","img/food1.png","75","945","2","0","2","2","1,0.5,0,1,0.5,0,0.5,0,1","0.5,0,1,0.5,0,1,0,1,0.5","2","false",""
"","html-keyboard-response","190","70282","0.0-191.0","3TVRFO09GL1W8DC8QKF8WQ4AGWFLXS","A1KAOUCQHCB3WV","3SA4EMRVJVOCGON1OYE6FAUV3KKP05","","null","<img src=""img/food1.png"" style=""width:200px;border:14px solid red;"">","null","","","","","","","","","",""
"","image-keyboard-response","191","70532","0.0-193.0","3TVRFO09GL1W8DC8QKF8WQ4AGWFLXS","A1KAOUCQHCB3WV","3SA4EMRVJVOCGON1OYE6FAUV3KKP05","","248","img/food4.png","76","248","3","0","3","2","1,0.5,0,1,0.5,0,0.5,0,1","0.5,0,1,0.5,0,1,0,1,0.5","2","false",""
"","html-keyboard-response","192","70835","0.0-194.0","3TVRFO09GL1W8DC8QKF8WQ4AGWFLXS","A1KAOUCQHCB3WV","3SA4EMRVJVOCGON1OYE6FAUV3KKP05","","null","<img src=""img/food4.png"" style=""width:200px;border:14px solid red;"">","null","","","","","","","","","",""
"","image-keyboard-response","193","70848","0.0-196.0","3TVRFO09GL1W8DC8QKF8WQ4AGWFLXS","A1KAOUCQHCB3WV","3SA4EMRVJVOCGON1OYE6FAUV3KKP05","","11","img/food4.png","75","11","2","1","3","2","1,0.5,0,1,0.5,0,0.5,0,1","0.5,0,1,0.5,0,1,0,1,0.5","2","false",""
"","html-keyboard-response","194","71150","0.0-197.0","3TVRFO09GL1W8DC8QKF8WQ4AGWFLXS","A1KAOUCQHCB3WV","3SA4EMRVJVOCGON1OYE6FAUV3KKP05","","null","<img src=""img/food4.png"" style=""width:200px; border:14px solid green;"">","null","","","","","","","","","",""
"","image-keyboard-response","195","71202","0.0-199.0","3TVRFO09GL1W8DC8QKF8WQ4AGWFLXS","A1KAOUCQHCB3WV","3SA4EMRVJVOCGON1OYE6FAUV3KKP05","","51","img/food1.png","75","51","2","0","2","2","1,0.5,0,1,0.5,0,0.5,0,1","0.5,0,1,0.5,0,1,0,1,0.5","2","false",""
"","html-keyboard-response","196","71506","0.0-200.0","3TVRFO09GL1W8DC8QKF8WQ4AGWFLXS","A1KAOUCQHCB3WV","3SA4EMRVJVOCGON1OYE6FAUV3KKP05","","null","<img src=""img/food1.png"" style=""width:200px;border:14px solid red;"">","null","","","","","","","","","",""
"","image-keyboard-response","197","71576","0.0-202.0","3TVRFO09GL1W8DC8QKF8WQ4AGWFLXS","A1KAOUCQHCB3WV","3SA4EMRVJVOCGON1OYE6FAUV3KKP05","","68","img/food5.png","75","69","2","0","1","2","1,0.5,0,1,0.5,0,0.5,0,1","0.5,0,1,0.5,0,1,0,1,0.5","2","false",""
"","html-keyboard-response","198","71877","0.0-203.0","3TVRFO09GL1W8DC8QKF8WQ4AGWFLXS","A1KAOUCQHCB3WV","3SA4EMRVJVOCGON1OYE6FAUV3KKP05","","null","<img src=""img/food5.png"" style=""width:200px;border:14px solid red;"">","null","","","","","","","","","",""
"","image-keyboard-response","199","71963","0.0-205.0","3TVRFO09GL1W8DC8QKF8WQ4AGWFLXS","A1KAOUCQHCB3WV","3SA4EMRVJVOCGON1OYE6FAUV3KKP05","","82","img/food5.png","75","85","2","0","1","2","1,0.5,0,1,0.5,0,0.5,0,1","0.5,0,1,0.5,0,1,0,1,0.5","2","false",""
"","html-keyboard-response","200","72265","0.0-206.0","3TVRFO09GL1W8DC8QKF8WQ4AGWFLXS","A1KAOUCQHCB3WV","3SA4EMRVJVOCGON1OYE6FAUV3KKP05","","null","<img src=""img/food5.png"" style=""width:200px;border:14px solid red;"">","null","","","","","","","","","",""
"","image-keyboard-response","201","72332","0.0-208.0","3TVRFO09GL1W8DC8QKF8WQ4AGWFLXS","A1KAOUCQHCB3WV","3SA4EMRVJVOCGON1OYE6FAUV3KKP05","","65","img/food5.png","75","66","2","0","1","2","1,0.5,0,1,0.5,0,0.5,0,1","0.5,0,1,0.5,0,1,0,1,0.5","2","false",""
"","html-keyboard-response","202","72635","0.0-209.0","3TVRFO09GL1W8DC8QKF8WQ4AGWFLXS","A1KAOUCQHCB3WV","3SA4EMRVJVOCGON1OYE6FAUV3KKP05","","null","<img src=""img/food5.png"" style=""width:200px;border:14px solid red;"">","null","","","","","","","","","",""
"","image-keyboard-response","203","72674","0.0-211.0","3TVRFO09GL1W8DC8QKF8WQ4AGWFLXS","A1KAOUCQHCB3WV","3SA4EMRVJVOCGON1OYE6FAUV3KKP05","","38","img/food4.png","75","38","2","1","3","2","1,0.5,0,1,0.5,0,0.5,0,1","0.5,0,1,0.5,0,1,0,1,0.5","2","false",""
"","html-keyboard-response","204","72975","0.0-212.0","3TVRFO09GL1W8DC8QKF8WQ4AGWFLXS","A1KAOUCQHCB3WV","3SA4EMRVJVOCGON1OYE6FAUV3KKP05","","null","<img src=""img/food4.png"" style=""width:200px; border:14px solid green;"">","null","","","","","","","","","",""
"","image-keyboard-response","205","73092","0.0-214.0","3TVRFO09GL1W8DC8QKF8WQ4AGWFLXS","A1KAOUCQHCB3WV","3SA4EMRVJVOCGON1OYE6FAUV3KKP05","","115","img/food4.png","75","116","2","1","3","2","1,0.5,0,1,0.5,0,0.5,0,1","0.5,0,1,0.5,0,1,0,1,0.5","2","false",""
"","html-keyboard-response","206","73395","0.0-215.0","3TVRFO09GL1W8DC8QKF8WQ4AGWFLXS","A1KAOUCQHCB3WV","3SA4EMRVJVOCGON1OYE6FAUV3KKP05","","null","<img src=""img/food4.png"" style=""width:200px; border:14px solid green;"">","null","","","","","","","","","",""
"","image-keyboard-response","207","73464","0.0-217.0","3TVRFO09GL1W8DC8QKF8WQ4AGWFLXS","A1KAOUCQHCB3WV","3SA4EMRVJVOCGON1OYE6FAUV3KKP05","","63","img/food5.png","75","65","2","0","1","2","1,0.5,0,1,0.5,0,0.5,0,1","0.5,0,1,0.5,0,1,0,1,0.5","2","false",""
"","html-keyboard-response","208","73765","0.0-218.0","3TVRFO09GL1W8DC8QKF8WQ4AGWFLXS","A1KAOUCQHCB3WV","3SA4EMRVJVOCGON1OYE6FAUV3KKP05","","null","<img src=""img/food5.png"" style=""width:200px;border:14px solid red;"">","null","","","","","","","","","",""
"","image-keyboard-response","209","73855","0.0-220.0","3TVRFO09GL1W8DC8QKF8WQ4AGWFLXS","A1KAOUCQHCB3WV","3SA4EMRVJVOCGON1OYE6FAUV3KKP05","","87","img/food1.png","75","89","2","0","2","2","1,0.5,0,1,0.5,0,0.5,0,1","0.5,0,1,0.5,0,1,0,1,0.5","2","false",""
"","html-keyboard-response","210","74248","0.0-221.0","3TVRFO09GL1W8DC8QKF8WQ4AGWFLXS","A1KAOUCQHCB3WV","3SA4EMRVJVOCGON1OYE6FAUV3KKP05","","null","<img src=""img/food1.png"" style=""width:200px;border:14px solid red;"">","null","","","","","","","","","",""
"","image-keyboard-response","211","74270","0.0-223.0","3TVRFO09GL1W8DC8QKF8WQ4AGWFLXS","A1KAOUCQHCB3WV","3SA4EMRVJVOCGON1OYE6FAUV3KKP05","","21","img/food5.png","76","23","3","1","1","2","1,0.5,0,1,0.5,0,0.5,0,1","0.5,0,1,0.5,0,1,0,1,0.5","2","false",""
"","html-keyboard-response","212","74679","0.0-224.0","3TVRFO09GL1W8DC8QKF8WQ4AGWFLXS","A1KAOUCQHCB3WV","3SA4EMRVJVOCGON1OYE6FAUV3KKP05","","null","<img src=""img/food5.png"" style=""width:200px; border:14px solid green;"">","null","","","","","","","","","",""
"","image-keyboard-response","213","74764","0.0-226.0","3TVRFO09GL1W8DC8QKF8WQ4AGWFLXS","A1KAOUCQHCB3WV","3SA4EMRVJVOCGON1OYE6FAUV3KKP05","","83","img/food1.png","75","84","2","0","2","2","1,0.5,0,1,0.5,0,0.5,0,1","0.5,0,1,0.5,0,1,0,1,0.5","2","false",""
"","html-keyboard-response","214","75065","0.0-227.0","3TVRFO09GL1W8DC8QKF8WQ4AGWFLXS","A1KAOUCQHCB3WV","3SA4EMRVJVOCGON1OYE6FAUV3KKP05","","null","<img src=""img/food1.png"" style=""width:200px;border:14px solid red;"">","null","","","","","","","","","",""
"","image-keyboard-response","215","75124","0.0-229.0","3TVRFO09GL1W8DC8QKF8WQ4AGWFLXS","A1KAOUCQHCB3WV","3SA4EMRVJVOCGON1OYE6FAUV3KKP05","","56","img/food1.png","76","57","3","1","2","2","1,0.5,0,1,0.5,0,0.5,0,1","0.5,0,1,0.5,0,1,0,1,0.5","2","false",""
"","html-keyboard-response","216","75426","0.0-230.0","3TVRFO09GL1W8DC8QKF8WQ4AGWFLXS","A1KAOUCQHCB3WV","3SA4EMRVJVOCGON1OYE6FAUV3KKP05","","null","<img src=""img/food1.png"" style=""width:200px; border:14px solid green;"">","null","","","","","","","","","",""
"","image-keyboard-response","217","75563","0.0-232.0","3TVRFO09GL1W8DC8QKF8WQ4AGWFLXS","A1KAOUCQHCB3WV","3SA4EMRVJVOCGON1OYE6FAUV3KKP05","","131","img/food5.png","76","133","3","1","1","2","1,0.5,0,1,0.5,0,0.5,0,1","0.5,0,1,0.5,0,1,0,1,0.5","2","false",""
"","html-keyboard-response","218","75866","0.0-233.0","3TVRFO09GL1W8DC8QKF8WQ4AGWFLXS","A1KAOUCQHCB3WV","3SA4EMRVJVOCGON1OYE6FAUV3KKP05","","null","<img src=""img/food5.png"" style=""width:200px; border:14px solid green;"">","null","","","","","","","","","",""
"","image-keyboard-response","219","75952","0.0-235.0","3TVRFO09GL1W8DC8QKF8WQ4AGWFLXS","A1KAOUCQHCB3WV","3SA4EMRVJVOCGON1OYE6FAUV3KKP05","","84","img/food5.png","75","86","2","0","1","2","1,0.5,0,1,0.5,0,0.5,0,1","0.5,0,1,0.5,0,1,0,1,0.5","2","false",""
"","html-keyboard-response","220","76256","0.0-236.0","3TVRFO09GL1W8DC8QKF8WQ4AGWFLXS","A1KAOUCQHCB3WV","3SA4EMRVJVOCGON1OYE6FAUV3KKP05","","null","<img src=""img/food5.png"" style=""width:200px;border:14px solid red;"">","null","","","","","","","","","",""
"","image-keyboard-response","221","76273","0.0-238.0","3TVRFO09GL1W8DC8QKF8WQ4AGWFLXS","A1KAOUCQHCB3WV","3SA4EMRVJVOCGON1OYE6FAUV3KKP05","","12","img/food1.png","76","15","3","1","2","2","1,0.5,0,1,0.5,0,0.5,0,1","0.5,0,1,0.5,0,1,0,1,0.5","2","false",""
"","html-keyboard-response","222","76576","0.0-239.0","3TVRFO09GL1W8DC8QKF8WQ4AGWFLXS","A1KAOUCQHCB3WV","3SA4EMRVJVOCGON1OYE6FAUV3KKP05","","null","<img src=""img/food1.png"" style=""width:200px; border:14px solid green;"">","null","","","","","","","","","",""
"","image-keyboard-response","223","76622","0.0-241.0","3TVRFO09GL1W8DC8QKF8WQ4AGWFLXS","A1KAOUCQHCB3WV","3SA4EMRVJVOCGON1OYE6FAUV3KKP05","","45","img/food5.png","75","46","2","0","1","2","1,0.5,0,1,0.5,0,0.5,0,1","0.5,0,1,0.5,0,1,0,1,0.5","2","false",""
"","html-keyboard-response","224","76925","0.0-242.0","3TVRFO09GL1W8DC8QKF8WQ4AGWFLXS","A1KAOUCQHCB3WV","3SA4EMRVJVOCGON1OYE6FAUV3KKP05","","null","<img src=""img/food5.png"" style=""width:200px;border:14px solid red;"">","null","","","","","","","","","",""
"","image-keyboard-response","225","77024","0.0-244.0","3TVRFO09GL1W8DC8QKF8WQ4AGWFLXS","A1KAOUCQHCB3WV","3SA4EMRVJVOCGON1OYE6FAUV3KKP05","","96","img/food4.png","75","98","2","1","3","2","1,0.5,0,1,0.5,0,0.5,0,1","0.5,0,1,0.5,0,1,0,1,0.5","2","false",""
"","html-keyboard-response","226","77340","0.0-245.0","3TVRFO09GL1W8DC8QKF8WQ4AGWFLXS","A1KAOUCQHCB3WV","3SA4EMRVJVOCGON1OYE6FAUV3KKP05","","null","<img src=""img/food4.png"" style=""width:200px; border:14px solid green;"">","null","","","","","","","","","",""
"","image-keyboard-response","227","77663","0.0-247.0","3TVRFO09GL1W8DC8QKF8WQ4AGWFLXS","A1KAOUCQHCB3WV","3SA4EMRVJVOCGON1OYE6FAUV3KKP05","","319","img/food5.png","76","322","3","1","1","2","1,0.5,0,1,0.5,0,0.5,0,1","0.5,0,1,0.5,0,1,0,1,0.5","2","false",""
"","html-keyboard-response","228","77989","0.0-248.0","3TVRFO09GL1W8DC8QKF8WQ4AGWFLXS","A1KAOUCQHCB3WV","3SA4EMRVJVOCGON1OYE6FAUV3KKP05","","null","<img src=""img/food5.png"" style=""width:200px; border:14px solid green;"">","null","","","","","","","","","",""
"","image-keyboard-response","229","77998","0.0-250.0","3TVRFO09GL1W8DC8QKF8WQ4AGWFLXS","A1KAOUCQHCB3WV","3SA4EMRVJVOCGON1OYE6FAUV3KKP05","","5","img/food4.png","75","6","2","1","3","2","1,0.5,0,1,0.5,0,0.5,0,1","0.5,0,1,0.5,0,1,0,1,0.5","2","false",""
"","html-keyboard-response","230","78303","0.0-251.0","3TVRFO09GL1W8DC8QKF8WQ4AGWFLXS","A1KAOUCQHCB3WV","3SA4EMRVJVOCGON1OYE6FAUV3KKP05","","null","<img src=""img/food4.png"" style=""width:200px; border:14px solid green;"">","null","","","","","","","","","",""
"","image-keyboard-response","231","78313","0.0-253.0","3TVRFO09GL1W8DC8QKF8WQ4AGWFLXS","A1KAOUCQHCB3WV","3SA4EMRVJVOCGON1OYE6FAUV3KKP05","","8","img/food4.png","75","9","2","1","3","2","1,0.5,0,1,0.5,0,0.5,0,1","0.5,0,1,0.5,0,1,0,1,0.5","2","false",""
"","html-keyboard-response","232","78615","0.0-254.0","3TVRFO09GL1W8DC8QKF8WQ4AGWFLXS","A1KAOUCQHCB3WV","3SA4EMRVJVOCGON1OYE6FAUV3KKP05","","null","<img src=""img/food4.png"" style=""width:200px; border:14px solid green;"">","null","","","","","","","","","",""
"","image-keyboard-response","233","78667","0.0-256.0","3TVRFO09GL1W8DC8QKF8WQ4AGWFLXS","A1KAOUCQHCB3WV","3SA4EMRVJVOCGON1OYE6FAUV3KKP05","","48","img/food4.png","76","50","3","1","3","2","1,0.5,0,1,0.5,0,0.5,0,1","0.5,0,1,0.5,0,1,0,1,0.5","2","false",""
"","html-keyboard-response","234","78969","0.0-257.0","3TVRFO09GL1W8DC8QKF8WQ4AGWFLXS","A1KAOUCQHCB3WV","3SA4EMRVJVOCGON1OYE6FAUV3KKP05","","null","<img src=""img/food4.png"" style=""width:200px; border:14px solid green;"">","null","","","","","","","","","",""
"","image-keyboard-response","235","78996","0.0-259.0","3TVRFO09GL1W8DC8QKF8WQ4AGWFLXS","A1KAOUCQHCB3WV","3SA4EMRVJVOCGON1OYE6FAUV3KKP05","","25","img/food5.png","75","26","2","0","1","2","1,0.5,0,1,0.5,0,0.5,0,1","0.5,0,1,0.5,0,1,0,1,0.5","2","false",""
"","html-keyboard-response","236","79302","0.0-260.0","3TVRFO09GL1W8DC8QKF8WQ4AGWFLXS","A1KAOUCQHCB3WV","3SA4EMRVJVOCGON1OYE6FAUV3KKP05","","null","<img src=""img/food5.png"" style=""width:200px;border:14px solid red;"">","null","","","","","","","","","",""
"","image-keyboard-response","237","79342","0.0-262.0","3TVRFO09GL1W8DC8QKF8WQ4AGWFLXS","A1KAOUCQHCB3WV","3SA4EMRVJVOCGON1OYE6FAUV3KKP05","","33","img/food4.png","76","35","3","1","3","2","1,0.5,0,1,0.5,0,0.5,0,1","0.5,0,1,0.5,0,1,0,1,0.5","2","false",""
"","html-keyboard-response","238","79646","0.0-263.0","3TVRFO09GL1W8DC8QKF8WQ4AGWFLXS","A1KAOUCQHCB3WV","3SA4EMRVJVOCGON1OYE6FAUV3KKP05","","null","<img src=""img/food4.png"" style=""width:200px; border:14px solid green;"">","null","","","","","","","","","",""
"","image-keyboard-response","239","79692","0.0-265.0","3TVRFO09GL1W8DC8QKF8WQ4AGWFLXS","A1KAOUCQHCB3WV","3SA4EMRVJVOCGON1OYE6FAUV3KKP05","","44","img/food4.png","75","45","2","1","3","2","1,0.5,0,1,0.5,0,0.5,0,1","0.5,0,1,0.5,0,1,0,1,0.5","2","false",""
"","html-keyboard-response","240","79995","0.0-266.0","3TVRFO09GL1W8DC8QKF8WQ4AGWFLXS","A1KAOUCQHCB3WV","3SA4EMRVJVOCGON1OYE6FAUV3KKP05","","null","<img src=""img/food4.png"" style=""width:200px; border:14px solid green;"">","null","","","","","","","","","",""
"","image-keyboard-response","241","80252","0.0-268.0","3TVRFO09GL1W8DC8QKF8WQ4AGWFLXS","A1KAOUCQHCB3WV","3SA4EMRVJVOCGON1OYE6FAUV3KKP05","","255","img/food1.png","75","258","2","0","2","2","1,0.5,0,1,0.5,0,0.5,0,1","0.5,0,1,0.5,0,1,0,1,0.5","2","false",""
"","html-keyboard-response","242","80811","0.0-269.0","3TVRFO09GL1W8DC8QKF8WQ4AGWFLXS","A1KAOUCQHCB3WV","3SA4EMRVJVOCGON1OYE6FAUV3KKP05","","null","<img src=""img/food1.png"" style=""width:200px;border:14px solid red;"">","null","","","","","","","","","",""
"","image-keyboard-response","243","80883","0.0-271.0","3TVRFO09GL1W8DC8QKF8WQ4AGWFLXS","A1KAOUCQHCB3WV","3SA4EMRVJVOCGON1OYE6FAUV3KKP05","","70","img/food5.png","75","71","2","0","1","2","1,0.5,0,1,0.5,0,0.5,0,1","0.5,0,1,0.5,0,1,0,1,0.5","2","false",""
"","html-keyboard-response","244","81185","0.0-272.0","3TVRFO09GL1W8DC8QKF8WQ4AGWFLXS","A1KAOUCQHCB3WV","3SA4EMRVJVOCGON1OYE6FAUV3KKP05","","null","<img src=""img/food5.png"" style=""width:200px;border:14px solid red;"">","null","","","","","","","","","",""
"","image-keyboard-response","245","81246","0.0-274.0","3TVRFO09GL1W8DC8QKF8WQ4AGWFLXS","A1KAOUCQHCB3WV","3SA4EMRVJVOCGON1OYE6FAUV3KKP05","","56","img/food1.png","75","59","2","0","2","2","1,0.5,0,1,0.5,0,0.5,0,1","0.5,0,1,0.5,0,1,0,1,0.5","2","false",""
"","html-keyboard-response","246","81547","0.0-275.0","3TVRFO09GL1W8DC8QKF8WQ4AGWFLXS","A1KAOUCQHCB3WV","3SA4EMRVJVOCGON1OYE6FAUV3KKP05","","null","<img src=""img/food1.png"" style=""width:200px;border:14px solid red;"">","null","","","","","","","","","",""
"","image-keyboard-response","247","81643","0.0-277.0","3TVRFO09GL1W8DC8QKF8WQ4AGWFLXS","A1KAOUCQHCB3WV","3SA4EMRVJVOCGON1OYE6FAUV3KKP05","","94","img/food1.png","75","94","2","0","2","2","1,0.5,0,1,0.5,0,0.5,0,1","0.5,0,1,0.5,0,1,0,1,0.5","2","false",""
"","html-keyboard-response","248","81946","0.0-278.0","3TVRFO09GL1W8DC8QKF8WQ4AGWFLXS","A1KAOUCQHCB3WV","3SA4EMRVJVOCGON1OYE6FAUV3KKP05","","null","<img src=""img/food1.png"" style=""width:200px;border:14px solid red;"">","null","","","","","","","","","",""
"","image-keyboard-response","249","82085","0.0-280.0","3TVRFO09GL1W8DC8QKF8WQ4AGWFLXS","A1KAOUCQHCB3WV","3SA4EMRVJVOCGON1OYE6FAUV3KKP05","","135","img/food1.png","75","137","2","0","2","2","1,0.5,0,1,0.5,0,0.5,0,1","0.5,0,1,0.5,0,1,0,1,0.5","2","false",""
"","html-keyboard-response","250","82388","0.0-281.0","3TVRFO09GL1W8DC8QKF8WQ4AGWFLXS","A1KAOUCQHCB3WV","3SA4EMRVJVOCGON1OYE6FAUV3KKP05","","null","<img src=""img/food1.png"" style=""width:200px;border:14px solid red;"">","null","","","","","","","","","",""
"","image-keyboard-response","251","82423","0.0-283.0","3TVRFO09GL1W8DC8QKF8WQ4AGWFLXS","A1KAOUCQHCB3WV","3SA4EMRVJVOCGON1OYE6FAUV3KKP05","","32","img/food5.png","76","34","3","1","1","2","1,0.5,0,1,0.5,0,0.5,0,1","0.5,0,1,0.5,0,1,0,1,0.5","2","false",""
"","html-keyboard-response","252","82726","0.0-284.0","3TVRFO09GL1W8DC8QKF8WQ4AGWFLXS","A1KAOUCQHCB3WV","3SA4EMRVJVOCGON1OYE6FAUV3KKP05","","null","<img src=""img/food5.png"" style=""width:200px; border:14px solid green;"">","null","","","","","","","","","",""
"","image-keyboard-response","253","82804","0.0-286.0","3TVRFO09GL1W8DC8QKF8WQ4AGWFLXS","A1KAOUCQHCB3WV","3SA4EMRVJVOCGON1OYE6FAUV3KKP05","","76","img/food1.png","75","78","2","0","2","2","1,0.5,0,1,0.5,0,0.5,0,1","0.5,0,1,0.5,0,1,0,1,0.5","2","false",""
"","html-keyboard-response","254","83106","0.0-287.0","3TVRFO09GL1W8DC8QKF8WQ4AGWFLXS","A1KAOUCQHCB3WV","3SA4EMRVJVOCGON1OYE6FAUV3KKP05","","null","<img src=""img/food1.png"" style=""width:200px;border:14px solid red;"">","null","","","","","","","","","",""
"","image-keyboard-response","255","83134","0.0-289.0","3TVRFO09GL1W8DC8QKF8WQ4AGWFLXS","A1KAOUCQHCB3WV","3SA4EMRVJVOCGON1OYE6FAUV3KKP05","","26","img/food4.png","76","26","3","1","3","2","1,0.5,0,1,0.5,0,0.5,0,1","0.5,0,1,0.5,0,1,0,1,0.5","2","false",""
"","html-keyboard-response","256","83437","0.0-290.0","3TVRFO09GL1W8DC8QKF8WQ4AGWFLXS","A1KAOUCQHCB3WV","3SA4EMRVJVOCGON1OYE6FAUV3KKP05","","null","<img src=""img/food4.png"" style=""width:200px; border:14px solid green;"">","null","","","","","","","","","",""
"","image-keyboard-response","257","83472","0.0-292.0","3TVRFO09GL1W8DC8QKF8WQ4AGWFLXS","A1KAOUCQHCB3WV","3SA4EMRVJVOCGON1OYE6FAUV3KKP05","","32","img/food5.png","75","34","2","0","1","2","1,0.5,0,1,0.5,0,0.5,0,1","0.5,0,1,0.5,0,1,0,1,0.5","2","false",""
"","html-keyboard-response","258","83775","0.0-293.0","3TVRFO09GL1W8DC8QKF8WQ4AGWFLXS","A1KAOUCQHCB3WV","3SA4EMRVJVOCGON1OYE6FAUV3KKP05","","null","<img src=""img/food5.png"" style=""width:200px;border:14px solid red;"">","null","","","","","","","","","",""
"","image-keyboard-response","259","83863","0.0-295.0","3TVRFO09GL1W8DC8QKF8WQ4AGWFLXS","A1KAOUCQHCB3WV","3SA4EMRVJVOCGON1OYE6FAUV3KKP05","","86","img/food1.png","76","87","3","1","2","2","1,0.5,0,1,0.5,0,0.5,0,1","0.5,0,1,0.5,0,1,0,1,0.5","2","false",""
"","html-keyboard-response","260","84238","0.0-296.0","3TVRFO09GL1W8DC8QKF8WQ4AGWFLXS","A1KAOUCQHCB3WV","3SA4EMRVJVOCGON1OYE6FAUV3KKP05","","null","<img src=""img/food1.png"" style=""width:200px; border:14px solid green;"">","null","","","","","","","","","",""
"","image-keyboard-response","261","84247","0.0-298.0","3TVRFO09GL1W8DC8QKF8WQ4AGWFLXS","A1KAOUCQHCB3WV","3SA4EMRVJVOCGON1OYE6FAUV3KKP05","","6","img/food5.png","75","8","2","0","1","2","1,0.5,0,1,0.5,0,0.5,0,1","0.5,0,1,0.5,0,1,0,1,0.5","2","false",""
"","html-keyboard-response","262","84722","0.0-299.0","3TVRFO09GL1W8DC8QKF8WQ4AGWFLXS","A1KAOUCQHCB3WV","3SA4EMRVJVOCGON1OYE6FAUV3KKP05","","null","<img src=""img/food5.png"" style=""width:200px;border:14px solid red;"">","null","","","","","","","","","",""
"","image-keyboard-response","263","84731","0.0-301.0","3TVRFO09GL1W8DC8QKF8WQ4AGWFLXS","A1KAOUCQHCB3WV","3SA4EMRVJVOCGON1OYE6FAUV3KKP05","","6","img/food4.png","76","8","3","0","3","2","1,0.5,0,1,0.5,0,0.5,0,1","0.5,0,1,0.5,0,1,0,1,0.5","2","false",""
"","html-keyboard-response","264","85032","0.0-302.0","3TVRFO09GL1W8DC8QKF8WQ4AGWFLXS","A1KAOUCQHCB3WV","3SA4EMRVJVOCGON1OYE6FAUV3KKP05","","null","<img src=""img/food4.png"" style=""width:200px;border:14px solid red;"">","null","","","","","","","","","",""
"","image-keyboard-response","265","85162","0.0-304.0","3TVRFO09GL1W8DC8QKF8WQ4AGWFLXS","A1KAOUCQHCB3WV","3SA4EMRVJVOCGON1OYE6FAUV3KKP05","","128","img/food1.png","75","129","2","0","2","2","1,0.5,0,1,0.5,0,0.5,0,1","0.5,0,1,0.5,0,1,0,1,0.5","2","false",""
"","html-keyboard-response","266","85465","0.0-305.0","3TVRFO09GL1W8DC8QKF8WQ4AGWFLXS","A1KAOUCQHCB3WV","3SA4EMRVJVOCGON1OYE6FAUV3KKP05","","null","<img src=""img/food1.png"" style=""width:200px;border:14px solid red;"">","null","","","","","","","","","",""
"","image-keyboard-response","267","85562","0.0-307.0","3TVRFO09GL1W8DC8QKF8WQ4AGWFLXS","A1KAOUCQHCB3WV","3SA4EMRVJVOCGON1OYE6FAUV3KKP05","","95","img/food4.png","76","97","3","0","3","2","1,0.5,0,1,0.5,0,0.5,0,1","0.5,0,1,0.5,0,1,0,1,0.5","2","false",""
"","html-keyboard-response","268","85865","0.0-308.0","3TVRFO09GL1W8DC8QKF8WQ4AGWFLXS","A1KAOUCQHCB3WV","3SA4EMRVJVOCGON1OYE6FAUV3KKP05","","null","<img src=""img/food4.png"" style=""width:200px;border:14px solid red;"">","null","","","","","","","","","",""
"","image-keyboard-response","269","85895","0.0-310.0","3TVRFO09GL1W8DC8QKF8WQ4AGWFLXS","A1KAOUCQHCB3WV","3SA4EMRVJVOCGON1OYE6FAUV3KKP05","","28","img/food5.png","75","29","2","0","1","2","1,0.5,0,1,0.5,0,0.5,0,1","0.5,0,1,0.5,0,1,0,1,0.5","2","false",""
"","html-keyboard-response","270","86200","0.0-311.0","3TVRFO09GL1W8DC8QKF8WQ4AGWFLXS","A1KAOUCQHCB3WV","3SA4EMRVJVOCGON1OYE6FAUV3KKP05","","null","<img src=""img/food5.png"" style=""width:200px;border:14px solid red;"">","null","","","","","","","","","",""
"","image-keyboard-response","271","86232","0.0-313.0","3TVRFO09GL1W8DC8QKF8WQ4AGWFLXS","A1KAOUCQHCB3WV","3SA4EMRVJVOCGON1OYE6FAUV3KKP05","","27","img/food1.png","76","30","3","1","2","2","1,0.5,0,1,0.5,0,0.5,0,1","0.5,0,1,0.5,0,1,0,1,0.5","2","false",""
"","html-keyboard-response","272","86534","0.0-314.0","3TVRFO09GL1W8DC8QKF8WQ4AGWFLXS","A1KAOUCQHCB3WV","3SA4EMRVJVOCGON1OYE6FAUV3KKP05","","null","<img src=""img/food1.png"" style=""width:200px; border:14px solid green;"">","null","","","","","","","","","",""
"","image-keyboard-response","273","86605","0.0-316.0","3TVRFO09GL1W8DC8QKF8WQ4AGWFLXS","A1KAOUCQHCB3WV","3SA4EMRVJVOCGON1OYE6FAUV3KKP05","","68","img/food4.png","75","70","2","1","3","2","1,0.5,0,1,0.5,0,0.5,0,1","0.5,0,1,0.5,0,1,0,1,0.5","2","false",""
"","html-keyboard-response","274","86907","0.0-317.0","3TVRFO09GL1W8DC8QKF8WQ4AGWFLXS","A1KAOUCQHCB3WV","3SA4EMRVJVOCGON1OYE6FAUV3KKP05","","null","<img src=""img/food4.png"" style=""width:200px; border:14px solid green;"">","null","","","","","","","","","",""
"","image-keyboard-response","275","86924","0.0-319.0","3TVRFO09GL1W8DC8QKF8WQ4AGWFLXS","A1KAOUCQHCB3WV","3SA4EMRVJVOCGON1OYE6FAUV3KKP05","","14","img/food5.png","76","16","3","1","1","2","1,0.5,0,1,0.5,0,0.5,0,1","0.5,0,1,0.5,0,1,0,1,0.5","2","false",""
"","html-keyboard-response","276","87227","0.0-320.0","3TVRFO09GL1W8DC8QKF8WQ4AGWFLXS","A1KAOUCQHCB3WV","3SA4EMRVJVOCGON1OYE6FAUV3KKP05","","null","<img src=""img/food5.png"" style=""width:200px; border:14px solid green;"">","null","","","","","","","","","",""
"","image-keyboard-response","277","87303","0.0-322.0","3TVRFO09GL1W8DC8QKF8WQ4AGWFLXS","A1KAOUCQHCB3WV","3SA4EMRVJVOCGON1OYE6FAUV3KKP05","","71","img/food1.png","75","72","2","0","2","2","1,0.5,0,1,0.5,0,0.5,0,1","0.5,0,1,0.5,0,1,0,1,0.5","2","false",""
"","html-keyboard-response","278","87608","0.0-323.0","3TVRFO09GL1W8DC8QKF8WQ4AGWFLXS","A1KAOUCQHCB3WV","3SA4EMRVJVOCGON1OYE6FAUV3KKP05","","null","<img src=""img/food1.png"" style=""width:200px;border:14px solid red;"">","null","","","","","","","","","",""
"","image-keyboard-response","279","87702","0.0-325.0","3TVRFO09GL1W8DC8QKF8WQ4AGWFLXS","A1KAOUCQHCB3WV","3SA4EMRVJVOCGON1OYE6FAUV3KKP05","","91","img/food1.png","76","92","3","1","2","2","1,0.5,0,1,0.5,0,0.5,0,1","0.5,0,1,0.5,0,1,0,1,0.5","2","false",""
"","html-keyboard-response","280","88004","0.0-326.0","3TVRFO09GL1W8DC8QKF8WQ4AGWFLXS","A1KAOUCQHCB3WV","3SA4EMRVJVOCGON1OYE6FAUV3KKP05","","null","<img src=""img/food1.png"" style=""width:200px; border:14px solid green;"">","null","","","","","","","","","",""
"","image-keyboard-response","281","88075","0.0-328.0","3TVRFO09GL1W8DC8QKF8WQ4AGWFLXS","A1KAOUCQHCB3WV","3SA4EMRVJVOCGON1OYE6FAUV3KKP05","","68","img/food1.png","75","69","2","0","2","2","1,0.5,0,1,0.5,0,0.5,0,1","0.5,0,1,0.5,0,1,0,1,0.5","2","false",""
"","html-keyboard-response","282","88378","0.0-329.0","3TVRFO09GL1W8DC8QKF8WQ4AGWFLXS","A1KAOUCQHCB3WV","3SA4EMRVJVOCGON1OYE6FAUV3KKP05","","null","<img src=""img/food1.png"" style=""width:200px;border:14px solid red;"">","null","","","","","","","","","",""
"","image-keyboard-response","283","88402","0.0-331.0","3TVRFO09GL1W8DC8QKF8WQ4AGWFLXS","A1KAOUCQHCB3WV","3SA4EMRVJVOCGON1OYE6FAUV3KKP05","","22","img/food5.png","76","24","3","1","1","2","1,0.5,0,1,0.5,0,0.5,0,1","0.5,0,1,0.5,0,1,0,1,0.5","2","false",""
"","html-keyboard-response","284","88819","0.0-332.0","3TVRFO09GL1W8DC8QKF8WQ4AGWFLXS","A1KAOUCQHCB3WV","3SA4EMRVJVOCGON1OYE6FAUV3KKP05","","null","<img src=""img/food5.png"" style=""width:200px; border:14px solid green;"">","null","","","","","","","","","",""
"","image-keyboard-response","285","88953","0.0-334.0","3TVRFO09GL1W8DC8QKF8WQ4AGWFLXS","A1KAOUCQHCB3WV","3SA4EMRVJVOCGON1OYE6FAUV3KKP05","","131","img/food1.png","76","133","3","1","2","2","1,0.5,0,1,0.5,0,0.5,0,1","0.5,0,1,0.5,0,1,0,1,0.5","2","false",""
"","html-keyboard-response","286","89255","0.0-335.0","3TVRFO09GL1W8DC8QKF8WQ4AGWFLXS","A1KAOUCQHCB3WV","3SA4EMRVJVOCGON1OYE6FAUV3KKP05","","null","<img src=""img/food1.png"" style=""width:200px; border:14px solid green;"">","null","","","","","","","","","",""
"","image-keyboard-response","287","89262","0.0-337.0","3TVRFO09GL1W8DC8QKF8WQ4AGWFLXS","A1KAOUCQHCB3WV","3SA4EMRVJVOCGON1OYE6FAUV3KKP05","","4","img/food4.png","75","6","2","1","3","2","1,0.5,0,1,0.5,0,0.5,0,1","0.5,0,1,0.5,0,1,0,1,0.5","2","false",""
"","html-keyboard-response","288","89563","0.0-338.0","3TVRFO09GL1W8DC8QKF8WQ4AGWFLXS","A1KAOUCQHCB3WV","3SA4EMRVJVOCGON1OYE6FAUV3KKP05","","null","<img src=""img/food4.png"" style=""width:200px; border:14px solid green;"">","null","","","","","","","","","",""
"","image-keyboard-response","289","89642","0.0-340.0","3TVRFO09GL1W8DC8QKF8WQ4AGWFLXS","A1KAOUCQHCB3WV","3SA4EMRVJVOCGON1OYE6FAUV3KKP05","","77","img/food1.png","76","79","3","1","2","2","1,0.5,0,1,0.5,0,0.5,0,1","0.5,0,1,0.5,0,1,0,1,0.5","2","false",""
"","html-keyboard-response","290","89944","0.0-341.0","3TVRFO09GL1W8DC8QKF8WQ4AGWFLXS","A1KAOUCQHCB3WV","3SA4EMRVJVOCGON1OYE6FAUV3KKP05","","null","<img src=""img/food1.png"" style=""width:200px; border:14px solid green;"">","null","","","","","","","","","",""
"","image-keyboard-response","291","90045","0.0-343.0","3TVRFO09GL1W8DC8QKF8WQ4AGWFLXS","A1KAOUCQHCB3WV","3SA4EMRVJVOCGON1OYE6FAUV3KKP05","","98","img/food1.png","75","100","2","0","2","2","1,0.5,0,1,0.5,0,0.5,0,1","0.5,0,1,0.5,0,1,0,1,0.5","2","false",""
"","html-keyboard-response","292","90346","0.0-344.0","3TVRFO09GL1W8DC8QKF8WQ4AGWFLXS","A1KAOUCQHCB3WV","3SA4EMRVJVOCGON1OYE6FAUV3KKP05","","null","<img src=""img/food1.png"" style=""width:200px;border:14px solid red;"">","null","","","","","","","","","",""
"","image-keyboard-response","293","90382","0.0-346.0","3TVRFO09GL1W8DC8QKF8WQ4AGWFLXS","A1KAOUCQHCB3WV","3SA4EMRVJVOCGON1OYE6FAUV3KKP05","","34","img/food1.png","76","35","3","1","2","2","1,0.5,0,1,0.5,0,0.5,0,1","0.5,0,1,0.5,0,1,0,1,0.5","2","false",""
"","html-keyboard-response","294","90684","0.0-347.0","3TVRFO09GL1W8DC8QKF8WQ4AGWFLXS","A1KAOUCQHCB3WV","3SA4EMRVJVOCGON1OYE6FAUV3KKP05","","null","<img src=""img/food1.png"" style=""width:200px; border:14px solid green;"">","null","","","","","","","","","",""
"","image-keyboard-response","295","90748","0.0-349.0","3TVRFO09GL1W8DC8QKF8WQ4AGWFLXS","A1KAOUCQHCB3WV","3SA4EMRVJVOCGON1OYE6FAUV3KKP05","","61","img/food1.png","75","62","2","0","2","2","1,0.5,0,1,0.5,0,0.5,0,1","0.5,0,1,0.5,0,1,0,1,0.5","2","false",""
"","html-keyboard-response","296","91051","0.0-350.0","3TVRFO09GL1W8DC8QKF8WQ4AGWFLXS","A1KAOUCQHCB3WV","3SA4EMRVJVOCGON1OYE6FAUV3KKP05","","null","<img src=""img/food1.png"" style=""width:200px;border:14px solid red;"">","null","","","","","","","","","",""
"","image-keyboard-response","297","91073","0.0-352.0","3TVRFO09GL1W8DC8QKF8WQ4AGWFLXS","A1KAOUCQHCB3WV","3SA4EMRVJVOCGON1OYE6FAUV3KKP05","","19","img/food5.png","76","21","3","1","1","2","1,0.5,0,1,0.5,0,0.5,0,1","0.5,0,1,0.5,0,1,0,1,0.5","2","false",""
"","html-keyboard-response","298","91375","0.0-353.0","3TVRFO09GL1W8DC8QKF8WQ4AGWFLXS","A1KAOUCQHCB3WV","3SA4EMRVJVOCGON1OYE6FAUV3KKP05","","null","<img src=""img/food5.png"" style=""width:200px; border:14px solid green;"">","null","","","","","","","","","",""
"","image-keyboard-response","299","91452","0.0-355.0","3TVRFO09GL1W8DC8QKF8WQ4AGWFLXS","A1KAOUCQHCB3WV","3SA4EMRVJVOCGON1OYE6FAUV3KKP05","","74","img/food5.png","75","75","2","0","1","2","1,0.5,0,1,0.5,0,0.5,0,1","0.5,0,1,0.5,0,1,0,1,0.5","2","false",""
"","html-keyboard-response","300","91753","0.0-356.0","3TVRFO09GL1W8DC8QKF8WQ4AGWFLXS","A1KAOUCQHCB3WV","3SA4EMRVJVOCGON1OYE6FAUV3KKP05","","null","<img src=""img/food5.png"" style=""width:200px;border:14px solid red;"">","null","","","","","","","","","",""
"","image-keyboard-response","301","91882","0.0-358.0","3TVRFO09GL1W8DC8QKF8WQ4AGWFLXS","A1KAOUCQHCB3WV","3SA4EMRVJVOCGON1OYE6FAUV3KKP05","","127","img/food5.png","76","128","3","1","1","2","1,0.5,0,1,0.5,0,0.5,0,1","0.5,0,1,0.5,0,1,0,1,0.5","2","false",""
"","html-keyboard-response","302","92185","0.0-359.0","3TVRFO09GL1W8DC8QKF8WQ4AGWFLXS","A1KAOUCQHCB3WV","3SA4EMRVJVOCGON1OYE6FAUV3KKP05","","null","<img src=""img/food5.png"" style=""width:200px; border:14px solid green;"">","null","","","","","","","","","",""
"","image-keyboard-response","303","92322","0.0-361.0","3TVRFO09GL1W8DC8QKF8WQ4AGWFLXS","A1KAOUCQHCB3WV","3SA4EMRVJVOCGON1OYE6FAUV3KKP05","","134","img/food5.png","76","135","3","1","1","2","1,0.5,0,1,0.5,0,0.5,0,1","0.5,0,1,0.5,0,1,0,1,0.5","2","false",""
"","html-keyboard-response","304","92624","0.0-362.0","3TVRFO09GL1W8DC8QKF8WQ4AGWFLXS","A1KAOUCQHCB3WV","3SA4EMRVJVOCGON1OYE6FAUV3KKP05","","null","<img src=""img/food5.png"" style=""width:200px; border:14px solid green;"">","null","","","","","","","","","",""
"","image-keyboard-response","305","92654","0.0-364.0","3TVRFO09GL1W8DC8QKF8WQ4AGWFLXS","A1KAOUCQHCB3WV","3SA4EMRVJVOCGON1OYE6FAUV3KKP05","","27","img/food4.png","75","28","2","1","3","2","1,0.5,0,1,0.5,0,0.5,0,1","0.5,0,1,0.5,0,1,0,1,0.5","2","false",""
"","html-keyboard-response","306","92957","0.0-365.0","3TVRFO09GL1W8DC8QKF8WQ4AGWFLXS","A1KAOUCQHCB3WV","3SA4EMRVJVOCGON1OYE6FAUV3KKP05","","null","<img src=""img/food4.png"" style=""width:200px; border:14px solid green;"">","null","","","","","","","","","",""
"","image-keyboard-response","307","93092","0.0-367.0","3TVRFO09GL1W8DC8QKF8WQ4AGWFLXS","A1KAOUCQHCB3WV","3SA4EMRVJVOCGON1OYE6FAUV3KKP05","","133","img/food5.png","75","135","2","0","1","2","1,0.5,0,1,0.5,0,0.5,0,1","0.5,0,1,0.5,0,1,0,1,0.5","2","false",""
"","html-keyboard-response","308","93400","0.0-368.0","3TVRFO09GL1W8DC8QKF8WQ4AGWFLXS","A1KAOUCQHCB3WV","3SA4EMRVJVOCGON1OYE6FAUV3KKP05","","null","<img src=""img/food5.png"" style=""width:200px;border:14px solid red;"">","null","","","","","","","","","",""
"","image-keyboard-response","309","93548","0.0-370.0","3TVRFO09GL1W8DC8QKF8WQ4AGWFLXS","A1KAOUCQHCB3WV","3SA4EMRVJVOCGON1OYE6FAUV3KKP05","","145","img/food4.png","76","146","3","0","3","2","1,0.5,0,1,0.5,0,0.5,0,1","0.5,0,1,0.5,0,1,0,1,0.5","2","false",""
"","html-keyboard-response","310","93862","0.0-371.0","3TVRFO09GL1W8DC8QKF8WQ4AGWFLXS","A1KAOUCQHCB3WV","3SA4EMRVJVOCGON1OYE6FAUV3KKP05","","null","<img src=""img/food4.png"" style=""width:200px;border:14px solid red;"">","null","","","","","","","","","",""
"","image-keyboard-response","311","94020","0.0-373.0","3TVRFO09GL1W8DC8QKF8WQ4AGWFLXS","A1KAOUCQHCB3WV","3SA4EMRVJVOCGON1OYE6FAUV3KKP05","","155","img/food4.png","75","157","2","1","3","2","1,0.5,0,1,0.5,0,0.5,0,1","0.5,0,1,0.5,0,1,0,1,0.5","2","false",""
"","html-keyboard-response","312","94323","0.0-374.0","3TVRFO09GL1W8DC8QKF8WQ4AGWFLXS","A1KAOUCQHCB3WV","3SA4EMRVJVOCGON1OYE6FAUV3KKP05","","null","<img src=""img/food4.png"" style=""width:200px; border:14px solid green;"">","null","","","","","","","","","",""
"","image-keyboard-response","313","94366","0.0-376.0","3TVRFO09GL1W8DC8QKF8WQ4AGWFLXS","A1KAOUCQHCB3WV","3SA4EMRVJVOCGON1OYE6FAUV3KKP05","","42","img/food4.png","75","42","2","1","3","2","1,0.5,0,1,0.5,0,0.5,0,1","0.5,0,1,0.5,0,1,0,1,0.5","2","false",""
"","html-keyboard-response","314","94673","0.0-377.0","3TVRFO09GL1W8DC8QKF8WQ4AGWFLXS","A1KAOUCQHCB3WV","3SA4EMRVJVOCGON1OYE6FAUV3KKP05","","null","<img src=""img/food4.png"" style=""width:200px; border:14px solid green;"">","null","","","","","","","","","",""
"","image-keyboard-response","315","94752","0.0-379.0","3TVRFO09GL1W8DC8QKF8WQ4AGWFLXS","A1KAOUCQHCB3WV","3SA4EMRVJVOCGON1OYE6FAUV3KKP05","","77","img/food1.png","75","78","2","0","2","2","1,0.5,0,1,0.5,0,0.5,0,1","0.5,0,1,0.5,0,1,0,1,0.5","2","false",""
"","html-keyboard-response","316","95055","0.0-380.0","3TVRFO09GL1W8DC8QKF8WQ4AGWFLXS","A1KAOUCQHCB3WV","3SA4EMRVJVOCGON1OYE6FAUV3KKP05","","null","<img src=""img/food1.png"" style=""width:200px;border:14px solid red;"">","null","","","","","","","","","",""
"","image-keyboard-response","317","95173","0.0-382.0","3TVRFO09GL1W8DC8QKF8WQ4AGWFLXS","A1KAOUCQHCB3WV","3SA4EMRVJVOCGON1OYE6FAUV3KKP05","","115","img/food5.png","76","117","3","1","1","2","1,0.5,0,1,0.5,0,0.5,0,1","0.5,0,1,0.5,0,1,0,1,0.5","2","false",""
"","html-keyboard-response","318","95476","0.0-383.0","3TVRFO09GL1W8DC8QKF8WQ4AGWFLXS","A1KAOUCQHCB3WV","3SA4EMRVJVOCGON1OYE6FAUV3KKP05","","null","<img src=""img/food5.png"" style=""width:200px; border:14px solid green;"">","null","","","","","","","","","",""
"","image-keyboard-response","319","95592","0.0-385.0","3TVRFO09GL1W8DC8QKF8WQ4AGWFLXS","A1KAOUCQHCB3WV","3SA4EMRVJVOCGON1OYE6FAUV3KKP05","","113","img/food1.png","76","114","3","1","2","2","1,0.5,0,1,0.5,0,0.5,0,1","0.5,0,1,0.5,0,1,0,1,0.5","2","false",""
"","html-keyboard-response","320","95895","0.0-386.0","3TVRFO09GL1W8DC8QKF8WQ4AGWFLXS","A1KAOUCQHCB3WV","3SA4EMRVJVOCGON1OYE6FAUV3KKP05","","null","<img src=""img/food1.png"" style=""width:200px; border:14px solid green;"">","null","","","","","","","","","",""
"","image-keyboard-response","321","95912","0.0-388.0","3TVRFO09GL1W8DC8QKF8WQ4AGWFLXS","A1KAOUCQHCB3WV","3SA4EMRVJVOCGON1OYE6FAUV3KKP05","","14","img/food5.png","76","15","3","1","1","2","1,0.5,0,1,0.5,0,0.5,0,1","0.5,0,1,0.5,0,1,0,1,0.5","2","false",""
"","html-keyboard-response","322","96214","0.0-389.0","3TVRFO09GL1W8DC8QKF8WQ4AGWFLXS","A1KAOUCQHCB3WV","3SA4EMRVJVOCGON1OYE6FAUV3KKP05","","null","<img src=""img/food5.png"" style=""width:200px; border:14px solid green;"">","null","","","","","","","","","",""
"","image-keyboard-response","323","96240","0.0-391.0","3TVRFO09GL1W8DC8QKF8WQ4AGWFLXS","A1KAOUCQHCB3WV","3SA4EMRVJVOCGON1OYE6FAUV3KKP05","","19","img/food1.png","75","23","2","0","2","2","1,0.5,0,1,0.5,0,0.5,0,1","0.5,0,1,0.5,0,1,0,1,0.5","2","false",""
"","html-keyboard-response","324","96542","0.0-392.0","3TVRFO09GL1W8DC8QKF8WQ4AGWFLXS","A1KAOUCQHCB3WV","3SA4EMRVJVOCGON1OYE6FAUV3KKP05","","null","<img src=""img/food1.png"" style=""width:200px;border:14px solid red;"">","null","","","","","","","","","",""
"","image-keyboard-response","325","96553","0.0-394.0","3TVRFO09GL1W8DC8QKF8WQ4AGWFLXS","A1KAOUCQHCB3WV","3SA4EMRVJVOCGON1OYE6FAUV3KKP05","","10","img/food1.png","76","11","3","1","2","2","1,0.5,0,1,0.5,0,0.5,0,1","0.5,0,1,0.5,0,1,0,1,0.5","2","false",""
"","html-keyboard-response","326","96856","0.0-395.0","3TVRFO09GL1W8DC8QKF8WQ4AGWFLXS","A1KAOUCQHCB3WV","3SA4EMRVJVOCGON1OYE6FAUV3KKP05","","null","<img src=""img/food1.png"" style=""width:200px; border:14px solid green;"">","null","","","","","","","","","",""
"","image-keyboard-response","327","96915","0.0-397.0","3TVRFO09GL1W8DC8QKF8WQ4AGWFLXS","A1KAOUCQHCB3WV","3SA4EMRVJVOCGON1OYE6FAUV3KKP05","","57","img/food4.png","75","58","2","1","3","2","1,0.5,0,1,0.5,0,0.5,0,1","0.5,0,1,0.5,0,1,0,1,0.5","2","false",""
"","html-keyboard-response","328","97304","0.0-398.0","3TVRFO09GL1W8DC8QKF8WQ4AGWFLXS","A1KAOUCQHCB3WV","3SA4EMRVJVOCGON1OYE6FAUV3KKP05","","null","<img src=""img/food4.png"" style=""width:200px; border:14px solid green;"">","null","","","","","","","","","",""
"","image-keyboard-response","329","97318","0.0-400.0","3TVRFO09GL1W8DC8QKF8WQ4AGWFLXS","A1KAOUCQHCB3WV","3SA4EMRVJVOCGON1OYE6FAUV3KKP05","","11","img/food1.png","75","15","2","0","2","2","1,0.5,0,1,0.5,0,0.5,0,1","0.5,0,1,0.5,0,1,0,1,0.5","2","false",""
"","html-keyboard-response","330","97622","0.0-401.0","3TVRFO09GL1W8DC8QKF8WQ4AGWFLXS","A1KAOUCQHCB3WV","3SA4EMRVJVOCGON1OYE6FAUV3KKP05","","null","<img src=""img/food1.png"" style=""width:200px;border:14px solid red;"">","null","","","","","","","","","",""
"","image-keyboard-response","331","97632","0.0-403.0","3TVRFO09GL1W8DC8QKF8WQ4AGWFLXS","A1KAOUCQHCB3WV","3SA4EMRVJVOCGON1OYE6FAUV3KKP05","","7","img/food4.png","76","9","3","0","3","2","1,0.5,0,1,0.5,0,0.5,0,1","0.5,0,1,0.5,0,1,0,1,0.5","2","false",""
"","html-keyboard-response","332","97935","0.0-404.0","3TVRFO09GL1W8DC8QKF8WQ4AGWFLXS","A1KAOUCQHCB3WV","3SA4EMRVJVOCGON1OYE6FAUV3KKP05","","null","<img src=""img/food4.png"" style=""width:200px;border:14px solid red;"">","null","","","","","","","","","",""
"","image-keyboard-response","333","98014","0.0-406.0","3TVRFO09GL1W8DC8QKF8WQ4AGWFLXS","A1KAOUCQHCB3WV","3SA4EMRVJVOCGON1OYE6FAUV3KKP05","","75","img/food4.png","75","77","2","1","3","2","1,0.5,0,1,0.5,0,0.5,0,1","0.5,0,1,0.5,0,1,0,1,0.5","2","false",""
"","html-keyboard-response","334","98317","0.0-407.0","3TVRFO09GL1W8DC8QKF8WQ4AGWFLXS","A1KAOUCQHCB3WV","3SA4EMRVJVOCGON1OYE6FAUV3KKP05","","null","<img src=""img/food4.png"" style=""width:200px; border:14px solid green;"">","null","","","","","","","","","",""
"","image-keyboard-response","335","98328","0.0-409.0","3TVRFO09GL1W8DC8QKF8WQ4AGWFLXS","A1KAOUCQHCB3WV","3SA4EMRVJVOCGON1OYE6FAUV3KKP05","","9","img/food4.png","76","12","3","0","3","2","1,0.5,0,1,0.5,0,0.5,0,1","0.5,0,1,0.5,0,1,0,1,0.5","2","false",""
"","html-keyboard-response","336","98632","0.0-410.0","3TVRFO09GL1W8DC8QKF8WQ4AGWFLXS","A1KAOUCQHCB3WV","3SA4EMRVJVOCGON1OYE6FAUV3KKP05","","null","<img src=""img/food4.png"" style=""width:200px;border:14px solid red;"">","null","","","","","","","","","",""
"","image-keyboard-response","337","98652","0.0-412.0","3TVRFO09GL1W8DC8QKF8WQ4AGWFLXS","A1KAOUCQHCB3WV","3SA4EMRVJVOCGON1OYE6FAUV3KKP05","","18","img/food4.png","75","20","2","1","3","2","1,0.5,0,1,0.5,0,0.5,0,1","0.5,0,1,0.5,0,1,0,1,0.5","2","false",""
"","html-keyboard-response","338","98955","0.0-413.0","3TVRFO09GL1W8DC8QKF8WQ4AGWFLXS","A1KAOUCQHCB3WV","3SA4EMRVJVOCGON1OYE6FAUV3KKP05","","null","<img src=""img/food4.png"" style=""width:200px; border:14px solid green;"">","null","","","","","","","","","",""
"","image-keyboard-response","339","98962","0.0-415.0","3TVRFO09GL1W8DC8QKF8WQ4AGWFLXS","A1KAOUCQHCB3WV","3SA4EMRVJVOCGON1OYE6FAUV3KKP05","","5","img/food5.png","75","5","2","0","1","2","1,0.5,0,1,0.5,0,0.5,0,1","0.5,0,1,0.5,0,1,0,1,0.5","2","false",""
"","html-keyboard-response","340","99263","0.0-416.0","3TVRFO09GL1W8DC8QKF8WQ4AGWFLXS","A1KAOUCQHCB3WV","3SA4EMRVJVOCGON1OYE6FAUV3KKP05","","null","<img src=""img/food5.png"" style=""width:200px;border:14px solid red;"">","null","","","","","","","","","",""
"","image-keyboard-response","341","99322","0.0-418.0","3TVRFO09GL1W8DC8QKF8WQ4AGWFLXS","A1KAOUCQHCB3WV","3SA4EMRVJVOCGON1OYE6FAUV3KKP05","","57","img/food4.png","76","58","3","1","3","2","1,0.5,0,1,0.5,0,0.5,0,1","0.5,0,1,0.5,0,1,0,1,0.5","2","false",""
"","html-keyboard-response","342","99625","0.0-419.0","3TVRFO09GL1W8DC8QKF8WQ4AGWFLXS","A1KAOUCQHCB3WV","3SA4EMRVJVOCGON1OYE6FAUV3KKP05","","null","<img src=""img/food4.png"" style=""width:200px; border:14px solid green;"">","null","","","","","","","","","",""
"","image-keyboard-response","343","99656","0.0-421.0","3TVRFO09GL1W8DC8QKF8WQ4AGWFLXS","A1KAOUCQHCB3WV","3SA4EMRVJVOCGON1OYE6FAUV3KKP05","","21","img/food4.png","75","26","2","1","3","2","1,0.5,0,1,0.5,0,0.5,0,1","0.5,0,1,0.5,0,1,0,1,0.5","2","false",""
"","html-keyboard-response","344","100191","0.0-422.0","3TVRFO09GL1W8DC8QKF8WQ4AGWFLXS","A1KAOUCQHCB3WV","3SA4EMRVJVOCGON1OYE6FAUV3KKP05","","null","<img src=""img/food4.png"" style=""width:200px; border:14px solid green;"">","null","","","","","","","","","",""
"","image-keyboard-response","345","100202","0.0-424.0","3TVRFO09GL1W8DC8QKF8WQ4AGWFLXS","A1KAOUCQHCB3WV","3SA4EMRVJVOCGON1OYE6FAUV3KKP05","","8","img/food1.png","76","10","3","1","2","2","1,0.5,0,1,0.5,0,0.5,0,1","0.5,0,1,0.5,0,1,0,1,0.5","2","false",""
"","html-keyboard-response","346","100505","0.0-425.0","3TVRFO09GL1W8DC8QKF8WQ4AGWFLXS","A1KAOUCQHCB3WV","3SA4EMRVJVOCGON1OYE6FAUV3KKP05","","null","<img src=""img/food1.png"" style=""width:200px; border:14px solid green;"">","null","","","","","","","","","",""
"","image-keyboard-response","347","100624","0.0-427.0","3TVRFO09GL1W8DC8QKF8WQ4AGWFLXS","A1KAOUCQHCB3WV","3SA4EMRVJVOCGON1OYE6FAUV3KKP05","","116","img/food4.png","75","117","2","1","3","2","1,0.5,0,1,0.5,0,0.5,0,1","0.5,0,1,0.5,0,1,0,1,0.5","2","false",""
"","html-keyboard-response","348","100927","0.0-428.0","3TVRFO09GL1W8DC8QKF8WQ4AGWFLXS","A1KAOUCQHCB3WV","3SA4EMRVJVOCGON1OYE6FAUV3KKP05","","null","<img src=""img/food4.png"" style=""width:200px; border:14px solid green;"">","null","","","","","","","","","",""
"","image-keyboard-response","349","101062","0.0-430.0","3TVRFO09GL1W8DC8QKF8WQ4AGWFLXS","A1KAOUCQHCB3WV","3SA4EMRVJVOCGON1OYE6FAUV3KKP05","","133","img/food5.png","76","133","3","1","1","2","1,0.5,0,1,0.5,0,0.5,0,1","0.5,0,1,0.5,0,1,0,1,0.5","2","false",""
"","html-keyboard-response","350","101365","0.0-431.0","3TVRFO09GL1W8DC8QKF8WQ4AGWFLXS","A1KAOUCQHCB3WV","3SA4EMRVJVOCGON1OYE6FAUV3KKP05","","null","<img src=""img/food5.png"" style=""width:200px; border:14px solid green;"">","null","","","","","","","","","",""
"","image-keyboard-response","351","101503","0.0-433.0","3TVRFO09GL1W8DC8QKF8WQ4AGWFLXS","A1KAOUCQHCB3WV","3SA4EMRVJVOCGON1OYE6FAUV3KKP05","","135","img/food4.png","76","137","3","0","3","2","1,0.5,0,1,0.5,0,0.5,0,1","0.5,0,1,0.5,0,1,0,1,0.5","2","false",""
"","html-keyboard-response","352","101804","0.0-434.0","3TVRFO09GL1W8DC8QKF8WQ4AGWFLXS","A1KAOUCQHCB3WV","3SA4EMRVJVOCGON1OYE6FAUV3KKP05","","null","<img src=""img/food4.png"" style=""width:200px;border:14px solid red;"">","null","","","","","","","","","",""
"","image-keyboard-response","353","101912","0.0-436.0","3TVRFO09GL1W8DC8QKF8WQ4AGWFLXS","A1KAOUCQHCB3WV","3SA4EMRVJVOCGON1OYE6FAUV3KKP05","","106","img/food1.png","76","107","3","1","2","2","1,0.5,0,1,0.5,0,0.5,0,1","0.5,0,1,0.5,0,1,0,1,0.5","2","false",""
"","html-keyboard-response","354","102215","0.0-437.0","3TVRFO09GL1W8DC8QKF8WQ4AGWFLXS","A1KAOUCQHCB3WV","3SA4EMRVJVOCGON1OYE6FAUV3KKP05","","null","<img src=""img/food1.png"" style=""width:200px; border:14px solid green;"">","null","","","","","","","","","",""
"","image-keyboard-response","355","102302","0.0-439.0","3TVRFO09GL1W8DC8QKF8WQ4AGWFLXS","A1KAOUCQHCB3WV","3SA4EMRVJVOCGON1OYE6FAUV3KKP05","","85","img/food5.png","76","86","3","1","1","2","1,0.5,0,1,0.5,0,0.5,0,1","0.5,0,1,0.5,0,1,0,1,0.5","2","false",""
"","html-keyboard-response","356","102605","0.0-440.0","3TVRFO09GL1W8DC8QKF8WQ4AGWFLXS","A1KAOUCQHCB3WV","3SA4EMRVJVOCGON1OYE6FAUV3KKP05","","null","<img src=""img/food5.png"" style=""width:200px; border:14px solid green;"">","null","","","","","","","","","",""
"","image-keyboard-response","357","102622","0.0-442.0","3TVRFO09GL1W8DC8QKF8WQ4AGWFLXS","A1KAOUCQHCB3WV","3SA4EMRVJVOCGON1OYE6FAUV3KKP05","","14","img/food4.png","75","15","2","1","3","2","1,0.5,0,1,0.5,0,0.5,0,1","0.5,0,1,0.5,0,1,0,1,0.5","2","false",""
"","html-keyboard-response","358","102931","0.0-443.0","3TVRFO09GL1W8DC8QKF8WQ4AGWFLXS","A1KAOUCQHCB3WV","3SA4EMRVJVOCGON1OYE6FAUV3KKP05","","null","<img src=""img/food4.png"" style=""width:200px; border:14px solid green;"">","null","","","","","","","","","",""
"","image-keyboard-response","359","102946","0.0-445.0","3TVRFO09GL1W8DC8QKF8WQ4AGWFLXS","A1KAOUCQHCB3WV","3SA4EMRVJVOCGON1OYE6FAUV3KKP05","","13","img/food5.png","76","15","3","1","1","2","1,0.5,0,1,0.5,0,0.5,0,1","0.5,0,1,0.5,0,1,0,1,0.5","2","false",""
"","html-keyboard-response","360","103254","0.0-446.0","3TVRFO09GL1W8DC8QKF8WQ4AGWFLXS","A1KAOUCQHCB3WV","3SA4EMRVJVOCGON1OYE6FAUV3KKP05","","null","<img src=""img/food5.png"" style=""width:200px; border:14px solid green;"">","null","","","","","","","","","",""
"","image-keyboard-response","361","103294","0.0-448.0","3TVRFO09GL1W8DC8QKF8WQ4AGWFLXS","A1KAOUCQHCB3WV","3SA4EMRVJVOCGON1OYE6FAUV3KKP05","","33","img/food1.png","75","38","2","0","2","2","1,0.5,0,1,0.5,0,0.5,0,1","0.5,0,1,0.5,0,1,0,1,0.5","2","false",""
"","html-keyboard-response","362","103597","0.0-449.0","3TVRFO09GL1W8DC8QKF8WQ4AGWFLXS","A1KAOUCQHCB3WV","3SA4EMRVJVOCGON1OYE6FAUV3KKP05","","null","<img src=""img/food1.png"" style=""width:200px;border:14px solid red;"">","null","","","","","","","","","",""
"","image-keyboard-response","363","103624","0.0-451.0","3TVRFO09GL1W8DC8QKF8WQ4AGWFLXS","A1KAOUCQHCB3WV","3SA4EMRVJVOCGON1OYE6FAUV3KKP05","","23","img/food4.png","76","25","3","0","3","2","1,0.5,0,1,0.5,0,0.5,0,1","0.5,0,1,0.5,0,1,0,1,0.5","2","false",""
"","html-keyboard-response","364","103928","0.0-452.0","3TVRFO09GL1W8DC8QKF8WQ4AGWFLXS","A1KAOUCQHCB3WV","3SA4EMRVJVOCGON1OYE6FAUV3KKP05","","null","<img src=""img/food4.png"" style=""width:200px;border:14px solid red;"">","null","","","","","","","","","",""
"","instructions","365","106736","0.0-454.0","3TVRFO09GL1W8DC8QKF8WQ4AGWFLXS","A1KAOUCQHCB3WV","3SA4EMRVJVOCGON1OYE6FAUV3KKP05","[{""page_index"":0,""viewing_time"":2804}]","2805","","","","","","","","","","","",""
"","survey-text","366","111966","0.0-455.0","3TVRFO09GL1W8DC8QKF8WQ4AGWFLXS","A1KAOUCQHCB3WV","3SA4EMRVJVOCGON1OYE6FAUV3KKP05","","5211","","","","","","","","","","","","{""Q0"":""A1KAOUCQHCB3WV""}"
