"success","trial_type","trial_index","time_elapsed","internal_node_id","assignmentID","mturkID","hitID","view_history","rt","stimulus","key_press","reactionTime","a","r","s","cond","reward_cond","reward_cond_actual","reward_matrix_idx","warning","responses"
"true","fullscreen","0","7825","0.0-0.0","32Q90QCQ1T7CI739AFDFT16OBXXKER","A1MTQP7TA5RCOB","3XT3KXP24ZKFDDMCDS43FE3AU9W6IW","","","","","","","","","","","","","",""
"","instructions","1","42044","0.0-1.0","32Q90QCQ1T7CI739AFDFT16OBXXKER","A1MTQP7TA5RCOB","3XT3KXP24ZKFDDMCDS43FE3AU9W6IW","[{""page_index"":0,""viewing_time"":5066},{""page_index"":1,""viewing_time"":2775},{""page_index"":2,""viewing_time"":3498},{""page_index"":3,""viewing_time"":6404},{""page_index"":4,""viewing_time"":4826},{""page_index"":5,""viewing_time"":9548},{""page_index"":6,""viewing_time"":2100}]","34217","","","","","","","","","","","",""
"","image-keyboard-response","2","45439","0.0-2.0","32Q90QCQ1T7CI739AFDFT16OBXXKER","A1MTQP7TA5RCOB","3XT3KXP24ZKFDDMCDS43FE3AU9W6IW","","3393","img/food3.png","74","3395","1","0","3","1","1,0.5,0,1,0.5,0,0.5,0,1","0.5,0,1,0.5,0,1,0,1,0.5","2","",""
"","html-keyboard-response","3","45741","0.0-3.0","32Q90QCQ1T7CI739AFDFT16OBXXKER","A1MTQP7TA5RCOB","3XT3KXP24ZKFDDMCDS43FE3AU9W6IW","","null","<img src=""img/food3.png"" style=""width:200px;border:14px solid red;"">","null","","","","","","","","","",""
"","image-keyboard-response","4","46774","0.0-4.0","32Q90QCQ1T7CI739AFDFT16OBXXKER","A1MTQP7TA5RCOB","3XT3KXP24ZKFDDMCDS43FE3AU9W6IW","","1033","img/food3.png","75","1034","2","1","3","1","1,0.5,0,1,0.5,0,0.5,0,1","0.5,0,1,0.5,0,1,0,1,0.5","2","",""
"","html-keyboard-response","5","47077","0.0-5.0","32Q90QCQ1T7CI739AFDFT16OBXXKER","A1MTQP7TA5RCOB","3XT3KXP24ZKFDDMCDS43FE3AU9W6IW","","null","<img src=""img/food3.png"" style=""width:200px; border:14px solid green;"">","null","","","","","","","","","",""
"","image-keyboard-response","6","48278","0.0-6.0","32Q90QCQ1T7CI739AFDFT16OBXXKER","A1MTQP7TA5RCOB","3XT3KXP24ZKFDDMCDS43FE3AU9W6IW","","1201","img/food5.png","76","1202","3","1","1","1","1,0.5,0,1,0.5,0,0.5,0,1","0.5,0,1,0.5,0,1,0,1,0.5","2","",""
"","html-keyboard-response","7","48581","0.0-7.0","32Q90QCQ1T7CI739AFDFT16OBXXKER","A1MTQP7TA5RCOB","3XT3KXP24ZKFDDMCDS43FE3AU9W6IW","","null","<img src=""img/food5.png"" style=""width:200px; border:14px solid green;"">","null","","","","","","","","","",""
"","image-keyboard-response","8","49326","0.0-8.0","32Q90QCQ1T7CI739AFDFT16OBXXKER","A1MTQP7TA5RCOB","3XT3KXP24ZKFDDMCDS43FE3AU9W6IW","","744","img/food3.png","75","746","2","1","3","1","1,0.5,0,1,0.5,0,0.5,0,1","0.5,0,1,0.5,0,1,0,1,0.5","2","",""
"","html-keyboard-response","9","49628","0.0-9.0","32Q90QCQ1T7CI739AFDFT16OBXXKER","A1MTQP7TA5RCOB","3XT3KXP24ZKFDDMCDS43FE3AU9W6IW","","null","<img src=""img/food3.png"" style=""width:200px; border:14px solid green;"">","null","","","","","","","","","",""
"","image-keyboard-response","10","50278","0.0-10.0","32Q90QCQ1T7CI739AFDFT16OBXXKER","A1MTQP7TA5RCOB","3XT3KXP24ZKFDDMCDS43FE3AU9W6IW","","649","img/food5.png","76","649","3","1","1","1","1,0.5,0,1,0.5,0,0.5,0,1","0.5,0,1,0.5,0,1,0,1,0.5","2","",""
"","html-keyboard-response","11","50580","0.0-11.0","32Q90QCQ1T7CI739AFDFT16OBXXKER","A1MTQP7TA5RCOB","3XT3KXP24ZKFDDMCDS43FE3AU9W6IW","","null","<img src=""img/food5.png"" style=""width:200px; border:14px solid green;"">","null","","","","","","","","","",""
"","image-keyboard-response","12","51438","0.0-12.0","32Q90QCQ1T7CI739AFDFT16OBXXKER","A1MTQP7TA5RCOB","3XT3KXP24ZKFDDMCDS43FE3AU9W6IW","","857","img/food4.png","74","857","1","0","2","1","1,0.5,0,1,0.5,0,0.5,0,1","0.5,0,1,0.5,0,1,0,1,0.5","2","",""
"","html-keyboard-response","13","51740","0.0-13.0","32Q90QCQ1T7CI739AFDFT16OBXXKER","A1MTQP7TA5RCOB","3XT3KXP24ZKFDDMCDS43FE3AU9W6IW","","null","<img src=""img/food4.png"" style=""width:200px;border:14px solid red;"">","null","","","","","","","","","",""
"","image-keyboard-response","14","52478","0.0-14.0","32Q90QCQ1T7CI739AFDFT16OBXXKER","A1MTQP7TA5RCOB","3XT3KXP24ZKFDDMCDS43FE3AU9W6IW","","738","img/food5.png","75","739","2","0","1","1","1,0.5,0,1,0.5,0,0.5,0,1","0.5,0,1,0.5,0,1,0,1,0.5","2","",""
"","html-keyboard-response","15","52780","0.0-15.0","32Q90QCQ1T7CI739AFDFT16OBXXKER","A1MTQP7TA5RCOB","3XT3KXP24ZKFDDMCDS43FE3AU9W6IW","","null","<img src=""img/food5.png"" style=""width:200px;border:14px solid red;"">","null","","","","","","","","","",""
"","image-keyboard-response","16","53294","0.0-16.0","32Q90QCQ1T7CI739AFDFT16OBXXKER","A1MTQP7TA5RCOB","3XT3KXP24ZKFDDMCDS43FE3AU9W6IW","","514","img/food5.png","76","515","3","1","1","1","1,0.5,0,1,0.5,0,0.5,0,1","0.5,0,1,0.5,0,1,0,1,0.5","2","",""
"","html-keyboard-response","17","53596","0.0-17.0","32Q90QCQ1T7CI739AFDFT16OBXXKER","A1MTQP7TA5RCOB","3XT3KXP24ZKFDDMCDS43FE3AU9W6IW","","null","<img src=""img/food5.png"" style=""width:200px; border:14px solid green;"">","null","","","","","","","","","",""
"","image-keyboard-response","18","54558","0.0-18.0","32Q90QCQ1T7CI739AFDFT16OBXXKER","A1MTQP7TA5RCOB","3XT3KXP24ZKFDDMCDS43FE3AU9W6IW","","961","img/food4.png","75","962","2","0","2","1","1,0.5,0,1,0.5,0,0.5,0,1","0.5,0,1,0.5,0,1,0,1,0.5","2","",""
"","html-keyboard-response","19","54860","0.0-19.0","32Q90QCQ1T7CI739AFDFT16OBXXKER","A1MTQP7TA5RCOB","3XT3KXP24ZKFDDMCDS43FE3AU9W6IW","","null","<img src=""img/food4.png"" style=""width:200px;border:14px solid red;"">","null","","","","","","","","","",""
"","image-keyboard-response","20","55398","0.0-20.0","32Q90QCQ1T7CI739AFDFT16OBXXKER","A1MTQP7TA5RCOB","3XT3KXP24ZKFDDMCDS43FE3AU9W6IW","","536","img/food3.png","76","538","3","0","3","1","1,0.5,0,1,0.5,0,0.5,0,1","0.5,0,1,0.5,0,1,0,1,0.5","2","",""
"","html-keyboard-response","21","55701","0.0-21.0","32Q90QCQ1T7CI739AFDFT16OBXXKER","A1MTQP7TA5RCOB","3XT3KXP24ZKFDDMCDS43FE3AU9W6IW","","null","<img src=""img/food3.png"" style=""width:200px;border:14px solid red;"">","null","","","","","","","","","",""
"","image-keyboard-response","22","57085","0.0-22.0","32Q90QCQ1T7CI739AFDFT16OBXXKER","A1MTQP7TA5RCOB","3XT3KXP24ZKFDDMCDS43FE3AU9W6IW","","1383","img/food4.png","74","1384","1","1","2","1","1,0.5,0,1,0.5,0,0.5,0,1","0.5,0,1,0.5,0,1,0,1,0.5","2","",""
"","html-keyboard-response","23","57387","0.0-23.0","32Q90QCQ1T7CI739AFDFT16OBXXKER","A1MTQP7TA5RCOB","3XT3KXP24ZKFDDMCDS43FE3AU9W6IW","","null","<img src=""img/food4.png"" style=""width:200px; border:14px solid green;"">","null","","","","","","","","","",""
"","image-keyboard-response","24","58158","0.0-24.0","32Q90QCQ1T7CI739AFDFT16OBXXKER","A1MTQP7TA5RCOB","3XT3KXP24ZKFDDMCDS43FE3AU9W6IW","","770","img/food5.png","75","771","2","0","1","1","1,0.5,0,1,0.5,0,0.5,0,1","0.5,0,1,0.5,0,1,0,1,0.5","2","",""
"","html-keyboard-response","25","58459","0.0-25.0","32Q90QCQ1T7CI739AFDFT16OBXXKER","A1MTQP7TA5RCOB","3XT3KXP24ZKFDDMCDS43FE3AU9W6IW","","null","<img src=""img/food5.png"" style=""width:200px;border:14px solid red;"">","null","","","","","","","","","",""
"","image-keyboard-response","26","58998","0.0-26.0","32Q90QCQ1T7CI739AFDFT16OBXXKER","A1MTQP7TA5RCOB","3XT3KXP24ZKFDDMCDS43FE3AU9W6IW","","538","img/food5.png","75","538","2","0","1","1","1,0.5,0,1,0.5,0,0.5,0,1","0.5,0,1,0.5,0,1,0,1,0.5","2","",""
"","html-keyboard-response","27","59300","0.0-27.0","32Q90QCQ1T7CI739AFDFT16OBXXKER","A1MTQP7TA5RCOB","3XT3KXP24ZKFDDMCDS43FE3AU9W6IW","","null","<img src=""img/food5.png"" style=""width:200px;border:14px solid red;"">","null","","","","","","","","","",""
"","image-keyboard-response","28","59966","0.0-28.0","32Q90QCQ1T7CI739AFDFT16OBXXKER","A1MTQP7TA5RCOB","3XT3KXP24ZKFDDMCDS43FE3AU9W6IW","","665","img/food5.png","76","666","3","1","1","1","1,0.5,0,1,0.5,0,0.5,0,1","0.5,0,1,0.5,0,1,0,1,0.5","2","",""
"","html-keyboard-response","29","60268","0.0-29.0","32Q90QCQ1T7CI739AFDFT16OBXXKER","A1MTQP7TA5RCOB","3XT3KXP24ZKFDDMCDS43FE3AU9W6IW","","null","<img src=""img/food5.png"" style=""width:200px; border:14px solid green;"">","null","","","","","","","","","",""
"","image-keyboard-response","30","60727","0.0-30.0","32Q90QCQ1T7CI739AFDFT16OBXXKER","A1MTQP7TA5RCOB","3XT3KXP24ZKFDDMCDS43FE3AU9W6IW","","459","img/food5.png","76","459","3","1","1","1","1,0.5,0,1,0.5,0,0.5,0,1","0.5,0,1,0.5,0,1,0,1,0.5","2","",""
"","html-keyboard-response","31","61030","0.0-31.0","32Q90QCQ1T7CI739AFDFT16OBXXKER","A1MTQP7TA5RCOB","3XT3KXP24ZKFDDMCDS43FE3AU9W6IW","","null","<img src=""img/food5.png"" style=""width:200px; border:14px solid green;"">","null","","","","","","","","","",""
"","image-keyboard-response","32","62599","0.0-32.0","32Q90QCQ1T7CI739AFDFT16OBXXKER","A1MTQP7TA5RCOB","3XT3KXP24ZKFDDMCDS43FE3AU9W6IW","","1568","img/food3.png","75","1569","2","1","3","1","1,0.5,0,1,0.5,0,0.5,0,1","0.5,0,1,0.5,0,1,0,1,0.5","2","",""
"","html-keyboard-response","33","62900","0.0-33.0","32Q90QCQ1T7CI739AFDFT16OBXXKER","A1MTQP7TA5RCOB","3XT3KXP24ZKFDDMCDS43FE3AU9W6IW","","null","<img src=""img/food3.png"" style=""width:200px; border:14px solid green;"">","null","","","","","","","","","",""
"","image-keyboard-response","34","63807","0.0-34.0","32Q90QCQ1T7CI739AFDFT16OBXXKER","A1MTQP7TA5RCOB","3XT3KXP24ZKFDDMCDS43FE3AU9W6IW","","906","img/food4.png","74","907","1","0","2","1","1,0.5,0,1,0.5,0,0.5,0,1","0.5,0,1,0.5,0,1,0,1,0.5","2","",""
"","html-keyboard-response","35","64108","0.0-35.0","32Q90QCQ1T7CI739AFDFT16OBXXKER","A1MTQP7TA5RCOB","3XT3KXP24ZKFDDMCDS43FE3AU9W6IW","","null","<img src=""img/food4.png"" style=""width:200px;border:14px solid red;"">","null","","","","","","","","","",""
"","image-keyboard-response","36","65031","0.0-36.0","32Q90QCQ1T7CI739AFDFT16OBXXKER","A1MTQP7TA5RCOB","3XT3KXP24ZKFDDMCDS43FE3AU9W6IW","","922","img/food3.png","75","923","2","1","3","1","1,0.5,0,1,0.5,0,0.5,0,1","0.5,0,1,0.5,0,1,0,1,0.5","2","",""
"","html-keyboard-response","37","65334","0.0-37.0","32Q90QCQ1T7CI739AFDFT16OBXXKER","A1MTQP7TA5RCOB","3XT3KXP24ZKFDDMCDS43FE3AU9W6IW","","null","<img src=""img/food3.png"" style=""width:200px; border:14px solid green;"">","null","","","","","","","","","",""
"","image-keyboard-response","38","66311","0.0-38.0","32Q90QCQ1T7CI739AFDFT16OBXXKER","A1MTQP7TA5RCOB","3XT3KXP24ZKFDDMCDS43FE3AU9W6IW","","977","img/food5.png","76","977","3","1","1","1","1,0.5,0,1,0.5,0,0.5,0,1","0.5,0,1,0.5,0,1,0,1,0.5","2","",""
"","html-keyboard-response","39","66612","0.0-39.0","32Q90QCQ1T7CI739AFDFT16OBXXKER","A1MTQP7TA5RCOB","3XT3KXP24ZKFDDMCDS43FE3AU9W6IW","","null","<img src=""img/food5.png"" style=""width:200px; border:14px solid green;"">","null","","","","","","","","","",""
"","image-keyboard-response","40","67231","0.0-40.0","32Q90QCQ1T7CI739AFDFT16OBXXKER","A1MTQP7TA5RCOB","3XT3KXP24ZKFDDMCDS43FE3AU9W6IW","","619","img/food3.png","75","619","2","1","3","1","1,0.5,0,1,0.5,0,0.5,0,1","0.5,0,1,0.5,0,1,0,1,0.5","2","",""
"","html-keyboard-response","41","67532","0.0-41.0","32Q90QCQ1T7CI739AFDFT16OBXXKER","A1MTQP7TA5RCOB","3XT3KXP24ZKFDDMCDS43FE3AU9W6IW","","null","<img src=""img/food3.png"" style=""width:200px; border:14px solid green;"">","null","","","","","","","","","",""
"","image-keyboard-response","42","68094","0.0-42.0","32Q90QCQ1T7CI739AFDFT16OBXXKER","A1MTQP7TA5RCOB","3XT3KXP24ZKFDDMCDS43FE3AU9W6IW","","560","img/food5.png","76","562","3","1","1","1","1,0.5,0,1,0.5,0,0.5,0,1","0.5,0,1,0.5,0,1,0,1,0.5","2","",""
"","html-keyboard-response","43","68397","0.0-43.0","32Q90QCQ1T7CI739AFDFT16OBXXKER","A1MTQP7TA5RCOB","3XT3KXP24ZKFDDMCDS43FE3AU9W6IW","","null","<img src=""img/food5.png"" style=""width:200px; border:14px solid green;"">","null","","","","","","","","","",""
"","image-keyboard-response","44","69111","0.0-44.0","32Q90QCQ1T7CI739AFDFT16OBXXKER","A1MTQP7TA5RCOB","3XT3KXP24ZKFDDMCDS43FE3AU9W6IW","","714","img/food5.png","76","714","3","1","1","1","1,0.5,0,1,0.5,0,0.5,0,1","0.5,0,1,0.5,0,1,0,1,0.5","2","",""
"","html-keyboard-response","45","69413","0.0-45.0","32Q90QCQ1T7CI739AFDFT16OBXXKER","A1MTQP7TA5RCOB","3XT3KXP24ZKFDDMCDS43FE3AU9W6IW","","null","<img src=""img/food5.png"" style=""width:200px; border:14px solid green;"">","null","","","","","","","","","",""
"","image-keyboard-response","46","70071","0.0-46.0","32Q90QCQ1T7CI739AFDFT16OBXXKER","A1MTQP7TA5RCOB","3XT3KXP24ZKFDDMCDS43FE3AU9W6IW","","657","img/food3.png","75","658","2","1","3","1","1,0.5,0,1,0.5,0,0.5,0,1","0.5,0,1,0.5,0,1,0,1,0.5","2","",""
"","html-keyboard-response","47","70372","0.0-47.0","32Q90QCQ1T7CI739AFDFT16OBXXKER","A1MTQP7TA5RCOB","3XT3KXP24ZKFDDMCDS43FE3AU9W6IW","","null","<img src=""img/food3.png"" style=""width:200px; border:14px solid green;"">","null","","","","","","","","","",""
"","image-keyboard-response","48","70959","0.0-48.0","32Q90QCQ1T7CI739AFDFT16OBXXKER","A1MTQP7TA5RCOB","3XT3KXP24ZKFDDMCDS43FE3AU9W6IW","","585","img/food5.png","76","587","3","1","1","1","1,0.5,0,1,0.5,0,0.5,0,1","0.5,0,1,0.5,0,1,0,1,0.5","2","",""
"","html-keyboard-response","49","71262","0.0-49.0","32Q90QCQ1T7CI739AFDFT16OBXXKER","A1MTQP7TA5RCOB","3XT3KXP24ZKFDDMCDS43FE3AU9W6IW","","null","<img src=""img/food5.png"" style=""width:200px; border:14px solid green;"">","null","","","","","","","","","",""
"","image-keyboard-response","50","71863","0.0-50.0","32Q90QCQ1T7CI739AFDFT16OBXXKER","A1MTQP7TA5RCOB","3XT3KXP24ZKFDDMCDS43FE3AU9W6IW","","601","img/food3.png","75","602","2","1","3","1","1,0.5,0,1,0.5,0,0.5,0,1","0.5,0,1,0.5,0,1,0,1,0.5","2","",""
"","html-keyboard-response","51","72165","0.0-51.0","32Q90QCQ1T7CI739AFDFT16OBXXKER","A1MTQP7TA5RCOB","3XT3KXP24ZKFDDMCDS43FE3AU9W6IW","","null","<img src=""img/food3.png"" style=""width:200px; border:14px solid green;"">","null","","","","","","","","","",""
"","image-keyboard-response","52","73919","0.0-52.0","32Q90QCQ1T7CI739AFDFT16OBXXKER","A1MTQP7TA5RCOB","3XT3KXP24ZKFDDMCDS43FE3AU9W6IW","","1753","img/food4.png","76","1755","3","1","2","1","1,0.5,0,1,0.5,0,0.5,0,1","0.5,0,1,0.5,0,1,0,1,0.5","2","",""
"","html-keyboard-response","53","74221","0.0-53.0","32Q90QCQ1T7CI739AFDFT16OBXXKER","A1MTQP7TA5RCOB","3XT3KXP24ZKFDDMCDS43FE3AU9W6IW","","null","<img src=""img/food4.png"" style=""width:200px; border:14px solid green;"">","null","","","","","","","","","",""
"","image-keyboard-response","54","74966","0.0-54.0","32Q90QCQ1T7CI739AFDFT16OBXXKER","A1MTQP7TA5RCOB","3XT3KXP24ZKFDDMCDS43FE3AU9W6IW","","744","img/food3.png","75","744","2","1","3","1","1,0.5,0,1,0.5,0,0.5,0,1","0.5,0,1,0.5,0,1,0,1,0.5","2","",""
"","html-keyboard-response","55","75268","0.0-55.0","32Q90QCQ1T7CI739AFDFT16OBXXKER","A1MTQP7TA5RCOB","3XT3KXP24ZKFDDMCDS43FE3AU9W6IW","","null","<img src=""img/food3.png"" style=""width:200px; border:14px solid green;"">","null","","","","","","","","","",""
"","image-keyboard-response","56","76055","0.0-56.0","32Q90QCQ1T7CI739AFDFT16OBXXKER","A1MTQP7TA5RCOB","3XT3KXP24ZKFDDMCDS43FE3AU9W6IW","","786","img/food4.png","76","786","3","1","2","1","1,0.5,0,1,0.5,0,0.5,0,1","0.5,0,1,0.5,0,1,0,1,0.5","2","",""
"","html-keyboard-response","57","76357","0.0-57.0","32Q90QCQ1T7CI739AFDFT16OBXXKER","A1MTQP7TA5RCOB","3XT3KXP24ZKFDDMCDS43FE3AU9W6IW","","null","<img src=""img/food4.png"" style=""width:200px; border:14px solid green;"">","null","","","","","","","","","",""
"","image-keyboard-response","58","76903","0.0-58.0","32Q90QCQ1T7CI739AFDFT16OBXXKER","A1MTQP7TA5RCOB","3XT3KXP24ZKFDDMCDS43FE3AU9W6IW","","546","img/food4.png","76","546","3","1","2","1","1,0.5,0,1,0.5,0,0.5,0,1","0.5,0,1,0.5,0,1,0,1,0.5","2","",""
"","html-keyboard-response","59","77218","0.0-59.0","32Q90QCQ1T7CI739AFDFT16OBXXKER","A1MTQP7TA5RCOB","3XT3KXP24ZKFDDMCDS43FE3AU9W6IW","","null","<img src=""img/food4.png"" style=""width:200px; border:14px solid green;"">","null","","","","","","","","","",""
"","image-keyboard-response","60","77847","0.0-60.0","32Q90QCQ1T7CI739AFDFT16OBXXKER","A1MTQP7TA5RCOB","3XT3KXP24ZKFDDMCDS43FE3AU9W6IW","","628","img/food3.png","75","628","2","1","3","1","1,0.5,0,1,0.5,0,0.5,0,1","0.5,0,1,0.5,0,1,0,1,0.5","2","",""
"","html-keyboard-response","61","78158","0.0-61.0","32Q90QCQ1T7CI739AFDFT16OBXXKER","A1MTQP7TA5RCOB","3XT3KXP24ZKFDDMCDS43FE3AU9W6IW","","null","<img src=""img/food3.png"" style=""width:200px; border:14px solid green;"">","null","","","","","","","","","",""
"","image-keyboard-response","62","78759","0.0-62.0","32Q90QCQ1T7CI739AFDFT16OBXXKER","A1MTQP7TA5RCOB","3XT3KXP24ZKFDDMCDS43FE3AU9W6IW","","600","img/food3.png","75","601","2","1","3","1","1,0.5,0,1,0.5,0,0.5,0,1","0.5,0,1,0.5,0,1,0,1,0.5","2","",""
"","html-keyboard-response","63","79060","0.0-63.0","32Q90QCQ1T7CI739AFDFT16OBXXKER","A1MTQP7TA5RCOB","3XT3KXP24ZKFDDMCDS43FE3AU9W6IW","","null","<img src=""img/food3.png"" style=""width:200px; border:14px solid green;"">","null","","","","","","","","","",""
"","image-keyboard-response","64","79735","0.0-64.0","32Q90QCQ1T7CI739AFDFT16OBXXKER","A1MTQP7TA5RCOB","3XT3KXP24ZKFDDMCDS43FE3AU9W6IW","","673","img/food5.png","76","674","3","1","1","1","1,0.5,0,1,0.5,0,0.5,0,1","0.5,0,1,0.5,0,1,0,1,0.5","2","",""
"","html-keyboard-response","65","80037","0.0-65.0","32Q90QCQ1T7CI739AFDFT16OBXXKER","A1MTQP7TA5RCOB","3XT3KXP24ZKFDDMCDS43FE3AU9W6IW","","null","<img src=""img/food5.png"" style=""width:200px; border:14px solid green;"">","null","","","","","","","","","",""
"","image-keyboard-response","66","80703","0.0-66.0","32Q90QCQ1T7CI739AFDFT16OBXXKER","A1MTQP7TA5RCOB","3XT3KXP24ZKFDDMCDS43FE3AU9W6IW","","665","img/food4.png","76","666","3","1","2","1","1,0.5,0,1,0.5,0,0.5,0,1","0.5,0,1,0.5,0,1,0,1,0.5","2","",""
"","html-keyboard-response","67","81004","0.0-67.0","32Q90QCQ1T7CI739AFDFT16OBXXKER","A1MTQP7TA5RCOB","3XT3KXP24ZKFDDMCDS43FE3AU9W6IW","","null","<img src=""img/food4.png"" style=""width:200px; border:14px solid green;"">","null","","","","","","","","","",""
"","image-keyboard-response","68","81887","0.0-68.0","32Q90QCQ1T7CI739AFDFT16OBXXKER","A1MTQP7TA5RCOB","3XT3KXP24ZKFDDMCDS43FE3AU9W6IW","","881","img/food5.png","75","881","2","0","1","1","1,0.5,0,1,0.5,0,0.5,0,1","0.5,0,1,0.5,0,1,0,1,0.5","2","",""
"","html-keyboard-response","69","82190","0.0-69.0","32Q90QCQ1T7CI739AFDFT16OBXXKER","A1MTQP7TA5RCOB","3XT3KXP24ZKFDDMCDS43FE3AU9W6IW","","null","<img src=""img/food5.png"" style=""width:200px;border:14px solid red;"">","null","","","","","","","","","",""
"","image-keyboard-response","70","82783","0.0-70.0","32Q90QCQ1T7CI739AFDFT16OBXXKER","A1MTQP7TA5RCOB","3XT3KXP24ZKFDDMCDS43FE3AU9W6IW","","592","img/food4.png","76","593","3","1","2","1","1,0.5,0,1,0.5,0,0.5,0,1","0.5,0,1,0.5,0,1,0,1,0.5","2","",""
"","html-keyboard-response","71","83085","0.0-71.0","32Q90QCQ1T7CI739AFDFT16OBXXKER","A1MTQP7TA5RCOB","3XT3KXP24ZKFDDMCDS43FE3AU9W6IW","","null","<img src=""img/food4.png"" style=""width:200px; border:14px solid green;"">","null","","","","","","","","","",""
"","image-keyboard-response","72","83607","0.0-72.0","32Q90QCQ1T7CI739AFDFT16OBXXKER","A1MTQP7TA5RCOB","3XT3KXP24ZKFDDMCDS43FE3AU9W6IW","","522","img/food4.png","76","522","3","1","2","1","1,0.5,0,1,0.5,0,0.5,0,1","0.5,0,1,0.5,0,1,0,1,0.5","2","",""
"","html-keyboard-response","73","83909","0.0-73.0","32Q90QCQ1T7CI739AFDFT16OBXXKER","A1MTQP7TA5RCOB","3XT3KXP24ZKFDDMCDS43FE3AU9W6IW","","null","<img src=""img/food4.png"" style=""width:200px; border:14px solid green;"">","null","","","","","","","","","",""
"","image-keyboard-response","74","84391","0.0-74.0","32Q90QCQ1T7CI739AFDFT16OBXXKER","A1MTQP7TA5RCOB","3XT3KXP24ZKFDDMCDS43FE3AU9W6IW","","481","img/food4.png","76","482","3","1","2","1","1,0.5,0,1,0.5,0,0.5,0,1","0.5,0,1,0.5,0,1,0,1,0.5","2","",""
"","html-keyboard-response","75","84693","0.0-75.0","32Q90QCQ1T7CI739AFDFT16OBXXKER","A1MTQP7TA5RCOB","3XT3KXP24ZKFDDMCDS43FE3AU9W6IW","","null","<img src=""img/food4.png"" style=""width:200px; border:14px solid green;"">","null","","","","","","","","","",""
"","image-keyboard-response","76","85351","0.0-76.0","32Q90QCQ1T7CI739AFDFT16OBXXKER","A1MTQP7TA5RCOB","3XT3KXP24ZKFDDMCDS43FE3AU9W6IW","","657","img/food3.png","75","658","2","1","3","1","1,0.5,0,1,0.5,0,0.5,0,1","0.5,0,1,0.5,0,1,0,1,0.5","2","",""
"","html-keyboard-response","77","85658","0.0-77.0","32Q90QCQ1T7CI739AFDFT16OBXXKER","A1MTQP7TA5RCOB","3XT3KXP24ZKFDDMCDS43FE3AU9W6IW","","null","<img src=""img/food3.png"" style=""width:200px; border:14px solid green;"">","null","","","","","","","","","",""
"","image-keyboard-response","78","86263","0.0-78.0","32Q90QCQ1T7CI739AFDFT16OBXXKER","A1MTQP7TA5RCOB","3XT3KXP24ZKFDDMCDS43FE3AU9W6IW","","604","img/food5.png","76","604","3","1","1","1","1,0.5,0,1,0.5,0,0.5,0,1","0.5,0,1,0.5,0,1,0,1,0.5","2","",""
"","html-keyboard-response","79","86564","0.0-79.0","32Q90QCQ1T7CI739AFDFT16OBXXKER","A1MTQP7TA5RCOB","3XT3KXP24ZKFDDMCDS43FE3AU9W6IW","","null","<img src=""img/food5.png"" style=""width:200px; border:14px solid green;"">","null","","","","","","","","","",""
"","image-keyboard-response","80","87335","0.0-80.0","32Q90QCQ1T7CI739AFDFT16OBXXKER","A1MTQP7TA5RCOB","3XT3KXP24ZKFDDMCDS43FE3AU9W6IW","","770","img/food3.png","75","771","2","1","3","1","1,0.5,0,1,0.5,0,0.5,0,1","0.5,0,1,0.5,0,1,0,1,0.5","2","",""
"","html-keyboard-response","81","87637","0.0-81.0","32Q90QCQ1T7CI739AFDFT16OBXXKER","A1MTQP7TA5RCOB","3XT3KXP24ZKFDDMCDS43FE3AU9W6IW","","null","<img src=""img/food3.png"" style=""width:200px; border:14px solid green;"">","null","","","","","","","","","",""
"","image-keyboard-response","82","88167","0.0-82.0","32Q90QCQ1T7CI739AFDFT16OBXXKER","A1MTQP7TA5RCOB","3XT3KXP24ZKFDDMCDS43FE3AU9W6IW","","528","img/food5.png","76","530","3","1","1","1","1,0.5,0,1,0.5,0,0.5,0,1","0.5,0,1,0.5,0,1,0,1,0.5","2","",""
"","html-keyboard-response","83","88469","0.0-83.0","32Q90QCQ1T7CI739AFDFT16OBXXKER","A1MTQP7TA5RCOB","3XT3KXP24ZKFDDMCDS43FE3AU9W6IW","","null","<img src=""img/food5.png"" style=""width:200px; border:14px solid green;"">","null","","","","","","","","","",""
"","image-keyboard-response","84","88927","0.0-84.0","32Q90QCQ1T7CI739AFDFT16OBXXKER","A1MTQP7TA5RCOB","3XT3KXP24ZKFDDMCDS43FE3AU9W6IW","","457","img/food3.png","75","458","2","1","3","1","1,0.5,0,1,0.5,0,0.5,0,1","0.5,0,1,0.5,0,1,0,1,0.5","2","",""
"","html-keyboard-response","85","89229","0.0-85.0","32Q90QCQ1T7CI739AFDFT16OBXXKER","A1MTQP7TA5RCOB","3XT3KXP24ZKFDDMCDS43FE3AU9W6IW","","null","<img src=""img/food3.png"" style=""width:200px; border:14px solid green;"">","null","","","","","","","","","",""
"","image-keyboard-response","86","89799","0.0-86.0","32Q90QCQ1T7CI739AFDFT16OBXXKER","A1MTQP7TA5RCOB","3XT3KXP24ZKFDDMCDS43FE3AU9W6IW","","569","img/food5.png","76","570","3","1","1","1","1,0.5,0,1,0.5,0,0.5,0,1","0.5,0,1,0.5,0,1,0,1,0.5","2","",""
"","html-keyboard-response","87","90102","0.0-87.0","32Q90QCQ1T7CI739AFDFT16OBXXKER","A1MTQP7TA5RCOB","3XT3KXP24ZKFDDMCDS43FE3AU9W6IW","","null","<img src=""img/food5.png"" style=""width:200px; border:14px solid green;"">","null","","","","","","","","","",""
"","image-keyboard-response","88","90847","0.0-88.0","32Q90QCQ1T7CI739AFDFT16OBXXKER","A1MTQP7TA5RCOB","3XT3KXP24ZKFDDMCDS43FE3AU9W6IW","","744","img/food5.png","76","745","3","1","1","1","1,0.5,0,1,0.5,0,0.5,0,1","0.5,0,1,0.5,0,1,0,1,0.5","2","",""
"","html-keyboard-response","89","91148","0.0-89.0","32Q90QCQ1T7CI739AFDFT16OBXXKER","A1MTQP7TA5RCOB","3XT3KXP24ZKFDDMCDS43FE3AU9W6IW","","null","<img src=""img/food5.png"" style=""width:200px; border:14px solid green;"">","null","","","","","","","","","",""
"","image-keyboard-response","90","92023","0.0-90.0","32Q90QCQ1T7CI739AFDFT16OBXXKER","A1MTQP7TA5RCOB","3XT3KXP24ZKFDDMCDS43FE3AU9W6IW","","874","img/food4.png","76","874","3","1","2","1","1,0.5,0,1,0.5,0,0.5,0,1","0.5,0,1,0.5,0,1,0,1,0.5","2","",""
"","html-keyboard-response","91","92325","0.0-91.0","32Q90QCQ1T7CI739AFDFT16OBXXKER","A1MTQP7TA5RCOB","3XT3KXP24ZKFDDMCDS43FE3AU9W6IW","","null","<img src=""img/food4.png"" style=""width:200px; border:14px solid green;"">","null","","","","","","","","","",""
"","image-keyboard-response","92","92934","0.0-92.0","32Q90QCQ1T7CI739AFDFT16OBXXKER","A1MTQP7TA5RCOB","3XT3KXP24ZKFDDMCDS43FE3AU9W6IW","","608","img/food3.png","75","608","2","1","3","1","1,0.5,0,1,0.5,0,0.5,0,1","0.5,0,1,0.5,0,1,0,1,0.5","2","",""
"","html-keyboard-response","93","93236","0.0-93.0","32Q90QCQ1T7CI739AFDFT16OBXXKER","A1MTQP7TA5RCOB","3XT3KXP24ZKFDDMCDS43FE3AU9W6IW","","null","<img src=""img/food3.png"" style=""width:200px; border:14px solid green;"">","null","","","","","","","","","",""
"","image-keyboard-response","94","93679","0.0-94.0","32Q90QCQ1T7CI739AFDFT16OBXXKER","A1MTQP7TA5RCOB","3XT3KXP24ZKFDDMCDS43FE3AU9W6IW","","442","img/food3.png","75","442","2","1","3","1","1,0.5,0,1,0.5,0,0.5,0,1","0.5,0,1,0.5,0,1,0,1,0.5","2","",""
"","html-keyboard-response","95","93981","0.0-95.0","32Q90QCQ1T7CI739AFDFT16OBXXKER","A1MTQP7TA5RCOB","3XT3KXP24ZKFDDMCDS43FE3AU9W6IW","","null","<img src=""img/food3.png"" style=""width:200px; border:14px solid green;"">","null","","","","","","","","","",""
"","image-keyboard-response","96","94959","0.0-96.0","32Q90QCQ1T7CI739AFDFT16OBXXKER","A1MTQP7TA5RCOB","3XT3KXP24ZKFDDMCDS43FE3AU9W6IW","","978","img/food4.png","76","978","3","1","2","1","1,0.5,0,1,0.5,0,0.5,0,1","0.5,0,1,0.5,0,1,0,1,0.5","2","",""
"","html-keyboard-response","97","95260","0.0-97.0","32Q90QCQ1T7CI739AFDFT16OBXXKER","A1MTQP7TA5RCOB","3XT3KXP24ZKFDDMCDS43FE3AU9W6IW","","null","<img src=""img/food4.png"" style=""width:200px; border:14px solid green;"">","null","","","","","","","","","",""
"","image-keyboard-response","98","95767","0.0-98.0","32Q90QCQ1T7CI739AFDFT16OBXXKER","A1MTQP7TA5RCOB","3XT3KXP24ZKFDDMCDS43FE3AU9W6IW","","505","img/food3.png","75","506","2","1","3","1","1,0.5,0,1,0.5,0,0.5,0,1","0.5,0,1,0.5,0,1,0,1,0.5","2","",""
"","html-keyboard-response","99","96068","0.0-99.0","32Q90QCQ1T7CI739AFDFT16OBXXKER","A1MTQP7TA5RCOB","3XT3KXP24ZKFDDMCDS43FE3AU9W6IW","","null","<img src=""img/food3.png"" style=""width:200px; border:14px solid green;"">","null","","","","","","","","","",""
"","image-keyboard-response","100","96535","0.0-100.0","32Q90QCQ1T7CI739AFDFT16OBXXKER","A1MTQP7TA5RCOB","3XT3KXP24ZKFDDMCDS43FE3AU9W6IW","","467","img/food5.png","76","467","3","1","1","1","1,0.5,0,1,0.5,0,0.5,0,1","0.5,0,1,0.5,0,1,0,1,0.5","2","",""
"","html-keyboard-response","101","96837","0.0-101.0","32Q90QCQ1T7CI739AFDFT16OBXXKER","A1MTQP7TA5RCOB","3XT3KXP24ZKFDDMCDS43FE3AU9W6IW","","null","<img src=""img/food5.png"" style=""width:200px; border:14px solid green;"">","null","","","","","","","","","",""
"","image-keyboard-response","102","97607","0.0-102.0","32Q90QCQ1T7CI739AFDFT16OBXXKER","A1MTQP7TA5RCOB","3XT3KXP24ZKFDDMCDS43FE3AU9W6IW","","769","img/food4.png","75","769","2","0","2","1","1,0.5,0,1,0.5,0,0.5,0,1","0.5,0,1,0.5,0,1,0,1,0.5","2","",""
"","html-keyboard-response","103","97908","0.0-103.0","32Q90QCQ1T7CI739AFDFT16OBXXKER","A1MTQP7TA5RCOB","3XT3KXP24ZKFDDMCDS43FE3AU9W6IW","","null","<img src=""img/food4.png"" style=""width:200px;border:14px solid red;"">","null","","","","","","","","","",""
"","image-keyboard-response","104","98407","0.0-104.0","32Q90QCQ1T7CI739AFDFT16OBXXKER","A1MTQP7TA5RCOB","3XT3KXP24ZKFDDMCDS43FE3AU9W6IW","","498","img/food3.png","76","498","3","1","3","1","1,0.5,0,1,0.5,0,0.5,0,1","0.5,0,1,0.5,0,1,0,1,0.5","2","",""
"","html-keyboard-response","105","98708","0.0-105.0","32Q90QCQ1T7CI739AFDFT16OBXXKER","A1MTQP7TA5RCOB","3XT3KXP24ZKFDDMCDS43FE3AU9W6IW","","null","<img src=""img/food3.png"" style=""width:200px; border:14px solid green;"">","null","","","","","","","","","",""
"","image-keyboard-response","106","100615","0.0-106.0","32Q90QCQ1T7CI739AFDFT16OBXXKER","A1MTQP7TA5RCOB","3XT3KXP24ZKFDDMCDS43FE3AU9W6IW","","1906","img/food5.png","76","1907","3","1","1","1","1,0.5,0,1,0.5,0,0.5,0,1","0.5,0,1,0.5,0,1,0,1,0.5","2","",""
"","html-keyboard-response","107","100917","0.0-107.0","32Q90QCQ1T7CI739AFDFT16OBXXKER","A1MTQP7TA5RCOB","3XT3KXP24ZKFDDMCDS43FE3AU9W6IW","","null","<img src=""img/food5.png"" style=""width:200px; border:14px solid green;"">","null","","","","","","","","","",""
"","image-keyboard-response","108","101343","0.0-108.0","32Q90QCQ1T7CI739AFDFT16OBXXKER","A1MTQP7TA5RCOB","3XT3KXP24ZKFDDMCDS43FE3AU9W6IW","","424","img/food5.png","76","425","3","1","1","1","1,0.5,0,1,0.5,0,0.5,0,1","0.5,0,1,0.5,0,1,0,1,0.5","2","",""
"","html-keyboard-response","109","101645","0.0-109.0","32Q90QCQ1T7CI739AFDFT16OBXXKER","A1MTQP7TA5RCOB","3XT3KXP24ZKFDDMCDS43FE3AU9W6IW","","null","<img src=""img/food5.png"" style=""width:200px; border:14px solid green;"">","null","","","","","","","","","",""
"","image-keyboard-response","110","102231","0.0-110.0","32Q90QCQ1T7CI739AFDFT16OBXXKER","A1MTQP7TA5RCOB","3XT3KXP24ZKFDDMCDS43FE3AU9W6IW","","585","img/food3.png","75","585","2","1","3","1","1,0.5,0,1,0.5,0,0.5,0,1","0.5,0,1,0.5,0,1,0,1,0.5","2","",""
"","html-keyboard-response","111","102533","0.0-111.0","32Q90QCQ1T7CI739AFDFT16OBXXKER","A1MTQP7TA5RCOB","3XT3KXP24ZKFDDMCDS43FE3AU9W6IW","","null","<img src=""img/food3.png"" style=""width:200px; border:14px solid green;"">","null","","","","","","","","","",""
"","image-keyboard-response","112","103215","0.0-112.0","32Q90QCQ1T7CI739AFDFT16OBXXKER","A1MTQP7TA5RCOB","3XT3KXP24ZKFDDMCDS43FE3AU9W6IW","","682","img/food4.png","76","682","3","1","2","1","1,0.5,0,1,0.5,0,0.5,0,1","0.5,0,1,0.5,0,1,0,1,0.5","2","",""
"","html-keyboard-response","113","103517","0.0-113.0","32Q90QCQ1T7CI739AFDFT16OBXXKER","A1MTQP7TA5RCOB","3XT3KXP24ZKFDDMCDS43FE3AU9W6IW","","null","<img src=""img/food4.png"" style=""width:200px; border:14px solid green;"">","null","","","","","","","","","",""
"","image-keyboard-response","114","104047","0.0-114.0","32Q90QCQ1T7CI739AFDFT16OBXXKER","A1MTQP7TA5RCOB","3XT3KXP24ZKFDDMCDS43FE3AU9W6IW","","529","img/food3.png","75","529","2","1","3","1","1,0.5,0,1,0.5,0,0.5,0,1","0.5,0,1,0.5,0,1,0,1,0.5","2","",""
"","html-keyboard-response","115","104348","0.0-115.0","32Q90QCQ1T7CI739AFDFT16OBXXKER","A1MTQP7TA5RCOB","3XT3KXP24ZKFDDMCDS43FE3AU9W6IW","","null","<img src=""img/food3.png"" style=""width:200px; border:14px solid green;"">","null","","","","","","","","","",""
"","image-keyboard-response","116","105183","0.0-116.0","32Q90QCQ1T7CI739AFDFT16OBXXKER","A1MTQP7TA5RCOB","3XT3KXP24ZKFDDMCDS43FE3AU9W6IW","","833","img/food5.png","76","834","3","1","1","1","1,0.5,0,1,0.5,0,0.5,0,1","0.5,0,1,0.5,0,1,0,1,0.5","2","",""
"","html-keyboard-response","117","105485","0.0-117.0","32Q90QCQ1T7CI739AFDFT16OBXXKER","A1MTQP7TA5RCOB","3XT3KXP24ZKFDDMCDS43FE3AU9W6IW","","null","<img src=""img/food5.png"" style=""width:200px; border:14px solid green;"">","null","","","","","","","","","",""
"","image-keyboard-response","118","106007","0.0-118.0","32Q90QCQ1T7CI739AFDFT16OBXXKER","A1MTQP7TA5RCOB","3XT3KXP24ZKFDDMCDS43FE3AU9W6IW","","521","img/food3.png","75","522","2","1","3","1","1,0.5,0,1,0.5,0,0.5,0,1","0.5,0,1,0.5,0,1,0,1,0.5","2","",""
"","html-keyboard-response","119","106308","0.0-119.0","32Q90QCQ1T7CI739AFDFT16OBXXKER","A1MTQP7TA5RCOB","3XT3KXP24ZKFDDMCDS43FE3AU9W6IW","","null","<img src=""img/food3.png"" style=""width:200px; border:14px solid green;"">","null","","","","","","","","","",""
"","image-keyboard-response","120","106991","0.0-120.0","32Q90QCQ1T7CI739AFDFT16OBXXKER","A1MTQP7TA5RCOB","3XT3KXP24ZKFDDMCDS43FE3AU9W6IW","","681","img/food3.png","75","682","2","1","3","1","1,0.5,0,1,0.5,0,0.5,0,1","0.5,0,1,0.5,0,1,0,1,0.5","2","",""
"","html-keyboard-response","121","107293","0.0-121.0","32Q90QCQ1T7CI739AFDFT16OBXXKER","A1MTQP7TA5RCOB","3XT3KXP24ZKFDDMCDS43FE3AU9W6IW","","null","<img src=""img/food3.png"" style=""width:200px; border:14px solid green;"">","null","","","","","","","","","",""
"","image-keyboard-response","122","107918","0.0-122.0","32Q90QCQ1T7CI739AFDFT16OBXXKER","A1MTQP7TA5RCOB","3XT3KXP24ZKFDDMCDS43FE3AU9W6IW","","625","img/food4.png","76","625","3","1","2","1","1,0.5,0,1,0.5,0,0.5,0,1","0.5,0,1,0.5,0,1,0,1,0.5","2","",""
"","html-keyboard-response","123","108220","0.0-123.0","32Q90QCQ1T7CI739AFDFT16OBXXKER","A1MTQP7TA5RCOB","3XT3KXP24ZKFDDMCDS43FE3AU9W6IW","","null","<img src=""img/food4.png"" style=""width:200px; border:14px solid green;"">","null","","","","","","","","","",""
"","image-keyboard-response","124","108702","0.0-124.0","32Q90QCQ1T7CI739AFDFT16OBXXKER","A1MTQP7TA5RCOB","3XT3KXP24ZKFDDMCDS43FE3AU9W6IW","","481","img/food4.png","76","482","3","1","2","1","1,0.5,0,1,0.5,0,0.5,0,1","0.5,0,1,0.5,0,1,0,1,0.5","2","",""
"","html-keyboard-response","125","109005","0.0-125.0","32Q90QCQ1T7CI739AFDFT16OBXXKER","A1MTQP7TA5RCOB","3XT3KXP24ZKFDDMCDS43FE3AU9W6IW","","null","<img src=""img/food4.png"" style=""width:200px; border:14px solid green;"">","null","","","","","","","","","",""
"","image-keyboard-response","126","109511","0.0-126.0","32Q90QCQ1T7CI739AFDFT16OBXXKER","A1MTQP7TA5RCOB","3XT3KXP24ZKFDDMCDS43FE3AU9W6IW","","505","img/food3.png","75","505","2","1","3","1","1,0.5,0,1,0.5,0,0.5,0,1","0.5,0,1,0.5,0,1,0,1,0.5","2","",""
"","html-keyboard-response","127","109812","0.0-127.0","32Q90QCQ1T7CI739AFDFT16OBXXKER","A1MTQP7TA5RCOB","3XT3KXP24ZKFDDMCDS43FE3AU9W6IW","","null","<img src=""img/food3.png"" style=""width:200px; border:14px solid green;"">","null","","","","","","","","","",""
"","image-keyboard-response","128","110343","0.0-128.0","32Q90QCQ1T7CI739AFDFT16OBXXKER","A1MTQP7TA5RCOB","3XT3KXP24ZKFDDMCDS43FE3AU9W6IW","","531","img/food4.png","76","531","3","1","2","1","1,0.5,0,1,0.5,0,0.5,0,1","0.5,0,1,0.5,0,1,0,1,0.5","2","",""
"","html-keyboard-response","129","110644","0.0-129.0","32Q90QCQ1T7CI739AFDFT16OBXXKER","A1MTQP7TA5RCOB","3XT3KXP24ZKFDDMCDS43FE3AU9W6IW","","null","<img src=""img/food4.png"" style=""width:200px; border:14px solid green;"">","null","","","","","","","","","",""
"","image-keyboard-response","130","111102","0.0-130.0","32Q90QCQ1T7CI739AFDFT16OBXXKER","A1MTQP7TA5RCOB","3XT3KXP24ZKFDDMCDS43FE3AU9W6IW","","456","img/food4.png","75","457","2","0","2","1","1,0.5,0,1,0.5,0,0.5,0,1","0.5,0,1,0.5,0,1,0,1,0.5","2","",""
"","html-keyboard-response","131","111404","0.0-131.0","32Q90QCQ1T7CI739AFDFT16OBXXKER","A1MTQP7TA5RCOB","3XT3KXP24ZKFDDMCDS43FE3AU9W6IW","","null","<img src=""img/food4.png"" style=""width:200px;border:14px solid red;"">","null","","","","","","","","","",""
"","image-keyboard-response","132","112207","0.0-132.0","32Q90QCQ1T7CI739AFDFT16OBXXKER","A1MTQP7TA5RCOB","3XT3KXP24ZKFDDMCDS43FE3AU9W6IW","","802","img/food3.png","75","802","2","1","3","1","1,0.5,0,1,0.5,0,0.5,0,1","0.5,0,1,0.5,0,1,0,1,0.5","2","",""
"","html-keyboard-response","133","112508","0.0-133.0","32Q90QCQ1T7CI739AFDFT16OBXXKER","A1MTQP7TA5RCOB","3XT3KXP24ZKFDDMCDS43FE3AU9W6IW","","null","<img src=""img/food3.png"" style=""width:200px; border:14px solid green;"">","null","","","","","","","","","",""
"","image-keyboard-response","134","113007","0.0-134.0","32Q90QCQ1T7CI739AFDFT16OBXXKER","A1MTQP7TA5RCOB","3XT3KXP24ZKFDDMCDS43FE3AU9W6IW","","497","img/food4.png","76","498","3","1","2","1","1,0.5,0,1,0.5,0,0.5,0,1","0.5,0,1,0.5,0,1,0,1,0.5","2","",""
"","html-keyboard-response","135","113309","0.0-135.0","32Q90QCQ1T7CI739AFDFT16OBXXKER","A1MTQP7TA5RCOB","3XT3KXP24ZKFDDMCDS43FE3AU9W6IW","","null","<img src=""img/food4.png"" style=""width:200px; border:14px solid green;"">","null","","","","","","","","","",""
"","image-keyboard-response","136","113767","0.0-136.0","32Q90QCQ1T7CI739AFDFT16OBXXKER","A1MTQP7TA5RCOB","3XT3KXP24ZKFDDMCDS43FE3AU9W6IW","","457","img/food4.png","76","458","3","1","2","1","1,0.5,0,1,0.5,0,0.5,0,1","0.5,0,1,0.5,0,1,0,1,0.5","2","",""
"","html-keyboard-response","137","114068","0.0-137.0","32Q90QCQ1T7CI739AFDFT16OBXXKER","A1MTQP7TA5RCOB","3XT3KXP24ZKFDDMCDS43FE3AU9W6IW","","null","<img src=""img/food4.png"" style=""width:200px; border:14px solid green;"">","null","","","","","","","","","",""
"","image-keyboard-response","138","114567","0.0-138.0","32Q90QCQ1T7CI739AFDFT16OBXXKER","A1MTQP7TA5RCOB","3XT3KXP24ZKFDDMCDS43FE3AU9W6IW","","499","img/food4.png","76","499","3","1","2","1","1,0.5,0,1,0.5,0,0.5,0,1","0.5,0,1,0.5,0,1,0,1,0.5","2","",""
"","html-keyboard-response","139","114869","0.0-139.0","32Q90QCQ1T7CI739AFDFT16OBXXKER","A1MTQP7TA5RCOB","3XT3KXP24ZKFDDMCDS43FE3AU9W6IW","","null","<img src=""img/food4.png"" style=""width:200px; border:14px solid green;"">","null","","","","","","","","","",""
"","image-keyboard-response","140","115534","0.0-140.0","32Q90QCQ1T7CI739AFDFT16OBXXKER","A1MTQP7TA5RCOB","3XT3KXP24ZKFDDMCDS43FE3AU9W6IW","","664","img/food3.png","75","665","2","1","3","1","1,0.5,0,1,0.5,0,0.5,0,1","0.5,0,1,0.5,0,1,0,1,0.5","2","",""
"","html-keyboard-response","141","115836","0.0-141.0","32Q90QCQ1T7CI739AFDFT16OBXXKER","A1MTQP7TA5RCOB","3XT3KXP24ZKFDDMCDS43FE3AU9W6IW","","null","<img src=""img/food3.png"" style=""width:200px; border:14px solid green;"">","null","","","","","","","","","",""
"","image-keyboard-response","142","116335","0.0-142.0","32Q90QCQ1T7CI739AFDFT16OBXXKER","A1MTQP7TA5RCOB","3XT3KXP24ZKFDDMCDS43FE3AU9W6IW","","498","img/food3.png","75","499","2","1","3","1","1,0.5,0,1,0.5,0,0.5,0,1","0.5,0,1,0.5,0,1,0,1,0.5","2","",""
"","html-keyboard-response","143","116637","0.0-143.0","32Q90QCQ1T7CI739AFDFT16OBXXKER","A1MTQP7TA5RCOB","3XT3KXP24ZKFDDMCDS43FE3AU9W6IW","","null","<img src=""img/food3.png"" style=""width:200px; border:14px solid green;"">","null","","","","","","","","","",""
"","image-keyboard-response","144","117070","0.0-144.0","32Q90QCQ1T7CI739AFDFT16OBXXKER","A1MTQP7TA5RCOB","3XT3KXP24ZKFDDMCDS43FE3AU9W6IW","","433","img/food3.png","75","433","2","1","3","1","1,0.5,0,1,0.5,0,0.5,0,1","0.5,0,1,0.5,0,1,0,1,0.5","2","",""
"","html-keyboard-response","145","117372","0.0-145.0","32Q90QCQ1T7CI739AFDFT16OBXXKER","A1MTQP7TA5RCOB","3XT3KXP24ZKFDDMCDS43FE3AU9W6IW","","null","<img src=""img/food3.png"" style=""width:200px; border:14px solid green;"">","null","","","","","","","","","",""
"","image-keyboard-response","146","118031","0.0-146.0","32Q90QCQ1T7CI739AFDFT16OBXXKER","A1MTQP7TA5RCOB","3XT3KXP24ZKFDDMCDS43FE3AU9W6IW","","658","img/food4.png","76","660","3","1","2","1","1,0.5,0,1,0.5,0,0.5,0,1","0.5,0,1,0.5,0,1,0,1,0.5","2","",""
"","html-keyboard-response","147","118332","0.0-147.0","32Q90QCQ1T7CI739AFDFT16OBXXKER","A1MTQP7TA5RCOB","3XT3KXP24ZKFDDMCDS43FE3AU9W6IW","","null","<img src=""img/food4.png"" style=""width:200px; border:14px solid green;"">","null","","","","","","","","","",""
"","image-keyboard-response","148","118775","0.0-148.0","32Q90QCQ1T7CI739AFDFT16OBXXKER","A1MTQP7TA5RCOB","3XT3KXP24ZKFDDMCDS43FE3AU9W6IW","","442","img/food4.png","76","443","3","1","2","1","1,0.5,0,1,0.5,0,0.5,0,1","0.5,0,1,0.5,0,1,0,1,0.5","2","",""
"","html-keyboard-response","149","119076","0.0-149.0","32Q90QCQ1T7CI739AFDFT16OBXXKER","A1MTQP7TA5RCOB","3XT3KXP24ZKFDDMCDS43FE3AU9W6IW","","null","<img src=""img/food4.png"" style=""width:200px; border:14px solid green;"">","null","","","","","","","","","",""
"","image-keyboard-response","150","119559","0.0-150.0","32Q90QCQ1T7CI739AFDFT16OBXXKER","A1MTQP7TA5RCOB","3XT3KXP24ZKFDDMCDS43FE3AU9W6IW","","482","img/food4.png","76","483","3","1","2","1","1,0.5,0,1,0.5,0,0.5,0,1","0.5,0,1,0.5,0,1,0,1,0.5","2","",""
"","html-keyboard-response","151","119861","0.0-151.0","32Q90QCQ1T7CI739AFDFT16OBXXKER","A1MTQP7TA5RCOB","3XT3KXP24ZKFDDMCDS43FE3AU9W6IW","","null","<img src=""img/food4.png"" style=""width:200px; border:14px solid green;"">","null","","","","","","","","","",""
"","image-keyboard-response","152","120367","0.0-152.0","32Q90QCQ1T7CI739AFDFT16OBXXKER","A1MTQP7TA5RCOB","3XT3KXP24ZKFDDMCDS43FE3AU9W6IW","","505","img/food4.png","76","505","3","1","2","1","1,0.5,0,1,0.5,0,0.5,0,1","0.5,0,1,0.5,0,1,0,1,0.5","2","",""
"","html-keyboard-response","153","120669","0.0-153.0","32Q90QCQ1T7CI739AFDFT16OBXXKER","A1MTQP7TA5RCOB","3XT3KXP24ZKFDDMCDS43FE3AU9W6IW","","null","<img src=""img/food4.png"" style=""width:200px; border:14px solid green;"">","null","","","","","","","","","",""
"","image-keyboard-response","154","121527","0.0-154.0","32Q90QCQ1T7CI739AFDFT16OBXXKER","A1MTQP7TA5RCOB","3XT3KXP24ZKFDDMCDS43FE3AU9W6IW","","857","img/food5.png","76","858","3","1","1","1","1,0.5,0,1,0.5,0,0.5,0,1","0.5,0,1,0.5,0,1,0,1,0.5","2","",""
"","html-keyboard-response","155","121829","0.0-155.0","32Q90QCQ1T7CI739AFDFT16OBXXKER","A1MTQP7TA5RCOB","3XT3KXP24ZKFDDMCDS43FE3AU9W6IW","","null","<img src=""img/food5.png"" style=""width:200px; border:14px solid green;"">","null","","","","","","","","","",""
"","image-keyboard-response","156","122327","0.0-156.0","32Q90QCQ1T7CI739AFDFT16OBXXKER","A1MTQP7TA5RCOB","3XT3KXP24ZKFDDMCDS43FE3AU9W6IW","","498","img/food5.png","76","499","3","1","1","1","1,0.5,0,1,0.5,0,0.5,0,1","0.5,0,1,0.5,0,1,0,1,0.5","2","",""
"","html-keyboard-response","157","122629","0.0-157.0","32Q90QCQ1T7CI739AFDFT16OBXXKER","A1MTQP7TA5RCOB","3XT3KXP24ZKFDDMCDS43FE3AU9W6IW","","null","<img src=""img/food5.png"" style=""width:200px; border:14px solid green;"">","null","","","","","","","","","",""
"","image-keyboard-response","158","123439","0.0-158.0","32Q90QCQ1T7CI739AFDFT16OBXXKER","A1MTQP7TA5RCOB","3XT3KXP24ZKFDDMCDS43FE3AU9W6IW","","809","img/food4.png","76","809","3","1","2","1","1,0.5,0,1,0.5,0,0.5,0,1","0.5,0,1,0.5,0,1,0,1,0.5","2","",""
"","html-keyboard-response","159","123742","0.0-159.0","32Q90QCQ1T7CI739AFDFT16OBXXKER","A1MTQP7TA5RCOB","3XT3KXP24ZKFDDMCDS43FE3AU9W6IW","","null","<img src=""img/food4.png"" style=""width:200px; border:14px solid green;"">","null","","","","","","","","","",""
"","image-keyboard-response","160","124279","0.0-160.0","32Q90QCQ1T7CI739AFDFT16OBXXKER","A1MTQP7TA5RCOB","3XT3KXP24ZKFDDMCDS43FE3AU9W6IW","","537","img/food5.png","76","537","3","1","1","1","1,0.5,0,1,0.5,0,0.5,0,1","0.5,0,1,0.5,0,1,0,1,0.5","2","",""
"","html-keyboard-response","161","124581","0.0-161.0","32Q90QCQ1T7CI739AFDFT16OBXXKER","A1MTQP7TA5RCOB","3XT3KXP24ZKFDDMCDS43FE3AU9W6IW","","null","<img src=""img/food5.png"" style=""width:200px; border:14px solid green;"">","null","","","","","","","","","",""
"","image-keyboard-response","162","125031","0.0-162.0","32Q90QCQ1T7CI739AFDFT16OBXXKER","A1MTQP7TA5RCOB","3XT3KXP24ZKFDDMCDS43FE3AU9W6IW","","450","img/food5.png","76","450","3","1","1","1","1,0.5,0,1,0.5,0,0.5,0,1","0.5,0,1,0.5,0,1,0,1,0.5","2","",""
"","html-keyboard-response","163","125333","0.0-163.0","32Q90QCQ1T7CI739AFDFT16OBXXKER","A1MTQP7TA5RCOB","3XT3KXP24ZKFDDMCDS43FE3AU9W6IW","","null","<img src=""img/food5.png"" style=""width:200px; border:14px solid green;"">","null","","","","","","","","","",""
"","image-keyboard-response","164","125767","0.0-164.0","32Q90QCQ1T7CI739AFDFT16OBXXKER","A1MTQP7TA5RCOB","3XT3KXP24ZKFDDMCDS43FE3AU9W6IW","","433","img/food5.png","76","433","3","1","1","1","1,0.5,0,1,0.5,0,0.5,0,1","0.5,0,1,0.5,0,1,0,1,0.5","2","",""
"","html-keyboard-response","165","126068","0.0-165.0","32Q90QCQ1T7CI739AFDFT16OBXXKER","A1MTQP7TA5RCOB","3XT3KXP24ZKFDDMCDS43FE3AU9W6IW","","null","<img src=""img/food5.png"" style=""width:200px; border:14px solid green;"">","null","","","","","","","","","",""
"","image-keyboard-response","166","126655","0.0-166.0","32Q90QCQ1T7CI739AFDFT16OBXXKER","A1MTQP7TA5RCOB","3XT3KXP24ZKFDDMCDS43FE3AU9W6IW","","586","img/food3.png","75","587","2","1","3","1","1,0.5,0,1,0.5,0,0.5,0,1","0.5,0,1,0.5,0,1,0,1,0.5","2","",""
"","html-keyboard-response","167","126957","0.0-167.0","32Q90QCQ1T7CI739AFDFT16OBXXKER","A1MTQP7TA5RCOB","3XT3KXP24ZKFDDMCDS43FE3AU9W6IW","","null","<img src=""img/food3.png"" style=""width:200px; border:14px solid green;"">","null","","","","","","","","","",""
"","image-keyboard-response","168","127639","0.0-168.0","32Q90QCQ1T7CI739AFDFT16OBXXKER","A1MTQP7TA5RCOB","3XT3KXP24ZKFDDMCDS43FE3AU9W6IW","","681","img/food4.png","76","683","3","1","2","1","1,0.5,0,1,0.5,0,0.5,0,1","0.5,0,1,0.5,0,1,0,1,0.5","2","",""
"","html-keyboard-response","169","127941","0.0-169.0","32Q90QCQ1T7CI739AFDFT16OBXXKER","A1MTQP7TA5RCOB","3XT3KXP24ZKFDDMCDS43FE3AU9W6IW","","null","<img src=""img/food4.png"" style=""width:200px; border:14px solid green;"">","null","","","","","","","","","",""
"","image-keyboard-response","170","128423","0.0-170.0","32Q90QCQ1T7CI739AFDFT16OBXXKER","A1MTQP7TA5RCOB","3XT3KXP24ZKFDDMCDS43FE3AU9W6IW","","482","img/food4.png","76","482","3","1","2","1","1,0.5,0,1,0.5,0,0.5,0,1","0.5,0,1,0.5,0,1,0,1,0.5","2","",""
"","html-keyboard-response","171","128726","0.0-171.0","32Q90QCQ1T7CI739AFDFT16OBXXKER","A1MTQP7TA5RCOB","3XT3KXP24ZKFDDMCDS43FE3AU9W6IW","","null","<img src=""img/food4.png"" style=""width:200px; border:14px solid green;"">","null","","","","","","","","","",""
"","image-keyboard-response","172","129543","0.0-172.0","32Q90QCQ1T7CI739AFDFT16OBXXKER","A1MTQP7TA5RCOB","3XT3KXP24ZKFDDMCDS43FE3AU9W6IW","","816","img/food5.png","76","816","3","1","1","1","1,0.5,0,1,0.5,0,0.5,0,1","0.5,0,1,0.5,0,1,0,1,0.5","2","",""
"","html-keyboard-response","173","129846","0.0-173.0","32Q90QCQ1T7CI739AFDFT16OBXXKER","A1MTQP7TA5RCOB","3XT3KXP24ZKFDDMCDS43FE3AU9W6IW","","null","<img src=""img/food5.png"" style=""width:200px; border:14px solid green;"">","null","","","","","","","","","",""
"","image-keyboard-response","174","130327","0.0-174.0","32Q90QCQ1T7CI739AFDFT16OBXXKER","A1MTQP7TA5RCOB","3XT3KXP24ZKFDDMCDS43FE3AU9W6IW","","481","img/food5.png","76","482","3","1","1","1","1,0.5,0,1,0.5,0,0.5,0,1","0.5,0,1,0.5,0,1,0,1,0.5","2","",""
"","html-keyboard-response","175","130629","0.0-175.0","32Q90QCQ1T7CI739AFDFT16OBXXKER","A1MTQP7TA5RCOB","3XT3KXP24ZKFDDMCDS43FE3AU9W6IW","","null","<img src=""img/food5.png"" style=""width:200px; border:14px solid green;"">","null","","","","","","","","","",""
"","image-keyboard-response","176","131352","0.0-176.0","32Q90QCQ1T7CI739AFDFT16OBXXKER","A1MTQP7TA5RCOB","3XT3KXP24ZKFDDMCDS43FE3AU9W6IW","","723","img/food4.png","76","723","3","1","2","1","1,0.5,0,1,0.5,0,0.5,0,1","0.5,0,1,0.5,0,1,0,1,0.5","2","",""
"","html-keyboard-response","177","131654","0.0-177.0","32Q90QCQ1T7CI739AFDFT16OBXXKER","A1MTQP7TA5RCOB","3XT3KXP24ZKFDDMCDS43FE3AU9W6IW","","null","<img src=""img/food4.png"" style=""width:200px; border:14px solid green;"">","null","","","","","","","","","",""
"","image-keyboard-response","178","132207","0.0-178.0","32Q90QCQ1T7CI739AFDFT16OBXXKER","A1MTQP7TA5RCOB","3XT3KXP24ZKFDDMCDS43FE3AU9W6IW","","552","img/food3.png","75","553","2","1","3","1","1,0.5,0,1,0.5,0,0.5,0,1","0.5,0,1,0.5,0,1,0,1,0.5","2","",""
"","html-keyboard-response","179","132509","0.0-179.0","32Q90QCQ1T7CI739AFDFT16OBXXKER","A1MTQP7TA5RCOB","3XT3KXP24ZKFDDMCDS43FE3AU9W6IW","","null","<img src=""img/food3.png"" style=""width:200px; border:14px solid green;"">","null","","","","","","","","","",""
"","image-keyboard-response","180","133079","0.0-180.0","32Q90QCQ1T7CI739AFDFT16OBXXKER","A1MTQP7TA5RCOB","3XT3KXP24ZKFDDMCDS43FE3AU9W6IW","","569","img/food5.png","76","569","3","1","1","1","1,0.5,0,1,0.5,0,0.5,0,1","0.5,0,1,0.5,0,1,0,1,0.5","2","",""
"","html-keyboard-response","181","133380","0.0-181.0","32Q90QCQ1T7CI739AFDFT16OBXXKER","A1MTQP7TA5RCOB","3XT3KXP24ZKFDDMCDS43FE3AU9W6IW","","null","<img src=""img/food5.png"" style=""width:200px; border:14px solid green;"">","null","","","","","","","","","",""
"","html-keyboard-response","182","136581","0.0-182.0","32Q90QCQ1T7CI739AFDFT16OBXXKER","A1MTQP7TA5RCOB","3XT3KXP24ZKFDDMCDS43FE3AU9W6IW","","","","","","","","","","","","","",""
"","instructions","183","149487","0.0-183.0","32Q90QCQ1T7CI739AFDFT16OBXXKER","A1MTQP7TA5RCOB","3XT3KXP24ZKFDDMCDS43FE3AU9W6IW","[{""page_index"":0,""viewing_time"":11723},{""page_index"":1,""viewing_time"":1182}]","12905","","","","","","","","","","","",""
"","image-keyboard-response","184","150183","0.0-184.0","32Q90QCQ1T7CI739AFDFT16OBXXKER","A1MTQP7TA5RCOB","3XT3KXP24ZKFDDMCDS43FE3AU9W6IW","","695","img/food6.png","75","695","2","0","1","2","1,0.5,0,1,0.5,0,0.5,0,1","1,0.5,0,1,0.5,0,0.5,0,1","1","false",""
"","html-keyboard-response","185","150486","0.0-185.0","32Q90QCQ1T7CI739AFDFT16OBXXKER","A1MTQP7TA5RCOB","3XT3KXP24ZKFDDMCDS43FE3AU9W6IW","","null","<img src=""img/food6.png"" style=""width:200px;border:14px solid red;"">","null","","","","","","","","","",""
"","image-keyboard-response","186","150967","0.0-187.0","32Q90QCQ1T7CI739AFDFT16OBXXKER","A1MTQP7TA5RCOB","3XT3KXP24ZKFDDMCDS43FE3AU9W6IW","","479","img/food1.png","74","481","1","1","3","2","1,0.5,0,1,0.5,0,0.5,0,1","1,0.5,0,1,0.5,0,0.5,0,1","1","false",""
"","html-keyboard-response","187","151268","0.0-188.0","32Q90QCQ1T7CI739AFDFT16OBXXKER","A1MTQP7TA5RCOB","3XT3KXP24ZKFDDMCDS43FE3AU9W6IW","","null","<img src=""img/food1.png"" style=""width:200px; border:14px solid green;"">","null","","","","","","","","","",""
"","image-keyboard-response","188","151687","0.0-190.0","32Q90QCQ1T7CI739AFDFT16OBXXKER","A1MTQP7TA5RCOB","3XT3KXP24ZKFDDMCDS43FE3AU9W6IW","","418","img/food1.png","74","419","1","1","3","2","1,0.5,0,1,0.5,0,0.5,0,1","1,0.5,0,1,0.5,0,0.5,0,1","1","false",""
"","html-keyboard-response","189","151989","0.0-191.0","32Q90QCQ1T7CI739AFDFT16OBXXKER","A1MTQP7TA5RCOB","3XT3KXP24ZKFDDMCDS43FE3AU9W6IW","","null","<img src=""img/food1.png"" style=""width:200px; border:14px solid green;"">","null","","","","","","","","","",""
"","image-keyboard-response","190","152679","0.0-193.0","32Q90QCQ1T7CI739AFDFT16OBXXKER","A1MTQP7TA5RCOB","3XT3KXP24ZKFDDMCDS43FE3AU9W6IW","","688","img/food2.png","75","688","2","0","2","2","1,0.5,0,1,0.5,0,0.5,0,1","1,0.5,0,1,0.5,0,0.5,0,1","1","false",""
"","html-keyboard-response","191","152989","0.0-194.0","32Q90QCQ1T7CI739AFDFT16OBXXKER","A1MTQP7TA5RCOB","3XT3KXP24ZKFDDMCDS43FE3AU9W6IW","","null","<img src=""img/food2.png"" style=""width:200px;border:14px solid red;"">","null","","","","","","","","","",""
"","image-keyboard-response","192","153615","0.0-196.0","32Q90QCQ1T7CI739AFDFT16OBXXKER","A1MTQP7TA5RCOB","3XT3KXP24ZKFDDMCDS43FE3AU9W6IW","","625","img/food2.png","75","626","2","1","2","2","1,0.5,0,1,0.5,0,0.5,0,1","1,0.5,0,1,0.5,0,0.5,0,1","1","false",""
"","html-keyboard-response","193","153917","0.0-197.0","32Q90QCQ1T7CI739AFDFT16OBXXKER","A1MTQP7TA5RCOB","3XT3KXP24ZKFDDMCDS43FE3AU9W6IW","","null","<img src=""img/food2.png"" style=""width:200px; border:14px solid green;"">","null","","","","","","","","","",""
"","image-keyboard-response","194","154351","0.0-199.0","32Q90QCQ1T7CI739AFDFT16OBXXKER","A1MTQP7TA5RCOB","3XT3KXP24ZKFDDMCDS43FE3AU9W6IW","","433","img/food2.png","75","433","2","0","2","2","1,0.5,0,1,0.5,0,0.5,0,1","1,0.5,0,1,0.5,0,0.5,0,1","1","false",""
"","html-keyboard-response","195","154653","0.0-200.0","32Q90QCQ1T7CI739AFDFT16OBXXKER","A1MTQP7TA5RCOB","3XT3KXP24ZKFDDMCDS43FE3AU9W6IW","","null","<img src=""img/food2.png"" style=""width:200px;border:14px solid red;"">","null","","","","","","","","","",""
"","image-keyboard-response","196","155087","0.0-202.0","32Q90QCQ1T7CI739AFDFT16OBXXKER","A1MTQP7TA5RCOB","3XT3KXP24ZKFDDMCDS43FE3AU9W6IW","","431","img/food2.png","76","432","3","0","2","2","1,0.5,0,1,0.5,0,0.5,0,1","1,0.5,0,1,0.5,0,0.5,0,1","1","false",""
"","html-keyboard-response","197","155389","0.0-203.0","32Q90QCQ1T7CI739AFDFT16OBXXKER","A1MTQP7TA5RCOB","3XT3KXP24ZKFDDMCDS43FE3AU9W6IW","","null","<img src=""img/food2.png"" style=""width:200px;border:14px solid red;"">","null","","","","","","","","","",""
"","image-keyboard-response","198","156111","0.0-205.0","32Q90QCQ1T7CI739AFDFT16OBXXKER","A1MTQP7TA5RCOB","3XT3KXP24ZKFDDMCDS43FE3AU9W6IW","","721","img/food6.png","75","722","2","1","1","2","1,0.5,0,1,0.5,0,0.5,0,1","1,0.5,0,1,0.5,0,0.5,0,1","1","false",""
"","html-keyboard-response","199","156412","0.0-206.0","32Q90QCQ1T7CI739AFDFT16OBXXKER","A1MTQP7TA5RCOB","3XT3KXP24ZKFDDMCDS43FE3AU9W6IW","","null","<img src=""img/food6.png"" style=""width:200px; border:14px solid green;"">","null","","","","","","","","","",""
"","image-keyboard-response","200","156799","0.0-208.0","32Q90QCQ1T7CI739AFDFT16OBXXKER","A1MTQP7TA5RCOB","3XT3KXP24ZKFDDMCDS43FE3AU9W6IW","","386","img/food6.png","75","386","2","1","1","2","1,0.5,0,1,0.5,0,0.5,0,1","1,0.5,0,1,0.5,0,0.5,0,1","1","false",""
"","html-keyboard-response","201","157100","0.0-209.0","32Q90QCQ1T7CI739AFDFT16OBXXKER","A1MTQP7TA5RCOB","3XT3KXP24ZKFDDMCDS43FE3AU9W6IW","","null","<img src=""img/food6.png"" style=""width:200px; border:14px solid green;"">","null","","","","","","","","","",""
"","image-keyboard-response","202","157599","0.0-211.0","32Q90QCQ1T7CI739AFDFT16OBXXKER","A1MTQP7TA5RCOB","3XT3KXP24ZKFDDMCDS43FE3AU9W6IW","","497","img/food1.png","75","498","2","0","3","2","1,0.5,0,1,0.5,0,0.5,0,1","1,0.5,0,1,0.5,0,0.5,0,1","1","false",""
"","html-keyboard-response","203","157902","0.0-212.0","32Q90QCQ1T7CI739AFDFT16OBXXKER","A1MTQP7TA5RCOB","3XT3KXP24ZKFDDMCDS43FE3AU9W6IW","","null","<img src=""img/food1.png"" style=""width:200px;border:14px solid red;"">","null","","","","","","","","","",""
"","image-keyboard-response","204","158311","0.0-214.0","32Q90QCQ1T7CI739AFDFT16OBXXKER","A1MTQP7TA5RCOB","3XT3KXP24ZKFDDMCDS43FE3AU9W6IW","","409","img/food1.png","74","409","1","1","3","2","1,0.5,0,1,0.5,0,0.5,0,1","1,0.5,0,1,0.5,0,0.5,0,1","1","false",""
"","html-keyboard-response","205","158613","0.0-215.0","32Q90QCQ1T7CI739AFDFT16OBXXKER","A1MTQP7TA5RCOB","3XT3KXP24ZKFDDMCDS43FE3AU9W6IW","","null","<img src=""img/food1.png"" style=""width:200px; border:14px solid green;"">","null","","","","","","","","","",""
"","image-keyboard-response","206","159239","0.0-217.0","32Q90QCQ1T7CI739AFDFT16OBXXKER","A1MTQP7TA5RCOB","3XT3KXP24ZKFDDMCDS43FE3AU9W6IW","","625","img/food2.png","75","626","2","1","2","2","1,0.5,0,1,0.5,0,0.5,0,1","1,0.5,0,1,0.5,0,0.5,0,1","1","false",""
"","html-keyboard-response","207","159540","0.0-218.0","32Q90QCQ1T7CI739AFDFT16OBXXKER","A1MTQP7TA5RCOB","3XT3KXP24ZKFDDMCDS43FE3AU9W6IW","","null","<img src=""img/food2.png"" style=""width:200px; border:14px solid green;"">","null","","","","","","","","","",""
"","image-keyboard-response","208","160215","0.0-220.0","32Q90QCQ1T7CI739AFDFT16OBXXKER","A1MTQP7TA5RCOB","3XT3KXP24ZKFDDMCDS43FE3AU9W6IW","","673","img/food1.png","74","674","1","0","3","2","1,0.5,0,1,0.5,0,0.5,0,1","1,0.5,0,1,0.5,0,0.5,0,1","1","false",""
"","html-keyboard-response","209","160517","0.0-221.0","32Q90QCQ1T7CI739AFDFT16OBXXKER","A1MTQP7TA5RCOB","3XT3KXP24ZKFDDMCDS43FE3AU9W6IW","","null","<img src=""img/food1.png"" style=""width:200px;border:14px solid red;"">","null","","","","","","","","","",""
"","image-keyboard-response","210","161047","0.0-223.0","32Q90QCQ1T7CI739AFDFT16OBXXKER","A1MTQP7TA5RCOB","3XT3KXP24ZKFDDMCDS43FE3AU9W6IW","","530","img/food2.png","74","530","1","1","2","2","1,0.5,0,1,0.5,0,0.5,0,1","1,0.5,0,1,0.5,0,0.5,0,1","1","false",""
"","html-keyboard-response","211","161349","0.0-224.0","32Q90QCQ1T7CI739AFDFT16OBXXKER","A1MTQP7TA5RCOB","3XT3KXP24ZKFDDMCDS43FE3AU9W6IW","","null","<img src=""img/food2.png"" style=""width:200px; border:14px solid green;"">","null","","","","","","","","","",""
"","image-keyboard-response","212","161871","0.0-226.0","32Q90QCQ1T7CI739AFDFT16OBXXKER","A1MTQP7TA5RCOB","3XT3KXP24ZKFDDMCDS43FE3AU9W6IW","","521","img/food6.png","75","523","2","1","1","2","1,0.5,0,1,0.5,0,0.5,0,1","1,0.5,0,1,0.5,0,0.5,0,1","1","false",""
"","html-keyboard-response","213","162173","0.0-227.0","32Q90QCQ1T7CI739AFDFT16OBXXKER","A1MTQP7TA5RCOB","3XT3KXP24ZKFDDMCDS43FE3AU9W6IW","","null","<img src=""img/food6.png"" style=""width:200px; border:14px solid green;"">","null","","","","","","","","","",""
"","image-keyboard-response","214","162622","0.0-229.0","32Q90QCQ1T7CI739AFDFT16OBXXKER","A1MTQP7TA5RCOB","3XT3KXP24ZKFDDMCDS43FE3AU9W6IW","","448","img/food6.png","75","449","2","0","1","2","1,0.5,0,1,0.5,0,0.5,0,1","1,0.5,0,1,0.5,0,0.5,0,1","1","false",""
"","html-keyboard-response","215","162924","0.0-230.0","32Q90QCQ1T7CI739AFDFT16OBXXKER","A1MTQP7TA5RCOB","3XT3KXP24ZKFDDMCDS43FE3AU9W6IW","","null","<img src=""img/food6.png"" style=""width:200px;border:14px solid red;"">","null","","","","","","","","","",""
"","image-keyboard-response","216","163479","0.0-232.0","32Q90QCQ1T7CI739AFDFT16OBXXKER","A1MTQP7TA5RCOB","3XT3KXP24ZKFDDMCDS43FE3AU9W6IW","","554","img/food6.png","76","554","3","0","1","2","1,0.5,0,1,0.5,0,0.5,0,1","1,0.5,0,1,0.5,0,0.5,0,1","1","false",""
"","html-keyboard-response","217","163781","0.0-233.0","32Q90QCQ1T7CI739AFDFT16OBXXKER","A1MTQP7TA5RCOB","3XT3KXP24ZKFDDMCDS43FE3AU9W6IW","","null","<img src=""img/food6.png"" style=""width:200px;border:14px solid red;"">","null","","","","","","","","","",""
"","image-keyboard-response","218","164311","0.0-235.0","32Q90QCQ1T7CI739AFDFT16OBXXKER","A1MTQP7TA5RCOB","3XT3KXP24ZKFDDMCDS43FE3AU9W6IW","","530","img/food6.png","74","531","1","1","1","2","1,0.5,0,1,0.5,0,0.5,0,1","1,0.5,0,1,0.5,0,0.5,0,1","1","false",""
"","html-keyboard-response","219","164613","0.0-236.0","32Q90QCQ1T7CI739AFDFT16OBXXKER","A1MTQP7TA5RCOB","3XT3KXP24ZKFDDMCDS43FE3AU9W6IW","","null","<img src=""img/food6.png"" style=""width:200px; border:14px solid green;"">","null","","","","","","","","","",""
"","image-keyboard-response","220","165151","0.0-238.0","32Q90QCQ1T7CI739AFDFT16OBXXKER","A1MTQP7TA5RCOB","3XT3KXP24ZKFDDMCDS43FE3AU9W6IW","","537","img/food2.png","75","538","2","0","2","2","1,0.5,0,1,0.5,0,0.5,0,1","1,0.5,0,1,0.5,0,0.5,0,1","1","false",""
"","html-keyboard-response","221","165453","0.0-239.0","32Q90QCQ1T7CI739AFDFT16OBXXKER","A1MTQP7TA5RCOB","3XT3KXP24ZKFDDMCDS43FE3AU9W6IW","","null","<img src=""img/food2.png"" style=""width:200px;border:14px solid red;"">","null","","","","","","","","","",""
"","image-keyboard-response","222","165935","0.0-241.0","32Q90QCQ1T7CI739AFDFT16OBXXKER","A1MTQP7TA5RCOB","3XT3KXP24ZKFDDMCDS43FE3AU9W6IW","","483","img/food1.png","76","483","3","1","3","2","1,0.5,0,1,0.5,0,0.5,0,1","1,0.5,0,1,0.5,0,0.5,0,1","1","false",""
"","html-keyboard-response","223","166237","0.0-242.0","32Q90QCQ1T7CI739AFDFT16OBXXKER","A1MTQP7TA5RCOB","3XT3KXP24ZKFDDMCDS43FE3AU9W6IW","","null","<img src=""img/food1.png"" style=""width:200px; border:14px solid green;"">","null","","","","","","","","","",""
"","image-keyboard-response","224","166815","0.0-244.0","32Q90QCQ1T7CI739AFDFT16OBXXKER","A1MTQP7TA5RCOB","3XT3KXP24ZKFDDMCDS43FE3AU9W6IW","","578","img/food6.png","75","578","2","1","1","2","1,0.5,0,1,0.5,0,0.5,0,1","1,0.5,0,1,0.5,0,0.5,0,1","1","false",""
"","html-keyboard-response","225","167116","0.0-245.0","32Q90QCQ1T7CI739AFDFT16OBXXKER","A1MTQP7TA5RCOB","3XT3KXP24ZKFDDMCDS43FE3AU9W6IW","","null","<img src=""img/food6.png"" style=""width:200px; border:14px solid green;"">","null","","","","","","","","","",""
"","image-keyboard-response","226","167503","0.0-247.0","32Q90QCQ1T7CI739AFDFT16OBXXKER","A1MTQP7TA5RCOB","3XT3KXP24ZKFDDMCDS43FE3AU9W6IW","","386","img/food6.png","75","386","2","0","1","2","1,0.5,0,1,0.5,0,0.5,0,1","1,0.5,0,1,0.5,0,0.5,0,1","1","false",""
"","html-keyboard-response","227","167806","0.0-248.0","32Q90QCQ1T7CI739AFDFT16OBXXKER","A1MTQP7TA5RCOB","3XT3KXP24ZKFDDMCDS43FE3AU9W6IW","","null","<img src=""img/food6.png"" style=""width:200px;border:14px solid red;"">","null","","","","","","","","","",""
"","image-keyboard-response","228","168207","0.0-250.0","32Q90QCQ1T7CI739AFDFT16OBXXKER","A1MTQP7TA5RCOB","3XT3KXP24ZKFDDMCDS43FE3AU9W6IW","","400","img/food6.png","75","400","2","0","1","2","1,0.5,0,1,0.5,0,0.5,0,1","1,0.5,0,1,0.5,0,0.5,0,1","1","false",""
"","html-keyboard-response","229","168508","0.0-251.0","32Q90QCQ1T7CI739AFDFT16OBXXKER","A1MTQP7TA5RCOB","3XT3KXP24ZKFDDMCDS43FE3AU9W6IW","","null","<img src=""img/food6.png"" style=""width:200px;border:14px solid red;"">","null","","","","","","","","","",""
"","image-keyboard-response","230","168919","0.0-253.0","32Q90QCQ1T7CI739AFDFT16OBXXKER","A1MTQP7TA5RCOB","3XT3KXP24ZKFDDMCDS43FE3AU9W6IW","","411","img/food6.png","75","411","2","1","1","2","1,0.5,0,1,0.5,0,0.5,0,1","1,0.5,0,1,0.5,0,0.5,0,1","1","false",""
"","html-keyboard-response","231","169221","0.0-254.0","32Q90QCQ1T7CI739AFDFT16OBXXKER","A1MTQP7TA5RCOB","3XT3KXP24ZKFDDMCDS43FE3AU9W6IW","","null","<img src=""img/food6.png"" style=""width:200px; border:14px solid green;"">","null","","","","","","","","","",""
"","image-keyboard-response","232","169983","0.0-256.0","32Q90QCQ1T7CI739AFDFT16OBXXKER","A1MTQP7TA5RCOB","3XT3KXP24ZKFDDMCDS43FE3AU9W6IW","","760","img/food1.png","76","761","3","1","3","2","1,0.5,0,1,0.5,0,0.5,0,1","1,0.5,0,1,0.5,0,0.5,0,1","1","false",""
"","html-keyboard-response","233","170286","0.0-257.0","32Q90QCQ1T7CI739AFDFT16OBXXKER","A1MTQP7TA5RCOB","3XT3KXP24ZKFDDMCDS43FE3AU9W6IW","","null","<img src=""img/food1.png"" style=""width:200px; border:14px solid green;"">","null","","","","","","","","","",""
"","image-keyboard-response","234","170679","0.0-259.0","32Q90QCQ1T7CI739AFDFT16OBXXKER","A1MTQP7TA5RCOB","3XT3KXP24ZKFDDMCDS43FE3AU9W6IW","","393","img/food1.png","76","394","3","1","3","2","1,0.5,0,1,0.5,0,0.5,0,1","1,0.5,0,1,0.5,0,0.5,0,1","1","false",""
"","html-keyboard-response","235","170981","0.0-260.0","32Q90QCQ1T7CI739AFDFT16OBXXKER","A1MTQP7TA5RCOB","3XT3KXP24ZKFDDMCDS43FE3AU9W6IW","","null","<img src=""img/food1.png"" style=""width:200px; border:14px solid green;"">","null","","","","","","","","","",""
"","image-keyboard-response","236","171407","0.0-262.0","32Q90QCQ1T7CI739AFDFT16OBXXKER","A1MTQP7TA5RCOB","3XT3KXP24ZKFDDMCDS43FE3AU9W6IW","","425","img/food1.png","76","426","3","1","3","2","1,0.5,0,1,0.5,0,0.5,0,1","1,0.5,0,1,0.5,0,0.5,0,1","1","false",""
"","html-keyboard-response","237","171708","0.0-263.0","32Q90QCQ1T7CI739AFDFT16OBXXKER","A1MTQP7TA5RCOB","3XT3KXP24ZKFDDMCDS43FE3AU9W6IW","","null","<img src=""img/food1.png"" style=""width:200px; border:14px solid green;"">","null","","","","","","","","","",""
"","image-keyboard-response","238","172167","0.0-265.0","32Q90QCQ1T7CI739AFDFT16OBXXKER","A1MTQP7TA5RCOB","3XT3KXP24ZKFDDMCDS43FE3AU9W6IW","","459","img/food1.png","76","459","3","1","3","2","1,0.5,0,1,0.5,0,0.5,0,1","1,0.5,0,1,0.5,0,0.5,0,1","1","false",""
"","html-keyboard-response","239","172468","0.0-266.0","32Q90QCQ1T7CI739AFDFT16OBXXKER","A1MTQP7TA5RCOB","3XT3KXP24ZKFDDMCDS43FE3AU9W6IW","","null","<img src=""img/food1.png"" style=""width:200px; border:14px solid green;"">","null","","","","","","","","","",""
"","image-keyboard-response","240","173055","0.0-268.0","32Q90QCQ1T7CI739AFDFT16OBXXKER","A1MTQP7TA5RCOB","3XT3KXP24ZKFDDMCDS43FE3AU9W6IW","","587","img/food2.png","74","587","1","1","2","2","1,0.5,0,1,0.5,0,0.5,0,1","1,0.5,0,1,0.5,0,0.5,0,1","1","false",""
"","html-keyboard-response","241","173357","0.0-269.0","32Q90QCQ1T7CI739AFDFT16OBXXKER","A1MTQP7TA5RCOB","3XT3KXP24ZKFDDMCDS43FE3AU9W6IW","","null","<img src=""img/food2.png"" style=""width:200px; border:14px solid green;"">","null","","","","","","","","","",""
"","image-keyboard-response","242","173767","0.0-271.0","32Q90QCQ1T7CI739AFDFT16OBXXKER","A1MTQP7TA5RCOB","3XT3KXP24ZKFDDMCDS43FE3AU9W6IW","","409","img/food2.png","74","409","1","1","2","2","1,0.5,0,1,0.5,0,0.5,0,1","1,0.5,0,1,0.5,0,0.5,0,1","1","false",""
"","html-keyboard-response","243","174068","0.0-272.0","32Q90QCQ1T7CI739AFDFT16OBXXKER","A1MTQP7TA5RCOB","3XT3KXP24ZKFDDMCDS43FE3AU9W6IW","","null","<img src=""img/food2.png"" style=""width:200px; border:14px solid green;"">","null","","","","","","","","","",""
"","image-keyboard-response","244","174759","0.0-274.0","32Q90QCQ1T7CI739AFDFT16OBXXKER","A1MTQP7TA5RCOB","3XT3KXP24ZKFDDMCDS43FE3AU9W6IW","","690","img/food6.png","75","690","2","0","1","2","1,0.5,0,1,0.5,0,0.5,0,1","1,0.5,0,1,0.5,0,0.5,0,1","1","false",""
"","html-keyboard-response","245","175062","0.0-275.0","32Q90QCQ1T7CI739AFDFT16OBXXKER","A1MTQP7TA5RCOB","3XT3KXP24ZKFDDMCDS43FE3AU9W6IW","","null","<img src=""img/food6.png"" style=""width:200px;border:14px solid red;"">","null","","","","","","","","","",""
"","image-keyboard-response","246","175631","0.0-277.0","32Q90QCQ1T7CI739AFDFT16OBXXKER","A1MTQP7TA5RCOB","3XT3KXP24ZKFDDMCDS43FE3AU9W6IW","","568","img/food1.png","76","570","3","1","3","2","1,0.5,0,1,0.5,0,0.5,0,1","1,0.5,0,1,0.5,0,0.5,0,1","1","false",""
"","html-keyboard-response","247","175933","0.0-278.0","32Q90QCQ1T7CI739AFDFT16OBXXKER","A1MTQP7TA5RCOB","3XT3KXP24ZKFDDMCDS43FE3AU9W6IW","","null","<img src=""img/food1.png"" style=""width:200px; border:14px solid green;"">","null","","","","","","","","","",""
"","image-keyboard-response","248","176535","0.0-280.0","32Q90QCQ1T7CI739AFDFT16OBXXKER","A1MTQP7TA5RCOB","3XT3KXP24ZKFDDMCDS43FE3AU9W6IW","","601","img/food2.png","74","602","1","1","2","2","1,0.5,0,1,0.5,0,0.5,0,1","1,0.5,0,1,0.5,0,0.5,0,1","1","false",""
"","html-keyboard-response","249","176836","0.0-281.0","32Q90QCQ1T7CI739AFDFT16OBXXKER","A1MTQP7TA5RCOB","3XT3KXP24ZKFDDMCDS43FE3AU9W6IW","","null","<img src=""img/food2.png"" style=""width:200px; border:14px solid green;"">","null","","","","","","","","","",""
"","image-keyboard-response","250","177695","0.0-283.0","32Q90QCQ1T7CI739AFDFT16OBXXKER","A1MTQP7TA5RCOB","3XT3KXP24ZKFDDMCDS43FE3AU9W6IW","","858","img/food6.png","75","859","2","1","1","2","1,0.5,0,1,0.5,0,0.5,0,1","1,0.5,0,1,0.5,0,0.5,0,1","1","false",""
"","html-keyboard-response","251","177997","0.0-284.0","32Q90QCQ1T7CI739AFDFT16OBXXKER","A1MTQP7TA5RCOB","3XT3KXP24ZKFDDMCDS43FE3AU9W6IW","","null","<img src=""img/food6.png"" style=""width:200px; border:14px solid green;"">","null","","","","","","","","","",""
"","image-keyboard-response","252","178503","0.0-286.0","32Q90QCQ1T7CI739AFDFT16OBXXKER","A1MTQP7TA5RCOB","3XT3KXP24ZKFDDMCDS43FE3AU9W6IW","","504","img/food1.png","76","506","3","1","3","2","1,0.5,0,1,0.5,0,0.5,0,1","1,0.5,0,1,0.5,0,0.5,0,1","1","false",""
"","html-keyboard-response","253","178805","0.0-287.0","32Q90QCQ1T7CI739AFDFT16OBXXKER","A1MTQP7TA5RCOB","3XT3KXP24ZKFDDMCDS43FE3AU9W6IW","","null","<img src=""img/food1.png"" style=""width:200px; border:14px solid green;"">","null","","","","","","","","","",""
"","image-keyboard-response","254","179375","0.0-289.0","32Q90QCQ1T7CI739AFDFT16OBXXKER","A1MTQP7TA5RCOB","3XT3KXP24ZKFDDMCDS43FE3AU9W6IW","","569","img/food6.png","74","570","1","1","1","2","1,0.5,0,1,0.5,0,0.5,0,1","1,0.5,0,1,0.5,0,0.5,0,1","1","false",""
"","html-keyboard-response","255","179676","0.0-290.0","32Q90QCQ1T7CI739AFDFT16OBXXKER","A1MTQP7TA5RCOB","3XT3KXP24ZKFDDMCDS43FE3AU9W6IW","","null","<img src=""img/food6.png"" style=""width:200px; border:14px solid green;"">","null","","","","","","","","","",""
"","image-keyboard-response","256","180304","0.0-292.0","32Q90QCQ1T7CI739AFDFT16OBXXKER","A1MTQP7TA5RCOB","3XT3KXP24ZKFDDMCDS43FE3AU9W6IW","","626","img/food6.png","74","627","1","1","1","2","1,0.5,0,1,0.5,0,0.5,0,1","1,0.5,0,1,0.5,0,0.5,0,1","1","false",""
"","html-keyboard-response","257","180606","0.0-293.0","32Q90QCQ1T7CI739AFDFT16OBXXKER","A1MTQP7TA5RCOB","3XT3KXP24ZKFDDMCDS43FE3AU9W6IW","","null","<img src=""img/food6.png"" style=""width:200px; border:14px solid green;"">","null","","","","","","","","","",""
"","image-keyboard-response","258","181064","0.0-295.0","32Q90QCQ1T7CI739AFDFT16OBXXKER","A1MTQP7TA5RCOB","3XT3KXP24ZKFDDMCDS43FE3AU9W6IW","","458","img/food6.png","74","458","1","1","1","2","1,0.5,0,1,0.5,0,0.5,0,1","1,0.5,0,1,0.5,0,0.5,0,1","1","false",""
"","html-keyboard-response","259","181365","0.0-296.0","32Q90QCQ1T7CI739AFDFT16OBXXKER","A1MTQP7TA5RCOB","3XT3KXP24ZKFDDMCDS43FE3AU9W6IW","","null","<img src=""img/food6.png"" style=""width:200px; border:14px solid green;"">","null","","","","","","","","","",""
"","image-keyboard-response","260","181873","0.0-298.0","32Q90QCQ1T7CI739AFDFT16OBXXKER","A1MTQP7TA5RCOB","3XT3KXP24ZKFDDMCDS43FE3AU9W6IW","","507","img/food6.png","74","508","1","1","1","2","1,0.5,0,1,0.5,0,0.5,0,1","1,0.5,0,1,0.5,0,0.5,0,1","1","false",""
"","html-keyboard-response","261","182174","0.0-299.0","32Q90QCQ1T7CI739AFDFT16OBXXKER","A1MTQP7TA5RCOB","3XT3KXP24ZKFDDMCDS43FE3AU9W6IW","","null","<img src=""img/food6.png"" style=""width:200px; border:14px solid green;"">","null","","","","","","","","","",""
"","image-keyboard-response","262","182800","0.0-301.0","32Q90QCQ1T7CI739AFDFT16OBXXKER","A1MTQP7TA5RCOB","3XT3KXP24ZKFDDMCDS43FE3AU9W6IW","","624","img/food2.png","75","626","2","0","2","2","1,0.5,0,1,0.5,0,0.5,0,1","1,0.5,0,1,0.5,0,0.5,0,1","1","false",""
"","html-keyboard-response","263","183102","0.0-302.0","32Q90QCQ1T7CI739AFDFT16OBXXKER","A1MTQP7TA5RCOB","3XT3KXP24ZKFDDMCDS43FE3AU9W6IW","","null","<img src=""img/food2.png"" style=""width:200px;border:14px solid red;"">","null","","","","","","","","","",""
"","image-keyboard-response","264","183376","0.0-304.0","32Q90QCQ1T7CI739AFDFT16OBXXKER","A1MTQP7TA5RCOB","3XT3KXP24ZKFDDMCDS43FE3AU9W6IW","","272","img/food6.png","74","273","1","1","1","2","1,0.5,0,1,0.5,0,0.5,0,1","1,0.5,0,1,0.5,0,0.5,0,1","1","false",""
"","html-keyboard-response","265","183678","0.0-305.0","32Q90QCQ1T7CI739AFDFT16OBXXKER","A1MTQP7TA5RCOB","3XT3KXP24ZKFDDMCDS43FE3AU9W6IW","","null","<img src=""img/food6.png"" style=""width:200px; border:14px solid green;"">","null","","","","","","","","","",""
"","image-keyboard-response","266","184176","0.0-307.0","32Q90QCQ1T7CI739AFDFT16OBXXKER","A1MTQP7TA5RCOB","3XT3KXP24ZKFDDMCDS43FE3AU9W6IW","","497","img/food2.png","75","498","2","0","2","2","1,0.5,0,1,0.5,0,0.5,0,1","1,0.5,0,1,0.5,0,0.5,0,1","1","false",""
"","html-keyboard-response","267","184478","0.0-308.0","32Q90QCQ1T7CI739AFDFT16OBXXKER","A1MTQP7TA5RCOB","3XT3KXP24ZKFDDMCDS43FE3AU9W6IW","","null","<img src=""img/food2.png"" style=""width:200px;border:14px solid red;"">","null","","","","","","","","","",""
"","image-keyboard-response","268","184991","0.0-310.0","32Q90QCQ1T7CI739AFDFT16OBXXKER","A1MTQP7TA5RCOB","3XT3KXP24ZKFDDMCDS43FE3AU9W6IW","","513","img/food2.png","74","514","1","1","2","2","1,0.5,0,1,0.5,0,0.5,0,1","1,0.5,0,1,0.5,0,0.5,0,1","1","false",""
"","html-keyboard-response","269","185293","0.0-311.0","32Q90QCQ1T7CI739AFDFT16OBXXKER","A1MTQP7TA5RCOB","3XT3KXP24ZKFDDMCDS43FE3AU9W6IW","","null","<img src=""img/food2.png"" style=""width:200px; border:14px solid green;"">","null","","","","","","","","","",""
"","image-keyboard-response","270","185776","0.0-313.0","32Q90QCQ1T7CI739AFDFT16OBXXKER","A1MTQP7TA5RCOB","3XT3KXP24ZKFDDMCDS43FE3AU9W6IW","","482","img/food1.png","76","483","3","1","3","2","1,0.5,0,1,0.5,0,0.5,0,1","1,0.5,0,1,0.5,0,0.5,0,1","1","false",""
"","html-keyboard-response","271","186078","0.0-314.0","32Q90QCQ1T7CI739AFDFT16OBXXKER","A1MTQP7TA5RCOB","3XT3KXP24ZKFDDMCDS43FE3AU9W6IW","","null","<img src=""img/food1.png"" style=""width:200px; border:14px solid green;"">","null","","","","","","","","","",""
"","image-keyboard-response","272","186776","0.0-316.0","32Q90QCQ1T7CI739AFDFT16OBXXKER","A1MTQP7TA5RCOB","3XT3KXP24ZKFDDMCDS43FE3AU9W6IW","","696","img/food2.png","74","698","1","1","2","2","1,0.5,0,1,0.5,0,0.5,0,1","1,0.5,0,1,0.5,0,0.5,0,1","1","false",""
"","html-keyboard-response","273","187078","0.0-317.0","32Q90QCQ1T7CI739AFDFT16OBXXKER","A1MTQP7TA5RCOB","3XT3KXP24ZKFDDMCDS43FE3AU9W6IW","","null","<img src=""img/food2.png"" style=""width:200px; border:14px solid green;"">","null","","","","","","","","","",""
"","image-keyboard-response","274","187711","0.0-319.0","32Q90QCQ1T7CI739AFDFT16OBXXKER","A1MTQP7TA5RCOB","3XT3KXP24ZKFDDMCDS43FE3AU9W6IW","","632","img/food2.png","74","633","1","1","2","2","1,0.5,0,1,0.5,0,0.5,0,1","1,0.5,0,1,0.5,0,0.5,0,1","1","false",""
"","html-keyboard-response","275","188013","0.0-320.0","32Q90QCQ1T7CI739AFDFT16OBXXKER","A1MTQP7TA5RCOB","3XT3KXP24ZKFDDMCDS43FE3AU9W6IW","","null","<img src=""img/food2.png"" style=""width:200px; border:14px solid green;"">","null","","","","","","","","","",""
"","image-keyboard-response","276","188712","0.0-322.0","32Q90QCQ1T7CI739AFDFT16OBXXKER","A1MTQP7TA5RCOB","3XT3KXP24ZKFDDMCDS43FE3AU9W6IW","","698","img/food6.png","75","698","2","0","1","2","1,0.5,0,1,0.5,0,0.5,0,1","1,0.5,0,1,0.5,0,0.5,0,1","1","false",""
"","html-keyboard-response","277","189013","0.0-323.0","32Q90QCQ1T7CI739AFDFT16OBXXKER","A1MTQP7TA5RCOB","3XT3KXP24ZKFDDMCDS43FE3AU9W6IW","","null","<img src=""img/food6.png"" style=""width:200px;border:14px solid red;"">","null","","","","","","","","","",""
"","image-keyboard-response","278","189464","0.0-325.0","32Q90QCQ1T7CI739AFDFT16OBXXKER","A1MTQP7TA5RCOB","3XT3KXP24ZKFDDMCDS43FE3AU9W6IW","","450","img/food6.png","76","451","3","0","1","2","1,0.5,0,1,0.5,0,0.5,0,1","1,0.5,0,1,0.5,0,0.5,0,1","1","false",""
"","html-keyboard-response","279","189766","0.0-326.0","32Q90QCQ1T7CI739AFDFT16OBXXKER","A1MTQP7TA5RCOB","3XT3KXP24ZKFDDMCDS43FE3AU9W6IW","","null","<img src=""img/food6.png"" style=""width:200px;border:14px solid red;"">","null","","","","","","","","","",""
"","image-keyboard-response","280","190304","0.0-328.0","32Q90QCQ1T7CI739AFDFT16OBXXKER","A1MTQP7TA5RCOB","3XT3KXP24ZKFDDMCDS43FE3AU9W6IW","","536","img/food1.png","74","538","1","1","3","2","1,0.5,0,1,0.5,0,0.5,0,1","1,0.5,0,1,0.5,0,0.5,0,1","1","false",""
"","html-keyboard-response","281","190605","0.0-329.0","32Q90QCQ1T7CI739AFDFT16OBXXKER","A1MTQP7TA5RCOB","3XT3KXP24ZKFDDMCDS43FE3AU9W6IW","","null","<img src=""img/food1.png"" style=""width:200px; border:14px solid green;"">","null","","","","","","","","","",""
"","image-keyboard-response","282","191088","0.0-331.0","32Q90QCQ1T7CI739AFDFT16OBXXKER","A1MTQP7TA5RCOB","3XT3KXP24ZKFDDMCDS43FE3AU9W6IW","","481","img/food6.png","76","483","3","0","1","2","1,0.5,0,1,0.5,0,0.5,0,1","1,0.5,0,1,0.5,0,0.5,0,1","1","false",""
"","html-keyboard-response","283","191390","0.0-332.0","32Q90QCQ1T7CI739AFDFT16OBXXKER","A1MTQP7TA5RCOB","3XT3KXP24ZKFDDMCDS43FE3AU9W6IW","","null","<img src=""img/food6.png"" style=""width:200px;border:14px solid red;"">","null","","","","","","","","","",""
"","image-keyboard-response","284","191999","0.0-334.0","32Q90QCQ1T7CI739AFDFT16OBXXKER","A1MTQP7TA5RCOB","3XT3KXP24ZKFDDMCDS43FE3AU9W6IW","","609","img/food1.png","75","610","2","0","3","2","1,0.5,0,1,0.5,0,0.5,0,1","1,0.5,0,1,0.5,0,0.5,0,1","1","false",""
"","html-keyboard-response","285","192301","0.0-335.0","32Q90QCQ1T7CI739AFDFT16OBXXKER","A1MTQP7TA5RCOB","3XT3KXP24ZKFDDMCDS43FE3AU9W6IW","","null","<img src=""img/food1.png"" style=""width:200px;border:14px solid red;"">","null","","","","","","","","","",""
"","image-keyboard-response","286","192856","0.0-337.0","32Q90QCQ1T7CI739AFDFT16OBXXKER","A1MTQP7TA5RCOB","3XT3KXP24ZKFDDMCDS43FE3AU9W6IW","","554","img/food2.png","74","555","1","1","2","2","1,0.5,0,1,0.5,0,0.5,0,1","1,0.5,0,1,0.5,0,0.5,0,1","1","false",""
"","html-keyboard-response","287","193157","0.0-338.0","32Q90QCQ1T7CI739AFDFT16OBXXKER","A1MTQP7TA5RCOB","3XT3KXP24ZKFDDMCDS43FE3AU9W6IW","","null","<img src=""img/food2.png"" style=""width:200px; border:14px solid green;"">","null","","","","","","","","","",""
"","image-keyboard-response","288","193608","0.0-340.0","32Q90QCQ1T7CI739AFDFT16OBXXKER","A1MTQP7TA5RCOB","3XT3KXP24ZKFDDMCDS43FE3AU9W6IW","","450","img/food2.png","74","451","1","1","2","2","1,0.5,0,1,0.5,0,0.5,0,1","1,0.5,0,1,0.5,0,0.5,0,1","1","false",""
"","html-keyboard-response","289","193909","0.0-341.0","32Q90QCQ1T7CI739AFDFT16OBXXKER","A1MTQP7TA5RCOB","3XT3KXP24ZKFDDMCDS43FE3AU9W6IW","","null","<img src=""img/food2.png"" style=""width:200px; border:14px solid green;"">","null","","","","","","","","","",""
"","image-keyboard-response","290","194504","0.0-343.0","32Q90QCQ1T7CI739AFDFT16OBXXKER","A1MTQP7TA5RCOB","3XT3KXP24ZKFDDMCDS43FE3AU9W6IW","","593","img/food1.png","76","593","3","1","3","2","1,0.5,0,1,0.5,0,0.5,0,1","1,0.5,0,1,0.5,0,0.5,0,1","1","false",""
"","html-keyboard-response","291","194806","0.0-344.0","32Q90QCQ1T7CI739AFDFT16OBXXKER","A1MTQP7TA5RCOB","3XT3KXP24ZKFDDMCDS43FE3AU9W6IW","","null","<img src=""img/food1.png"" style=""width:200px; border:14px solid green;"">","null","","","","","","","","","",""
"","image-keyboard-response","292","195448","0.0-346.0","32Q90QCQ1T7CI739AFDFT16OBXXKER","A1MTQP7TA5RCOB","3XT3KXP24ZKFDDMCDS43FE3AU9W6IW","","641","img/food2.png","74","641","1","1","2","2","1,0.5,0,1,0.5,0,0.5,0,1","1,0.5,0,1,0.5,0,0.5,0,1","1","false",""
"","html-keyboard-response","293","195749","0.0-347.0","32Q90QCQ1T7CI739AFDFT16OBXXKER","A1MTQP7TA5RCOB","3XT3KXP24ZKFDDMCDS43FE3AU9W6IW","","null","<img src=""img/food2.png"" style=""width:200px; border:14px solid green;"">","null","","","","","","","","","",""
"","image-keyboard-response","294","196207","0.0-349.0","32Q90QCQ1T7CI739AFDFT16OBXXKER","A1MTQP7TA5RCOB","3XT3KXP24ZKFDDMCDS43FE3AU9W6IW","","457","img/food2.png","74","459","1","1","2","2","1,0.5,0,1,0.5,0,0.5,0,1","1,0.5,0,1,0.5,0,0.5,0,1","1","false",""
"","html-keyboard-response","295","196510","0.0-350.0","32Q90QCQ1T7CI739AFDFT16OBXXKER","A1MTQP7TA5RCOB","3XT3KXP24ZKFDDMCDS43FE3AU9W6IW","","null","<img src=""img/food2.png"" style=""width:200px; border:14px solid green;"">","null","","","","","","","","","",""
"","image-keyboard-response","296","197016","0.0-352.0","32Q90QCQ1T7CI739AFDFT16OBXXKER","A1MTQP7TA5RCOB","3XT3KXP24ZKFDDMCDS43FE3AU9W6IW","","505","img/food1.png","76","505","3","1","3","2","1,0.5,0,1,0.5,0,0.5,0,1","1,0.5,0,1,0.5,0,0.5,0,1","1","false",""
"","html-keyboard-response","297","197317","0.0-353.0","32Q90QCQ1T7CI739AFDFT16OBXXKER","A1MTQP7TA5RCOB","3XT3KXP24ZKFDDMCDS43FE3AU9W6IW","","null","<img src=""img/food1.png"" style=""width:200px; border:14px solid green;"">","null","","","","","","","","","",""
"","image-keyboard-response","298","197840","0.0-355.0","32Q90QCQ1T7CI739AFDFT16OBXXKER","A1MTQP7TA5RCOB","3XT3KXP24ZKFDDMCDS43FE3AU9W6IW","","521","img/food2.png","74","521","1","1","2","2","1,0.5,0,1,0.5,0,0.5,0,1","1,0.5,0,1,0.5,0,0.5,0,1","1","false",""
"","html-keyboard-response","299","198141","0.0-356.0","32Q90QCQ1T7CI739AFDFT16OBXXKER","A1MTQP7TA5RCOB","3XT3KXP24ZKFDDMCDS43FE3AU9W6IW","","null","<img src=""img/food2.png"" style=""width:200px; border:14px solid green;"">","null","","","","","","","","","",""
"","image-keyboard-response","300","198856","0.0-358.0","32Q90QCQ1T7CI739AFDFT16OBXXKER","A1MTQP7TA5RCOB","3XT3KXP24ZKFDDMCDS43FE3AU9W6IW","","713","img/food6.png","75","713","2","1","1","2","1,0.5,0,1,0.5,0,0.5,0,1","1,0.5,0,1,0.5,0,0.5,0,1","1","false",""
"","html-keyboard-response","301","199158","0.0-359.0","32Q90QCQ1T7CI739AFDFT16OBXXKER","A1MTQP7TA5RCOB","3XT3KXP24ZKFDDMCDS43FE3AU9W6IW","","null","<img src=""img/food6.png"" style=""width:200px; border:14px solid green;"">","null","","","","","","","","","",""
"","image-keyboard-response","302","199736","0.0-361.0","32Q90QCQ1T7CI739AFDFT16OBXXKER","A1MTQP7TA5RCOB","3XT3KXP24ZKFDDMCDS43FE3AU9W6IW","","576","img/food1.png","76","577","3","1","3","2","1,0.5,0,1,0.5,0,0.5,0,1","1,0.5,0,1,0.5,0,0.5,0,1","1","false",""
"","html-keyboard-response","303","200038","0.0-362.0","32Q90QCQ1T7CI739AFDFT16OBXXKER","A1MTQP7TA5RCOB","3XT3KXP24ZKFDDMCDS43FE3AU9W6IW","","null","<img src=""img/food1.png"" style=""width:200px; border:14px solid green;"">","null","","","","","","","","","",""
"","image-keyboard-response","304","200704","0.0-364.0","32Q90QCQ1T7CI739AFDFT16OBXXKER","A1MTQP7TA5RCOB","3XT3KXP24ZKFDDMCDS43FE3AU9W6IW","","666","img/food2.png","74","666","1","1","2","2","1,0.5,0,1,0.5,0,0.5,0,1","1,0.5,0,1,0.5,0,0.5,0,1","1","false",""
"","html-keyboard-response","305","201006","0.0-365.0","32Q90QCQ1T7CI739AFDFT16OBXXKER","A1MTQP7TA5RCOB","3XT3KXP24ZKFDDMCDS43FE3AU9W6IW","","null","<img src=""img/food2.png"" style=""width:200px; border:14px solid green;"">","null","","","","","","","","","",""
"","image-keyboard-response","306","201424","0.0-367.0","32Q90QCQ1T7CI739AFDFT16OBXXKER","A1MTQP7TA5RCOB","3XT3KXP24ZKFDDMCDS43FE3AU9W6IW","","416","img/food2.png","74","418","1","1","2","2","1,0.5,0,1,0.5,0,0.5,0,1","1,0.5,0,1,0.5,0,0.5,0,1","1","false",""
"","html-keyboard-response","307","201727","0.0-368.0","32Q90QCQ1T7CI739AFDFT16OBXXKER","A1MTQP7TA5RCOB","3XT3KXP24ZKFDDMCDS43FE3AU9W6IW","","null","<img src=""img/food2.png"" style=""width:200px; border:14px solid green;"">","null","","","","","","","","","",""
"","image-keyboard-response","308","202184","0.0-370.0","32Q90QCQ1T7CI739AFDFT16OBXXKER","A1MTQP7TA5RCOB","3XT3KXP24ZKFDDMCDS43FE3AU9W6IW","","455","img/food2.png","74","457","1","1","2","2","1,0.5,0,1,0.5,0,0.5,0,1","1,0.5,0,1,0.5,0,0.5,0,1","1","false",""
"","html-keyboard-response","309","202485","0.0-371.0","32Q90QCQ1T7CI739AFDFT16OBXXKER","A1MTQP7TA5RCOB","3XT3KXP24ZKFDDMCDS43FE3AU9W6IW","","null","<img src=""img/food2.png"" style=""width:200px; border:14px solid green;"">","null","","","","","","","","","",""
"","image-keyboard-response","310","203208","0.0-373.0","32Q90QCQ1T7CI739AFDFT16OBXXKER","A1MTQP7TA5RCOB","3XT3KXP24ZKFDDMCDS43FE3AU9W6IW","","722","img/food6.png","75","722","2","1","1","2","1,0.5,0,1,0.5,0,0.5,0,1","1,0.5,0,1,0.5,0,0.5,0,1","1","false",""
"","html-keyboard-response","311","203510","0.0-374.0","32Q90QCQ1T7CI739AFDFT16OBXXKER","A1MTQP7TA5RCOB","3XT3KXP24ZKFDDMCDS43FE3AU9W6IW","","null","<img src=""img/food6.png"" style=""width:200px; border:14px solid green;"">","null","","","","","","","","","",""
"","image-keyboard-response","312","204036","0.0-376.0","32Q90QCQ1T7CI739AFDFT16OBXXKER","A1MTQP7TA5RCOB","3XT3KXP24ZKFDDMCDS43FE3AU9W6IW","","525","img/food1.png","76","526","3","1","3","2","1,0.5,0,1,0.5,0,0.5,0,1","1,0.5,0,1,0.5,0,0.5,0,1","1","false",""
"","html-keyboard-response","313","204338","0.0-377.0","32Q90QCQ1T7CI739AFDFT16OBXXKER","A1MTQP7TA5RCOB","3XT3KXP24ZKFDDMCDS43FE3AU9W6IW","","null","<img src=""img/food1.png"" style=""width:200px; border:14px solid green;"">","null","","","","","","","","","",""
"","image-keyboard-response","314","204784","0.0-379.0","32Q90QCQ1T7CI739AFDFT16OBXXKER","A1MTQP7TA5RCOB","3XT3KXP24ZKFDDMCDS43FE3AU9W6IW","","446","img/food1.png","76","446","3","1","3","2","1,0.5,0,1,0.5,0,0.5,0,1","1,0.5,0,1,0.5,0,0.5,0,1","1","false",""
"","html-keyboard-response","315","205085","0.0-380.0","32Q90QCQ1T7CI739AFDFT16OBXXKER","A1MTQP7TA5RCOB","3XT3KXP24ZKFDDMCDS43FE3AU9W6IW","","null","<img src=""img/food1.png"" style=""width:200px; border:14px solid green;"">","null","","","","","","","","","",""
"","image-keyboard-response","316","205544","0.0-382.0","32Q90QCQ1T7CI739AFDFT16OBXXKER","A1MTQP7TA5RCOB","3XT3KXP24ZKFDDMCDS43FE3AU9W6IW","","458","img/food1.png","76","459","3","1","3","2","1,0.5,0,1,0.5,0,0.5,0,1","1,0.5,0,1,0.5,0,0.5,0,1","1","false",""
"","html-keyboard-response","317","205845","0.0-383.0","32Q90QCQ1T7CI739AFDFT16OBXXKER","A1MTQP7TA5RCOB","3XT3KXP24ZKFDDMCDS43FE3AU9W6IW","","null","<img src=""img/food1.png"" style=""width:200px; border:14px solid green;"">","null","","","","","","","","","",""
"","image-keyboard-response","318","206752","0.0-385.0","32Q90QCQ1T7CI739AFDFT16OBXXKER","A1MTQP7TA5RCOB","3XT3KXP24ZKFDDMCDS43FE3AU9W6IW","","907","img/food6.png","75","907","2","0","1","2","1,0.5,0,1,0.5,0,0.5,0,1","1,0.5,0,1,0.5,0,0.5,0,1","1","false",""
"","html-keyboard-response","319","207060","0.0-386.0","32Q90QCQ1T7CI739AFDFT16OBXXKER","A1MTQP7TA5RCOB","3XT3KXP24ZKFDDMCDS43FE3AU9W6IW","","null","<img src=""img/food6.png"" style=""width:200px;border:14px solid red;"">","null","","","","","","","","","",""
"","image-keyboard-response","320","207600","0.0-388.0","32Q90QCQ1T7CI739AFDFT16OBXXKER","A1MTQP7TA5RCOB","3XT3KXP24ZKFDDMCDS43FE3AU9W6IW","","539","img/food1.png","76","540","3","1","3","2","1,0.5,0,1,0.5,0,0.5,0,1","1,0.5,0,1,0.5,0,0.5,0,1","1","false",""
"","html-keyboard-response","321","207901","0.0-389.0","32Q90QCQ1T7CI739AFDFT16OBXXKER","A1MTQP7TA5RCOB","3XT3KXP24ZKFDDMCDS43FE3AU9W6IW","","null","<img src=""img/food1.png"" style=""width:200px; border:14px solid green;"">","null","","","","","","","","","",""
"","image-keyboard-response","322","208552","0.0-391.0","32Q90QCQ1T7CI739AFDFT16OBXXKER","A1MTQP7TA5RCOB","3XT3KXP24ZKFDDMCDS43FE3AU9W6IW","","650","img/food2.png","74","651","1","1","2","2","1,0.5,0,1,0.5,0,0.5,0,1","1,0.5,0,1,0.5,0,0.5,0,1","1","false",""
"","html-keyboard-response","323","208854","0.0-392.0","32Q90QCQ1T7CI739AFDFT16OBXXKER","A1MTQP7TA5RCOB","3XT3KXP24ZKFDDMCDS43FE3AU9W6IW","","null","<img src=""img/food2.png"" style=""width:200px; border:14px solid green;"">","null","","","","","","","","","",""
"","image-keyboard-response","324","209552","0.0-394.0","32Q90QCQ1T7CI739AFDFT16OBXXKER","A1MTQP7TA5RCOB","3XT3KXP24ZKFDDMCDS43FE3AU9W6IW","","697","img/food6.png","75","698","2","0","1","2","1,0.5,0,1,0.5,0,0.5,0,1","1,0.5,0,1,0.5,0,0.5,0,1","1","false",""
"","html-keyboard-response","325","209854","0.0-395.0","32Q90QCQ1T7CI739AFDFT16OBXXKER","A1MTQP7TA5RCOB","3XT3KXP24ZKFDDMCDS43FE3AU9W6IW","","null","<img src=""img/food6.png"" style=""width:200px;border:14px solid red;"">","null","","","","","","","","","",""
"","image-keyboard-response","326","210440","0.0-397.0","32Q90QCQ1T7CI739AFDFT16OBXXKER","A1MTQP7TA5RCOB","3XT3KXP24ZKFDDMCDS43FE3AU9W6IW","","585","img/food6.png","75","586","2","0","1","2","1,0.5,0,1,0.5,0,0.5,0,1","1,0.5,0,1,0.5,0,0.5,0,1","1","false",""
"","html-keyboard-response","327","210742","0.0-398.0","32Q90QCQ1T7CI739AFDFT16OBXXKER","A1MTQP7TA5RCOB","3XT3KXP24ZKFDDMCDS43FE3AU9W6IW","","null","<img src=""img/food6.png"" style=""width:200px;border:14px solid red;"">","null","","","","","","","","","",""
"","image-keyboard-response","328","211296","0.0-400.0","32Q90QCQ1T7CI739AFDFT16OBXXKER","A1MTQP7TA5RCOB","3XT3KXP24ZKFDDMCDS43FE3AU9W6IW","","553","img/food1.png","76","554","3","1","3","2","1,0.5,0,1,0.5,0,0.5,0,1","1,0.5,0,1,0.5,0,0.5,0,1","1","false",""
"","html-keyboard-response","329","211597","0.0-401.0","32Q90QCQ1T7CI739AFDFT16OBXXKER","A1MTQP7TA5RCOB","3XT3KXP24ZKFDDMCDS43FE3AU9W6IW","","null","<img src=""img/food1.png"" style=""width:200px; border:14px solid green;"">","null","","","","","","","","","",""
"","image-keyboard-response","330","212208","0.0-403.0","32Q90QCQ1T7CI739AFDFT16OBXXKER","A1MTQP7TA5RCOB","3XT3KXP24ZKFDDMCDS43FE3AU9W6IW","","609","img/food2.png","74","609","1","1","2","2","1,0.5,0,1,0.5,0,0.5,0,1","1,0.5,0,1,0.5,0,0.5,0,1","1","false",""
"","html-keyboard-response","331","212509","0.0-404.0","32Q90QCQ1T7CI739AFDFT16OBXXKER","A1MTQP7TA5RCOB","3XT3KXP24ZKFDDMCDS43FE3AU9W6IW","","null","<img src=""img/food2.png"" style=""width:200px; border:14px solid green;"">","null","","","","","","","","","",""
"","image-keyboard-response","332","213023","0.0-406.0","32Q90QCQ1T7CI739AFDFT16OBXXKER","A1MTQP7TA5RCOB","3XT3KXP24ZKFDDMCDS43FE3AU9W6IW","","513","img/food1.png","76","514","3","1","3","2","1,0.5,0,1,0.5,0,0.5,0,1","1,0.5,0,1,0.5,0,0.5,0,1","1","false",""
"","html-keyboard-response","333","213332","0.0-407.0","32Q90QCQ1T7CI739AFDFT16OBXXKER","A1MTQP7TA5RCOB","3XT3KXP24ZKFDDMCDS43FE3AU9W6IW","","null","<img src=""img/food1.png"" style=""width:200px; border:14px solid green;"">","null","","","","","","","","","",""
"","image-keyboard-response","334","213768","0.0-409.0","32Q90QCQ1T7CI739AFDFT16OBXXKER","A1MTQP7TA5RCOB","3XT3KXP24ZKFDDMCDS43FE3AU9W6IW","","435","img/food1.png","76","436","3","1","3","2","1,0.5,0,1,0.5,0,0.5,0,1","1,0.5,0,1,0.5,0,0.5,0,1","1","false",""
"","html-keyboard-response","335","214069","0.0-410.0","32Q90QCQ1T7CI739AFDFT16OBXXKER","A1MTQP7TA5RCOB","3XT3KXP24ZKFDDMCDS43FE3AU9W6IW","","null","<img src=""img/food1.png"" style=""width:200px; border:14px solid green;"">","null","","","","","","","","","",""
"","image-keyboard-response","336","214615","0.0-412.0","32Q90QCQ1T7CI739AFDFT16OBXXKER","A1MTQP7TA5RCOB","3XT3KXP24ZKFDDMCDS43FE3AU9W6IW","","545","img/food1.png","76","545","3","1","3","2","1,0.5,0,1,0.5,0,0.5,0,1","1,0.5,0,1,0.5,0,0.5,0,1","1","false",""
"","html-keyboard-response","337","214917","0.0-413.0","32Q90QCQ1T7CI739AFDFT16OBXXKER","A1MTQP7TA5RCOB","3XT3KXP24ZKFDDMCDS43FE3AU9W6IW","","null","<img src=""img/food1.png"" style=""width:200px; border:14px solid green;"">","null","","","","","","","","","",""
"","image-keyboard-response","338","215424","0.0-415.0","32Q90QCQ1T7CI739AFDFT16OBXXKER","A1MTQP7TA5RCOB","3XT3KXP24ZKFDDMCDS43FE3AU9W6IW","","506","img/food2.png","74","507","1","1","2","2","1,0.5,0,1,0.5,0,0.5,0,1","1,0.5,0,1,0.5,0,0.5,0,1","1","false",""
"","html-keyboard-response","339","215726","0.0-416.0","32Q90QCQ1T7CI739AFDFT16OBXXKER","A1MTQP7TA5RCOB","3XT3KXP24ZKFDDMCDS43FE3AU9W6IW","","null","<img src=""img/food2.png"" style=""width:200px; border:14px solid green;"">","null","","","","","","","","","",""
"","image-keyboard-response","340","216175","0.0-418.0","32Q90QCQ1T7CI739AFDFT16OBXXKER","A1MTQP7TA5RCOB","3XT3KXP24ZKFDDMCDS43FE3AU9W6IW","","449","img/food2.png","74","449","1","1","2","2","1,0.5,0,1,0.5,0,0.5,0,1","1,0.5,0,1,0.5,0,0.5,0,1","1","false",""
"","html-keyboard-response","341","216478","0.0-419.0","32Q90QCQ1T7CI739AFDFT16OBXXKER","A1MTQP7TA5RCOB","3XT3KXP24ZKFDDMCDS43FE3AU9W6IW","","null","<img src=""img/food2.png"" style=""width:200px; border:14px solid green;"">","null","","","","","","","","","",""
"","image-keyboard-response","342","217008","0.0-421.0","32Q90QCQ1T7CI739AFDFT16OBXXKER","A1MTQP7TA5RCOB","3XT3KXP24ZKFDDMCDS43FE3AU9W6IW","","529","img/food1.png","76","530","3","1","3","2","1,0.5,0,1,0.5,0,0.5,0,1","1,0.5,0,1,0.5,0,0.5,0,1","1","false",""
"","html-keyboard-response","343","217309","0.0-422.0","32Q90QCQ1T7CI739AFDFT16OBXXKER","A1MTQP7TA5RCOB","3XT3KXP24ZKFDDMCDS43FE3AU9W6IW","","null","<img src=""img/food1.png"" style=""width:200px; border:14px solid green;"">","null","","","","","","","","","",""
"","image-keyboard-response","344","217976","0.0-424.0","32Q90QCQ1T7CI739AFDFT16OBXXKER","A1MTQP7TA5RCOB","3XT3KXP24ZKFDDMCDS43FE3AU9W6IW","","666","img/food6.png","75","667","2","0","1","2","1,0.5,0,1,0.5,0,0.5,0,1","1,0.5,0,1,0.5,0,0.5,0,1","1","false",""
"","html-keyboard-response","345","218287","0.0-425.0","32Q90QCQ1T7CI739AFDFT16OBXXKER","A1MTQP7TA5RCOB","3XT3KXP24ZKFDDMCDS43FE3AU9W6IW","","null","<img src=""img/food6.png"" style=""width:200px;border:14px solid red;"">","null","","","","","","","","","",""
"","image-keyboard-response","346","218744","0.0-427.0","32Q90QCQ1T7CI739AFDFT16OBXXKER","A1MTQP7TA5RCOB","3XT3KXP24ZKFDDMCDS43FE3AU9W6IW","","455","img/food6.png","75","457","2","0","1","2","1,0.5,0,1,0.5,0,0.5,0,1","1,0.5,0,1,0.5,0,0.5,0,1","1","false",""
"","html-keyboard-response","347","219046","0.0-428.0","32Q90QCQ1T7CI739AFDFT16OBXXKER","A1MTQP7TA5RCOB","3XT3KXP24ZKFDDMCDS43FE3AU9W6IW","","null","<img src=""img/food6.png"" style=""width:200px;border:14px solid red;"">","null","","","","","","","","","",""
"","image-keyboard-response","348","219608","0.0-430.0","32Q90QCQ1T7CI739AFDFT16OBXXKER","A1MTQP7TA5RCOB","3XT3KXP24ZKFDDMCDS43FE3AU9W6IW","","561","img/food2.png","76","562","3","0","2","2","1,0.5,0,1,0.5,0,0.5,0,1","1,0.5,0,1,0.5,0,0.5,0,1","1","false",""
"","html-keyboard-response","349","219910","0.0-431.0","32Q90QCQ1T7CI739AFDFT16OBXXKER","A1MTQP7TA5RCOB","3XT3KXP24ZKFDDMCDS43FE3AU9W6IW","","null","<img src=""img/food2.png"" style=""width:200px;border:14px solid red;"">","null","","","","","","","","","",""
"","image-keyboard-response","350","220360","0.0-433.0","32Q90QCQ1T7CI739AFDFT16OBXXKER","A1MTQP7TA5RCOB","3XT3KXP24ZKFDDMCDS43FE3AU9W6IW","","450","img/food1.png","74","450","1","0","3","2","1,0.5,0,1,0.5,0,0.5,0,1","1,0.5,0,1,0.5,0,0.5,0,1","1","false",""
"","html-keyboard-response","351","220662","0.0-434.0","32Q90QCQ1T7CI739AFDFT16OBXXKER","A1MTQP7TA5RCOB","3XT3KXP24ZKFDDMCDS43FE3AU9W6IW","","null","<img src=""img/food1.png"" style=""width:200px;border:14px solid red;"">","null","","","","","","","","","",""
"","image-keyboard-response","352","220768","0.0-436.0","32Q90QCQ1T7CI739AFDFT16OBXXKER","A1MTQP7TA5RCOB","3XT3KXP24ZKFDDMCDS43FE3AU9W6IW","","105","img/food1.png","76","106","3","1","3","2","1,0.5,0,1,0.5,0,0.5,0,1","1,0.5,0,1,0.5,0,0.5,0,1","1","false",""
"","html-keyboard-response","353","221070","0.0-437.0","32Q90QCQ1T7CI739AFDFT16OBXXKER","A1MTQP7TA5RCOB","3XT3KXP24ZKFDDMCDS43FE3AU9W6IW","","null","<img src=""img/food1.png"" style=""width:200px; border:14px solid green;"">","null","","","","","","","","","",""
"","image-keyboard-response","354","221504","0.0-439.0","32Q90QCQ1T7CI739AFDFT16OBXXKER","A1MTQP7TA5RCOB","3XT3KXP24ZKFDDMCDS43FE3AU9W6IW","","433","img/food1.png","76","434","3","1","3","2","1,0.5,0,1,0.5,0,0.5,0,1","1,0.5,0,1,0.5,0,0.5,0,1","1","false",""
"","html-keyboard-response","355","221806","0.0-440.0","32Q90QCQ1T7CI739AFDFT16OBXXKER","A1MTQP7TA5RCOB","3XT3KXP24ZKFDDMCDS43FE3AU9W6IW","","null","<img src=""img/food1.png"" style=""width:200px; border:14px solid green;"">","null","","","","","","","","","",""
"","image-keyboard-response","356","222528","0.0-442.0","32Q90QCQ1T7CI739AFDFT16OBXXKER","A1MTQP7TA5RCOB","3XT3KXP24ZKFDDMCDS43FE3AU9W6IW","","720","img/food6.png","75","723","2","0","1","2","1,0.5,0,1,0.5,0,0.5,0,1","1,0.5,0,1,0.5,0,0.5,0,1","1","false",""
"","html-keyboard-response","357","222830","0.0-443.0","32Q90QCQ1T7CI739AFDFT16OBXXKER","A1MTQP7TA5RCOB","3XT3KXP24ZKFDDMCDS43FE3AU9W6IW","","null","<img src=""img/food6.png"" style=""width:200px;border:14px solid red;"">","null","","","","","","","","","",""
"","image-keyboard-response","358","223472","0.0-445.0","32Q90QCQ1T7CI739AFDFT16OBXXKER","A1MTQP7TA5RCOB","3XT3KXP24ZKFDDMCDS43FE3AU9W6IW","","639","img/food2.png","74","640","1","1","2","2","1,0.5,0,1,0.5,0,0.5,0,1","1,0.5,0,1,0.5,0,0.5,0,1","1","false",""
"","html-keyboard-response","359","223774","0.0-446.0","32Q90QCQ1T7CI739AFDFT16OBXXKER","A1MTQP7TA5RCOB","3XT3KXP24ZKFDDMCDS43FE3AU9W6IW","","null","<img src=""img/food2.png"" style=""width:200px; border:14px solid green;"">","null","","","","","","","","","",""
"","image-keyboard-response","360","224176","0.0-448.0","32Q90QCQ1T7CI739AFDFT16OBXXKER","A1MTQP7TA5RCOB","3XT3KXP24ZKFDDMCDS43FE3AU9W6IW","","401","img/food2.png","74","402","1","1","2","2","1,0.5,0,1,0.5,0,0.5,0,1","1,0.5,0,1,0.5,0,0.5,0,1","1","false",""
"","html-keyboard-response","361","224477","0.0-449.0","32Q90QCQ1T7CI739AFDFT16OBXXKER","A1MTQP7TA5RCOB","3XT3KXP24ZKFDDMCDS43FE3AU9W6IW","","null","<img src=""img/food2.png"" style=""width:200px; border:14px solid green;"">","null","","","","","","","","","",""
"","image-keyboard-response","362","225264","0.0-451.0","32Q90QCQ1T7CI739AFDFT16OBXXKER","A1MTQP7TA5RCOB","3XT3KXP24ZKFDDMCDS43FE3AU9W6IW","","785","img/food6.png","75","786","2","1","1","2","1,0.5,0,1,0.5,0,0.5,0,1","1,0.5,0,1,0.5,0,0.5,0,1","1","false",""
"","html-keyboard-response","363","225566","0.0-452.0","32Q90QCQ1T7CI739AFDFT16OBXXKER","A1MTQP7TA5RCOB","3XT3KXP24ZKFDDMCDS43FE3AU9W6IW","","null","<img src=""img/food6.png"" style=""width:200px; border:14px solid green;"">","null","","","","","","","","","",""
"","instructions","364","228750","0.0-454.0","32Q90QCQ1T7CI739AFDFT16OBXXKER","A1MTQP7TA5RCOB","3XT3KXP24ZKFDDMCDS43FE3AU9W6IW","[{""page_index"":0,""viewing_time"":3185}]","3185","","","","","","","","","","","",""
"","survey-text","365","232652","0.0-455.0","32Q90QCQ1T7CI739AFDFT16OBXXKER","A1MTQP7TA5RCOB","3XT3KXP24ZKFDDMCDS43FE3AU9W6IW","","3900","","","","","","","","","","","","{""Q0"":""A1MTQP7TA5RCOB""}"
