"success","trial_type","trial_index","time_elapsed","internal_node_id","assignmentID","mturkID","hitID","view_history","rt","stimulus","key_press","reactionTime","a","r","warning","s","cond","reward_cond","reward_cond_actual","reward_matrix_idx","responses"
"true","fullscreen","0","3484","0.0-0.0","3TPWUS5F8ANOG9DC32QNRO0GDO6WCB","A1N8TKTLXV92QR","3ECKRY5B1QIH1N6NFX1ECCW5ZDKIZQ","","","","","","","","","","","","","",""
"","instructions","1","15787","0.0-1.0","3TPWUS5F8ANOG9DC32QNRO0GDO6WCB","A1N8TKTLXV92QR","3ECKRY5B1QIH1N6NFX1ECCW5ZDKIZQ","[{""page_index"":0,""viewing_time"":3430.100000023842},{""page_index"":1,""viewing_time"":758.3000000119209},{""page_index"":2,""viewing_time"":1169.3999999761581},{""page_index"":3,""viewing_time"":2482.199999988079},{""page_index"":4,""viewing_time"":1433.2000000476837},{""page_index"":5,""viewing_time"":1724.5},{""page_index"":6,""viewing_time"":1304.8999999761581}]","12302.900000035763","","","","","","","","","","","",""
"","instructions","2","23475","0.0-2.0","3TPWUS5F8ANOG9DC32QNRO0GDO6WCB","A1N8TKTLXV92QR","3ECKRY5B1QIH1N6NFX1ECCW5ZDKIZQ","[{""page_index"":0,""viewing_time"":5264.300000011921},{""page_index"":1,""viewing_time"":2422.800000011921}]","7687.300000011921","","","","","","","","","","","",""
"","image-keyboard-response","3","24156","0.0-3.0","3TPWUS5F8ANOG9DC32QNRO0GDO6WCB","A1N8TKTLXV92QR","3ECKRY5B1QIH1N6NFX1ECCW5ZDKIZQ","","679.5","img/food1.png","74","680.6999999880791","1","0","false","3","2","1,0.5,0,1,0.5,0,0.5,0,1","1,0.5,0,1,0.5,0,0.5,0,1","1",""
"","html-keyboard-response","4","24464","0.0-4.0","3TPWUS5F8ANOG9DC32QNRO0GDO6WCB","A1N8TKTLXV92QR","3ECKRY5B1QIH1N6NFX1ECCW5ZDKIZQ","","null","<img src=""img/food1.png"" style=""width:200px;border:14px solid red;"">","null","","","","","","","","","",""
"","image-keyboard-response","5","25007","0.0-6.0","3TPWUS5F8ANOG9DC32QNRO0GDO6WCB","A1N8TKTLXV92QR","3ECKRY5B1QIH1N6NFX1ECCW5ZDKIZQ","","541.3000000119209","img/food4.png","75","542.0999999642372","2","0","false","1","2","1,0.5,0,1,0.5,0,0.5,0,1","1,0.5,0,1,0.5,0,0.5,0,1","1",""
"","html-keyboard-response","6","25320","0.0-7.0","3TPWUS5F8ANOG9DC32QNRO0GDO6WCB","A1N8TKTLXV92QR","3ECKRY5B1QIH1N6NFX1ECCW5ZDKIZQ","","null","<img src=""img/food4.png"" style=""width:200px;border:14px solid red;"">","null","","","","","","","","","",""
"","image-keyboard-response","7","25513","0.0-9.0","3TPWUS5F8ANOG9DC32QNRO0GDO6WCB","A1N8TKTLXV92QR","3ECKRY5B1QIH1N6NFX1ECCW5ZDKIZQ","","191.5999999642372","img/food6.png","76","192.4000000357628","3","0","false","2","2","1,0.5,0,1,0.5,0,0.5,0,1","1,0.5,0,1,0.5,0,0.5,0,1","1",""
"","html-keyboard-response","8","25829","0.0-10.0","3TPWUS5F8ANOG9DC32QNRO0GDO6WCB","A1N8TKTLXV92QR","3ECKRY5B1QIH1N6NFX1ECCW5ZDKIZQ","","null","<img src=""img/food6.png"" style=""width:200px;border:14px solid red;"">","null","","","","","","","","","",""
"","image-keyboard-response","9","26266","0.0-12.0","3TPWUS5F8ANOG9DC32QNRO0GDO6WCB","A1N8TKTLXV92QR","3ECKRY5B1QIH1N6NFX1ECCW5ZDKIZQ","","435.5999999642372","img/food1.png","75","436.4000000357628","2","0","false","3","2","1,0.5,0,1,0.5,0,0.5,0,1","1,0.5,0,1,0.5,0,0.5,0,1","1",""
"","html-keyboard-response","10","26580","0.0-13.0","3TPWUS5F8ANOG9DC32QNRO0GDO6WCB","A1N8TKTLXV92QR","3ECKRY5B1QIH1N6NFX1ECCW5ZDKIZQ","","null","<img src=""img/food1.png"" style=""width:200px;border:14px solid red;"">","null","","","","","","","","","",""
"","image-keyboard-response","11","27092","0.0-15.0","3TPWUS5F8ANOG9DC32QNRO0GDO6WCB","A1N8TKTLXV92QR","3ECKRY5B1QIH1N6NFX1ECCW5ZDKIZQ","","510.69999998807907","img/food4.png","74","511.5","1","1","false","1","2","1,0.5,0,1,0.5,0,0.5,0,1","1,0.5,0,1,0.5,0,0.5,0,1","1",""
"","html-keyboard-response","12","27404","0.0-16.0","3TPWUS5F8ANOG9DC32QNRO0GDO6WCB","A1N8TKTLXV92QR","3ECKRY5B1QIH1N6NFX1ECCW5ZDKIZQ","","null","<img src=""img/food4.png"" style=""width:200px; border:14px solid green;"">","null","","","","","","","","","",""
"","image-keyboard-response","13","27686","0.0-18.0","3TPWUS5F8ANOG9DC32QNRO0GDO6WCB","A1N8TKTLXV92QR","3ECKRY5B1QIH1N6NFX1ECCW5ZDKIZQ","","281","img/food1.png","74","281.5","1","0","false","3","2","1,0.5,0,1,0.5,0,0.5,0,1","1,0.5,0,1,0.5,0,0.5,0,1","1",""
"","html-keyboard-response","14","28001","0.0-19.0","3TPWUS5F8ANOG9DC32QNRO0GDO6WCB","A1N8TKTLXV92QR","3ECKRY5B1QIH1N6NFX1ECCW5ZDKIZQ","","null","<img src=""img/food1.png"" style=""width:200px;border:14px solid red;"">","null","","","","","","","","","",""
"","image-keyboard-response","15","28317","0.0-21.0","3TPWUS5F8ANOG9DC32QNRO0GDO6WCB","A1N8TKTLXV92QR","3ECKRY5B1QIH1N6NFX1ECCW5ZDKIZQ","","315.30000001192093","img/food1.png","75","316.10000002384186","2","0","false","3","2","1,0.5,0,1,0.5,0,0.5,0,1","1,0.5,0,1,0.5,0,0.5,0,1","1",""
"","html-keyboard-response","16","28628","0.0-22.0","3TPWUS5F8ANOG9DC32QNRO0GDO6WCB","A1N8TKTLXV92QR","3ECKRY5B1QIH1N6NFX1ECCW5ZDKIZQ","","null","<img src=""img/food1.png"" style=""width:200px;border:14px solid red;"">","null","","","","","","","","","",""
"","image-keyboard-response","17","28740","0.0-24.0","3TPWUS5F8ANOG9DC32QNRO0GDO6WCB","A1N8TKTLXV92QR","3ECKRY5B1QIH1N6NFX1ECCW5ZDKIZQ","","110.80000001192093","img/food4.png","76","111.5","3","0","false","1","2","1,0.5,0,1,0.5,0,0.5,0,1","1,0.5,0,1,0.5,0,0.5,0,1","1",""
"","html-keyboard-response","18","29042","0.0-25.0","3TPWUS5F8ANOG9DC32QNRO0GDO6WCB","A1N8TKTLXV92QR","3ECKRY5B1QIH1N6NFX1ECCW5ZDKIZQ","","null","<img src=""img/food4.png"" style=""width:200px;border:14px solid red;"">","null","","","","","","","","","",""
"","image-keyboard-response","19","29283","0.0-27.0","3TPWUS5F8ANOG9DC32QNRO0GDO6WCB","A1N8TKTLXV92QR","3ECKRY5B1QIH1N6NFX1ECCW5ZDKIZQ","","239.69999998807907","img/food4.png","74","240.5","1","1","false","1","2","1,0.5,0,1,0.5,0,0.5,0,1","1,0.5,0,1,0.5,0,0.5,0,1","1",""
"","html-keyboard-response","20","29585","0.0-28.0","3TPWUS5F8ANOG9DC32QNRO0GDO6WCB","A1N8TKTLXV92QR","3ECKRY5B1QIH1N6NFX1ECCW5ZDKIZQ","","null","<img src=""img/food4.png"" style=""width:200px; border:14px solid green;"">","null","","","","","","","","","",""
"","image-keyboard-response","21","29635","0.0-30.0","3TPWUS5F8ANOG9DC32QNRO0GDO6WCB","A1N8TKTLXV92QR","3ECKRY5B1QIH1N6NFX1ECCW5ZDKIZQ","","48.90000003576279","img/food6.png","76","49.59999996423721","3","0","false","2","2","1,0.5,0,1,0.5,0,0.5,0,1","1,0.5,0,1,0.5,0,0.5,0,1","1",""
"","html-keyboard-response","22","29950","0.0-31.0","3TPWUS5F8ANOG9DC32QNRO0GDO6WCB","A1N8TKTLXV92QR","3ECKRY5B1QIH1N6NFX1ECCW5ZDKIZQ","","null","<img src=""img/food6.png"" style=""width:200px;border:14px solid red;"">","null","","","","","","","","","",""
"","image-keyboard-response","23","30547","0.0-33.0","3TPWUS5F8ANOG9DC32QNRO0GDO6WCB","A1N8TKTLXV92QR","3ECKRY5B1QIH1N6NFX1ECCW5ZDKIZQ","","596.4000000357628","img/food1.png","74","597.0999999642372","1","1","false","3","2","1,0.5,0,1,0.5,0,0.5,0,1","1,0.5,0,1,0.5,0,0.5,0,1","1",""
"","html-keyboard-response","24","30849","0.0-34.0","3TPWUS5F8ANOG9DC32QNRO0GDO6WCB","A1N8TKTLXV92QR","3ECKRY5B1QIH1N6NFX1ECCW5ZDKIZQ","","null","<img src=""img/food1.png"" style=""width:200px; border:14px solid green;"">","null","","","","","","","","","",""
"","image-keyboard-response","25","31165","0.0-36.0","3TPWUS5F8ANOG9DC32QNRO0GDO6WCB","A1N8TKTLXV92QR","3ECKRY5B1QIH1N6NFX1ECCW5ZDKIZQ","","314.5999999642372","img/food6.png","76","315.0999999642372","3","0","false","2","2","1,0.5,0,1,0.5,0,0.5,0,1","1,0.5,0,1,0.5,0,0.5,0,1","1",""
"","html-keyboard-response","26","31467","0.0-37.0","3TPWUS5F8ANOG9DC32QNRO0GDO6WCB","A1N8TKTLXV92QR","3ECKRY5B1QIH1N6NFX1ECCW5ZDKIZQ","","null","<img src=""img/food6.png"" style=""width:200px;border:14px solid red;"">","null","","","","","","","","","",""
"","image-keyboard-response","27","31605","0.0-39.0","3TPWUS5F8ANOG9DC32QNRO0GDO6WCB","A1N8TKTLXV92QR","3ECKRY5B1QIH1N6NFX1ECCW5ZDKIZQ","","137.29999995231628","img/food4.png","75","137.89999997615814","2","0","false","1","2","1,0.5,0,1,0.5,0,0.5,0,1","1,0.5,0,1,0.5,0,0.5,0,1","1",""
"","html-keyboard-response","28","31907","0.0-40.0","3TPWUS5F8ANOG9DC32QNRO0GDO6WCB","A1N8TKTLXV92QR","3ECKRY5B1QIH1N6NFX1ECCW5ZDKIZQ","","null","<img src=""img/food4.png"" style=""width:200px;border:14px solid red;"">","null","","","","","","","","","",""
"","image-keyboard-response","29","32330","0.0-42.0","3TPWUS5F8ANOG9DC32QNRO0GDO6WCB","A1N8TKTLXV92QR","3ECKRY5B1QIH1N6NFX1ECCW5ZDKIZQ","","421.39999997615814","img/food4.png","74","422.0999999642372","1","1","false","1","2","1,0.5,0,1,0.5,0,0.5,0,1","1,0.5,0,1,0.5,0,0.5,0,1","1",""
"","html-keyboard-response","30","32631","0.0-43.0","3TPWUS5F8ANOG9DC32QNRO0GDO6WCB","A1N8TKTLXV92QR","3ECKRY5B1QIH1N6NFX1ECCW5ZDKIZQ","","null","<img src=""img/food4.png"" style=""width:200px; border:14px solid green;"">","null","","","","","","","","","",""
"","image-keyboard-response","31","33138","0.0-45.0","3TPWUS5F8ANOG9DC32QNRO0GDO6WCB","A1N8TKTLXV92QR","3ECKRY5B1QIH1N6NFX1ECCW5ZDKIZQ","","506.7000000476837","img/food6.png","74","507.39999997615814","1","1","false","2","2","1,0.5,0,1,0.5,0,0.5,0,1","1,0.5,0,1,0.5,0,0.5,0,1","1",""
"","html-keyboard-response","32","33441","0.0-46.0","3TPWUS5F8ANOG9DC32QNRO0GDO6WCB","A1N8TKTLXV92QR","3ECKRY5B1QIH1N6NFX1ECCW5ZDKIZQ","","null","<img src=""img/food6.png"" style=""width:200px; border:14px solid green;"">","null","","","","","","","","","",""
"","image-keyboard-response","33","33780","0.0-48.0","3TPWUS5F8ANOG9DC32QNRO0GDO6WCB","A1N8TKTLXV92QR","3ECKRY5B1QIH1N6NFX1ECCW5ZDKIZQ","","338.39999997615814","img/food6.png","74","339.10000002384186","1","1","false","2","2","1,0.5,0,1,0.5,0,0.5,0,1","1,0.5,0,1,0.5,0,0.5,0,1","1",""
"","html-keyboard-response","34","34081","0.0-49.0","3TPWUS5F8ANOG9DC32QNRO0GDO6WCB","A1N8TKTLXV92QR","3ECKRY5B1QIH1N6NFX1ECCW5ZDKIZQ","","null","<img src=""img/food6.png"" style=""width:200px; border:14px solid green;"">","null","","","","","","","","","",""
"","image-keyboard-response","35","34292","0.0-51.0","3TPWUS5F8ANOG9DC32QNRO0GDO6WCB","A1N8TKTLXV92QR","3ECKRY5B1QIH1N6NFX1ECCW5ZDKIZQ","","210.39999997615814","img/food4.png","74","211","1","1","false","1","2","1,0.5,0,1,0.5,0,0.5,0,1","1,0.5,0,1,0.5,0,0.5,0,1","1",""
"","html-keyboard-response","36","34594","0.0-52.0","3TPWUS5F8ANOG9DC32QNRO0GDO6WCB","A1N8TKTLXV92QR","3ECKRY5B1QIH1N6NFX1ECCW5ZDKIZQ","","null","<img src=""img/food4.png"" style=""width:200px; border:14px solid green;"">","null","","","","","","","","","",""
"","image-keyboard-response","37","35172","0.0-54.0","3TPWUS5F8ANOG9DC32QNRO0GDO6WCB","A1N8TKTLXV92QR","3ECKRY5B1QIH1N6NFX1ECCW5ZDKIZQ","","577","img/food1.png","74","577.7000000476837","1","1","false","3","2","1,0.5,0,1,0.5,0,0.5,0,1","1,0.5,0,1,0.5,0,0.5,0,1","1",""
"","html-keyboard-response","38","35474","0.0-55.0","3TPWUS5F8ANOG9DC32QNRO0GDO6WCB","A1N8TKTLXV92QR","3ECKRY5B1QIH1N6NFX1ECCW5ZDKIZQ","","null","<img src=""img/food1.png"" style=""width:200px; border:14px solid green;"">","null","","","","","","","","","",""
"","image-keyboard-response","39","35683","0.0-57.0","3TPWUS5F8ANOG9DC32QNRO0GDO6WCB","A1N8TKTLXV92QR","3ECKRY5B1QIH1N6NFX1ECCW5ZDKIZQ","","208.69999998807907","img/food6.png","74","209.30000001192093","1","1","false","2","2","1,0.5,0,1,0.5,0,0.5,0,1","1,0.5,0,1,0.5,0,0.5,0,1","1",""
"","html-keyboard-response","40","35992","0.0-58.0","3TPWUS5F8ANOG9DC32QNRO0GDO6WCB","A1N8TKTLXV92QR","3ECKRY5B1QIH1N6NFX1ECCW5ZDKIZQ","","null","<img src=""img/food6.png"" style=""width:200px; border:14px solid green;"">","null","","","","","","","","","",""
"","image-keyboard-response","41","36267","0.0-60.0","3TPWUS5F8ANOG9DC32QNRO0GDO6WCB","A1N8TKTLXV92QR","3ECKRY5B1QIH1N6NFX1ECCW5ZDKIZQ","","274.39999997615814","img/food6.png","74","275.10000002384186","1","1","false","2","2","1,0.5,0,1,0.5,0,0.5,0,1","1,0.5,0,1,0.5,0,0.5,0,1","1",""
"","html-keyboard-response","42","36578","0.0-61.0","3TPWUS5F8ANOG9DC32QNRO0GDO6WCB","A1N8TKTLXV92QR","3ECKRY5B1QIH1N6NFX1ECCW5ZDKIZQ","","null","<img src=""img/food6.png"" style=""width:200px; border:14px solid green;"">","null","","","","","","","","","",""
"","image-keyboard-response","43","36843","0.0-63.0","3TPWUS5F8ANOG9DC32QNRO0GDO6WCB","A1N8TKTLXV92QR","3ECKRY5B1QIH1N6NFX1ECCW5ZDKIZQ","","263.69999998807907","img/food6.png","74","264.4000000357628","1","1","false","2","2","1,0.5,0,1,0.5,0,0.5,0,1","1,0.5,0,1,0.5,0,0.5,0,1","1",""
"","html-keyboard-response","44","37144","0.0-64.0","3TPWUS5F8ANOG9DC32QNRO0GDO6WCB","A1N8TKTLXV92QR","3ECKRY5B1QIH1N6NFX1ECCW5ZDKIZQ","","null","<img src=""img/food6.png"" style=""width:200px; border:14px solid green;"">","null","","","","","","","","","",""
"","image-keyboard-response","45","37444","0.0-66.0","3TPWUS5F8ANOG9DC32QNRO0GDO6WCB","A1N8TKTLXV92QR","3ECKRY5B1QIH1N6NFX1ECCW5ZDKIZQ","","298.7000000476837","img/food4.png","74","299.5","1","1","false","1","2","1,0.5,0,1,0.5,0,0.5,0,1","1,0.5,0,1,0.5,0,0.5,0,1","1",""
"","html-keyboard-response","46","37745","0.0-67.0","3TPWUS5F8ANOG9DC32QNRO0GDO6WCB","A1N8TKTLXV92QR","3ECKRY5B1QIH1N6NFX1ECCW5ZDKIZQ","","null","<img src=""img/food4.png"" style=""width:200px; border:14px solid green;"">","null","","","","","","","","","",""
"","image-keyboard-response","47","38031","0.0-69.0","3TPWUS5F8ANOG9DC32QNRO0GDO6WCB","A1N8TKTLXV92QR","3ECKRY5B1QIH1N6NFX1ECCW5ZDKIZQ","","284.89999997615814","img/food4.png","74","285.4000000357628","1","1","false","1","2","1,0.5,0,1,0.5,0,0.5,0,1","1,0.5,0,1,0.5,0,0.5,0,1","1",""
"","html-keyboard-response","48","38332","0.0-70.0","3TPWUS5F8ANOG9DC32QNRO0GDO6WCB","A1N8TKTLXV92QR","3ECKRY5B1QIH1N6NFX1ECCW5ZDKIZQ","","null","<img src=""img/food4.png"" style=""width:200px; border:14px solid green;"">","null","","","","","","","","","",""
"","image-keyboard-response","49","38569","0.0-72.0","3TPWUS5F8ANOG9DC32QNRO0GDO6WCB","A1N8TKTLXV92QR","3ECKRY5B1QIH1N6NFX1ECCW5ZDKIZQ","","236.69999998807907","img/food6.png","74","237.10000002384186","1","1","false","2","2","1,0.5,0,1,0.5,0,0.5,0,1","1,0.5,0,1,0.5,0,0.5,0,1","1",""
"","html-keyboard-response","50","38871","0.0-73.0","3TPWUS5F8ANOG9DC32QNRO0GDO6WCB","A1N8TKTLXV92QR","3ECKRY5B1QIH1N6NFX1ECCW5ZDKIZQ","","null","<img src=""img/food6.png"" style=""width:200px; border:14px solid green;"">","null","","","","","","","","","",""
"","image-keyboard-response","51","39122","0.0-75.0","3TPWUS5F8ANOG9DC32QNRO0GDO6WCB","A1N8TKTLXV92QR","3ECKRY5B1QIH1N6NFX1ECCW5ZDKIZQ","","250","img/food4.png","74","250.5","1","1","false","1","2","1,0.5,0,1,0.5,0,0.5,0,1","1,0.5,0,1,0.5,0,0.5,0,1","1",""
"","html-keyboard-response","52","39424","0.0-76.0","3TPWUS5F8ANOG9DC32QNRO0GDO6WCB","A1N8TKTLXV92QR","3ECKRY5B1QIH1N6NFX1ECCW5ZDKIZQ","","null","<img src=""img/food4.png"" style=""width:200px; border:14px solid green;"">","null","","","","","","","","","",""
"","image-keyboard-response","53","39660","0.0-78.0","3TPWUS5F8ANOG9DC32QNRO0GDO6WCB","A1N8TKTLXV92QR","3ECKRY5B1QIH1N6NFX1ECCW5ZDKIZQ","","235.29999995231628","img/food6.png","74","235.89999997615814","1","1","false","2","2","1,0.5,0,1,0.5,0,0.5,0,1","1,0.5,0,1,0.5,0,0.5,0,1","1",""
"","html-keyboard-response","54","39962","0.0-79.0","3TPWUS5F8ANOG9DC32QNRO0GDO6WCB","A1N8TKTLXV92QR","3ECKRY5B1QIH1N6NFX1ECCW5ZDKIZQ","","null","<img src=""img/food6.png"" style=""width:200px; border:14px solid green;"">","null","","","","","","","","","",""
"","image-keyboard-response","55","40255","0.0-81.0","3TPWUS5F8ANOG9DC32QNRO0GDO6WCB","A1N8TKTLXV92QR","3ECKRY5B1QIH1N6NFX1ECCW5ZDKIZQ","","292.19999998807907","img/food1.png","74","292.89999997615814","1","1","false","3","2","1,0.5,0,1,0.5,0,0.5,0,1","1,0.5,0,1,0.5,0,0.5,0,1","1",""
"","html-keyboard-response","56","40558","0.0-82.0","3TPWUS5F8ANOG9DC32QNRO0GDO6WCB","A1N8TKTLXV92QR","3ECKRY5B1QIH1N6NFX1ECCW5ZDKIZQ","","null","<img src=""img/food1.png"" style=""width:200px; border:14px solid green;"">","null","","","","","","","","","",""
"","image-keyboard-response","57","40871","0.0-84.0","3TPWUS5F8ANOG9DC32QNRO0GDO6WCB","A1N8TKTLXV92QR","3ECKRY5B1QIH1N6NFX1ECCW5ZDKIZQ","","312.69999998807907","img/food1.png","74","313.39999997615814","1","1","false","3","2","1,0.5,0,1,0.5,0,0.5,0,1","1,0.5,0,1,0.5,0,0.5,0,1","1",""
"","html-keyboard-response","58","41174","0.0-85.0","3TPWUS5F8ANOG9DC32QNRO0GDO6WCB","A1N8TKTLXV92QR","3ECKRY5B1QIH1N6NFX1ECCW5ZDKIZQ","","null","<img src=""img/food1.png"" style=""width:200px; border:14px solid green;"">","null","","","","","","","","","",""
"","image-keyboard-response","59","41388","0.0-87.0","3TPWUS5F8ANOG9DC32QNRO0GDO6WCB","A1N8TKTLXV92QR","3ECKRY5B1QIH1N6NFX1ECCW5ZDKIZQ","","213.19999998807907","img/food6.png","74","213.80000001192093","1","1","false","2","2","1,0.5,0,1,0.5,0,0.5,0,1","1,0.5,0,1,0.5,0,0.5,0,1","1",""
"","html-keyboard-response","60","41689","0.0-88.0","3TPWUS5F8ANOG9DC32QNRO0GDO6WCB","A1N8TKTLXV92QR","3ECKRY5B1QIH1N6NFX1ECCW5ZDKIZQ","","null","<img src=""img/food6.png"" style=""width:200px; border:14px solid green;"">","null","","","","","","","","","",""
"","image-keyboard-response","61","41927","0.0-90.0","3TPWUS5F8ANOG9DC32QNRO0GDO6WCB","A1N8TKTLXV92QR","3ECKRY5B1QIH1N6NFX1ECCW5ZDKIZQ","","237","img/food4.png","74","237.5","1","1","false","1","2","1,0.5,0,1,0.5,0,0.5,0,1","1,0.5,0,1,0.5,0,0.5,0,1","1",""
"","html-keyboard-response","62","42228","0.0-91.0","3TPWUS5F8ANOG9DC32QNRO0GDO6WCB","A1N8TKTLXV92QR","3ECKRY5B1QIH1N6NFX1ECCW5ZDKIZQ","","null","<img src=""img/food4.png"" style=""width:200px; border:14px solid green;"">","null","","","","","","","","","",""
"","image-keyboard-response","63","42429","0.0-93.0","3TPWUS5F8ANOG9DC32QNRO0GDO6WCB","A1N8TKTLXV92QR","3ECKRY5B1QIH1N6NFX1ECCW5ZDKIZQ","","200.30000001192093","img/food6.png","74","201","1","1","false","2","2","1,0.5,0,1,0.5,0,0.5,0,1","1,0.5,0,1,0.5,0,0.5,0,1","1",""
"","html-keyboard-response","64","42731","0.0-94.0","3TPWUS5F8ANOG9DC32QNRO0GDO6WCB","A1N8TKTLXV92QR","3ECKRY5B1QIH1N6NFX1ECCW5ZDKIZQ","","null","<img src=""img/food6.png"" style=""width:200px; border:14px solid green;"">","null","","","","","","","","","",""
"","image-keyboard-response","65","42926","0.0-96.0","3TPWUS5F8ANOG9DC32QNRO0GDO6WCB","A1N8TKTLXV92QR","3ECKRY5B1QIH1N6NFX1ECCW5ZDKIZQ","","194.80000001192093","img/food4.png","74","195.5","1","1","false","1","2","1,0.5,0,1,0.5,0,0.5,0,1","1,0.5,0,1,0.5,0,0.5,0,1","1",""
"","html-keyboard-response","66","43228","0.0-97.0","3TPWUS5F8ANOG9DC32QNRO0GDO6WCB","A1N8TKTLXV92QR","3ECKRY5B1QIH1N6NFX1ECCW5ZDKIZQ","","null","<img src=""img/food4.png"" style=""width:200px; border:14px solid green;"">","null","","","","","","","","","",""
"","image-keyboard-response","67","43434","0.0-99.0","3TPWUS5F8ANOG9DC32QNRO0GDO6WCB","A1N8TKTLXV92QR","3ECKRY5B1QIH1N6NFX1ECCW5ZDKIZQ","","205","img/food1.png","74","205.5","1","1","false","3","2","1,0.5,0,1,0.5,0,0.5,0,1","1,0.5,0,1,0.5,0,0.5,0,1","1",""
"","html-keyboard-response","68","43736","0.0-100.0","3TPWUS5F8ANOG9DC32QNRO0GDO6WCB","A1N8TKTLXV92QR","3ECKRY5B1QIH1N6NFX1ECCW5ZDKIZQ","","null","<img src=""img/food1.png"" style=""width:200px; border:14px solid green;"">","null","","","","","","","","","",""
"","image-keyboard-response","69","43951","0.0-102.0","3TPWUS5F8ANOG9DC32QNRO0GDO6WCB","A1N8TKTLXV92QR","3ECKRY5B1QIH1N6NFX1ECCW5ZDKIZQ","","214","img/food4.png","74","214.79999995231628","1","1","false","1","2","1,0.5,0,1,0.5,0,0.5,0,1","1,0.5,0,1,0.5,0,0.5,0,1","1",""
"","html-keyboard-response","70","44252","0.0-103.0","3TPWUS5F8ANOG9DC32QNRO0GDO6WCB","A1N8TKTLXV92QR","3ECKRY5B1QIH1N6NFX1ECCW5ZDKIZQ","","null","<img src=""img/food4.png"" style=""width:200px; border:14px solid green;"">","null","","","","","","","","","",""
"","image-keyboard-response","71","44365","0.0-105.0","3TPWUS5F8ANOG9DC32QNRO0GDO6WCB","A1N8TKTLXV92QR","3ECKRY5B1QIH1N6NFX1ECCW5ZDKIZQ","","112.19999998807907","img/food1.png","74","113","1","1","false","3","2","1,0.5,0,1,0.5,0,0.5,0,1","1,0.5,0,1,0.5,0,0.5,0,1","1",""
"","html-keyboard-response","72","44668","0.0-106.0","3TPWUS5F8ANOG9DC32QNRO0GDO6WCB","A1N8TKTLXV92QR","3ECKRY5B1QIH1N6NFX1ECCW5ZDKIZQ","","null","<img src=""img/food1.png"" style=""width:200px; border:14px solid green;"">","null","","","","","","","","","",""
"","image-keyboard-response","73","44888","0.0-108.0","3TPWUS5F8ANOG9DC32QNRO0GDO6WCB","A1N8TKTLXV92QR","3ECKRY5B1QIH1N6NFX1ECCW5ZDKIZQ","","219","img/food4.png","74","219.5","1","1","false","1","2","1,0.5,0,1,0.5,0,0.5,0,1","1,0.5,0,1,0.5,0,0.5,0,1","1",""
"","html-keyboard-response","74","45189","0.0-109.0","3TPWUS5F8ANOG9DC32QNRO0GDO6WCB","A1N8TKTLXV92QR","3ECKRY5B1QIH1N6NFX1ECCW5ZDKIZQ","","null","<img src=""img/food4.png"" style=""width:200px; border:14px solid green;"">","null","","","","","","","","","",""
"","image-keyboard-response","75","45435","0.0-111.0","3TPWUS5F8ANOG9DC32QNRO0GDO6WCB","A1N8TKTLXV92QR","3ECKRY5B1QIH1N6NFX1ECCW5ZDKIZQ","","245.5999999642372","img/food4.png","74","246.19999998807907","1","1","false","1","2","1,0.5,0,1,0.5,0,0.5,0,1","1,0.5,0,1,0.5,0,0.5,0,1","1",""
"","html-keyboard-response","76","45736","0.0-112.0","3TPWUS5F8ANOG9DC32QNRO0GDO6WCB","A1N8TKTLXV92QR","3ECKRY5B1QIH1N6NFX1ECCW5ZDKIZQ","","null","<img src=""img/food4.png"" style=""width:200px; border:14px solid green;"">","null","","","","","","","","","",""
"","image-keyboard-response","77","45912","0.0-114.0","3TPWUS5F8ANOG9DC32QNRO0GDO6WCB","A1N8TKTLXV92QR","3ECKRY5B1QIH1N6NFX1ECCW5ZDKIZQ","","175.5999999642372","img/food4.png","74","175.9000000357628","1","1","false","1","2","1,0.5,0,1,0.5,0,0.5,0,1","1,0.5,0,1,0.5,0,0.5,0,1","1",""
"","html-keyboard-response","78","46215","0.0-115.0","3TPWUS5F8ANOG9DC32QNRO0GDO6WCB","A1N8TKTLXV92QR","3ECKRY5B1QIH1N6NFX1ECCW5ZDKIZQ","","null","<img src=""img/food4.png"" style=""width:200px; border:14px solid green;"">","null","","","","","","","","","",""
"","image-keyboard-response","79","46582","0.0-117.0","3TPWUS5F8ANOG9DC32QNRO0GDO6WCB","A1N8TKTLXV92QR","3ECKRY5B1QIH1N6NFX1ECCW5ZDKIZQ","","366.19999998807907","img/food1.png","74","366.89999997615814","1","0","false","3","2","1,0.5,0,1,0.5,0,0.5,0,1","1,0.5,0,1,0.5,0,0.5,0,1","1",""
"","html-keyboard-response","80","46884","0.0-118.0","3TPWUS5F8ANOG9DC32QNRO0GDO6WCB","A1N8TKTLXV92QR","3ECKRY5B1QIH1N6NFX1ECCW5ZDKIZQ","","null","<img src=""img/food1.png"" style=""width:200px;border:14px solid red;"">","null","","","","","","","","","",""
"","image-keyboard-response","81","47035","0.0-120.0","3TPWUS5F8ANOG9DC32QNRO0GDO6WCB","A1N8TKTLXV92QR","3ECKRY5B1QIH1N6NFX1ECCW5ZDKIZQ","","150.30000001192093","img/food1.png","74","151","1","0","false","3","2","1,0.5,0,1,0.5,0,0.5,0,1","1,0.5,0,1,0.5,0,0.5,0,1","1",""
"","html-keyboard-response","82","47337","0.0-121.0","3TPWUS5F8ANOG9DC32QNRO0GDO6WCB","A1N8TKTLXV92QR","3ECKRY5B1QIH1N6NFX1ECCW5ZDKIZQ","","null","<img src=""img/food1.png"" style=""width:200px;border:14px solid red;"">","null","","","","","","","","","",""
"","image-keyboard-response","83","47852","0.0-123.0","3TPWUS5F8ANOG9DC32QNRO0GDO6WCB","A1N8TKTLXV92QR","3ECKRY5B1QIH1N6NFX1ECCW5ZDKIZQ","","514.1000000238419","img/food6.png","76","514.8000000119209","3","0","false","2","2","1,0.5,0,1,0.5,0,0.5,0,1","1,0.5,0,1,0.5,0,0.5,0,1","1",""
"","html-keyboard-response","84","48153","0.0-124.0","3TPWUS5F8ANOG9DC32QNRO0GDO6WCB","A1N8TKTLXV92QR","3ECKRY5B1QIH1N6NFX1ECCW5ZDKIZQ","","null","<img src=""img/food6.png"" style=""width:200px;border:14px solid red;"">","null","","","","","","","","","",""
"","image-keyboard-response","85","48386","0.0-126.0","3TPWUS5F8ANOG9DC32QNRO0GDO6WCB","A1N8TKTLXV92QR","3ECKRY5B1QIH1N6NFX1ECCW5ZDKIZQ","","232.19999998807907","img/food6.png","76","233","3","0","false","2","2","1,0.5,0,1,0.5,0,0.5,0,1","1,0.5,0,1,0.5,0,0.5,0,1","1",""
"","html-keyboard-response","86","48689","0.0-127.0","3TPWUS5F8ANOG9DC32QNRO0GDO6WCB","A1N8TKTLXV92QR","3ECKRY5B1QIH1N6NFX1ECCW5ZDKIZQ","","null","<img src=""img/food6.png"" style=""width:200px;border:14px solid red;"">","null","","","","","","","","","",""
"","image-keyboard-response","87","48734","0.0-129.0","3TPWUS5F8ANOG9DC32QNRO0GDO6WCB","A1N8TKTLXV92QR","3ECKRY5B1QIH1N6NFX1ECCW5ZDKIZQ","","44","img/food4.png","75","44.90000003576279","2","0","false","1","2","1,0.5,0,1,0.5,0,0.5,0,1","1,0.5,0,1,0.5,0,0.5,0,1","1",""
"","html-keyboard-response","88","49037","0.0-130.0","3TPWUS5F8ANOG9DC32QNRO0GDO6WCB","A1N8TKTLXV92QR","3ECKRY5B1QIH1N6NFX1ECCW5ZDKIZQ","","null","<img src=""img/food4.png"" style=""width:200px;border:14px solid red;"">","null","","","","","","","","","",""
"","image-keyboard-response","89","49110","0.0-132.0","3TPWUS5F8ANOG9DC32QNRO0GDO6WCB","A1N8TKTLXV92QR","3ECKRY5B1QIH1N6NFX1ECCW5ZDKIZQ","","72.69999998807907","img/food4.png","74","73.40000003576279","1","1","false","1","2","1,0.5,0,1,0.5,0,0.5,0,1","1,0.5,0,1,0.5,0,0.5,0,1","1",""
"","html-keyboard-response","90","49412","0.0-133.0","3TPWUS5F8ANOG9DC32QNRO0GDO6WCB","A1N8TKTLXV92QR","3ECKRY5B1QIH1N6NFX1ECCW5ZDKIZQ","","null","<img src=""img/food4.png"" style=""width:200px; border:14px solid green;"">","null","","","","","","","","","",""
"","image-keyboard-response","91","49621","0.0-135.0","3TPWUS5F8ANOG9DC32QNRO0GDO6WCB","A1N8TKTLXV92QR","3ECKRY5B1QIH1N6NFX1ECCW5ZDKIZQ","","208.4000000357628","img/food4.png","74","208.9000000357628","1","1","false","1","2","1,0.5,0,1,0.5,0,0.5,0,1","1,0.5,0,1,0.5,0,0.5,0,1","1",""
"","html-keyboard-response","92","49923","0.0-136.0","3TPWUS5F8ANOG9DC32QNRO0GDO6WCB","A1N8TKTLXV92QR","3ECKRY5B1QIH1N6NFX1ECCW5ZDKIZQ","","null","<img src=""img/food4.png"" style=""width:200px; border:14px solid green;"">","null","","","","","","","","","",""
"","image-keyboard-response","93","50119","0.0-138.0","3TPWUS5F8ANOG9DC32QNRO0GDO6WCB","A1N8TKTLXV92QR","3ECKRY5B1QIH1N6NFX1ECCW5ZDKIZQ","","194.69999998807907","img/food6.png","74","195.5","1","1","false","2","2","1,0.5,0,1,0.5,0,0.5,0,1","1,0.5,0,1,0.5,0,0.5,0,1","1",""
"","html-keyboard-response","94","50421","0.0-139.0","3TPWUS5F8ANOG9DC32QNRO0GDO6WCB","A1N8TKTLXV92QR","3ECKRY5B1QIH1N6NFX1ECCW5ZDKIZQ","","null","<img src=""img/food6.png"" style=""width:200px; border:14px solid green;"">","null","","","","","","","","","",""
"","image-keyboard-response","95","50672","0.0-141.0","3TPWUS5F8ANOG9DC32QNRO0GDO6WCB","A1N8TKTLXV92QR","3ECKRY5B1QIH1N6NFX1ECCW5ZDKIZQ","","249.89999997615814","img/food4.png","74","250.60000002384186","1","1","false","1","2","1,0.5,0,1,0.5,0,0.5,0,1","1,0.5,0,1,0.5,0,0.5,0,1","1",""
"","html-keyboard-response","96","50974","0.0-142.0","3TPWUS5F8ANOG9DC32QNRO0GDO6WCB","A1N8TKTLXV92QR","3ECKRY5B1QIH1N6NFX1ECCW5ZDKIZQ","","null","<img src=""img/food4.png"" style=""width:200px; border:14px solid green;"">","null","","","","","","","","","",""
"","image-keyboard-response","97","51224","0.0-144.0","3TPWUS5F8ANOG9DC32QNRO0GDO6WCB","A1N8TKTLXV92QR","3ECKRY5B1QIH1N6NFX1ECCW5ZDKIZQ","","248.9000000357628","img/food6.png","74","249.5","1","1","false","2","2","1,0.5,0,1,0.5,0,0.5,0,1","1,0.5,0,1,0.5,0,0.5,0,1","1",""
"","html-keyboard-response","98","51525","0.0-145.0","3TPWUS5F8ANOG9DC32QNRO0GDO6WCB","A1N8TKTLXV92QR","3ECKRY5B1QIH1N6NFX1ECCW5ZDKIZQ","","null","<img src=""img/food6.png"" style=""width:200px; border:14px solid green;"">","null","","","","","","","","","",""
"","image-keyboard-response","99","51738","0.0-147.0","3TPWUS5F8ANOG9DC32QNRO0GDO6WCB","A1N8TKTLXV92QR","3ECKRY5B1QIH1N6NFX1ECCW5ZDKIZQ","","212.60000002384186","img/food6.png","74","213.20000004768372","1","1","false","2","2","1,0.5,0,1,0.5,0,0.5,0,1","1,0.5,0,1,0.5,0,0.5,0,1","1",""
"","html-keyboard-response","100","52041","0.0-148.0","3TPWUS5F8ANOG9DC32QNRO0GDO6WCB","A1N8TKTLXV92QR","3ECKRY5B1QIH1N6NFX1ECCW5ZDKIZQ","","null","<img src=""img/food6.png"" style=""width:200px; border:14px solid green;"">","null","","","","","","","","","",""
"","image-keyboard-response","101","52306","0.0-150.0","3TPWUS5F8ANOG9DC32QNRO0GDO6WCB","A1N8TKTLXV92QR","3ECKRY5B1QIH1N6NFX1ECCW5ZDKIZQ","","264.30000001192093","img/food4.png","74","265.10000002384186","1","1","false","1","2","1,0.5,0,1,0.5,0,0.5,0,1","1,0.5,0,1,0.5,0,0.5,0,1","1",""
"","html-keyboard-response","102","52607","0.0-151.0","3TPWUS5F8ANOG9DC32QNRO0GDO6WCB","A1N8TKTLXV92QR","3ECKRY5B1QIH1N6NFX1ECCW5ZDKIZQ","","null","<img src=""img/food4.png"" style=""width:200px; border:14px solid green;"">","null","","","","","","","","","",""
"","image-keyboard-response","103","52916","0.0-153.0","3TPWUS5F8ANOG9DC32QNRO0GDO6WCB","A1N8TKTLXV92QR","3ECKRY5B1QIH1N6NFX1ECCW5ZDKIZQ","","308","img/food4.png","74","308.69999998807907","1","1","false","1","2","1,0.5,0,1,0.5,0,0.5,0,1","1,0.5,0,1,0.5,0,0.5,0,1","1",""
"","html-keyboard-response","104","53218","0.0-154.0","3TPWUS5F8ANOG9DC32QNRO0GDO6WCB","A1N8TKTLXV92QR","3ECKRY5B1QIH1N6NFX1ECCW5ZDKIZQ","","null","<img src=""img/food4.png"" style=""width:200px; border:14px solid green;"">","null","","","","","","","","","",""
"","image-keyboard-response","105","53286","0.0-156.0","3TPWUS5F8ANOG9DC32QNRO0GDO6WCB","A1N8TKTLXV92QR","3ECKRY5B1QIH1N6NFX1ECCW5ZDKIZQ","","67.60000002384186","img/food1.png","74","68.20000004768372","1","0","false","3","2","1,0.5,0,1,0.5,0,0.5,0,1","1,0.5,0,1,0.5,0,0.5,0,1","1",""
"","html-keyboard-response","106","53597","0.0-157.0","3TPWUS5F8ANOG9DC32QNRO0GDO6WCB","A1N8TKTLXV92QR","3ECKRY5B1QIH1N6NFX1ECCW5ZDKIZQ","","null","<img src=""img/food1.png"" style=""width:200px;border:14px solid red;"">","null","","","","","","","","","",""
"","image-keyboard-response","107","53982","0.0-159.0","3TPWUS5F8ANOG9DC32QNRO0GDO6WCB","A1N8TKTLXV92QR","3ECKRY5B1QIH1N6NFX1ECCW5ZDKIZQ","","384.19999998807907","img/food4.png","74","384.89999997615814","1","1","false","1","2","1,0.5,0,1,0.5,0,0.5,0,1","1,0.5,0,1,0.5,0,0.5,0,1","1",""
"","html-keyboard-response","108","54284","0.0-160.0","3TPWUS5F8ANOG9DC32QNRO0GDO6WCB","A1N8TKTLXV92QR","3ECKRY5B1QIH1N6NFX1ECCW5ZDKIZQ","","null","<img src=""img/food4.png"" style=""width:200px; border:14px solid green;"">","null","","","","","","","","","",""
"","image-keyboard-response","109","54476","0.0-162.0","3TPWUS5F8ANOG9DC32QNRO0GDO6WCB","A1N8TKTLXV92QR","3ECKRY5B1QIH1N6NFX1ECCW5ZDKIZQ","","191.19999998807907","img/food1.png","74","191.9000000357628","1","0","false","3","2","1,0.5,0,1,0.5,0,0.5,0,1","1,0.5,0,1,0.5,0,0.5,0,1","1",""
"","html-keyboard-response","110","54778","0.0-163.0","3TPWUS5F8ANOG9DC32QNRO0GDO6WCB","A1N8TKTLXV92QR","3ECKRY5B1QIH1N6NFX1ECCW5ZDKIZQ","","null","<img src=""img/food1.png"" style=""width:200px;border:14px solid red;"">","null","","","","","","","","","",""
"","image-keyboard-response","111","55102","0.0-165.0","3TPWUS5F8ANOG9DC32QNRO0GDO6WCB","A1N8TKTLXV92QR","3ECKRY5B1QIH1N6NFX1ECCW5ZDKIZQ","","323.5","img/food1.png","74","324.2000000476837","1","1","false","3","2","1,0.5,0,1,0.5,0,0.5,0,1","1,0.5,0,1,0.5,0,0.5,0,1","1",""
"","html-keyboard-response","112","55404","0.0-166.0","3TPWUS5F8ANOG9DC32QNRO0GDO6WCB","A1N8TKTLXV92QR","3ECKRY5B1QIH1N6NFX1ECCW5ZDKIZQ","","null","<img src=""img/food1.png"" style=""width:200px; border:14px solid green;"">","null","","","","","","","","","",""
"","image-keyboard-response","113","55689","0.0-168.0","3TPWUS5F8ANOG9DC32QNRO0GDO6WCB","A1N8TKTLXV92QR","3ECKRY5B1QIH1N6NFX1ECCW5ZDKIZQ","","283.89999997615814","img/food6.png","74","284.69999998807907","1","1","false","2","2","1,0.5,0,1,0.5,0,0.5,0,1","1,0.5,0,1,0.5,0,0.5,0,1","1",""
"","html-keyboard-response","114","55990","0.0-169.0","3TPWUS5F8ANOG9DC32QNRO0GDO6WCB","A1N8TKTLXV92QR","3ECKRY5B1QIH1N6NFX1ECCW5ZDKIZQ","","null","<img src=""img/food6.png"" style=""width:200px; border:14px solid green;"">","null","","","","","","","","","",""
"","image-keyboard-response","115","56185","0.0-171.0","3TPWUS5F8ANOG9DC32QNRO0GDO6WCB","A1N8TKTLXV92QR","3ECKRY5B1QIH1N6NFX1ECCW5ZDKIZQ","","194.5","img/food6.png","74","195.10000002384186","1","1","false","2","2","1,0.5,0,1,0.5,0,0.5,0,1","1,0.5,0,1,0.5,0,0.5,0,1","1",""
"","html-keyboard-response","116","56487","0.0-172.0","3TPWUS5F8ANOG9DC32QNRO0GDO6WCB","A1N8TKTLXV92QR","3ECKRY5B1QIH1N6NFX1ECCW5ZDKIZQ","","null","<img src=""img/food6.png"" style=""width:200px; border:14px solid green;"">","null","","","","","","","","","",""
"","image-keyboard-response","117","56719","0.0-174.0","3TPWUS5F8ANOG9DC32QNRO0GDO6WCB","A1N8TKTLXV92QR","3ECKRY5B1QIH1N6NFX1ECCW5ZDKIZQ","","231.30000001192093","img/food6.png","74","231.9000000357628","1","1","false","2","2","1,0.5,0,1,0.5,0,0.5,0,1","1,0.5,0,1,0.5,0,0.5,0,1","1",""
"","html-keyboard-response","118","57021","0.0-175.0","3TPWUS5F8ANOG9DC32QNRO0GDO6WCB","A1N8TKTLXV92QR","3ECKRY5B1QIH1N6NFX1ECCW5ZDKIZQ","","null","<img src=""img/food6.png"" style=""width:200px; border:14px solid green;"">","null","","","","","","","","","",""
"","image-keyboard-response","119","57255","0.0-177.0","3TPWUS5F8ANOG9DC32QNRO0GDO6WCB","A1N8TKTLXV92QR","3ECKRY5B1QIH1N6NFX1ECCW5ZDKIZQ","","232.5999999642372","img/food4.png","74","233.29999995231628","1","1","false","1","2","1,0.5,0,1,0.5,0,0.5,0,1","1,0.5,0,1,0.5,0,0.5,0,1","1",""
"","html-keyboard-response","120","57556","0.0-178.0","3TPWUS5F8ANOG9DC32QNRO0GDO6WCB","A1N8TKTLXV92QR","3ECKRY5B1QIH1N6NFX1ECCW5ZDKIZQ","","null","<img src=""img/food4.png"" style=""width:200px; border:14px solid green;"">","null","","","","","","","","","",""
"","image-keyboard-response","121","57715","0.0-180.0","3TPWUS5F8ANOG9DC32QNRO0GDO6WCB","A1N8TKTLXV92QR","3ECKRY5B1QIH1N6NFX1ECCW5ZDKIZQ","","158.20000004768372","img/food1.png","74","158.69999998807907","1","0","false","3","2","1,0.5,0,1,0.5,0,0.5,0,1","1,0.5,0,1,0.5,0,0.5,0,1","1",""
"","html-keyboard-response","122","58018","0.0-181.0","3TPWUS5F8ANOG9DC32QNRO0GDO6WCB","A1N8TKTLXV92QR","3ECKRY5B1QIH1N6NFX1ECCW5ZDKIZQ","","null","<img src=""img/food1.png"" style=""width:200px;border:14px solid red;"">","null","","","","","","","","","",""
"","image-keyboard-response","123","58531","0.0-183.0","3TPWUS5F8ANOG9DC32QNRO0GDO6WCB","A1N8TKTLXV92QR","3ECKRY5B1QIH1N6NFX1ECCW5ZDKIZQ","","513","img/food6.png","76","513.6000000238419","3","0","false","2","2","1,0.5,0,1,0.5,0,0.5,0,1","1,0.5,0,1,0.5,0,0.5,0,1","1",""
"","html-keyboard-response","124","58833","0.0-184.0","3TPWUS5F8ANOG9DC32QNRO0GDO6WCB","A1N8TKTLXV92QR","3ECKRY5B1QIH1N6NFX1ECCW5ZDKIZQ","","null","<img src=""img/food6.png"" style=""width:200px;border:14px solid red;"">","null","","","","","","","","","",""
"","image-keyboard-response","125","59066","0.0-186.0","3TPWUS5F8ANOG9DC32QNRO0GDO6WCB","A1N8TKTLXV92QR","3ECKRY5B1QIH1N6NFX1ECCW5ZDKIZQ","","232.10000002384186","img/food1.png","75","232.69999998807907","2","0","false","3","2","1,0.5,0,1,0.5,0,0.5,0,1","1,0.5,0,1,0.5,0,0.5,0,1","1",""
"","html-keyboard-response","126","59367","0.0-187.0","3TPWUS5F8ANOG9DC32QNRO0GDO6WCB","A1N8TKTLXV92QR","3ECKRY5B1QIH1N6NFX1ECCW5ZDKIZQ","","null","<img src=""img/food1.png"" style=""width:200px;border:14px solid red;"">","null","","","","","","","","","",""
"","image-keyboard-response","127","59507","0.0-189.0","3TPWUS5F8ANOG9DC32QNRO0GDO6WCB","A1N8TKTLXV92QR","3ECKRY5B1QIH1N6NFX1ECCW5ZDKIZQ","","138.9000000357628","img/food1.png","74","139.5","1","0","false","3","2","1,0.5,0,1,0.5,0,0.5,0,1","1,0.5,0,1,0.5,0,0.5,0,1","1",""
"","html-keyboard-response","128","59808","0.0-190.0","3TPWUS5F8ANOG9DC32QNRO0GDO6WCB","A1N8TKTLXV92QR","3ECKRY5B1QIH1N6NFX1ECCW5ZDKIZQ","","null","<img src=""img/food1.png"" style=""width:200px;border:14px solid red;"">","null","","","","","","","","","",""
"","image-keyboard-response","129","59943","0.0-192.0","3TPWUS5F8ANOG9DC32QNRO0GDO6WCB","A1N8TKTLXV92QR","3ECKRY5B1QIH1N6NFX1ECCW5ZDKIZQ","","133.60000002384186","img/food6.png","74","134.19999998807907","1","1","false","2","2","1,0.5,0,1,0.5,0,0.5,0,1","1,0.5,0,1,0.5,0,0.5,0,1","1",""
"","html-keyboard-response","130","60245","0.0-193.0","3TPWUS5F8ANOG9DC32QNRO0GDO6WCB","A1N8TKTLXV92QR","3ECKRY5B1QIH1N6NFX1ECCW5ZDKIZQ","","null","<img src=""img/food6.png"" style=""width:200px; border:14px solid green;"">","null","","","","","","","","","",""
"","image-keyboard-response","131","60488","0.0-195.0","3TPWUS5F8ANOG9DC32QNRO0GDO6WCB","A1N8TKTLXV92QR","3ECKRY5B1QIH1N6NFX1ECCW5ZDKIZQ","","243","img/food1.png","74","243.80000001192093","1","1","false","3","2","1,0.5,0,1,0.5,0,0.5,0,1","1,0.5,0,1,0.5,0,0.5,0,1","1",""
"","html-keyboard-response","132","60790","0.0-196.0","3TPWUS5F8ANOG9DC32QNRO0GDO6WCB","A1N8TKTLXV92QR","3ECKRY5B1QIH1N6NFX1ECCW5ZDKIZQ","","null","<img src=""img/food1.png"" style=""width:200px; border:14px solid green;"">","null","","","","","","","","","",""
"","image-keyboard-response","133","60981","0.0-198.0","3TPWUS5F8ANOG9DC32QNRO0GDO6WCB","A1N8TKTLXV92QR","3ECKRY5B1QIH1N6NFX1ECCW5ZDKIZQ","","190","img/food1.png","74","190.5999999642372","1","0","false","3","2","1,0.5,0,1,0.5,0,0.5,0,1","1,0.5,0,1,0.5,0,0.5,0,1","1",""
"","html-keyboard-response","134","61283","0.0-199.0","3TPWUS5F8ANOG9DC32QNRO0GDO6WCB","A1N8TKTLXV92QR","3ECKRY5B1QIH1N6NFX1ECCW5ZDKIZQ","","null","<img src=""img/food1.png"" style=""width:200px;border:14px solid red;"">","null","","","","","","","","","",""
"","image-keyboard-response","135","61509","0.0-201.0","3TPWUS5F8ANOG9DC32QNRO0GDO6WCB","A1N8TKTLXV92QR","3ECKRY5B1QIH1N6NFX1ECCW5ZDKIZQ","","224.10000002384186","img/food6.png","74","224.89999997615814","1","1","false","2","2","1,0.5,0,1,0.5,0,0.5,0,1","1,0.5,0,1,0.5,0,0.5,0,1","1",""
"","html-keyboard-response","136","61816","0.0-202.0","3TPWUS5F8ANOG9DC32QNRO0GDO6WCB","A1N8TKTLXV92QR","3ECKRY5B1QIH1N6NFX1ECCW5ZDKIZQ","","null","<img src=""img/food6.png"" style=""width:200px; border:14px solid green;"">","null","","","","","","","","","",""
"","image-keyboard-response","137","61999","0.0-204.0","3TPWUS5F8ANOG9DC32QNRO0GDO6WCB","A1N8TKTLXV92QR","3ECKRY5B1QIH1N6NFX1ECCW5ZDKIZQ","","182.10000002384186","img/food1.png","74","182.5999999642372","1","0","false","3","2","1,0.5,0,1,0.5,0,0.5,0,1","1,0.5,0,1,0.5,0,0.5,0,1","1",""
"","html-keyboard-response","138","62301","0.0-205.0","3TPWUS5F8ANOG9DC32QNRO0GDO6WCB","A1N8TKTLXV92QR","3ECKRY5B1QIH1N6NFX1ECCW5ZDKIZQ","","null","<img src=""img/food1.png"" style=""width:200px;border:14px solid red;"">","null","","","","","","","","","",""
"","image-keyboard-response","139","62513","0.0-207.0","3TPWUS5F8ANOG9DC32QNRO0GDO6WCB","A1N8TKTLXV92QR","3ECKRY5B1QIH1N6NFX1ECCW5ZDKIZQ","","210.60000002384186","img/food1.png","74","211.19999998807907","1","1","false","3","2","1,0.5,0,1,0.5,0,0.5,0,1","1,0.5,0,1,0.5,0,0.5,0,1","1",""
"","html-keyboard-response","140","62816","0.0-208.0","3TPWUS5F8ANOG9DC32QNRO0GDO6WCB","A1N8TKTLXV92QR","3ECKRY5B1QIH1N6NFX1ECCW5ZDKIZQ","","null","<img src=""img/food1.png"" style=""width:200px; border:14px solid green;"">","null","","","","","","","","","",""
"","image-keyboard-response","141","62947","0.0-210.0","3TPWUS5F8ANOG9DC32QNRO0GDO6WCB","A1N8TKTLXV92QR","3ECKRY5B1QIH1N6NFX1ECCW5ZDKIZQ","","130.60000002384186","img/food1.png","74","131.5999999642372","1","1","false","3","2","1,0.5,0,1,0.5,0,0.5,0,1","1,0.5,0,1,0.5,0,0.5,0,1","1",""
"","html-keyboard-response","142","63249","0.0-211.0","3TPWUS5F8ANOG9DC32QNRO0GDO6WCB","A1N8TKTLXV92QR","3ECKRY5B1QIH1N6NFX1ECCW5ZDKIZQ","","null","<img src=""img/food1.png"" style=""width:200px; border:14px solid green;"">","null","","","","","","","","","",""
"","image-keyboard-response","143","63436","0.0-213.0","3TPWUS5F8ANOG9DC32QNRO0GDO6WCB","A1N8TKTLXV92QR","3ECKRY5B1QIH1N6NFX1ECCW5ZDKIZQ","","185.89999997615814","img/food4.png","74","186.5","1","1","false","1","2","1,0.5,0,1,0.5,0,0.5,0,1","1,0.5,0,1,0.5,0,0.5,0,1","1",""
"","html-keyboard-response","144","63738","0.0-214.0","3TPWUS5F8ANOG9DC32QNRO0GDO6WCB","A1N8TKTLXV92QR","3ECKRY5B1QIH1N6NFX1ECCW5ZDKIZQ","","null","<img src=""img/food4.png"" style=""width:200px; border:14px solid green;"">","null","","","","","","","","","",""
"","image-keyboard-response","145","63889","0.0-216.0","3TPWUS5F8ANOG9DC32QNRO0GDO6WCB","A1N8TKTLXV92QR","3ECKRY5B1QIH1N6NFX1ECCW5ZDKIZQ","","150.4000000357628","img/food1.png","74","151","1","1","false","3","2","1,0.5,0,1,0.5,0,0.5,0,1","1,0.5,0,1,0.5,0,0.5,0,1","1",""
"","html-keyboard-response","146","64190","0.0-217.0","3TPWUS5F8ANOG9DC32QNRO0GDO6WCB","A1N8TKTLXV92QR","3ECKRY5B1QIH1N6NFX1ECCW5ZDKIZQ","","null","<img src=""img/food1.png"" style=""width:200px; border:14px solid green;"">","null","","","","","","","","","",""
"","image-keyboard-response","147","64366","0.0-219.0","3TPWUS5F8ANOG9DC32QNRO0GDO6WCB","A1N8TKTLXV92QR","3ECKRY5B1QIH1N6NFX1ECCW5ZDKIZQ","","175","img/food1.png","74","175.5999999642372","1","0","false","3","2","1,0.5,0,1,0.5,0,0.5,0,1","1,0.5,0,1,0.5,0,0.5,0,1","1",""
"","html-keyboard-response","148","64668","0.0-220.0","3TPWUS5F8ANOG9DC32QNRO0GDO6WCB","A1N8TKTLXV92QR","3ECKRY5B1QIH1N6NFX1ECCW5ZDKIZQ","","null","<img src=""img/food1.png"" style=""width:200px;border:14px solid red;"">","null","","","","","","","","","",""
"","image-keyboard-response","149","64818","0.0-222.0","3TPWUS5F8ANOG9DC32QNRO0GDO6WCB","A1N8TKTLXV92QR","3ECKRY5B1QIH1N6NFX1ECCW5ZDKIZQ","","149.5","img/food1.png","74","150.30000001192093","1","0","false","3","2","1,0.5,0,1,0.5,0,0.5,0,1","1,0.5,0,1,0.5,0,0.5,0,1","1",""
"","html-keyboard-response","150","65120","0.0-223.0","3TPWUS5F8ANOG9DC32QNRO0GDO6WCB","A1N8TKTLXV92QR","3ECKRY5B1QIH1N6NFX1ECCW5ZDKIZQ","","null","<img src=""img/food1.png"" style=""width:200px;border:14px solid red;"">","null","","","","","","","","","",""
"","image-keyboard-response","151","65257","0.0-225.0","3TPWUS5F8ANOG9DC32QNRO0GDO6WCB","A1N8TKTLXV92QR","3ECKRY5B1QIH1N6NFX1ECCW5ZDKIZQ","","135.69999998807907","img/food1.png","74","136.5","1","0","false","3","2","1,0.5,0,1,0.5,0,0.5,0,1","1,0.5,0,1,0.5,0,0.5,0,1","1",""
"","html-keyboard-response","152","65559","0.0-226.0","3TPWUS5F8ANOG9DC32QNRO0GDO6WCB","A1N8TKTLXV92QR","3ECKRY5B1QIH1N6NFX1ECCW5ZDKIZQ","","null","<img src=""img/food1.png"" style=""width:200px;border:14px solid red;"">","null","","","","","","","","","",""
"","image-keyboard-response","153","65723","0.0-228.0","3TPWUS5F8ANOG9DC32QNRO0GDO6WCB","A1N8TKTLXV92QR","3ECKRY5B1QIH1N6NFX1ECCW5ZDKIZQ","","162.5","img/food6.png","74","163.19999998807907","1","1","false","2","2","1,0.5,0,1,0.5,0,0.5,0,1","1,0.5,0,1,0.5,0,0.5,0,1","1",""
"","html-keyboard-response","154","66025","0.0-229.0","3TPWUS5F8ANOG9DC32QNRO0GDO6WCB","A1N8TKTLXV92QR","3ECKRY5B1QIH1N6NFX1ECCW5ZDKIZQ","","null","<img src=""img/food6.png"" style=""width:200px; border:14px solid green;"">","null","","","","","","","","","",""
"","image-keyboard-response","155","66281","0.0-231.0","3TPWUS5F8ANOG9DC32QNRO0GDO6WCB","A1N8TKTLXV92QR","3ECKRY5B1QIH1N6NFX1ECCW5ZDKIZQ","","255.69999998807907","img/food4.png","75","256.30000001192093","2","1","false","1","2","1,0.5,0,1,0.5,0,0.5,0,1","1,0.5,0,1,0.5,0,0.5,0,1","1",""
"","html-keyboard-response","156","66583","0.0-232.0","3TPWUS5F8ANOG9DC32QNRO0GDO6WCB","A1N8TKTLXV92QR","3ECKRY5B1QIH1N6NFX1ECCW5ZDKIZQ","","null","<img src=""img/food4.png"" style=""width:200px; border:14px solid green;"">","null","","","","","","","","","",""
"","image-keyboard-response","157","66699","0.0-234.0","3TPWUS5F8ANOG9DC32QNRO0GDO6WCB","A1N8TKTLXV92QR","3ECKRY5B1QIH1N6NFX1ECCW5ZDKIZQ","","114.80000001192093","img/food1.png","76","115.5","3","1","false","3","2","1,0.5,0,1,0.5,0,0.5,0,1","1,0.5,0,1,0.5,0,0.5,0,1","1",""
"","html-keyboard-response","158","67005","0.0-235.0","3TPWUS5F8ANOG9DC32QNRO0GDO6WCB","A1N8TKTLXV92QR","3ECKRY5B1QIH1N6NFX1ECCW5ZDKIZQ","","null","<img src=""img/food1.png"" style=""width:200px; border:14px solid green;"">","null","","","","","","","","","",""
"","image-keyboard-response","159","67065","0.0-237.0","3TPWUS5F8ANOG9DC32QNRO0GDO6WCB","A1N8TKTLXV92QR","3ECKRY5B1QIH1N6NFX1ECCW5ZDKIZQ","","58.59999996423721","img/food6.png","74","59.30000001192093","1","1","false","2","2","1,0.5,0,1,0.5,0,0.5,0,1","1,0.5,0,1,0.5,0,0.5,0,1","1",""
"","html-keyboard-response","160","67368","0.0-238.0","3TPWUS5F8ANOG9DC32QNRO0GDO6WCB","A1N8TKTLXV92QR","3ECKRY5B1QIH1N6NFX1ECCW5ZDKIZQ","","null","<img src=""img/food6.png"" style=""width:200px; border:14px solid green;"">","null","","","","","","","","","",""
"","image-keyboard-response","161","67567","0.0-240.0","3TPWUS5F8ANOG9DC32QNRO0GDO6WCB","A1N8TKTLXV92QR","3ECKRY5B1QIH1N6NFX1ECCW5ZDKIZQ","","199","img/food6.png","76","199.60000002384186","3","0","false","2","2","1,0.5,0,1,0.5,0,0.5,0,1","1,0.5,0,1,0.5,0,0.5,0,1","1",""
"","html-keyboard-response","162","67870","0.0-241.0","3TPWUS5F8ANOG9DC32QNRO0GDO6WCB","A1N8TKTLXV92QR","3ECKRY5B1QIH1N6NFX1ECCW5ZDKIZQ","","null","<img src=""img/food6.png"" style=""width:200px;border:14px solid red;"">","null","","","","","","","","","",""
"","image-keyboard-response","163","68014","0.0-243.0","3TPWUS5F8ANOG9DC32QNRO0GDO6WCB","A1N8TKTLXV92QR","3ECKRY5B1QIH1N6NFX1ECCW5ZDKIZQ","","143.30000001192093","img/food1.png","75","143.9000000357628","2","0","false","3","2","1,0.5,0,1,0.5,0,0.5,0,1","1,0.5,0,1,0.5,0,0.5,0,1","1",""
"","html-keyboard-response","164","68316","0.0-244.0","3TPWUS5F8ANOG9DC32QNRO0GDO6WCB","A1N8TKTLXV92QR","3ECKRY5B1QIH1N6NFX1ECCW5ZDKIZQ","","null","<img src=""img/food1.png"" style=""width:200px;border:14px solid red;"">","null","","","","","","","","","",""
"","image-keyboard-response","165","68415","0.0-246.0","3TPWUS5F8ANOG9DC32QNRO0GDO6WCB","A1N8TKTLXV92QR","3ECKRY5B1QIH1N6NFX1ECCW5ZDKIZQ","","97.80000001192093","img/food4.png","74","98.5","1","1","false","1","2","1,0.5,0,1,0.5,0,0.5,0,1","1,0.5,0,1,0.5,0,0.5,0,1","1",""
"","html-keyboard-response","166","68716","0.0-247.0","3TPWUS5F8ANOG9DC32QNRO0GDO6WCB","A1N8TKTLXV92QR","3ECKRY5B1QIH1N6NFX1ECCW5ZDKIZQ","","null","<img src=""img/food4.png"" style=""width:200px; border:14px solid green;"">","null","","","","","","","","","",""
"","image-keyboard-response","167","68996","0.0-249.0","3TPWUS5F8ANOG9DC32QNRO0GDO6WCB","A1N8TKTLXV92QR","3ECKRY5B1QIH1N6NFX1ECCW5ZDKIZQ","","279.19999998807907","img/food6.png","74","280","1","1","false","2","2","1,0.5,0,1,0.5,0,0.5,0,1","1,0.5,0,1,0.5,0,0.5,0,1","1",""
"","html-keyboard-response","168","69297","0.0-250.0","3TPWUS5F8ANOG9DC32QNRO0GDO6WCB","A1N8TKTLXV92QR","3ECKRY5B1QIH1N6NFX1ECCW5ZDKIZQ","","null","<img src=""img/food6.png"" style=""width:200px; border:14px solid green;"">","null","","","","","","","","","",""
"","image-keyboard-response","169","69696","0.0-252.0","3TPWUS5F8ANOG9DC32QNRO0GDO6WCB","A1N8TKTLXV92QR","3ECKRY5B1QIH1N6NFX1ECCW5ZDKIZQ","","398","img/food6.png","74","398.5999999642372","1","1","false","2","2","1,0.5,0,1,0.5,0,0.5,0,1","1,0.5,0,1,0.5,0,0.5,0,1","1",""
"","html-keyboard-response","170","69999","0.0-253.0","3TPWUS5F8ANOG9DC32QNRO0GDO6WCB","A1N8TKTLXV92QR","3ECKRY5B1QIH1N6NFX1ECCW5ZDKIZQ","","null","<img src=""img/food6.png"" style=""width:200px; border:14px solid green;"">","null","","","","","","","","","",""
"","image-keyboard-response","171","70294","0.0-255.0","3TPWUS5F8ANOG9DC32QNRO0GDO6WCB","A1N8TKTLXV92QR","3ECKRY5B1QIH1N6NFX1ECCW5ZDKIZQ","","294.80000001192093","img/food4.png","74","295.5999999642372","1","1","false","1","2","1,0.5,0,1,0.5,0,0.5,0,1","1,0.5,0,1,0.5,0,0.5,0,1","1",""
"","html-keyboard-response","172","70596","0.0-256.0","3TPWUS5F8ANOG9DC32QNRO0GDO6WCB","A1N8TKTLXV92QR","3ECKRY5B1QIH1N6NFX1ECCW5ZDKIZQ","","null","<img src=""img/food4.png"" style=""width:200px; border:14px solid green;"">","null","","","","","","","","","",""
"","image-keyboard-response","173","70953","0.0-258.0","3TPWUS5F8ANOG9DC32QNRO0GDO6WCB","A1N8TKTLXV92QR","3ECKRY5B1QIH1N6NFX1ECCW5ZDKIZQ","","355.9000000357628","img/food6.png","74","356.7999999523163","1","1","false","2","2","1,0.5,0,1,0.5,0,0.5,0,1","1,0.5,0,1,0.5,0,0.5,0,1","1",""
"","html-keyboard-response","174","71255","0.0-259.0","3TPWUS5F8ANOG9DC32QNRO0GDO6WCB","A1N8TKTLXV92QR","3ECKRY5B1QIH1N6NFX1ECCW5ZDKIZQ","","null","<img src=""img/food6.png"" style=""width:200px; border:14px solid green;"">","null","","","","","","","","","",""
"","image-keyboard-response","175","71519","0.0-261.0","3TPWUS5F8ANOG9DC32QNRO0GDO6WCB","A1N8TKTLXV92QR","3ECKRY5B1QIH1N6NFX1ECCW5ZDKIZQ","","263.39999997615814","img/food4.png","74","264.10000002384186","1","1","false","1","2","1,0.5,0,1,0.5,0,0.5,0,1","1,0.5,0,1,0.5,0,0.5,0,1","1",""
"","html-keyboard-response","176","71820","0.0-262.0","3TPWUS5F8ANOG9DC32QNRO0GDO6WCB","A1N8TKTLXV92QR","3ECKRY5B1QIH1N6NFX1ECCW5ZDKIZQ","","null","<img src=""img/food4.png"" style=""width:200px; border:14px solid green;"">","null","","","","","","","","","",""
"","image-keyboard-response","177","72094","0.0-264.0","3TPWUS5F8ANOG9DC32QNRO0GDO6WCB","A1N8TKTLXV92QR","3ECKRY5B1QIH1N6NFX1ECCW5ZDKIZQ","","272.9000000357628","img/food1.png","74","273.60000002384186","1","0","false","3","2","1,0.5,0,1,0.5,0,0.5,0,1","1,0.5,0,1,0.5,0,0.5,0,1","1",""
"","html-keyboard-response","178","72396","0.0-265.0","3TPWUS5F8ANOG9DC32QNRO0GDO6WCB","A1N8TKTLXV92QR","3ECKRY5B1QIH1N6NFX1ECCW5ZDKIZQ","","null","<img src=""img/food1.png"" style=""width:200px;border:14px solid red;"">","null","","","","","","","","","",""
"","image-keyboard-response","179","72568","0.0-267.0","3TPWUS5F8ANOG9DC32QNRO0GDO6WCB","A1N8TKTLXV92QR","3ECKRY5B1QIH1N6NFX1ECCW5ZDKIZQ","","171.5999999642372","img/food4.png","74","172.20000004768372","1","1","false","1","2","1,0.5,0,1,0.5,0,0.5,0,1","1,0.5,0,1,0.5,0,0.5,0,1","1",""
"","html-keyboard-response","180","72870","0.0-268.0","3TPWUS5F8ANOG9DC32QNRO0GDO6WCB","A1N8TKTLXV92QR","3ECKRY5B1QIH1N6NFX1ECCW5ZDKIZQ","","null","<img src=""img/food4.png"" style=""width:200px; border:14px solid green;"">","null","","","","","","","","","",""
"","image-keyboard-response","181","73081","0.0-270.0","3TPWUS5F8ANOG9DC32QNRO0GDO6WCB","A1N8TKTLXV92QR","3ECKRY5B1QIH1N6NFX1ECCW5ZDKIZQ","","210.10000002384186","img/food6.png","74","210.80000001192093","1","1","false","2","2","1,0.5,0,1,0.5,0,0.5,0,1","1,0.5,0,1,0.5,0,0.5,0,1","1",""
"","html-keyboard-response","182","73383","0.0-271.0","3TPWUS5F8ANOG9DC32QNRO0GDO6WCB","A1N8TKTLXV92QR","3ECKRY5B1QIH1N6NFX1ECCW5ZDKIZQ","","null","<img src=""img/food6.png"" style=""width:200px; border:14px solid green;"">","null","","","","","","","","","",""
"","instructions","183","83619","0.0-273.0","3TPWUS5F8ANOG9DC32QNRO0GDO6WCB","A1N8TKTLXV92QR","3ECKRY5B1QIH1N6NFX1ECCW5ZDKIZQ","[{""page_index"":0,""viewing_time"":8284.900000035763},{""page_index"":1,""viewing_time"":1950.5}]","10235.600000023842","","","","","","","","","","","",""
"","image-keyboard-response","184","84285","0.0-274.0","3TPWUS5F8ANOG9DC32QNRO0GDO6WCB","A1N8TKTLXV92QR","3ECKRY5B1QIH1N6NFX1ECCW5ZDKIZQ","","665.1999999880791","img/food2.png","74","666.0999999642372","1","0","","2","1","1,0.5,0,1,0.5,0,0.5,0,1","0.5,0,1,0.5,0,1,0,1,0.5","2",""
"","html-keyboard-response","185","84587","0.0-275.0","3TPWUS5F8ANOG9DC32QNRO0GDO6WCB","A1N8TKTLXV92QR","3ECKRY5B1QIH1N6NFX1ECCW5ZDKIZQ","","null","<img src=""img/food2.png"" style=""width:200px;border:14px solid red;"">","null","","","","","","","","","",""
"","image-keyboard-response","186","84841","0.0-276.0","3TPWUS5F8ANOG9DC32QNRO0GDO6WCB","A1N8TKTLXV92QR","3ECKRY5B1QIH1N6NFX1ECCW5ZDKIZQ","","253.30000001192093","img/food3.png","74","254","1","0","","3","1","1,0.5,0,1,0.5,0,0.5,0,1","0.5,0,1,0.5,0,1,0,1,0.5","2",""
"","html-keyboard-response","187","85144","0.0-277.0","3TPWUS5F8ANOG9DC32QNRO0GDO6WCB","A1N8TKTLXV92QR","3ECKRY5B1QIH1N6NFX1ECCW5ZDKIZQ","","null","<img src=""img/food3.png"" style=""width:200px;border:14px solid red;"">","null","","","","","","","","","",""
"","image-keyboard-response","188","85358","0.0-278.0","3TPWUS5F8ANOG9DC32QNRO0GDO6WCB","A1N8TKTLXV92QR","3ECKRY5B1QIH1N6NFX1ECCW5ZDKIZQ","","213.19999998807907","img/food2.png","74","213.89999997615814","1","1","","2","1","1,0.5,0,1,0.5,0,0.5,0,1","0.5,0,1,0.5,0,1,0,1,0.5","2",""
"","html-keyboard-response","189","85660","0.0-279.0","3TPWUS5F8ANOG9DC32QNRO0GDO6WCB","A1N8TKTLXV92QR","3ECKRY5B1QIH1N6NFX1ECCW5ZDKIZQ","","null","<img src=""img/food2.png"" style=""width:200px; border:14px solid green;"">","null","","","","","","","","","",""
"","image-keyboard-response","190","85881","0.0-280.0","3TPWUS5F8ANOG9DC32QNRO0GDO6WCB","A1N8TKTLXV92QR","3ECKRY5B1QIH1N6NFX1ECCW5ZDKIZQ","","219.80000001192093","img/food5.png","74","220.39999997615814","1","1","","1","1","1,0.5,0,1,0.5,0,0.5,0,1","0.5,0,1,0.5,0,1,0,1,0.5","2",""
"","html-keyboard-response","191","86183","0.0-281.0","3TPWUS5F8ANOG9DC32QNRO0GDO6WCB","A1N8TKTLXV92QR","3ECKRY5B1QIH1N6NFX1ECCW5ZDKIZQ","","null","<img src=""img/food5.png"" style=""width:200px; border:14px solid green;"">","null","","","","","","","","","",""
"","image-keyboard-response","192","86457","0.0-282.0","3TPWUS5F8ANOG9DC32QNRO0GDO6WCB","A1N8TKTLXV92QR","3ECKRY5B1QIH1N6NFX1ECCW5ZDKIZQ","","273.5999999642372","img/food2.png","74","274.19999998807907","1","0","","2","1","1,0.5,0,1,0.5,0,0.5,0,1","0.5,0,1,0.5,0,1,0,1,0.5","2",""
"","html-keyboard-response","193","86759","0.0-283.0","3TPWUS5F8ANOG9DC32QNRO0GDO6WCB","A1N8TKTLXV92QR","3ECKRY5B1QIH1N6NFX1ECCW5ZDKIZQ","","null","<img src=""img/food2.png"" style=""width:200px;border:14px solid red;"">","null","","","","","","","","","",""
"","image-keyboard-response","194","86962","0.0-284.0","3TPWUS5F8ANOG9DC32QNRO0GDO6WCB","A1N8TKTLXV92QR","3ECKRY5B1QIH1N6NFX1ECCW5ZDKIZQ","","202.80000001192093","img/food3.png","74","203.5","1","0","","3","1","1,0.5,0,1,0.5,0,0.5,0,1","0.5,0,1,0.5,0,1,0,1,0.5","2",""
"","html-keyboard-response","195","87264","0.0-285.0","3TPWUS5F8ANOG9DC32QNRO0GDO6WCB","A1N8TKTLXV92QR","3ECKRY5B1QIH1N6NFX1ECCW5ZDKIZQ","","null","<img src=""img/food3.png"" style=""width:200px;border:14px solid red;"">","null","","","","","","","","","",""
"","image-keyboard-response","196","88294","0.0-286.0","3TPWUS5F8ANOG9DC32QNRO0GDO6WCB","A1N8TKTLXV92QR","3ECKRY5B1QIH1N6NFX1ECCW5ZDKIZQ","","1029.6000000238419","img/food5.png","75","1030.300000011921","2","0","","1","1","1,0.5,0,1,0.5,0,0.5,0,1","0.5,0,1,0.5,0,1,0,1,0.5","2",""
"","html-keyboard-response","197","88601","0.0-287.0","3TPWUS5F8ANOG9DC32QNRO0GDO6WCB","A1N8TKTLXV92QR","3ECKRY5B1QIH1N6NFX1ECCW5ZDKIZQ","","null","<img src=""img/food5.png"" style=""width:200px;border:14px solid red;"">","null","","","","","","","","","",""
"","image-keyboard-response","198","89182","0.0-288.0","3TPWUS5F8ANOG9DC32QNRO0GDO6WCB","A1N8TKTLXV92QR","3ECKRY5B1QIH1N6NFX1ECCW5ZDKIZQ","","580.3999999761581","img/food5.png","75","581","2","0","","1","1","1,0.5,0,1,0.5,0,0.5,0,1","0.5,0,1,0.5,0,1,0,1,0.5","2",""
"","html-keyboard-response","199","89483","0.0-289.0","3TPWUS5F8ANOG9DC32QNRO0GDO6WCB","A1N8TKTLXV92QR","3ECKRY5B1QIH1N6NFX1ECCW5ZDKIZQ","","null","<img src=""img/food5.png"" style=""width:200px;border:14px solid red;"">","null","","","","","","","","","",""
"","image-keyboard-response","200","89667","0.0-290.0","3TPWUS5F8ANOG9DC32QNRO0GDO6WCB","A1N8TKTLXV92QR","3ECKRY5B1QIH1N6NFX1ECCW5ZDKIZQ","","182.5","img/food2.png","75","183.10000002384186","2","0","","2","1","1,0.5,0,1,0.5,0,0.5,0,1","0.5,0,1,0.5,0,1,0,1,0.5","2",""
"","html-keyboard-response","201","89968","0.0-291.0","3TPWUS5F8ANOG9DC32QNRO0GDO6WCB","A1N8TKTLXV92QR","3ECKRY5B1QIH1N6NFX1ECCW5ZDKIZQ","","null","<img src=""img/food2.png"" style=""width:200px;border:14px solid red;"">","null","","","","","","","","","",""
"","image-keyboard-response","202","90722","0.0-292.0","3TPWUS5F8ANOG9DC32QNRO0GDO6WCB","A1N8TKTLXV92QR","3ECKRY5B1QIH1N6NFX1ECCW5ZDKIZQ","","752.0999999642372","img/food5.png","76","753.1000000238419","3","1","","1","1","1,0.5,0,1,0.5,0,0.5,0,1","0.5,0,1,0.5,0,1,0,1,0.5","2",""
"","html-keyboard-response","203","91033","0.0-293.0","3TPWUS5F8ANOG9DC32QNRO0GDO6WCB","A1N8TKTLXV92QR","3ECKRY5B1QIH1N6NFX1ECCW5ZDKIZQ","","null","<img src=""img/food5.png"" style=""width:200px; border:14px solid green;"">","null","","","","","","","","","",""
"","image-keyboard-response","204","91559","0.0-294.0","3TPWUS5F8ANOG9DC32QNRO0GDO6WCB","A1N8TKTLXV92QR","3ECKRY5B1QIH1N6NFX1ECCW5ZDKIZQ","","525.3000000119209","img/food5.png","76","526","3","1","","1","1","1,0.5,0,1,0.5,0,0.5,0,1","0.5,0,1,0.5,0,1,0,1,0.5","2",""
"","html-keyboard-response","205","91865","0.0-295.0","3TPWUS5F8ANOG9DC32QNRO0GDO6WCB","A1N8TKTLXV92QR","3ECKRY5B1QIH1N6NFX1ECCW5ZDKIZQ","","null","<img src=""img/food5.png"" style=""width:200px; border:14px solid green;"">","null","","","","","","","","","",""
"","image-keyboard-response","206","92577","0.0-296.0","3TPWUS5F8ANOG9DC32QNRO0GDO6WCB","A1N8TKTLXV92QR","3ECKRY5B1QIH1N6NFX1ECCW5ZDKIZQ","","711.1999999880791","img/food3.png","76","711.8999999761581","3","0","","3","1","1,0.5,0,1,0.5,0,0.5,0,1","0.5,0,1,0.5,0,1,0,1,0.5","2",""
"","html-keyboard-response","207","92879","0.0-297.0","3TPWUS5F8ANOG9DC32QNRO0GDO6WCB","A1N8TKTLXV92QR","3ECKRY5B1QIH1N6NFX1ECCW5ZDKIZQ","","null","<img src=""img/food3.png"" style=""width:200px;border:14px solid red;"">","null","","","","","","","","","",""
"","image-keyboard-response","208","93604","0.0-298.0","3TPWUS5F8ANOG9DC32QNRO0GDO6WCB","A1N8TKTLXV92QR","3ECKRY5B1QIH1N6NFX1ECCW5ZDKIZQ","","724.3000000119209","img/food2.png","75","724.7999999523163","2","0","","2","1","1,0.5,0,1,0.5,0,0.5,0,1","0.5,0,1,0.5,0,1,0,1,0.5","2",""
"","html-keyboard-response","209","93907","0.0-299.0","3TPWUS5F8ANOG9DC32QNRO0GDO6WCB","A1N8TKTLXV92QR","3ECKRY5B1QIH1N6NFX1ECCW5ZDKIZQ","","null","<img src=""img/food2.png"" style=""width:200px;border:14px solid red;"">","null","","","","","","","","","",""
"","image-keyboard-response","210","94428","0.0-300.0","3TPWUS5F8ANOG9DC32QNRO0GDO6WCB","A1N8TKTLXV92QR","3ECKRY5B1QIH1N6NFX1ECCW5ZDKIZQ","","520.6000000238419","img/food5.png","75","521.3999999761581","2","0","","1","1","1,0.5,0,1,0.5,0,0.5,0,1","0.5,0,1,0.5,0,1,0,1,0.5","2",""
"","html-keyboard-response","211","94730","0.0-301.0","3TPWUS5F8ANOG9DC32QNRO0GDO6WCB","A1N8TKTLXV92QR","3ECKRY5B1QIH1N6NFX1ECCW5ZDKIZQ","","null","<img src=""img/food5.png"" style=""width:200px;border:14px solid red;"">","null","","","","","","","","","",""
"","image-keyboard-response","212","94806","0.0-302.0","3TPWUS5F8ANOG9DC32QNRO0GDO6WCB","A1N8TKTLXV92QR","3ECKRY5B1QIH1N6NFX1ECCW5ZDKIZQ","","75.39999997615814","img/food3.png","74","76.10000002384186","1","0","","3","1","1,0.5,0,1,0.5,0,0.5,0,1","0.5,0,1,0.5,0,1,0,1,0.5","2",""
"","html-keyboard-response","213","95109","0.0-303.0","3TPWUS5F8ANOG9DC32QNRO0GDO6WCB","A1N8TKTLXV92QR","3ECKRY5B1QIH1N6NFX1ECCW5ZDKIZQ","","null","<img src=""img/food3.png"" style=""width:200px;border:14px solid red;"">","null","","","","","","","","","",""
"","image-keyboard-response","214","95484","0.0-304.0","3TPWUS5F8ANOG9DC32QNRO0GDO6WCB","A1N8TKTLXV92QR","3ECKRY5B1QIH1N6NFX1ECCW5ZDKIZQ","","373.80000001192093","img/food2.png","74","374.69999998807907","1","1","","2","1","1,0.5,0,1,0.5,0,0.5,0,1","0.5,0,1,0.5,0,1,0,1,0.5","2",""
"","html-keyboard-response","215","95785","0.0-305.0","3TPWUS5F8ANOG9DC32QNRO0GDO6WCB","A1N8TKTLXV92QR","3ECKRY5B1QIH1N6NFX1ECCW5ZDKIZQ","","null","<img src=""img/food2.png"" style=""width:200px; border:14px solid green;"">","null","","","","","","","","","",""
"","image-keyboard-response","216","96124","0.0-306.0","3TPWUS5F8ANOG9DC32QNRO0GDO6WCB","A1N8TKTLXV92QR","3ECKRY5B1QIH1N6NFX1ECCW5ZDKIZQ","","337.89999997615814","img/food2.png","74","338.5","1","1","","2","1","1,0.5,0,1,0.5,0,0.5,0,1","0.5,0,1,0.5,0,1,0,1,0.5","2",""
"","html-keyboard-response","217","96425","0.0-307.0","3TPWUS5F8ANOG9DC32QNRO0GDO6WCB","A1N8TKTLXV92QR","3ECKRY5B1QIH1N6NFX1ECCW5ZDKIZQ","","null","<img src=""img/food2.png"" style=""width:200px; border:14px solid green;"">","null","","","","","","","","","",""
"","image-keyboard-response","218","97019","0.0-308.0","3TPWUS5F8ANOG9DC32QNRO0GDO6WCB","A1N8TKTLXV92QR","3ECKRY5B1QIH1N6NFX1ECCW5ZDKIZQ","","593.1999999880791","img/food2.png","74","594","1","0","","2","1","1,0.5,0,1,0.5,0,0.5,0,1","0.5,0,1,0.5,0,1,0,1,0.5","2",""
"","html-keyboard-response","219","97332","0.0-309.0","3TPWUS5F8ANOG9DC32QNRO0GDO6WCB","A1N8TKTLXV92QR","3ECKRY5B1QIH1N6NFX1ECCW5ZDKIZQ","","null","<img src=""img/food2.png"" style=""width:200px;border:14px solid red;"">","null","","","","","","","","","",""
"","image-keyboard-response","220","97904","0.0-310.0","3TPWUS5F8ANOG9DC32QNRO0GDO6WCB","A1N8TKTLXV92QR","3ECKRY5B1QIH1N6NFX1ECCW5ZDKIZQ","","571.6999999880791","img/food5.png","75","572.5","2","0","","1","1","1,0.5,0,1,0.5,0,0.5,0,1","0.5,0,1,0.5,0,1,0,1,0.5","2",""
"","html-keyboard-response","221","98206","0.0-311.0","3TPWUS5F8ANOG9DC32QNRO0GDO6WCB","A1N8TKTLXV92QR","3ECKRY5B1QIH1N6NFX1ECCW5ZDKIZQ","","null","<img src=""img/food5.png"" style=""width:200px;border:14px solid red;"">","null","","","","","","","","","",""
"","image-keyboard-response","222","98433","0.0-312.0","3TPWUS5F8ANOG9DC32QNRO0GDO6WCB","A1N8TKTLXV92QR","3ECKRY5B1QIH1N6NFX1ECCW5ZDKIZQ","","226.19999998807907","img/food2.png","76","226.89999997615814","3","1","","2","1","1,0.5,0,1,0.5,0,0.5,0,1","0.5,0,1,0.5,0,1,0,1,0.5","2",""
"","html-keyboard-response","223","98734","0.0-313.0","3TPWUS5F8ANOG9DC32QNRO0GDO6WCB","A1N8TKTLXV92QR","3ECKRY5B1QIH1N6NFX1ECCW5ZDKIZQ","","null","<img src=""img/food2.png"" style=""width:200px; border:14px solid green;"">","null","","","","","","","","","",""
"","image-keyboard-response","224","99208","0.0-314.0","3TPWUS5F8ANOG9DC32QNRO0GDO6WCB","A1N8TKTLXV92QR","3ECKRY5B1QIH1N6NFX1ECCW5ZDKIZQ","","473","img/food2.png","76","473.60000002384186","3","1","","2","1","1,0.5,0,1,0.5,0,0.5,0,1","0.5,0,1,0.5,0,1,0,1,0.5","2",""
"","html-keyboard-response","225","99510","0.0-315.0","3TPWUS5F8ANOG9DC32QNRO0GDO6WCB","A1N8TKTLXV92QR","3ECKRY5B1QIH1N6NFX1ECCW5ZDKIZQ","","null","<img src=""img/food2.png"" style=""width:200px; border:14px solid green;"">","null","","","","","","","","","",""
"","image-keyboard-response","226","99862","0.0-316.0","3TPWUS5F8ANOG9DC32QNRO0GDO6WCB","A1N8TKTLXV92QR","3ECKRY5B1QIH1N6NFX1ECCW5ZDKIZQ","","351.5","img/food2.png","76","352.10000002384186","3","1","","2","1","1,0.5,0,1,0.5,0,0.5,0,1","0.5,0,1,0.5,0,1,0,1,0.5","2",""
"","html-keyboard-response","227","100165","0.0-317.0","3TPWUS5F8ANOG9DC32QNRO0GDO6WCB","A1N8TKTLXV92QR","3ECKRY5B1QIH1N6NFX1ECCW5ZDKIZQ","","null","<img src=""img/food2.png"" style=""width:200px; border:14px solid green;"">","null","","","","","","","","","",""
"","image-keyboard-response","228","100549","0.0-318.0","3TPWUS5F8ANOG9DC32QNRO0GDO6WCB","A1N8TKTLXV92QR","3ECKRY5B1QIH1N6NFX1ECCW5ZDKIZQ","","384.19999998807907","img/food2.png","76","384.69999998807907","3","1","","2","1","1,0.5,0,1,0.5,0,0.5,0,1","0.5,0,1,0.5,0,1,0,1,0.5","2",""
"","html-keyboard-response","229","100851","0.0-319.0","3TPWUS5F8ANOG9DC32QNRO0GDO6WCB","A1N8TKTLXV92QR","3ECKRY5B1QIH1N6NFX1ECCW5ZDKIZQ","","null","<img src=""img/food2.png"" style=""width:200px; border:14px solid green;"">","null","","","","","","","","","",""
"","image-keyboard-response","230","101173","0.0-320.0","3TPWUS5F8ANOG9DC32QNRO0GDO6WCB","A1N8TKTLXV92QR","3ECKRY5B1QIH1N6NFX1ECCW5ZDKIZQ","","320.80000001192093","img/food2.png","76","321.5","3","1","","2","1","1,0.5,0,1,0.5,0,0.5,0,1","0.5,0,1,0.5,0,1,0,1,0.5","2",""
"","html-keyboard-response","231","101475","0.0-321.0","3TPWUS5F8ANOG9DC32QNRO0GDO6WCB","A1N8TKTLXV92QR","3ECKRY5B1QIH1N6NFX1ECCW5ZDKIZQ","","null","<img src=""img/food2.png"" style=""width:200px; border:14px solid green;"">","null","","","","","","","","","",""
"","image-keyboard-response","232","102711","0.0-322.0","3TPWUS5F8ANOG9DC32QNRO0GDO6WCB","A1N8TKTLXV92QR","3ECKRY5B1QIH1N6NFX1ECCW5ZDKIZQ","","1235.800000011921","img/food5.png","76","1236.5","3","1","","1","1","1,0.5,0,1,0.5,0,0.5,0,1","0.5,0,1,0.5,0,1,0,1,0.5","2",""
"","html-keyboard-response","233","103014","0.0-323.0","3TPWUS5F8ANOG9DC32QNRO0GDO6WCB","A1N8TKTLXV92QR","3ECKRY5B1QIH1N6NFX1ECCW5ZDKIZQ","","null","<img src=""img/food5.png"" style=""width:200px; border:14px solid green;"">","null","","","","","","","","","",""
"","image-keyboard-response","234","103830","0.0-324.0","3TPWUS5F8ANOG9DC32QNRO0GDO6WCB","A1N8TKTLXV92QR","3ECKRY5B1QIH1N6NFX1ECCW5ZDKIZQ","","815.3000000119209","img/food2.png","75","815.8999999761581","2","0","","2","1","1,0.5,0,1,0.5,0,0.5,0,1","0.5,0,1,0.5,0,1,0,1,0.5","2",""
"","html-keyboard-response","235","104132","0.0-325.0","3TPWUS5F8ANOG9DC32QNRO0GDO6WCB","A1N8TKTLXV92QR","3ECKRY5B1QIH1N6NFX1ECCW5ZDKIZQ","","null","<img src=""img/food2.png"" style=""width:200px;border:14px solid red;"">","null","","","","","","","","","",""
"","image-keyboard-response","236","105224","0.0-326.0","3TPWUS5F8ANOG9DC32QNRO0GDO6WCB","A1N8TKTLXV92QR","3ECKRY5B1QIH1N6NFX1ECCW5ZDKIZQ","","1091.1000000238419","img/food3.png","74","1091.800000011921","1","0","","3","1","1,0.5,0,1,0.5,0,0.5,0,1","0.5,0,1,0.5,0,1,0,1,0.5","2",""
"","html-keyboard-response","237","105525","0.0-327.0","3TPWUS5F8ANOG9DC32QNRO0GDO6WCB","A1N8TKTLXV92QR","3ECKRY5B1QIH1N6NFX1ECCW5ZDKIZQ","","null","<img src=""img/food3.png"" style=""width:200px;border:14px solid red;"">","null","","","","","","","","","",""
"","image-keyboard-response","238","106431","0.0-328.0","3TPWUS5F8ANOG9DC32QNRO0GDO6WCB","A1N8TKTLXV92QR","3ECKRY5B1QIH1N6NFX1ECCW5ZDKIZQ","","904.5","img/food5.png","76","905","3","1","","1","1","1,0.5,0,1,0.5,0,0.5,0,1","0.5,0,1,0.5,0,1,0,1,0.5","2",""
"","html-keyboard-response","239","106734","0.0-329.0","3TPWUS5F8ANOG9DC32QNRO0GDO6WCB","A1N8TKTLXV92QR","3ECKRY5B1QIH1N6NFX1ECCW5ZDKIZQ","","null","<img src=""img/food5.png"" style=""width:200px; border:14px solid green;"">","null","","","","","","","","","",""
"","image-keyboard-response","240","107120","0.0-330.0","3TPWUS5F8ANOG9DC32QNRO0GDO6WCB","A1N8TKTLXV92QR","3ECKRY5B1QIH1N6NFX1ECCW5ZDKIZQ","","385.9000000357628","img/food5.png","76","386.5","3","1","","1","1","1,0.5,0,1,0.5,0,0.5,0,1","0.5,0,1,0.5,0,1,0,1,0.5","2",""
"","html-keyboard-response","241","107424","0.0-331.0","3TPWUS5F8ANOG9DC32QNRO0GDO6WCB","A1N8TKTLXV92QR","3ECKRY5B1QIH1N6NFX1ECCW5ZDKIZQ","","null","<img src=""img/food5.png"" style=""width:200px; border:14px solid green;"">","null","","","","","","","","","",""
"","image-keyboard-response","242","107716","0.0-332.0","3TPWUS5F8ANOG9DC32QNRO0GDO6WCB","A1N8TKTLXV92QR","3ECKRY5B1QIH1N6NFX1ECCW5ZDKIZQ","","291.30000001192093","img/food2.png","76","291.80000001192093","3","1","","2","1","1,0.5,0,1,0.5,0,0.5,0,1","0.5,0,1,0.5,0,1,0,1,0.5","2",""
"","html-keyboard-response","243","108018","0.0-333.0","3TPWUS5F8ANOG9DC32QNRO0GDO6WCB","A1N8TKTLXV92QR","3ECKRY5B1QIH1N6NFX1ECCW5ZDKIZQ","","null","<img src=""img/food2.png"" style=""width:200px; border:14px solid green;"">","null","","","","","","","","","",""
"","image-keyboard-response","244","108358","0.0-334.0","3TPWUS5F8ANOG9DC32QNRO0GDO6WCB","A1N8TKTLXV92QR","3ECKRY5B1QIH1N6NFX1ECCW5ZDKIZQ","","340.19999998807907","img/food3.png","76","340.80000001192093","3","1","","3","1","1,0.5,0,1,0.5,0,0.5,0,1","0.5,0,1,0.5,0,1,0,1,0.5","2",""
"","html-keyboard-response","245","108661","0.0-335.0","3TPWUS5F8ANOG9DC32QNRO0GDO6WCB","A1N8TKTLXV92QR","3ECKRY5B1QIH1N6NFX1ECCW5ZDKIZQ","","null","<img src=""img/food3.png"" style=""width:200px; border:14px solid green;"">","null","","","","","","","","","",""
"","image-keyboard-response","246","109066","0.0-336.0","3TPWUS5F8ANOG9DC32QNRO0GDO6WCB","A1N8TKTLXV92QR","3ECKRY5B1QIH1N6NFX1ECCW5ZDKIZQ","","404.30000001192093","img/food2.png","76","405","3","1","","2","1","1,0.5,0,1,0.5,0,0.5,0,1","0.5,0,1,0.5,0,1,0,1,0.5","2",""
"","html-keyboard-response","247","109368","0.0-337.0","3TPWUS5F8ANOG9DC32QNRO0GDO6WCB","A1N8TKTLXV92QR","3ECKRY5B1QIH1N6NFX1ECCW5ZDKIZQ","","null","<img src=""img/food2.png"" style=""width:200px; border:14px solid green;"">","null","","","","","","","","","",""
"","image-keyboard-response","248","109771","0.0-338.0","3TPWUS5F8ANOG9DC32QNRO0GDO6WCB","A1N8TKTLXV92QR","3ECKRY5B1QIH1N6NFX1ECCW5ZDKIZQ","","402.10000002384186","img/food2.png","76","402.69999998807907","3","1","","2","1","1,0.5,0,1,0.5,0,0.5,0,1","0.5,0,1,0.5,0,1,0,1,0.5","2",""
"","html-keyboard-response","249","110073","0.0-339.0","3TPWUS5F8ANOG9DC32QNRO0GDO6WCB","A1N8TKTLXV92QR","3ECKRY5B1QIH1N6NFX1ECCW5ZDKIZQ","","null","<img src=""img/food2.png"" style=""width:200px; border:14px solid green;"">","null","","","","","","","","","",""
"","image-keyboard-response","250","110422","0.0-340.0","3TPWUS5F8ANOG9DC32QNRO0GDO6WCB","A1N8TKTLXV92QR","3ECKRY5B1QIH1N6NFX1ECCW5ZDKIZQ","","349","img/food5.png","76","349.5999999642372","3","1","","1","1","1,0.5,0,1,0.5,0,0.5,0,1","0.5,0,1,0.5,0,1,0,1,0.5","2",""
"","html-keyboard-response","251","110724","0.0-341.0","3TPWUS5F8ANOG9DC32QNRO0GDO6WCB","A1N8TKTLXV92QR","3ECKRY5B1QIH1N6NFX1ECCW5ZDKIZQ","","null","<img src=""img/food5.png"" style=""width:200px; border:14px solid green;"">","null","","","","","","","","","",""
"","image-keyboard-response","252","111102","0.0-342.0","3TPWUS5F8ANOG9DC32QNRO0GDO6WCB","A1N8TKTLXV92QR","3ECKRY5B1QIH1N6NFX1ECCW5ZDKIZQ","","378","img/food5.png","76","378.60000002384186","3","1","","1","1","1,0.5,0,1,0.5,0,0.5,0,1","0.5,0,1,0.5,0,1,0,1,0.5","2",""
"","html-keyboard-response","253","111404","0.0-343.0","3TPWUS5F8ANOG9DC32QNRO0GDO6WCB","A1N8TKTLXV92QR","3ECKRY5B1QIH1N6NFX1ECCW5ZDKIZQ","","null","<img src=""img/food5.png"" style=""width:200px; border:14px solid green;"">","null","","","","","","","","","",""
"","image-keyboard-response","254","111890","0.0-344.0","3TPWUS5F8ANOG9DC32QNRO0GDO6WCB","A1N8TKTLXV92QR","3ECKRY5B1QIH1N6NFX1ECCW5ZDKIZQ","","485.19999998807907","img/food5.png","76","486","3","1","","1","1","1,0.5,0,1,0.5,0,0.5,0,1","0.5,0,1,0.5,0,1,0,1,0.5","2",""
"","html-keyboard-response","255","112192","0.0-345.0","3TPWUS5F8ANOG9DC32QNRO0GDO6WCB","A1N8TKTLXV92QR","3ECKRY5B1QIH1N6NFX1ECCW5ZDKIZQ","","null","<img src=""img/food5.png"" style=""width:200px; border:14px solid green;"">","null","","","","","","","","","",""
"","image-keyboard-response","256","112568","0.0-346.0","3TPWUS5F8ANOG9DC32QNRO0GDO6WCB","A1N8TKTLXV92QR","3ECKRY5B1QIH1N6NFX1ECCW5ZDKIZQ","","374.5","img/food5.png","76","375.19999998807907","3","1","","1","1","1,0.5,0,1,0.5,0,0.5,0,1","0.5,0,1,0.5,0,1,0,1,0.5","2",""
"","html-keyboard-response","257","112870","0.0-347.0","3TPWUS5F8ANOG9DC32QNRO0GDO6WCB","A1N8TKTLXV92QR","3ECKRY5B1QIH1N6NFX1ECCW5ZDKIZQ","","null","<img src=""img/food5.png"" style=""width:200px; border:14px solid green;"">","null","","","","","","","","","",""
"","image-keyboard-response","258","113189","0.0-348.0","3TPWUS5F8ANOG9DC32QNRO0GDO6WCB","A1N8TKTLXV92QR","3ECKRY5B1QIH1N6NFX1ECCW5ZDKIZQ","","318.5999999642372","img/food2.png","76","319.19999998807907","3","1","","2","1","1,0.5,0,1,0.5,0,0.5,0,1","0.5,0,1,0.5,0,1,0,1,0.5","2",""
"","html-keyboard-response","259","113491","0.0-349.0","3TPWUS5F8ANOG9DC32QNRO0GDO6WCB","A1N8TKTLXV92QR","3ECKRY5B1QIH1N6NFX1ECCW5ZDKIZQ","","null","<img src=""img/food2.png"" style=""width:200px; border:14px solid green;"">","null","","","","","","","","","",""
"","image-keyboard-response","260","113922","0.0-350.0","3TPWUS5F8ANOG9DC32QNRO0GDO6WCB","A1N8TKTLXV92QR","3ECKRY5B1QIH1N6NFX1ECCW5ZDKIZQ","","430.30000001192093","img/food3.png","76","430.7999999523163","3","0","","3","1","1,0.5,0,1,0.5,0,0.5,0,1","0.5,0,1,0.5,0,1,0,1,0.5","2",""
"","html-keyboard-response","261","114224","0.0-351.0","3TPWUS5F8ANOG9DC32QNRO0GDO6WCB","A1N8TKTLXV92QR","3ECKRY5B1QIH1N6NFX1ECCW5ZDKIZQ","","null","<img src=""img/food3.png"" style=""width:200px;border:14px solid red;"">","null","","","","","","","","","",""
"","image-keyboard-response","262","114512","0.0-352.0","3TPWUS5F8ANOG9DC32QNRO0GDO6WCB","A1N8TKTLXV92QR","3ECKRY5B1QIH1N6NFX1ECCW5ZDKIZQ","","287.39999997615814","img/food5.png","76","288","3","1","","1","1","1,0.5,0,1,0.5,0,0.5,0,1","0.5,0,1,0.5,0,1,0,1,0.5","2",""
"","html-keyboard-response","263","114814","0.0-353.0","3TPWUS5F8ANOG9DC32QNRO0GDO6WCB","A1N8TKTLXV92QR","3ECKRY5B1QIH1N6NFX1ECCW5ZDKIZQ","","null","<img src=""img/food5.png"" style=""width:200px; border:14px solid green;"">","null","","","","","","","","","",""
"","image-keyboard-response","264","115069","0.0-354.0","3TPWUS5F8ANOG9DC32QNRO0GDO6WCB","A1N8TKTLXV92QR","3ECKRY5B1QIH1N6NFX1ECCW5ZDKIZQ","","254","img/food3.png","76","254.5999999642372","3","1","","3","1","1,0.5,0,1,0.5,0,0.5,0,1","0.5,0,1,0.5,0,1,0,1,0.5","2",""
"","html-keyboard-response","265","115371","0.0-355.0","3TPWUS5F8ANOG9DC32QNRO0GDO6WCB","A1N8TKTLXV92QR","3ECKRY5B1QIH1N6NFX1ECCW5ZDKIZQ","","null","<img src=""img/food3.png"" style=""width:200px; border:14px solid green;"">","null","","","","","","","","","",""
"","image-keyboard-response","266","115618","0.0-356.0","3TPWUS5F8ANOG9DC32QNRO0GDO6WCB","A1N8TKTLXV92QR","3ECKRY5B1QIH1N6NFX1ECCW5ZDKIZQ","","246","img/food5.png","76","246.5999999642372","3","1","","1","1","1,0.5,0,1,0.5,0,0.5,0,1","0.5,0,1,0.5,0,1,0,1,0.5","2",""
"","html-keyboard-response","267","115919","0.0-357.0","3TPWUS5F8ANOG9DC32QNRO0GDO6WCB","A1N8TKTLXV92QR","3ECKRY5B1QIH1N6NFX1ECCW5ZDKIZQ","","null","<img src=""img/food5.png"" style=""width:200px; border:14px solid green;"">","null","","","","","","","","","",""
"","image-keyboard-response","268","116129","0.0-358.0","3TPWUS5F8ANOG9DC32QNRO0GDO6WCB","A1N8TKTLXV92QR","3ECKRY5B1QIH1N6NFX1ECCW5ZDKIZQ","","209.39999997615814","img/food5.png","76","209.80000001192093","3","1","","1","1","1,0.5,0,1,0.5,0,0.5,0,1","0.5,0,1,0.5,0,1,0,1,0.5","2",""
"","html-keyboard-response","269","116444","0.0-359.0","3TPWUS5F8ANOG9DC32QNRO0GDO6WCB","A1N8TKTLXV92QR","3ECKRY5B1QIH1N6NFX1ECCW5ZDKIZQ","","null","<img src=""img/food5.png"" style=""width:200px; border:14px solid green;"">","null","","","","","","","","","",""
"","image-keyboard-response","270","116523","0.0-360.0","3TPWUS5F8ANOG9DC32QNRO0GDO6WCB","A1N8TKTLXV92QR","3ECKRY5B1QIH1N6NFX1ECCW5ZDKIZQ","","78.5","img/food2.png","76","79.09999996423721","3","1","","2","1","1,0.5,0,1,0.5,0,0.5,0,1","0.5,0,1,0.5,0,1,0,1,0.5","2",""
"","html-keyboard-response","271","116825","0.0-361.0","3TPWUS5F8ANOG9DC32QNRO0GDO6WCB","A1N8TKTLXV92QR","3ECKRY5B1QIH1N6NFX1ECCW5ZDKIZQ","","null","<img src=""img/food2.png"" style=""width:200px; border:14px solid green;"">","null","","","","","","","","","",""
"","image-keyboard-response","272","116855","0.0-362.0","3TPWUS5F8ANOG9DC32QNRO0GDO6WCB","A1N8TKTLXV92QR","3ECKRY5B1QIH1N6NFX1ECCW5ZDKIZQ","","29.5","img/food3.png","76","30.100000023841858","3","1","","3","1","1,0.5,0,1,0.5,0,0.5,0,1","0.5,0,1,0.5,0,1,0,1,0.5","2",""
"","html-keyboard-response","273","117157","0.0-363.0","3TPWUS5F8ANOG9DC32QNRO0GDO6WCB","A1N8TKTLXV92QR","3ECKRY5B1QIH1N6NFX1ECCW5ZDKIZQ","","null","<img src=""img/food3.png"" style=""width:200px; border:14px solid green;"">","null","","","","","","","","","",""
"","image-keyboard-response","274","117420","0.0-364.0","3TPWUS5F8ANOG9DC32QNRO0GDO6WCB","A1N8TKTLXV92QR","3ECKRY5B1QIH1N6NFX1ECCW5ZDKIZQ","","262.69999998807907","img/food5.png","76","263.39999997615814","3","1","","1","1","1,0.5,0,1,0.5,0,0.5,0,1","0.5,0,1,0.5,0,1,0,1,0.5","2",""
"","html-keyboard-response","275","117722","0.0-365.0","3TPWUS5F8ANOG9DC32QNRO0GDO6WCB","A1N8TKTLXV92QR","3ECKRY5B1QIH1N6NFX1ECCW5ZDKIZQ","","null","<img src=""img/food5.png"" style=""width:200px; border:14px solid green;"">","null","","","","","","","","","",""
"","image-keyboard-response","276","117930","0.0-366.0","3TPWUS5F8ANOG9DC32QNRO0GDO6WCB","A1N8TKTLXV92QR","3ECKRY5B1QIH1N6NFX1ECCW5ZDKIZQ","","207","img/food3.png","76","207.69999998807907","3","0","","3","1","1,0.5,0,1,0.5,0,0.5,0,1","0.5,0,1,0.5,0,1,0,1,0.5","2",""
"","html-keyboard-response","277","118231","0.0-367.0","3TPWUS5F8ANOG9DC32QNRO0GDO6WCB","A1N8TKTLXV92QR","3ECKRY5B1QIH1N6NFX1ECCW5ZDKIZQ","","null","<img src=""img/food3.png"" style=""width:200px;border:14px solid red;"">","null","","","","","","","","","",""
"","image-keyboard-response","278","118675","0.0-368.0","3TPWUS5F8ANOG9DC32QNRO0GDO6WCB","A1N8TKTLXV92QR","3ECKRY5B1QIH1N6NFX1ECCW5ZDKIZQ","","442.69999998807907","img/food5.png","74","443.39999997615814","1","0","","1","1","1,0.5,0,1,0.5,0,0.5,0,1","0.5,0,1,0.5,0,1,0,1,0.5","2",""
"","html-keyboard-response","279","118977","0.0-369.0","3TPWUS5F8ANOG9DC32QNRO0GDO6WCB","A1N8TKTLXV92QR","3ECKRY5B1QIH1N6NFX1ECCW5ZDKIZQ","","null","<img src=""img/food5.png"" style=""width:200px;border:14px solid red;"">","null","","","","","","","","","",""
"","image-keyboard-response","280","119230","0.0-370.0","3TPWUS5F8ANOG9DC32QNRO0GDO6WCB","A1N8TKTLXV92QR","3ECKRY5B1QIH1N6NFX1ECCW5ZDKIZQ","","251.30000001192093","img/food5.png","75","252","2","0","","1","1","1,0.5,0,1,0.5,0,0.5,0,1","0.5,0,1,0.5,0,1,0,1,0.5","2",""
"","html-keyboard-response","281","119531","0.0-371.0","3TPWUS5F8ANOG9DC32QNRO0GDO6WCB","A1N8TKTLXV92QR","3ECKRY5B1QIH1N6NFX1ECCW5ZDKIZQ","","null","<img src=""img/food5.png"" style=""width:200px;border:14px solid red;"">","null","","","","","","","","","",""
"","image-keyboard-response","282","119660","0.0-372.0","3TPWUS5F8ANOG9DC32QNRO0GDO6WCB","A1N8TKTLXV92QR","3ECKRY5B1QIH1N6NFX1ECCW5ZDKIZQ","","128","img/food5.png","76","128.80000001192093","3","1","","1","1","1,0.5,0,1,0.5,0,0.5,0,1","0.5,0,1,0.5,0,1,0,1,0.5","2",""
"","html-keyboard-response","283","119962","0.0-373.0","3TPWUS5F8ANOG9DC32QNRO0GDO6WCB","A1N8TKTLXV92QR","3ECKRY5B1QIH1N6NFX1ECCW5ZDKIZQ","","null","<img src=""img/food5.png"" style=""width:200px; border:14px solid green;"">","null","","","","","","","","","",""
"","image-keyboard-response","284","120292","0.0-374.0","3TPWUS5F8ANOG9DC32QNRO0GDO6WCB","A1N8TKTLXV92QR","3ECKRY5B1QIH1N6NFX1ECCW5ZDKIZQ","","328.89999997615814","img/food3.png","76","329.69999998807907","3","1","","3","1","1,0.5,0,1,0.5,0,0.5,0,1","0.5,0,1,0.5,0,1,0,1,0.5","2",""
"","html-keyboard-response","285","120594","0.0-375.0","3TPWUS5F8ANOG9DC32QNRO0GDO6WCB","A1N8TKTLXV92QR","3ECKRY5B1QIH1N6NFX1ECCW5ZDKIZQ","","null","<img src=""img/food3.png"" style=""width:200px; border:14px solid green;"">","null","","","","","","","","","",""
"","image-keyboard-response","286","121557","0.0-376.0","3TPWUS5F8ANOG9DC32QNRO0GDO6WCB","A1N8TKTLXV92QR","3ECKRY5B1QIH1N6NFX1ECCW5ZDKIZQ","","961.3000000119209","img/food5.png","76","962.1999999880791","3","1","","1","1","1,0.5,0,1,0.5,0,0.5,0,1","0.5,0,1,0.5,0,1,0,1,0.5","2",""
"","html-keyboard-response","287","121863","0.0-377.0","3TPWUS5F8ANOG9DC32QNRO0GDO6WCB","A1N8TKTLXV92QR","3ECKRY5B1QIH1N6NFX1ECCW5ZDKIZQ","","null","<img src=""img/food5.png"" style=""width:200px; border:14px solid green;"">","null","","","","","","","","","",""
"","image-keyboard-response","288","122049","0.0-378.0","3TPWUS5F8ANOG9DC32QNRO0GDO6WCB","A1N8TKTLXV92QR","3ECKRY5B1QIH1N6NFX1ECCW5ZDKIZQ","","185.5","img/food3.png","76","186.30000001192093","3","0","","3","1","1,0.5,0,1,0.5,0,0.5,0,1","0.5,0,1,0.5,0,1,0,1,0.5","2",""
"","html-keyboard-response","289","122351","0.0-379.0","3TPWUS5F8ANOG9DC32QNRO0GDO6WCB","A1N8TKTLXV92QR","3ECKRY5B1QIH1N6NFX1ECCW5ZDKIZQ","","null","<img src=""img/food3.png"" style=""width:200px;border:14px solid red;"">","null","","","","","","","","","",""
"","image-keyboard-response","290","122871","0.0-380.0","3TPWUS5F8ANOG9DC32QNRO0GDO6WCB","A1N8TKTLXV92QR","3ECKRY5B1QIH1N6NFX1ECCW5ZDKIZQ","","518.8000000119209","img/food2.png","76","519.8000000119209","3","1","","2","1","1,0.5,0,1,0.5,0,0.5,0,1","0.5,0,1,0.5,0,1,0,1,0.5","2",""
"","html-keyboard-response","291","123173","0.0-381.0","3TPWUS5F8ANOG9DC32QNRO0GDO6WCB","A1N8TKTLXV92QR","3ECKRY5B1QIH1N6NFX1ECCW5ZDKIZQ","","null","<img src=""img/food2.png"" style=""width:200px; border:14px solid green;"">","null","","","","","","","","","",""
"","image-keyboard-response","292","123432","0.0-382.0","3TPWUS5F8ANOG9DC32QNRO0GDO6WCB","A1N8TKTLXV92QR","3ECKRY5B1QIH1N6NFX1ECCW5ZDKIZQ","","257.60000002384186","img/food2.png","76","258.39999997615814","3","1","","2","1","1,0.5,0,1,0.5,0,0.5,0,1","0.5,0,1,0.5,0,1,0,1,0.5","2",""
"","html-keyboard-response","293","123733","0.0-383.0","3TPWUS5F8ANOG9DC32QNRO0GDO6WCB","A1N8TKTLXV92QR","3ECKRY5B1QIH1N6NFX1ECCW5ZDKIZQ","","null","<img src=""img/food2.png"" style=""width:200px; border:14px solid green;"">","null","","","","","","","","","",""
"","image-keyboard-response","294","124013","0.0-384.0","3TPWUS5F8ANOG9DC32QNRO0GDO6WCB","A1N8TKTLXV92QR","3ECKRY5B1QIH1N6NFX1ECCW5ZDKIZQ","","279","img/food2.png","76","279.7000000476837","3","1","","2","1","1,0.5,0,1,0.5,0,0.5,0,1","0.5,0,1,0.5,0,1,0,1,0.5","2",""
"","html-keyboard-response","295","124316","0.0-385.0","3TPWUS5F8ANOG9DC32QNRO0GDO6WCB","A1N8TKTLXV92QR","3ECKRY5B1QIH1N6NFX1ECCW5ZDKIZQ","","null","<img src=""img/food2.png"" style=""width:200px; border:14px solid green;"">","null","","","","","","","","","",""
"","image-keyboard-response","296","124644","0.0-386.0","3TPWUS5F8ANOG9DC32QNRO0GDO6WCB","A1N8TKTLXV92QR","3ECKRY5B1QIH1N6NFX1ECCW5ZDKIZQ","","327.10000002384186","img/food3.png","76","327.80000001192093","3","0","","3","1","1,0.5,0,1,0.5,0,0.5,0,1","0.5,0,1,0.5,0,1,0,1,0.5","2",""
"","html-keyboard-response","297","124946","0.0-387.0","3TPWUS5F8ANOG9DC32QNRO0GDO6WCB","A1N8TKTLXV92QR","3ECKRY5B1QIH1N6NFX1ECCW5ZDKIZQ","","null","<img src=""img/food3.png"" style=""width:200px;border:14px solid red;"">","null","","","","","","","","","",""
"","image-keyboard-response","298","125582","0.0-388.0","3TPWUS5F8ANOG9DC32QNRO0GDO6WCB","A1N8TKTLXV92QR","3ECKRY5B1QIH1N6NFX1ECCW5ZDKIZQ","","635.5","img/food3.png","76","636.1000000238419","3","0","","3","1","1,0.5,0,1,0.5,0,0.5,0,1","0.5,0,1,0.5,0,1,0,1,0.5","2",""
"","html-keyboard-response","299","125897","0.0-389.0","3TPWUS5F8ANOG9DC32QNRO0GDO6WCB","A1N8TKTLXV92QR","3ECKRY5B1QIH1N6NFX1ECCW5ZDKIZQ","","null","<img src=""img/food3.png"" style=""width:200px;border:14px solid red;"">","null","","","","","","","","","",""
"","image-keyboard-response","300","126546","0.0-390.0","3TPWUS5F8ANOG9DC32QNRO0GDO6WCB","A1N8TKTLXV92QR","3ECKRY5B1QIH1N6NFX1ECCW5ZDKIZQ","","648","img/food3.png","75","648.9000000357628","2","1","","3","1","1,0.5,0,1,0.5,0,0.5,0,1","0.5,0,1,0.5,0,1,0,1,0.5","2",""
"","html-keyboard-response","301","126848","0.0-391.0","3TPWUS5F8ANOG9DC32QNRO0GDO6WCB","A1N8TKTLXV92QR","3ECKRY5B1QIH1N6NFX1ECCW5ZDKIZQ","","null","<img src=""img/food3.png"" style=""width:200px; border:14px solid green;"">","null","","","","","","","","","",""
"","image-keyboard-response","302","127485","0.0-392.0","3TPWUS5F8ANOG9DC32QNRO0GDO6WCB","A1N8TKTLXV92QR","3ECKRY5B1QIH1N6NFX1ECCW5ZDKIZQ","","636","img/food2.png","76","636.6999999880791","3","1","","2","1","1,0.5,0,1,0.5,0,0.5,0,1","0.5,0,1,0.5,0,1,0,1,0.5","2",""
"","html-keyboard-response","303","127786","0.0-393.0","3TPWUS5F8ANOG9DC32QNRO0GDO6WCB","A1N8TKTLXV92QR","3ECKRY5B1QIH1N6NFX1ECCW5ZDKIZQ","","null","<img src=""img/food2.png"" style=""width:200px; border:14px solid green;"">","null","","","","","","","","","",""
"","image-keyboard-response","304","128337","0.0-394.0","3TPWUS5F8ANOG9DC32QNRO0GDO6WCB","A1N8TKTLXV92QR","3ECKRY5B1QIH1N6NFX1ECCW5ZDKIZQ","","550","img/food3.png","75","550.5","2","1","","3","1","1,0.5,0,1,0.5,0,0.5,0,1","0.5,0,1,0.5,0,1,0,1,0.5","2",""
"","html-keyboard-response","305","128639","0.0-395.0","3TPWUS5F8ANOG9DC32QNRO0GDO6WCB","A1N8TKTLXV92QR","3ECKRY5B1QIH1N6NFX1ECCW5ZDKIZQ","","null","<img src=""img/food3.png"" style=""width:200px; border:14px solid green;"">","null","","","","","","","","","",""
"","image-keyboard-response","306","129220","0.0-396.0","3TPWUS5F8ANOG9DC32QNRO0GDO6WCB","A1N8TKTLXV92QR","3ECKRY5B1QIH1N6NFX1ECCW5ZDKIZQ","","579.4000000357628","img/food3.png","76","580.1000000238419","3","1","","3","1","1,0.5,0,1,0.5,0,0.5,0,1","0.5,0,1,0.5,0,1,0,1,0.5","2",""
"","html-keyboard-response","307","129522","0.0-397.0","3TPWUS5F8ANOG9DC32QNRO0GDO6WCB","A1N8TKTLXV92QR","3ECKRY5B1QIH1N6NFX1ECCW5ZDKIZQ","","null","<img src=""img/food3.png"" style=""width:200px; border:14px solid green;"">","null","","","","","","","","","",""
"","image-keyboard-response","308","130764","0.0-398.0","3TPWUS5F8ANOG9DC32QNRO0GDO6WCB","A1N8TKTLXV92QR","3ECKRY5B1QIH1N6NFX1ECCW5ZDKIZQ","","1240.699999988079","img/food2.png","75","1241.3999999761581","2","0","","2","1","1,0.5,0,1,0.5,0,0.5,0,1","0.5,0,1,0.5,0,1,0,1,0.5","2",""
"","html-keyboard-response","309","131066","0.0-399.0","3TPWUS5F8ANOG9DC32QNRO0GDO6WCB","A1N8TKTLXV92QR","3ECKRY5B1QIH1N6NFX1ECCW5ZDKIZQ","","null","<img src=""img/food2.png"" style=""width:200px;border:14px solid red;"">","null","","","","","","","","","",""
"","image-keyboard-response","310","131632","0.0-400.0","3TPWUS5F8ANOG9DC32QNRO0GDO6WCB","A1N8TKTLXV92QR","3ECKRY5B1QIH1N6NFX1ECCW5ZDKIZQ","","565.6000000238419","img/food3.png","74","566.1999999880791","1","0","","3","1","1,0.5,0,1,0.5,0,0.5,0,1","0.5,0,1,0.5,0,1,0,1,0.5","2",""
"","html-keyboard-response","311","131935","0.0-401.0","3TPWUS5F8ANOG9DC32QNRO0GDO6WCB","A1N8TKTLXV92QR","3ECKRY5B1QIH1N6NFX1ECCW5ZDKIZQ","","null","<img src=""img/food3.png"" style=""width:200px;border:14px solid red;"">","null","","","","","","","","","",""
"","image-keyboard-response","312","132319","0.0-402.0","3TPWUS5F8ANOG9DC32QNRO0GDO6WCB","A1N8TKTLXV92QR","3ECKRY5B1QIH1N6NFX1ECCW5ZDKIZQ","","382.69999998807907","img/food5.png","76","383.5","3","1","","1","1","1,0.5,0,1,0.5,0,0.5,0,1","0.5,0,1,0.5,0,1,0,1,0.5","2",""
"","html-keyboard-response","313","132620","0.0-403.0","3TPWUS5F8ANOG9DC32QNRO0GDO6WCB","A1N8TKTLXV92QR","3ECKRY5B1QIH1N6NFX1ECCW5ZDKIZQ","","null","<img src=""img/food5.png"" style=""width:200px; border:14px solid green;"">","null","","","","","","","","","",""
"","image-keyboard-response","314","133150","0.0-404.0","3TPWUS5F8ANOG9DC32QNRO0GDO6WCB","A1N8TKTLXV92QR","3ECKRY5B1QIH1N6NFX1ECCW5ZDKIZQ","","528.3999999761581","img/food2.png","76","529.3000000119209","3","1","","2","1","1,0.5,0,1,0.5,0,0.5,0,1","0.5,0,1,0.5,0,1,0,1,0.5","2",""
"","html-keyboard-response","315","133452","0.0-405.0","3TPWUS5F8ANOG9DC32QNRO0GDO6WCB","A1N8TKTLXV92QR","3ECKRY5B1QIH1N6NFX1ECCW5ZDKIZQ","","null","<img src=""img/food2.png"" style=""width:200px; border:14px solid green;"">","null","","","","","","","","","",""
"","image-keyboard-response","316","133852","0.0-406.0","3TPWUS5F8ANOG9DC32QNRO0GDO6WCB","A1N8TKTLXV92QR","3ECKRY5B1QIH1N6NFX1ECCW5ZDKIZQ","","400.10000002384186","img/food3.png","76","400.69999998807907","3","0","","3","1","1,0.5,0,1,0.5,0,0.5,0,1","0.5,0,1,0.5,0,1,0,1,0.5","2",""
"","html-keyboard-response","317","134154","0.0-407.0","3TPWUS5F8ANOG9DC32QNRO0GDO6WCB","A1N8TKTLXV92QR","3ECKRY5B1QIH1N6NFX1ECCW5ZDKIZQ","","null","<img src=""img/food3.png"" style=""width:200px;border:14px solid red;"">","null","","","","","","","","","",""
"","image-keyboard-response","318","134591","0.0-408.0","3TPWUS5F8ANOG9DC32QNRO0GDO6WCB","A1N8TKTLXV92QR","3ECKRY5B1QIH1N6NFX1ECCW5ZDKIZQ","","436.10000002384186","img/food2.png","76","436.80000001192093","3","1","","2","1","1,0.5,0,1,0.5,0,0.5,0,1","0.5,0,1,0.5,0,1,0,1,0.5","2",""
"","html-keyboard-response","319","134892","0.0-409.0","3TPWUS5F8ANOG9DC32QNRO0GDO6WCB","A1N8TKTLXV92QR","3ECKRY5B1QIH1N6NFX1ECCW5ZDKIZQ","","null","<img src=""img/food2.png"" style=""width:200px; border:14px solid green;"">","null","","","","","","","","","",""
"","image-keyboard-response","320","135379","0.0-410.0","3TPWUS5F8ANOG9DC32QNRO0GDO6WCB","A1N8TKTLXV92QR","3ECKRY5B1QIH1N6NFX1ECCW5ZDKIZQ","","485.89999997615814","img/food2.png","76","486.5","3","1","","2","1","1,0.5,0,1,0.5,0,0.5,0,1","0.5,0,1,0.5,0,1,0,1,0.5","2",""
"","html-keyboard-response","321","135681","0.0-411.0","3TPWUS5F8ANOG9DC32QNRO0GDO6WCB","A1N8TKTLXV92QR","3ECKRY5B1QIH1N6NFX1ECCW5ZDKIZQ","","null","<img src=""img/food2.png"" style=""width:200px; border:14px solid green;"">","null","","","","","","","","","",""
"","image-keyboard-response","322","136121","0.0-412.0","3TPWUS5F8ANOG9DC32QNRO0GDO6WCB","A1N8TKTLXV92QR","3ECKRY5B1QIH1N6NFX1ECCW5ZDKIZQ","","439.5","img/food3.png","76","440","3","1","","3","1","1,0.5,0,1,0.5,0,0.5,0,1","0.5,0,1,0.5,0,1,0,1,0.5","2",""
"","html-keyboard-response","323","136424","0.0-413.0","3TPWUS5F8ANOG9DC32QNRO0GDO6WCB","A1N8TKTLXV92QR","3ECKRY5B1QIH1N6NFX1ECCW5ZDKIZQ","","null","<img src=""img/food3.png"" style=""width:200px; border:14px solid green;"">","null","","","","","","","","","",""
"","image-keyboard-response","324","136800","0.0-414.0","3TPWUS5F8ANOG9DC32QNRO0GDO6WCB","A1N8TKTLXV92QR","3ECKRY5B1QIH1N6NFX1ECCW5ZDKIZQ","","375.19999998807907","img/food2.png","76","375.69999998807907","3","1","","2","1","1,0.5,0,1,0.5,0,0.5,0,1","0.5,0,1,0.5,0,1,0,1,0.5","2",""
"","html-keyboard-response","325","137101","0.0-415.0","3TPWUS5F8ANOG9DC32QNRO0GDO6WCB","A1N8TKTLXV92QR","3ECKRY5B1QIH1N6NFX1ECCW5ZDKIZQ","","null","<img src=""img/food2.png"" style=""width:200px; border:14px solid green;"">","null","","","","","","","","","",""
"","image-keyboard-response","326","137473","0.0-416.0","3TPWUS5F8ANOG9DC32QNRO0GDO6WCB","A1N8TKTLXV92QR","3ECKRY5B1QIH1N6NFX1ECCW5ZDKIZQ","","371.5","img/food5.png","76","372.0999999642372","3","1","","1","1","1,0.5,0,1,0.5,0,0.5,0,1","0.5,0,1,0.5,0,1,0,1,0.5","2",""
"","html-keyboard-response","327","137787","0.0-417.0","3TPWUS5F8ANOG9DC32QNRO0GDO6WCB","A1N8TKTLXV92QR","3ECKRY5B1QIH1N6NFX1ECCW5ZDKIZQ","","null","<img src=""img/food5.png"" style=""width:200px; border:14px solid green;"">","null","","","","","","","","","",""
"","image-keyboard-response","328","138104","0.0-418.0","3TPWUS5F8ANOG9DC32QNRO0GDO6WCB","A1N8TKTLXV92QR","3ECKRY5B1QIH1N6NFX1ECCW5ZDKIZQ","","315.69999998807907","img/food3.png","76","316.39999997615814","3","1","","3","1","1,0.5,0,1,0.5,0,0.5,0,1","0.5,0,1,0.5,0,1,0,1,0.5","2",""
"","html-keyboard-response","329","138405","0.0-419.0","3TPWUS5F8ANOG9DC32QNRO0GDO6WCB","A1N8TKTLXV92QR","3ECKRY5B1QIH1N6NFX1ECCW5ZDKIZQ","","null","<img src=""img/food3.png"" style=""width:200px; border:14px solid green;"">","null","","","","","","","","","",""
"","image-keyboard-response","330","138852","0.0-420.0","3TPWUS5F8ANOG9DC32QNRO0GDO6WCB","A1N8TKTLXV92QR","3ECKRY5B1QIH1N6NFX1ECCW5ZDKIZQ","","445.69999998807907","img/food5.png","76","446.5","3","1","","1","1","1,0.5,0,1,0.5,0,0.5,0,1","0.5,0,1,0.5,0,1,0,1,0.5","2",""
"","html-keyboard-response","331","139154","0.0-421.0","3TPWUS5F8ANOG9DC32QNRO0GDO6WCB","A1N8TKTLXV92QR","3ECKRY5B1QIH1N6NFX1ECCW5ZDKIZQ","","null","<img src=""img/food5.png"" style=""width:200px; border:14px solid green;"">","null","","","","","","","","","",""
"","image-keyboard-response","332","139490","0.0-422.0","3TPWUS5F8ANOG9DC32QNRO0GDO6WCB","A1N8TKTLXV92QR","3ECKRY5B1QIH1N6NFX1ECCW5ZDKIZQ","","335.2000000476837","img/food3.png","76","335.89999997615814","3","0","","3","1","1,0.5,0,1,0.5,0,0.5,0,1","0.5,0,1,0.5,0,1,0,1,0.5","2",""
"","html-keyboard-response","333","139792","0.0-423.0","3TPWUS5F8ANOG9DC32QNRO0GDO6WCB","A1N8TKTLXV92QR","3ECKRY5B1QIH1N6NFX1ECCW5ZDKIZQ","","null","<img src=""img/food3.png"" style=""width:200px;border:14px solid red;"">","null","","","","","","","","","",""
"","image-keyboard-response","334","140170","0.0-424.0","3TPWUS5F8ANOG9DC32QNRO0GDO6WCB","A1N8TKTLXV92QR","3ECKRY5B1QIH1N6NFX1ECCW5ZDKIZQ","","377.10000002384186","img/food5.png","76","377.9000000357628","3","1","","1","1","1,0.5,0,1,0.5,0,0.5,0,1","0.5,0,1,0.5,0,1,0,1,0.5","2",""
"","html-keyboard-response","335","140472","0.0-425.0","3TPWUS5F8ANOG9DC32QNRO0GDO6WCB","A1N8TKTLXV92QR","3ECKRY5B1QIH1N6NFX1ECCW5ZDKIZQ","","null","<img src=""img/food5.png"" style=""width:200px; border:14px solid green;"">","null","","","","","","","","","",""
"","image-keyboard-response","336","140969","0.0-426.0","3TPWUS5F8ANOG9DC32QNRO0GDO6WCB","A1N8TKTLXV92QR","3ECKRY5B1QIH1N6NFX1ECCW5ZDKIZQ","","496.30000001192093","img/food2.png","76","497","3","1","","2","1","1,0.5,0,1,0.5,0,0.5,0,1","0.5,0,1,0.5,0,1,0,1,0.5","2",""
"","html-keyboard-response","337","141271","0.0-427.0","3TPWUS5F8ANOG9DC32QNRO0GDO6WCB","A1N8TKTLXV92QR","3ECKRY5B1QIH1N6NFX1ECCW5ZDKIZQ","","null","<img src=""img/food2.png"" style=""width:200px; border:14px solid green;"">","null","","","","","","","","","",""
"","image-keyboard-response","338","141576","0.0-428.0","3TPWUS5F8ANOG9DC32QNRO0GDO6WCB","A1N8TKTLXV92QR","3ECKRY5B1QIH1N6NFX1ECCW5ZDKIZQ","","303.7999999523163","img/food3.png","76","304.5","3","0","","3","1","1,0.5,0,1,0.5,0,0.5,0,1","0.5,0,1,0.5,0,1,0,1,0.5","2",""
"","html-keyboard-response","339","141877","0.0-429.0","3TPWUS5F8ANOG9DC32QNRO0GDO6WCB","A1N8TKTLXV92QR","3ECKRY5B1QIH1N6NFX1ECCW5ZDKIZQ","","null","<img src=""img/food3.png"" style=""width:200px;border:14px solid red;"">","null","","","","","","","","","",""
"","image-keyboard-response","340","142370","0.0-430.0","3TPWUS5F8ANOG9DC32QNRO0GDO6WCB","A1N8TKTLXV92QR","3ECKRY5B1QIH1N6NFX1ECCW5ZDKIZQ","","491.4000000357628","img/food3.png","76","492.19999998807907","3","0","","3","1","1,0.5,0,1,0.5,0,0.5,0,1","0.5,0,1,0.5,0,1,0,1,0.5","2",""
"","html-keyboard-response","341","142672","0.0-431.0","3TPWUS5F8ANOG9DC32QNRO0GDO6WCB","A1N8TKTLXV92QR","3ECKRY5B1QIH1N6NFX1ECCW5ZDKIZQ","","null","<img src=""img/food3.png"" style=""width:200px;border:14px solid red;"">","null","","","","","","","","","",""
"","image-keyboard-response","342","142752","0.0-432.0","3TPWUS5F8ANOG9DC32QNRO0GDO6WCB","A1N8TKTLXV92QR","3ECKRY5B1QIH1N6NFX1ECCW5ZDKIZQ","","79.20000004768372","img/food3.png","75","80.10000002384186","2","1","","3","1","1,0.5,0,1,0.5,0,0.5,0,1","0.5,0,1,0.5,0,1,0,1,0.5","2",""
"","html-keyboard-response","343","143061","0.0-433.0","3TPWUS5F8ANOG9DC32QNRO0GDO6WCB","A1N8TKTLXV92QR","3ECKRY5B1QIH1N6NFX1ECCW5ZDKIZQ","","null","<img src=""img/food3.png"" style=""width:200px; border:14px solid green;"">","null","","","","","","","","","",""
"","image-keyboard-response","344","143466","0.0-434.0","3TPWUS5F8ANOG9DC32QNRO0GDO6WCB","A1N8TKTLXV92QR","3ECKRY5B1QIH1N6NFX1ECCW5ZDKIZQ","","404.0999999642372","img/food2.png","76","404.9000000357628","3","1","","2","1","1,0.5,0,1,0.5,0,0.5,0,1","0.5,0,1,0.5,0,1,0,1,0.5","2",""
"","html-keyboard-response","345","143767","0.0-435.0","3TPWUS5F8ANOG9DC32QNRO0GDO6WCB","A1N8TKTLXV92QR","3ECKRY5B1QIH1N6NFX1ECCW5ZDKIZQ","","null","<img src=""img/food2.png"" style=""width:200px; border:14px solid green;"">","null","","","","","","","","","",""
"","image-keyboard-response","346","144001","0.0-436.0","3TPWUS5F8ANOG9DC32QNRO0GDO6WCB","A1N8TKTLXV92QR","3ECKRY5B1QIH1N6NFX1ECCW5ZDKIZQ","","232.4000000357628","img/food3.png","75","233.19999998807907","2","1","","3","1","1,0.5,0,1,0.5,0,0.5,0,1","0.5,0,1,0.5,0,1,0,1,0.5","2",""
"","html-keyboard-response","347","144314","0.0-437.0","3TPWUS5F8ANOG9DC32QNRO0GDO6WCB","A1N8TKTLXV92QR","3ECKRY5B1QIH1N6NFX1ECCW5ZDKIZQ","","null","<img src=""img/food3.png"" style=""width:200px; border:14px solid green;"">","null","","","","","","","","","",""
"","image-keyboard-response","348","144687","0.0-438.0","3TPWUS5F8ANOG9DC32QNRO0GDO6WCB","A1N8TKTLXV92QR","3ECKRY5B1QIH1N6NFX1ECCW5ZDKIZQ","","372.5","img/food3.png","76","373.10000002384186","3","0","","3","1","1,0.5,0,1,0.5,0,0.5,0,1","0.5,0,1,0.5,0,1,0,1,0.5","2",""
"","html-keyboard-response","349","144990","0.0-439.0","3TPWUS5F8ANOG9DC32QNRO0GDO6WCB","A1N8TKTLXV92QR","3ECKRY5B1QIH1N6NFX1ECCW5ZDKIZQ","","null","<img src=""img/food3.png"" style=""width:200px;border:14px solid red;"">","null","","","","","","","","","",""
"","image-keyboard-response","350","145137","0.0-440.0","3TPWUS5F8ANOG9DC32QNRO0GDO6WCB","A1N8TKTLXV92QR","3ECKRY5B1QIH1N6NFX1ECCW5ZDKIZQ","","146.19999998807907","img/food3.png","75","146.69999998807907","2","1","","3","1","1,0.5,0,1,0.5,0,0.5,0,1","0.5,0,1,0.5,0,1,0,1,0.5","2",""
"","html-keyboard-response","351","145439","0.0-441.0","3TPWUS5F8ANOG9DC32QNRO0GDO6WCB","A1N8TKTLXV92QR","3ECKRY5B1QIH1N6NFX1ECCW5ZDKIZQ","","null","<img src=""img/food3.png"" style=""width:200px; border:14px solid green;"">","null","","","","","","","","","",""
"","image-keyboard-response","352","145646","0.0-442.0","3TPWUS5F8ANOG9DC32QNRO0GDO6WCB","A1N8TKTLXV92QR","3ECKRY5B1QIH1N6NFX1ECCW5ZDKIZQ","","205.9000000357628","img/food5.png","74","206.69999998807907","1","0","","1","1","1,0.5,0,1,0.5,0,0.5,0,1","0.5,0,1,0.5,0,1,0,1,0.5","2",""
"","html-keyboard-response","353","145947","0.0-443.0","3TPWUS5F8ANOG9DC32QNRO0GDO6WCB","A1N8TKTLXV92QR","3ECKRY5B1QIH1N6NFX1ECCW5ZDKIZQ","","null","<img src=""img/food5.png"" style=""width:200px;border:14px solid red;"">","null","","","","","","","","","",""
"","image-keyboard-response","354","146193","0.0-444.0","3TPWUS5F8ANOG9DC32QNRO0GDO6WCB","A1N8TKTLXV92QR","3ECKRY5B1QIH1N6NFX1ECCW5ZDKIZQ","","244.80000001192093","img/food5.png","76","245.60000002384186","3","1","","1","1","1,0.5,0,1,0.5,0,0.5,0,1","0.5,0,1,0.5,0,1,0,1,0.5","2",""
"","html-keyboard-response","355","146496","0.0-445.0","3TPWUS5F8ANOG9DC32QNRO0GDO6WCB","A1N8TKTLXV92QR","3ECKRY5B1QIH1N6NFX1ECCW5ZDKIZQ","","null","<img src=""img/food5.png"" style=""width:200px; border:14px solid green;"">","null","","","","","","","","","",""
"","image-keyboard-response","356","146928","0.0-446.0","3TPWUS5F8ANOG9DC32QNRO0GDO6WCB","A1N8TKTLXV92QR","3ECKRY5B1QIH1N6NFX1ECCW5ZDKIZQ","","431.5999999642372","img/food5.png","75","432.4000000357628","2","0","","1","1","1,0.5,0,1,0.5,0,0.5,0,1","0.5,0,1,0.5,0,1,0,1,0.5","2",""
"","html-keyboard-response","357","147230","0.0-447.0","3TPWUS5F8ANOG9DC32QNRO0GDO6WCB","A1N8TKTLXV92QR","3ECKRY5B1QIH1N6NFX1ECCW5ZDKIZQ","","null","<img src=""img/food5.png"" style=""width:200px;border:14px solid red;"">","null","","","","","","","","","",""
"","image-keyboard-response","358","147436","0.0-448.0","3TPWUS5F8ANOG9DC32QNRO0GDO6WCB","A1N8TKTLXV92QR","3ECKRY5B1QIH1N6NFX1ECCW5ZDKIZQ","","204.30000001192093","img/food3.png","76","205","3","1","","3","1","1,0.5,0,1,0.5,0,0.5,0,1","0.5,0,1,0.5,0,1,0,1,0.5","2",""
"","html-keyboard-response","359","147738","0.0-449.0","3TPWUS5F8ANOG9DC32QNRO0GDO6WCB","A1N8TKTLXV92QR","3ECKRY5B1QIH1N6NFX1ECCW5ZDKIZQ","","null","<img src=""img/food3.png"" style=""width:200px; border:14px solid green;"">","null","","","","","","","","","",""
"","image-keyboard-response","360","148217","0.0-450.0","3TPWUS5F8ANOG9DC32QNRO0GDO6WCB","A1N8TKTLXV92QR","3ECKRY5B1QIH1N6NFX1ECCW5ZDKIZQ","","477.69999998807907","img/food5.png","76","478.5999999642372","3","1","","1","1","1,0.5,0,1,0.5,0,0.5,0,1","0.5,0,1,0.5,0,1,0,1,0.5","2",""
"","html-keyboard-response","361","148519","0.0-451.0","3TPWUS5F8ANOG9DC32QNRO0GDO6WCB","A1N8TKTLXV92QR","3ECKRY5B1QIH1N6NFX1ECCW5ZDKIZQ","","null","<img src=""img/food5.png"" style=""width:200px; border:14px solid green;"">","null","","","","","","","","","",""
"","image-keyboard-response","362","148952","0.0-452.0","3TPWUS5F8ANOG9DC32QNRO0GDO6WCB","A1N8TKTLXV92QR","3ECKRY5B1QIH1N6NFX1ECCW5ZDKIZQ","","433.19999998807907","img/food3.png","76","433.80000001192093","3","0","","3","1","1,0.5,0,1,0.5,0,0.5,0,1","0.5,0,1,0.5,0,1,0,1,0.5","2",""
"","html-keyboard-response","363","149254","0.0-453.0","3TPWUS5F8ANOG9DC32QNRO0GDO6WCB","A1N8TKTLXV92QR","3ECKRY5B1QIH1N6NFX1ECCW5ZDKIZQ","","null","<img src=""img/food3.png"" style=""width:200px;border:14px solid red;"">","null","","","","","","","","","",""
"","html-keyboard-response","364","157439","0.0-454.0","3TPWUS5F8ANOG9DC32QNRO0GDO6WCB","A1N8TKTLXV92QR","3ECKRY5B1QIH1N6NFX1ECCW5ZDKIZQ","","","","","","","","","","","","","",""
"","instructions","365","878296","0.0-455.0","3TPWUS5F8ANOG9DC32QNRO0GDO6WCB","A1N8TKTLXV92QR","3ECKRY5B1QIH1N6NFX1ECCW5ZDKIZQ","[{""page_index"":0,""viewing_time"":720856.6000000238}]","720856.8999999762","","","","","","","","","","","",""
"","survey-text","366","883859","0.0-456.0","3TPWUS5F8ANOG9DC32QNRO0GDO6WCB","A1N8TKTLXV92QR","3ECKRY5B1QIH1N6NFX1ECCW5ZDKIZQ","","5558.699999988079","","","","","","","","","","","","{""Q0"":""A1N8TKTLXV92QR""}"
