"success","trial_type","trial_index","time_elapsed","internal_node_id","assignmentID","mturkID","hitID","view_history","rt","stimulus","key_press","reactionTime","a","r","s","reward_cond","responses"
"true","fullscreen","0","2121","0.0-0.0","374TNBHA8CHWZFIVNL96WQADOVVYQ5","A1NKBIJQGT0712","3S829FDFT2NBOHQMM1CIOU0HZYXDXL","","","","","","","","","",""
"","instructions","1","19813","0.0-1.0","374TNBHA8CHWZFIVNL96WQADOVVYQ5","A1NKBIJQGT0712","3S829FDFT2NBOHQMM1CIOU0HZYXDXL","[{""page_index"":0,""viewing_time"":3618.7000000476837},{""page_index"":1,""viewing_time"":3076.899999976158},{""page_index"":2,""viewing_time"":2010.1000000238419},{""page_index"":3,""viewing_time"":3637.099999964237},{""page_index"":4,""viewing_time"":1695.199999988079},{""page_index"":5,""viewing_time"":2617.5},{""page_index"":6,""viewing_time"":1035.2000000476837}]","17691.200000047684","","","","","","","",""
"","image-keyboard-response","2","21310","0.0-2.0","374TNBHA8CHWZFIVNL96WQADOVVYQ5","A1NKBIJQGT0712","3S829FDFT2NBOHQMM1CIOU0HZYXDXL","","1496.199999988079","img/food1.png","74","1497.1000000238419","1","1","2","0,0.5,0.8,0.5,0,0.8,0,0.5,0.8,0,0.8,0.5",""
"","html-keyboard-response","3","21626","0.0-3.0","374TNBHA8CHWZFIVNL96WQADOVVYQ5","A1NKBIJQGT0712","3S829FDFT2NBOHQMM1CIOU0HZYXDXL","","null","<img src=""img/food1.png"" style=""width:200px; border:14px solid green;"">","null","","","","","",""
"","image-keyboard-response","4","22044","0.0-4.0","374TNBHA8CHWZFIVNL96WQADOVVYQ5","A1NKBIJQGT0712","3S829FDFT2NBOHQMM1CIOU0HZYXDXL","","416.5","img/food1.png","74","417.2000000476837","1","0","2","0,0.5,0.8,0.5,0,0.8,0,0.5,0.8,0,0.8,0.5",""
"","html-keyboard-response","5","22352","0.0-5.0","374TNBHA8CHWZFIVNL96WQADOVVYQ5","A1NKBIJQGT0712","3S829FDFT2NBOHQMM1CIOU0HZYXDXL","","null","<img src=""img/food1.png"" style=""width:200px;border:14px solid red;"">","null","","","","","",""
"","image-keyboard-response","6","23294","0.0-6.0","374TNBHA8CHWZFIVNL96WQADOVVYQ5","A1NKBIJQGT0712","3S829FDFT2NBOHQMM1CIOU0HZYXDXL","","940.7999999523163","img/food4.png","75","941.5","2","1","1","0,0.5,0.8,0.5,0,0.8,0,0.5,0.8,0,0.8,0.5",""
"","html-keyboard-response","7","23605","0.0-7.0","374TNBHA8CHWZFIVNL96WQADOVVYQ5","A1NKBIJQGT0712","3S829FDFT2NBOHQMM1CIOU0HZYXDXL","","null","<img src=""img/food4.png"" style=""width:200px; border:14px solid green;"">","null","","","","","",""
"","image-keyboard-response","8","24310","0.0-8.0","374TNBHA8CHWZFIVNL96WQADOVVYQ5","A1NKBIJQGT0712","3S829FDFT2NBOHQMM1CIOU0HZYXDXL","","704.6999999880791","img/food3.png","76","705.3000000119209","3","1","3","0,0.5,0.8,0.5,0,0.8,0,0.5,0.8,0,0.8,0.5",""
"","html-keyboard-response","9","24618","0.0-9.0","374TNBHA8CHWZFIVNL96WQADOVVYQ5","A1NKBIJQGT0712","3S829FDFT2NBOHQMM1CIOU0HZYXDXL","","null","<img src=""img/food3.png"" style=""width:200px; border:14px solid green;"">","null","","","","","",""
"","image-keyboard-response","10","25078","0.0-10.0","374TNBHA8CHWZFIVNL96WQADOVVYQ5","A1NKBIJQGT0712","3S829FDFT2NBOHQMM1CIOU0HZYXDXL","","459.0999999642372","img/food3.png","76","459.69999998807907","3","0","3","0,0.5,0.8,0.5,0,0.8,0,0.5,0.8,0,0.8,0.5",""
"","html-keyboard-response","11","25381","0.0-11.0","374TNBHA8CHWZFIVNL96WQADOVVYQ5","A1NKBIJQGT0712","3S829FDFT2NBOHQMM1CIOU0HZYXDXL","","null","<img src=""img/food3.png"" style=""width:200px;border:14px solid red;"">","null","","","","","",""
"","image-keyboard-response","12","25828","0.0-12.0","374TNBHA8CHWZFIVNL96WQADOVVYQ5","A1NKBIJQGT0712","3S829FDFT2NBOHQMM1CIOU0HZYXDXL","","446.30000001192093","img/food3.png","76","447","3","1","3","0,0.5,0.8,0.5,0,0.8,0,0.5,0.8,0,0.8,0.5",""
"","html-keyboard-response","13","26143","0.0-13.0","374TNBHA8CHWZFIVNL96WQADOVVYQ5","A1NKBIJQGT0712","3S829FDFT2NBOHQMM1CIOU0HZYXDXL","","null","<img src=""img/food3.png"" style=""width:200px; border:14px solid green;"">","null","","","","","",""
"","image-keyboard-response","14","26544","0.0-14.0","374TNBHA8CHWZFIVNL96WQADOVVYQ5","A1NKBIJQGT0712","3S829FDFT2NBOHQMM1CIOU0HZYXDXL","","399.7999999523163","img/food3.png","76","400.30000001192093","3","1","3","0,0.5,0.8,0.5,0,0.8,0,0.5,0.8,0,0.8,0.5",""
"","html-keyboard-response","15","26855","0.0-15.0","374TNBHA8CHWZFIVNL96WQADOVVYQ5","A1NKBIJQGT0712","3S829FDFT2NBOHQMM1CIOU0HZYXDXL","","null","<img src=""img/food3.png"" style=""width:200px; border:14px solid green;"">","null","","","","","",""
"","image-keyboard-response","16","27194","0.0-16.0","374TNBHA8CHWZFIVNL96WQADOVVYQ5","A1NKBIJQGT0712","3S829FDFT2NBOHQMM1CIOU0HZYXDXL","","338.5999999642372","img/food3.png","76","339.2000000476837","3","1","3","0,0.5,0.8,0.5,0,0.8,0,0.5,0.8,0,0.8,0.5",""
"","html-keyboard-response","17","27510","0.0-17.0","374TNBHA8CHWZFIVNL96WQADOVVYQ5","A1NKBIJQGT0712","3S829FDFT2NBOHQMM1CIOU0HZYXDXL","","null","<img src=""img/food3.png"" style=""width:200px; border:14px solid green;"">","null","","","","","",""
"","image-keyboard-response","18","28394","0.0-18.0","374TNBHA8CHWZFIVNL96WQADOVVYQ5","A1NKBIJQGT0712","3S829FDFT2NBOHQMM1CIOU0HZYXDXL","","882.8999999761581","img/food1.png","74","883.7000000476837","1","0","2","0,0.5,0.8,0.5,0,0.8,0,0.5,0.8,0,0.8,0.5",""
"","html-keyboard-response","19","28695","0.0-19.0","374TNBHA8CHWZFIVNL96WQADOVVYQ5","A1NKBIJQGT0712","3S829FDFT2NBOHQMM1CIOU0HZYXDXL","","null","<img src=""img/food1.png"" style=""width:200px;border:14px solid red;"">","null","","","","","",""
"","image-keyboard-response","20","29078","0.0-20.0","374TNBHA8CHWZFIVNL96WQADOVVYQ5","A1NKBIJQGT0712","3S829FDFT2NBOHQMM1CIOU0HZYXDXL","","381.7999999523163","img/food1.png","74","382.60000002384186","1","0","2","0,0.5,0.8,0.5,0,0.8,0,0.5,0.8,0,0.8,0.5",""
"","html-keyboard-response","21","29381","0.0-21.0","374TNBHA8CHWZFIVNL96WQADOVVYQ5","A1NKBIJQGT0712","3S829FDFT2NBOHQMM1CIOU0HZYXDXL","","null","<img src=""img/food1.png"" style=""width:200px;border:14px solid red;"">","null","","","","","",""
"","image-keyboard-response","22","30144","0.0-22.0","374TNBHA8CHWZFIVNL96WQADOVVYQ5","A1NKBIJQGT0712","3S829FDFT2NBOHQMM1CIOU0HZYXDXL","","762.4000000357628","img/food4.png","75","763.1000000238419","2","0","1","0,0.5,0.8,0.5,0,0.8,0,0.5,0.8,0,0.8,0.5",""
"","html-keyboard-response","23","30445","0.0-23.0","374TNBHA8CHWZFIVNL96WQADOVVYQ5","A1NKBIJQGT0712","3S829FDFT2NBOHQMM1CIOU0HZYXDXL","","null","<img src=""img/food4.png"" style=""width:200px;border:14px solid red;"">","null","","","","","",""
"","image-keyboard-response","24","31294","0.0-24.0","374TNBHA8CHWZFIVNL96WQADOVVYQ5","A1NKBIJQGT0712","3S829FDFT2NBOHQMM1CIOU0HZYXDXL","","848.1999999880791","img/food1.png","75","848.6000000238419","2","0","2","0,0.5,0.8,0.5,0,0.8,0,0.5,0.8,0,0.8,0.5",""
"","html-keyboard-response","25","31595","0.0-25.0","374TNBHA8CHWZFIVNL96WQADOVVYQ5","A1NKBIJQGT0712","3S829FDFT2NBOHQMM1CIOU0HZYXDXL","","null","<img src=""img/food1.png"" style=""width:200px;border:14px solid red;"">","null","","","","","",""
"","image-keyboard-response","26","32443","0.0-26.0","374TNBHA8CHWZFIVNL96WQADOVVYQ5","A1NKBIJQGT0712","3S829FDFT2NBOHQMM1CIOU0HZYXDXL","","846.8999999761581","img/food4.png","75","847.3000000119209","2","1","1","0,0.5,0.8,0.5,0,0.8,0,0.5,0.8,0,0.8,0.5",""
"","html-keyboard-response","27","32744","0.0-27.0","374TNBHA8CHWZFIVNL96WQADOVVYQ5","A1NKBIJQGT0712","3S829FDFT2NBOHQMM1CIOU0HZYXDXL","","null","<img src=""img/food4.png"" style=""width:200px; border:14px solid green;"">","null","","","","","",""
"","image-keyboard-response","28","33127","0.0-28.0","374TNBHA8CHWZFIVNL96WQADOVVYQ5","A1NKBIJQGT0712","3S829FDFT2NBOHQMM1CIOU0HZYXDXL","","382.39999997615814","img/food4.png","75","383","2","1","1","0,0.5,0.8,0.5,0,0.8,0,0.5,0.8,0,0.8,0.5",""
"","html-keyboard-response","29","33428","0.0-29.0","374TNBHA8CHWZFIVNL96WQADOVVYQ5","A1NKBIJQGT0712","3S829FDFT2NBOHQMM1CIOU0HZYXDXL","","null","<img src=""img/food4.png"" style=""width:200px; border:14px solid green;"">","null","","","","","",""
"","image-keyboard-response","30","33793","0.0-30.0","374TNBHA8CHWZFIVNL96WQADOVVYQ5","A1NKBIJQGT0712","3S829FDFT2NBOHQMM1CIOU0HZYXDXL","","364","img/food4.png","75","364.60000002384186","2","1","1","0,0.5,0.8,0.5,0,0.8,0,0.5,0.8,0,0.8,0.5",""
"","html-keyboard-response","31","34094","0.0-31.0","374TNBHA8CHWZFIVNL96WQADOVVYQ5","A1NKBIJQGT0712","3S829FDFT2NBOHQMM1CIOU0HZYXDXL","","null","<img src=""img/food4.png"" style=""width:200px; border:14px solid green;"">","null","","","","","",""
"","image-keyboard-response","32","34677","0.0-32.0","374TNBHA8CHWZFIVNL96WQADOVVYQ5","A1NKBIJQGT0712","3S829FDFT2NBOHQMM1CIOU0HZYXDXL","","582.3000000119209","img/food1.png","74","582.6999999880791","1","1","2","0,0.5,0.8,0.5,0,0.8,0,0.5,0.8,0,0.8,0.5",""
"","html-keyboard-response","33","34978","0.0-33.0","374TNBHA8CHWZFIVNL96WQADOVVYQ5","A1NKBIJQGT0712","3S829FDFT2NBOHQMM1CIOU0HZYXDXL","","null","<img src=""img/food1.png"" style=""width:200px; border:14px solid green;"">","null","","","","","",""
"","image-keyboard-response","34","35310","0.0-34.0","374TNBHA8CHWZFIVNL96WQADOVVYQ5","A1NKBIJQGT0712","3S829FDFT2NBOHQMM1CIOU0HZYXDXL","","331","img/food1.png","74","331.4000000357628","1","1","2","0,0.5,0.8,0.5,0,0.8,0,0.5,0.8,0,0.8,0.5",""
"","html-keyboard-response","35","35611","0.0-35.0","374TNBHA8CHWZFIVNL96WQADOVVYQ5","A1NKBIJQGT0712","3S829FDFT2NBOHQMM1CIOU0HZYXDXL","","null","<img src=""img/food1.png"" style=""width:200px; border:14px solid green;"">","null","","","","","",""
"","image-keyboard-response","36","36327","0.0-36.0","374TNBHA8CHWZFIVNL96WQADOVVYQ5","A1NKBIJQGT0712","3S829FDFT2NBOHQMM1CIOU0HZYXDXL","","715.3999999761581","img/food3.png","76","715.8000000119209","3","1","3","0,0.5,0.8,0.5,0,0.8,0,0.5,0.8,0,0.8,0.5",""
"","html-keyboard-response","37","36628","0.0-37.0","374TNBHA8CHWZFIVNL96WQADOVVYQ5","A1NKBIJQGT0712","3S829FDFT2NBOHQMM1CIOU0HZYXDXL","","null","<img src=""img/food3.png"" style=""width:200px; border:14px solid green;"">","null","","","","","",""
"","image-keyboard-response","38","37177","0.0-38.0","374TNBHA8CHWZFIVNL96WQADOVVYQ5","A1NKBIJQGT0712","3S829FDFT2NBOHQMM1CIOU0HZYXDXL","","548.1000000238419","img/food4.png","75","548.6999999880791","2","0","1","0,0.5,0.8,0.5,0,0.8,0,0.5,0.8,0,0.8,0.5",""
"","html-keyboard-response","39","37478","0.0-39.0","374TNBHA8CHWZFIVNL96WQADOVVYQ5","A1NKBIJQGT0712","3S829FDFT2NBOHQMM1CIOU0HZYXDXL","","null","<img src=""img/food4.png"" style=""width:200px;border:14px solid red;"">","null","","","","","",""
"","image-keyboard-response","40","37793","0.0-40.0","374TNBHA8CHWZFIVNL96WQADOVVYQ5","A1NKBIJQGT0712","3S829FDFT2NBOHQMM1CIOU0HZYXDXL","","314.2999999523163","img/food4.png","75","314.89999997615814","2","1","1","0,0.5,0.8,0.5,0,0.8,0,0.5,0.8,0,0.8,0.5",""
"","html-keyboard-response","41","38094","0.0-41.0","374TNBHA8CHWZFIVNL96WQADOVVYQ5","A1NKBIJQGT0712","3S829FDFT2NBOHQMM1CIOU0HZYXDXL","","null","<img src=""img/food4.png"" style=""width:200px; border:14px solid green;"">","null","","","","","",""
"","image-keyboard-response","42","38877","0.0-42.0","374TNBHA8CHWZFIVNL96WQADOVVYQ5","A1NKBIJQGT0712","3S829FDFT2NBOHQMM1CIOU0HZYXDXL","","783.0999999642372","img/food1.png","74","783.5","1","0","2","0,0.5,0.8,0.5,0,0.8,0,0.5,0.8,0,0.8,0.5",""
"","html-keyboard-response","43","39178","0.0-43.0","374TNBHA8CHWZFIVNL96WQADOVVYQ5","A1NKBIJQGT0712","3S829FDFT2NBOHQMM1CIOU0HZYXDXL","","null","<img src=""img/food1.png"" style=""width:200px;border:14px solid red;"">","null","","","","","",""
"","image-keyboard-response","44","39476","0.0-44.0","374TNBHA8CHWZFIVNL96WQADOVVYQ5","A1NKBIJQGT0712","3S829FDFT2NBOHQMM1CIOU0HZYXDXL","","297.30000001192093","img/food1.png","74","297.80000001192093","1","1","2","0,0.5,0.8,0.5,0,0.8,0,0.5,0.8,0,0.8,0.5",""
"","html-keyboard-response","45","39776","0.0-45.0","374TNBHA8CHWZFIVNL96WQADOVVYQ5","A1NKBIJQGT0712","3S829FDFT2NBOHQMM1CIOU0HZYXDXL","","null","<img src=""img/food1.png"" style=""width:200px; border:14px solid green;"">","null","","","","","",""
"","image-keyboard-response","46","40477","0.0-46.0","374TNBHA8CHWZFIVNL96WQADOVVYQ5","A1NKBIJQGT0712","3S829FDFT2NBOHQMM1CIOU0HZYXDXL","","699.8999999761581","img/food4.png","75","700.4000000357628","2","0","1","0,0.5,0.8,0.5,0,0.8,0,0.5,0.8,0,0.8,0.5",""
"","html-keyboard-response","47","40778","0.0-47.0","374TNBHA8CHWZFIVNL96WQADOVVYQ5","A1NKBIJQGT0712","3S829FDFT2NBOHQMM1CIOU0HZYXDXL","","null","<img src=""img/food4.png"" style=""width:200px;border:14px solid red;"">","null","","","","","",""
"","image-keyboard-response","48","41093","0.0-48.0","374TNBHA8CHWZFIVNL96WQADOVVYQ5","A1NKBIJQGT0712","3S829FDFT2NBOHQMM1CIOU0HZYXDXL","","314.19999998807907","img/food4.png","75","314.7999999523163","2","0","1","0,0.5,0.8,0.5,0,0.8,0,0.5,0.8,0,0.8,0.5",""
"","html-keyboard-response","49","41394","0.0-49.0","374TNBHA8CHWZFIVNL96WQADOVVYQ5","A1NKBIJQGT0712","3S829FDFT2NBOHQMM1CIOU0HZYXDXL","","null","<img src=""img/food4.png"" style=""width:200px;border:14px solid red;"">","null","","","","","",""
"","image-keyboard-response","50","41942","0.0-50.0","374TNBHA8CHWZFIVNL96WQADOVVYQ5","A1NKBIJQGT0712","3S829FDFT2NBOHQMM1CIOU0HZYXDXL","","547.1999999880791","img/food4.png","75","547.9000000357628","2","0","1","0,0.5,0.8,0.5,0,0.8,0,0.5,0.8,0,0.8,0.5",""
"","html-keyboard-response","51","42243","0.0-51.0","374TNBHA8CHWZFIVNL96WQADOVVYQ5","A1NKBIJQGT0712","3S829FDFT2NBOHQMM1CIOU0HZYXDXL","","null","<img src=""img/food4.png"" style=""width:200px;border:14px solid red;"">","null","","","","","",""
"","image-keyboard-response","52","42826","0.0-52.0","374TNBHA8CHWZFIVNL96WQADOVVYQ5","A1NKBIJQGT0712","3S829FDFT2NBOHQMM1CIOU0HZYXDXL","","582.3000000119209","img/food3.png","76","582.7999999523163","3","1","3","0,0.5,0.8,0.5,0,0.8,0,0.5,0.8,0,0.8,0.5",""
"","html-keyboard-response","53","43127","0.0-53.0","374TNBHA8CHWZFIVNL96WQADOVVYQ5","A1NKBIJQGT0712","3S829FDFT2NBOHQMM1CIOU0HZYXDXL","","null","<img src=""img/food3.png"" style=""width:200px; border:14px solid green;"">","null","","","","","",""
"","image-keyboard-response","54","44510","0.0-54.0","374TNBHA8CHWZFIVNL96WQADOVVYQ5","A1NKBIJQGT0712","3S829FDFT2NBOHQMM1CIOU0HZYXDXL","","1383.0999999642372","img/food1.png","74","1383.5","1","0","2","0,0.5,0.8,0.5,0,0.8,0,0.5,0.8,0,0.8,0.5",""
"","html-keyboard-response","55","44812","0.0-55.0","374TNBHA8CHWZFIVNL96WQADOVVYQ5","A1NKBIJQGT0712","3S829FDFT2NBOHQMM1CIOU0HZYXDXL","","null","<img src=""img/food1.png"" style=""width:200px;border:14px solid red;"">","null","","","","","",""
"","image-keyboard-response","56","45677","0.0-56.0","374TNBHA8CHWZFIVNL96WQADOVVYQ5","A1NKBIJQGT0712","3S829FDFT2NBOHQMM1CIOU0HZYXDXL","","864.3999999761581","img/food3.png","76","865","3","1","3","0,0.5,0.8,0.5,0,0.8,0,0.5,0.8,0,0.8,0.5",""
"","html-keyboard-response","57","45978","0.0-57.0","374TNBHA8CHWZFIVNL96WQADOVVYQ5","A1NKBIJQGT0712","3S829FDFT2NBOHQMM1CIOU0HZYXDXL","","null","<img src=""img/food3.png"" style=""width:200px; border:14px solid green;"">","null","","","","","",""
"","image-keyboard-response","58","46343","0.0-58.0","374TNBHA8CHWZFIVNL96WQADOVVYQ5","A1NKBIJQGT0712","3S829FDFT2NBOHQMM1CIOU0HZYXDXL","","364.80000001192093","img/food3.png","76","365.39999997615814","3","1","3","0,0.5,0.8,0.5,0,0.8,0,0.5,0.8,0,0.8,0.5",""
"","html-keyboard-response","59","46645","0.0-59.0","374TNBHA8CHWZFIVNL96WQADOVVYQ5","A1NKBIJQGT0712","3S829FDFT2NBOHQMM1CIOU0HZYXDXL","","null","<img src=""img/food3.png"" style=""width:200px; border:14px solid green;"">","null","","","","","",""
"","image-keyboard-response","60","47426","0.0-60.0","374TNBHA8CHWZFIVNL96WQADOVVYQ5","A1NKBIJQGT0712","3S829FDFT2NBOHQMM1CIOU0HZYXDXL","","780.5","img/food4.png","74","781.1000000238419","1","0","1","0,0.5,0.8,0.5,0,0.8,0,0.5,0.8,0,0.8,0.5",""
"","html-keyboard-response","61","47727","0.0-61.0","374TNBHA8CHWZFIVNL96WQADOVVYQ5","A1NKBIJQGT0712","3S829FDFT2NBOHQMM1CIOU0HZYXDXL","","null","<img src=""img/food4.png"" style=""width:200px;border:14px solid red;"">","null","","","","","",""
"","image-keyboard-response","62","48193","0.0-62.0","374TNBHA8CHWZFIVNL96WQADOVVYQ5","A1NKBIJQGT0712","3S829FDFT2NBOHQMM1CIOU0HZYXDXL","","465","img/food4.png","74","465.5","1","0","1","0,0.5,0.8,0.5,0,0.8,0,0.5,0.8,0,0.8,0.5",""
"","html-keyboard-response","63","48494","0.0-63.0","374TNBHA8CHWZFIVNL96WQADOVVYQ5","A1NKBIJQGT0712","3S829FDFT2NBOHQMM1CIOU0HZYXDXL","","null","<img src=""img/food4.png"" style=""width:200px;border:14px solid red;"">","null","","","","","",""
"","image-keyboard-response","64","49493","0.0-64.0","374TNBHA8CHWZFIVNL96WQADOVVYQ5","A1NKBIJQGT0712","3S829FDFT2NBOHQMM1CIOU0HZYXDXL","","998.6000000238419","img/food1.png","74","999.1999999880791","1","1","2","0,0.5,0.8,0.5,0,0.8,0,0.5,0.8,0,0.8,0.5",""
"","html-keyboard-response","65","49794","0.0-65.0","374TNBHA8CHWZFIVNL96WQADOVVYQ5","A1NKBIJQGT0712","3S829FDFT2NBOHQMM1CIOU0HZYXDXL","","null","<img src=""img/food1.png"" style=""width:200px; border:14px solid green;"">","null","","","","","",""
"","image-keyboard-response","66","50460","0.0-66.0","374TNBHA8CHWZFIVNL96WQADOVVYQ5","A1NKBIJQGT0712","3S829FDFT2NBOHQMM1CIOU0HZYXDXL","","664.8999999761581","img/food3.png","76","665.3000000119209","3","1","3","0,0.5,0.8,0.5,0,0.8,0,0.5,0.8,0,0.8,0.5",""
"","html-keyboard-response","67","50761","0.0-67.0","374TNBHA8CHWZFIVNL96WQADOVVYQ5","A1NKBIJQGT0712","3S829FDFT2NBOHQMM1CIOU0HZYXDXL","","null","<img src=""img/food3.png"" style=""width:200px; border:14px solid green;"">","null","","","","","",""
"","image-keyboard-response","68","51177","0.0-68.0","374TNBHA8CHWZFIVNL96WQADOVVYQ5","A1NKBIJQGT0712","3S829FDFT2NBOHQMM1CIOU0HZYXDXL","","415.39999997615814","img/food3.png","76","415.9000000357628","3","1","3","0,0.5,0.8,0.5,0,0.8,0,0.5,0.8,0,0.8,0.5",""
"","html-keyboard-response","69","51478","0.0-69.0","374TNBHA8CHWZFIVNL96WQADOVVYQ5","A1NKBIJQGT0712","3S829FDFT2NBOHQMM1CIOU0HZYXDXL","","null","<img src=""img/food3.png"" style=""width:200px; border:14px solid green;"">","null","","","","","",""
"","image-keyboard-response","70","52143","0.0-70.0","374TNBHA8CHWZFIVNL96WQADOVVYQ5","A1NKBIJQGT0712","3S829FDFT2NBOHQMM1CIOU0HZYXDXL","","663.6000000238419","img/food1.png","74","664.1000000238419","1","0","2","0,0.5,0.8,0.5,0,0.8,0,0.5,0.8,0,0.8,0.5",""
"","html-keyboard-response","71","52444","0.0-71.0","374TNBHA8CHWZFIVNL96WQADOVVYQ5","A1NKBIJQGT0712","3S829FDFT2NBOHQMM1CIOU0HZYXDXL","","null","<img src=""img/food1.png"" style=""width:200px;border:14px solid red;"">","null","","","","","",""
"","image-keyboard-response","72","52876","0.0-72.0","374TNBHA8CHWZFIVNL96WQADOVVYQ5","A1NKBIJQGT0712","3S829FDFT2NBOHQMM1CIOU0HZYXDXL","","431.10000002384186","img/food1.png","74","431.80000001192093","1","1","2","0,0.5,0.8,0.5,0,0.8,0,0.5,0.8,0,0.8,0.5",""
"","html-keyboard-response","73","53176","0.0-73.0","374TNBHA8CHWZFIVNL96WQADOVVYQ5","A1NKBIJQGT0712","3S829FDFT2NBOHQMM1CIOU0HZYXDXL","","null","<img src=""img/food1.png"" style=""width:200px; border:14px solid green;"">","null","","","","","",""
"","image-keyboard-response","74","53860","0.0-74.0","374TNBHA8CHWZFIVNL96WQADOVVYQ5","A1NKBIJQGT0712","3S829FDFT2NBOHQMM1CIOU0HZYXDXL","","682.6000000238419","img/food3.png","76","683.3000000119209","3","1","3","0,0.5,0.8,0.5,0,0.8,0,0.5,0.8,0,0.8,0.5",""
"","html-keyboard-response","75","54161","0.0-75.0","374TNBHA8CHWZFIVNL96WQADOVVYQ5","A1NKBIJQGT0712","3S829FDFT2NBOHQMM1CIOU0HZYXDXL","","null","<img src=""img/food3.png"" style=""width:200px; border:14px solid green;"">","null","","","","","",""
"","image-keyboard-response","76","54711","0.0-76.0","374TNBHA8CHWZFIVNL96WQADOVVYQ5","A1NKBIJQGT0712","3S829FDFT2NBOHQMM1CIOU0HZYXDXL","","549.6999999880791","img/food1.png","74","550.2000000476837","1","0","2","0,0.5,0.8,0.5,0,0.8,0,0.5,0.8,0,0.8,0.5",""
"","html-keyboard-response","77","55012","0.0-77.0","374TNBHA8CHWZFIVNL96WQADOVVYQ5","A1NKBIJQGT0712","3S829FDFT2NBOHQMM1CIOU0HZYXDXL","","null","<img src=""img/food1.png"" style=""width:200px;border:14px solid red;"">","null","","","","","",""
"","image-keyboard-response","78","55661","0.0-78.0","374TNBHA8CHWZFIVNL96WQADOVVYQ5","A1NKBIJQGT0712","3S829FDFT2NBOHQMM1CIOU0HZYXDXL","","648.1999999880791","img/food4.png","75","648.8000000119209","2","0","1","0,0.5,0.8,0.5,0,0.8,0,0.5,0.8,0,0.8,0.5",""
"","html-keyboard-response","79","55963","0.0-79.0","374TNBHA8CHWZFIVNL96WQADOVVYQ5","A1NKBIJQGT0712","3S829FDFT2NBOHQMM1CIOU0HZYXDXL","","null","<img src=""img/food4.png"" style=""width:200px;border:14px solid red;"">","null","","","","","",""
"","image-keyboard-response","80","56527","0.0-80.0","374TNBHA8CHWZFIVNL96WQADOVVYQ5","A1NKBIJQGT0712","3S829FDFT2NBOHQMM1CIOU0HZYXDXL","","563.5999999642372","img/food4.png","75","564","2","1","1","0,0.5,0.8,0.5,0,0.8,0,0.5,0.8,0,0.8,0.5",""
"","html-keyboard-response","81","56827","0.0-81.0","374TNBHA8CHWZFIVNL96WQADOVVYQ5","A1NKBIJQGT0712","3S829FDFT2NBOHQMM1CIOU0HZYXDXL","","null","<img src=""img/food4.png"" style=""width:200px; border:14px solid green;"">","null","","","","","",""
"","image-keyboard-response","82","57343","0.0-82.0","374TNBHA8CHWZFIVNL96WQADOVVYQ5","A1NKBIJQGT0712","3S829FDFT2NBOHQMM1CIOU0HZYXDXL","","514.6999999880791","img/food3.png","76","515.3000000119209","3","1","3","0,0.5,0.8,0.5,0,0.8,0,0.5,0.8,0,0.8,0.5",""
"","html-keyboard-response","83","57645","0.0-83.0","374TNBHA8CHWZFIVNL96WQADOVVYQ5","A1NKBIJQGT0712","3S829FDFT2NBOHQMM1CIOU0HZYXDXL","","null","<img src=""img/food3.png"" style=""width:200px; border:14px solid green;"">","null","","","","","",""
"","image-keyboard-response","84","58192","0.0-84.0","374TNBHA8CHWZFIVNL96WQADOVVYQ5","A1NKBIJQGT0712","3S829FDFT2NBOHQMM1CIOU0HZYXDXL","","546.6999999880791","img/food4.png","75","547.1999999880791","2","0","1","0,0.5,0.8,0.5,0,0.8,0,0.5,0.8,0,0.8,0.5",""
"","html-keyboard-response","85","58493","0.0-85.0","374TNBHA8CHWZFIVNL96WQADOVVYQ5","A1NKBIJQGT0712","3S829FDFT2NBOHQMM1CIOU0HZYXDXL","","null","<img src=""img/food4.png"" style=""width:200px;border:14px solid red;"">","null","","","","","",""
"","image-keyboard-response","86","58942","0.0-86.0","374TNBHA8CHWZFIVNL96WQADOVVYQ5","A1NKBIJQGT0712","3S829FDFT2NBOHQMM1CIOU0HZYXDXL","","448.69999998807907","img/food4.png","75","449.30000001192093","2","1","1","0,0.5,0.8,0.5,0,0.8,0,0.5,0.8,0,0.8,0.5",""
"","html-keyboard-response","87","59243","0.0-87.0","374TNBHA8CHWZFIVNL96WQADOVVYQ5","A1NKBIJQGT0712","3S829FDFT2NBOHQMM1CIOU0HZYXDXL","","null","<img src=""img/food4.png"" style=""width:200px; border:14px solid green;"">","null","","","","","",""
"","image-keyboard-response","88","59760","0.0-88.0","374TNBHA8CHWZFIVNL96WQADOVVYQ5","A1NKBIJQGT0712","3S829FDFT2NBOHQMM1CIOU0HZYXDXL","","515.7999999523163","img/food3.png","76","516.3000000119209","3","1","3","0,0.5,0.8,0.5,0,0.8,0,0.5,0.8,0,0.8,0.5",""
"","html-keyboard-response","89","60061","0.0-89.0","374TNBHA8CHWZFIVNL96WQADOVVYQ5","A1NKBIJQGT0712","3S829FDFT2NBOHQMM1CIOU0HZYXDXL","","null","<img src=""img/food3.png"" style=""width:200px; border:14px solid green;"">","null","","","","","",""
"","image-keyboard-response","90","60510","0.0-90.0","374TNBHA8CHWZFIVNL96WQADOVVYQ5","A1NKBIJQGT0712","3S829FDFT2NBOHQMM1CIOU0HZYXDXL","","448","img/food4.png","76","448.69999998807907","3","0","1","0,0.5,0.8,0.5,0,0.8,0,0.5,0.8,0,0.8,0.5",""
"","html-keyboard-response","91","60811","0.0-91.0","374TNBHA8CHWZFIVNL96WQADOVVYQ5","A1NKBIJQGT0712","3S829FDFT2NBOHQMM1CIOU0HZYXDXL","","null","<img src=""img/food4.png"" style=""width:200px;border:14px solid red;"">","null","","","","","",""
"","image-keyboard-response","92","61427","0.0-92.0","374TNBHA8CHWZFIVNL96WQADOVVYQ5","A1NKBIJQGT0712","3S829FDFT2NBOHQMM1CIOU0HZYXDXL","","615.6000000238419","img/food3.png","76","616.1000000238419","3","1","3","0,0.5,0.8,0.5,0,0.8,0,0.5,0.8,0,0.8,0.5",""
"","html-keyboard-response","93","61728","0.0-93.0","374TNBHA8CHWZFIVNL96WQADOVVYQ5","A1NKBIJQGT0712","3S829FDFT2NBOHQMM1CIOU0HZYXDXL","","null","<img src=""img/food3.png"" style=""width:200px; border:14px solid green;"">","null","","","","","",""
"","image-keyboard-response","94","62260","0.0-94.0","374TNBHA8CHWZFIVNL96WQADOVVYQ5","A1NKBIJQGT0712","3S829FDFT2NBOHQMM1CIOU0HZYXDXL","","531","img/food4.png","76","531.6000000238419","3","1","1","0,0.5,0.8,0.5,0,0.8,0,0.5,0.8,0,0.8,0.5",""
"","html-keyboard-response","95","62561","0.0-95.0","374TNBHA8CHWZFIVNL96WQADOVVYQ5","A1NKBIJQGT0712","3S829FDFT2NBOHQMM1CIOU0HZYXDXL","","null","<img src=""img/food4.png"" style=""width:200px; border:14px solid green;"">","null","","","","","",""
"","image-keyboard-response","96","63043","0.0-96.0","374TNBHA8CHWZFIVNL96WQADOVVYQ5","A1NKBIJQGT0712","3S829FDFT2NBOHQMM1CIOU0HZYXDXL","","481","img/food1.png","76","481.5","3","1","2","0,0.5,0.8,0.5,0,0.8,0,0.5,0.8,0,0.8,0.5",""
"","html-keyboard-response","97","63344","0.0-97.0","374TNBHA8CHWZFIVNL96WQADOVVYQ5","A1NKBIJQGT0712","3S829FDFT2NBOHQMM1CIOU0HZYXDXL","","null","<img src=""img/food1.png"" style=""width:200px; border:14px solid green;"">","null","","","","","",""
"","image-keyboard-response","98","63877","0.0-98.0","374TNBHA8CHWZFIVNL96WQADOVVYQ5","A1NKBIJQGT0712","3S829FDFT2NBOHQMM1CIOU0HZYXDXL","","532","img/food4.png","76","532.6000000238419","3","1","1","0,0.5,0.8,0.5,0,0.8,0,0.5,0.8,0,0.8,0.5",""
"","html-keyboard-response","99","64178","0.0-99.0","374TNBHA8CHWZFIVNL96WQADOVVYQ5","A1NKBIJQGT0712","3S829FDFT2NBOHQMM1CIOU0HZYXDXL","","null","<img src=""img/food4.png"" style=""width:200px; border:14px solid green;"">","null","","","","","",""
"","image-keyboard-response","100","64643","0.0-100.0","374TNBHA8CHWZFIVNL96WQADOVVYQ5","A1NKBIJQGT0712","3S829FDFT2NBOHQMM1CIOU0HZYXDXL","","464.30000001192093","img/food4.png","76","464.7999999523163","3","1","1","0,0.5,0.8,0.5,0,0.8,0,0.5,0.8,0,0.8,0.5",""
"","html-keyboard-response","101","64944","0.0-101.0","374TNBHA8CHWZFIVNL96WQADOVVYQ5","A1NKBIJQGT0712","3S829FDFT2NBOHQMM1CIOU0HZYXDXL","","null","<img src=""img/food4.png"" style=""width:200px; border:14px solid green;"">","null","","","","","",""
"","image-keyboard-response","102","65377","0.0-102.0","374TNBHA8CHWZFIVNL96WQADOVVYQ5","A1NKBIJQGT0712","3S829FDFT2NBOHQMM1CIOU0HZYXDXL","","432.39999997615814","img/food3.png","76","433","3","1","3","0,0.5,0.8,0.5,0,0.8,0,0.5,0.8,0,0.8,0.5",""
"","html-keyboard-response","103","65678","0.0-103.0","374TNBHA8CHWZFIVNL96WQADOVVYQ5","A1NKBIJQGT0712","3S829FDFT2NBOHQMM1CIOU0HZYXDXL","","null","<img src=""img/food3.png"" style=""width:200px; border:14px solid green;"">","null","","","","","",""
"","image-keyboard-response","104","66059","0.0-104.0","374TNBHA8CHWZFIVNL96WQADOVVYQ5","A1NKBIJQGT0712","3S829FDFT2NBOHQMM1CIOU0HZYXDXL","","380.80000001192093","img/food3.png","76","381.30000001192093","3","1","3","0,0.5,0.8,0.5,0,0.8,0,0.5,0.8,0,0.8,0.5",""
"","html-keyboard-response","105","66361","0.0-105.0","374TNBHA8CHWZFIVNL96WQADOVVYQ5","A1NKBIJQGT0712","3S829FDFT2NBOHQMM1CIOU0HZYXDXL","","null","<img src=""img/food3.png"" style=""width:200px; border:14px solid green;"">","null","","","","","",""
"","image-keyboard-response","106","66743","0.0-106.0","374TNBHA8CHWZFIVNL96WQADOVVYQ5","A1NKBIJQGT0712","3S829FDFT2NBOHQMM1CIOU0HZYXDXL","","381.60000002384186","img/food4.png","76","382.19999998807907","3","1","1","0,0.5,0.8,0.5,0,0.8,0,0.5,0.8,0,0.8,0.5",""
"","html-keyboard-response","107","67044","0.0-107.0","374TNBHA8CHWZFIVNL96WQADOVVYQ5","A1NKBIJQGT0712","3S829FDFT2NBOHQMM1CIOU0HZYXDXL","","null","<img src=""img/food4.png"" style=""width:200px; border:14px solid green;"">","null","","","","","",""
"","image-keyboard-response","108","67426","0.0-108.0","374TNBHA8CHWZFIVNL96WQADOVVYQ5","A1NKBIJQGT0712","3S829FDFT2NBOHQMM1CIOU0HZYXDXL","","381.5","img/food3.png","76","381.9000000357628","3","1","3","0,0.5,0.8,0.5,0,0.8,0,0.5,0.8,0,0.8,0.5",""
"","html-keyboard-response","109","67727","0.0-109.0","374TNBHA8CHWZFIVNL96WQADOVVYQ5","A1NKBIJQGT0712","3S829FDFT2NBOHQMM1CIOU0HZYXDXL","","null","<img src=""img/food3.png"" style=""width:200px; border:14px solid green;"">","null","","","","","",""
"","image-keyboard-response","110","68093","0.0-110.0","374TNBHA8CHWZFIVNL96WQADOVVYQ5","A1NKBIJQGT0712","3S829FDFT2NBOHQMM1CIOU0HZYXDXL","","365.30000001192093","img/food1.png","76","365.89999997615814","3","1","2","0,0.5,0.8,0.5,0,0.8,0,0.5,0.8,0,0.8,0.5",""
"","html-keyboard-response","111","68394","0.0-111.0","374TNBHA8CHWZFIVNL96WQADOVVYQ5","A1NKBIJQGT0712","3S829FDFT2NBOHQMM1CIOU0HZYXDXL","","null","<img src=""img/food1.png"" style=""width:200px; border:14px solid green;"">","null","","","","","",""
"","image-keyboard-response","112","68709","0.0-112.0","374TNBHA8CHWZFIVNL96WQADOVVYQ5","A1NKBIJQGT0712","3S829FDFT2NBOHQMM1CIOU0HZYXDXL","","314.2999999523163","img/food1.png","76","314.80000001192093","3","1","2","0,0.5,0.8,0.5,0,0.8,0,0.5,0.8,0,0.8,0.5",""
"","html-keyboard-response","113","69010","0.0-113.0","374TNBHA8CHWZFIVNL96WQADOVVYQ5","A1NKBIJQGT0712","3S829FDFT2NBOHQMM1CIOU0HZYXDXL","","null","<img src=""img/food1.png"" style=""width:200px; border:14px solid green;"">","null","","","","","",""
"","image-keyboard-response","114","69310","0.0-114.0","374TNBHA8CHWZFIVNL96WQADOVVYQ5","A1NKBIJQGT0712","3S829FDFT2NBOHQMM1CIOU0HZYXDXL","","299","img/food1.png","76","299.5","3","1","2","0,0.5,0.8,0.5,0,0.8,0,0.5,0.8,0,0.8,0.5",""
"","html-keyboard-response","115","69612","0.0-115.0","374TNBHA8CHWZFIVNL96WQADOVVYQ5","A1NKBIJQGT0712","3S829FDFT2NBOHQMM1CIOU0HZYXDXL","","null","<img src=""img/food1.png"" style=""width:200px; border:14px solid green;"">","null","","","","","",""
"","image-keyboard-response","116","69910","0.0-116.0","374TNBHA8CHWZFIVNL96WQADOVVYQ5","A1NKBIJQGT0712","3S829FDFT2NBOHQMM1CIOU0HZYXDXL","","297.69999998807907","img/food1.png","76","298.30000001192093","3","1","2","0,0.5,0.8,0.5,0,0.8,0,0.5,0.8,0,0.8,0.5",""
"","html-keyboard-response","117","70211","0.0-117.0","374TNBHA8CHWZFIVNL96WQADOVVYQ5","A1NKBIJQGT0712","3S829FDFT2NBOHQMM1CIOU0HZYXDXL","","null","<img src=""img/food1.png"" style=""width:200px; border:14px solid green;"">","null","","","","","",""
"","image-keyboard-response","118","70493","0.0-118.0","374TNBHA8CHWZFIVNL96WQADOVVYQ5","A1NKBIJQGT0712","3S829FDFT2NBOHQMM1CIOU0HZYXDXL","","281.5","img/food4.png","76","282.10000002384186","3","1","1","0,0.5,0.8,0.5,0,0.8,0,0.5,0.8,0,0.8,0.5",""
"","html-keyboard-response","119","70793","0.0-119.0","374TNBHA8CHWZFIVNL96WQADOVVYQ5","A1NKBIJQGT0712","3S829FDFT2NBOHQMM1CIOU0HZYXDXL","","null","<img src=""img/food4.png"" style=""width:200px; border:14px solid green;"">","null","","","","","",""
"","image-keyboard-response","120","71042","0.0-120.0","374TNBHA8CHWZFIVNL96WQADOVVYQ5","A1NKBIJQGT0712","3S829FDFT2NBOHQMM1CIOU0HZYXDXL","","247.80000001192093","img/food4.png","76","248.10000002384186","3","1","1","0,0.5,0.8,0.5,0,0.8,0,0.5,0.8,0,0.8,0.5",""
"","html-keyboard-response","121","71343","0.0-121.0","374TNBHA8CHWZFIVNL96WQADOVVYQ5","A1NKBIJQGT0712","3S829FDFT2NBOHQMM1CIOU0HZYXDXL","","null","<img src=""img/food4.png"" style=""width:200px; border:14px solid green;"">","null","","","","","",""
"","image-keyboard-response","122","71609","0.0-122.0","374TNBHA8CHWZFIVNL96WQADOVVYQ5","A1NKBIJQGT0712","3S829FDFT2NBOHQMM1CIOU0HZYXDXL","","265.19999998807907","img/food3.png","76","265.80000001192093","3","1","3","0,0.5,0.8,0.5,0,0.8,0,0.5,0.8,0,0.8,0.5",""
"","html-keyboard-response","123","71910","0.0-123.0","374TNBHA8CHWZFIVNL96WQADOVVYQ5","A1NKBIJQGT0712","3S829FDFT2NBOHQMM1CIOU0HZYXDXL","","null","<img src=""img/food3.png"" style=""width:200px; border:14px solid green;"">","null","","","","","",""
"","image-keyboard-response","124","72177","0.0-124.0","374TNBHA8CHWZFIVNL96WQADOVVYQ5","A1NKBIJQGT0712","3S829FDFT2NBOHQMM1CIOU0HZYXDXL","","266.0999999642372","img/food4.png","76","266.5","3","1","1","0,0.5,0.8,0.5,0,0.8,0,0.5,0.8,0,0.8,0.5",""
"","html-keyboard-response","125","72479","0.0-125.0","374TNBHA8CHWZFIVNL96WQADOVVYQ5","A1NKBIJQGT0712","3S829FDFT2NBOHQMM1CIOU0HZYXDXL","","null","<img src=""img/food4.png"" style=""width:200px; border:14px solid green;"">","null","","","","","",""
"","image-keyboard-response","126","72742","0.0-126.0","374TNBHA8CHWZFIVNL96WQADOVVYQ5","A1NKBIJQGT0712","3S829FDFT2NBOHQMM1CIOU0HZYXDXL","","262.80000001192093","img/food3.png","76","263.30000001192093","3","0","3","0,0.5,0.8,0.5,0,0.8,0,0.5,0.8,0,0.8,0.5",""
"","html-keyboard-response","127","73043","0.0-127.0","374TNBHA8CHWZFIVNL96WQADOVVYQ5","A1NKBIJQGT0712","3S829FDFT2NBOHQMM1CIOU0HZYXDXL","","null","<img src=""img/food3.png"" style=""width:200px;border:14px solid red;"">","null","","","","","",""
"","image-keyboard-response","128","73309","0.0-128.0","374TNBHA8CHWZFIVNL96WQADOVVYQ5","A1NKBIJQGT0712","3S829FDFT2NBOHQMM1CIOU0HZYXDXL","","265","img/food3.png","76","265.39999997615814","3","1","3","0,0.5,0.8,0.5,0,0.8,0,0.5,0.8,0,0.8,0.5",""
"","html-keyboard-response","129","73610","0.0-129.0","374TNBHA8CHWZFIVNL96WQADOVVYQ5","A1NKBIJQGT0712","3S829FDFT2NBOHQMM1CIOU0HZYXDXL","","null","<img src=""img/food3.png"" style=""width:200px; border:14px solid green;"">","null","","","","","",""
"","image-keyboard-response","130","73860","0.0-130.0","374TNBHA8CHWZFIVNL96WQADOVVYQ5","A1NKBIJQGT0712","3S829FDFT2NBOHQMM1CIOU0HZYXDXL","","249.10000002384186","img/food4.png","76","249.5","3","1","1","0,0.5,0.8,0.5,0,0.8,0,0.5,0.8,0,0.8,0.5",""
"","html-keyboard-response","131","74160","0.0-131.0","374TNBHA8CHWZFIVNL96WQADOVVYQ5","A1NKBIJQGT0712","3S829FDFT2NBOHQMM1CIOU0HZYXDXL","","null","<img src=""img/food4.png"" style=""width:200px; border:14px solid green;"">","null","","","","","",""
"","image-keyboard-response","132","74426","0.0-132.0","374TNBHA8CHWZFIVNL96WQADOVVYQ5","A1NKBIJQGT0712","3S829FDFT2NBOHQMM1CIOU0HZYXDXL","","264.89999997615814","img/food1.png","76","265.5","3","1","2","0,0.5,0.8,0.5,0,0.8,0,0.5,0.8,0,0.8,0.5",""
"","html-keyboard-response","133","74727","0.0-133.0","374TNBHA8CHWZFIVNL96WQADOVVYQ5","A1NKBIJQGT0712","3S829FDFT2NBOHQMM1CIOU0HZYXDXL","","null","<img src=""img/food1.png"" style=""width:200px; border:14px solid green;"">","null","","","","","",""
"","image-keyboard-response","134","74976","0.0-134.0","374TNBHA8CHWZFIVNL96WQADOVVYQ5","A1NKBIJQGT0712","3S829FDFT2NBOHQMM1CIOU0HZYXDXL","","248.19999998807907","img/food1.png","76","248.5","3","1","2","0,0.5,0.8,0.5,0,0.8,0,0.5,0.8,0,0.8,0.5",""
"","html-keyboard-response","135","75277","0.0-135.0","374TNBHA8CHWZFIVNL96WQADOVVYQ5","A1NKBIJQGT0712","3S829FDFT2NBOHQMM1CIOU0HZYXDXL","","null","<img src=""img/food1.png"" style=""width:200px; border:14px solid green;"">","null","","","","","",""
"","image-keyboard-response","136","75542","0.0-136.0","374TNBHA8CHWZFIVNL96WQADOVVYQ5","A1NKBIJQGT0712","3S829FDFT2NBOHQMM1CIOU0HZYXDXL","","264.80000001192093","img/food3.png","76","265.30000001192093","3","1","3","0,0.5,0.8,0.5,0,0.8,0,0.5,0.8,0,0.8,0.5",""
"","html-keyboard-response","137","75843","0.0-137.0","374TNBHA8CHWZFIVNL96WQADOVVYQ5","A1NKBIJQGT0712","3S829FDFT2NBOHQMM1CIOU0HZYXDXL","","null","<img src=""img/food3.png"" style=""width:200px; border:14px solid green;"">","null","","","","","",""
"","image-keyboard-response","138","76109","0.0-138.0","374TNBHA8CHWZFIVNL96WQADOVVYQ5","A1NKBIJQGT0712","3S829FDFT2NBOHQMM1CIOU0HZYXDXL","","264.7999999523163","img/food4.png","76","265.4000000357628","3","1","1","0,0.5,0.8,0.5,0,0.8,0,0.5,0.8,0,0.8,0.5",""
"","html-keyboard-response","139","76410","0.0-139.0","374TNBHA8CHWZFIVNL96WQADOVVYQ5","A1NKBIJQGT0712","3S829FDFT2NBOHQMM1CIOU0HZYXDXL","","null","<img src=""img/food4.png"" style=""width:200px; border:14px solid green;"">","null","","","","","",""
"","image-keyboard-response","140","76676","0.0-140.0","374TNBHA8CHWZFIVNL96WQADOVVYQ5","A1NKBIJQGT0712","3S829FDFT2NBOHQMM1CIOU0HZYXDXL","","265.19999998807907","img/food3.png","76","265.69999998807907","3","1","3","0,0.5,0.8,0.5,0,0.8,0,0.5,0.8,0,0.8,0.5",""
"","html-keyboard-response","141","76978","0.0-141.0","374TNBHA8CHWZFIVNL96WQADOVVYQ5","A1NKBIJQGT0712","3S829FDFT2NBOHQMM1CIOU0HZYXDXL","","null","<img src=""img/food3.png"" style=""width:200px; border:14px solid green;"">","null","","","","","",""
"","image-keyboard-response","142","77226","0.0-142.0","374TNBHA8CHWZFIVNL96WQADOVVYQ5","A1NKBIJQGT0712","3S829FDFT2NBOHQMM1CIOU0HZYXDXL","","248.10000002384186","img/food3.png","76","248.5","3","1","3","0,0.5,0.8,0.5,0,0.8,0,0.5,0.8,0,0.8,0.5",""
"","html-keyboard-response","143","77527","0.0-143.0","374TNBHA8CHWZFIVNL96WQADOVVYQ5","A1NKBIJQGT0712","3S829FDFT2NBOHQMM1CIOU0HZYXDXL","","null","<img src=""img/food3.png"" style=""width:200px; border:14px solid green;"">","null","","","","","",""
"","image-keyboard-response","144","77760","0.0-144.0","374TNBHA8CHWZFIVNL96WQADOVVYQ5","A1NKBIJQGT0712","3S829FDFT2NBOHQMM1CIOU0HZYXDXL","","232","img/food1.png","76","232.5999999642372","3","1","2","0,0.5,0.8,0.5,0,0.8,0,0.5,0.8,0,0.8,0.5",""
"","html-keyboard-response","145","78061","0.0-145.0","374TNBHA8CHWZFIVNL96WQADOVVYQ5","A1NKBIJQGT0712","3S829FDFT2NBOHQMM1CIOU0HZYXDXL","","null","<img src=""img/food1.png"" style=""width:200px; border:14px solid green;"">","null","","","","","",""
"","image-keyboard-response","146","78276","0.0-146.0","374TNBHA8CHWZFIVNL96WQADOVVYQ5","A1NKBIJQGT0712","3S829FDFT2NBOHQMM1CIOU0HZYXDXL","","214.19999998807907","img/food3.png","76","214.80000001192093","3","1","3","0,0.5,0.8,0.5,0,0.8,0,0.5,0.8,0,0.8,0.5",""
"","html-keyboard-response","147","78577","0.0-147.0","374TNBHA8CHWZFIVNL96WQADOVVYQ5","A1NKBIJQGT0712","3S829FDFT2NBOHQMM1CIOU0HZYXDXL","","null","<img src=""img/food3.png"" style=""width:200px; border:14px solid green;"">","null","","","","","",""
"","image-keyboard-response","148","78792","0.0-148.0","374TNBHA8CHWZFIVNL96WQADOVVYQ5","A1NKBIJQGT0712","3S829FDFT2NBOHQMM1CIOU0HZYXDXL","","214.5","img/food1.png","76","214.9000000357628","3","1","2","0,0.5,0.8,0.5,0,0.8,0,0.5,0.8,0,0.8,0.5",""
"","html-keyboard-response","149","79093","0.0-149.0","374TNBHA8CHWZFIVNL96WQADOVVYQ5","A1NKBIJQGT0712","3S829FDFT2NBOHQMM1CIOU0HZYXDXL","","null","<img src=""img/food1.png"" style=""width:200px; border:14px solid green;"">","null","","","","","",""
"","image-keyboard-response","150","79325","0.0-150.0","374TNBHA8CHWZFIVNL96WQADOVVYQ5","A1NKBIJQGT0712","3S829FDFT2NBOHQMM1CIOU0HZYXDXL","","231.0999999642372","img/food1.png","76","231.60000002384186","3","1","2","0,0.5,0.8,0.5,0,0.8,0,0.5,0.8,0,0.8,0.5",""
"","html-keyboard-response","151","79626","0.0-151.0","374TNBHA8CHWZFIVNL96WQADOVVYQ5","A1NKBIJQGT0712","3S829FDFT2NBOHQMM1CIOU0HZYXDXL","","null","<img src=""img/food1.png"" style=""width:200px; border:14px solid green;"">","null","","","","","",""
"","image-keyboard-response","152","79859","0.0-152.0","374TNBHA8CHWZFIVNL96WQADOVVYQ5","A1NKBIJQGT0712","3S829FDFT2NBOHQMM1CIOU0HZYXDXL","","232","img/food1.png","76","232.39999997615814","3","1","2","0,0.5,0.8,0.5,0,0.8,0,0.5,0.8,0,0.8,0.5",""
"","html-keyboard-response","153","80160","0.0-153.0","374TNBHA8CHWZFIVNL96WQADOVVYQ5","A1NKBIJQGT0712","3S829FDFT2NBOHQMM1CIOU0HZYXDXL","","null","<img src=""img/food1.png"" style=""width:200px; border:14px solid green;"">","null","","","","","",""
"","image-keyboard-response","154","80360","0.0-154.0","374TNBHA8CHWZFIVNL96WQADOVVYQ5","A1NKBIJQGT0712","3S829FDFT2NBOHQMM1CIOU0HZYXDXL","","199.19999998807907","img/food4.png","76","199.69999998807907","3","0","1","0,0.5,0.8,0.5,0,0.8,0,0.5,0.8,0,0.8,0.5",""
"","html-keyboard-response","155","80661","0.0-155.0","374TNBHA8CHWZFIVNL96WQADOVVYQ5","A1NKBIJQGT0712","3S829FDFT2NBOHQMM1CIOU0HZYXDXL","","null","<img src=""img/food4.png"" style=""width:200px;border:14px solid red;"">","null","","","","","",""
"","image-keyboard-response","156","80892","0.0-156.0","374TNBHA8CHWZFIVNL96WQADOVVYQ5","A1NKBIJQGT0712","3S829FDFT2NBOHQMM1CIOU0HZYXDXL","","230.29999995231628","img/food1.png","76","230.79999995231628","3","1","2","0,0.5,0.8,0.5,0,0.8,0,0.5,0.8,0,0.8,0.5",""
"","html-keyboard-response","157","81193","0.0-157.0","374TNBHA8CHWZFIVNL96WQADOVVYQ5","A1NKBIJQGT0712","3S829FDFT2NBOHQMM1CIOU0HZYXDXL","","null","<img src=""img/food1.png"" style=""width:200px; border:14px solid green;"">","null","","","","","",""
"","image-keyboard-response","158","81409","0.0-158.0","374TNBHA8CHWZFIVNL96WQADOVVYQ5","A1NKBIJQGT0712","3S829FDFT2NBOHQMM1CIOU0HZYXDXL","","215.10000002384186","img/food3.png","76","215.70000004768372","3","1","3","0,0.5,0.8,0.5,0,0.8,0,0.5,0.8,0,0.8,0.5",""
"","html-keyboard-response","159","81710","0.0-159.0","374TNBHA8CHWZFIVNL96WQADOVVYQ5","A1NKBIJQGT0712","3S829FDFT2NBOHQMM1CIOU0HZYXDXL","","null","<img src=""img/food3.png"" style=""width:200px; border:14px solid green;"">","null","","","","","",""
"","image-keyboard-response","160","81926","0.0-160.0","374TNBHA8CHWZFIVNL96WQADOVVYQ5","A1NKBIJQGT0712","3S829FDFT2NBOHQMM1CIOU0HZYXDXL","","215","img/food3.png","76","215.39999997615814","3","1","3","0,0.5,0.8,0.5,0,0.8,0,0.5,0.8,0,0.8,0.5",""
"","html-keyboard-response","161","82227","0.0-161.0","374TNBHA8CHWZFIVNL96WQADOVVYQ5","A1NKBIJQGT0712","3S829FDFT2NBOHQMM1CIOU0HZYXDXL","","null","<img src=""img/food3.png"" style=""width:200px; border:14px solid green;"">","null","","","","","",""
"","image-keyboard-response","162","82426","0.0-162.0","374TNBHA8CHWZFIVNL96WQADOVVYQ5","A1NKBIJQGT0712","3S829FDFT2NBOHQMM1CIOU0HZYXDXL","","197.9000000357628","img/food4.png","76","198.5","3","0","1","0,0.5,0.8,0.5,0,0.8,0,0.5,0.8,0,0.8,0.5",""
"","html-keyboard-response","163","82727","0.0-163.0","374TNBHA8CHWZFIVNL96WQADOVVYQ5","A1NKBIJQGT0712","3S829FDFT2NBOHQMM1CIOU0HZYXDXL","","null","<img src=""img/food4.png"" style=""width:200px;border:14px solid red;"">","null","","","","","",""
"","image-keyboard-response","164","82942","0.0-164.0","374TNBHA8CHWZFIVNL96WQADOVVYQ5","A1NKBIJQGT0712","3S829FDFT2NBOHQMM1CIOU0HZYXDXL","","213.9000000357628","img/food1.png","76","214.39999997615814","3","1","2","0,0.5,0.8,0.5,0,0.8,0,0.5,0.8,0,0.8,0.5",""
"","html-keyboard-response","165","83243","0.0-165.0","374TNBHA8CHWZFIVNL96WQADOVVYQ5","A1NKBIJQGT0712","3S829FDFT2NBOHQMM1CIOU0HZYXDXL","","null","<img src=""img/food1.png"" style=""width:200px; border:14px solid green;"">","null","","","","","",""
"","image-keyboard-response","166","83425","0.0-166.0","374TNBHA8CHWZFIVNL96WQADOVVYQ5","A1NKBIJQGT0712","3S829FDFT2NBOHQMM1CIOU0HZYXDXL","","181.0999999642372","img/food1.png","76","181.5","3","1","2","0,0.5,0.8,0.5,0,0.8,0,0.5,0.8,0,0.8,0.5",""
"","html-keyboard-response","167","83726","0.0-167.0","374TNBHA8CHWZFIVNL96WQADOVVYQ5","A1NKBIJQGT0712","3S829FDFT2NBOHQMM1CIOU0HZYXDXL","","null","<img src=""img/food1.png"" style=""width:200px; border:14px solid green;"">","null","","","","","",""
"","image-keyboard-response","168","83909","0.0-168.0","374TNBHA8CHWZFIVNL96WQADOVVYQ5","A1NKBIJQGT0712","3S829FDFT2NBOHQMM1CIOU0HZYXDXL","","182.5","img/food1.png","76","183","3","1","2","0,0.5,0.8,0.5,0,0.8,0,0.5,0.8,0,0.8,0.5",""
"","html-keyboard-response","169","84210","0.0-169.0","374TNBHA8CHWZFIVNL96WQADOVVYQ5","A1NKBIJQGT0712","3S829FDFT2NBOHQMM1CIOU0HZYXDXL","","null","<img src=""img/food1.png"" style=""width:200px; border:14px solid green;"">","null","","","","","",""
"","image-keyboard-response","170","84442","0.0-170.0","374TNBHA8CHWZFIVNL96WQADOVVYQ5","A1NKBIJQGT0712","3S829FDFT2NBOHQMM1CIOU0HZYXDXL","","231.19999998807907","img/food4.png","76","231.9000000357628","3","1","1","0,0.5,0.8,0.5,0,0.8,0,0.5,0.8,0,0.8,0.5",""
"","html-keyboard-response","171","84743","0.0-171.0","374TNBHA8CHWZFIVNL96WQADOVVYQ5","A1NKBIJQGT0712","3S829FDFT2NBOHQMM1CIOU0HZYXDXL","","null","<img src=""img/food4.png"" style=""width:200px; border:14px solid green;"">","null","","","","","",""
"","image-keyboard-response","172","84959","0.0-172.0","374TNBHA8CHWZFIVNL96WQADOVVYQ5","A1NKBIJQGT0712","3S829FDFT2NBOHQMM1CIOU0HZYXDXL","","214.80000001192093","img/food1.png","76","215.39999997615814","3","1","2","0,0.5,0.8,0.5,0,0.8,0,0.5,0.8,0,0.8,0.5",""
"","html-keyboard-response","173","85260","0.0-173.0","374TNBHA8CHWZFIVNL96WQADOVVYQ5","A1NKBIJQGT0712","3S829FDFT2NBOHQMM1CIOU0HZYXDXL","","null","<img src=""img/food1.png"" style=""width:200px; border:14px solid green;"">","null","","","","","",""
"","image-keyboard-response","174","85442","0.0-174.0","374TNBHA8CHWZFIVNL96WQADOVVYQ5","A1NKBIJQGT0712","3S829FDFT2NBOHQMM1CIOU0HZYXDXL","","181.4000000357628","img/food3.png","76","182","3","1","3","0,0.5,0.8,0.5,0,0.8,0,0.5,0.8,0,0.8,0.5",""
"","html-keyboard-response","175","85743","0.0-175.0","374TNBHA8CHWZFIVNL96WQADOVVYQ5","A1NKBIJQGT0712","3S829FDFT2NBOHQMM1CIOU0HZYXDXL","","null","<img src=""img/food3.png"" style=""width:200px; border:14px solid green;"">","null","","","","","",""
"","image-keyboard-response","176","85941","0.0-176.0","374TNBHA8CHWZFIVNL96WQADOVVYQ5","A1NKBIJQGT0712","3S829FDFT2NBOHQMM1CIOU0HZYXDXL","","197.10000002384186","img/food4.png","76","197.5","3","1","1","0,0.5,0.8,0.5,0,0.8,0,0.5,0.8,0,0.8,0.5",""
"","html-keyboard-response","177","86242","0.0-177.0","374TNBHA8CHWZFIVNL96WQADOVVYQ5","A1NKBIJQGT0712","3S829FDFT2NBOHQMM1CIOU0HZYXDXL","","null","<img src=""img/food4.png"" style=""width:200px; border:14px solid green;"">","null","","","","","",""
"","image-keyboard-response","178","86442","0.0-178.0","374TNBHA8CHWZFIVNL96WQADOVVYQ5","A1NKBIJQGT0712","3S829FDFT2NBOHQMM1CIOU0HZYXDXL","","199.5","img/food3.png","76","199.89999997615814","3","1","3","0,0.5,0.8,0.5,0,0.8,0,0.5,0.8,0,0.8,0.5",""
"","html-keyboard-response","179","86743","0.0-179.0","374TNBHA8CHWZFIVNL96WQADOVVYQ5","A1NKBIJQGT0712","3S829FDFT2NBOHQMM1CIOU0HZYXDXL","","null","<img src=""img/food3.png"" style=""width:200px; border:14px solid green;"">","null","","","","","",""
"","image-keyboard-response","180","86959","0.0-180.0","374TNBHA8CHWZFIVNL96WQADOVVYQ5","A1NKBIJQGT0712","3S829FDFT2NBOHQMM1CIOU0HZYXDXL","","215.60000002384186","img/food3.png","76","216","3","1","3","0,0.5,0.8,0.5,0,0.8,0,0.5,0.8,0,0.8,0.5",""
"","html-keyboard-response","181","87261","0.0-181.0","374TNBHA8CHWZFIVNL96WQADOVVYQ5","A1NKBIJQGT0712","3S829FDFT2NBOHQMM1CIOU0HZYXDXL","","null","<img src=""img/food3.png"" style=""width:200px; border:14px solid green;"">","null","","","","","",""
"","html-keyboard-response","182","89780","0.0-182.0","374TNBHA8CHWZFIVNL96WQADOVVYQ5","A1NKBIJQGT0712","3S829FDFT2NBOHQMM1CIOU0HZYXDXL","","","","","","","","","",""
"","image-keyboard-response","183","93060","0.0-183.0","374TNBHA8CHWZFIVNL96WQADOVVYQ5","A1NKBIJQGT0712","3S829FDFT2NBOHQMM1CIOU0HZYXDXL","","3279","img/food2.png","74","3279.599999964237","1","1","2","0.8,0.5,0,0.8,0,0.5,0.5,0.8,0,0,0.8,0.5",""
"","html-keyboard-response","184","93361","0.0-184.0","374TNBHA8CHWZFIVNL96WQADOVVYQ5","A1NKBIJQGT0712","3S829FDFT2NBOHQMM1CIOU0HZYXDXL","","null","<img src=""img/food2.png"" style=""width:200px; border:14px solid green;"">","null","","","","","",""
"","image-keyboard-response","185","94310","0.0-185.0","374TNBHA8CHWZFIVNL96WQADOVVYQ5","A1NKBIJQGT0712","3S829FDFT2NBOHQMM1CIOU0HZYXDXL","","948","img/food6.png","75","948.5999999642372","2","1","3","0.8,0.5,0,0.8,0,0.5,0.5,0.8,0,0,0.8,0.5",""
"","html-keyboard-response","186","94612","0.0-186.0","374TNBHA8CHWZFIVNL96WQADOVVYQ5","A1NKBIJQGT0712","3S829FDFT2NBOHQMM1CIOU0HZYXDXL","","null","<img src=""img/food6.png"" style=""width:200px; border:14px solid green;"">","null","","","","","",""
"","image-keyboard-response","187","95160","0.0-187.0","374TNBHA8CHWZFIVNL96WQADOVVYQ5","A1NKBIJQGT0712","3S829FDFT2NBOHQMM1CIOU0HZYXDXL","","547.6999999880791","img/food6.png","75","548.1000000238419","2","0","3","0.8,0.5,0,0.8,0,0.5,0.5,0.8,0,0,0.8,0.5",""
"","html-keyboard-response","188","95461","0.0-188.0","374TNBHA8CHWZFIVNL96WQADOVVYQ5","A1NKBIJQGT0712","3S829FDFT2NBOHQMM1CIOU0HZYXDXL","","null","<img src=""img/food6.png"" style=""width:200px;border:14px solid red;"">","null","","","","","",""
"","image-keyboard-response","189","96042","0.0-189.0","374TNBHA8CHWZFIVNL96WQADOVVYQ5","A1NKBIJQGT0712","3S829FDFT2NBOHQMM1CIOU0HZYXDXL","","580.5","img/food5.png","76","581","3","0","1","0.8,0.5,0,0.8,0,0.5,0.5,0.8,0,0,0.8,0.5",""
"","html-keyboard-response","190","96343","0.0-190.0","374TNBHA8CHWZFIVNL96WQADOVVYQ5","A1NKBIJQGT0712","3S829FDFT2NBOHQMM1CIOU0HZYXDXL","","null","<img src=""img/food5.png"" style=""width:200px;border:14px solid red;"">","null","","","","","",""
"","image-keyboard-response","191","97191","0.0-191.0","374TNBHA8CHWZFIVNL96WQADOVVYQ5","A1NKBIJQGT0712","3S829FDFT2NBOHQMM1CIOU0HZYXDXL","","846.9000000357628","img/food6.png","75","847.5","2","1","3","0.8,0.5,0,0.8,0,0.5,0.5,0.8,0,0,0.8,0.5",""
"","html-keyboard-response","192","97492","0.0-192.0","374TNBHA8CHWZFIVNL96WQADOVVYQ5","A1NKBIJQGT0712","3S829FDFT2NBOHQMM1CIOU0HZYXDXL","","null","<img src=""img/food6.png"" style=""width:200px; border:14px solid green;"">","null","","","","","",""
"","image-keyboard-response","193","98341","0.0-193.0","374TNBHA8CHWZFIVNL96WQADOVVYQ5","A1NKBIJQGT0712","3S829FDFT2NBOHQMM1CIOU0HZYXDXL","","848.2999999523163","img/food2.png","74","848.9000000357628","1","1","2","0.8,0.5,0,0.8,0,0.5,0.5,0.8,0,0,0.8,0.5",""
"","html-keyboard-response","194","98642","0.0-194.0","374TNBHA8CHWZFIVNL96WQADOVVYQ5","A1NKBIJQGT0712","3S829FDFT2NBOHQMM1CIOU0HZYXDXL","","null","<img src=""img/food2.png"" style=""width:200px; border:14px solid green;"">","null","","","","","",""
"","image-keyboard-response","195","100075","0.0-195.0","374TNBHA8CHWZFIVNL96WQADOVVYQ5","A1NKBIJQGT0712","3S829FDFT2NBOHQMM1CIOU0HZYXDXL","","1432.8999999761581","img/food5.png","74","1433.300000011921","1","1","1","0.8,0.5,0,0.8,0,0.5,0.5,0.8,0,0,0.8,0.5",""
"","html-keyboard-response","196","100376","0.0-196.0","374TNBHA8CHWZFIVNL96WQADOVVYQ5","A1NKBIJQGT0712","3S829FDFT2NBOHQMM1CIOU0HZYXDXL","","null","<img src=""img/food5.png"" style=""width:200px; border:14px solid green;"">","null","","","","","",""
"","image-keyboard-response","197","101159","0.0-197.0","374TNBHA8CHWZFIVNL96WQADOVVYQ5","A1NKBIJQGT0712","3S829FDFT2NBOHQMM1CIOU0HZYXDXL","","781.3999999761581","img/food2.png","75","782","2","0","2","0.8,0.5,0,0.8,0,0.5,0.5,0.8,0,0,0.8,0.5",""
"","html-keyboard-response","198","101461","0.0-198.0","374TNBHA8CHWZFIVNL96WQADOVVYQ5","A1NKBIJQGT0712","3S829FDFT2NBOHQMM1CIOU0HZYXDXL","","null","<img src=""img/food2.png"" style=""width:200px;border:14px solid red;"">","null","","","","","",""
"","image-keyboard-response","199","101809","0.0-199.0","374TNBHA8CHWZFIVNL96WQADOVVYQ5","A1NKBIJQGT0712","3S829FDFT2NBOHQMM1CIOU0HZYXDXL","","346.89999997615814","img/food2.png","74","347.5","1","1","2","0.8,0.5,0,0.8,0,0.5,0.5,0.8,0,0,0.8,0.5",""
"","html-keyboard-response","200","102110","0.0-200.0","374TNBHA8CHWZFIVNL96WQADOVVYQ5","A1NKBIJQGT0712","3S829FDFT2NBOHQMM1CIOU0HZYXDXL","","null","<img src=""img/food2.png"" style=""width:200px; border:14px solid green;"">","null","","","","","",""
"","image-keyboard-response","201","102492","0.0-201.0","374TNBHA8CHWZFIVNL96WQADOVVYQ5","A1NKBIJQGT0712","3S829FDFT2NBOHQMM1CIOU0HZYXDXL","","381.39999997615814","img/food2.png","74","381.89999997615814","1","0","2","0.8,0.5,0,0.8,0,0.5,0.5,0.8,0,0,0.8,0.5",""
"","html-keyboard-response","202","102793","0.0-202.0","374TNBHA8CHWZFIVNL96WQADOVVYQ5","A1NKBIJQGT0712","3S829FDFT2NBOHQMM1CIOU0HZYXDXL","","null","<img src=""img/food2.png"" style=""width:200px;border:14px solid red;"">","null","","","","","",""
"","image-keyboard-response","203","103159","0.0-203.0","374TNBHA8CHWZFIVNL96WQADOVVYQ5","A1NKBIJQGT0712","3S829FDFT2NBOHQMM1CIOU0HZYXDXL","","365.39999997615814","img/food2.png","74","366.10000002384186","1","0","2","0.8,0.5,0,0.8,0,0.5,0.5,0.8,0,0,0.8,0.5",""
"","html-keyboard-response","204","103460","0.0-204.0","374TNBHA8CHWZFIVNL96WQADOVVYQ5","A1NKBIJQGT0712","3S829FDFT2NBOHQMM1CIOU0HZYXDXL","","null","<img src=""img/food2.png"" style=""width:200px;border:14px solid red;"">","null","","","","","",""
"","image-keyboard-response","205","104392","0.0-205.0","374TNBHA8CHWZFIVNL96WQADOVVYQ5","A1NKBIJQGT0712","3S829FDFT2NBOHQMM1CIOU0HZYXDXL","","931.8000000119209","img/food2.png","74","932.3000000119209","1","1","2","0.8,0.5,0,0.8,0,0.5,0.5,0.8,0,0,0.8,0.5",""
"","html-keyboard-response","206","104693","0.0-206.0","374TNBHA8CHWZFIVNL96WQADOVVYQ5","A1NKBIJQGT0712","3S829FDFT2NBOHQMM1CIOU0HZYXDXL","","null","<img src=""img/food2.png"" style=""width:200px; border:14px solid green;"">","null","","","","","",""
"","image-keyboard-response","207","105008","0.0-207.0","374TNBHA8CHWZFIVNL96WQADOVVYQ5","A1NKBIJQGT0712","3S829FDFT2NBOHQMM1CIOU0HZYXDXL","","314.5","img/food2.png","74","315","1","1","2","0.8,0.5,0,0.8,0,0.5,0.5,0.8,0,0,0.8,0.5",""
"","html-keyboard-response","208","105309","0.0-208.0","374TNBHA8CHWZFIVNL96WQADOVVYQ5","A1NKBIJQGT0712","3S829FDFT2NBOHQMM1CIOU0HZYXDXL","","null","<img src=""img/food2.png"" style=""width:200px; border:14px solid green;"">","null","","","","","",""
"","image-keyboard-response","209","105626","0.0-209.0","374TNBHA8CHWZFIVNL96WQADOVVYQ5","A1NKBIJQGT0712","3S829FDFT2NBOHQMM1CIOU0HZYXDXL","","316.80000001192093","img/food2.png","74","317.30000001192093","1","0","2","0.8,0.5,0,0.8,0,0.5,0.5,0.8,0,0,0.8,0.5",""
"","html-keyboard-response","210","105927","0.0-210.0","374TNBHA8CHWZFIVNL96WQADOVVYQ5","A1NKBIJQGT0712","3S829FDFT2NBOHQMM1CIOU0HZYXDXL","","null","<img src=""img/food2.png"" style=""width:200px;border:14px solid red;"">","null","","","","","",""
"","image-keyboard-response","211","106909","0.0-211.0","374TNBHA8CHWZFIVNL96WQADOVVYQ5","A1NKBIJQGT0712","3S829FDFT2NBOHQMM1CIOU0HZYXDXL","","981.1000000238419","img/food5.png","74","981.5","1","1","1","0.8,0.5,0,0.8,0,0.5,0.5,0.8,0,0,0.8,0.5",""
"","html-keyboard-response","212","107211","0.0-212.0","374TNBHA8CHWZFIVNL96WQADOVVYQ5","A1NKBIJQGT0712","3S829FDFT2NBOHQMM1CIOU0HZYXDXL","","null","<img src=""img/food5.png"" style=""width:200px; border:14px solid green;"">","null","","","","","",""
"","image-keyboard-response","213","107542","0.0-213.0","374TNBHA8CHWZFIVNL96WQADOVVYQ5","A1NKBIJQGT0712","3S829FDFT2NBOHQMM1CIOU0HZYXDXL","","330.60000002384186","img/food5.png","74","331.2000000476837","1","1","1","0.8,0.5,0,0.8,0,0.5,0.5,0.8,0,0,0.8,0.5",""
"","html-keyboard-response","214","107843","0.0-214.0","374TNBHA8CHWZFIVNL96WQADOVVYQ5","A1NKBIJQGT0712","3S829FDFT2NBOHQMM1CIOU0HZYXDXL","","null","<img src=""img/food5.png"" style=""width:200px; border:14px solid green;"">","null","","","","","",""
"","image-keyboard-response","215","108626","0.0-215.0","374TNBHA8CHWZFIVNL96WQADOVVYQ5","A1NKBIJQGT0712","3S829FDFT2NBOHQMM1CIOU0HZYXDXL","","782.3999999761581","img/food2.png","74","783","1","1","2","0.8,0.5,0,0.8,0,0.5,0.5,0.8,0,0,0.8,0.5",""
"","html-keyboard-response","216","108927","0.0-216.0","374TNBHA8CHWZFIVNL96WQADOVVYQ5","A1NKBIJQGT0712","3S829FDFT2NBOHQMM1CIOU0HZYXDXL","","null","<img src=""img/food2.png"" style=""width:200px; border:14px solid green;"">","null","","","","","",""
"","image-keyboard-response","217","109226","0.0-217.0","374TNBHA8CHWZFIVNL96WQADOVVYQ5","A1NKBIJQGT0712","3S829FDFT2NBOHQMM1CIOU0HZYXDXL","","298.39999997615814","img/food2.png","74","298.9000000357628","1","1","2","0.8,0.5,0,0.8,0,0.5,0.5,0.8,0,0,0.8,0.5",""
"","html-keyboard-response","218","109528","0.0-218.0","374TNBHA8CHWZFIVNL96WQADOVVYQ5","A1NKBIJQGT0712","3S829FDFT2NBOHQMM1CIOU0HZYXDXL","","null","<img src=""img/food2.png"" style=""width:200px; border:14px solid green;"">","null","","","","","",""
"","image-keyboard-response","219","109908","0.0-219.0","374TNBHA8CHWZFIVNL96WQADOVVYQ5","A1NKBIJQGT0712","3S829FDFT2NBOHQMM1CIOU0HZYXDXL","","379.7999999523163","img/food5.png","74","380.30000001192093","1","1","1","0.8,0.5,0,0.8,0,0.5,0.5,0.8,0,0,0.8,0.5",""
"","html-keyboard-response","220","110209","0.0-220.0","374TNBHA8CHWZFIVNL96WQADOVVYQ5","A1NKBIJQGT0712","3S829FDFT2NBOHQMM1CIOU0HZYXDXL","","null","<img src=""img/food5.png"" style=""width:200px; border:14px solid green;"">","null","","","","","",""
"","image-keyboard-response","221","110659","0.0-221.0","374TNBHA8CHWZFIVNL96WQADOVVYQ5","A1NKBIJQGT0712","3S829FDFT2NBOHQMM1CIOU0HZYXDXL","","448.9000000357628","img/food2.png","74","450","1","1","2","0.8,0.5,0,0.8,0,0.5,0.5,0.8,0,0,0.8,0.5",""
"","html-keyboard-response","222","110960","0.0-222.0","374TNBHA8CHWZFIVNL96WQADOVVYQ5","A1NKBIJQGT0712","3S829FDFT2NBOHQMM1CIOU0HZYXDXL","","null","<img src=""img/food2.png"" style=""width:200px; border:14px solid green;"">","null","","","","","",""
"","image-keyboard-response","223","111342","0.0-223.0","374TNBHA8CHWZFIVNL96WQADOVVYQ5","A1NKBIJQGT0712","3S829FDFT2NBOHQMM1CIOU0HZYXDXL","","381.5","img/food5.png","74","382","1","1","1","0.8,0.5,0,0.8,0,0.5,0.5,0.8,0,0,0.8,0.5",""
"","html-keyboard-response","224","111643","0.0-224.0","374TNBHA8CHWZFIVNL96WQADOVVYQ5","A1NKBIJQGT0712","3S829FDFT2NBOHQMM1CIOU0HZYXDXL","","null","<img src=""img/food5.png"" style=""width:200px; border:14px solid green;"">","null","","","","","",""
"","image-keyboard-response","225","112058","0.0-225.0","374TNBHA8CHWZFIVNL96WQADOVVYQ5","A1NKBIJQGT0712","3S829FDFT2NBOHQMM1CIOU0HZYXDXL","","414.0999999642372","img/food5.png","74","414.7000000476837","1","1","1","0.8,0.5,0,0.8,0,0.5,0.5,0.8,0,0,0.8,0.5",""
"","html-keyboard-response","226","112360","0.0-226.0","374TNBHA8CHWZFIVNL96WQADOVVYQ5","A1NKBIJQGT0712","3S829FDFT2NBOHQMM1CIOU0HZYXDXL","","null","<img src=""img/food5.png"" style=""width:200px; border:14px solid green;"">","null","","","","","",""
"","image-keyboard-response","227","112692","0.0-227.0","374TNBHA8CHWZFIVNL96WQADOVVYQ5","A1NKBIJQGT0712","3S829FDFT2NBOHQMM1CIOU0HZYXDXL","","332","img/food5.png","74","332.5","1","1","1","0.8,0.5,0,0.8,0,0.5,0.5,0.8,0,0,0.8,0.5",""
"","html-keyboard-response","228","112994","0.0-228.0","374TNBHA8CHWZFIVNL96WQADOVVYQ5","A1NKBIJQGT0712","3S829FDFT2NBOHQMM1CIOU0HZYXDXL","","null","<img src=""img/food5.png"" style=""width:200px; border:14px solid green;"">","null","","","","","",""
"","image-keyboard-response","229","113625","0.0-229.0","374TNBHA8CHWZFIVNL96WQADOVVYQ5","A1NKBIJQGT0712","3S829FDFT2NBOHQMM1CIOU0HZYXDXL","","630.8999999761581","img/food6.png","76","631.5","3","0","3","0.8,0.5,0,0.8,0,0.5,0.5,0.8,0,0,0.8,0.5",""
"","html-keyboard-response","230","113926","0.0-230.0","374TNBHA8CHWZFIVNL96WQADOVVYQ5","A1NKBIJQGT0712","3S829FDFT2NBOHQMM1CIOU0HZYXDXL","","null","<img src=""img/food6.png"" style=""width:200px;border:14px solid red;"">","null","","","","","",""
"","image-keyboard-response","231","114525","0.0-231.0","374TNBHA8CHWZFIVNL96WQADOVVYQ5","A1NKBIJQGT0712","3S829FDFT2NBOHQMM1CIOU0HZYXDXL","","598.3999999761581","img/food2.png","74","598.9000000357628","1","1","2","0.8,0.5,0,0.8,0,0.5,0.5,0.8,0,0,0.8,0.5",""
"","html-keyboard-response","232","114826","0.0-232.0","374TNBHA8CHWZFIVNL96WQADOVVYQ5","A1NKBIJQGT0712","3S829FDFT2NBOHQMM1CIOU0HZYXDXL","","null","<img src=""img/food2.png"" style=""width:200px; border:14px solid green;"">","null","","","","","",""
"","image-keyboard-response","233","115391","0.0-233.0","374TNBHA8CHWZFIVNL96WQADOVVYQ5","A1NKBIJQGT0712","3S829FDFT2NBOHQMM1CIOU0HZYXDXL","","564.5","img/food6.png","76","565","3","0","3","0.8,0.5,0,0.8,0,0.5,0.5,0.8,0,0,0.8,0.5",""
"","html-keyboard-response","234","115693","0.0-234.0","374TNBHA8CHWZFIVNL96WQADOVVYQ5","A1NKBIJQGT0712","3S829FDFT2NBOHQMM1CIOU0HZYXDXL","","null","<img src=""img/food6.png"" style=""width:200px;border:14px solid red;"">","null","","","","","",""
"","image-keyboard-response","235","116308","0.0-235.0","374TNBHA8CHWZFIVNL96WQADOVVYQ5","A1NKBIJQGT0712","3S829FDFT2NBOHQMM1CIOU0HZYXDXL","","614.7999999523163","img/food6.png","75","615.3000000119209","2","1","3","0.8,0.5,0,0.8,0,0.5,0.5,0.8,0,0,0.8,0.5",""
"","html-keyboard-response","236","116609","0.0-236.0","374TNBHA8CHWZFIVNL96WQADOVVYQ5","A1NKBIJQGT0712","3S829FDFT2NBOHQMM1CIOU0HZYXDXL","","null","<img src=""img/food6.png"" style=""width:200px; border:14px solid green;"">","null","","","","","",""
"","image-keyboard-response","237","117091","0.0-237.0","374TNBHA8CHWZFIVNL96WQADOVVYQ5","A1NKBIJQGT0712","3S829FDFT2NBOHQMM1CIOU0HZYXDXL","","481.39999997615814","img/food5.png","74","481.89999997615814","1","1","1","0.8,0.5,0,0.8,0,0.5,0.5,0.8,0,0,0.8,0.5",""
"","html-keyboard-response","238","117393","0.0-238.0","374TNBHA8CHWZFIVNL96WQADOVVYQ5","A1NKBIJQGT0712","3S829FDFT2NBOHQMM1CIOU0HZYXDXL","","null","<img src=""img/food5.png"" style=""width:200px; border:14px solid green;"">","null","","","","","",""
"","image-keyboard-response","239","117841","0.0-239.0","374TNBHA8CHWZFIVNL96WQADOVVYQ5","A1NKBIJQGT0712","3S829FDFT2NBOHQMM1CIOU0HZYXDXL","","447.4000000357628","img/food2.png","74","447.9000000357628","1","1","2","0.8,0.5,0,0.8,0,0.5,0.5,0.8,0,0,0.8,0.5",""
"","html-keyboard-response","240","118141","0.0-240.0","374TNBHA8CHWZFIVNL96WQADOVVYQ5","A1NKBIJQGT0712","3S829FDFT2NBOHQMM1CIOU0HZYXDXL","","null","<img src=""img/food2.png"" style=""width:200px; border:14px solid green;"">","null","","","","","",""
"","image-keyboard-response","241","118659","0.0-241.0","374TNBHA8CHWZFIVNL96WQADOVVYQ5","A1NKBIJQGT0712","3S829FDFT2NBOHQMM1CIOU0HZYXDXL","","516.6000000238419","img/food5.png","75","517.1000000238419","2","1","1","0.8,0.5,0,0.8,0,0.5,0.5,0.8,0,0,0.8,0.5",""
"","html-keyboard-response","242","118960","0.0-242.0","374TNBHA8CHWZFIVNL96WQADOVVYQ5","A1NKBIJQGT0712","3S829FDFT2NBOHQMM1CIOU0HZYXDXL","","null","<img src=""img/food5.png"" style=""width:200px; border:14px solid green;"">","null","","","","","",""
"","image-keyboard-response","243","119442","0.0-243.0","374TNBHA8CHWZFIVNL96WQADOVVYQ5","A1NKBIJQGT0712","3S829FDFT2NBOHQMM1CIOU0HZYXDXL","","480.89999997615814","img/food2.png","74","481.19999998807907","1","1","2","0.8,0.5,0,0.8,0,0.5,0.5,0.8,0,0,0.8,0.5",""
"","html-keyboard-response","244","119743","0.0-244.0","374TNBHA8CHWZFIVNL96WQADOVVYQ5","A1NKBIJQGT0712","3S829FDFT2NBOHQMM1CIOU0HZYXDXL","","null","<img src=""img/food2.png"" style=""width:200px; border:14px solid green;"">","null","","","","","",""
"","image-keyboard-response","245","120276","0.0-245.0","374TNBHA8CHWZFIVNL96WQADOVVYQ5","A1NKBIJQGT0712","3S829FDFT2NBOHQMM1CIOU0HZYXDXL","","531.8999999761581","img/food6.png","75","532.4000000357628","2","0","3","0.8,0.5,0,0.8,0,0.5,0.5,0.8,0,0,0.8,0.5",""
"","html-keyboard-response","246","120577","0.0-246.0","374TNBHA8CHWZFIVNL96WQADOVVYQ5","A1NKBIJQGT0712","3S829FDFT2NBOHQMM1CIOU0HZYXDXL","","null","<img src=""img/food6.png"" style=""width:200px;border:14px solid red;"">","null","","","","","",""
"","image-keyboard-response","247","120975","0.0-247.0","374TNBHA8CHWZFIVNL96WQADOVVYQ5","A1NKBIJQGT0712","3S829FDFT2NBOHQMM1CIOU0HZYXDXL","","398","img/food5.png","74","398.5","1","1","1","0.8,0.5,0,0.8,0,0.5,0.5,0.8,0,0,0.8,0.5",""
"","html-keyboard-response","248","121277","0.0-248.0","374TNBHA8CHWZFIVNL96WQADOVVYQ5","A1NKBIJQGT0712","3S829FDFT2NBOHQMM1CIOU0HZYXDXL","","null","<img src=""img/food5.png"" style=""width:200px; border:14px solid green;"">","null","","","","","",""
"","image-keyboard-response","249","121726","0.0-249.0","374TNBHA8CHWZFIVNL96WQADOVVYQ5","A1NKBIJQGT0712","3S829FDFT2NBOHQMM1CIOU0HZYXDXL","","448.19999998807907","img/food6.png","75","449","2","1","3","0.8,0.5,0,0.8,0,0.5,0.5,0.8,0,0,0.8,0.5",""
"","html-keyboard-response","250","122026","0.0-250.0","374TNBHA8CHWZFIVNL96WQADOVVYQ5","A1NKBIJQGT0712","3S829FDFT2NBOHQMM1CIOU0HZYXDXL","","null","<img src=""img/food6.png"" style=""width:200px; border:14px solid green;"">","null","","","","","",""
"","image-keyboard-response","251","122376","0.0-251.0","374TNBHA8CHWZFIVNL96WQADOVVYQ5","A1NKBIJQGT0712","3S829FDFT2NBOHQMM1CIOU0HZYXDXL","","348.9000000357628","img/food5.png","74","349.30000001192093","1","0","1","0.8,0.5,0,0.8,0,0.5,0.5,0.8,0,0,0.8,0.5",""
"","html-keyboard-response","252","122677","0.0-252.0","374TNBHA8CHWZFIVNL96WQADOVVYQ5","A1NKBIJQGT0712","3S829FDFT2NBOHQMM1CIOU0HZYXDXL","","null","<img src=""img/food5.png"" style=""width:200px;border:14px solid red;"">","null","","","","","",""
"","image-keyboard-response","253","123076","0.0-253.0","374TNBHA8CHWZFIVNL96WQADOVVYQ5","A1NKBIJQGT0712","3S829FDFT2NBOHQMM1CIOU0HZYXDXL","","398.30000001192093","img/food6.png","74","398.80000001192093","1","1","3","0.8,0.5,0,0.8,0,0.5,0.5,0.8,0,0,0.8,0.5",""
"","html-keyboard-response","254","123377","0.0-254.0","374TNBHA8CHWZFIVNL96WQADOVVYQ5","A1NKBIJQGT0712","3S829FDFT2NBOHQMM1CIOU0HZYXDXL","","null","<img src=""img/food6.png"" style=""width:200px; border:14px solid green;"">","null","","","","","",""
"","image-keyboard-response","255","123859","0.0-255.0","374TNBHA8CHWZFIVNL96WQADOVVYQ5","A1NKBIJQGT0712","3S829FDFT2NBOHQMM1CIOU0HZYXDXL","","481.30000001192093","img/food6.png","74","481.80000001192093","1","0","3","0.8,0.5,0,0.8,0,0.5,0.5,0.8,0,0,0.8,0.5",""
"","html-keyboard-response","256","124172","0.0-256.0","374TNBHA8CHWZFIVNL96WQADOVVYQ5","A1NKBIJQGT0712","3S829FDFT2NBOHQMM1CIOU0HZYXDXL","","null","<img src=""img/food6.png"" style=""width:200px;border:14px solid red;"">","null","","","","","",""
"","image-keyboard-response","257","124792","0.0-257.0","374TNBHA8CHWZFIVNL96WQADOVVYQ5","A1NKBIJQGT0712","3S829FDFT2NBOHQMM1CIOU0HZYXDXL","","619.3999999761581","img/food5.png","74","619.9000000357628","1","1","1","0.8,0.5,0,0.8,0,0.5,0.5,0.8,0,0,0.8,0.5",""
"","html-keyboard-response","258","125093","0.0-258.0","374TNBHA8CHWZFIVNL96WQADOVVYQ5","A1NKBIJQGT0712","3S829FDFT2NBOHQMM1CIOU0HZYXDXL","","null","<img src=""img/food5.png"" style=""width:200px; border:14px solid green;"">","null","","","","","",""
"","image-keyboard-response","259","125559","0.0-259.0","374TNBHA8CHWZFIVNL96WQADOVVYQ5","A1NKBIJQGT0712","3S829FDFT2NBOHQMM1CIOU0HZYXDXL","","465.5","img/food6.png","74","466.10000002384186","1","0","3","0.8,0.5,0,0.8,0,0.5,0.5,0.8,0,0,0.8,0.5",""
"","html-keyboard-response","260","125860","0.0-260.0","374TNBHA8CHWZFIVNL96WQADOVVYQ5","A1NKBIJQGT0712","3S829FDFT2NBOHQMM1CIOU0HZYXDXL","","null","<img src=""img/food6.png"" style=""width:200px;border:14px solid red;"">","null","","","","","",""
"","image-keyboard-response","261","126260","0.0-261.0","374TNBHA8CHWZFIVNL96WQADOVVYQ5","A1NKBIJQGT0712","3S829FDFT2NBOHQMM1CIOU0HZYXDXL","","399","img/food5.png","74","399.4000000357628","1","0","1","0.8,0.5,0,0.8,0,0.5,0.5,0.8,0,0,0.8,0.5",""
"","html-keyboard-response","262","126561","0.0-262.0","374TNBHA8CHWZFIVNL96WQADOVVYQ5","A1NKBIJQGT0712","3S829FDFT2NBOHQMM1CIOU0HZYXDXL","","null","<img src=""img/food5.png"" style=""width:200px;border:14px solid red;"">","null","","","","","",""
"","image-keyboard-response","263","126891","0.0-263.0","374TNBHA8CHWZFIVNL96WQADOVVYQ5","A1NKBIJQGT0712","3S829FDFT2NBOHQMM1CIOU0HZYXDXL","","329.80000001192093","img/food5.png","74","330.39999997615814","1","0","1","0.8,0.5,0,0.8,0,0.5,0.5,0.8,0,0,0.8,0.5",""
"","html-keyboard-response","264","127193","0.0-264.0","374TNBHA8CHWZFIVNL96WQADOVVYQ5","A1NKBIJQGT0712","3S829FDFT2NBOHQMM1CIOU0HZYXDXL","","null","<img src=""img/food5.png"" style=""width:200px;border:14px solid red;"">","null","","","","","",""
"","image-keyboard-response","265","127775","0.0-265.0","374TNBHA8CHWZFIVNL96WQADOVVYQ5","A1NKBIJQGT0712","3S829FDFT2NBOHQMM1CIOU0HZYXDXL","","581.0999999642372","img/food6.png","75","581.6000000238419","2","1","3","0.8,0.5,0,0.8,0,0.5,0.5,0.8,0,0,0.8,0.5",""
"","html-keyboard-response","266","128075","0.0-266.0","374TNBHA8CHWZFIVNL96WQADOVVYQ5","A1NKBIJQGT0712","3S829FDFT2NBOHQMM1CIOU0HZYXDXL","","null","<img src=""img/food6.png"" style=""width:200px; border:14px solid green;"">","null","","","","","",""
"","image-keyboard-response","267","128609","0.0-267.0","374TNBHA8CHWZFIVNL96WQADOVVYQ5","A1NKBIJQGT0712","3S829FDFT2NBOHQMM1CIOU0HZYXDXL","","532.7999999523163","img/food2.png","74","533.3000000119209","1","1","2","0.8,0.5,0,0.8,0,0.5,0.5,0.8,0,0,0.8,0.5",""
"","html-keyboard-response","268","128909","0.0-268.0","374TNBHA8CHWZFIVNL96WQADOVVYQ5","A1NKBIJQGT0712","3S829FDFT2NBOHQMM1CIOU0HZYXDXL","","null","<img src=""img/food2.png"" style=""width:200px; border:14px solid green;"">","null","","","","","",""
"","image-keyboard-response","269","129392","0.0-269.0","374TNBHA8CHWZFIVNL96WQADOVVYQ5","A1NKBIJQGT0712","3S829FDFT2NBOHQMM1CIOU0HZYXDXL","","481.5","img/food5.png","74","482.10000002384186","1","0","1","0.8,0.5,0,0.8,0,0.5,0.5,0.8,0,0,0.8,0.5",""
"","html-keyboard-response","270","129693","0.0-270.0","374TNBHA8CHWZFIVNL96WQADOVVYQ5","A1NKBIJQGT0712","3S829FDFT2NBOHQMM1CIOU0HZYXDXL","","null","<img src=""img/food5.png"" style=""width:200px;border:14px solid red;"">","null","","","","","",""
"","image-keyboard-response","271","130175","0.0-271.0","374TNBHA8CHWZFIVNL96WQADOVVYQ5","A1NKBIJQGT0712","3S829FDFT2NBOHQMM1CIOU0HZYXDXL","","481.10000002384186","img/food6.png","75","481.5","2","1","3","0.8,0.5,0,0.8,0,0.5,0.5,0.8,0,0,0.8,0.5",""
"","html-keyboard-response","272","130475","0.0-272.0","374TNBHA8CHWZFIVNL96WQADOVVYQ5","A1NKBIJQGT0712","3S829FDFT2NBOHQMM1CIOU0HZYXDXL","","null","<img src=""img/food6.png"" style=""width:200px; border:14px solid green;"">","null","","","","","",""
"","image-keyboard-response","273","130991","0.0-273.0","374TNBHA8CHWZFIVNL96WQADOVVYQ5","A1NKBIJQGT0712","3S829FDFT2NBOHQMM1CIOU0HZYXDXL","","514.6000000238419","img/food5.png","75","515.1000000238419","2","1","1","0.8,0.5,0,0.8,0,0.5,0.5,0.8,0,0,0.8,0.5",""
"","html-keyboard-response","274","131291","0.0-274.0","374TNBHA8CHWZFIVNL96WQADOVVYQ5","A1NKBIJQGT0712","3S829FDFT2NBOHQMM1CIOU0HZYXDXL","","null","<img src=""img/food5.png"" style=""width:200px; border:14px solid green;"">","null","","","","","",""
"","image-keyboard-response","275","131741","0.0-275.0","374TNBHA8CHWZFIVNL96WQADOVVYQ5","A1NKBIJQGT0712","3S829FDFT2NBOHQMM1CIOU0HZYXDXL","","448.30000001192093","img/food6.png","75","449","2","1","3","0.8,0.5,0,0.8,0,0.5,0.5,0.8,0,0,0.8,0.5",""
"","html-keyboard-response","276","132042","0.0-276.0","374TNBHA8CHWZFIVNL96WQADOVVYQ5","A1NKBIJQGT0712","3S829FDFT2NBOHQMM1CIOU0HZYXDXL","","null","<img src=""img/food6.png"" style=""width:200px; border:14px solid green;"">","null","","","","","",""
"","image-keyboard-response","277","132409","0.0-277.0","374TNBHA8CHWZFIVNL96WQADOVVYQ5","A1NKBIJQGT0712","3S829FDFT2NBOHQMM1CIOU0HZYXDXL","","366","img/food5.png","75","366.60000002384186","2","0","1","0.8,0.5,0,0.8,0,0.5,0.5,0.8,0,0,0.8,0.5",""
"","html-keyboard-response","278","132710","0.0-278.0","374TNBHA8CHWZFIVNL96WQADOVVYQ5","A1NKBIJQGT0712","3S829FDFT2NBOHQMM1CIOU0HZYXDXL","","null","<img src=""img/food5.png"" style=""width:200px;border:14px solid red;"">","null","","","","","",""
"","image-keyboard-response","279","133742","0.0-279.0","374TNBHA8CHWZFIVNL96WQADOVVYQ5","A1NKBIJQGT0712","3S829FDFT2NBOHQMM1CIOU0HZYXDXL","","1031.4000000357628","img/food2.png","74","1031.8999999761581","1","1","2","0.8,0.5,0,0.8,0,0.5,0.5,0.8,0,0,0.8,0.5",""
"","html-keyboard-response","280","134043","0.0-280.0","374TNBHA8CHWZFIVNL96WQADOVVYQ5","A1NKBIJQGT0712","3S829FDFT2NBOHQMM1CIOU0HZYXDXL","","null","<img src=""img/food2.png"" style=""width:200px; border:14px solid green;"">","null","","","","","",""
"","image-keyboard-response","281","134540","0.0-281.0","374TNBHA8CHWZFIVNL96WQADOVVYQ5","A1NKBIJQGT0712","3S829FDFT2NBOHQMM1CIOU0HZYXDXL","","497","img/food6.png","75","497.5999999642372","2","1","3","0.8,0.5,0,0.8,0,0.5,0.5,0.8,0,0,0.8,0.5",""
"","html-keyboard-response","282","134842","0.0-282.0","374TNBHA8CHWZFIVNL96WQADOVVYQ5","A1NKBIJQGT0712","3S829FDFT2NBOHQMM1CIOU0HZYXDXL","","null","<img src=""img/food6.png"" style=""width:200px; border:14px solid green;"">","null","","","","","",""
"","image-keyboard-response","283","135275","0.0-283.0","374TNBHA8CHWZFIVNL96WQADOVVYQ5","A1NKBIJQGT0712","3S829FDFT2NBOHQMM1CIOU0HZYXDXL","","432","img/food6.png","75","432.60000002384186","2","1","3","0.8,0.5,0,0.8,0,0.5,0.5,0.8,0,0,0.8,0.5",""
"","html-keyboard-response","284","135576","0.0-284.0","374TNBHA8CHWZFIVNL96WQADOVVYQ5","A1NKBIJQGT0712","3S829FDFT2NBOHQMM1CIOU0HZYXDXL","","null","<img src=""img/food6.png"" style=""width:200px; border:14px solid green;"">","null","","","","","",""
"","image-keyboard-response","285","135975","0.0-285.0","374TNBHA8CHWZFIVNL96WQADOVVYQ5","A1NKBIJQGT0712","3S829FDFT2NBOHQMM1CIOU0HZYXDXL","","398.19999998807907","img/food2.png","76","398.60000002384186","3","1","2","0.8,0.5,0,0.8,0,0.5,0.5,0.8,0,0,0.8,0.5",""
"","html-keyboard-response","286","136276","0.0-286.0","374TNBHA8CHWZFIVNL96WQADOVVYQ5","A1NKBIJQGT0712","3S829FDFT2NBOHQMM1CIOU0HZYXDXL","","null","<img src=""img/food2.png"" style=""width:200px; border:14px solid green;"">","null","","","","","",""
"","image-keyboard-response","287","136791","0.0-287.0","374TNBHA8CHWZFIVNL96WQADOVVYQ5","A1NKBIJQGT0712","3S829FDFT2NBOHQMM1CIOU0HZYXDXL","","513.5999999642372","img/food2.png","74","514.3000000119209","1","1","2","0.8,0.5,0,0.8,0,0.5,0.5,0.8,0,0,0.8,0.5",""
"","html-keyboard-response","288","137092","0.0-288.0","374TNBHA8CHWZFIVNL96WQADOVVYQ5","A1NKBIJQGT0712","3S829FDFT2NBOHQMM1CIOU0HZYXDXL","","null","<img src=""img/food2.png"" style=""width:200px; border:14px solid green;"">","null","","","","","",""
"","image-keyboard-response","289","138219","0.0-289.0","374TNBHA8CHWZFIVNL96WQADOVVYQ5","A1NKBIJQGT0712","3S829FDFT2NBOHQMM1CIOU0HZYXDXL","","1125.9000000357628","img/food6.png","75","1126.5","2","1","3","0.8,0.5,0,0.8,0,0.5,0.5,0.8,0,0,0.8,0.5",""
"","html-keyboard-response","290","138520","0.0-290.0","374TNBHA8CHWZFIVNL96WQADOVVYQ5","A1NKBIJQGT0712","3S829FDFT2NBOHQMM1CIOU0HZYXDXL","","null","<img src=""img/food6.png"" style=""width:200px; border:14px solid green;"">","null","","","","","",""
"","image-keyboard-response","291","139218","0.0-291.0","374TNBHA8CHWZFIVNL96WQADOVVYQ5","A1NKBIJQGT0712","3S829FDFT2NBOHQMM1CIOU0HZYXDXL","","697.6000000238419","img/food2.png","74","698.1000000238419","1","1","2","0.8,0.5,0,0.8,0,0.5,0.5,0.8,0,0,0.8,0.5",""
"","html-keyboard-response","292","139520","0.0-292.0","374TNBHA8CHWZFIVNL96WQADOVVYQ5","A1NKBIJQGT0712","3S829FDFT2NBOHQMM1CIOU0HZYXDXL","","null","<img src=""img/food2.png"" style=""width:200px; border:14px solid green;"">","null","","","","","",""
"","image-keyboard-response","293","140192","0.0-293.0","374TNBHA8CHWZFIVNL96WQADOVVYQ5","A1NKBIJQGT0712","3S829FDFT2NBOHQMM1CIOU0HZYXDXL","","671.2999999523163","img/food5.png","76","672.1999999880791","3","0","1","0.8,0.5,0,0.8,0,0.5,0.5,0.8,0,0,0.8,0.5",""
"","html-keyboard-response","294","140494","0.0-294.0","374TNBHA8CHWZFIVNL96WQADOVVYQ5","A1NKBIJQGT0712","3S829FDFT2NBOHQMM1CIOU0HZYXDXL","","null","<img src=""img/food5.png"" style=""width:200px;border:14px solid red;"">","null","","","","","",""
"","image-keyboard-response","295","141092","0.0-295.0","374TNBHA8CHWZFIVNL96WQADOVVYQ5","A1NKBIJQGT0712","3S829FDFT2NBOHQMM1CIOU0HZYXDXL","","597","img/food2.png","74","597.4000000357628","1","0","2","0.8,0.5,0,0.8,0,0.5,0.5,0.8,0,0,0.8,0.5",""
"","html-keyboard-response","296","141393","0.0-296.0","374TNBHA8CHWZFIVNL96WQADOVVYQ5","A1NKBIJQGT0712","3S829FDFT2NBOHQMM1CIOU0HZYXDXL","","null","<img src=""img/food2.png"" style=""width:200px;border:14px solid red;"">","null","","","","","",""
"","image-keyboard-response","297","142076","0.0-297.0","374TNBHA8CHWZFIVNL96WQADOVVYQ5","A1NKBIJQGT0712","3S829FDFT2NBOHQMM1CIOU0HZYXDXL","","681.6000000238419","img/food6.png","75","682.2000000476837","2","1","3","0.8,0.5,0,0.8,0,0.5,0.5,0.8,0,0,0.8,0.5",""
"","html-keyboard-response","298","142377","0.0-298.0","374TNBHA8CHWZFIVNL96WQADOVVYQ5","A1NKBIJQGT0712","3S829FDFT2NBOHQMM1CIOU0HZYXDXL","","null","<img src=""img/food6.png"" style=""width:200px; border:14px solid green;"">","null","","","","","",""
"","image-keyboard-response","299","143176","0.0-299.0","374TNBHA8CHWZFIVNL96WQADOVVYQ5","A1NKBIJQGT0712","3S829FDFT2NBOHQMM1CIOU0HZYXDXL","","797.8999999761581","img/food2.png","74","798.5","1","1","2","0.8,0.5,0,0.8,0,0.5,0.5,0.8,0,0,0.8,0.5",""
"","html-keyboard-response","300","143477","0.0-300.0","374TNBHA8CHWZFIVNL96WQADOVVYQ5","A1NKBIJQGT0712","3S829FDFT2NBOHQMM1CIOU0HZYXDXL","","null","<img src=""img/food2.png"" style=""width:200px; border:14px solid green;"">","null","","","","","",""
"","image-keyboard-response","301","143991","0.0-301.0","374TNBHA8CHWZFIVNL96WQADOVVYQ5","A1NKBIJQGT0712","3S829FDFT2NBOHQMM1CIOU0HZYXDXL","","513","img/food2.png","74","513.5","1","1","2","0.8,0.5,0,0.8,0,0.5,0.5,0.8,0,0,0.8,0.5",""
"","html-keyboard-response","302","144292","0.0-302.0","374TNBHA8CHWZFIVNL96WQADOVVYQ5","A1NKBIJQGT0712","3S829FDFT2NBOHQMM1CIOU0HZYXDXL","","null","<img src=""img/food2.png"" style=""width:200px; border:14px solid green;"">","null","","","","","",""
"","image-keyboard-response","303","144909","0.0-303.0","374TNBHA8CHWZFIVNL96WQADOVVYQ5","A1NKBIJQGT0712","3S829FDFT2NBOHQMM1CIOU0HZYXDXL","","615.6999999880791","img/food5.png","75","616.2000000476837","2","0","1","0.8,0.5,0,0.8,0,0.5,0.5,0.8,0,0,0.8,0.5",""
"","html-keyboard-response","304","145210","0.0-304.0","374TNBHA8CHWZFIVNL96WQADOVVYQ5","A1NKBIJQGT0712","3S829FDFT2NBOHQMM1CIOU0HZYXDXL","","null","<img src=""img/food5.png"" style=""width:200px;border:14px solid red;"">","null","","","","","",""
"","image-keyboard-response","305","145842","0.0-305.0","374TNBHA8CHWZFIVNL96WQADOVVYQ5","A1NKBIJQGT0712","3S829FDFT2NBOHQMM1CIOU0HZYXDXL","","631.3000000119209","img/food6.png","75","631.9000000357628","2","1","3","0.8,0.5,0,0.8,0,0.5,0.5,0.8,0,0,0.8,0.5",""
"","html-keyboard-response","306","146143","0.0-306.0","374TNBHA8CHWZFIVNL96WQADOVVYQ5","A1NKBIJQGT0712","3S829FDFT2NBOHQMM1CIOU0HZYXDXL","","null","<img src=""img/food6.png"" style=""width:200px; border:14px solid green;"">","null","","","","","",""
"","image-keyboard-response","307","146692","0.0-307.0","374TNBHA8CHWZFIVNL96WQADOVVYQ5","A1NKBIJQGT0712","3S829FDFT2NBOHQMM1CIOU0HZYXDXL","","547.8999999761581","img/food2.png","74","548.5","1","1","2","0.8,0.5,0,0.8,0,0.5,0.5,0.8,0,0,0.8,0.5",""
"","html-keyboard-response","308","146993","0.0-308.0","374TNBHA8CHWZFIVNL96WQADOVVYQ5","A1NKBIJQGT0712","3S829FDFT2NBOHQMM1CIOU0HZYXDXL","","null","<img src=""img/food2.png"" style=""width:200px; border:14px solid green;"">","null","","","","","",""
"","image-keyboard-response","309","147392","0.0-309.0","374TNBHA8CHWZFIVNL96WQADOVVYQ5","A1NKBIJQGT0712","3S829FDFT2NBOHQMM1CIOU0HZYXDXL","","398.0999999642372","img/food2.png","74","398.60000002384186","1","1","2","0.8,0.5,0,0.8,0,0.5,0.5,0.8,0,0,0.8,0.5",""
"","html-keyboard-response","310","147693","0.0-310.0","374TNBHA8CHWZFIVNL96WQADOVVYQ5","A1NKBIJQGT0712","3S829FDFT2NBOHQMM1CIOU0HZYXDXL","","null","<img src=""img/food2.png"" style=""width:200px; border:14px solid green;"">","null","","","","","",""
"","image-keyboard-response","311","148076","0.0-311.0","374TNBHA8CHWZFIVNL96WQADOVVYQ5","A1NKBIJQGT0712","3S829FDFT2NBOHQMM1CIOU0HZYXDXL","","382.10000002384186","img/food5.png","74","382.7000000476837","1","1","1","0.8,0.5,0,0.8,0,0.5,0.5,0.8,0,0,0.8,0.5",""
"","html-keyboard-response","312","148377","0.0-312.0","374TNBHA8CHWZFIVNL96WQADOVVYQ5","A1NKBIJQGT0712","3S829FDFT2NBOHQMM1CIOU0HZYXDXL","","null","<img src=""img/food5.png"" style=""width:200px; border:14px solid green;"">","null","","","","","",""
"","image-keyboard-response","313","148742","0.0-313.0","374TNBHA8CHWZFIVNL96WQADOVVYQ5","A1NKBIJQGT0712","3S829FDFT2NBOHQMM1CIOU0HZYXDXL","","364.39999997615814","img/food5.png","74","364.80000001192093","1","0","1","0.8,0.5,0,0.8,0,0.5,0.5,0.8,0,0,0.8,0.5",""
"","html-keyboard-response","314","149043","0.0-314.0","374TNBHA8CHWZFIVNL96WQADOVVYQ5","A1NKBIJQGT0712","3S829FDFT2NBOHQMM1CIOU0HZYXDXL","","null","<img src=""img/food5.png"" style=""width:200px;border:14px solid red;"">","null","","","","","",""
"","image-keyboard-response","315","149376","0.0-315.0","374TNBHA8CHWZFIVNL96WQADOVVYQ5","A1NKBIJQGT0712","3S829FDFT2NBOHQMM1CIOU0HZYXDXL","","332.2999999523163","img/food5.png","74","332.9000000357628","1","1","1","0.8,0.5,0,0.8,0,0.5,0.5,0.8,0,0,0.8,0.5",""
"","html-keyboard-response","316","149678","0.0-316.0","374TNBHA8CHWZFIVNL96WQADOVVYQ5","A1NKBIJQGT0712","3S829FDFT2NBOHQMM1CIOU0HZYXDXL","","null","<img src=""img/food5.png"" style=""width:200px; border:14px solid green;"">","null","","","","","",""
"","image-keyboard-response","317","150040","0.0-317.0","374TNBHA8CHWZFIVNL96WQADOVVYQ5","A1NKBIJQGT0712","3S829FDFT2NBOHQMM1CIOU0HZYXDXL","","362.10000002384186","img/food5.png","74","362.80000001192093","1","1","1","0.8,0.5,0,0.8,0,0.5,0.5,0.8,0,0,0.8,0.5",""
"","html-keyboard-response","318","150341","0.0-318.0","374TNBHA8CHWZFIVNL96WQADOVVYQ5","A1NKBIJQGT0712","3S829FDFT2NBOHQMM1CIOU0HZYXDXL","","null","<img src=""img/food5.png"" style=""width:200px; border:14px solid green;"">","null","","","","","",""
"","image-keyboard-response","319","150942","0.0-319.0","374TNBHA8CHWZFIVNL96WQADOVVYQ5","A1NKBIJQGT0712","3S829FDFT2NBOHQMM1CIOU0HZYXDXL","","599.6999999880791","img/food6.png","75","600.2000000476837","2","1","3","0.8,0.5,0,0.8,0,0.5,0.5,0.8,0,0,0.8,0.5",""
"","html-keyboard-response","320","151243","0.0-320.0","374TNBHA8CHWZFIVNL96WQADOVVYQ5","A1NKBIJQGT0712","3S829FDFT2NBOHQMM1CIOU0HZYXDXL","","null","<img src=""img/food6.png"" style=""width:200px; border:14px solid green;"">","null","","","","","",""
"","image-keyboard-response","321","151675","0.0-321.0","374TNBHA8CHWZFIVNL96WQADOVVYQ5","A1NKBIJQGT0712","3S829FDFT2NBOHQMM1CIOU0HZYXDXL","","431","img/food6.png","75","431.60000002384186","2","1","3","0.8,0.5,0,0.8,0,0.5,0.5,0.8,0,0,0.8,0.5",""
"","html-keyboard-response","322","151976","0.0-322.0","374TNBHA8CHWZFIVNL96WQADOVVYQ5","A1NKBIJQGT0712","3S829FDFT2NBOHQMM1CIOU0HZYXDXL","","null","<img src=""img/food6.png"" style=""width:200px; border:14px solid green;"">","null","","","","","",""
"","image-keyboard-response","323","152326","0.0-323.0","374TNBHA8CHWZFIVNL96WQADOVVYQ5","A1NKBIJQGT0712","3S829FDFT2NBOHQMM1CIOU0HZYXDXL","","349.2999999523163","img/food2.png","74","349.80000001192093","1","1","2","0.8,0.5,0,0.8,0,0.5,0.5,0.8,0,0,0.8,0.5",""
"","html-keyboard-response","324","152626","0.0-324.0","374TNBHA8CHWZFIVNL96WQADOVVYQ5","A1NKBIJQGT0712","3S829FDFT2NBOHQMM1CIOU0HZYXDXL","","null","<img src=""img/food2.png"" style=""width:200px; border:14px solid green;"">","null","","","","","",""
"","image-keyboard-response","325","153008","0.0-325.0","374TNBHA8CHWZFIVNL96WQADOVVYQ5","A1NKBIJQGT0712","3S829FDFT2NBOHQMM1CIOU0HZYXDXL","","381.5","img/food5.png","74","381.89999997615814","1","1","1","0.8,0.5,0,0.8,0,0.5,0.5,0.8,0,0,0.8,0.5",""
"","html-keyboard-response","326","153309","0.0-326.0","374TNBHA8CHWZFIVNL96WQADOVVYQ5","A1NKBIJQGT0712","3S829FDFT2NBOHQMM1CIOU0HZYXDXL","","null","<img src=""img/food5.png"" style=""width:200px; border:14px solid green;"">","null","","","","","",""
"","image-keyboard-response","327","153759","0.0-327.0","374TNBHA8CHWZFIVNL96WQADOVVYQ5","A1NKBIJQGT0712","3S829FDFT2NBOHQMM1CIOU0HZYXDXL","","448.39999997615814","img/food6.png","75","449","2","0","3","0.8,0.5,0,0.8,0,0.5,0.5,0.8,0,0,0.8,0.5",""
"","html-keyboard-response","328","154060","0.0-328.0","374TNBHA8CHWZFIVNL96WQADOVVYQ5","A1NKBIJQGT0712","3S829FDFT2NBOHQMM1CIOU0HZYXDXL","","null","<img src=""img/food6.png"" style=""width:200px;border:14px solid red;"">","null","","","","","",""
"","image-keyboard-response","329","154442","0.0-329.0","374TNBHA8CHWZFIVNL96WQADOVVYQ5","A1NKBIJQGT0712","3S829FDFT2NBOHQMM1CIOU0HZYXDXL","","381","img/food6.png","75","381.5","2","1","3","0.8,0.5,0,0.8,0,0.5,0.5,0.8,0,0,0.8,0.5",""
"","html-keyboard-response","330","154743","0.0-330.0","374TNBHA8CHWZFIVNL96WQADOVVYQ5","A1NKBIJQGT0712","3S829FDFT2NBOHQMM1CIOU0HZYXDXL","","null","<img src=""img/food6.png"" style=""width:200px; border:14px solid green;"">","null","","","","","",""
"","image-keyboard-response","331","155091","0.0-331.0","374TNBHA8CHWZFIVNL96WQADOVVYQ5","A1NKBIJQGT0712","3S829FDFT2NBOHQMM1CIOU0HZYXDXL","","347.19999998807907","img/food6.png","75","347.80000001192093","2","1","3","0.8,0.5,0,0.8,0,0.5,0.5,0.8,0,0,0.8,0.5",""
"","html-keyboard-response","332","155394","0.0-332.0","374TNBHA8CHWZFIVNL96WQADOVVYQ5","A1NKBIJQGT0712","3S829FDFT2NBOHQMM1CIOU0HZYXDXL","","null","<img src=""img/food6.png"" style=""width:200px; border:14px solid green;"">","null","","","","","",""
"","image-keyboard-response","333","155875","0.0-333.0","374TNBHA8CHWZFIVNL96WQADOVVYQ5","A1NKBIJQGT0712","3S829FDFT2NBOHQMM1CIOU0HZYXDXL","","480.30000001192093","img/food2.png","74","480.80000001192093","1","1","2","0.8,0.5,0,0.8,0,0.5,0.5,0.8,0,0,0.8,0.5",""
"","html-keyboard-response","334","156175","0.0-334.0","374TNBHA8CHWZFIVNL96WQADOVVYQ5","A1NKBIJQGT0712","3S829FDFT2NBOHQMM1CIOU0HZYXDXL","","null","<img src=""img/food2.png"" style=""width:200px; border:14px solid green;"">","null","","","","","",""
"","image-keyboard-response","335","156574","0.0-335.0","374TNBHA8CHWZFIVNL96WQADOVVYQ5","A1NKBIJQGT0712","3S829FDFT2NBOHQMM1CIOU0HZYXDXL","","397.5999999642372","img/food5.png","74","398.10000002384186","1","1","1","0.8,0.5,0,0.8,0,0.5,0.5,0.8,0,0,0.8,0.5",""
"","html-keyboard-response","336","156875","0.0-336.0","374TNBHA8CHWZFIVNL96WQADOVVYQ5","A1NKBIJQGT0712","3S829FDFT2NBOHQMM1CIOU0HZYXDXL","","null","<img src=""img/food5.png"" style=""width:200px; border:14px solid green;"">","null","","","","","",""
"","image-keyboard-response","337","157219","0.0-337.0","374TNBHA8CHWZFIVNL96WQADOVVYQ5","A1NKBIJQGT0712","3S829FDFT2NBOHQMM1CIOU0HZYXDXL","","344.4000000357628","img/food5.png","74","344.7999999523163","1","0","1","0.8,0.5,0,0.8,0,0.5,0.5,0.8,0,0,0.8,0.5",""
"","html-keyboard-response","338","157520","0.0-338.0","374TNBHA8CHWZFIVNL96WQADOVVYQ5","A1NKBIJQGT0712","3S829FDFT2NBOHQMM1CIOU0HZYXDXL","","null","<img src=""img/food5.png"" style=""width:200px;border:14px solid red;"">","null","","","","","",""
"","image-keyboard-response","339","157925","0.0-339.0","374TNBHA8CHWZFIVNL96WQADOVVYQ5","A1NKBIJQGT0712","3S829FDFT2NBOHQMM1CIOU0HZYXDXL","","403.69999998807907","img/food6.png","75","404","2","1","3","0.8,0.5,0,0.8,0,0.5,0.5,0.8,0,0,0.8,0.5",""
"","html-keyboard-response","340","158226","0.0-340.0","374TNBHA8CHWZFIVNL96WQADOVVYQ5","A1NKBIJQGT0712","3S829FDFT2NBOHQMM1CIOU0HZYXDXL","","null","<img src=""img/food6.png"" style=""width:200px; border:14px solid green;"">","null","","","","","",""
"","image-keyboard-response","341","158591","0.0-341.0","374TNBHA8CHWZFIVNL96WQADOVVYQ5","A1NKBIJQGT0712","3S829FDFT2NBOHQMM1CIOU0HZYXDXL","","363.89999997615814","img/food5.png","74","364.39999997615814","1","1","1","0.8,0.5,0,0.8,0,0.5,0.5,0.8,0,0,0.8,0.5",""
"","html-keyboard-response","342","158892","0.0-342.0","374TNBHA8CHWZFIVNL96WQADOVVYQ5","A1NKBIJQGT0712","3S829FDFT2NBOHQMM1CIOU0HZYXDXL","","null","<img src=""img/food5.png"" style=""width:200px; border:14px solid green;"">","null","","","","","",""
"","image-keyboard-response","343","159390","0.0-343.0","374TNBHA8CHWZFIVNL96WQADOVVYQ5","A1NKBIJQGT0712","3S829FDFT2NBOHQMM1CIOU0HZYXDXL","","497.5","img/food6.png","75","498","2","1","3","0.8,0.5,0,0.8,0,0.5,0.5,0.8,0,0,0.8,0.5",""
"","html-keyboard-response","344","159690","0.0-344.0","374TNBHA8CHWZFIVNL96WQADOVVYQ5","A1NKBIJQGT0712","3S829FDFT2NBOHQMM1CIOU0HZYXDXL","","null","<img src=""img/food6.png"" style=""width:200px; border:14px solid green;"">","null","","","","","",""
"","image-keyboard-response","345","160190","0.0-345.0","374TNBHA8CHWZFIVNL96WQADOVVYQ5","A1NKBIJQGT0712","3S829FDFT2NBOHQMM1CIOU0HZYXDXL","","498.5","img/food6.png","75","499.10000002384186","2","0","3","0.8,0.5,0,0.8,0,0.5,0.5,0.8,0,0,0.8,0.5",""
"","html-keyboard-response","346","160491","0.0-346.0","374TNBHA8CHWZFIVNL96WQADOVVYQ5","A1NKBIJQGT0712","3S829FDFT2NBOHQMM1CIOU0HZYXDXL","","null","<img src=""img/food6.png"" style=""width:200px;border:14px solid red;"">","null","","","","","",""
"","image-keyboard-response","347","160989","0.0-347.0","374TNBHA8CHWZFIVNL96WQADOVVYQ5","A1NKBIJQGT0712","3S829FDFT2NBOHQMM1CIOU0HZYXDXL","","498","img/food5.png","74","498.5","1","1","1","0.8,0.5,0,0.8,0,0.5,0.5,0.8,0,0,0.8,0.5",""
"","html-keyboard-response","348","161290","0.0-348.0","374TNBHA8CHWZFIVNL96WQADOVVYQ5","A1NKBIJQGT0712","3S829FDFT2NBOHQMM1CIOU0HZYXDXL","","null","<img src=""img/food5.png"" style=""width:200px; border:14px solid green;"">","null","","","","","",""
"","image-keyboard-response","349","161657","0.0-349.0","374TNBHA8CHWZFIVNL96WQADOVVYQ5","A1NKBIJQGT0712","3S829FDFT2NBOHQMM1CIOU0HZYXDXL","","366.5","img/food5.png","74","367.19999998807907","1","1","1","0.8,0.5,0,0.8,0,0.5,0.5,0.8,0,0,0.8,0.5",""
"","html-keyboard-response","350","161959","0.0-350.0","374TNBHA8CHWZFIVNL96WQADOVVYQ5","A1NKBIJQGT0712","3S829FDFT2NBOHQMM1CIOU0HZYXDXL","","null","<img src=""img/food5.png"" style=""width:200px; border:14px solid green;"">","null","","","","","",""
"","image-keyboard-response","351","162475","0.0-351.0","374TNBHA8CHWZFIVNL96WQADOVVYQ5","A1NKBIJQGT0712","3S829FDFT2NBOHQMM1CIOU0HZYXDXL","","514.8000000119209","img/food6.png","75","515.3000000119209","2","0","3","0.8,0.5,0,0.8,0,0.5,0.5,0.8,0,0,0.8,0.5",""
"","html-keyboard-response","352","162775","0.0-352.0","374TNBHA8CHWZFIVNL96WQADOVVYQ5","A1NKBIJQGT0712","3S829FDFT2NBOHQMM1CIOU0HZYXDXL","","null","<img src=""img/food6.png"" style=""width:200px;border:14px solid red;"">","null","","","","","",""
"","image-keyboard-response","353","163191","0.0-353.0","374TNBHA8CHWZFIVNL96WQADOVVYQ5","A1NKBIJQGT0712","3S829FDFT2NBOHQMM1CIOU0HZYXDXL","","414.69999998807907","img/food2.png","74","415.2000000476837","1","1","2","0.8,0.5,0,0.8,0,0.5,0.5,0.8,0,0,0.8,0.5",""
"","html-keyboard-response","354","163492","0.0-354.0","374TNBHA8CHWZFIVNL96WQADOVVYQ5","A1NKBIJQGT0712","3S829FDFT2NBOHQMM1CIOU0HZYXDXL","","null","<img src=""img/food2.png"" style=""width:200px; border:14px solid green;"">","null","","","","","",""
"","image-keyboard-response","355","163890","0.0-355.0","374TNBHA8CHWZFIVNL96WQADOVVYQ5","A1NKBIJQGT0712","3S829FDFT2NBOHQMM1CIOU0HZYXDXL","","398","img/food6.png","75","398.5999999642372","2","1","3","0.8,0.5,0,0.8,0,0.5,0.5,0.8,0,0,0.8,0.5",""
"","html-keyboard-response","356","164192","0.0-356.0","374TNBHA8CHWZFIVNL96WQADOVVYQ5","A1NKBIJQGT0712","3S829FDFT2NBOHQMM1CIOU0HZYXDXL","","null","<img src=""img/food6.png"" style=""width:200px; border:14px solid green;"">","null","","","","","",""
"","image-keyboard-response","357","164575","0.0-357.0","374TNBHA8CHWZFIVNL96WQADOVVYQ5","A1NKBIJQGT0712","3S829FDFT2NBOHQMM1CIOU0HZYXDXL","","382.30000001192093","img/food2.png","74","382.89999997615814","1","1","2","0.8,0.5,0,0.8,0,0.5,0.5,0.8,0,0,0.8,0.5",""
"","html-keyboard-response","358","164876","0.0-358.0","374TNBHA8CHWZFIVNL96WQADOVVYQ5","A1NKBIJQGT0712","3S829FDFT2NBOHQMM1CIOU0HZYXDXL","","null","<img src=""img/food2.png"" style=""width:200px; border:14px solid green;"">","null","","","","","",""
"","image-keyboard-response","359","165325","0.0-359.0","374TNBHA8CHWZFIVNL96WQADOVVYQ5","A1NKBIJQGT0712","3S829FDFT2NBOHQMM1CIOU0HZYXDXL","","447.89999997615814","img/food2.png","74","448.4000000357628","1","1","2","0.8,0.5,0,0.8,0,0.5,0.5,0.8,0,0,0.8,0.5",""
"","html-keyboard-response","360","165626","0.0-360.0","374TNBHA8CHWZFIVNL96WQADOVVYQ5","A1NKBIJQGT0712","3S829FDFT2NBOHQMM1CIOU0HZYXDXL","","null","<img src=""img/food2.png"" style=""width:200px; border:14px solid green;"">","null","","","","","",""
"","image-keyboard-response","361","166058","0.0-361.0","374TNBHA8CHWZFIVNL96WQADOVVYQ5","A1NKBIJQGT0712","3S829FDFT2NBOHQMM1CIOU0HZYXDXL","","431.19999998807907","img/food6.png","75","431.7000000476837","2","0","3","0.8,0.5,0,0.8,0,0.5,0.5,0.8,0,0,0.8,0.5",""
"","html-keyboard-response","362","166358","0.0-362.0","374TNBHA8CHWZFIVNL96WQADOVVYQ5","A1NKBIJQGT0712","3S829FDFT2NBOHQMM1CIOU0HZYXDXL","","null","<img src=""img/food6.png"" style=""width:200px;border:14px solid red;"">","null","","","","","",""
"","instructions","363","170947","0.0-363.0","374TNBHA8CHWZFIVNL96WQADOVVYQ5","A1NKBIJQGT0712","3S829FDFT2NBOHQMM1CIOU0HZYXDXL","[{""page_index"":0,""viewing_time"":4587.700000047684}]","4588","","","","","","","",""
"","survey-text","364","174742","0.0-364.0","374TNBHA8CHWZFIVNL96WQADOVVYQ5","A1NKBIJQGT0712","3S829FDFT2NBOHQMM1CIOU0HZYXDXL","","3793.5","","","","","","","","{""Q0"":""A1NKBIJQGT0712""}"
