"success","trial_type","trial_index","time_elapsed","internal_node_id","assignmentID","mturkID","hitID","view_history","rt","stimulus","key_press","reactionTime","a","r","s","reward_cond","warning","responses"
"true","fullscreen","0","3410","0.0-0.0","3IKZ72A5B525WRO823P13B8SF99FNV","A1NLJ1L4VCQYV2","3T5ZXGO9DEAUILU6S56NLENRQJRQZJ","","","","","","","","","","",""
"","instructions","1","17449","0.0-1.0","3IKZ72A5B525WRO823P13B8SF99FNV","A1NLJ1L4VCQYV2","3T5ZXGO9DEAUILU6S56NLENRQJRQZJ","[{""page_index"":0,""viewing_time"":1565},{""page_index"":1,""viewing_time"":1111},{""page_index"":2,""viewing_time"":524},{""page_index"":3,""viewing_time"":6068},{""page_index"":4,""viewing_time"":2317},{""page_index"":5,""viewing_time"":1479},{""page_index"":6,""viewing_time"":973}]","14037","","","","","","","","",""
"","image-keyboard-response","2","18289","0.0-2.0","3IKZ72A5B525WRO823P13B8SF99FNV","A1NLJ1L4VCQYV2","3T5ZXGO9DEAUILU6S56NLENRQJRQZJ","","839","img/food4.png","74","839","1","0","3","1,0.5,0,1,0.5,0,0.5,0,1","",""
"","html-keyboard-response","3","18600","0.0-3.0","3IKZ72A5B525WRO823P13B8SF99FNV","A1NLJ1L4VCQYV2","3T5ZXGO9DEAUILU6S56NLENRQJRQZJ","","null","<img src=""img/food4.png"" style=""width:200px;border:14px solid red;"">","null","","","","","","",""
"","image-keyboard-response","4","19561","0.0-4.0","3IKZ72A5B525WRO823P13B8SF99FNV","A1NLJ1L4VCQYV2","3T5ZXGO9DEAUILU6S56NLENRQJRQZJ","","961","img/food1.png","74","961","1","1","2","1,0.5,0,1,0.5,0,0.5,0,1","",""
"","html-keyboard-response","5","19876","0.0-5.0","3IKZ72A5B525WRO823P13B8SF99FNV","A1NLJ1L4VCQYV2","3T5ZXGO9DEAUILU6S56NLENRQJRQZJ","","null","<img src=""img/food1.png"" style=""width:200px; border:14px solid green;"">","null","","","","","","",""
"","image-keyboard-response","6","20650","0.0-6.0","3IKZ72A5B525WRO823P13B8SF99FNV","A1NLJ1L4VCQYV2","3T5ZXGO9DEAUILU6S56NLENRQJRQZJ","","773","img/food6.png","76","774","3","0","1","1,0.5,0,1,0.5,0,0.5,0,1","",""
"","html-keyboard-response","7","20951","0.0-7.0","3IKZ72A5B525WRO823P13B8SF99FNV","A1NLJ1L4VCQYV2","3T5ZXGO9DEAUILU6S56NLENRQJRQZJ","","null","<img src=""img/food6.png"" style=""width:200px;border:14px solid red;"">","null","","","","","","",""
"","image-keyboard-response","8","21667","0.0-8.0","3IKZ72A5B525WRO823P13B8SF99FNV","A1NLJ1L4VCQYV2","3T5ZXGO9DEAUILU6S56NLENRQJRQZJ","","715","img/food1.png","74","716","1","1","2","1,0.5,0,1,0.5,0,0.5,0,1","",""
"","html-keyboard-response","9","21979","0.0-9.0","3IKZ72A5B525WRO823P13B8SF99FNV","A1NLJ1L4VCQYV2","3T5ZXGO9DEAUILU6S56NLENRQJRQZJ","","null","<img src=""img/food1.png"" style=""width:200px; border:14px solid green;"">","null","","","","","","",""
"","image-keyboard-response","10","22424","0.0-10.0","3IKZ72A5B525WRO823P13B8SF99FNV","A1NLJ1L4VCQYV2","3T5ZXGO9DEAUILU6S56NLENRQJRQZJ","","444","img/food6.png","75","444","2","1","1","1,0.5,0,1,0.5,0,0.5,0,1","",""
"","html-keyboard-response","11","22733","0.0-11.0","3IKZ72A5B525WRO823P13B8SF99FNV","A1NLJ1L4VCQYV2","3T5ZXGO9DEAUILU6S56NLENRQJRQZJ","","null","<img src=""img/food6.png"" style=""width:200px; border:14px solid green;"">","null","","","","","","",""
"","image-keyboard-response","12","23367","0.0-12.0","3IKZ72A5B525WRO823P13B8SF99FNV","A1NLJ1L4VCQYV2","3T5ZXGO9DEAUILU6S56NLENRQJRQZJ","","632","img/food4.png","76","632","3","1","3","1,0.5,0,1,0.5,0,0.5,0,1","",""
"","html-keyboard-response","13","23672","0.0-13.0","3IKZ72A5B525WRO823P13B8SF99FNV","A1NLJ1L4VCQYV2","3T5ZXGO9DEAUILU6S56NLENRQJRQZJ","","null","<img src=""img/food4.png"" style=""width:200px; border:14px solid green;"">","null","","","","","","",""
"","image-keyboard-response","14","24187","0.0-14.0","3IKZ72A5B525WRO823P13B8SF99FNV","A1NLJ1L4VCQYV2","3T5ZXGO9DEAUILU6S56NLENRQJRQZJ","","514","img/food1.png","74","515","1","1","2","1,0.5,0,1,0.5,0,0.5,0,1","",""
"","html-keyboard-response","15","24502","0.0-15.0","3IKZ72A5B525WRO823P13B8SF99FNV","A1NLJ1L4VCQYV2","3T5ZXGO9DEAUILU6S56NLENRQJRQZJ","","null","<img src=""img/food1.png"" style=""width:200px; border:14px solid green;"">","null","","","","","","",""
"","image-keyboard-response","16","24859","0.0-16.0","3IKZ72A5B525WRO823P13B8SF99FNV","A1NLJ1L4VCQYV2","3T5ZXGO9DEAUILU6S56NLENRQJRQZJ","","358","img/food6.png","75","358","2","0","1","1,0.5,0,1,0.5,0,0.5,0,1","",""
"","html-keyboard-response","17","25163","0.0-17.0","3IKZ72A5B525WRO823P13B8SF99FNV","A1NLJ1L4VCQYV2","3T5ZXGO9DEAUILU6S56NLENRQJRQZJ","","null","<img src=""img/food6.png"" style=""width:200px;border:14px solid red;"">","null","","","","","","",""
"","image-keyboard-response","18","25515","0.0-18.0","3IKZ72A5B525WRO823P13B8SF99FNV","A1NLJ1L4VCQYV2","3T5ZXGO9DEAUILU6S56NLENRQJRQZJ","","351","img/food6.png","75","352","2","0","1","1,0.5,0,1,0.5,0,0.5,0,1","",""
"","html-keyboard-response","19","25824","0.0-19.0","3IKZ72A5B525WRO823P13B8SF99FNV","A1NLJ1L4VCQYV2","3T5ZXGO9DEAUILU6S56NLENRQJRQZJ","","null","<img src=""img/food6.png"" style=""width:200px;border:14px solid red;"">","null","","","","","","",""
"","image-keyboard-response","20","26102","0.0-20.0","3IKZ72A5B525WRO823P13B8SF99FNV","A1NLJ1L4VCQYV2","3T5ZXGO9DEAUILU6S56NLENRQJRQZJ","","277","img/food6.png","75","277","2","1","1","1,0.5,0,1,0.5,0,0.5,0,1","",""
"","html-keyboard-response","21","26425","0.0-21.0","3IKZ72A5B525WRO823P13B8SF99FNV","A1NLJ1L4VCQYV2","3T5ZXGO9DEAUILU6S56NLENRQJRQZJ","","null","<img src=""img/food6.png"" style=""width:200px; border:14px solid green;"">","null","","","","","","",""
"","image-keyboard-response","22","26775","0.0-22.0","3IKZ72A5B525WRO823P13B8SF99FNV","A1NLJ1L4VCQYV2","3T5ZXGO9DEAUILU6S56NLENRQJRQZJ","","350","img/food6.png","75","350","2","1","1","1,0.5,0,1,0.5,0,0.5,0,1","",""
"","html-keyboard-response","23","27087","0.0-23.0","3IKZ72A5B525WRO823P13B8SF99FNV","A1NLJ1L4VCQYV2","3T5ZXGO9DEAUILU6S56NLENRQJRQZJ","","null","<img src=""img/food6.png"" style=""width:200px; border:14px solid green;"">","null","","","","","","",""
"","image-keyboard-response","24","27732","0.0-24.0","3IKZ72A5B525WRO823P13B8SF99FNV","A1NLJ1L4VCQYV2","3T5ZXGO9DEAUILU6S56NLENRQJRQZJ","","644","img/food4.png","76","644","3","1","3","1,0.5,0,1,0.5,0,0.5,0,1","",""
"","html-keyboard-response","25","28040","0.0-25.0","3IKZ72A5B525WRO823P13B8SF99FNV","A1NLJ1L4VCQYV2","3T5ZXGO9DEAUILU6S56NLENRQJRQZJ","","null","<img src=""img/food4.png"" style=""width:200px; border:14px solid green;"">","null","","","","","","",""
"","image-keyboard-response","26","28602","0.0-26.0","3IKZ72A5B525WRO823P13B8SF99FNV","A1NLJ1L4VCQYV2","3T5ZXGO9DEAUILU6S56NLENRQJRQZJ","","561","img/food6.png","75","561","2","1","1","1,0.5,0,1,0.5,0,0.5,0,1","",""
"","html-keyboard-response","27","28902","0.0-27.0","3IKZ72A5B525WRO823P13B8SF99FNV","A1NLJ1L4VCQYV2","3T5ZXGO9DEAUILU6S56NLENRQJRQZJ","","null","<img src=""img/food6.png"" style=""width:200px; border:14px solid green;"">","null","","","","","","",""
"","image-keyboard-response","28","29428","0.0-28.0","3IKZ72A5B525WRO823P13B8SF99FNV","A1NLJ1L4VCQYV2","3T5ZXGO9DEAUILU6S56NLENRQJRQZJ","","526","img/food1.png","74","526","1","1","2","1,0.5,0,1,0.5,0,0.5,0,1","",""
"","html-keyboard-response","29","29731","0.0-29.0","3IKZ72A5B525WRO823P13B8SF99FNV","A1NLJ1L4VCQYV2","3T5ZXGO9DEAUILU6S56NLENRQJRQZJ","","null","<img src=""img/food1.png"" style=""width:200px; border:14px solid green;"">","null","","","","","","",""
"","image-keyboard-response","30","30085","0.0-30.0","3IKZ72A5B525WRO823P13B8SF99FNV","A1NLJ1L4VCQYV2","3T5ZXGO9DEAUILU6S56NLENRQJRQZJ","","352","img/food1.png","74","352","1","1","2","1,0.5,0,1,0.5,0,0.5,0,1","",""
"","html-keyboard-response","31","30394","0.0-31.0","3IKZ72A5B525WRO823P13B8SF99FNV","A1NLJ1L4VCQYV2","3T5ZXGO9DEAUILU6S56NLENRQJRQZJ","","null","<img src=""img/food1.png"" style=""width:200px; border:14px solid green;"">","null","","","","","","",""
"","image-keyboard-response","32","30726","0.0-32.0","3IKZ72A5B525WRO823P13B8SF99FNV","A1NLJ1L4VCQYV2","3T5ZXGO9DEAUILU6S56NLENRQJRQZJ","","332","img/food1.png","74","332","1","1","2","1,0.5,0,1,0.5,0,0.5,0,1","",""
"","html-keyboard-response","33","31041","0.0-33.0","3IKZ72A5B525WRO823P13B8SF99FNV","A1NLJ1L4VCQYV2","3T5ZXGO9DEAUILU6S56NLENRQJRQZJ","","null","<img src=""img/food1.png"" style=""width:200px; border:14px solid green;"">","null","","","","","","",""
"","image-keyboard-response","34","31394","0.0-34.0","3IKZ72A5B525WRO823P13B8SF99FNV","A1NLJ1L4VCQYV2","3T5ZXGO9DEAUILU6S56NLENRQJRQZJ","","353","img/food1.png","74","353","1","1","2","1,0.5,0,1,0.5,0,0.5,0,1","",""
"","html-keyboard-response","35","31703","0.0-35.0","3IKZ72A5B525WRO823P13B8SF99FNV","A1NLJ1L4VCQYV2","3T5ZXGO9DEAUILU6S56NLENRQJRQZJ","","null","<img src=""img/food1.png"" style=""width:200px; border:14px solid green;"">","null","","","","","","",""
"","image-keyboard-response","36","32275","0.0-36.0","3IKZ72A5B525WRO823P13B8SF99FNV","A1NLJ1L4VCQYV2","3T5ZXGO9DEAUILU6S56NLENRQJRQZJ","","572","img/food6.png","75","573","2","0","1","1,0.5,0,1,0.5,0,0.5,0,1","",""
"","html-keyboard-response","37","32579","0.0-37.0","3IKZ72A5B525WRO823P13B8SF99FNV","A1NLJ1L4VCQYV2","3T5ZXGO9DEAUILU6S56NLENRQJRQZJ","","null","<img src=""img/food6.png"" style=""width:200px;border:14px solid red;"">","null","","","","","","",""
"","image-keyboard-response","38","32833","0.0-38.0","3IKZ72A5B525WRO823P13B8SF99FNV","A1NLJ1L4VCQYV2","3T5ZXGO9DEAUILU6S56NLENRQJRQZJ","","254","img/food4.png","75","255","2","0","3","1,0.5,0,1,0.5,0,0.5,0,1","",""
"","html-keyboard-response","39","33134","0.0-39.0","3IKZ72A5B525WRO823P13B8SF99FNV","A1NLJ1L4VCQYV2","3T5ZXGO9DEAUILU6S56NLENRQJRQZJ","","null","<img src=""img/food4.png"" style=""width:200px;border:14px solid red;"">","null","","","","","","",""
"","image-keyboard-response","40","33822","0.0-40.0","3IKZ72A5B525WRO823P13B8SF99FNV","A1NLJ1L4VCQYV2","3T5ZXGO9DEAUILU6S56NLENRQJRQZJ","","688","img/food1.png","75","688","2","1","2","1,0.5,0,1,0.5,0,0.5,0,1","",""
"","html-keyboard-response","41","34133","0.0-41.0","3IKZ72A5B525WRO823P13B8SF99FNV","A1NLJ1L4VCQYV2","3T5ZXGO9DEAUILU6S56NLENRQJRQZJ","","null","<img src=""img/food1.png"" style=""width:200px; border:14px solid green;"">","null","","","","","","",""
"","image-keyboard-response","42","34974","0.0-42.0","3IKZ72A5B525WRO823P13B8SF99FNV","A1NLJ1L4VCQYV2","3T5ZXGO9DEAUILU6S56NLENRQJRQZJ","","841","img/food4.png","76","842","3","1","3","1,0.5,0,1,0.5,0,0.5,0,1","",""
"","html-keyboard-response","43","35285","0.0-43.0","3IKZ72A5B525WRO823P13B8SF99FNV","A1NLJ1L4VCQYV2","3T5ZXGO9DEAUILU6S56NLENRQJRQZJ","","null","<img src=""img/food4.png"" style=""width:200px; border:14px solid green;"">","null","","","","","","",""
"","image-keyboard-response","44","35648","0.0-44.0","3IKZ72A5B525WRO823P13B8SF99FNV","A1NLJ1L4VCQYV2","3T5ZXGO9DEAUILU6S56NLENRQJRQZJ","","363","img/food4.png","76","363","3","1","3","1,0.5,0,1,0.5,0,0.5,0,1","",""
"","html-keyboard-response","45","35962","0.0-45.0","3IKZ72A5B525WRO823P13B8SF99FNV","A1NLJ1L4VCQYV2","3T5ZXGO9DEAUILU6S56NLENRQJRQZJ","","null","<img src=""img/food4.png"" style=""width:200px; border:14px solid green;"">","null","","","","","","",""
"","image-keyboard-response","46","37187","0.0-46.0","3IKZ72A5B525WRO823P13B8SF99FNV","A1NLJ1L4VCQYV2","3T5ZXGO9DEAUILU6S56NLENRQJRQZJ","","1226","img/food6.png","75","1226","2","0","1","1,0.5,0,1,0.5,0,0.5,0,1","",""
"","html-keyboard-response","47","37496","0.0-47.0","3IKZ72A5B525WRO823P13B8SF99FNV","A1NLJ1L4VCQYV2","3T5ZXGO9DEAUILU6S56NLENRQJRQZJ","","null","<img src=""img/food6.png"" style=""width:200px;border:14px solid red;"">","null","","","","","","",""
"","image-keyboard-response","48","38058","0.0-48.0","3IKZ72A5B525WRO823P13B8SF99FNV","A1NLJ1L4VCQYV2","3T5ZXGO9DEAUILU6S56NLENRQJRQZJ","","562","img/food4.png","76","562","3","1","3","1,0.5,0,1,0.5,0,0.5,0,1","",""
"","html-keyboard-response","49","38372","0.0-49.0","3IKZ72A5B525WRO823P13B8SF99FNV","A1NLJ1L4VCQYV2","3T5ZXGO9DEAUILU6S56NLENRQJRQZJ","","null","<img src=""img/food4.png"" style=""width:200px; border:14px solid green;"">","null","","","","","","",""
"","image-keyboard-response","50","38710","0.0-50.0","3IKZ72A5B525WRO823P13B8SF99FNV","A1NLJ1L4VCQYV2","3T5ZXGO9DEAUILU6S56NLENRQJRQZJ","","338","img/food4.png","76","338","3","1","3","1,0.5,0,1,0.5,0,0.5,0,1","",""
"","html-keyboard-response","51","39018","0.0-51.0","3IKZ72A5B525WRO823P13B8SF99FNV","A1NLJ1L4VCQYV2","3T5ZXGO9DEAUILU6S56NLENRQJRQZJ","","null","<img src=""img/food4.png"" style=""width:200px; border:14px solid green;"">","null","","","","","","",""
"","image-keyboard-response","52","39587","0.0-52.0","3IKZ72A5B525WRO823P13B8SF99FNV","A1NLJ1L4VCQYV2","3T5ZXGO9DEAUILU6S56NLENRQJRQZJ","","569","img/food1.png","74","569","1","1","2","1,0.5,0,1,0.5,0,0.5,0,1","",""
"","html-keyboard-response","53","39925","0.0-53.0","3IKZ72A5B525WRO823P13B8SF99FNV","A1NLJ1L4VCQYV2","3T5ZXGO9DEAUILU6S56NLENRQJRQZJ","","null","<img src=""img/food1.png"" style=""width:200px; border:14px solid green;"">","null","","","","","","",""
"","image-keyboard-response","54","40222","0.0-54.0","3IKZ72A5B525WRO823P13B8SF99FNV","A1NLJ1L4VCQYV2","3T5ZXGO9DEAUILU6S56NLENRQJRQZJ","","295","img/food1.png","74","296","1","1","2","1,0.5,0,1,0.5,0,0.5,0,1","",""
"","html-keyboard-response","55","40540","0.0-55.0","3IKZ72A5B525WRO823P13B8SF99FNV","A1NLJ1L4VCQYV2","3T5ZXGO9DEAUILU6S56NLENRQJRQZJ","","null","<img src=""img/food1.png"" style=""width:200px; border:14px solid green;"">","null","","","","","","",""
"","image-keyboard-response","56","40832","0.0-56.0","3IKZ72A5B525WRO823P13B8SF99FNV","A1NLJ1L4VCQYV2","3T5ZXGO9DEAUILU6S56NLENRQJRQZJ","","292","img/food1.png","74","292","1","1","2","1,0.5,0,1,0.5,0,0.5,0,1","",""
"","html-keyboard-response","57","41140","0.0-57.0","3IKZ72A5B525WRO823P13B8SF99FNV","A1NLJ1L4VCQYV2","3T5ZXGO9DEAUILU6S56NLENRQJRQZJ","","null","<img src=""img/food1.png"" style=""width:200px; border:14px solid green;"">","null","","","","","","",""
"","image-keyboard-response","58","41678","0.0-58.0","3IKZ72A5B525WRO823P13B8SF99FNV","A1NLJ1L4VCQYV2","3T5ZXGO9DEAUILU6S56NLENRQJRQZJ","","538","img/food6.png","75","538","2","1","1","1,0.5,0,1,0.5,0,0.5,0,1","",""
"","html-keyboard-response","59","41987","0.0-59.0","3IKZ72A5B525WRO823P13B8SF99FNV","A1NLJ1L4VCQYV2","3T5ZXGO9DEAUILU6S56NLENRQJRQZJ","","null","<img src=""img/food6.png"" style=""width:200px; border:14px solid green;"">","null","","","","","","",""
"","image-keyboard-response","60","42471","0.0-60.0","3IKZ72A5B525WRO823P13B8SF99FNV","A1NLJ1L4VCQYV2","3T5ZXGO9DEAUILU6S56NLENRQJRQZJ","","484","img/food1.png","74","485","1","1","2","1,0.5,0,1,0.5,0,0.5,0,1","",""
"","html-keyboard-response","61","42785","0.0-61.0","3IKZ72A5B525WRO823P13B8SF99FNV","A1NLJ1L4VCQYV2","3T5ZXGO9DEAUILU6S56NLENRQJRQZJ","","null","<img src=""img/food1.png"" style=""width:200px; border:14px solid green;"">","null","","","","","","",""
"","image-keyboard-response","62","43121","0.0-62.0","3IKZ72A5B525WRO823P13B8SF99FNV","A1NLJ1L4VCQYV2","3T5ZXGO9DEAUILU6S56NLENRQJRQZJ","","335","img/food1.png","74","335","1","1","2","1,0.5,0,1,0.5,0,0.5,0,1","",""
"","html-keyboard-response","63","43432","0.0-63.0","3IKZ72A5B525WRO823P13B8SF99FNV","A1NLJ1L4VCQYV2","3T5ZXGO9DEAUILU6S56NLENRQJRQZJ","","null","<img src=""img/food1.png"" style=""width:200px; border:14px solid green;"">","null","","","","","","",""
"","image-keyboard-response","64","43887","0.0-64.0","3IKZ72A5B525WRO823P13B8SF99FNV","A1NLJ1L4VCQYV2","3T5ZXGO9DEAUILU6S56NLENRQJRQZJ","","456","img/food6.png","75","456","2","0","1","1,0.5,0,1,0.5,0,0.5,0,1","",""
"","html-keyboard-response","65","44202","0.0-65.0","3IKZ72A5B525WRO823P13B8SF99FNV","A1NLJ1L4VCQYV2","3T5ZXGO9DEAUILU6S56NLENRQJRQZJ","","null","<img src=""img/food6.png"" style=""width:200px;border:14px solid red;"">","null","","","","","","",""
"","image-keyboard-response","66","44928","0.0-66.0","3IKZ72A5B525WRO823P13B8SF99FNV","A1NLJ1L4VCQYV2","3T5ZXGO9DEAUILU6S56NLENRQJRQZJ","","726","img/food4.png","76","726","3","1","3","1,0.5,0,1,0.5,0,0.5,0,1","",""
"","html-keyboard-response","67","45234","0.0-67.0","3IKZ72A5B525WRO823P13B8SF99FNV","A1NLJ1L4VCQYV2","3T5ZXGO9DEAUILU6S56NLENRQJRQZJ","","null","<img src=""img/food4.png"" style=""width:200px; border:14px solid green;"">","null","","","","","","",""
"","image-keyboard-response","68","45980","0.0-68.0","3IKZ72A5B525WRO823P13B8SF99FNV","A1NLJ1L4VCQYV2","3T5ZXGO9DEAUILU6S56NLENRQJRQZJ","","747","img/food1.png","74","747","1","1","2","1,0.5,0,1,0.5,0,0.5,0,1","",""
"","html-keyboard-response","69","46295","0.0-69.0","3IKZ72A5B525WRO823P13B8SF99FNV","A1NLJ1L4VCQYV2","3T5ZXGO9DEAUILU6S56NLENRQJRQZJ","","null","<img src=""img/food1.png"" style=""width:200px; border:14px solid green;"">","null","","","","","","",""
"","image-keyboard-response","70","46954","0.0-70.0","3IKZ72A5B525WRO823P13B8SF99FNV","A1NLJ1L4VCQYV2","3T5ZXGO9DEAUILU6S56NLENRQJRQZJ","","658","img/food4.png","76","658","3","1","3","1,0.5,0,1,0.5,0,0.5,0,1","",""
"","html-keyboard-response","71","47264","0.0-71.0","3IKZ72A5B525WRO823P13B8SF99FNV","A1NLJ1L4VCQYV2","3T5ZXGO9DEAUILU6S56NLENRQJRQZJ","","null","<img src=""img/food4.png"" style=""width:200px; border:14px solid green;"">","null","","","","","","",""
"","image-keyboard-response","72","47620","0.0-72.0","3IKZ72A5B525WRO823P13B8SF99FNV","A1NLJ1L4VCQYV2","3T5ZXGO9DEAUILU6S56NLENRQJRQZJ","","356","img/food4.png","76","356","3","1","3","1,0.5,0,1,0.5,0,0.5,0,1","",""
"","html-keyboard-response","73","47924","0.0-73.0","3IKZ72A5B525WRO823P13B8SF99FNV","A1NLJ1L4VCQYV2","3T5ZXGO9DEAUILU6S56NLENRQJRQZJ","","null","<img src=""img/food4.png"" style=""width:200px; border:14px solid green;"">","null","","","","","","",""
"","image-keyboard-response","74","48462","0.0-74.0","3IKZ72A5B525WRO823P13B8SF99FNV","A1NLJ1L4VCQYV2","3T5ZXGO9DEAUILU6S56NLENRQJRQZJ","","537","img/food6.png","75","537","2","0","1","1,0.5,0,1,0.5,0,0.5,0,1","",""
"","html-keyboard-response","75","48772","0.0-75.0","3IKZ72A5B525WRO823P13B8SF99FNV","A1NLJ1L4VCQYV2","3T5ZXGO9DEAUILU6S56NLENRQJRQZJ","","null","<img src=""img/food6.png"" style=""width:200px;border:14px solid red;"">","null","","","","","","",""
"","image-keyboard-response","76","49120","0.0-76.0","3IKZ72A5B525WRO823P13B8SF99FNV","A1NLJ1L4VCQYV2","3T5ZXGO9DEAUILU6S56NLENRQJRQZJ","","346","img/food6.png","75","346","2","0","1","1,0.5,0,1,0.5,0,0.5,0,1","",""
"","html-keyboard-response","77","49433","0.0-77.0","3IKZ72A5B525WRO823P13B8SF99FNV","A1NLJ1L4VCQYV2","3T5ZXGO9DEAUILU6S56NLENRQJRQZJ","","null","<img src=""img/food6.png"" style=""width:200px;border:14px solid red;"">","null","","","","","","",""
"","image-keyboard-response","78","49737","0.0-78.0","3IKZ72A5B525WRO823P13B8SF99FNV","A1NLJ1L4VCQYV2","3T5ZXGO9DEAUILU6S56NLENRQJRQZJ","","305","img/food6.png","75","305","2","1","1","1,0.5,0,1,0.5,0,0.5,0,1","",""
"","html-keyboard-response","79","50048","0.0-79.0","3IKZ72A5B525WRO823P13B8SF99FNV","A1NLJ1L4VCQYV2","3T5ZXGO9DEAUILU6S56NLENRQJRQZJ","","null","<img src=""img/food6.png"" style=""width:200px; border:14px solid green;"">","null","","","","","","",""
"","image-keyboard-response","80","50651","0.0-80.0","3IKZ72A5B525WRO823P13B8SF99FNV","A1NLJ1L4VCQYV2","3T5ZXGO9DEAUILU6S56NLENRQJRQZJ","","602","img/food4.png","76","603","3","1","3","1,0.5,0,1,0.5,0,0.5,0,1","",""
"","html-keyboard-response","81","50956","0.0-81.0","3IKZ72A5B525WRO823P13B8SF99FNV","A1NLJ1L4VCQYV2","3T5ZXGO9DEAUILU6S56NLENRQJRQZJ","","null","<img src=""img/food4.png"" style=""width:200px; border:14px solid green;"">","null","","","","","","",""
"","image-keyboard-response","82","51547","0.0-82.0","3IKZ72A5B525WRO823P13B8SF99FNV","A1NLJ1L4VCQYV2","3T5ZXGO9DEAUILU6S56NLENRQJRQZJ","","591","img/food1.png","74","592","1","1","2","1,0.5,0,1,0.5,0,0.5,0,1","",""
"","html-keyboard-response","83","51848","0.0-83.0","3IKZ72A5B525WRO823P13B8SF99FNV","A1NLJ1L4VCQYV2","3T5ZXGO9DEAUILU6S56NLENRQJRQZJ","","null","<img src=""img/food1.png"" style=""width:200px; border:14px solid green;"">","null","","","","","","",""
"","image-keyboard-response","84","52481","0.0-84.0","3IKZ72A5B525WRO823P13B8SF99FNV","A1NLJ1L4VCQYV2","3T5ZXGO9DEAUILU6S56NLENRQJRQZJ","","632","img/food4.png","76","632","3","1","3","1,0.5,0,1,0.5,0,0.5,0,1","",""
"","html-keyboard-response","85","52787","0.0-85.0","3IKZ72A5B525WRO823P13B8SF99FNV","A1NLJ1L4VCQYV2","3T5ZXGO9DEAUILU6S56NLENRQJRQZJ","","null","<img src=""img/food4.png"" style=""width:200px; border:14px solid green;"">","null","","","","","","",""
"","image-keyboard-response","86","53485","0.0-86.0","3IKZ72A5B525WRO823P13B8SF99FNV","A1NLJ1L4VCQYV2","3T5ZXGO9DEAUILU6S56NLENRQJRQZJ","","697","img/food1.png","74","698","1","1","2","1,0.5,0,1,0.5,0,0.5,0,1","",""
"","html-keyboard-response","87","53786","0.0-87.0","3IKZ72A5B525WRO823P13B8SF99FNV","A1NLJ1L4VCQYV2","3T5ZXGO9DEAUILU6S56NLENRQJRQZJ","","null","<img src=""img/food1.png"" style=""width:200px; border:14px solid green;"">","null","","","","","","",""
"","image-keyboard-response","88","54179","0.0-88.0","3IKZ72A5B525WRO823P13B8SF99FNV","A1NLJ1L4VCQYV2","3T5ZXGO9DEAUILU6S56NLENRQJRQZJ","","394","img/food6.png","74","394","1","1","1","1,0.5,0,1,0.5,0,0.5,0,1","",""
"","html-keyboard-response","89","54493","0.0-89.0","3IKZ72A5B525WRO823P13B8SF99FNV","A1NLJ1L4VCQYV2","3T5ZXGO9DEAUILU6S56NLENRQJRQZJ","","null","<img src=""img/food6.png"" style=""width:200px; border:14px solid green;"">","null","","","","","","",""
"","image-keyboard-response","90","55046","0.0-90.0","3IKZ72A5B525WRO823P13B8SF99FNV","A1NLJ1L4VCQYV2","3T5ZXGO9DEAUILU6S56NLENRQJRQZJ","","553","img/food4.png","76","553","3","1","3","1,0.5,0,1,0.5,0,0.5,0,1","",""
"","html-keyboard-response","91","55354","0.0-91.0","3IKZ72A5B525WRO823P13B8SF99FNV","A1NLJ1L4VCQYV2","3T5ZXGO9DEAUILU6S56NLENRQJRQZJ","","null","<img src=""img/food4.png"" style=""width:200px; border:14px solid green;"">","null","","","","","","",""
"","image-keyboard-response","92","55922","0.0-92.0","3IKZ72A5B525WRO823P13B8SF99FNV","A1NLJ1L4VCQYV2","3T5ZXGO9DEAUILU6S56NLENRQJRQZJ","","568","img/food6.png","74","568","1","1","1","1,0.5,0,1,0.5,0,0.5,0,1","",""
"","html-keyboard-response","93","56230","0.0-93.0","3IKZ72A5B525WRO823P13B8SF99FNV","A1NLJ1L4VCQYV2","3T5ZXGO9DEAUILU6S56NLENRQJRQZJ","","null","<img src=""img/food6.png"" style=""width:200px; border:14px solid green;"">","null","","","","","","",""
"","image-keyboard-response","94","56552","0.0-94.0","3IKZ72A5B525WRO823P13B8SF99FNV","A1NLJ1L4VCQYV2","3T5ZXGO9DEAUILU6S56NLENRQJRQZJ","","321","img/food6.png","74","322","1","1","1","1,0.5,0,1,0.5,0,0.5,0,1","",""
"","html-keyboard-response","95","56860","0.0-95.0","3IKZ72A5B525WRO823P13B8SF99FNV","A1NLJ1L4VCQYV2","3T5ZXGO9DEAUILU6S56NLENRQJRQZJ","","null","<img src=""img/food6.png"" style=""width:200px; border:14px solid green;"">","null","","","","","","",""
"","image-keyboard-response","96","57426","0.0-96.0","3IKZ72A5B525WRO823P13B8SF99FNV","A1NLJ1L4VCQYV2","3T5ZXGO9DEAUILU6S56NLENRQJRQZJ","","568","img/food1.png","74","568","1","1","2","1,0.5,0,1,0.5,0,0.5,0,1","",""
"","html-keyboard-response","97","57736","0.0-97.0","3IKZ72A5B525WRO823P13B8SF99FNV","A1NLJ1L4VCQYV2","3T5ZXGO9DEAUILU6S56NLENRQJRQZJ","","null","<img src=""img/food1.png"" style=""width:200px; border:14px solid green;"">","null","","","","","","",""
"","image-keyboard-response","98","58119","0.0-98.0","3IKZ72A5B525WRO823P13B8SF99FNV","A1NLJ1L4VCQYV2","3T5ZXGO9DEAUILU6S56NLENRQJRQZJ","","383","img/food6.png","74","383","1","1","1","1,0.5,0,1,0.5,0,0.5,0,1","",""
"","html-keyboard-response","99","58427","0.0-99.0","3IKZ72A5B525WRO823P13B8SF99FNV","A1NLJ1L4VCQYV2","3T5ZXGO9DEAUILU6S56NLENRQJRQZJ","","null","<img src=""img/food6.png"" style=""width:200px; border:14px solid green;"">","null","","","","","","",""
"","image-keyboard-response","100","58777","0.0-100.0","3IKZ72A5B525WRO823P13B8SF99FNV","A1NLJ1L4VCQYV2","3T5ZXGO9DEAUILU6S56NLENRQJRQZJ","","350","img/food6.png","74","350","1","1","1","1,0.5,0,1,0.5,0,0.5,0,1","",""
"","html-keyboard-response","101","59086","0.0-101.0","3IKZ72A5B525WRO823P13B8SF99FNV","A1NLJ1L4VCQYV2","3T5ZXGO9DEAUILU6S56NLENRQJRQZJ","","null","<img src=""img/food6.png"" style=""width:200px; border:14px solid green;"">","null","","","","","","",""
"","image-keyboard-response","102","59495","0.0-102.0","3IKZ72A5B525WRO823P13B8SF99FNV","A1NLJ1L4VCQYV2","3T5ZXGO9DEAUILU6S56NLENRQJRQZJ","","408","img/food4.png","74","408","1","0","3","1,0.5,0,1,0.5,0,0.5,0,1","",""
"","html-keyboard-response","103","59808","0.0-103.0","3IKZ72A5B525WRO823P13B8SF99FNV","A1NLJ1L4VCQYV2","3T5ZXGO9DEAUILU6S56NLENRQJRQZJ","","null","<img src=""img/food4.png"" style=""width:200px;border:14px solid red;"">","null","","","","","","",""
"","image-keyboard-response","104","60181","0.0-104.0","3IKZ72A5B525WRO823P13B8SF99FNV","A1NLJ1L4VCQYV2","3T5ZXGO9DEAUILU6S56NLENRQJRQZJ","","374","img/food4.png","76","374","3","1","3","1,0.5,0,1,0.5,0,0.5,0,1","",""
"","html-keyboard-response","105","60484","0.0-105.0","3IKZ72A5B525WRO823P13B8SF99FNV","A1NLJ1L4VCQYV2","3T5ZXGO9DEAUILU6S56NLENRQJRQZJ","","null","<img src=""img/food4.png"" style=""width:200px; border:14px solid green;"">","null","","","","","","",""
"","image-keyboard-response","106","60848","0.0-106.0","3IKZ72A5B525WRO823P13B8SF99FNV","A1NLJ1L4VCQYV2","3T5ZXGO9DEAUILU6S56NLENRQJRQZJ","","364","img/food4.png","76","364","3","1","3","1,0.5,0,1,0.5,0,0.5,0,1","",""
"","html-keyboard-response","107","61161","0.0-107.0","3IKZ72A5B525WRO823P13B8SF99FNV","A1NLJ1L4VCQYV2","3T5ZXGO9DEAUILU6S56NLENRQJRQZJ","","null","<img src=""img/food4.png"" style=""width:200px; border:14px solid green;"">","null","","","","","","",""
"","image-keyboard-response","108","61442","0.0-108.0","3IKZ72A5B525WRO823P13B8SF99FNV","A1NLJ1L4VCQYV2","3T5ZXGO9DEAUILU6S56NLENRQJRQZJ","","279","img/food4.png","76","281","3","1","3","1,0.5,0,1,0.5,0,0.5,0,1","",""
"","html-keyboard-response","109","61747","0.0-109.0","3IKZ72A5B525WRO823P13B8SF99FNV","A1NLJ1L4VCQYV2","3T5ZXGO9DEAUILU6S56NLENRQJRQZJ","","null","<img src=""img/food4.png"" style=""width:200px; border:14px solid green;"">","null","","","","","","",""
"","image-keyboard-response","110","62318","0.0-110.0","3IKZ72A5B525WRO823P13B8SF99FNV","A1NLJ1L4VCQYV2","3T5ZXGO9DEAUILU6S56NLENRQJRQZJ","","571","img/food6.png","74","571","1","1","1","1,0.5,0,1,0.5,0,0.5,0,1","",""
"","html-keyboard-response","111","62621","0.0-111.0","3IKZ72A5B525WRO823P13B8SF99FNV","A1NLJ1L4VCQYV2","3T5ZXGO9DEAUILU6S56NLENRQJRQZJ","","null","<img src=""img/food6.png"" style=""width:200px; border:14px solid green;"">","null","","","","","","",""
"","image-keyboard-response","112","63256","0.0-112.0","3IKZ72A5B525WRO823P13B8SF99FNV","A1NLJ1L4VCQYV2","3T5ZXGO9DEAUILU6S56NLENRQJRQZJ","","635","img/food1.png","74","635","1","1","2","1,0.5,0,1,0.5,0,0.5,0,1","",""
"","html-keyboard-response","113","63590","0.0-113.0","3IKZ72A5B525WRO823P13B8SF99FNV","A1NLJ1L4VCQYV2","3T5ZXGO9DEAUILU6S56NLENRQJRQZJ","","null","<img src=""img/food1.png"" style=""width:200px; border:14px solid green;"">","null","","","","","","",""
"","image-keyboard-response","114","63891","0.0-114.0","3IKZ72A5B525WRO823P13B8SF99FNV","A1NLJ1L4VCQYV2","3T5ZXGO9DEAUILU6S56NLENRQJRQZJ","","302","img/food1.png","74","302","1","1","2","1,0.5,0,1,0.5,0,0.5,0,1","",""
"","html-keyboard-response","115","64205","0.0-115.0","3IKZ72A5B525WRO823P13B8SF99FNV","A1NLJ1L4VCQYV2","3T5ZXGO9DEAUILU6S56NLENRQJRQZJ","","null","<img src=""img/food1.png"" style=""width:200px; border:14px solid green;"">","null","","","","","","",""
"","image-keyboard-response","116","64752","0.0-116.0","3IKZ72A5B525WRO823P13B8SF99FNV","A1NLJ1L4VCQYV2","3T5ZXGO9DEAUILU6S56NLENRQJRQZJ","","545","img/food6.png","74","546","1","1","1","1,0.5,0,1,0.5,0,0.5,0,1","",""
"","html-keyboard-response","117","65052","0.0-117.0","3IKZ72A5B525WRO823P13B8SF99FNV","A1NLJ1L4VCQYV2","3T5ZXGO9DEAUILU6S56NLENRQJRQZJ","","null","<img src=""img/food6.png"" style=""width:200px; border:14px solid green;"">","null","","","","","","",""
"","image-keyboard-response","118","65324","0.0-118.0","3IKZ72A5B525WRO823P13B8SF99FNV","A1NLJ1L4VCQYV2","3T5ZXGO9DEAUILU6S56NLENRQJRQZJ","","272","img/food6.png","74","273","1","1","1","1,0.5,0,1,0.5,0,0.5,0,1","",""
"","html-keyboard-response","119","65634","0.0-119.0","3IKZ72A5B525WRO823P13B8SF99FNV","A1NLJ1L4VCQYV2","3T5ZXGO9DEAUILU6S56NLENRQJRQZJ","","null","<img src=""img/food6.png"" style=""width:200px; border:14px solid green;"">","null","","","","","","",""
"","image-keyboard-response","120","66107","0.0-120.0","3IKZ72A5B525WRO823P13B8SF99FNV","A1NLJ1L4VCQYV2","3T5ZXGO9DEAUILU6S56NLENRQJRQZJ","","473","img/food1.png","74","473","1","1","2","1,0.5,0,1,0.5,0,0.5,0,1","",""
"","html-keyboard-response","121","66420","0.0-121.0","3IKZ72A5B525WRO823P13B8SF99FNV","A1NLJ1L4VCQYV2","3T5ZXGO9DEAUILU6S56NLENRQJRQZJ","","null","<img src=""img/food1.png"" style=""width:200px; border:14px solid green;"">","null","","","","","","",""
"","image-keyboard-response","122","67093","0.0-122.0","3IKZ72A5B525WRO823P13B8SF99FNV","A1NLJ1L4VCQYV2","3T5ZXGO9DEAUILU6S56NLENRQJRQZJ","","672","img/food4.png","76","673","3","1","3","1,0.5,0,1,0.5,0,0.5,0,1","",""
"","html-keyboard-response","123","67402","0.0-123.0","3IKZ72A5B525WRO823P13B8SF99FNV","A1NLJ1L4VCQYV2","3T5ZXGO9DEAUILU6S56NLENRQJRQZJ","","null","<img src=""img/food4.png"" style=""width:200px; border:14px solid green;"">","null","","","","","","",""
"","image-keyboard-response","124","67879","0.0-124.0","3IKZ72A5B525WRO823P13B8SF99FNV","A1NLJ1L4VCQYV2","3T5ZXGO9DEAUILU6S56NLENRQJRQZJ","","475","img/food6.png","74","476","1","1","1","1,0.5,0,1,0.5,0,0.5,0,1","",""
"","html-keyboard-response","125","68185","0.0-125.0","3IKZ72A5B525WRO823P13B8SF99FNV","A1NLJ1L4VCQYV2","3T5ZXGO9DEAUILU6S56NLENRQJRQZJ","","null","<img src=""img/food6.png"" style=""width:200px; border:14px solid green;"">","null","","","","","","",""
"","image-keyboard-response","126","68680","0.0-126.0","3IKZ72A5B525WRO823P13B8SF99FNV","A1NLJ1L4VCQYV2","3T5ZXGO9DEAUILU6S56NLENRQJRQZJ","","495","img/food4.png","76","495","3","1","3","1,0.5,0,1,0.5,0,0.5,0,1","",""
"","html-keyboard-response","127","68984","0.0-127.0","3IKZ72A5B525WRO823P13B8SF99FNV","A1NLJ1L4VCQYV2","3T5ZXGO9DEAUILU6S56NLENRQJRQZJ","","null","<img src=""img/food4.png"" style=""width:200px; border:14px solid green;"">","null","","","","","","",""
"","image-keyboard-response","128","69335","0.0-128.0","3IKZ72A5B525WRO823P13B8SF99FNV","A1NLJ1L4VCQYV2","3T5ZXGO9DEAUILU6S56NLENRQJRQZJ","","350","img/food4.png","76","350","3","1","3","1,0.5,0,1,0.5,0,0.5,0,1","",""
"","html-keyboard-response","129","69645","0.0-129.0","3IKZ72A5B525WRO823P13B8SF99FNV","A1NLJ1L4VCQYV2","3T5ZXGO9DEAUILU6S56NLENRQJRQZJ","","null","<img src=""img/food4.png"" style=""width:200px; border:14px solid green;"">","null","","","","","","",""
"","image-keyboard-response","130","69955","0.0-130.0","3IKZ72A5B525WRO823P13B8SF99FNV","A1NLJ1L4VCQYV2","3T5ZXGO9DEAUILU6S56NLENRQJRQZJ","","308","img/food4.png","76","309","3","1","3","1,0.5,0,1,0.5,0,0.5,0,1","",""
"","html-keyboard-response","131","70261","0.0-131.0","3IKZ72A5B525WRO823P13B8SF99FNV","A1NLJ1L4VCQYV2","3T5ZXGO9DEAUILU6S56NLENRQJRQZJ","","null","<img src=""img/food4.png"" style=""width:200px; border:14px solid green;"">","null","","","","","","",""
"","image-keyboard-response","132","70674","0.0-132.0","3IKZ72A5B525WRO823P13B8SF99FNV","A1NLJ1L4VCQYV2","3T5ZXGO9DEAUILU6S56NLENRQJRQZJ","","413","img/food6.png","74","413","1","1","1","1,0.5,0,1,0.5,0,0.5,0,1","",""
"","html-keyboard-response","133","70982","0.0-133.0","3IKZ72A5B525WRO823P13B8SF99FNV","A1NLJ1L4VCQYV2","3T5ZXGO9DEAUILU6S56NLENRQJRQZJ","","null","<img src=""img/food6.png"" style=""width:200px; border:14px solid green;"">","null","","","","","","",""
"","image-keyboard-response","134","71455","0.0-134.0","3IKZ72A5B525WRO823P13B8SF99FNV","A1NLJ1L4VCQYV2","3T5ZXGO9DEAUILU6S56NLENRQJRQZJ","","472","img/food1.png","74","472","1","1","2","1,0.5,0,1,0.5,0,0.5,0,1","",""
"","html-keyboard-response","135","71767","0.0-135.0","3IKZ72A5B525WRO823P13B8SF99FNV","A1NLJ1L4VCQYV2","3T5ZXGO9DEAUILU6S56NLENRQJRQZJ","","null","<img src=""img/food1.png"" style=""width:200px; border:14px solid green;"">","null","","","","","","",""
"","image-keyboard-response","136","72198","0.0-136.0","3IKZ72A5B525WRO823P13B8SF99FNV","A1NLJ1L4VCQYV2","3T5ZXGO9DEAUILU6S56NLENRQJRQZJ","","432","img/food4.png","74","432","1","0","3","1,0.5,0,1,0.5,0,0.5,0,1","",""
"","html-keyboard-response","137","72505","0.0-137.0","3IKZ72A5B525WRO823P13B8SF99FNV","A1NLJ1L4VCQYV2","3T5ZXGO9DEAUILU6S56NLENRQJRQZJ","","null","<img src=""img/food4.png"" style=""width:200px;border:14px solid red;"">","null","","","","","","",""
"","image-keyboard-response","138","73082","0.0-138.0","3IKZ72A5B525WRO823P13B8SF99FNV","A1NLJ1L4VCQYV2","3T5ZXGO9DEAUILU6S56NLENRQJRQZJ","","577","img/food1.png","74","578","1","1","2","1,0.5,0,1,0.5,0,0.5,0,1","",""
"","html-keyboard-response","139","73396","0.0-139.0","3IKZ72A5B525WRO823P13B8SF99FNV","A1NLJ1L4VCQYV2","3T5ZXGO9DEAUILU6S56NLENRQJRQZJ","","null","<img src=""img/food1.png"" style=""width:200px; border:14px solid green;"">","null","","","","","","",""
"","image-keyboard-response","140","73744","0.0-140.0","3IKZ72A5B525WRO823P13B8SF99FNV","A1NLJ1L4VCQYV2","3T5ZXGO9DEAUILU6S56NLENRQJRQZJ","","347","img/food1.png","74","347","1","1","2","1,0.5,0,1,0.5,0,0.5,0,1","",""
"","html-keyboard-response","141","74058","0.0-141.0","3IKZ72A5B525WRO823P13B8SF99FNV","A1NLJ1L4VCQYV2","3T5ZXGO9DEAUILU6S56NLENRQJRQZJ","","null","<img src=""img/food1.png"" style=""width:200px; border:14px solid green;"">","null","","","","","","",""
"","image-keyboard-response","142","74814","0.0-142.0","3IKZ72A5B525WRO823P13B8SF99FNV","A1NLJ1L4VCQYV2","3T5ZXGO9DEAUILU6S56NLENRQJRQZJ","","756","img/food4.png","76","756","3","1","3","1,0.5,0,1,0.5,0,0.5,0,1","",""
"","html-keyboard-response","143","75117","0.0-143.0","3IKZ72A5B525WRO823P13B8SF99FNV","A1NLJ1L4VCQYV2","3T5ZXGO9DEAUILU6S56NLENRQJRQZJ","","null","<img src=""img/food4.png"" style=""width:200px; border:14px solid green;"">","null","","","","","","",""
"","image-keyboard-response","144","75648","0.0-144.0","3IKZ72A5B525WRO823P13B8SF99FNV","A1NLJ1L4VCQYV2","3T5ZXGO9DEAUILU6S56NLENRQJRQZJ","","530","img/food1.png","74","530","1","1","2","1,0.5,0,1,0.5,0,0.5,0,1","",""
"","html-keyboard-response","145","75948","0.0-145.0","3IKZ72A5B525WRO823P13B8SF99FNV","A1NLJ1L4VCQYV2","3T5ZXGO9DEAUILU6S56NLENRQJRQZJ","","null","<img src=""img/food1.png"" style=""width:200px; border:14px solid green;"">","null","","","","","","",""
"","image-keyboard-response","146","76496","0.0-146.0","3IKZ72A5B525WRO823P13B8SF99FNV","A1NLJ1L4VCQYV2","3T5ZXGO9DEAUILU6S56NLENRQJRQZJ","","548","img/food6.png","76","549","3","0","1","1,0.5,0,1,0.5,0,0.5,0,1","",""
"","html-keyboard-response","147","76808","0.0-147.0","3IKZ72A5B525WRO823P13B8SF99FNV","A1NLJ1L4VCQYV2","3T5ZXGO9DEAUILU6S56NLENRQJRQZJ","","null","<img src=""img/food6.png"" style=""width:200px;border:14px solid red;"">","null","","","","","","",""
"","image-keyboard-response","148","77500","0.0-148.0","3IKZ72A5B525WRO823P13B8SF99FNV","A1NLJ1L4VCQYV2","3T5ZXGO9DEAUILU6S56NLENRQJRQZJ","","692","img/food1.png","74","693","1","1","2","1,0.5,0,1,0.5,0,0.5,0,1","",""
"","html-keyboard-response","149","77808","0.0-149.0","3IKZ72A5B525WRO823P13B8SF99FNV","A1NLJ1L4VCQYV2","3T5ZXGO9DEAUILU6S56NLENRQJRQZJ","","null","<img src=""img/food1.png"" style=""width:200px; border:14px solid green;"">","null","","","","","","",""
"","image-keyboard-response","150","78719","0.0-150.0","3IKZ72A5B525WRO823P13B8SF99FNV","A1NLJ1L4VCQYV2","3T5ZXGO9DEAUILU6S56NLENRQJRQZJ","","910","img/food4.png","76","911","3","1","3","1,0.5,0,1,0.5,0,0.5,0,1","",""
"","html-keyboard-response","151","79025","0.0-151.0","3IKZ72A5B525WRO823P13B8SF99FNV","A1NLJ1L4VCQYV2","3T5ZXGO9DEAUILU6S56NLENRQJRQZJ","","null","<img src=""img/food4.png"" style=""width:200px; border:14px solid green;"">","null","","","","","","",""
"","image-keyboard-response","152","79415","0.0-152.0","3IKZ72A5B525WRO823P13B8SF99FNV","A1NLJ1L4VCQYV2","3T5ZXGO9DEAUILU6S56NLENRQJRQZJ","","389","img/food4.png","76","389","3","1","3","1,0.5,0,1,0.5,0,0.5,0,1","",""
"","html-keyboard-response","153","79719","0.0-153.0","3IKZ72A5B525WRO823P13B8SF99FNV","A1NLJ1L4VCQYV2","3T5ZXGO9DEAUILU6S56NLENRQJRQZJ","","null","<img src=""img/food4.png"" style=""width:200px; border:14px solid green;"">","null","","","","","","",""
"","image-keyboard-response","154","80192","0.0-154.0","3IKZ72A5B525WRO823P13B8SF99FNV","A1NLJ1L4VCQYV2","3T5ZXGO9DEAUILU6S56NLENRQJRQZJ","","473","img/food6.png","74","473","1","1","1","1,0.5,0,1,0.5,0,0.5,0,1","",""
"","html-keyboard-response","155","80504","0.0-155.0","3IKZ72A5B525WRO823P13B8SF99FNV","A1NLJ1L4VCQYV2","3T5ZXGO9DEAUILU6S56NLENRQJRQZJ","","null","<img src=""img/food6.png"" style=""width:200px; border:14px solid green;"">","null","","","","","","",""
"","image-keyboard-response","156","80954","0.0-156.0","3IKZ72A5B525WRO823P13B8SF99FNV","A1NLJ1L4VCQYV2","3T5ZXGO9DEAUILU6S56NLENRQJRQZJ","","450","img/food1.png","74","450","1","1","2","1,0.5,0,1,0.5,0,0.5,0,1","",""
"","html-keyboard-response","157","81256","0.0-157.0","3IKZ72A5B525WRO823P13B8SF99FNV","A1NLJ1L4VCQYV2","3T5ZXGO9DEAUILU6S56NLENRQJRQZJ","","null","<img src=""img/food1.png"" style=""width:200px; border:14px solid green;"">","null","","","","","","",""
"","image-keyboard-response","158","81641","0.0-158.0","3IKZ72A5B525WRO823P13B8SF99FNV","A1NLJ1L4VCQYV2","3T5ZXGO9DEAUILU6S56NLENRQJRQZJ","","384","img/food1.png","74","385","1","1","2","1,0.5,0,1,0.5,0,0.5,0,1","",""
"","html-keyboard-response","159","81949","0.0-159.0","3IKZ72A5B525WRO823P13B8SF99FNV","A1NLJ1L4VCQYV2","3T5ZXGO9DEAUILU6S56NLENRQJRQZJ","","null","<img src=""img/food1.png"" style=""width:200px; border:14px solid green;"">","null","","","","","","",""
"","image-keyboard-response","160","82284","0.0-160.0","3IKZ72A5B525WRO823P13B8SF99FNV","A1NLJ1L4VCQYV2","3T5ZXGO9DEAUILU6S56NLENRQJRQZJ","","336","img/food1.png","74","336","1","1","2","1,0.5,0,1,0.5,0,0.5,0,1","",""
"","html-keyboard-response","161","82594","0.0-161.0","3IKZ72A5B525WRO823P13B8SF99FNV","A1NLJ1L4VCQYV2","3T5ZXGO9DEAUILU6S56NLENRQJRQZJ","","null","<img src=""img/food1.png"" style=""width:200px; border:14px solid green;"">","null","","","","","","",""
"","image-keyboard-response","162","82975","0.0-162.0","3IKZ72A5B525WRO823P13B8SF99FNV","A1NLJ1L4VCQYV2","3T5ZXGO9DEAUILU6S56NLENRQJRQZJ","","380","img/food6.png","74","380","1","1","1","1,0.5,0,1,0.5,0,0.5,0,1","",""
"","html-keyboard-response","163","83287","0.0-163.0","3IKZ72A5B525WRO823P13B8SF99FNV","A1NLJ1L4VCQYV2","3T5ZXGO9DEAUILU6S56NLENRQJRQZJ","","null","<img src=""img/food6.png"" style=""width:200px; border:14px solid green;"">","null","","","","","","",""
"","image-keyboard-response","164","83606","0.0-164.0","3IKZ72A5B525WRO823P13B8SF99FNV","A1NLJ1L4VCQYV2","3T5ZXGO9DEAUILU6S56NLENRQJRQZJ","","320","img/food6.png","74","320","1","1","1","1,0.5,0,1,0.5,0,0.5,0,1","",""
"","html-keyboard-response","165","83917","0.0-165.0","3IKZ72A5B525WRO823P13B8SF99FNV","A1NLJ1L4VCQYV2","3T5ZXGO9DEAUILU6S56NLENRQJRQZJ","","null","<img src=""img/food6.png"" style=""width:200px; border:14px solid green;"">","null","","","","","","",""
"","image-keyboard-response","166","84356","0.0-166.0","3IKZ72A5B525WRO823P13B8SF99FNV","A1NLJ1L4VCQYV2","3T5ZXGO9DEAUILU6S56NLENRQJRQZJ","","438","img/food4.png","76","438","3","1","3","1,0.5,0,1,0.5,0,0.5,0,1","",""
"","html-keyboard-response","167","84669","0.0-167.0","3IKZ72A5B525WRO823P13B8SF99FNV","A1NLJ1L4VCQYV2","3T5ZXGO9DEAUILU6S56NLENRQJRQZJ","","null","<img src=""img/food4.png"" style=""width:200px; border:14px solid green;"">","null","","","","","","",""
"","image-keyboard-response","168","85165","0.0-168.0","3IKZ72A5B525WRO823P13B8SF99FNV","A1NLJ1L4VCQYV2","3T5ZXGO9DEAUILU6S56NLENRQJRQZJ","","496","img/food6.png","74","496","1","1","1","1,0.5,0,1,0.5,0,0.5,0,1","",""
"","html-keyboard-response","169","85470","0.0-169.0","3IKZ72A5B525WRO823P13B8SF99FNV","A1NLJ1L4VCQYV2","3T5ZXGO9DEAUILU6S56NLENRQJRQZJ","","null","<img src=""img/food6.png"" style=""width:200px; border:14px solid green;"">","null","","","","","","",""
"","image-keyboard-response","170","86137","0.0-170.0","3IKZ72A5B525WRO823P13B8SF99FNV","A1NLJ1L4VCQYV2","3T5ZXGO9DEAUILU6S56NLENRQJRQZJ","","667","img/food1.png","74","667","1","1","2","1,0.5,0,1,0.5,0,0.5,0,1","",""
"","html-keyboard-response","171","86439","0.0-171.0","3IKZ72A5B525WRO823P13B8SF99FNV","A1NLJ1L4VCQYV2","3T5ZXGO9DEAUILU6S56NLENRQJRQZJ","","null","<img src=""img/food1.png"" style=""width:200px; border:14px solid green;"">","null","","","","","","",""
"","image-keyboard-response","172","86951","0.0-172.0","3IKZ72A5B525WRO823P13B8SF99FNV","A1NLJ1L4VCQYV2","3T5ZXGO9DEAUILU6S56NLENRQJRQZJ","","512","img/food1.png","74","512","1","1","2","1,0.5,0,1,0.5,0,0.5,0,1","",""
"","html-keyboard-response","173","87255","0.0-173.0","3IKZ72A5B525WRO823P13B8SF99FNV","A1NLJ1L4VCQYV2","3T5ZXGO9DEAUILU6S56NLENRQJRQZJ","","null","<img src=""img/food1.png"" style=""width:200px; border:14px solid green;"">","null","","","","","","",""
"","image-keyboard-response","174","87650","0.0-174.0","3IKZ72A5B525WRO823P13B8SF99FNV","A1NLJ1L4VCQYV2","3T5ZXGO9DEAUILU6S56NLENRQJRQZJ","","395","img/food4.png","76","395","3","1","3","1,0.5,0,1,0.5,0,0.5,0,1","",""
"","html-keyboard-response","175","87963","0.0-175.0","3IKZ72A5B525WRO823P13B8SF99FNV","A1NLJ1L4VCQYV2","3T5ZXGO9DEAUILU6S56NLENRQJRQZJ","","null","<img src=""img/food4.png"" style=""width:200px; border:14px solid green;"">","null","","","","","","",""
"","image-keyboard-response","176","88368","0.0-176.0","3IKZ72A5B525WRO823P13B8SF99FNV","A1NLJ1L4VCQYV2","3T5ZXGO9DEAUILU6S56NLENRQJRQZJ","","405","img/food4.png","76","405","3","1","3","1,0.5,0,1,0.5,0,0.5,0,1","",""
"","html-keyboard-response","177","88672","0.0-177.0","3IKZ72A5B525WRO823P13B8SF99FNV","A1NLJ1L4VCQYV2","3T5ZXGO9DEAUILU6S56NLENRQJRQZJ","","null","<img src=""img/food4.png"" style=""width:200px; border:14px solid green;"">","null","","","","","","",""
"","image-keyboard-response","178","89107","0.0-178.0","3IKZ72A5B525WRO823P13B8SF99FNV","A1NLJ1L4VCQYV2","3T5ZXGO9DEAUILU6S56NLENRQJRQZJ","","435","img/food6.png","74","435","1","1","1","1,0.5,0,1,0.5,0,0.5,0,1","",""
"","html-keyboard-response","179","89426","0.0-179.0","3IKZ72A5B525WRO823P13B8SF99FNV","A1NLJ1L4VCQYV2","3T5ZXGO9DEAUILU6S56NLENRQJRQZJ","","null","<img src=""img/food6.png"" style=""width:200px; border:14px solid green;"">","null","","","","","","",""
"","image-keyboard-response","180","89788","0.0-180.0","3IKZ72A5B525WRO823P13B8SF99FNV","A1NLJ1L4VCQYV2","3T5ZXGO9DEAUILU6S56NLENRQJRQZJ","","361","img/food4.png","74","361","1","1","3","1,0.5,0,1,0.5,0,0.5,0,1","",""
"","html-keyboard-response","181","90088","0.0-181.0","3IKZ72A5B525WRO823P13B8SF99FNV","A1NLJ1L4VCQYV2","3T5ZXGO9DEAUILU6S56NLENRQJRQZJ","","null","<img src=""img/food4.png"" style=""width:200px; border:14px solid green;"">","null","","","","","","",""
"","html-keyboard-response","182","92799","0.0-182.0","3IKZ72A5B525WRO823P13B8SF99FNV","A1NLJ1L4VCQYV2","3T5ZXGO9DEAUILU6S56NLENRQJRQZJ","","","","","","","","","","",""
"","instructions","183","107828","0.0-183.0","3IKZ72A5B525WRO823P13B8SF99FNV","A1NLJ1L4VCQYV2","3T5ZXGO9DEAUILU6S56NLENRQJRQZJ","[{""page_index"":0,""viewing_time"":13777},{""page_index"":1,""viewing_time"":1252}]","15029","","","","","","","","",""
"","image-keyboard-response","184","108286","0.0-184.0","3IKZ72A5B525WRO823P13B8SF99FNV","A1NLJ1L4VCQYV2","3T5ZXGO9DEAUILU6S56NLENRQJRQZJ","","457","img/food3.png","74","458","1","0","3","1,0.5,0,1,0.5,0,0.5,0,1","false",""
"","html-keyboard-response","185","108598","0.0-185.0","3IKZ72A5B525WRO823P13B8SF99FNV","A1NLJ1L4VCQYV2","3T5ZXGO9DEAUILU6S56NLENRQJRQZJ","","null","<img src=""img/food3.png"" style=""width:200px;border:14px solid red;"">","null","","","","","","",""
"","image-keyboard-response","186","108889","0.0-187.0","3IKZ72A5B525WRO823P13B8SF99FNV","A1NLJ1L4VCQYV2","3T5ZXGO9DEAUILU6S56NLENRQJRQZJ","","291","img/food2.png","76","291","3","0","1","1,0.5,0,1,0.5,0,0.5,0,1","false",""
"","html-keyboard-response","187","109198","0.0-188.0","3IKZ72A5B525WRO823P13B8SF99FNV","A1NLJ1L4VCQYV2","3T5ZXGO9DEAUILU6S56NLENRQJRQZJ","","null","<img src=""img/food2.png"" style=""width:200px;border:14px solid red;"">","null","","","","","","",""
"","image-keyboard-response","188","109786","0.0-190.0","3IKZ72A5B525WRO823P13B8SF99FNV","A1NLJ1L4VCQYV2","3T5ZXGO9DEAUILU6S56NLENRQJRQZJ","","588","img/food3.png","74","588","1","0","3","1,0.5,0,1,0.5,0,0.5,0,1","false",""
"","html-keyboard-response","189","110090","0.0-191.0","3IKZ72A5B525WRO823P13B8SF99FNV","A1NLJ1L4VCQYV2","3T5ZXGO9DEAUILU6S56NLENRQJRQZJ","","null","<img src=""img/food3.png"" style=""width:200px;border:14px solid red;"">","null","","","","","","",""
"","image-keyboard-response","190","110480","0.0-193.0","3IKZ72A5B525WRO823P13B8SF99FNV","A1NLJ1L4VCQYV2","3T5ZXGO9DEAUILU6S56NLENRQJRQZJ","","391","img/food5.png","75","391","2","1","2","1,0.5,0,1,0.5,0,0.5,0,1","false",""
"","html-keyboard-response","191","110782","0.0-194.0","3IKZ72A5B525WRO823P13B8SF99FNV","A1NLJ1L4VCQYV2","3T5ZXGO9DEAUILU6S56NLENRQJRQZJ","","null","<img src=""img/food5.png"" style=""width:200px; border:14px solid green;"">","null","","","","","","",""
"","image-keyboard-response","192","111091","0.0-196.0","3IKZ72A5B525WRO823P13B8SF99FNV","A1NLJ1L4VCQYV2","3T5ZXGO9DEAUILU6S56NLENRQJRQZJ","","308","img/food3.png","75","308","2","0","3","1,0.5,0,1,0.5,0,0.5,0,1","false",""
"","html-keyboard-response","193","111396","0.0-197.0","3IKZ72A5B525WRO823P13B8SF99FNV","A1NLJ1L4VCQYV2","3T5ZXGO9DEAUILU6S56NLENRQJRQZJ","","null","<img src=""img/food3.png"" style=""width:200px;border:14px solid red;"">","null","","","","","","",""
"","image-keyboard-response","194","111864","0.0-199.0","3IKZ72A5B525WRO823P13B8SF99FNV","A1NLJ1L4VCQYV2","3T5ZXGO9DEAUILU6S56NLENRQJRQZJ","","466","img/food3.png","76","466","3","1","3","1,0.5,0,1,0.5,0,0.5,0,1","false",""
"","html-keyboard-response","195","112165","0.0-200.0","3IKZ72A5B525WRO823P13B8SF99FNV","A1NLJ1L4VCQYV2","3T5ZXGO9DEAUILU6S56NLENRQJRQZJ","","null","<img src=""img/food3.png"" style=""width:200px; border:14px solid green;"">","null","","","","","","",""
"","image-keyboard-response","196","112742","0.0-202.0","3IKZ72A5B525WRO823P13B8SF99FNV","A1NLJ1L4VCQYV2","3T5ZXGO9DEAUILU6S56NLENRQJRQZJ","","575","img/food2.png","74","576","1","1","1","1,0.5,0,1,0.5,0,0.5,0,1","false",""
"","html-keyboard-response","197","113043","0.0-203.0","3IKZ72A5B525WRO823P13B8SF99FNV","A1NLJ1L4VCQYV2","3T5ZXGO9DEAUILU6S56NLENRQJRQZJ","","null","<img src=""img/food2.png"" style=""width:200px; border:14px solid green;"">","null","","","","","","",""
"","image-keyboard-response","198","113555","0.0-205.0","3IKZ72A5B525WRO823P13B8SF99FNV","A1NLJ1L4VCQYV2","3T5ZXGO9DEAUILU6S56NLENRQJRQZJ","","512","img/food3.png","76","512","3","1","3","1,0.5,0,1,0.5,0,0.5,0,1","false",""
"","html-keyboard-response","199","113859","0.0-206.0","3IKZ72A5B525WRO823P13B8SF99FNV","A1NLJ1L4VCQYV2","3T5ZXGO9DEAUILU6S56NLENRQJRQZJ","","null","<img src=""img/food3.png"" style=""width:200px; border:14px solid green;"">","null","","","","","","",""
"","image-keyboard-response","200","114344","0.0-208.0","3IKZ72A5B525WRO823P13B8SF99FNV","A1NLJ1L4VCQYV2","3T5ZXGO9DEAUILU6S56NLENRQJRQZJ","","486","img/food2.png","75","486","2","1","1","1,0.5,0,1,0.5,0,0.5,0,1","false",""
"","html-keyboard-response","201","114658","0.0-209.0","3IKZ72A5B525WRO823P13B8SF99FNV","A1NLJ1L4VCQYV2","3T5ZXGO9DEAUILU6S56NLENRQJRQZJ","","null","<img src=""img/food2.png"" style=""width:200px; border:14px solid green;"">","null","","","","","","",""
"","image-keyboard-response","202","115059","0.0-211.0","3IKZ72A5B525WRO823P13B8SF99FNV","A1NLJ1L4VCQYV2","3T5ZXGO9DEAUILU6S56NLENRQJRQZJ","","400","img/food3.png","76","400","3","1","3","1,0.5,0,1,0.5,0,0.5,0,1","false",""
"","html-keyboard-response","203","115364","0.0-212.0","3IKZ72A5B525WRO823P13B8SF99FNV","A1NLJ1L4VCQYV2","3T5ZXGO9DEAUILU6S56NLENRQJRQZJ","","null","<img src=""img/food3.png"" style=""width:200px; border:14px solid green;"">","null","","","","","","",""
"","image-keyboard-response","204","115832","0.0-214.0","3IKZ72A5B525WRO823P13B8SF99FNV","A1NLJ1L4VCQYV2","3T5ZXGO9DEAUILU6S56NLENRQJRQZJ","","468","img/food2.png","75","468","2","1","1","1,0.5,0,1,0.5,0,0.5,0,1","false",""
"","html-keyboard-response","205","116147","0.0-215.0","3IKZ72A5B525WRO823P13B8SF99FNV","A1NLJ1L4VCQYV2","3T5ZXGO9DEAUILU6S56NLENRQJRQZJ","","null","<img src=""img/food2.png"" style=""width:200px; border:14px solid green;"">","null","","","","","","",""
"","image-keyboard-response","206","116661","0.0-217.0","3IKZ72A5B525WRO823P13B8SF99FNV","A1NLJ1L4VCQYV2","3T5ZXGO9DEAUILU6S56NLENRQJRQZJ","","512","img/food5.png","74","513","1","1","2","1,0.5,0,1,0.5,0,0.5,0,1","false",""
"","html-keyboard-response","207","116962","0.0-218.0","3IKZ72A5B525WRO823P13B8SF99FNV","A1NLJ1L4VCQYV2","3T5ZXGO9DEAUILU6S56NLENRQJRQZJ","","null","<img src=""img/food5.png"" style=""width:200px; border:14px solid green;"">","null","","","","","","",""
"","image-keyboard-response","208","117356","0.0-220.0","3IKZ72A5B525WRO823P13B8SF99FNV","A1NLJ1L4VCQYV2","3T5ZXGO9DEAUILU6S56NLENRQJRQZJ","","393","img/food5.png","74","393","1","1","2","1,0.5,0,1,0.5,0,0.5,0,1","false",""
"","html-keyboard-response","209","117671","0.0-221.0","3IKZ72A5B525WRO823P13B8SF99FNV","A1NLJ1L4VCQYV2","3T5ZXGO9DEAUILU6S56NLENRQJRQZJ","","null","<img src=""img/food5.png"" style=""width:200px; border:14px solid green;"">","null","","","","","","",""
"","image-keyboard-response","210","118117","0.0-223.0","3IKZ72A5B525WRO823P13B8SF99FNV","A1NLJ1L4VCQYV2","3T5ZXGO9DEAUILU6S56NLENRQJRQZJ","","446","img/food3.png","76","447","3","1","3","1,0.5,0,1,0.5,0,0.5,0,1","false",""
"","html-keyboard-response","211","118425","0.0-224.0","3IKZ72A5B525WRO823P13B8SF99FNV","A1NLJ1L4VCQYV2","3T5ZXGO9DEAUILU6S56NLENRQJRQZJ","","null","<img src=""img/food3.png"" style=""width:200px; border:14px solid green;"">","null","","","","","","",""
"","image-keyboard-response","212","118812","0.0-226.0","3IKZ72A5B525WRO823P13B8SF99FNV","A1NLJ1L4VCQYV2","3T5ZXGO9DEAUILU6S56NLENRQJRQZJ","","386","img/food2.png","75","386","2","0","1","1,0.5,0,1,0.5,0,0.5,0,1","false",""
"","html-keyboard-response","213","119116","0.0-227.0","3IKZ72A5B525WRO823P13B8SF99FNV","A1NLJ1L4VCQYV2","3T5ZXGO9DEAUILU6S56NLENRQJRQZJ","","null","<img src=""img/food2.png"" style=""width:200px;border:14px solid red;"">","null","","","","","","",""
"","image-keyboard-response","214","119434","0.0-229.0","3IKZ72A5B525WRO823P13B8SF99FNV","A1NLJ1L4VCQYV2","3T5ZXGO9DEAUILU6S56NLENRQJRQZJ","","317","img/food2.png","75","317","2","1","1","1,0.5,0,1,0.5,0,0.5,0,1","false",""
"","html-keyboard-response","215","119747","0.0-230.0","3IKZ72A5B525WRO823P13B8SF99FNV","A1NLJ1L4VCQYV2","3T5ZXGO9DEAUILU6S56NLENRQJRQZJ","","null","<img src=""img/food2.png"" style=""width:200px; border:14px solid green;"">","null","","","","","","",""
"","image-keyboard-response","216","120088","0.0-232.0","3IKZ72A5B525WRO823P13B8SF99FNV","A1NLJ1L4VCQYV2","3T5ZXGO9DEAUILU6S56NLENRQJRQZJ","","341","img/food2.png","75","341","2","0","1","1,0.5,0,1,0.5,0,0.5,0,1","false",""
"","html-keyboard-response","217","120391","0.0-233.0","3IKZ72A5B525WRO823P13B8SF99FNV","A1NLJ1L4VCQYV2","3T5ZXGO9DEAUILU6S56NLENRQJRQZJ","","null","<img src=""img/food2.png"" style=""width:200px;border:14px solid red;"">","null","","","","","","",""
"","image-keyboard-response","218","120695","0.0-235.0","3IKZ72A5B525WRO823P13B8SF99FNV","A1NLJ1L4VCQYV2","3T5ZXGO9DEAUILU6S56NLENRQJRQZJ","","303","img/food5.png","75","304","2","1","2","1,0.5,0,1,0.5,0,0.5,0,1","false",""
"","html-keyboard-response","219","121005","0.0-236.0","3IKZ72A5B525WRO823P13B8SF99FNV","A1NLJ1L4VCQYV2","3T5ZXGO9DEAUILU6S56NLENRQJRQZJ","","null","<img src=""img/food5.png"" style=""width:200px; border:14px solid green;"">","null","","","","","","",""
"","image-keyboard-response","220","121563","0.0-238.0","3IKZ72A5B525WRO823P13B8SF99FNV","A1NLJ1L4VCQYV2","3T5ZXGO9DEAUILU6S56NLENRQJRQZJ","","557","img/food3.png","76","557","3","1","3","1,0.5,0,1,0.5,0,0.5,0,1","false",""
"","html-keyboard-response","221","121866","0.0-239.0","3IKZ72A5B525WRO823P13B8SF99FNV","A1NLJ1L4VCQYV2","3T5ZXGO9DEAUILU6S56NLENRQJRQZJ","","null","<img src=""img/food3.png"" style=""width:200px; border:14px solid green;"">","null","","","","","","",""
"","image-keyboard-response","222","122297","0.0-241.0","3IKZ72A5B525WRO823P13B8SF99FNV","A1NLJ1L4VCQYV2","3T5ZXGO9DEAUILU6S56NLENRQJRQZJ","","430","img/food2.png","75","430","2","1","1","1,0.5,0,1,0.5,0,0.5,0,1","false",""
"","html-keyboard-response","223","122604","0.0-242.0","3IKZ72A5B525WRO823P13B8SF99FNV","A1NLJ1L4VCQYV2","3T5ZXGO9DEAUILU6S56NLENRQJRQZJ","","null","<img src=""img/food2.png"" style=""width:200px; border:14px solid green;"">","null","","","","","","",""
"","image-keyboard-response","224","123186","0.0-244.0","3IKZ72A5B525WRO823P13B8SF99FNV","A1NLJ1L4VCQYV2","3T5ZXGO9DEAUILU6S56NLENRQJRQZJ","","582","img/food3.png","76","582","3","1","3","1,0.5,0,1,0.5,0,0.5,0,1","false",""
"","html-keyboard-response","225","123498","0.0-245.0","3IKZ72A5B525WRO823P13B8SF99FNV","A1NLJ1L4VCQYV2","3T5ZXGO9DEAUILU6S56NLENRQJRQZJ","","null","<img src=""img/food3.png"" style=""width:200px; border:14px solid green;"">","null","","","","","","",""
"","image-keyboard-response","226","123871","0.0-247.0","3IKZ72A5B525WRO823P13B8SF99FNV","A1NLJ1L4VCQYV2","3T5ZXGO9DEAUILU6S56NLENRQJRQZJ","","374","img/food5.png","75","374","2","0","2","1,0.5,0,1,0.5,0,0.5,0,1","false",""
"","html-keyboard-response","227","124174","0.0-248.0","3IKZ72A5B525WRO823P13B8SF99FNV","A1NLJ1L4VCQYV2","3T5ZXGO9DEAUILU6S56NLENRQJRQZJ","","null","<img src=""img/food5.png"" style=""width:200px;border:14px solid red;"">","null","","","","","","",""
"","image-keyboard-response","228","124561","0.0-250.0","3IKZ72A5B525WRO823P13B8SF99FNV","A1NLJ1L4VCQYV2","3T5ZXGO9DEAUILU6S56NLENRQJRQZJ","","388","img/food5.png","75","388","2","1","2","1,0.5,0,1,0.5,0,0.5,0,1","false",""
"","html-keyboard-response","229","124863","0.0-251.0","3IKZ72A5B525WRO823P13B8SF99FNV","A1NLJ1L4VCQYV2","3T5ZXGO9DEAUILU6S56NLENRQJRQZJ","","null","<img src=""img/food5.png"" style=""width:200px; border:14px solid green;"">","null","","","","","","",""
"","image-keyboard-response","230","125476","0.0-253.0","3IKZ72A5B525WRO823P13B8SF99FNV","A1NLJ1L4VCQYV2","3T5ZXGO9DEAUILU6S56NLENRQJRQZJ","","612","img/food3.png","76","612","3","1","3","1,0.5,0,1,0.5,0,0.5,0,1","false",""
"","html-keyboard-response","231","125786","0.0-254.0","3IKZ72A5B525WRO823P13B8SF99FNV","A1NLJ1L4VCQYV2","3T5ZXGO9DEAUILU6S56NLENRQJRQZJ","","null","<img src=""img/food3.png"" style=""width:200px; border:14px solid green;"">","null","","","","","","",""
"","image-keyboard-response","232","126144","0.0-256.0","3IKZ72A5B525WRO823P13B8SF99FNV","A1NLJ1L4VCQYV2","3T5ZXGO9DEAUILU6S56NLENRQJRQZJ","","357","img/food5.png","74","358","1","1","2","1,0.5,0,1,0.5,0,0.5,0,1","false",""
"","html-keyboard-response","233","126447","0.0-257.0","3IKZ72A5B525WRO823P13B8SF99FNV","A1NLJ1L4VCQYV2","3T5ZXGO9DEAUILU6S56NLENRQJRQZJ","","null","<img src=""img/food5.png"" style=""width:200px; border:14px solid green;"">","null","","","","","","",""
"","image-keyboard-response","234","126916","0.0-259.0","3IKZ72A5B525WRO823P13B8SF99FNV","A1NLJ1L4VCQYV2","3T5ZXGO9DEAUILU6S56NLENRQJRQZJ","","468","img/food2.png","75","469","2","0","1","1,0.5,0,1,0.5,0,0.5,0,1","false",""
"","html-keyboard-response","235","127231","0.0-260.0","3IKZ72A5B525WRO823P13B8SF99FNV","A1NLJ1L4VCQYV2","3T5ZXGO9DEAUILU6S56NLENRQJRQZJ","","null","<img src=""img/food2.png"" style=""width:200px;border:14px solid red;"">","null","","","","","","",""
"","image-keyboard-response","236","127625","0.0-262.0","3IKZ72A5B525WRO823P13B8SF99FNV","A1NLJ1L4VCQYV2","3T5ZXGO9DEAUILU6S56NLENRQJRQZJ","","393","img/food5.png","76","393","3","0","2","1,0.5,0,1,0.5,0,0.5,0,1","false",""
"","html-keyboard-response","237","127935","0.0-263.0","3IKZ72A5B525WRO823P13B8SF99FNV","A1NLJ1L4VCQYV2","3T5ZXGO9DEAUILU6S56NLENRQJRQZJ","","null","<img src=""img/food5.png"" style=""width:200px;border:14px solid red;"">","null","","","","","","",""
"","image-keyboard-response","238","128324","0.0-265.0","3IKZ72A5B525WRO823P13B8SF99FNV","A1NLJ1L4VCQYV2","3T5ZXGO9DEAUILU6S56NLENRQJRQZJ","","387","img/food5.png","74","388","1","1","2","1,0.5,0,1,0.5,0,0.5,0,1","false",""
"","html-keyboard-response","239","128629","0.0-266.0","3IKZ72A5B525WRO823P13B8SF99FNV","A1NLJ1L4VCQYV2","3T5ZXGO9DEAUILU6S56NLENRQJRQZJ","","null","<img src=""img/food5.png"" style=""width:200px; border:14px solid green;"">","null","","","","","","",""
"","image-keyboard-response","240","129144","0.0-268.0","3IKZ72A5B525WRO823P13B8SF99FNV","A1NLJ1L4VCQYV2","3T5ZXGO9DEAUILU6S56NLENRQJRQZJ","","514","img/food3.png","76","514","3","1","3","1,0.5,0,1,0.5,0,0.5,0,1","false",""
"","html-keyboard-response","241","129444","0.0-269.0","3IKZ72A5B525WRO823P13B8SF99FNV","A1NLJ1L4VCQYV2","3T5ZXGO9DEAUILU6S56NLENRQJRQZJ","","null","<img src=""img/food3.png"" style=""width:200px; border:14px solid green;"">","null","","","","","","",""
"","image-keyboard-response","242","129935","0.0-271.0","3IKZ72A5B525WRO823P13B8SF99FNV","A1NLJ1L4VCQYV2","3T5ZXGO9DEAUILU6S56NLENRQJRQZJ","","489","img/food3.png","76","489","3","1","3","1,0.5,0,1,0.5,0,0.5,0,1","false",""
"","html-keyboard-response","243","130245","0.0-272.0","3IKZ72A5B525WRO823P13B8SF99FNV","A1NLJ1L4VCQYV2","3T5ZXGO9DEAUILU6S56NLENRQJRQZJ","","null","<img src=""img/food3.png"" style=""width:200px; border:14px solid green;"">","null","","","","","","",""
"","image-keyboard-response","244","130717","0.0-274.0","3IKZ72A5B525WRO823P13B8SF99FNV","A1NLJ1L4VCQYV2","3T5ZXGO9DEAUILU6S56NLENRQJRQZJ","","471","img/food3.png","76","471","3","1","3","1,0.5,0,1,0.5,0,0.5,0,1","false",""
"","html-keyboard-response","245","131030","0.0-275.0","3IKZ72A5B525WRO823P13B8SF99FNV","A1NLJ1L4VCQYV2","3T5ZXGO9DEAUILU6S56NLENRQJRQZJ","","null","<img src=""img/food3.png"" style=""width:200px; border:14px solid green;"">","null","","","","","","",""
"","image-keyboard-response","246","131524","0.0-277.0","3IKZ72A5B525WRO823P13B8SF99FNV","A1NLJ1L4VCQYV2","3T5ZXGO9DEAUILU6S56NLENRQJRQZJ","","493","img/food2.png","75","494","2","0","1","1,0.5,0,1,0.5,0,0.5,0,1","false",""
"","html-keyboard-response","247","131829","0.0-278.0","3IKZ72A5B525WRO823P13B8SF99FNV","A1NLJ1L4VCQYV2","3T5ZXGO9DEAUILU6S56NLENRQJRQZJ","","null","<img src=""img/food2.png"" style=""width:200px;border:14px solid red;"">","null","","","","","","",""
"","image-keyboard-response","248","132397","0.0-280.0","3IKZ72A5B525WRO823P13B8SF99FNV","A1NLJ1L4VCQYV2","3T5ZXGO9DEAUILU6S56NLENRQJRQZJ","","566","img/food5.png","74","567","1","1","2","1,0.5,0,1,0.5,0,0.5,0,1","false",""
"","html-keyboard-response","249","132706","0.0-281.0","3IKZ72A5B525WRO823P13B8SF99FNV","A1NLJ1L4VCQYV2","3T5ZXGO9DEAUILU6S56NLENRQJRQZJ","","null","<img src=""img/food5.png"" style=""width:200px; border:14px solid green;"">","null","","","","","","",""
"","image-keyboard-response","250","133243","0.0-283.0","3IKZ72A5B525WRO823P13B8SF99FNV","A1NLJ1L4VCQYV2","3T5ZXGO9DEAUILU6S56NLENRQJRQZJ","","536","img/food3.png","76","536","3","1","3","1,0.5,0,1,0.5,0,0.5,0,1","false",""
"","html-keyboard-response","251","133552","0.0-284.0","3IKZ72A5B525WRO823P13B8SF99FNV","A1NLJ1L4VCQYV2","3T5ZXGO9DEAUILU6S56NLENRQJRQZJ","","null","<img src=""img/food3.png"" style=""width:200px; border:14px solid green;"">","null","","","","","","",""
"","image-keyboard-response","252","134073","0.0-286.0","3IKZ72A5B525WRO823P13B8SF99FNV","A1NLJ1L4VCQYV2","3T5ZXGO9DEAUILU6S56NLENRQJRQZJ","","520","img/food2.png","74","520","1","1","1","1,0.5,0,1,0.5,0,0.5,0,1","false",""
"","html-keyboard-response","253","134382","0.0-287.0","3IKZ72A5B525WRO823P13B8SF99FNV","A1NLJ1L4VCQYV2","3T5ZXGO9DEAUILU6S56NLENRQJRQZJ","","null","<img src=""img/food2.png"" style=""width:200px; border:14px solid green;"">","null","","","","","","",""
"","image-keyboard-response","254","134711","0.0-289.0","3IKZ72A5B525WRO823P13B8SF99FNV","A1NLJ1L4VCQYV2","3T5ZXGO9DEAUILU6S56NLENRQJRQZJ","","328","img/food5.png","75","328","2","1","2","1,0.5,0,1,0.5,0,0.5,0,1","false",""
"","html-keyboard-response","255","135012","0.0-290.0","3IKZ72A5B525WRO823P13B8SF99FNV","A1NLJ1L4VCQYV2","3T5ZXGO9DEAUILU6S56NLENRQJRQZJ","","null","<img src=""img/food5.png"" style=""width:200px; border:14px solid green;"">","null","","","","","","",""
"","image-keyboard-response","256","135368","0.0-292.0","3IKZ72A5B525WRO823P13B8SF99FNV","A1NLJ1L4VCQYV2","3T5ZXGO9DEAUILU6S56NLENRQJRQZJ","","356","img/food2.png","74","357","1","1","1","1,0.5,0,1,0.5,0,0.5,0,1","false",""
"","html-keyboard-response","257","135672","0.0-293.0","3IKZ72A5B525WRO823P13B8SF99FNV","A1NLJ1L4VCQYV2","3T5ZXGO9DEAUILU6S56NLENRQJRQZJ","","null","<img src=""img/food2.png"" style=""width:200px; border:14px solid green;"">","null","","","","","","",""
"","image-keyboard-response","258","135995","0.0-295.0","3IKZ72A5B525WRO823P13B8SF99FNV","A1NLJ1L4VCQYV2","3T5ZXGO9DEAUILU6S56NLENRQJRQZJ","","323","img/food3.png","76","323","3","1","3","1,0.5,0,1,0.5,0,0.5,0,1","false",""
"","html-keyboard-response","259","136302","0.0-296.0","3IKZ72A5B525WRO823P13B8SF99FNV","A1NLJ1L4VCQYV2","3T5ZXGO9DEAUILU6S56NLENRQJRQZJ","","null","<img src=""img/food3.png"" style=""width:200px; border:14px solid green;"">","null","","","","","","",""
"","image-keyboard-response","260","136938","0.0-298.0","3IKZ72A5B525WRO823P13B8SF99FNV","A1NLJ1L4VCQYV2","3T5ZXGO9DEAUILU6S56NLENRQJRQZJ","","636","img/food2.png","75","637","2","1","1","1,0.5,0,1,0.5,0,0.5,0,1","false",""
"","html-keyboard-response","261","137255","0.0-299.0","3IKZ72A5B525WRO823P13B8SF99FNV","A1NLJ1L4VCQYV2","3T5ZXGO9DEAUILU6S56NLENRQJRQZJ","","null","<img src=""img/food2.png"" style=""width:200px; border:14px solid green;"">","null","","","","","","",""
"","image-keyboard-response","262","137794","0.0-301.0","3IKZ72A5B525WRO823P13B8SF99FNV","A1NLJ1L4VCQYV2","3T5ZXGO9DEAUILU6S56NLENRQJRQZJ","","538","img/food3.png","74","538","1","0","3","1,0.5,0,1,0.5,0,0.5,0,1","false",""
"","html-keyboard-response","263","138101","0.0-302.0","3IKZ72A5B525WRO823P13B8SF99FNV","A1NLJ1L4VCQYV2","3T5ZXGO9DEAUILU6S56NLENRQJRQZJ","","null","<img src=""img/food3.png"" style=""width:200px;border:14px solid red;"">","null","","","","","","",""
"","image-keyboard-response","264","138267","0.0-304.0","3IKZ72A5B525WRO823P13B8SF99FNV","A1NLJ1L4VCQYV2","3T5ZXGO9DEAUILU6S56NLENRQJRQZJ","","165","img/food3.png","76","165","3","1","3","1,0.5,0,1,0.5,0,0.5,0,1","false",""
"","html-keyboard-response","265","138578","0.0-305.0","3IKZ72A5B525WRO823P13B8SF99FNV","A1NLJ1L4VCQYV2","3T5ZXGO9DEAUILU6S56NLENRQJRQZJ","","null","<img src=""img/food3.png"" style=""width:200px; border:14px solid green;"">","null","","","","","","",""
"","image-keyboard-response","266","139288","0.0-307.0","3IKZ72A5B525WRO823P13B8SF99FNV","A1NLJ1L4VCQYV2","3T5ZXGO9DEAUILU6S56NLENRQJRQZJ","","711","img/food5.png","74","711","1","1","2","1,0.5,0,1,0.5,0,0.5,0,1","false",""
"","html-keyboard-response","267","139591","0.0-308.0","3IKZ72A5B525WRO823P13B8SF99FNV","A1NLJ1L4VCQYV2","3T5ZXGO9DEAUILU6S56NLENRQJRQZJ","","null","<img src=""img/food5.png"" style=""width:200px; border:14px solid green;"">","null","","","","","","",""
"","image-keyboard-response","268","140067","0.0-310.0","3IKZ72A5B525WRO823P13B8SF99FNV","A1NLJ1L4VCQYV2","3T5ZXGO9DEAUILU6S56NLENRQJRQZJ","","474","img/food2.png","75","474","2","1","1","1,0.5,0,1,0.5,0,0.5,0,1","false",""
"","html-keyboard-response","269","140375","0.0-311.0","3IKZ72A5B525WRO823P13B8SF99FNV","A1NLJ1L4VCQYV2","3T5ZXGO9DEAUILU6S56NLENRQJRQZJ","","null","<img src=""img/food2.png"" style=""width:200px; border:14px solid green;"">","null","","","","","","",""
"","image-keyboard-response","270","140740","0.0-313.0","3IKZ72A5B525WRO823P13B8SF99FNV","A1NLJ1L4VCQYV2","3T5ZXGO9DEAUILU6S56NLENRQJRQZJ","","365","img/food2.png","75","366","2","1","1","1,0.5,0,1,0.5,0,0.5,0,1","false",""
"","html-keyboard-response","271","141065","0.0-314.0","3IKZ72A5B525WRO823P13B8SF99FNV","A1NLJ1L4VCQYV2","3T5ZXGO9DEAUILU6S56NLENRQJRQZJ","","null","<img src=""img/food2.png"" style=""width:200px; border:14px solid green;"">","null","","","","","","",""
"","image-keyboard-response","272","141402","0.0-316.0","3IKZ72A5B525WRO823P13B8SF99FNV","A1NLJ1L4VCQYV2","3T5ZXGO9DEAUILU6S56NLENRQJRQZJ","","336","img/food2.png","75","336","2","0","1","1,0.5,0,1,0.5,0,0.5,0,1","false",""
"","html-keyboard-response","273","141727","0.0-317.0","3IKZ72A5B525WRO823P13B8SF99FNV","A1NLJ1L4VCQYV2","3T5ZXGO9DEAUILU6S56NLENRQJRQZJ","","null","<img src=""img/food2.png"" style=""width:200px;border:14px solid red;"">","null","","","","","","",""
"","image-keyboard-response","274","142379","0.0-319.0","3IKZ72A5B525WRO823P13B8SF99FNV","A1NLJ1L4VCQYV2","3T5ZXGO9DEAUILU6S56NLENRQJRQZJ","","652","img/food5.png","74","652","1","1","2","1,0.5,0,1,0.5,0,0.5,0,1","false",""
"","html-keyboard-response","275","142680","0.0-320.0","3IKZ72A5B525WRO823P13B8SF99FNV","A1NLJ1L4VCQYV2","3T5ZXGO9DEAUILU6S56NLENRQJRQZJ","","null","<img src=""img/food5.png"" style=""width:200px; border:14px solid green;"">","null","","","","","","",""
"","image-keyboard-response","276","143308","0.0-322.0","3IKZ72A5B525WRO823P13B8SF99FNV","A1NLJ1L4VCQYV2","3T5ZXGO9DEAUILU6S56NLENRQJRQZJ","","626","img/food2.png","75","626","2","0","1","1,0.5,0,1,0.5,0,0.5,0,1","false",""
"","html-keyboard-response","277","143619","0.0-323.0","3IKZ72A5B525WRO823P13B8SF99FNV","A1NLJ1L4VCQYV2","3T5ZXGO9DEAUILU6S56NLENRQJRQZJ","","null","<img src=""img/food2.png"" style=""width:200px;border:14px solid red;"">","null","","","","","","",""
"","image-keyboard-response","278","143971","0.0-325.0","3IKZ72A5B525WRO823P13B8SF99FNV","A1NLJ1L4VCQYV2","3T5ZXGO9DEAUILU6S56NLENRQJRQZJ","","352","img/food2.png","75","352","2","0","1","1,0.5,0,1,0.5,0,0.5,0,1","false",""
"","html-keyboard-response","279","144282","0.0-326.0","3IKZ72A5B525WRO823P13B8SF99FNV","A1NLJ1L4VCQYV2","3T5ZXGO9DEAUILU6S56NLENRQJRQZJ","","null","<img src=""img/food2.png"" style=""width:200px;border:14px solid red;"">","null","","","","","","",""
"","image-keyboard-response","280","144568","0.0-328.0","3IKZ72A5B525WRO823P13B8SF99FNV","A1NLJ1L4VCQYV2","3T5ZXGO9DEAUILU6S56NLENRQJRQZJ","","287","img/food2.png","75","287","2","0","1","1,0.5,0,1,0.5,0,0.5,0,1","false",""
"","html-keyboard-response","281","144881","0.0-329.0","3IKZ72A5B525WRO823P13B8SF99FNV","A1NLJ1L4VCQYV2","3T5ZXGO9DEAUILU6S56NLENRQJRQZJ","","null","<img src=""img/food2.png"" style=""width:200px;border:14px solid red;"">","null","","","","","","",""
"","image-keyboard-response","282","145349","0.0-331.0","3IKZ72A5B525WRO823P13B8SF99FNV","A1NLJ1L4VCQYV2","3T5ZXGO9DEAUILU6S56NLENRQJRQZJ","","468","img/food5.png","76","468","3","0","2","1,0.5,0,1,0.5,0,0.5,0,1","false",""
"","html-keyboard-response","283","145663","0.0-332.0","3IKZ72A5B525WRO823P13B8SF99FNV","A1NLJ1L4VCQYV2","3T5ZXGO9DEAUILU6S56NLENRQJRQZJ","","null","<img src=""img/food5.png"" style=""width:200px;border:14px solid red;"">","null","","","","","","",""
"","image-keyboard-response","284","145853","0.0-334.0","3IKZ72A5B525WRO823P13B8SF99FNV","A1NLJ1L4VCQYV2","3T5ZXGO9DEAUILU6S56NLENRQJRQZJ","","189","img/food5.png","74","189","1","1","2","1,0.5,0,1,0.5,0,0.5,0,1","false",""
"","html-keyboard-response","285","146156","0.0-335.0","3IKZ72A5B525WRO823P13B8SF99FNV","A1NLJ1L4VCQYV2","3T5ZXGO9DEAUILU6S56NLENRQJRQZJ","","null","<img src=""img/food5.png"" style=""width:200px; border:14px solid green;"">","null","","","","","","",""
"","image-keyboard-response","286","146458","0.0-337.0","3IKZ72A5B525WRO823P13B8SF99FNV","A1NLJ1L4VCQYV2","3T5ZXGO9DEAUILU6S56NLENRQJRQZJ","","301","img/food5.png","74","303","1","1","2","1,0.5,0,1,0.5,0,0.5,0,1","false",""
"","html-keyboard-response","287","146770","0.0-338.0","3IKZ72A5B525WRO823P13B8SF99FNV","A1NLJ1L4VCQYV2","3T5ZXGO9DEAUILU6S56NLENRQJRQZJ","","null","<img src=""img/food5.png"" style=""width:200px; border:14px solid green;"">","null","","","","","","",""
"","image-keyboard-response","288","147273","0.0-340.0","3IKZ72A5B525WRO823P13B8SF99FNV","A1NLJ1L4VCQYV2","3T5ZXGO9DEAUILU6S56NLENRQJRQZJ","","501","img/food2.png","74","502","1","1","1","1,0.5,0,1,0.5,0,0.5,0,1","false",""
"","html-keyboard-response","289","147615","0.0-341.0","3IKZ72A5B525WRO823P13B8SF99FNV","A1NLJ1L4VCQYV2","3T5ZXGO9DEAUILU6S56NLENRQJRQZJ","","null","<img src=""img/food2.png"" style=""width:200px; border:14px solid green;"">","null","","","","","","",""
"","image-keyboard-response","290","147892","0.0-343.0","3IKZ72A5B525WRO823P13B8SF99FNV","A1NLJ1L4VCQYV2","3T5ZXGO9DEAUILU6S56NLENRQJRQZJ","","276","img/food3.png","74","276","1","0","3","1,0.5,0,1,0.5,0,0.5,0,1","false",""
"","html-keyboard-response","291","148201","0.0-344.0","3IKZ72A5B525WRO823P13B8SF99FNV","A1NLJ1L4VCQYV2","3T5ZXGO9DEAUILU6S56NLENRQJRQZJ","","null","<img src=""img/food3.png"" style=""width:200px;border:14px solid red;"">","null","","","","","","",""
"","image-keyboard-response","292","148533","0.0-346.0","3IKZ72A5B525WRO823P13B8SF99FNV","A1NLJ1L4VCQYV2","3T5ZXGO9DEAUILU6S56NLENRQJRQZJ","","332","img/food5.png","76","332","3","0","2","1,0.5,0,1,0.5,0,0.5,0,1","false",""
"","html-keyboard-response","293","148848","0.0-347.0","3IKZ72A5B525WRO823P13B8SF99FNV","A1NLJ1L4VCQYV2","3T5ZXGO9DEAUILU6S56NLENRQJRQZJ","","null","<img src=""img/food5.png"" style=""width:200px;border:14px solid red;"">","null","","","","","","",""
"","image-keyboard-response","294","149149","0.0-349.0","3IKZ72A5B525WRO823P13B8SF99FNV","A1NLJ1L4VCQYV2","3T5ZXGO9DEAUILU6S56NLENRQJRQZJ","","300","img/food3.png","74","301","1","1","3","1,0.5,0,1,0.5,0,0.5,0,1","false",""
"","html-keyboard-response","295","149463","0.0-350.0","3IKZ72A5B525WRO823P13B8SF99FNV","A1NLJ1L4VCQYV2","3T5ZXGO9DEAUILU6S56NLENRQJRQZJ","","null","<img src=""img/food3.png"" style=""width:200px; border:14px solid green;"">","null","","","","","","",""
"","image-keyboard-response","296","149752","0.0-352.0","3IKZ72A5B525WRO823P13B8SF99FNV","A1NLJ1L4VCQYV2","3T5ZXGO9DEAUILU6S56NLENRQJRQZJ","","288","img/food5.png","74","289","1","1","2","1,0.5,0,1,0.5,0,0.5,0,1","false",""
"","html-keyboard-response","297","150061","0.0-353.0","3IKZ72A5B525WRO823P13B8SF99FNV","A1NLJ1L4VCQYV2","3T5ZXGO9DEAUILU6S56NLENRQJRQZJ","","null","<img src=""img/food5.png"" style=""width:200px; border:14px solid green;"">","null","","","","","","",""
"","image-keyboard-response","298","150399","0.0-355.0","3IKZ72A5B525WRO823P13B8SF99FNV","A1NLJ1L4VCQYV2","3T5ZXGO9DEAUILU6S56NLENRQJRQZJ","","336","img/food5.png","74","337","1","1","2","1,0.5,0,1,0.5,0,0.5,0,1","false",""
"","html-keyboard-response","299","150707","0.0-356.0","3IKZ72A5B525WRO823P13B8SF99FNV","A1NLJ1L4VCQYV2","3T5ZXGO9DEAUILU6S56NLENRQJRQZJ","","null","<img src=""img/food5.png"" style=""width:200px; border:14px solid green;"">","null","","","","","","",""
"","image-keyboard-response","300","151241","0.0-358.0","3IKZ72A5B525WRO823P13B8SF99FNV","A1NLJ1L4VCQYV2","3T5ZXGO9DEAUILU6S56NLENRQJRQZJ","","532","img/food2.png","75","532","2","1","1","1,0.5,0,1,0.5,0,0.5,0,1","false",""
"","html-keyboard-response","301","151554","0.0-359.0","3IKZ72A5B525WRO823P13B8SF99FNV","A1NLJ1L4VCQYV2","3T5ZXGO9DEAUILU6S56NLENRQJRQZJ","","null","<img src=""img/food2.png"" style=""width:200px; border:14px solid green;"">","null","","","","","","",""
"","image-keyboard-response","302","151851","0.0-361.0","3IKZ72A5B525WRO823P13B8SF99FNV","A1NLJ1L4VCQYV2","3T5ZXGO9DEAUILU6S56NLENRQJRQZJ","","296","img/food2.png","74","296","1","1","1","1,0.5,0,1,0.5,0,0.5,0,1","false",""
"","html-keyboard-response","303","152153","0.0-362.0","3IKZ72A5B525WRO823P13B8SF99FNV","A1NLJ1L4VCQYV2","3T5ZXGO9DEAUILU6S56NLENRQJRQZJ","","null","<img src=""img/food2.png"" style=""width:200px; border:14px solid green;"">","null","","","","","","",""
"","image-keyboard-response","304","152512","0.0-364.0","3IKZ72A5B525WRO823P13B8SF99FNV","A1NLJ1L4VCQYV2","3T5ZXGO9DEAUILU6S56NLENRQJRQZJ","","359","img/food2.png","74","359","1","1","1","1,0.5,0,1,0.5,0,0.5,0,1","false",""
"","html-keyboard-response","305","152814","0.0-365.0","3IKZ72A5B525WRO823P13B8SF99FNV","A1NLJ1L4VCQYV2","3T5ZXGO9DEAUILU6S56NLENRQJRQZJ","","null","<img src=""img/food2.png"" style=""width:200px; border:14px solid green;"">","null","","","","","","",""
"","image-keyboard-response","306","153088","0.0-367.0","3IKZ72A5B525WRO823P13B8SF99FNV","A1NLJ1L4VCQYV2","3T5ZXGO9DEAUILU6S56NLENRQJRQZJ","","272","img/food3.png","74","274","1","0","3","1,0.5,0,1,0.5,0,0.5,0,1","false",""
"","html-keyboard-response","307","153398","0.0-368.0","3IKZ72A5B525WRO823P13B8SF99FNV","A1NLJ1L4VCQYV2","3T5ZXGO9DEAUILU6S56NLENRQJRQZJ","","null","<img src=""img/food3.png"" style=""width:200px;border:14px solid red;"">","null","","","","","","",""
"","image-keyboard-response","308","153703","0.0-370.0","3IKZ72A5B525WRO823P13B8SF99FNV","A1NLJ1L4VCQYV2","3T5ZXGO9DEAUILU6S56NLENRQJRQZJ","","303","img/food3.png","76","304","3","1","3","1,0.5,0,1,0.5,0,0.5,0,1","false",""
"","html-keyboard-response","309","154014","0.0-371.0","3IKZ72A5B525WRO823P13B8SF99FNV","A1NLJ1L4VCQYV2","3T5ZXGO9DEAUILU6S56NLENRQJRQZJ","","null","<img src=""img/food3.png"" style=""width:200px; border:14px solid green;"">","null","","","","","","",""
"","image-keyboard-response","310","154279","0.0-373.0","3IKZ72A5B525WRO823P13B8SF99FNV","A1NLJ1L4VCQYV2","3T5ZXGO9DEAUILU6S56NLENRQJRQZJ","","265","img/food3.png","76","265","3","1","3","1,0.5,0,1,0.5,0,0.5,0,1","false",""
"","html-keyboard-response","311","154582","0.0-374.0","3IKZ72A5B525WRO823P13B8SF99FNV","A1NLJ1L4VCQYV2","3T5ZXGO9DEAUILU6S56NLENRQJRQZJ","","null","<img src=""img/food3.png"" style=""width:200px; border:14px solid green;"">","null","","","","","","",""
"","image-keyboard-response","312","154842","0.0-376.0","3IKZ72A5B525WRO823P13B8SF99FNV","A1NLJ1L4VCQYV2","3T5ZXGO9DEAUILU6S56NLENRQJRQZJ","","258","img/food3.png","76","258","3","1","3","1,0.5,0,1,0.5,0,0.5,0,1","false",""
"","html-keyboard-response","313","155151","0.0-377.0","3IKZ72A5B525WRO823P13B8SF99FNV","A1NLJ1L4VCQYV2","3T5ZXGO9DEAUILU6S56NLENRQJRQZJ","","null","<img src=""img/food3.png"" style=""width:200px; border:14px solid green;"">","null","","","","","","",""
"","image-keyboard-response","314","155427","0.0-379.0","3IKZ72A5B525WRO823P13B8SF99FNV","A1NLJ1L4VCQYV2","3T5ZXGO9DEAUILU6S56NLENRQJRQZJ","","274","img/food3.png","76","275","3","1","3","1,0.5,0,1,0.5,0,0.5,0,1","false",""
"","html-keyboard-response","315","155737","0.0-380.0","3IKZ72A5B525WRO823P13B8SF99FNV","A1NLJ1L4VCQYV2","3T5ZXGO9DEAUILU6S56NLENRQJRQZJ","","null","<img src=""img/food3.png"" style=""width:200px; border:14px solid green;"">","null","","","","","","",""
"","image-keyboard-response","316","156223","0.0-382.0","3IKZ72A5B525WRO823P13B8SF99FNV","A1NLJ1L4VCQYV2","3T5ZXGO9DEAUILU6S56NLENRQJRQZJ","","484","img/food5.png","74","486","1","1","2","1,0.5,0,1,0.5,0,0.5,0,1","false",""
"","html-keyboard-response","317","156536","0.0-383.0","3IKZ72A5B525WRO823P13B8SF99FNV","A1NLJ1L4VCQYV2","3T5ZXGO9DEAUILU6S56NLENRQJRQZJ","","null","<img src=""img/food5.png"" style=""width:200px; border:14px solid green;"">","null","","","","","","",""
"","image-keyboard-response","318","156910","0.0-385.0","3IKZ72A5B525WRO823P13B8SF99FNV","A1NLJ1L4VCQYV2","3T5ZXGO9DEAUILU6S56NLENRQJRQZJ","","373","img/food5.png","74","374","1","1","2","1,0.5,0,1,0.5,0,0.5,0,1","false",""
"","html-keyboard-response","319","157213","0.0-386.0","3IKZ72A5B525WRO823P13B8SF99FNV","A1NLJ1L4VCQYV2","3T5ZXGO9DEAUILU6S56NLENRQJRQZJ","","null","<img src=""img/food5.png"" style=""width:200px; border:14px solid green;"">","null","","","","","","",""
"","image-keyboard-response","320","157582","0.0-388.0","3IKZ72A5B525WRO823P13B8SF99FNV","A1NLJ1L4VCQYV2","3T5ZXGO9DEAUILU6S56NLENRQJRQZJ","","369","img/food3.png","74","369","1","1","3","1,0.5,0,1,0.5,0,0.5,0,1","false",""
"","html-keyboard-response","321","157887","0.0-389.0","3IKZ72A5B525WRO823P13B8SF99FNV","A1NLJ1L4VCQYV2","3T5ZXGO9DEAUILU6S56NLENRQJRQZJ","","null","<img src=""img/food3.png"" style=""width:200px; border:14px solid green;"">","null","","","","","","",""
"","image-keyboard-response","322","158251","0.0-391.0","3IKZ72A5B525WRO823P13B8SF99FNV","A1NLJ1L4VCQYV2","3T5ZXGO9DEAUILU6S56NLENRQJRQZJ","","363","img/food5.png","76","363","3","0","2","1,0.5,0,1,0.5,0,0.5,0,1","false",""
"","html-keyboard-response","323","158566","0.0-392.0","3IKZ72A5B525WRO823P13B8SF99FNV","A1NLJ1L4VCQYV2","3T5ZXGO9DEAUILU6S56NLENRQJRQZJ","","null","<img src=""img/food5.png"" style=""width:200px;border:14px solid red;"">","null","","","","","","",""
"","image-keyboard-response","324","158822","0.0-394.0","3IKZ72A5B525WRO823P13B8SF99FNV","A1NLJ1L4VCQYV2","3T5ZXGO9DEAUILU6S56NLENRQJRQZJ","","256","img/food3.png","74","256","1","1","3","1,0.5,0,1,0.5,0,0.5,0,1","false",""
"","html-keyboard-response","325","159136","0.0-395.0","3IKZ72A5B525WRO823P13B8SF99FNV","A1NLJ1L4VCQYV2","3T5ZXGO9DEAUILU6S56NLENRQJRQZJ","","null","<img src=""img/food3.png"" style=""width:200px; border:14px solid green;"">","null","","","","","","",""
"","image-keyboard-response","326","159600","0.0-397.0","3IKZ72A5B525WRO823P13B8SF99FNV","A1NLJ1L4VCQYV2","3T5ZXGO9DEAUILU6S56NLENRQJRQZJ","","464","img/food5.png","76","465","3","0","2","1,0.5,0,1,0.5,0,0.5,0,1","false",""
"","html-keyboard-response","327","159903","0.0-398.0","3IKZ72A5B525WRO823P13B8SF99FNV","A1NLJ1L4VCQYV2","3T5ZXGO9DEAUILU6S56NLENRQJRQZJ","","null","<img src=""img/food5.png"" style=""width:200px;border:14px solid red;"">","null","","","","","","",""
"","image-keyboard-response","328","160631","0.0-400.0","3IKZ72A5B525WRO823P13B8SF99FNV","A1NLJ1L4VCQYV2","3T5ZXGO9DEAUILU6S56NLENRQJRQZJ","","728","img/food2.png","74","728","1","1","1","1,0.5,0,1,0.5,0,0.5,0,1","false",""
"","html-keyboard-response","329","160934","0.0-401.0","3IKZ72A5B525WRO823P13B8SF99FNV","A1NLJ1L4VCQYV2","3T5ZXGO9DEAUILU6S56NLENRQJRQZJ","","null","<img src=""img/food2.png"" style=""width:200px; border:14px solid green;"">","null","","","","","","",""
"","image-keyboard-response","330","161285","0.0-403.0","3IKZ72A5B525WRO823P13B8SF99FNV","A1NLJ1L4VCQYV2","3T5ZXGO9DEAUILU6S56NLENRQJRQZJ","","350","img/food2.png","74","350","1","1","1","1,0.5,0,1,0.5,0,0.5,0,1","false",""
"","html-keyboard-response","331","161612","0.0-404.0","3IKZ72A5B525WRO823P13B8SF99FNV","A1NLJ1L4VCQYV2","3T5ZXGO9DEAUILU6S56NLENRQJRQZJ","","null","<img src=""img/food2.png"" style=""width:200px; border:14px solid green;"">","null","","","","","","",""
"","image-keyboard-response","332","161833","0.0-406.0","3IKZ72A5B525WRO823P13B8SF99FNV","A1NLJ1L4VCQYV2","3T5ZXGO9DEAUILU6S56NLENRQJRQZJ","","221","img/food3.png","74","221","1","1","3","1,0.5,0,1,0.5,0,0.5,0,1","false",""
"","html-keyboard-response","333","162135","0.0-407.0","3IKZ72A5B525WRO823P13B8SF99FNV","A1NLJ1L4VCQYV2","3T5ZXGO9DEAUILU6S56NLENRQJRQZJ","","null","<img src=""img/food3.png"" style=""width:200px; border:14px solid green;"">","null","","","","","","",""
"","image-keyboard-response","334","162818","0.0-409.0","3IKZ72A5B525WRO823P13B8SF99FNV","A1NLJ1L4VCQYV2","3T5ZXGO9DEAUILU6S56NLENRQJRQZJ","","683","img/food5.png","76","683","3","0","2","1,0.5,0,1,0.5,0,0.5,0,1","false",""
"","html-keyboard-response","335","163133","0.0-410.0","3IKZ72A5B525WRO823P13B8SF99FNV","A1NLJ1L4VCQYV2","3T5ZXGO9DEAUILU6S56NLENRQJRQZJ","","null","<img src=""img/food5.png"" style=""width:200px;border:14px solid red;"">","null","","","","","","",""
"","image-keyboard-response","336","163511","0.0-412.0","3IKZ72A5B525WRO823P13B8SF99FNV","A1NLJ1L4VCQYV2","3T5ZXGO9DEAUILU6S56NLENRQJRQZJ","","377","img/food3.png","74","377","1","0","3","1,0.5,0,1,0.5,0,0.5,0,1","false",""
"","html-keyboard-response","337","163823","0.0-413.0","3IKZ72A5B525WRO823P13B8SF99FNV","A1NLJ1L4VCQYV2","3T5ZXGO9DEAUILU6S56NLENRQJRQZJ","","null","<img src=""img/food3.png"" style=""width:200px;border:14px solid red;"">","null","","","","","","",""
"","image-keyboard-response","338","163938","0.0-415.0","3IKZ72A5B525WRO823P13B8SF99FNV","A1NLJ1L4VCQYV2","3T5ZXGO9DEAUILU6S56NLENRQJRQZJ","","115","img/food2.png","76","115","3","0","1","1,0.5,0,1,0.5,0,0.5,0,1","false",""
"","html-keyboard-response","339","164270","0.0-416.0","3IKZ72A5B525WRO823P13B8SF99FNV","A1NLJ1L4VCQYV2","3T5ZXGO9DEAUILU6S56NLENRQJRQZJ","","null","<img src=""img/food2.png"" style=""width:200px;border:14px solid red;"">","null","","","","","","",""
"","image-keyboard-response","340","164392","0.0-418.0","3IKZ72A5B525WRO823P13B8SF99FNV","A1NLJ1L4VCQYV2","3T5ZXGO9DEAUILU6S56NLENRQJRQZJ","","122","img/food2.png","74","122","1","1","1","1,0.5,0,1,0.5,0,0.5,0,1","false",""
"","html-keyboard-response","341","164700","0.0-419.0","3IKZ72A5B525WRO823P13B8SF99FNV","A1NLJ1L4VCQYV2","3T5ZXGO9DEAUILU6S56NLENRQJRQZJ","","null","<img src=""img/food2.png"" style=""width:200px; border:14px solid green;"">","null","","","","","","",""
"","image-keyboard-response","342","165192","0.0-421.0","3IKZ72A5B525WRO823P13B8SF99FNV","A1NLJ1L4VCQYV2","3T5ZXGO9DEAUILU6S56NLENRQJRQZJ","","490","img/food5.png","74","491","1","1","2","1,0.5,0,1,0.5,0,0.5,0,1","false",""
"","html-keyboard-response","343","165500","0.0-422.0","3IKZ72A5B525WRO823P13B8SF99FNV","A1NLJ1L4VCQYV2","3T5ZXGO9DEAUILU6S56NLENRQJRQZJ","","null","<img src=""img/food5.png"" style=""width:200px; border:14px solid green;"">","null","","","","","","",""
"","image-keyboard-response","344","165873","0.0-424.0","3IKZ72A5B525WRO823P13B8SF99FNV","A1NLJ1L4VCQYV2","3T5ZXGO9DEAUILU6S56NLENRQJRQZJ","","372","img/food5.png","74","372","1","1","2","1,0.5,0,1,0.5,0,0.5,0,1","false",""
"","html-keyboard-response","345","166176","0.0-425.0","3IKZ72A5B525WRO823P13B8SF99FNV","A1NLJ1L4VCQYV2","3T5ZXGO9DEAUILU6S56NLENRQJRQZJ","","null","<img src=""img/food5.png"" style=""width:200px; border:14px solid green;"">","null","","","","","","",""
"","image-keyboard-response","346","166502","0.0-427.0","3IKZ72A5B525WRO823P13B8SF99FNV","A1NLJ1L4VCQYV2","3T5ZXGO9DEAUILU6S56NLENRQJRQZJ","","326","img/food2.png","74","327","1","1","1","1,0.5,0,1,0.5,0,0.5,0,1","false",""
"","html-keyboard-response","347","166806","0.0-428.0","3IKZ72A5B525WRO823P13B8SF99FNV","A1NLJ1L4VCQYV2","3T5ZXGO9DEAUILU6S56NLENRQJRQZJ","","null","<img src=""img/food2.png"" style=""width:200px; border:14px solid green;"">","null","","","","","","",""
"","image-keyboard-response","348","167195","0.0-430.0","3IKZ72A5B525WRO823P13B8SF99FNV","A1NLJ1L4VCQYV2","3T5ZXGO9DEAUILU6S56NLENRQJRQZJ","","389","img/food3.png","74","389","1","1","3","1,0.5,0,1,0.5,0,0.5,0,1","false",""
"","html-keyboard-response","349","167499","0.0-431.0","3IKZ72A5B525WRO823P13B8SF99FNV","A1NLJ1L4VCQYV2","3T5ZXGO9DEAUILU6S56NLENRQJRQZJ","","null","<img src=""img/food3.png"" style=""width:200px; border:14px solid green;"">","null","","","","","","",""
"","image-keyboard-response","350","168096","0.0-433.0","3IKZ72A5B525WRO823P13B8SF99FNV","A1NLJ1L4VCQYV2","3T5ZXGO9DEAUILU6S56NLENRQJRQZJ","","595","img/food5.png","74","597","1","1","2","1,0.5,0,1,0.5,0,0.5,0,1","false",""
"","html-keyboard-response","351","168406","0.0-434.0","3IKZ72A5B525WRO823P13B8SF99FNV","A1NLJ1L4VCQYV2","3T5ZXGO9DEAUILU6S56NLENRQJRQZJ","","null","<img src=""img/food5.png"" style=""width:200px; border:14px solid green;"">","null","","","","","","",""
"","image-keyboard-response","352","168758","0.0-436.0","3IKZ72A5B525WRO823P13B8SF99FNV","A1NLJ1L4VCQYV2","3T5ZXGO9DEAUILU6S56NLENRQJRQZJ","","351","img/food5.png","74","352","1","1","2","1,0.5,0,1,0.5,0,0.5,0,1","false",""
"","html-keyboard-response","353","169068","0.0-437.0","3IKZ72A5B525WRO823P13B8SF99FNV","A1NLJ1L4VCQYV2","3T5ZXGO9DEAUILU6S56NLENRQJRQZJ","","null","<img src=""img/food5.png"" style=""width:200px; border:14px solid green;"">","null","","","","","","",""
"","image-keyboard-response","354","169416","0.0-439.0","3IKZ72A5B525WRO823P13B8SF99FNV","A1NLJ1L4VCQYV2","3T5ZXGO9DEAUILU6S56NLENRQJRQZJ","","348","img/food2.png","74","348","1","1","1","1,0.5,0,1,0.5,0,0.5,0,1","false",""
"","html-keyboard-response","355","169729","0.0-440.0","3IKZ72A5B525WRO823P13B8SF99FNV","A1NLJ1L4VCQYV2","3T5ZXGO9DEAUILU6S56NLENRQJRQZJ","","null","<img src=""img/food2.png"" style=""width:200px; border:14px solid green;"">","null","","","","","","",""
"","image-keyboard-response","356","170151","0.0-442.0","3IKZ72A5B525WRO823P13B8SF99FNV","A1NLJ1L4VCQYV2","3T5ZXGO9DEAUILU6S56NLENRQJRQZJ","","421","img/food5.png","74","422","1","1","2","1,0.5,0,1,0.5,0,0.5,0,1","false",""
"","html-keyboard-response","357","170452","0.0-443.0","3IKZ72A5B525WRO823P13B8SF99FNV","A1NLJ1L4VCQYV2","3T5ZXGO9DEAUILU6S56NLENRQJRQZJ","","null","<img src=""img/food5.png"" style=""width:200px; border:14px solid green;"">","null","","","","","","",""
"","image-keyboard-response","358","170777","0.0-445.0","3IKZ72A5B525WRO823P13B8SF99FNV","A1NLJ1L4VCQYV2","3T5ZXGO9DEAUILU6S56NLENRQJRQZJ","","323","img/food5.png","74","324","1","1","2","1,0.5,0,1,0.5,0,0.5,0,1","false",""
"","html-keyboard-response","359","171083","0.0-446.0","3IKZ72A5B525WRO823P13B8SF99FNV","A1NLJ1L4VCQYV2","3T5ZXGO9DEAUILU6S56NLENRQJRQZJ","","null","<img src=""img/food5.png"" style=""width:200px; border:14px solid green;"">","null","","","","","","",""
"","image-keyboard-response","360","171406","0.0-448.0","3IKZ72A5B525WRO823P13B8SF99FNV","A1NLJ1L4VCQYV2","3T5ZXGO9DEAUILU6S56NLENRQJRQZJ","","323","img/food2.png","74","325","1","1","1","1,0.5,0,1,0.5,0,0.5,0,1","false",""
"","html-keyboard-response","361","171712","0.0-449.0","3IKZ72A5B525WRO823P13B8SF99FNV","A1NLJ1L4VCQYV2","3T5ZXGO9DEAUILU6S56NLENRQJRQZJ","","null","<img src=""img/food2.png"" style=""width:200px; border:14px solid green;"">","null","","","","","","",""
"","image-keyboard-response","362","172121","0.0-451.0","3IKZ72A5B525WRO823P13B8SF99FNV","A1NLJ1L4VCQYV2","3T5ZXGO9DEAUILU6S56NLENRQJRQZJ","","407","img/food3.png","74","407","1","0","3","1,0.5,0,1,0.5,0,0.5,0,1","false",""
"","html-keyboard-response","363","172434","0.0-452.0","3IKZ72A5B525WRO823P13B8SF99FNV","A1NLJ1L4VCQYV2","3T5ZXGO9DEAUILU6S56NLENRQJRQZJ","","null","<img src=""img/food3.png"" style=""width:200px;border:14px solid red;"">","null","","","","","","",""
"","instructions","364","175903","0.0-454.0","3IKZ72A5B525WRO823P13B8SF99FNV","A1NLJ1L4VCQYV2","3T5ZXGO9DEAUILU6S56NLENRQJRQZJ","[{""page_index"":0,""viewing_time"":3469}]","3469","","","","","","","","",""
"","survey-text","365","179675","0.0-455.0","3IKZ72A5B525WRO823P13B8SF99FNV","A1NLJ1L4VCQYV2","3T5ZXGO9DEAUILU6S56NLENRQJRQZJ","","3771","","","","","","","","","{""Q0"":""A1NLJ1L4VCQYV2""}"
