"success","trial_type","trial_index","time_elapsed","internal_node_id","assignmentID","mturkID","hitID","view_history","rt","stimulus","key_press","reactionTime","a","r","s","cond","reward_cond","reward_cond_actual","reward_matrix_idx","warning","responses"
"true","fullscreen","0","3160","0.0-0.0","3OB0CAO74IBJMMJS4VMCNCIC1S4HY5","A1NVJB5O4H7ZCJ","3HUR21WDDUBEMSLDIXZW1FAIHWSYXN","","","","","","","","","","","","","",""
"","instructions","1","55193","0.0-1.0","3OB0CAO74IBJMMJS4VMCNCIC1S4HY5","A1NVJB5O4H7ZCJ","3HUR21WDDUBEMSLDIXZW1FAIHWSYXN","[{""page_index"":0,""viewing_time"":5764.700000047684},{""page_index"":1,""viewing_time"":10409.599999904633},{""page_index"":2,""viewing_time"":7153.900000095367},{""page_index"":3,""viewing_time"":5299.899999856949},{""page_index"":4,""viewing_time"":2457},{""page_index"":5,""viewing_time"":14517.700000047684},{""page_index"":6,""viewing_time"":6425}]","52028.40000009537","","","","","","","","","","","",""
"","image-keyboard-response","2","57072","0.0-2.0","3OB0CAO74IBJMMJS4VMCNCIC1S4HY5","A1NVJB5O4H7ZCJ","3HUR21WDDUBEMSLDIXZW1FAIHWSYXN","","1876.2000000476837","img/food5.png","74","1879","1","0","2","1","1,0.5,0,1,0.5,0,0.5,0,1","0,1,0.5,0,1,0.5,1,0.5,0","3","",""
"","html-keyboard-response","3","57378","0.0-3.0","3OB0CAO74IBJMMJS4VMCNCIC1S4HY5","A1NVJB5O4H7ZCJ","3HUR21WDDUBEMSLDIXZW1FAIHWSYXN","","null","<img src=""img/food5.png"" style=""width:200px;border:14px solid red;"">","null","","","","","","","","","",""
"","image-keyboard-response","4","58720","0.0-4.0","3OB0CAO74IBJMMJS4VMCNCIC1S4HY5","A1NVJB5O4H7ZCJ","3HUR21WDDUBEMSLDIXZW1FAIHWSYXN","","1337.5","img/food1.png","74","1340.1000001430511","1","1","3","1","1,0.5,0,1,0.5,0,0.5,0,1","0,1,0.5,0,1,0.5,1,0.5,0","3","",""
"","html-keyboard-response","5","59023","0.0-5.0","3OB0CAO74IBJMMJS4VMCNCIC1S4HY5","A1NVJB5O4H7ZCJ","3HUR21WDDUBEMSLDIXZW1FAIHWSYXN","","null","<img src=""img/food1.png"" style=""width:200px; border:14px solid green;"">","null","","","","","","","","","",""
"","image-keyboard-response","6","60120","0.0-6.0","3OB0CAO74IBJMMJS4VMCNCIC1S4HY5","A1NVJB5O4H7ZCJ","3HUR21WDDUBEMSLDIXZW1FAIHWSYXN","","1093.1000001430511","img/food5.png","75","1095.7999999523163","2","1","2","1","1,0.5,0,1,0.5,0,0.5,0,1","0,1,0.5,0,1,0.5,1,0.5,0","3","",""
"","html-keyboard-response","7","60424","0.0-7.0","3OB0CAO74IBJMMJS4VMCNCIC1S4HY5","A1NVJB5O4H7ZCJ","3HUR21WDDUBEMSLDIXZW1FAIHWSYXN","","null","<img src=""img/food5.png"" style=""width:200px; border:14px solid green;"">","null","","","","","","","","","",""
"","image-keyboard-response","8","61855","0.0-8.0","3OB0CAO74IBJMMJS4VMCNCIC1S4HY5","A1NVJB5O4H7ZCJ","3HUR21WDDUBEMSLDIXZW1FAIHWSYXN","","1427.2999999523163","img/food4.png","75","1429.8999998569489","2","1","1","1","1,0.5,0,1,0.5,0,0.5,0,1","0,1,0.5,0,1,0.5,1,0.5,0","3","",""
"","html-keyboard-response","9","62159","0.0-9.0","3OB0CAO74IBJMMJS4VMCNCIC1S4HY5","A1NVJB5O4H7ZCJ","3HUR21WDDUBEMSLDIXZW1FAIHWSYXN","","null","<img src=""img/food4.png"" style=""width:200px; border:14px solid green;"">","null","","","","","","","","","",""
"","image-keyboard-response","10","62943","0.0-10.0","3OB0CAO74IBJMMJS4VMCNCIC1S4HY5","A1NVJB5O4H7ZCJ","3HUR21WDDUBEMSLDIXZW1FAIHWSYXN","","780.5","img/food5.png","75","783.2000000476837","2","1","2","1","1,0.5,0,1,0.5,0,0.5,0,1","0,1,0.5,0,1,0.5,1,0.5,0","3","",""
"","html-keyboard-response","11","63247","0.0-11.0","3OB0CAO74IBJMMJS4VMCNCIC1S4HY5","A1NVJB5O4H7ZCJ","3HUR21WDDUBEMSLDIXZW1FAIHWSYXN","","null","<img src=""img/food5.png"" style=""width:200px; border:14px solid green;"">","null","","","","","","","","","",""
"","image-keyboard-response","12","63895","0.0-12.0","3OB0CAO74IBJMMJS4VMCNCIC1S4HY5","A1NVJB5O4H7ZCJ","3HUR21WDDUBEMSLDIXZW1FAIHWSYXN","","644.2999999523163","img/food4.png","75","647.4000000953674","2","1","1","1","1,0.5,0,1,0.5,0,0.5,0,1","0,1,0.5,0,1,0.5,1,0.5,0","3","",""
"","html-keyboard-response","13","64198","0.0-13.0","3OB0CAO74IBJMMJS4VMCNCIC1S4HY5","A1NVJB5O4H7ZCJ","3HUR21WDDUBEMSLDIXZW1FAIHWSYXN","","null","<img src=""img/food4.png"" style=""width:200px; border:14px solid green;"">","null","","","","","","","","","",""
"","image-keyboard-response","14","65277","0.0-14.0","3OB0CAO74IBJMMJS4VMCNCIC1S4HY5","A1NVJB5O4H7ZCJ","3HUR21WDDUBEMSLDIXZW1FAIHWSYXN","","1076.1000001430511","img/food1.png","76","1078.1000001430511","3","0","3","1","1,0.5,0,1,0.5,0,0.5,0,1","0,1,0.5,0,1,0.5,1,0.5,0","3","",""
"","html-keyboard-response","15","65580","0.0-15.0","3OB0CAO74IBJMMJS4VMCNCIC1S4HY5","A1NVJB5O4H7ZCJ","3HUR21WDDUBEMSLDIXZW1FAIHWSYXN","","null","<img src=""img/food1.png"" style=""width:200px;border:14px solid red;"">","null","","","","","","","","","",""
"","image-keyboard-response","16","66404","0.0-16.0","3OB0CAO74IBJMMJS4VMCNCIC1S4HY5","A1NVJB5O4H7ZCJ","3HUR21WDDUBEMSLDIXZW1FAIHWSYXN","","821.5","img/food4.png","75","823.2000000476837","2","1","1","1","1,0.5,0,1,0.5,0,0.5,0,1","0,1,0.5,0,1,0.5,1,0.5,0","3","",""
"","html-keyboard-response","17","66706","0.0-17.0","3OB0CAO74IBJMMJS4VMCNCIC1S4HY5","A1NVJB5O4H7ZCJ","3HUR21WDDUBEMSLDIXZW1FAIHWSYXN","","null","<img src=""img/food4.png"" style=""width:200px; border:14px solid green;"">","null","","","","","","","","","",""
"","image-keyboard-response","18","67367","0.0-18.0","3OB0CAO74IBJMMJS4VMCNCIC1S4HY5","A1NVJB5O4H7ZCJ","3HUR21WDDUBEMSLDIXZW1FAIHWSYXN","","659.2999999523163","img/food5.png","75","660.7999999523163","2","1","2","1","1,0.5,0,1,0.5,0,0.5,0,1","0,1,0.5,0,1,0.5,1,0.5,0","3","",""
"","html-keyboard-response","19","67671","0.0-19.0","3OB0CAO74IBJMMJS4VMCNCIC1S4HY5","A1NVJB5O4H7ZCJ","3HUR21WDDUBEMSLDIXZW1FAIHWSYXN","","null","<img src=""img/food5.png"" style=""width:200px; border:14px solid green;"">","null","","","","","","","","","",""
"","image-keyboard-response","20","68383","0.0-20.0","3OB0CAO74IBJMMJS4VMCNCIC1S4HY5","A1NVJB5O4H7ZCJ","3HUR21WDDUBEMSLDIXZW1FAIHWSYXN","","708.2000000476837","img/food1.png","74","710.9000000953674","1","1","3","1","1,0.5,0,1,0.5,0,0.5,0,1","0,1,0.5,0,1,0.5,1,0.5,0","3","",""
"","html-keyboard-response","21","68687","0.0-21.0","3OB0CAO74IBJMMJS4VMCNCIC1S4HY5","A1NVJB5O4H7ZCJ","3HUR21WDDUBEMSLDIXZW1FAIHWSYXN","","null","<img src=""img/food1.png"" style=""width:200px; border:14px solid green;"">","null","","","","","","","","","",""
"","image-keyboard-response","22","69328","0.0-22.0","3OB0CAO74IBJMMJS4VMCNCIC1S4HY5","A1NVJB5O4H7ZCJ","3HUR21WDDUBEMSLDIXZW1FAIHWSYXN","","637.1999998092651","img/food4.png","75","639.7000000476837","2","1","1","1","1,0.5,0,1,0.5,0,0.5,0,1","0,1,0.5,0,1,0.5,1,0.5,0","3","",""
"","html-keyboard-response","23","69631","0.0-23.0","3OB0CAO74IBJMMJS4VMCNCIC1S4HY5","A1NVJB5O4H7ZCJ","3HUR21WDDUBEMSLDIXZW1FAIHWSYXN","","null","<img src=""img/food4.png"" style=""width:200px; border:14px solid green;"">","null","","","","","","","","","",""
"","image-keyboard-response","24","70159","0.0-24.0","3OB0CAO74IBJMMJS4VMCNCIC1S4HY5","A1NVJB5O4H7ZCJ","3HUR21WDDUBEMSLDIXZW1FAIHWSYXN","","524.4000000953674","img/food5.png","75","526.8000001907349","2","1","2","1","1,0.5,0,1,0.5,0,0.5,0,1","0,1,0.5,0,1,0.5,1,0.5,0","3","",""
"","html-keyboard-response","25","70462","0.0-25.0","3OB0CAO74IBJMMJS4VMCNCIC1S4HY5","A1NVJB5O4H7ZCJ","3HUR21WDDUBEMSLDIXZW1FAIHWSYXN","","null","<img src=""img/food5.png"" style=""width:200px; border:14px solid green;"">","null","","","","","","","","","",""
"","image-keyboard-response","26","71023","0.0-26.0","3OB0CAO74IBJMMJS4VMCNCIC1S4HY5","A1NVJB5O4H7ZCJ","3HUR21WDDUBEMSLDIXZW1FAIHWSYXN","","557.6000001430511","img/food1.png","74","560.2000000476837","1","1","3","1","1,0.5,0,1,0.5,0,0.5,0,1","0,1,0.5,0,1,0.5,1,0.5,0","3","",""
"","html-keyboard-response","27","71327","0.0-27.0","3OB0CAO74IBJMMJS4VMCNCIC1S4HY5","A1NVJB5O4H7ZCJ","3HUR21WDDUBEMSLDIXZW1FAIHWSYXN","","null","<img src=""img/food1.png"" style=""width:200px; border:14px solid green;"">","null","","","","","","","","","",""
"","image-keyboard-response","28","72128","0.0-28.0","3OB0CAO74IBJMMJS4VMCNCIC1S4HY5","A1NVJB5O4H7ZCJ","3HUR21WDDUBEMSLDIXZW1FAIHWSYXN","","798","img/food1.png","74","800.2999999523163","1","1","3","1","1,0.5,0,1,0.5,0,0.5,0,1","0,1,0.5,0,1,0.5,1,0.5,0","3","",""
"","html-keyboard-response","29","72431","0.0-29.0","3OB0CAO74IBJMMJS4VMCNCIC1S4HY5","A1NVJB5O4H7ZCJ","3HUR21WDDUBEMSLDIXZW1FAIHWSYXN","","null","<img src=""img/food1.png"" style=""width:200px; border:14px solid green;"">","null","","","","","","","","","",""
"","image-keyboard-response","30","72875","0.0-30.0","3OB0CAO74IBJMMJS4VMCNCIC1S4HY5","A1NVJB5O4H7ZCJ","3HUR21WDDUBEMSLDIXZW1FAIHWSYXN","","440.40000009536743","img/food1.png","74","442.7999999523163","1","1","3","1","1,0.5,0,1,0.5,0,0.5,0,1","0,1,0.5,0,1,0.5,1,0.5,0","3","",""
"","html-keyboard-response","31","73179","0.0-31.0","3OB0CAO74IBJMMJS4VMCNCIC1S4HY5","A1NVJB5O4H7ZCJ","3HUR21WDDUBEMSLDIXZW1FAIHWSYXN","","null","<img src=""img/food1.png"" style=""width:200px; border:14px solid green;"">","null","","","","","","","","","",""
"","image-keyboard-response","32","73771","0.0-32.0","3OB0CAO74IBJMMJS4VMCNCIC1S4HY5","A1NVJB5O4H7ZCJ","3HUR21WDDUBEMSLDIXZW1FAIHWSYXN","","589","img/food4.png","75","591.5","2","1","1","1","1,0.5,0,1,0.5,0,0.5,0,1","0,1,0.5,0,1,0.5,1,0.5,0","3","",""
"","html-keyboard-response","33","74075","0.0-33.0","3OB0CAO74IBJMMJS4VMCNCIC1S4HY5","A1NVJB5O4H7ZCJ","3HUR21WDDUBEMSLDIXZW1FAIHWSYXN","","null","<img src=""img/food4.png"" style=""width:200px; border:14px solid green;"">","null","","","","","","","","","",""
"","image-keyboard-response","34","74483","0.0-34.0","3OB0CAO74IBJMMJS4VMCNCIC1S4HY5","A1NVJB5O4H7ZCJ","3HUR21WDDUBEMSLDIXZW1FAIHWSYXN","","404.59999990463257","img/food4.png","75","407","2","1","1","1","1,0.5,0,1,0.5,0,0.5,0,1","0,1,0.5,0,1,0.5,1,0.5,0","3","",""
"","html-keyboard-response","35","74786","0.0-35.0","3OB0CAO74IBJMMJS4VMCNCIC1S4HY5","A1NVJB5O4H7ZCJ","3HUR21WDDUBEMSLDIXZW1FAIHWSYXN","","null","<img src=""img/food4.png"" style=""width:200px; border:14px solid green;"">","null","","","","","","","","","",""
"","image-keyboard-response","36","75531","0.0-36.0","3OB0CAO74IBJMMJS4VMCNCIC1S4HY5","A1NVJB5O4H7ZCJ","3HUR21WDDUBEMSLDIXZW1FAIHWSYXN","","741.8000001907349","img/food1.png","74","744.2000000476837","1","1","3","1","1,0.5,0,1,0.5,0,0.5,0,1","0,1,0.5,0,1,0.5,1,0.5,0","3","",""
"","html-keyboard-response","37","75834","0.0-37.0","3OB0CAO74IBJMMJS4VMCNCIC1S4HY5","A1NVJB5O4H7ZCJ","3HUR21WDDUBEMSLDIXZW1FAIHWSYXN","","null","<img src=""img/food1.png"" style=""width:200px; border:14px solid green;"">","null","","","","","","","","","",""
"","image-keyboard-response","38","76594","0.0-38.0","3OB0CAO74IBJMMJS4VMCNCIC1S4HY5","A1NVJB5O4H7ZCJ","3HUR21WDDUBEMSLDIXZW1FAIHWSYXN","","757.7999999523163","img/food5.png","75","759.8999998569489","2","1","2","1","1,0.5,0,1,0.5,0,0.5,0,1","0,1,0.5,0,1,0.5,1,0.5,0","3","",""
"","html-keyboard-response","39","76898","0.0-39.0","3OB0CAO74IBJMMJS4VMCNCIC1S4HY5","A1NVJB5O4H7ZCJ","3HUR21WDDUBEMSLDIXZW1FAIHWSYXN","","null","<img src=""img/food5.png"" style=""width:200px; border:14px solid green;"">","null","","","","","","","","","",""
"","image-keyboard-response","40","77402","0.0-40.0","3OB0CAO74IBJMMJS4VMCNCIC1S4HY5","A1NVJB5O4H7ZCJ","3HUR21WDDUBEMSLDIXZW1FAIHWSYXN","","501.2999999523163","img/food5.png","75","503.59999990463257","2","1","2","1","1,0.5,0,1,0.5,0,0.5,0,1","0,1,0.5,0,1,0.5,1,0.5,0","3","",""
"","html-keyboard-response","41","77708","0.0-41.0","3OB0CAO74IBJMMJS4VMCNCIC1S4HY5","A1NVJB5O4H7ZCJ","3HUR21WDDUBEMSLDIXZW1FAIHWSYXN","","null","<img src=""img/food5.png"" style=""width:200px; border:14px solid green;"">","null","","","","","","","","","",""
"","image-keyboard-response","42","78243","0.0-42.0","3OB0CAO74IBJMMJS4VMCNCIC1S4HY5","A1NVJB5O4H7ZCJ","3HUR21WDDUBEMSLDIXZW1FAIHWSYXN","","531.4000000953674","img/food1.png","74","533.8000001907349","1","1","3","1","1,0.5,0,1,0.5,0,0.5,0,1","0,1,0.5,0,1,0.5,1,0.5,0","3","",""
"","html-keyboard-response","43","78550","0.0-43.0","3OB0CAO74IBJMMJS4VMCNCIC1S4HY5","A1NVJB5O4H7ZCJ","3HUR21WDDUBEMSLDIXZW1FAIHWSYXN","","null","<img src=""img/food1.png"" style=""width:200px; border:14px solid green;"">","null","","","","","","","","","",""
"","image-keyboard-response","44","79059","0.0-44.0","3OB0CAO74IBJMMJS4VMCNCIC1S4HY5","A1NVJB5O4H7ZCJ","3HUR21WDDUBEMSLDIXZW1FAIHWSYXN","","505.5","img/food1.png","74","508","1","1","3","1","1,0.5,0,1,0.5,0,0.5,0,1","0,1,0.5,0,1,0.5,1,0.5,0","3","",""
"","html-keyboard-response","45","79363","0.0-45.0","3OB0CAO74IBJMMJS4VMCNCIC1S4HY5","A1NVJB5O4H7ZCJ","3HUR21WDDUBEMSLDIXZW1FAIHWSYXN","","null","<img src=""img/food1.png"" style=""width:200px; border:14px solid green;"">","null","","","","","","","","","",""
"","image-keyboard-response","46","79811","0.0-46.0","3OB0CAO74IBJMMJS4VMCNCIC1S4HY5","A1NVJB5O4H7ZCJ","3HUR21WDDUBEMSLDIXZW1FAIHWSYXN","","444.7999999523163","img/food1.png","74","447.2000000476837","1","1","3","1","1,0.5,0,1,0.5,0,0.5,0,1","0,1,0.5,0,1,0.5,1,0.5,0","3","",""
"","html-keyboard-response","47","80115","0.0-47.0","3OB0CAO74IBJMMJS4VMCNCIC1S4HY5","A1NVJB5O4H7ZCJ","3HUR21WDDUBEMSLDIXZW1FAIHWSYXN","","null","<img src=""img/food1.png"" style=""width:200px; border:14px solid green;"">","null","","","","","","","","","",""
"","image-keyboard-response","48","80611","0.0-48.0","3OB0CAO74IBJMMJS4VMCNCIC1S4HY5","A1NVJB5O4H7ZCJ","3HUR21WDDUBEMSLDIXZW1FAIHWSYXN","","492.80000019073486","img/food4.png","75","494.90000009536743","2","1","1","1","1,0.5,0,1,0.5,0,0.5,0,1","0,1,0.5,0,1,0.5,1,0.5,0","3","",""
"","html-keyboard-response","49","80915","0.0-49.0","3OB0CAO74IBJMMJS4VMCNCIC1S4HY5","A1NVJB5O4H7ZCJ","3HUR21WDDUBEMSLDIXZW1FAIHWSYXN","","null","<img src=""img/food4.png"" style=""width:200px; border:14px solid green;"">","null","","","","","","","","","",""
"","image-keyboard-response","50","81360","0.0-50.0","3OB0CAO74IBJMMJS4VMCNCIC1S4HY5","A1NVJB5O4H7ZCJ","3HUR21WDDUBEMSLDIXZW1FAIHWSYXN","","442.40000009536743","img/food4.png","75","444.2000000476837","2","1","1","1","1,0.5,0,1,0.5,0,0.5,0,1","0,1,0.5,0,1,0.5,1,0.5,0","3","",""
"","html-keyboard-response","51","81662","0.0-51.0","3OB0CAO74IBJMMJS4VMCNCIC1S4HY5","A1NVJB5O4H7ZCJ","3HUR21WDDUBEMSLDIXZW1FAIHWSYXN","","null","<img src=""img/food4.png"" style=""width:200px; border:14px solid green;"">","null","","","","","","","","","",""
"","image-keyboard-response","52","82411","0.0-52.0","3OB0CAO74IBJMMJS4VMCNCIC1S4HY5","A1NVJB5O4H7ZCJ","3HUR21WDDUBEMSLDIXZW1FAIHWSYXN","","745.5","img/food1.png","74","747.8999998569489","1","1","3","1","1,0.5,0,1,0.5,0,0.5,0,1","0,1,0.5,0,1,0.5,1,0.5,0","3","",""
"","html-keyboard-response","53","82716","0.0-53.0","3OB0CAO74IBJMMJS4VMCNCIC1S4HY5","A1NVJB5O4H7ZCJ","3HUR21WDDUBEMSLDIXZW1FAIHWSYXN","","null","<img src=""img/food1.png"" style=""width:200px; border:14px solid green;"">","null","","","","","","","","","",""
"","image-keyboard-response","54","83267","0.0-54.0","3OB0CAO74IBJMMJS4VMCNCIC1S4HY5","A1NVJB5O4H7ZCJ","3HUR21WDDUBEMSLDIXZW1FAIHWSYXN","","548.3999998569489","img/food5.png","75","550.7999999523163","2","1","2","1","1,0.5,0,1,0.5,0,0.5,0,1","0,1,0.5,0,1,0.5,1,0.5,0","3","",""
"","html-keyboard-response","55","83570","0.0-55.0","3OB0CAO74IBJMMJS4VMCNCIC1S4HY5","A1NVJB5O4H7ZCJ","3HUR21WDDUBEMSLDIXZW1FAIHWSYXN","","null","<img src=""img/food5.png"" style=""width:200px; border:14px solid green;"">","null","","","","","","","","","",""
"","image-keyboard-response","56","84130","0.0-56.0","3OB0CAO74IBJMMJS4VMCNCIC1S4HY5","A1NVJB5O4H7ZCJ","3HUR21WDDUBEMSLDIXZW1FAIHWSYXN","","556.9000000953674","img/food4.png","75","559.2000000476837","2","1","1","1","1,0.5,0,1,0.5,0,0.5,0,1","0,1,0.5,0,1,0.5,1,0.5,0","3","",""
"","html-keyboard-response","57","84435","0.0-57.0","3OB0CAO74IBJMMJS4VMCNCIC1S4HY5","A1NVJB5O4H7ZCJ","3HUR21WDDUBEMSLDIXZW1FAIHWSYXN","","null","<img src=""img/food4.png"" style=""width:200px; border:14px solid green;"">","null","","","","","","","","","",""
"","image-keyboard-response","58","85010","0.0-58.0","3OB0CAO74IBJMMJS4VMCNCIC1S4HY5","A1NVJB5O4H7ZCJ","3HUR21WDDUBEMSLDIXZW1FAIHWSYXN","","572.6999998092651","img/food5.png","75","575","2","1","2","1","1,0.5,0,1,0.5,0,0.5,0,1","0,1,0.5,0,1,0.5,1,0.5,0","3","",""
"","html-keyboard-response","59","85315","0.0-59.0","3OB0CAO74IBJMMJS4VMCNCIC1S4HY5","A1NVJB5O4H7ZCJ","3HUR21WDDUBEMSLDIXZW1FAIHWSYXN","","null","<img src=""img/food5.png"" style=""width:200px; border:14px solid green;"">","null","","","","","","","","","",""
"","image-keyboard-response","60","85835","0.0-60.0","3OB0CAO74IBJMMJS4VMCNCIC1S4HY5","A1NVJB5O4H7ZCJ","3HUR21WDDUBEMSLDIXZW1FAIHWSYXN","","515.8999998569489","img/food5.png","75","518.7000000476837","2","1","2","1","1,0.5,0,1,0.5,0,0.5,0,1","0,1,0.5,0,1,0.5,1,0.5,0","3","",""
"","html-keyboard-response","61","86138","0.0-61.0","3OB0CAO74IBJMMJS4VMCNCIC1S4HY5","A1NVJB5O4H7ZCJ","3HUR21WDDUBEMSLDIXZW1FAIHWSYXN","","null","<img src=""img/food5.png"" style=""width:200px; border:14px solid green;"">","null","","","","","","","","","",""
"","image-keyboard-response","62","86738","0.0-62.0","3OB0CAO74IBJMMJS4VMCNCIC1S4HY5","A1NVJB5O4H7ZCJ","3HUR21WDDUBEMSLDIXZW1FAIHWSYXN","","596.9000000953674","img/food1.png","74","599.2000000476837","1","1","3","1","1,0.5,0,1,0.5,0,0.5,0,1","0,1,0.5,0,1,0.5,1,0.5,0","3","",""
"","html-keyboard-response","63","87041","0.0-63.0","3OB0CAO74IBJMMJS4VMCNCIC1S4HY5","A1NVJB5O4H7ZCJ","3HUR21WDDUBEMSLDIXZW1FAIHWSYXN","","null","<img src=""img/food1.png"" style=""width:200px; border:14px solid green;"">","null","","","","","","","","","",""
"","image-keyboard-response","64","87707","0.0-64.0","3OB0CAO74IBJMMJS4VMCNCIC1S4HY5","A1NVJB5O4H7ZCJ","3HUR21WDDUBEMSLDIXZW1FAIHWSYXN","","662.3999998569489","img/food1.png","74","664.7999999523163","1","1","3","1","1,0.5,0,1,0.5,0,0.5,0,1","0,1,0.5,0,1,0.5,1,0.5,0","3","",""
"","html-keyboard-response","65","88011","0.0-65.0","3OB0CAO74IBJMMJS4VMCNCIC1S4HY5","A1NVJB5O4H7ZCJ","3HUR21WDDUBEMSLDIXZW1FAIHWSYXN","","null","<img src=""img/food1.png"" style=""width:200px; border:14px solid green;"">","null","","","","","","","","","",""
"","image-keyboard-response","66","88499","0.0-66.0","3OB0CAO74IBJMMJS4VMCNCIC1S4HY5","A1NVJB5O4H7ZCJ","3HUR21WDDUBEMSLDIXZW1FAIHWSYXN","","485.90000009536743","img/food1.png","74","487.7999999523163","1","1","3","1","1,0.5,0,1,0.5,0,0.5,0,1","0,1,0.5,0,1,0.5,1,0.5,0","3","",""
"","html-keyboard-response","67","88803","0.0-67.0","3OB0CAO74IBJMMJS4VMCNCIC1S4HY5","A1NVJB5O4H7ZCJ","3HUR21WDDUBEMSLDIXZW1FAIHWSYXN","","null","<img src=""img/food1.png"" style=""width:200px; border:14px solid green;"">","null","","","","","","","","","",""
"","image-keyboard-response","68","89371","0.0-68.0","3OB0CAO74IBJMMJS4VMCNCIC1S4HY5","A1NVJB5O4H7ZCJ","3HUR21WDDUBEMSLDIXZW1FAIHWSYXN","","565.2999999523163","img/food4.png","75","567.7000000476837","2","1","1","1","1,0.5,0,1,0.5,0,0.5,0,1","0,1,0.5,0,1,0.5,1,0.5,0","3","",""
"","html-keyboard-response","69","89676","0.0-69.0","3OB0CAO74IBJMMJS4VMCNCIC1S4HY5","A1NVJB5O4H7ZCJ","3HUR21WDDUBEMSLDIXZW1FAIHWSYXN","","null","<img src=""img/food4.png"" style=""width:200px; border:14px solid green;"">","null","","","","","","","","","",""
"","image-keyboard-response","70","90115","0.0-70.0","3OB0CAO74IBJMMJS4VMCNCIC1S4HY5","A1NVJB5O4H7ZCJ","3HUR21WDDUBEMSLDIXZW1FAIHWSYXN","","436.2999999523163","img/food4.png","75","438.7000000476837","2","1","1","1","1,0.5,0,1,0.5,0,0.5,0,1","0,1,0.5,0,1,0.5,1,0.5,0","3","",""
"","html-keyboard-response","71","90420","0.0-71.0","3OB0CAO74IBJMMJS4VMCNCIC1S4HY5","A1NVJB5O4H7ZCJ","3HUR21WDDUBEMSLDIXZW1FAIHWSYXN","","null","<img src=""img/food4.png"" style=""width:200px; border:14px solid green;"">","null","","","","","","","","","",""
"","image-keyboard-response","72","90915","0.0-72.0","3OB0CAO74IBJMMJS4VMCNCIC1S4HY5","A1NVJB5O4H7ZCJ","3HUR21WDDUBEMSLDIXZW1FAIHWSYXN","","492.19999980926514","img/food1.png","74","494.69999980926514","1","1","3","1","1,0.5,0,1,0.5,0,0.5,0,1","0,1,0.5,0,1,0.5,1,0.5,0","3","",""
"","html-keyboard-response","73","91219","0.0-73.0","3OB0CAO74IBJMMJS4VMCNCIC1S4HY5","A1NVJB5O4H7ZCJ","3HUR21WDDUBEMSLDIXZW1FAIHWSYXN","","null","<img src=""img/food1.png"" style=""width:200px; border:14px solid green;"">","null","","","","","","","","","",""
"","image-keyboard-response","74","92027","0.0-74.0","3OB0CAO74IBJMMJS4VMCNCIC1S4HY5","A1NVJB5O4H7ZCJ","3HUR21WDDUBEMSLDIXZW1FAIHWSYXN","","805.2000000476837","img/food4.png","75","807.5","2","1","1","1","1,0.5,0,1,0.5,0,0.5,0,1","0,1,0.5,0,1,0.5,1,0.5,0","3","",""
"","html-keyboard-response","75","92330","0.0-75.0","3OB0CAO74IBJMMJS4VMCNCIC1S4HY5","A1NVJB5O4H7ZCJ","3HUR21WDDUBEMSLDIXZW1FAIHWSYXN","","null","<img src=""img/food4.png"" style=""width:200px; border:14px solid green;"">","null","","","","","","","","","",""
"","image-keyboard-response","76","92683","0.0-76.0","3OB0CAO74IBJMMJS4VMCNCIC1S4HY5","A1NVJB5O4H7ZCJ","3HUR21WDDUBEMSLDIXZW1FAIHWSYXN","","349.39999985694885","img/food1.png","75","351.7000000476837","2","0","3","1","1,0.5,0,1,0.5,0,0.5,0,1","0,1,0.5,0,1,0.5,1,0.5,0","3","",""
"","html-keyboard-response","77","92986","0.0-77.0","3OB0CAO74IBJMMJS4VMCNCIC1S4HY5","A1NVJB5O4H7ZCJ","3HUR21WDDUBEMSLDIXZW1FAIHWSYXN","","null","<img src=""img/food1.png"" style=""width:200px;border:14px solid red;"">","null","","","","","","","","","",""
"","image-keyboard-response","78","93488","0.0-78.0","3OB0CAO74IBJMMJS4VMCNCIC1S4HY5","A1NVJB5O4H7ZCJ","3HUR21WDDUBEMSLDIXZW1FAIHWSYXN","","499.59999990463257","img/food4.png","74","501.59999990463257","1","0","1","1","1,0.5,0,1,0.5,0,0.5,0,1","0,1,0.5,0,1,0.5,1,0.5,0","3","",""
"","html-keyboard-response","79","93791","0.0-79.0","3OB0CAO74IBJMMJS4VMCNCIC1S4HY5","A1NVJB5O4H7ZCJ","3HUR21WDDUBEMSLDIXZW1FAIHWSYXN","","null","<img src=""img/food4.png"" style=""width:200px;border:14px solid red;"">","null","","","","","","","","","",""
"","image-keyboard-response","80","94115","0.0-80.0","3OB0CAO74IBJMMJS4VMCNCIC1S4HY5","A1NVJB5O4H7ZCJ","3HUR21WDDUBEMSLDIXZW1FAIHWSYXN","","320.59999990463257","img/food5.png","75","323.2000000476837","2","1","2","1","1,0.5,0,1,0.5,0,0.5,0,1","0,1,0.5,0,1,0.5,1,0.5,0","3","",""
"","html-keyboard-response","81","94418","0.0-81.0","3OB0CAO74IBJMMJS4VMCNCIC1S4HY5","A1NVJB5O4H7ZCJ","3HUR21WDDUBEMSLDIXZW1FAIHWSYXN","","null","<img src=""img/food5.png"" style=""width:200px; border:14px solid green;"">","null","","","","","","","","","",""
"","image-keyboard-response","82","94707","0.0-82.0","3OB0CAO74IBJMMJS4VMCNCIC1S4HY5","A1NVJB5O4H7ZCJ","3HUR21WDDUBEMSLDIXZW1FAIHWSYXN","","285.7000000476837","img/food1.png","75","288.10000014305115","2","0","3","1","1,0.5,0,1,0.5,0,0.5,0,1","0,1,0.5,0,1,0.5,1,0.5,0","3","",""
"","html-keyboard-response","83","95010","0.0-83.0","3OB0CAO74IBJMMJS4VMCNCIC1S4HY5","A1NVJB5O4H7ZCJ","3HUR21WDDUBEMSLDIXZW1FAIHWSYXN","","null","<img src=""img/food1.png"" style=""width:200px;border:14px solid red;"">","null","","","","","","","","","",""
"","image-keyboard-response","84","95707","0.0-84.0","3OB0CAO74IBJMMJS4VMCNCIC1S4HY5","A1NVJB5O4H7ZCJ","3HUR21WDDUBEMSLDIXZW1FAIHWSYXN","","693.4000000953674","img/food5.png","75","695.8000001907349","2","1","2","1","1,0.5,0,1,0.5,0,0.5,0,1","0,1,0.5,0,1,0.5,1,0.5,0","3","",""
"","html-keyboard-response","85","96010","0.0-85.0","3OB0CAO74IBJMMJS4VMCNCIC1S4HY5","A1NVJB5O4H7ZCJ","3HUR21WDDUBEMSLDIXZW1FAIHWSYXN","","null","<img src=""img/food5.png"" style=""width:200px; border:14px solid green;"">","null","","","","","","","","","",""
"","image-keyboard-response","86","96259","0.0-86.0","3OB0CAO74IBJMMJS4VMCNCIC1S4HY5","A1NVJB5O4H7ZCJ","3HUR21WDDUBEMSLDIXZW1FAIHWSYXN","","245.60000014305115","img/food4.png","75","247.90000009536743","2","1","1","1","1,0.5,0,1,0.5,0,0.5,0,1","0,1,0.5,0,1,0.5,1,0.5,0","3","",""
"","html-keyboard-response","87","96563","0.0-87.0","3OB0CAO74IBJMMJS4VMCNCIC1S4HY5","A1NVJB5O4H7ZCJ","3HUR21WDDUBEMSLDIXZW1FAIHWSYXN","","null","<img src=""img/food4.png"" style=""width:200px; border:14px solid green;"">","null","","","","","","","","","",""
"","image-keyboard-response","88","97301","0.0-88.0","3OB0CAO74IBJMMJS4VMCNCIC1S4HY5","A1NVJB5O4H7ZCJ","3HUR21WDDUBEMSLDIXZW1FAIHWSYXN","","735.2000000476837","img/food1.png","74","737.2999999523163","1","1","3","1","1,0.5,0,1,0.5,0,0.5,0,1","0,1,0.5,0,1,0.5,1,0.5,0","3","",""
"","html-keyboard-response","89","97604","0.0-89.0","3OB0CAO74IBJMMJS4VMCNCIC1S4HY5","A1NVJB5O4H7ZCJ","3HUR21WDDUBEMSLDIXZW1FAIHWSYXN","","null","<img src=""img/food1.png"" style=""width:200px; border:14px solid green;"">","null","","","","","","","","","",""
"","image-keyboard-response","90","98399","0.0-90.0","3OB0CAO74IBJMMJS4VMCNCIC1S4HY5","A1NVJB5O4H7ZCJ","3HUR21WDDUBEMSLDIXZW1FAIHWSYXN","","791.6000001430511","img/food4.png","75","794.4000000953674","2","1","1","1","1,0.5,0,1,0.5,0,0.5,0,1","0,1,0.5,0,1,0.5,1,0.5,0","3","",""
"","html-keyboard-response","91","98703","0.0-91.0","3OB0CAO74IBJMMJS4VMCNCIC1S4HY5","A1NVJB5O4H7ZCJ","3HUR21WDDUBEMSLDIXZW1FAIHWSYXN","","null","<img src=""img/food4.png"" style=""width:200px; border:14px solid green;"">","null","","","","","","","","","",""
"","image-keyboard-response","92","99142","0.0-92.0","3OB0CAO74IBJMMJS4VMCNCIC1S4HY5","A1NVJB5O4H7ZCJ","3HUR21WDDUBEMSLDIXZW1FAIHWSYXN","","437","img/food5.png","75","439.2000000476837","2","1","2","1","1,0.5,0,1,0.5,0,0.5,0,1","0,1,0.5,0,1,0.5,1,0.5,0","3","",""
"","html-keyboard-response","93","99455","0.0-93.0","3OB0CAO74IBJMMJS4VMCNCIC1S4HY5","A1NVJB5O4H7ZCJ","3HUR21WDDUBEMSLDIXZW1FAIHWSYXN","","null","<img src=""img/food5.png"" style=""width:200px; border:14px solid green;"">","null","","","","","","","","","",""
"","image-keyboard-response","94","99902","0.0-94.0","3OB0CAO74IBJMMJS4VMCNCIC1S4HY5","A1NVJB5O4H7ZCJ","3HUR21WDDUBEMSLDIXZW1FAIHWSYXN","","444.09999990463257","img/food1.png","75","446.40000009536743","2","1","3","1","1,0.5,0,1,0.5,0,0.5,0,1","0,1,0.5,0,1,0.5,1,0.5,0","3","",""
"","html-keyboard-response","95","100205","0.0-95.0","3OB0CAO74IBJMMJS4VMCNCIC1S4HY5","A1NVJB5O4H7ZCJ","3HUR21WDDUBEMSLDIXZW1FAIHWSYXN","","null","<img src=""img/food1.png"" style=""width:200px; border:14px solid green;"">","null","","","","","","","","","",""
"","image-keyboard-response","96","101023","0.0-96.0","3OB0CAO74IBJMMJS4VMCNCIC1S4HY5","A1NVJB5O4H7ZCJ","3HUR21WDDUBEMSLDIXZW1FAIHWSYXN","","814.3999998569489","img/food4.png","75","816.3999998569489","2","1","1","1","1,0.5,0,1,0.5,0,0.5,0,1","0,1,0.5,0,1,0.5,1,0.5,0","3","",""
"","html-keyboard-response","97","101325","0.0-97.0","3OB0CAO74IBJMMJS4VMCNCIC1S4HY5","A1NVJB5O4H7ZCJ","3HUR21WDDUBEMSLDIXZW1FAIHWSYXN","","null","<img src=""img/food4.png"" style=""width:200px; border:14px solid green;"">","null","","","","","","","","","",""
"","image-keyboard-response","98","101950","0.0-98.0","3OB0CAO74IBJMMJS4VMCNCIC1S4HY5","A1NVJB5O4H7ZCJ","3HUR21WDDUBEMSLDIXZW1FAIHWSYXN","","622.2000000476837","img/food5.png","74","624.5","1","0","2","1","1,0.5,0,1,0.5,0,0.5,0,1","0,1,0.5,0,1,0.5,1,0.5,0","3","",""
"","html-keyboard-response","99","102255","0.0-99.0","3OB0CAO74IBJMMJS4VMCNCIC1S4HY5","A1NVJB5O4H7ZCJ","3HUR21WDDUBEMSLDIXZW1FAIHWSYXN","","null","<img src=""img/food5.png"" style=""width:200px;border:14px solid red;"">","null","","","","","","","","","",""
"","image-keyboard-response","100","102638","0.0-100.0","3OB0CAO74IBJMMJS4VMCNCIC1S4HY5","A1NVJB5O4H7ZCJ","3HUR21WDDUBEMSLDIXZW1FAIHWSYXN","","380.19999980926514","img/food1.png","75","382.89999985694885","2","0","3","1","1,0.5,0,1,0.5,0,0.5,0,1","0,1,0.5,0,1,0.5,1,0.5,0","3","",""
"","html-keyboard-response","101","102942","0.0-101.0","3OB0CAO74IBJMMJS4VMCNCIC1S4HY5","A1NVJB5O4H7ZCJ","3HUR21WDDUBEMSLDIXZW1FAIHWSYXN","","null","<img src=""img/food1.png"" style=""width:200px;border:14px solid red;"">","null","","","","","","","","","",""
"","image-keyboard-response","102","103447","0.0-102.0","3OB0CAO74IBJMMJS4VMCNCIC1S4HY5","A1NVJB5O4H7ZCJ","3HUR21WDDUBEMSLDIXZW1FAIHWSYXN","","501.60000014305115","img/food5.png","75","503.89999985694885","2","1","2","1","1,0.5,0,1,0.5,0,0.5,0,1","0,1,0.5,0,1,0.5,1,0.5,0","3","",""
"","html-keyboard-response","103","103750","0.0-103.0","3OB0CAO74IBJMMJS4VMCNCIC1S4HY5","A1NVJB5O4H7ZCJ","3HUR21WDDUBEMSLDIXZW1FAIHWSYXN","","null","<img src=""img/food5.png"" style=""width:200px; border:14px solid green;"">","null","","","","","","","","","",""
"","image-keyboard-response","104","104552","0.0-104.0","3OB0CAO74IBJMMJS4VMCNCIC1S4HY5","A1NVJB5O4H7ZCJ","3HUR21WDDUBEMSLDIXZW1FAIHWSYXN","","799.2999999523163","img/food1.png","74","801.6000001430511","1","1","3","1","1,0.5,0,1,0.5,0,0.5,0,1","0,1,0.5,0,1,0.5,1,0.5,0","3","",""
"","html-keyboard-response","105","104856","0.0-105.0","3OB0CAO74IBJMMJS4VMCNCIC1S4HY5","A1NVJB5O4H7ZCJ","3HUR21WDDUBEMSLDIXZW1FAIHWSYXN","","null","<img src=""img/food1.png"" style=""width:200px; border:14px solid green;"">","null","","","","","","","","","",""
"","image-keyboard-response","106","105767","0.0-106.0","3OB0CAO74IBJMMJS4VMCNCIC1S4HY5","A1NVJB5O4H7ZCJ","3HUR21WDDUBEMSLDIXZW1FAIHWSYXN","","907.6000001430511","img/food4.png","75","909.8999998569489","2","1","1","1","1,0.5,0,1,0.5,0,0.5,0,1","0,1,0.5,0,1,0.5,1,0.5,0","3","",""
"","html-keyboard-response","107","106071","0.0-107.0","3OB0CAO74IBJMMJS4VMCNCIC1S4HY5","A1NVJB5O4H7ZCJ","3HUR21WDDUBEMSLDIXZW1FAIHWSYXN","","null","<img src=""img/food4.png"" style=""width:200px; border:14px solid green;"">","null","","","","","","","","","",""
"","image-keyboard-response","108","106542","0.0-108.0","3OB0CAO74IBJMMJS4VMCNCIC1S4HY5","A1NVJB5O4H7ZCJ","3HUR21WDDUBEMSLDIXZW1FAIHWSYXN","","468.7000000476837","img/food4.png","75","471","2","1","1","1","1,0.5,0,1,0.5,0,0.5,0,1","0,1,0.5,0,1,0.5,1,0.5,0","3","",""
"","html-keyboard-response","109","106846","0.0-109.0","3OB0CAO74IBJMMJS4VMCNCIC1S4HY5","A1NVJB5O4H7ZCJ","3HUR21WDDUBEMSLDIXZW1FAIHWSYXN","","null","<img src=""img/food4.png"" style=""width:200px; border:14px solid green;"">","null","","","","","","","","","",""
"","image-keyboard-response","110","107262","0.0-110.0","3OB0CAO74IBJMMJS4VMCNCIC1S4HY5","A1NVJB5O4H7ZCJ","3HUR21WDDUBEMSLDIXZW1FAIHWSYXN","","413","img/food4.png","75","415.5","2","1","1","1","1,0.5,0,1,0.5,0,0.5,0,1","0,1,0.5,0,1,0.5,1,0.5,0","3","",""
"","html-keyboard-response","111","107566","0.0-111.0","3OB0CAO74IBJMMJS4VMCNCIC1S4HY5","A1NVJB5O4H7ZCJ","3HUR21WDDUBEMSLDIXZW1FAIHWSYXN","","null","<img src=""img/food4.png"" style=""width:200px; border:14px solid green;"">","null","","","","","","","","","",""
"","image-keyboard-response","112","108294","0.0-112.0","3OB0CAO74IBJMMJS4VMCNCIC1S4HY5","A1NVJB5O4H7ZCJ","3HUR21WDDUBEMSLDIXZW1FAIHWSYXN","","725.5","img/food5.png","75","727.8999998569489","2","1","2","1","1,0.5,0,1,0.5,0,0.5,0,1","0,1,0.5,0,1,0.5,1,0.5,0","3","",""
"","html-keyboard-response","113","108598","0.0-113.0","3OB0CAO74IBJMMJS4VMCNCIC1S4HY5","A1NVJB5O4H7ZCJ","3HUR21WDDUBEMSLDIXZW1FAIHWSYXN","","null","<img src=""img/food5.png"" style=""width:200px; border:14px solid green;"">","null","","","","","","","","","",""
"","image-keyboard-response","114","109086","0.0-114.0","3OB0CAO74IBJMMJS4VMCNCIC1S4HY5","A1NVJB5O4H7ZCJ","3HUR21WDDUBEMSLDIXZW1FAIHWSYXN","","485.40000009536743","img/food1.png","74","487.90000009536743","1","1","3","1","1,0.5,0,1,0.5,0,0.5,0,1","0,1,0.5,0,1,0.5,1,0.5,0","3","",""
"","html-keyboard-response","115","109390","0.0-115.0","3OB0CAO74IBJMMJS4VMCNCIC1S4HY5","A1NVJB5O4H7ZCJ","3HUR21WDDUBEMSLDIXZW1FAIHWSYXN","","null","<img src=""img/food1.png"" style=""width:200px; border:14px solid green;"">","null","","","","","","","","","",""
"","image-keyboard-response","116","110126","0.0-116.0","3OB0CAO74IBJMMJS4VMCNCIC1S4HY5","A1NVJB5O4H7ZCJ","3HUR21WDDUBEMSLDIXZW1FAIHWSYXN","","733.2999999523163","img/food1.png","74","735.7000000476837","1","1","3","1","1,0.5,0,1,0.5,0,0.5,0,1","0,1,0.5,0,1,0.5,1,0.5,0","3","",""
"","html-keyboard-response","117","110430","0.0-117.0","3OB0CAO74IBJMMJS4VMCNCIC1S4HY5","A1NVJB5O4H7ZCJ","3HUR21WDDUBEMSLDIXZW1FAIHWSYXN","","null","<img src=""img/food1.png"" style=""width:200px; border:14px solid green;"">","null","","","","","","","","","",""
"","image-keyboard-response","118","111014","0.0-118.0","3OB0CAO74IBJMMJS4VMCNCIC1S4HY5","A1NVJB5O4H7ZCJ","3HUR21WDDUBEMSLDIXZW1FAIHWSYXN","","580.7999999523163","img/food4.png","75","583.2000000476837","2","1","1","1","1,0.5,0,1,0.5,0,0.5,0,1","0,1,0.5,0,1,0.5,1,0.5,0","3","",""
"","html-keyboard-response","119","111317","0.0-119.0","3OB0CAO74IBJMMJS4VMCNCIC1S4HY5","A1NVJB5O4H7ZCJ","3HUR21WDDUBEMSLDIXZW1FAIHWSYXN","","null","<img src=""img/food4.png"" style=""width:200px; border:14px solid green;"">","null","","","","","","","","","",""
"","image-keyboard-response","120","111823","0.0-120.0","3OB0CAO74IBJMMJS4VMCNCIC1S4HY5","A1NVJB5O4H7ZCJ","3HUR21WDDUBEMSLDIXZW1FAIHWSYXN","","504.19999980926514","img/food4.png","75","506.10000014305115","2","1","1","1","1,0.5,0,1,0.5,0,0.5,0,1","0,1,0.5,0,1,0.5,1,0.5,0","3","",""
"","html-keyboard-response","121","112127","0.0-121.0","3OB0CAO74IBJMMJS4VMCNCIC1S4HY5","A1NVJB5O4H7ZCJ","3HUR21WDDUBEMSLDIXZW1FAIHWSYXN","","null","<img src=""img/food4.png"" style=""width:200px; border:14px solid green;"">","null","","","","","","","","","",""
"","image-keyboard-response","122","112567","0.0-122.0","3OB0CAO74IBJMMJS4VMCNCIC1S4HY5","A1NVJB5O4H7ZCJ","3HUR21WDDUBEMSLDIXZW1FAIHWSYXN","","437.2999999523163","img/food4.png","75","439.7000000476837","2","1","1","1","1,0.5,0,1,0.5,0,0.5,0,1","0,1,0.5,0,1,0.5,1,0.5,0","3","",""
"","html-keyboard-response","123","112870","0.0-123.0","3OB0CAO74IBJMMJS4VMCNCIC1S4HY5","A1NVJB5O4H7ZCJ","3HUR21WDDUBEMSLDIXZW1FAIHWSYXN","","null","<img src=""img/food4.png"" style=""width:200px; border:14px solid green;"">","null","","","","","","","","","",""
"","image-keyboard-response","124","113447","0.0-124.0","3OB0CAO74IBJMMJS4VMCNCIC1S4HY5","A1NVJB5O4H7ZCJ","3HUR21WDDUBEMSLDIXZW1FAIHWSYXN","","574","img/food4.png","75","576.3000001907349","2","1","1","1","1,0.5,0,1,0.5,0,0.5,0,1","0,1,0.5,0,1,0.5,1,0.5,0","3","",""
"","html-keyboard-response","125","113754","0.0-125.0","3OB0CAO74IBJMMJS4VMCNCIC1S4HY5","A1NVJB5O4H7ZCJ","3HUR21WDDUBEMSLDIXZW1FAIHWSYXN","","null","<img src=""img/food4.png"" style=""width:200px; border:14px solid green;"">","null","","","","","","","","","",""
"","image-keyboard-response","126","114254","0.0-126.0","3OB0CAO74IBJMMJS4VMCNCIC1S4HY5","A1NVJB5O4H7ZCJ","3HUR21WDDUBEMSLDIXZW1FAIHWSYXN","","497.2999999523163","img/food1.png","74","499.7000000476837","1","1","3","1","1,0.5,0,1,0.5,0,0.5,0,1","0,1,0.5,0,1,0.5,1,0.5,0","3","",""
"","html-keyboard-response","127","114557","0.0-127.0","3OB0CAO74IBJMMJS4VMCNCIC1S4HY5","A1NVJB5O4H7ZCJ","3HUR21WDDUBEMSLDIXZW1FAIHWSYXN","","null","<img src=""img/food1.png"" style=""width:200px; border:14px solid green;"">","null","","","","","","","","","",""
"","image-keyboard-response","128","115382","0.0-128.0","3OB0CAO74IBJMMJS4VMCNCIC1S4HY5","A1NVJB5O4H7ZCJ","3HUR21WDDUBEMSLDIXZW1FAIHWSYXN","","821.9000000953674","img/food5.png","75","824.5999999046326","2","1","2","1","1,0.5,0,1,0.5,0,0.5,0,1","0,1,0.5,0,1,0.5,1,0.5,0","3","",""
"","html-keyboard-response","129","115691","0.0-129.0","3OB0CAO74IBJMMJS4VMCNCIC1S4HY5","A1NVJB5O4H7ZCJ","3HUR21WDDUBEMSLDIXZW1FAIHWSYXN","","null","<img src=""img/food5.png"" style=""width:200px; border:14px solid green;"">","null","","","","","","","","","",""
"","image-keyboard-response","130","116250","0.0-130.0","3OB0CAO74IBJMMJS4VMCNCIC1S4HY5","A1NVJB5O4H7ZCJ","3HUR21WDDUBEMSLDIXZW1FAIHWSYXN","","556.0999999046326","img/food4.png","75","558.5","2","1","1","1","1,0.5,0,1,0.5,0,0.5,0,1","0,1,0.5,0,1,0.5,1,0.5,0","3","",""
"","html-keyboard-response","131","116554","0.0-131.0","3OB0CAO74IBJMMJS4VMCNCIC1S4HY5","A1NVJB5O4H7ZCJ","3HUR21WDDUBEMSLDIXZW1FAIHWSYXN","","null","<img src=""img/food4.png"" style=""width:200px; border:14px solid green;"">","null","","","","","","","","","",""
"","image-keyboard-response","132","117302","0.0-132.0","3OB0CAO74IBJMMJS4VMCNCIC1S4HY5","A1NVJB5O4H7ZCJ","3HUR21WDDUBEMSLDIXZW1FAIHWSYXN","","745.5","img/food5.png","75","747.9000000953674","2","1","2","1","1,0.5,0,1,0.5,0,0.5,0,1","0,1,0.5,0,1,0.5,1,0.5,0","3","",""
"","html-keyboard-response","133","117606","0.0-133.0","3OB0CAO74IBJMMJS4VMCNCIC1S4HY5","A1NVJB5O4H7ZCJ","3HUR21WDDUBEMSLDIXZW1FAIHWSYXN","","null","<img src=""img/food5.png"" style=""width:200px; border:14px solid green;"">","null","","","","","","","","","",""
"","image-keyboard-response","134","118054","0.0-134.0","3OB0CAO74IBJMMJS4VMCNCIC1S4HY5","A1NVJB5O4H7ZCJ","3HUR21WDDUBEMSLDIXZW1FAIHWSYXN","","445.40000009536743","img/food4.png","75","447.90000009536743","2","1","1","1","1,0.5,0,1,0.5,0,0.5,0,1","0,1,0.5,0,1,0.5,1,0.5,0","3","",""
"","html-keyboard-response","135","118359","0.0-135.0","3OB0CAO74IBJMMJS4VMCNCIC1S4HY5","A1NVJB5O4H7ZCJ","3HUR21WDDUBEMSLDIXZW1FAIHWSYXN","","null","<img src=""img/food4.png"" style=""width:200px; border:14px solid green;"">","null","","","","","","","","","",""
"","image-keyboard-response","136","119091","0.0-136.0","3OB0CAO74IBJMMJS4VMCNCIC1S4HY5","A1NVJB5O4H7ZCJ","3HUR21WDDUBEMSLDIXZW1FAIHWSYXN","","729.2999999523163","img/food5.png","75","731.5999999046326","2","1","2","1","1,0.5,0,1,0.5,0,0.5,0,1","0,1,0.5,0,1,0.5,1,0.5,0","3","",""
"","html-keyboard-response","137","119394","0.0-137.0","3OB0CAO74IBJMMJS4VMCNCIC1S4HY5","A1NVJB5O4H7ZCJ","3HUR21WDDUBEMSLDIXZW1FAIHWSYXN","","null","<img src=""img/food5.png"" style=""width:200px; border:14px solid green;"">","null","","","","","","","","","",""
"","image-keyboard-response","138","119931","0.0-138.0","3OB0CAO74IBJMMJS4VMCNCIC1S4HY5","A1NVJB5O4H7ZCJ","3HUR21WDDUBEMSLDIXZW1FAIHWSYXN","","533.4000000953674","img/food4.png","75","535.7999999523163","2","1","1","1","1,0.5,0,1,0.5,0,0.5,0,1","0,1,0.5,0,1,0.5,1,0.5,0","3","",""
"","html-keyboard-response","139","120235","0.0-139.0","3OB0CAO74IBJMMJS4VMCNCIC1S4HY5","A1NVJB5O4H7ZCJ","3HUR21WDDUBEMSLDIXZW1FAIHWSYXN","","null","<img src=""img/food4.png"" style=""width:200px; border:14px solid green;"">","null","","","","","","","","","",""
"","image-keyboard-response","140","120698","0.0-140.0","3OB0CAO74IBJMMJS4VMCNCIC1S4HY5","A1NVJB5O4H7ZCJ","3HUR21WDDUBEMSLDIXZW1FAIHWSYXN","","461.2999999523163","img/food5.png","75","463","2","1","2","1","1,0.5,0,1,0.5,0,0.5,0,1","0,1,0.5,0,1,0.5,1,0.5,0","3","",""
"","html-keyboard-response","141","121002","0.0-141.0","3OB0CAO74IBJMMJS4VMCNCIC1S4HY5","A1NVJB5O4H7ZCJ","3HUR21WDDUBEMSLDIXZW1FAIHWSYXN","","null","<img src=""img/food5.png"" style=""width:200px; border:14px solid green;"">","null","","","","","","","","","",""
"","image-keyboard-response","142","121442","0.0-142.0","3OB0CAO74IBJMMJS4VMCNCIC1S4HY5","A1NVJB5O4H7ZCJ","3HUR21WDDUBEMSLDIXZW1FAIHWSYXN","","437.2000000476837","img/food5.png","75","439.5","2","1","2","1","1,0.5,0,1,0.5,0,0.5,0,1","0,1,0.5,0,1,0.5,1,0.5,0","3","",""
"","html-keyboard-response","143","121746","0.0-143.0","3OB0CAO74IBJMMJS4VMCNCIC1S4HY5","A1NVJB5O4H7ZCJ","3HUR21WDDUBEMSLDIXZW1FAIHWSYXN","","null","<img src=""img/food5.png"" style=""width:200px; border:14px solid green;"">","null","","","","","","","","","",""
"","image-keyboard-response","144","122163","0.0-144.0","3OB0CAO74IBJMMJS4VMCNCIC1S4HY5","A1NVJB5O4H7ZCJ","3HUR21WDDUBEMSLDIXZW1FAIHWSYXN","","413.80000019073486","img/food5.png","75","416","2","1","2","1","1,0.5,0,1,0.5,0,0.5,0,1","0,1,0.5,0,1,0.5,1,0.5,0","3","",""
"","html-keyboard-response","145","122466","0.0-145.0","3OB0CAO74IBJMMJS4VMCNCIC1S4HY5","A1NVJB5O4H7ZCJ","3HUR21WDDUBEMSLDIXZW1FAIHWSYXN","","null","<img src=""img/food5.png"" style=""width:200px; border:14px solid green;"">","null","","","","","","","","","",""
"","image-keyboard-response","146","122963","0.0-146.0","3OB0CAO74IBJMMJS4VMCNCIC1S4HY5","A1NVJB5O4H7ZCJ","3HUR21WDDUBEMSLDIXZW1FAIHWSYXN","","494","img/food5.png","75","496.30000019073486","2","1","2","1","1,0.5,0,1,0.5,0,0.5,0,1","0,1,0.5,0,1,0.5,1,0.5,0","3","",""
"","html-keyboard-response","147","123267","0.0-147.0","3OB0CAO74IBJMMJS4VMCNCIC1S4HY5","A1NVJB5O4H7ZCJ","3HUR21WDDUBEMSLDIXZW1FAIHWSYXN","","null","<img src=""img/food5.png"" style=""width:200px; border:14px solid green;"">","null","","","","","","","","","",""
"","image-keyboard-response","148","124010","0.0-148.0","3OB0CAO74IBJMMJS4VMCNCIC1S4HY5","A1NVJB5O4H7ZCJ","3HUR21WDDUBEMSLDIXZW1FAIHWSYXN","","740.5","img/food4.png","75","742.9000000953674","2","1","1","1","1,0.5,0,1,0.5,0,0.5,0,1","0,1,0.5,0,1,0.5,1,0.5,0","3","",""
"","html-keyboard-response","149","124314","0.0-149.0","3OB0CAO74IBJMMJS4VMCNCIC1S4HY5","A1NVJB5O4H7ZCJ","3HUR21WDDUBEMSLDIXZW1FAIHWSYXN","","null","<img src=""img/food4.png"" style=""width:200px; border:14px solid green;"">","null","","","","","","","","","",""
"","image-keyboard-response","150","124683","0.0-150.0","3OB0CAO74IBJMMJS4VMCNCIC1S4HY5","A1NVJB5O4H7ZCJ","3HUR21WDDUBEMSLDIXZW1FAIHWSYXN","","366.30000019073486","img/food4.png","75","368.7000000476837","2","1","1","1","1,0.5,0,1,0.5,0,0.5,0,1","0,1,0.5,0,1,0.5,1,0.5,0","3","",""
"","html-keyboard-response","151","124987","0.0-151.0","3OB0CAO74IBJMMJS4VMCNCIC1S4HY5","A1NVJB5O4H7ZCJ","3HUR21WDDUBEMSLDIXZW1FAIHWSYXN","","null","<img src=""img/food4.png"" style=""width:200px; border:14px solid green;"">","null","","","","","","","","","",""
"","image-keyboard-response","152","125321","0.0-152.0","3OB0CAO74IBJMMJS4VMCNCIC1S4HY5","A1NVJB5O4H7ZCJ","3HUR21WDDUBEMSLDIXZW1FAIHWSYXN","","331.2000000476837","img/food4.png","75","333.2000000476837","2","1","1","1","1,0.5,0,1,0.5,0,0.5,0,1","0,1,0.5,0,1,0.5,1,0.5,0","3","",""
"","html-keyboard-response","153","125624","0.0-153.0","3OB0CAO74IBJMMJS4VMCNCIC1S4HY5","A1NVJB5O4H7ZCJ","3HUR21WDDUBEMSLDIXZW1FAIHWSYXN","","null","<img src=""img/food4.png"" style=""width:200px; border:14px solid green;"">","null","","","","","","","","","",""
"","image-keyboard-response","154","126386","0.0-154.0","3OB0CAO74IBJMMJS4VMCNCIC1S4HY5","A1NVJB5O4H7ZCJ","3HUR21WDDUBEMSLDIXZW1FAIHWSYXN","","759","img/food5.png","75","761.7000000476837","2","1","2","1","1,0.5,0,1,0.5,0,0.5,0,1","0,1,0.5,0,1,0.5,1,0.5,0","3","",""
"","html-keyboard-response","155","126689","0.0-155.0","3OB0CAO74IBJMMJS4VMCNCIC1S4HY5","A1NVJB5O4H7ZCJ","3HUR21WDDUBEMSLDIXZW1FAIHWSYXN","","null","<img src=""img/food5.png"" style=""width:200px; border:14px solid green;"">","null","","","","","","","","","",""
"","image-keyboard-response","156","127034","0.0-156.0","3OB0CAO74IBJMMJS4VMCNCIC1S4HY5","A1NVJB5O4H7ZCJ","3HUR21WDDUBEMSLDIXZW1FAIHWSYXN","","341.90000009536743","img/food5.png","75","344.2000000476837","2","1","2","1","1,0.5,0,1,0.5,0,0.5,0,1","0,1,0.5,0,1,0.5,1,0.5,0","3","",""
"","html-keyboard-response","157","127338","0.0-157.0","3OB0CAO74IBJMMJS4VMCNCIC1S4HY5","A1NVJB5O4H7ZCJ","3HUR21WDDUBEMSLDIXZW1FAIHWSYXN","","null","<img src=""img/food5.png"" style=""width:200px; border:14px solid green;"">","null","","","","","","","","","",""
"","image-keyboard-response","158","127898","0.0-158.0","3OB0CAO74IBJMMJS4VMCNCIC1S4HY5","A1NVJB5O4H7ZCJ","3HUR21WDDUBEMSLDIXZW1FAIHWSYXN","","556.8999998569489","img/food1.png","74","559.2000000476837","1","1","3","1","1,0.5,0,1,0.5,0,0.5,0,1","0,1,0.5,0,1,0.5,1,0.5,0","3","",""
"","html-keyboard-response","159","128202","0.0-159.0","3OB0CAO74IBJMMJS4VMCNCIC1S4HY5","A1NVJB5O4H7ZCJ","3HUR21WDDUBEMSLDIXZW1FAIHWSYXN","","null","<img src=""img/food1.png"" style=""width:200px; border:14px solid green;"">","null","","","","","","","","","",""
"","image-keyboard-response","160","128794","0.0-160.0","3OB0CAO74IBJMMJS4VMCNCIC1S4HY5","A1NVJB5O4H7ZCJ","3HUR21WDDUBEMSLDIXZW1FAIHWSYXN","","590.0999999046326","img/food5.png","75","591.8999998569489","2","1","2","1","1,0.5,0,1,0.5,0,0.5,0,1","0,1,0.5,0,1,0.5,1,0.5,0","3","",""
"","html-keyboard-response","161","129097","0.0-161.0","3OB0CAO74IBJMMJS4VMCNCIC1S4HY5","A1NVJB5O4H7ZCJ","3HUR21WDDUBEMSLDIXZW1FAIHWSYXN","","null","<img src=""img/food5.png"" style=""width:200px; border:14px solid green;"">","null","","","","","","","","","",""
"","image-keyboard-response","162","129778","0.0-162.0","3OB0CAO74IBJMMJS4VMCNCIC1S4HY5","A1NVJB5O4H7ZCJ","3HUR21WDDUBEMSLDIXZW1FAIHWSYXN","","677.7000000476837","img/food1.png","74","680.1000001430511","1","1","3","1","1,0.5,0,1,0.5,0,0.5,0,1","0,1,0.5,0,1,0.5,1,0.5,0","3","",""
"","html-keyboard-response","163","130081","0.0-163.0","3OB0CAO74IBJMMJS4VMCNCIC1S4HY5","A1NVJB5O4H7ZCJ","3HUR21WDDUBEMSLDIXZW1FAIHWSYXN","","null","<img src=""img/food1.png"" style=""width:200px; border:14px solid green;"">","null","","","","","","","","","",""
"","image-keyboard-response","164","130658","0.0-164.0","3OB0CAO74IBJMMJS4VMCNCIC1S4HY5","A1NVJB5O4H7ZCJ","3HUR21WDDUBEMSLDIXZW1FAIHWSYXN","","574.1999998092651","img/food5.png","75","576.7000000476837","2","1","2","1","1,0.5,0,1,0.5,0,0.5,0,1","0,1,0.5,0,1,0.5,1,0.5,0","3","",""
"","html-keyboard-response","165","130962","0.0-165.0","3OB0CAO74IBJMMJS4VMCNCIC1S4HY5","A1NVJB5O4H7ZCJ","3HUR21WDDUBEMSLDIXZW1FAIHWSYXN","","null","<img src=""img/food5.png"" style=""width:200px; border:14px solid green;"">","null","","","","","","","","","",""
"","image-keyboard-response","166","131452","0.0-166.0","3OB0CAO74IBJMMJS4VMCNCIC1S4HY5","A1NVJB5O4H7ZCJ","3HUR21WDDUBEMSLDIXZW1FAIHWSYXN","","488.10000014305115","img/food1.png","74","490","1","1","3","1","1,0.5,0,1,0.5,0,0.5,0,1","0,1,0.5,0,1,0.5,1,0.5,0","3","",""
"","html-keyboard-response","167","131758","0.0-167.0","3OB0CAO74IBJMMJS4VMCNCIC1S4HY5","A1NVJB5O4H7ZCJ","3HUR21WDDUBEMSLDIXZW1FAIHWSYXN","","null","<img src=""img/food1.png"" style=""width:200px; border:14px solid green;"">","null","","","","","","","","","",""
"","image-keyboard-response","168","132363","0.0-168.0","3OB0CAO74IBJMMJS4VMCNCIC1S4HY5","A1NVJB5O4H7ZCJ","3HUR21WDDUBEMSLDIXZW1FAIHWSYXN","","601.5999999046326","img/food1.png","74","603.9000000953674","1","1","3","1","1,0.5,0,1,0.5,0,0.5,0,1","0,1,0.5,0,1,0.5,1,0.5,0","3","",""
"","html-keyboard-response","169","132666","0.0-169.0","3OB0CAO74IBJMMJS4VMCNCIC1S4HY5","A1NVJB5O4H7ZCJ","3HUR21WDDUBEMSLDIXZW1FAIHWSYXN","","null","<img src=""img/food1.png"" style=""width:200px; border:14px solid green;"">","null","","","","","","","","","",""
"","image-keyboard-response","170","132874","0.0-170.0","3OB0CAO74IBJMMJS4VMCNCIC1S4HY5","A1NVJB5O4H7ZCJ","3HUR21WDDUBEMSLDIXZW1FAIHWSYXN","","204.70000004768372","img/food5.png","74","207.59999990463257","1","0","2","1","1,0.5,0,1,0.5,0,0.5,0,1","0,1,0.5,0,1,0.5,1,0.5,0","3","",""
"","html-keyboard-response","171","133178","0.0-171.0","3OB0CAO74IBJMMJS4VMCNCIC1S4HY5","A1NVJB5O4H7ZCJ","3HUR21WDDUBEMSLDIXZW1FAIHWSYXN","","null","<img src=""img/food5.png"" style=""width:200px;border:14px solid red;"">","null","","","","","","","","","",""
"","image-keyboard-response","172","133794","0.0-172.0","3OB0CAO74IBJMMJS4VMCNCIC1S4HY5","A1NVJB5O4H7ZCJ","3HUR21WDDUBEMSLDIXZW1FAIHWSYXN","","612.9000000953674","img/food5.png","75","615.0999999046326","2","1","2","1","1,0.5,0,1,0.5,0,0.5,0,1","0,1,0.5,0,1,0.5,1,0.5,0","3","",""
"","html-keyboard-response","173","134102","0.0-173.0","3OB0CAO74IBJMMJS4VMCNCIC1S4HY5","A1NVJB5O4H7ZCJ","3HUR21WDDUBEMSLDIXZW1FAIHWSYXN","","null","<img src=""img/food5.png"" style=""width:200px; border:14px solid green;"">","null","","","","","","","","","",""
"","image-keyboard-response","174","134810","0.0-174.0","3OB0CAO74IBJMMJS4VMCNCIC1S4HY5","A1NVJB5O4H7ZCJ","3HUR21WDDUBEMSLDIXZW1FAIHWSYXN","","705.6000001430511","img/food1.png","74","707.7999999523163","1","1","3","1","1,0.5,0,1,0.5,0,0.5,0,1","0,1,0.5,0,1,0.5,1,0.5,0","3","",""
"","html-keyboard-response","175","135115","0.0-175.0","3OB0CAO74IBJMMJS4VMCNCIC1S4HY5","A1NVJB5O4H7ZCJ","3HUR21WDDUBEMSLDIXZW1FAIHWSYXN","","null","<img src=""img/food1.png"" style=""width:200px; border:14px solid green;"">","null","","","","","","","","","",""
"","image-keyboard-response","176","135786","0.0-176.0","3OB0CAO74IBJMMJS4VMCNCIC1S4HY5","A1NVJB5O4H7ZCJ","3HUR21WDDUBEMSLDIXZW1FAIHWSYXN","","668.2999999523163","img/food4.png","75","670.7000000476837","2","1","1","1","1,0.5,0,1,0.5,0,0.5,0,1","0,1,0.5,0,1,0.5,1,0.5,0","3","",""
"","html-keyboard-response","177","136090","0.0-177.0","3OB0CAO74IBJMMJS4VMCNCIC1S4HY5","A1NVJB5O4H7ZCJ","3HUR21WDDUBEMSLDIXZW1FAIHWSYXN","","null","<img src=""img/food4.png"" style=""width:200px; border:14px solid green;"">","null","","","","","","","","","",""
"","image-keyboard-response","178","136706","0.0-178.0","3OB0CAO74IBJMMJS4VMCNCIC1S4HY5","A1NVJB5O4H7ZCJ","3HUR21WDDUBEMSLDIXZW1FAIHWSYXN","","613.3000001907349","img/food1.png","74","615.7999999523163","1","1","3","1","1,0.5,0,1,0.5,0,0.5,0,1","0,1,0.5,0,1,0.5,1,0.5,0","3","",""
"","html-keyboard-response","179","137010","0.0-179.0","3OB0CAO74IBJMMJS4VMCNCIC1S4HY5","A1NVJB5O4H7ZCJ","3HUR21WDDUBEMSLDIXZW1FAIHWSYXN","","null","<img src=""img/food1.png"" style=""width:200px; border:14px solid green;"">","null","","","","","","","","","",""
"","image-keyboard-response","180","137586","0.0-180.0","3OB0CAO74IBJMMJS4VMCNCIC1S4HY5","A1NVJB5O4H7ZCJ","3HUR21WDDUBEMSLDIXZW1FAIHWSYXN","","573.6000001430511","img/food5.png","75","575.8999998569489","2","1","2","1","1,0.5,0,1,0.5,0,0.5,0,1","0,1,0.5,0,1,0.5,1,0.5,0","3","",""
"","html-keyboard-response","181","137890","0.0-181.0","3OB0CAO74IBJMMJS4VMCNCIC1S4HY5","A1NVJB5O4H7ZCJ","3HUR21WDDUBEMSLDIXZW1FAIHWSYXN","","null","<img src=""img/food5.png"" style=""width:200px; border:14px solid green;"">","null","","","","","","","","","",""
"","html-keyboard-response","182","143037","0.0-182.0","3OB0CAO74IBJMMJS4VMCNCIC1S4HY5","A1NVJB5O4H7ZCJ","3HUR21WDDUBEMSLDIXZW1FAIHWSYXN","","","","","","","","","","","","","",""
"","instructions","183","159926","0.0-183.0","3OB0CAO74IBJMMJS4VMCNCIC1S4HY5","A1NVJB5O4H7ZCJ","3HUR21WDDUBEMSLDIXZW1FAIHWSYXN","[{""page_index"":0,""viewing_time"":13837.400000095367},{""page_index"":1,""viewing_time"":3048.2999999523163}]","16886.700000047684","","","","","","","","","","","",""
"","image-keyboard-response","184","160486","0.0-184.0","3OB0CAO74IBJMMJS4VMCNCIC1S4HY5","A1NVJB5O4H7ZCJ","3HUR21WDDUBEMSLDIXZW1FAIHWSYXN","","556.2999999523163","img/food3.png","75","559.9000000953674","2","1","3","2","1,0.5,0,1,0.5,0,0.5,0,1","0.5,0,1,0.5,0,1,0,1,0.5","2","false",""
"","html-keyboard-response","185","160791","0.0-185.0","3OB0CAO74IBJMMJS4VMCNCIC1S4HY5","A1NVJB5O4H7ZCJ","3HUR21WDDUBEMSLDIXZW1FAIHWSYXN","","null","<img src=""img/food3.png"" style=""width:200px; border:14px solid green;"">","null","","","","","","","","","",""
"","image-keyboard-response","186","161071","0.0-187.0","3OB0CAO74IBJMMJS4VMCNCIC1S4HY5","A1NVJB5O4H7ZCJ","3HUR21WDDUBEMSLDIXZW1FAIHWSYXN","","276.5","img/food3.png","75","278.59999990463257","2","1","3","2","1,0.5,0,1,0.5,0,0.5,0,1","0.5,0,1,0.5,0,1,0,1,0.5","2","false",""
"","html-keyboard-response","187","161374","0.0-188.0","3OB0CAO74IBJMMJS4VMCNCIC1S4HY5","A1NVJB5O4H7ZCJ","3HUR21WDDUBEMSLDIXZW1FAIHWSYXN","","null","<img src=""img/food3.png"" style=""width:200px; border:14px solid green;"">","null","","","","","","","","","",""
"","image-keyboard-response","188","161428","0.0-190.0","3OB0CAO74IBJMMJS4VMCNCIC1S4HY5","A1NVJB5O4H7ZCJ","3HUR21WDDUBEMSLDIXZW1FAIHWSYXN","","50.09999990463257","img/food6.png","75","51.89999985694885","2","0","2","2","1,0.5,0,1,0.5,0,0.5,0,1","0.5,0,1,0.5,0,1,0,1,0.5","2","false",""
"","html-keyboard-response","189","161730","0.0-191.0","3OB0CAO74IBJMMJS4VMCNCIC1S4HY5","A1NVJB5O4H7ZCJ","3HUR21WDDUBEMSLDIXZW1FAIHWSYXN","","null","<img src=""img/food6.png"" style=""width:200px;border:14px solid red;"">","null","","","","","","","","","",""
"","image-keyboard-response","190","162278","0.0-193.0","3OB0CAO74IBJMMJS4VMCNCIC1S4HY5","A1NVJB5O4H7ZCJ","3HUR21WDDUBEMSLDIXZW1FAIHWSYXN","","545.5","img/food3.png","74","547.2999999523163","1","0","3","2","1,0.5,0,1,0.5,0,0.5,0,1","0.5,0,1,0.5,0,1,0,1,0.5","2","false",""
"","html-keyboard-response","191","162581","0.0-194.0","3OB0CAO74IBJMMJS4VMCNCIC1S4HY5","A1NVJB5O4H7ZCJ","3HUR21WDDUBEMSLDIXZW1FAIHWSYXN","","null","<img src=""img/food3.png"" style=""width:200px;border:14px solid red;"">","null","","","","","","","","","",""
"","image-keyboard-response","192","162734","0.0-196.0","3OB0CAO74IBJMMJS4VMCNCIC1S4HY5","A1NVJB5O4H7ZCJ","3HUR21WDDUBEMSLDIXZW1FAIHWSYXN","","149.5","img/food6.png","75","151.89999985694885","2","0","2","2","1,0.5,0,1,0.5,0,0.5,0,1","0.5,0,1,0.5,0,1,0,1,0.5","2","false",""
"","html-keyboard-response","193","163038","0.0-197.0","3OB0CAO74IBJMMJS4VMCNCIC1S4HY5","A1NVJB5O4H7ZCJ","3HUR21WDDUBEMSLDIXZW1FAIHWSYXN","","null","<img src=""img/food6.png"" style=""width:200px;border:14px solid red;"">","null","","","","","","","","","",""
"","image-keyboard-response","194","163654","0.0-199.0","3OB0CAO74IBJMMJS4VMCNCIC1S4HY5","A1NVJB5O4H7ZCJ","3HUR21WDDUBEMSLDIXZW1FAIHWSYXN","","612.7999999523163","img/food6.png","75","615.1999998092651","2","0","2","2","1,0.5,0,1,0.5,0,0.5,0,1","0.5,0,1,0.5,0,1,0,1,0.5","2","false",""
"","html-keyboard-response","195","163958","0.0-200.0","3OB0CAO74IBJMMJS4VMCNCIC1S4HY5","A1NVJB5O4H7ZCJ","3HUR21WDDUBEMSLDIXZW1FAIHWSYXN","","null","<img src=""img/food6.png"" style=""width:200px;border:14px solid red;"">","null","","","","","","","","","",""
"","image-keyboard-response","196","164326","0.0-202.0","3OB0CAO74IBJMMJS4VMCNCIC1S4HY5","A1NVJB5O4H7ZCJ","3HUR21WDDUBEMSLDIXZW1FAIHWSYXN","","364.7000000476837","img/food6.png","75","367.5","2","0","2","2","1,0.5,0,1,0.5,0,0.5,0,1","0.5,0,1,0.5,0,1,0,1,0.5","2","false",""
"","html-keyboard-response","197","164630","0.0-203.0","3OB0CAO74IBJMMJS4VMCNCIC1S4HY5","A1NVJB5O4H7ZCJ","3HUR21WDDUBEMSLDIXZW1FAIHWSYXN","","null","<img src=""img/food6.png"" style=""width:200px;border:14px solid red;"">","null","","","","","","","","","",""
"","image-keyboard-response","198","165287","0.0-205.0","3OB0CAO74IBJMMJS4VMCNCIC1S4HY5","A1NVJB5O4H7ZCJ","3HUR21WDDUBEMSLDIXZW1FAIHWSYXN","","653.4000000953674","img/food6.png","76","655.5","3","1","2","2","1,0.5,0,1,0.5,0,0.5,0,1","0.5,0,1,0.5,0,1,0,1,0.5","2","false",""
"","html-keyboard-response","199","165590","0.0-206.0","3OB0CAO74IBJMMJS4VMCNCIC1S4HY5","A1NVJB5O4H7ZCJ","3HUR21WDDUBEMSLDIXZW1FAIHWSYXN","","null","<img src=""img/food6.png"" style=""width:200px; border:14px solid green;"">","null","","","","","","","","","",""
"","image-keyboard-response","200","166253","0.0-208.0","3OB0CAO74IBJMMJS4VMCNCIC1S4HY5","A1NVJB5O4H7ZCJ","3HUR21WDDUBEMSLDIXZW1FAIHWSYXN","","661.1999998092651","img/food2.png","75","663.0999999046326","2","0","1","2","1,0.5,0,1,0.5,0,0.5,0,1","0.5,0,1,0.5,0,1,0,1,0.5","2","false",""
"","html-keyboard-response","201","166558","0.0-209.0","3OB0CAO74IBJMMJS4VMCNCIC1S4HY5","A1NVJB5O4H7ZCJ","3HUR21WDDUBEMSLDIXZW1FAIHWSYXN","","null","<img src=""img/food2.png"" style=""width:200px;border:14px solid red;"">","null","","","","","","","","","",""
"","image-keyboard-response","202","167016","0.0-211.0","3OB0CAO74IBJMMJS4VMCNCIC1S4HY5","A1NVJB5O4H7ZCJ","3HUR21WDDUBEMSLDIXZW1FAIHWSYXN","","454.69999980926514","img/food2.png","74","456.60000014305115","1","0","1","2","1,0.5,0,1,0.5,0,0.5,0,1","0.5,0,1,0.5,0,1,0,1,0.5","2","false",""
"","html-keyboard-response","203","167318","0.0-212.0","3OB0CAO74IBJMMJS4VMCNCIC1S4HY5","A1NVJB5O4H7ZCJ","3HUR21WDDUBEMSLDIXZW1FAIHWSYXN","","null","<img src=""img/food2.png"" style=""width:200px;border:14px solid red;"">","null","","","","","","","","","",""
"","image-keyboard-response","204","167831","0.0-214.0","3OB0CAO74IBJMMJS4VMCNCIC1S4HY5","A1NVJB5O4H7ZCJ","3HUR21WDDUBEMSLDIXZW1FAIHWSYXN","","511","img/food2.png","76","512.1999998092651","3","1","1","2","1,0.5,0,1,0.5,0,0.5,0,1","0.5,0,1,0.5,0,1,0,1,0.5","2","false",""
"","html-keyboard-response","205","168133","0.0-215.0","3OB0CAO74IBJMMJS4VMCNCIC1S4HY5","A1NVJB5O4H7ZCJ","3HUR21WDDUBEMSLDIXZW1FAIHWSYXN","","null","<img src=""img/food2.png"" style=""width:200px; border:14px solid green;"">","null","","","","","","","","","",""
"","image-keyboard-response","206","168489","0.0-217.0","3OB0CAO74IBJMMJS4VMCNCIC1S4HY5","A1NVJB5O4H7ZCJ","3HUR21WDDUBEMSLDIXZW1FAIHWSYXN","","352.89999985694885","img/food2.png","76","355.39999985694885","3","1","1","2","1,0.5,0,1,0.5,0,0.5,0,1","0.5,0,1,0.5,0,1,0,1,0.5","2","false",""
"","html-keyboard-response","207","168794","0.0-218.0","3OB0CAO74IBJMMJS4VMCNCIC1S4HY5","A1NVJB5O4H7ZCJ","3HUR21WDDUBEMSLDIXZW1FAIHWSYXN","","null","<img src=""img/food2.png"" style=""width:200px; border:14px solid green;"">","null","","","","","","","","","",""
"","image-keyboard-response","208","169442","0.0-220.0","3OB0CAO74IBJMMJS4VMCNCIC1S4HY5","A1NVJB5O4H7ZCJ","3HUR21WDDUBEMSLDIXZW1FAIHWSYXN","","644.7000000476837","img/food3.png","75","647","2","1","3","2","1,0.5,0,1,0.5,0,0.5,0,1","0.5,0,1,0.5,0,1,0,1,0.5","2","false",""
"","html-keyboard-response","209","169745","0.0-221.0","3OB0CAO74IBJMMJS4VMCNCIC1S4HY5","A1NVJB5O4H7ZCJ","3HUR21WDDUBEMSLDIXZW1FAIHWSYXN","","null","<img src=""img/food3.png"" style=""width:200px; border:14px solid green;"">","null","","","","","","","","","",""
"","image-keyboard-response","210","170354","0.0-223.0","3OB0CAO74IBJMMJS4VMCNCIC1S4HY5","A1NVJB5O4H7ZCJ","3HUR21WDDUBEMSLDIXZW1FAIHWSYXN","","605.2000000476837","img/food2.png","75","607.7000000476837","2","0","1","2","1,0.5,0,1,0.5,0,0.5,0,1","0.5,0,1,0.5,0,1,0,1,0.5","2","false",""
"","html-keyboard-response","211","170657","0.0-224.0","3OB0CAO74IBJMMJS4VMCNCIC1S4HY5","A1NVJB5O4H7ZCJ","3HUR21WDDUBEMSLDIXZW1FAIHWSYXN","","null","<img src=""img/food2.png"" style=""width:200px;border:14px solid red;"">","null","","","","","","","","","",""
"","image-keyboard-response","212","171216","0.0-226.0","3OB0CAO74IBJMMJS4VMCNCIC1S4HY5","A1NVJB5O4H7ZCJ","3HUR21WDDUBEMSLDIXZW1FAIHWSYXN","","555.4000000953674","img/food3.png","76","557.4000000953674","3","1","3","2","1,0.5,0,1,0.5,0,0.5,0,1","0.5,0,1,0.5,0,1,0,1,0.5","2","false",""
"","html-keyboard-response","213","171518","0.0-227.0","3OB0CAO74IBJMMJS4VMCNCIC1S4HY5","A1NVJB5O4H7ZCJ","3HUR21WDDUBEMSLDIXZW1FAIHWSYXN","","null","<img src=""img/food3.png"" style=""width:200px; border:14px solid green;"">","null","","","","","","","","","",""
"","image-keyboard-response","214","171986","0.0-229.0","3OB0CAO74IBJMMJS4VMCNCIC1S4HY5","A1NVJB5O4H7ZCJ","3HUR21WDDUBEMSLDIXZW1FAIHWSYXN","","464.10000014305115","img/food3.png","76","466.59999990463257","3","0","3","2","1,0.5,0,1,0.5,0,0.5,0,1","0.5,0,1,0.5,0,1,0,1,0.5","2","false",""
"","html-keyboard-response","215","172289","0.0-230.0","3OB0CAO74IBJMMJS4VMCNCIC1S4HY5","A1NVJB5O4H7ZCJ","3HUR21WDDUBEMSLDIXZW1FAIHWSYXN","","null","<img src=""img/food3.png"" style=""width:200px;border:14px solid red;"">","null","","","","","","","","","",""
"","image-keyboard-response","216","172738","0.0-232.0","3OB0CAO74IBJMMJS4VMCNCIC1S4HY5","A1NVJB5O4H7ZCJ","3HUR21WDDUBEMSLDIXZW1FAIHWSYXN","","446.39999985694885","img/food3.png","75","448.2000000476837","2","1","3","2","1,0.5,0,1,0.5,0,0.5,0,1","0.5,0,1,0.5,0,1,0,1,0.5","2","false",""
"","html-keyboard-response","217","173042","0.0-233.0","3OB0CAO74IBJMMJS4VMCNCIC1S4HY5","A1NVJB5O4H7ZCJ","3HUR21WDDUBEMSLDIXZW1FAIHWSYXN","","null","<img src=""img/food3.png"" style=""width:200px; border:14px solid green;"">","null","","","","","","","","","",""
"","image-keyboard-response","218","173937","0.0-235.0","3OB0CAO74IBJMMJS4VMCNCIC1S4HY5","A1NVJB5O4H7ZCJ","3HUR21WDDUBEMSLDIXZW1FAIHWSYXN","","892.5999999046326","img/food6.png","74","894.9000000953674","1","1","2","2","1,0.5,0,1,0.5,0,0.5,0,1","0.5,0,1,0.5,0,1,0,1,0.5","2","false",""
"","html-keyboard-response","219","174241","0.0-236.0","3OB0CAO74IBJMMJS4VMCNCIC1S4HY5","A1NVJB5O4H7ZCJ","3HUR21WDDUBEMSLDIXZW1FAIHWSYXN","","null","<img src=""img/food6.png"" style=""width:200px; border:14px solid green;"">","null","","","","","","","","","",""
"","image-keyboard-response","220","174833","0.0-238.0","3OB0CAO74IBJMMJS4VMCNCIC1S4HY5","A1NVJB5O4H7ZCJ","3HUR21WDDUBEMSLDIXZW1FAIHWSYXN","","588.2000000476837","img/food3.png","75","590.7000000476837","2","1","3","2","1,0.5,0,1,0.5,0,0.5,0,1","0.5,0,1,0.5,0,1,0,1,0.5","2","false",""
"","html-keyboard-response","221","175137","0.0-239.0","3OB0CAO74IBJMMJS4VMCNCIC1S4HY5","A1NVJB5O4H7ZCJ","3HUR21WDDUBEMSLDIXZW1FAIHWSYXN","","null","<img src=""img/food3.png"" style=""width:200px; border:14px solid green;"">","null","","","","","","","","","",""
"","image-keyboard-response","222","175594","0.0-241.0","3OB0CAO74IBJMMJS4VMCNCIC1S4HY5","A1NVJB5O4H7ZCJ","3HUR21WDDUBEMSLDIXZW1FAIHWSYXN","","455","img/food6.png","74","456.7000000476837","1","1","2","2","1,0.5,0,1,0.5,0,0.5,0,1","0.5,0,1,0.5,0,1,0,1,0.5","2","false",""
"","html-keyboard-response","223","175898","0.0-242.0","3OB0CAO74IBJMMJS4VMCNCIC1S4HY5","A1NVJB5O4H7ZCJ","3HUR21WDDUBEMSLDIXZW1FAIHWSYXN","","null","<img src=""img/food6.png"" style=""width:200px; border:14px solid green;"">","null","","","","","","","","","",""
"","image-keyboard-response","224","176489","0.0-244.0","3OB0CAO74IBJMMJS4VMCNCIC1S4HY5","A1NVJB5O4H7ZCJ","3HUR21WDDUBEMSLDIXZW1FAIHWSYXN","","589.5","img/food6.png","74","591.2999999523163","1","1","2","2","1,0.5,0,1,0.5,0,0.5,0,1","0.5,0,1,0.5,0,1,0,1,0.5","2","false",""
"","html-keyboard-response","225","176793","0.0-245.0","3OB0CAO74IBJMMJS4VMCNCIC1S4HY5","A1NVJB5O4H7ZCJ","3HUR21WDDUBEMSLDIXZW1FAIHWSYXN","","null","<img src=""img/food6.png"" style=""width:200px; border:14px solid green;"">","null","","","","","","","","","",""
"","image-keyboard-response","226","177198","0.0-247.0","3OB0CAO74IBJMMJS4VMCNCIC1S4HY5","A1NVJB5O4H7ZCJ","3HUR21WDDUBEMSLDIXZW1FAIHWSYXN","","403.19999980926514","img/food6.png","74","404.90000009536743","1","1","2","2","1,0.5,0,1,0.5,0,0.5,0,1","0.5,0,1,0.5,0,1,0,1,0.5","2","false",""
"","html-keyboard-response","227","177500","0.0-248.0","3OB0CAO74IBJMMJS4VMCNCIC1S4HY5","A1NVJB5O4H7ZCJ","3HUR21WDDUBEMSLDIXZW1FAIHWSYXN","","null","<img src=""img/food6.png"" style=""width:200px; border:14px solid green;"">","null","","","","","","","","","",""
"","image-keyboard-response","228","178034","0.0-250.0","3OB0CAO74IBJMMJS4VMCNCIC1S4HY5","A1NVJB5O4H7ZCJ","3HUR21WDDUBEMSLDIXZW1FAIHWSYXN","","531.2000000476837","img/food2.png","75","533.5","2","0","1","2","1,0.5,0,1,0.5,0,0.5,0,1","0.5,0,1,0.5,0,1,0,1,0.5","2","false",""
"","html-keyboard-response","229","178337","0.0-251.0","3OB0CAO74IBJMMJS4VMCNCIC1S4HY5","A1NVJB5O4H7ZCJ","3HUR21WDDUBEMSLDIXZW1FAIHWSYXN","","null","<img src=""img/food2.png"" style=""width:200px;border:14px solid red;"">","null","","","","","","","","","",""
"","image-keyboard-response","230","178809","0.0-253.0","3OB0CAO74IBJMMJS4VMCNCIC1S4HY5","A1NVJB5O4H7ZCJ","3HUR21WDDUBEMSLDIXZW1FAIHWSYXN","","467.90000009536743","img/food2.png","76","470.2999999523163","3","1","1","2","1,0.5,0,1,0.5,0,0.5,0,1","0.5,0,1,0.5,0,1,0,1,0.5","2","false",""
"","html-keyboard-response","231","179112","0.0-254.0","3OB0CAO74IBJMMJS4VMCNCIC1S4HY5","A1NVJB5O4H7ZCJ","3HUR21WDDUBEMSLDIXZW1FAIHWSYXN","","null","<img src=""img/food2.png"" style=""width:200px; border:14px solid green;"">","null","","","","","","","","","",""
"","image-keyboard-response","232","179697","0.0-256.0","3OB0CAO74IBJMMJS4VMCNCIC1S4HY5","A1NVJB5O4H7ZCJ","3HUR21WDDUBEMSLDIXZW1FAIHWSYXN","","581.5","img/food2.png","76","583.7000000476837","3","1","1","2","1,0.5,0,1,0.5,0,0.5,0,1","0.5,0,1,0.5,0,1,0,1,0.5","2","false",""
"","html-keyboard-response","233","180000","0.0-257.0","3OB0CAO74IBJMMJS4VMCNCIC1S4HY5","A1NVJB5O4H7ZCJ","3HUR21WDDUBEMSLDIXZW1FAIHWSYXN","","null","<img src=""img/food2.png"" style=""width:200px; border:14px solid green;"">","null","","","","","","","","","",""
"","image-keyboard-response","234","180625","0.0-259.0","3OB0CAO74IBJMMJS4VMCNCIC1S4HY5","A1NVJB5O4H7ZCJ","3HUR21WDDUBEMSLDIXZW1FAIHWSYXN","","621.5999999046326","img/food6.png","75","624","2","0","2","2","1,0.5,0,1,0.5,0,0.5,0,1","0.5,0,1,0.5,0,1,0,1,0.5","2","false",""
"","html-keyboard-response","235","180930","0.0-260.0","3OB0CAO74IBJMMJS4VMCNCIC1S4HY5","A1NVJB5O4H7ZCJ","3HUR21WDDUBEMSLDIXZW1FAIHWSYXN","","null","<img src=""img/food6.png"" style=""width:200px;border:14px solid red;"">","null","","","","","","","","","",""
"","image-keyboard-response","236","181337","0.0-262.0","3OB0CAO74IBJMMJS4VMCNCIC1S4HY5","A1NVJB5O4H7ZCJ","3HUR21WDDUBEMSLDIXZW1FAIHWSYXN","","403.89999985694885","img/food6.png","74","406.2000000476837","1","1","2","2","1,0.5,0,1,0.5,0,0.5,0,1","0.5,0,1,0.5,0,1,0,1,0.5","2","false",""
"","html-keyboard-response","237","181641","0.0-263.0","3OB0CAO74IBJMMJS4VMCNCIC1S4HY5","A1NVJB5O4H7ZCJ","3HUR21WDDUBEMSLDIXZW1FAIHWSYXN","","null","<img src=""img/food6.png"" style=""width:200px; border:14px solid green;"">","null","","","","","","","","","",""
"","image-keyboard-response","238","182385","0.0-265.0","3OB0CAO74IBJMMJS4VMCNCIC1S4HY5","A1NVJB5O4H7ZCJ","3HUR21WDDUBEMSLDIXZW1FAIHWSYXN","","741.4000000953674","img/food3.png","75","743.9000000953674","2","1","3","2","1,0.5,0,1,0.5,0,0.5,0,1","0.5,0,1,0.5,0,1,0,1,0.5","2","false",""
"","html-keyboard-response","239","182704","0.0-266.0","3OB0CAO74IBJMMJS4VMCNCIC1S4HY5","A1NVJB5O4H7ZCJ","3HUR21WDDUBEMSLDIXZW1FAIHWSYXN","","null","<img src=""img/food3.png"" style=""width:200px; border:14px solid green;"">","null","","","","","","","","","",""
"","image-keyboard-response","240","183161","0.0-268.0","3OB0CAO74IBJMMJS4VMCNCIC1S4HY5","A1NVJB5O4H7ZCJ","3HUR21WDDUBEMSLDIXZW1FAIHWSYXN","","454.40000009536743","img/food6.png","75","457","2","0","2","2","1,0.5,0,1,0.5,0,0.5,0,1","0.5,0,1,0.5,0,1,0,1,0.5","2","false",""
"","html-keyboard-response","241","183480","0.0-269.0","3OB0CAO74IBJMMJS4VMCNCIC1S4HY5","A1NVJB5O4H7ZCJ","3HUR21WDDUBEMSLDIXZW1FAIHWSYXN","","null","<img src=""img/food6.png"" style=""width:200px;border:14px solid red;"">","null","","","","","","","","","",""
"","image-keyboard-response","242","184065","0.0-271.0","3OB0CAO74IBJMMJS4VMCNCIC1S4HY5","A1NVJB5O4H7ZCJ","3HUR21WDDUBEMSLDIXZW1FAIHWSYXN","","582.5","img/food2.png","76","584.7000000476837","3","1","1","2","1,0.5,0,1,0.5,0,0.5,0,1","0.5,0,1,0.5,0,1,0,1,0.5","2","false",""
"","html-keyboard-response","243","184369","0.0-272.0","3OB0CAO74IBJMMJS4VMCNCIC1S4HY5","A1NVJB5O4H7ZCJ","3HUR21WDDUBEMSLDIXZW1FAIHWSYXN","","null","<img src=""img/food2.png"" style=""width:200px; border:14px solid green;"">","null","","","","","","","","","",""
"","image-keyboard-response","244","184805","0.0-274.0","3OB0CAO74IBJMMJS4VMCNCIC1S4HY5","A1NVJB5O4H7ZCJ","3HUR21WDDUBEMSLDIXZW1FAIHWSYXN","","431.7000000476837","img/food2.png","76","434.10000014305115","3","1","1","2","1,0.5,0,1,0.5,0,0.5,0,1","0.5,0,1,0.5,0,1,0,1,0.5","2","false",""
"","html-keyboard-response","245","185110","0.0-275.0","3OB0CAO74IBJMMJS4VMCNCIC1S4HY5","A1NVJB5O4H7ZCJ","3HUR21WDDUBEMSLDIXZW1FAIHWSYXN","","null","<img src=""img/food2.png"" style=""width:200px; border:14px solid green;"">","null","","","","","","","","","",""
"","image-keyboard-response","246","185759","0.0-277.0","3OB0CAO74IBJMMJS4VMCNCIC1S4HY5","A1NVJB5O4H7ZCJ","3HUR21WDDUBEMSLDIXZW1FAIHWSYXN","","646.2000000476837","img/food6.png","74","648.1000001430511","1","1","2","2","1,0.5,0,1,0.5,0,0.5,0,1","0.5,0,1,0.5,0,1,0,1,0.5","2","false",""
"","html-keyboard-response","247","186061","0.0-278.0","3OB0CAO74IBJMMJS4VMCNCIC1S4HY5","A1NVJB5O4H7ZCJ","3HUR21WDDUBEMSLDIXZW1FAIHWSYXN","","null","<img src=""img/food6.png"" style=""width:200px; border:14px solid green;"">","null","","","","","","","","","",""
"","image-keyboard-response","248","186717","0.0-280.0","3OB0CAO74IBJMMJS4VMCNCIC1S4HY5","A1NVJB5O4H7ZCJ","3HUR21WDDUBEMSLDIXZW1FAIHWSYXN","","653.1000001430511","img/food3.png","75","655.5","2","1","3","2","1,0.5,0,1,0.5,0,0.5,0,1","0.5,0,1,0.5,0,1,0,1,0.5","2","false",""
"","html-keyboard-response","249","187021","0.0-281.0","3OB0CAO74IBJMMJS4VMCNCIC1S4HY5","A1NVJB5O4H7ZCJ","3HUR21WDDUBEMSLDIXZW1FAIHWSYXN","","null","<img src=""img/food3.png"" style=""width:200px; border:14px solid green;"">","null","","","","","","","","","",""
"","image-keyboard-response","250","187501","0.0-283.0","3OB0CAO74IBJMMJS4VMCNCIC1S4HY5","A1NVJB5O4H7ZCJ","3HUR21WDDUBEMSLDIXZW1FAIHWSYXN","","476.7000000476837","img/food2.png","76","479.09999990463257","3","1","1","2","1,0.5,0,1,0.5,0,0.5,0,1","0.5,0,1,0.5,0,1,0,1,0.5","2","false",""
"","html-keyboard-response","251","187808","0.0-284.0","3OB0CAO74IBJMMJS4VMCNCIC1S4HY5","A1NVJB5O4H7ZCJ","3HUR21WDDUBEMSLDIXZW1FAIHWSYXN","","null","<img src=""img/food2.png"" style=""width:200px; border:14px solid green;"">","null","","","","","","","","","",""
"","image-keyboard-response","252","188345","0.0-286.0","3OB0CAO74IBJMMJS4VMCNCIC1S4HY5","A1NVJB5O4H7ZCJ","3HUR21WDDUBEMSLDIXZW1FAIHWSYXN","","533.4000000953674","img/food3.png","76","535.7999999523163","3","1","3","2","1,0.5,0,1,0.5,0,0.5,0,1","0.5,0,1,0.5,0,1,0,1,0.5","2","false",""
"","html-keyboard-response","253","188648","0.0-287.0","3OB0CAO74IBJMMJS4VMCNCIC1S4HY5","A1NVJB5O4H7ZCJ","3HUR21WDDUBEMSLDIXZW1FAIHWSYXN","","null","<img src=""img/food3.png"" style=""width:200px; border:14px solid green;"">","null","","","","","","","","","",""
"","image-keyboard-response","254","189193","0.0-289.0","3OB0CAO74IBJMMJS4VMCNCIC1S4HY5","A1NVJB5O4H7ZCJ","3HUR21WDDUBEMSLDIXZW1FAIHWSYXN","","541.3999998569489","img/food3.png","76","543.9000000953674","3","1","3","2","1,0.5,0,1,0.5,0,0.5,0,1","0.5,0,1,0.5,0,1,0,1,0.5","2","false",""
"","html-keyboard-response","255","189499","0.0-290.0","3OB0CAO74IBJMMJS4VMCNCIC1S4HY5","A1NVJB5O4H7ZCJ","3HUR21WDDUBEMSLDIXZW1FAIHWSYXN","","null","<img src=""img/food3.png"" style=""width:200px; border:14px solid green;"">","null","","","","","","","","","",""
"","image-keyboard-response","256","190205","0.0-292.0","3OB0CAO74IBJMMJS4VMCNCIC1S4HY5","A1NVJB5O4H7ZCJ","3HUR21WDDUBEMSLDIXZW1FAIHWSYXN","","702.5","img/food2.png","75","705.0999999046326","2","0","1","2","1,0.5,0,1,0.5,0,0.5,0,1","0.5,0,1,0.5,0,1,0,1,0.5","2","false",""
"","html-keyboard-response","257","190509","0.0-293.0","3OB0CAO74IBJMMJS4VMCNCIC1S4HY5","A1NVJB5O4H7ZCJ","3HUR21WDDUBEMSLDIXZW1FAIHWSYXN","","null","<img src=""img/food2.png"" style=""width:200px;border:14px solid red;"">","null","","","","","","","","","",""
"","image-keyboard-response","258","190917","0.0-295.0","3OB0CAO74IBJMMJS4VMCNCIC1S4HY5","A1NVJB5O4H7ZCJ","3HUR21WDDUBEMSLDIXZW1FAIHWSYXN","","404.7999999523163","img/food2.png","74","407.09999990463257","1","1","1","2","1,0.5,0,1,0.5,0,0.5,0,1","0.5,0,1,0.5,0,1,0,1,0.5","2","false",""
"","html-keyboard-response","259","191221","0.0-296.0","3OB0CAO74IBJMMJS4VMCNCIC1S4HY5","A1NVJB5O4H7ZCJ","3HUR21WDDUBEMSLDIXZW1FAIHWSYXN","","null","<img src=""img/food2.png"" style=""width:200px; border:14px solid green;"">","null","","","","","","","","","",""
"","image-keyboard-response","260","191924","0.0-298.0","3OB0CAO74IBJMMJS4VMCNCIC1S4HY5","A1NVJB5O4H7ZCJ","3HUR21WDDUBEMSLDIXZW1FAIHWSYXN","","699.7999999523163","img/food3.png","75","702.0999999046326","2","1","3","2","1,0.5,0,1,0.5,0,0.5,0,1","0.5,0,1,0.5,0,1,0,1,0.5","2","false",""
"","html-keyboard-response","261","192227","0.0-299.0","3OB0CAO74IBJMMJS4VMCNCIC1S4HY5","A1NVJB5O4H7ZCJ","3HUR21WDDUBEMSLDIXZW1FAIHWSYXN","","null","<img src=""img/food3.png"" style=""width:200px; border:14px solid green;"">","null","","","","","","","","","",""
"","image-keyboard-response","262","192709","0.0-301.0","3OB0CAO74IBJMMJS4VMCNCIC1S4HY5","A1NVJB5O4H7ZCJ","3HUR21WDDUBEMSLDIXZW1FAIHWSYXN","","478.2999999523163","img/food3.png","75","480.7999999523163","2","1","3","2","1,0.5,0,1,0.5,0,0.5,0,1","0.5,0,1,0.5,0,1,0,1,0.5","2","false",""
"","html-keyboard-response","263","193012","0.0-302.0","3OB0CAO74IBJMMJS4VMCNCIC1S4HY5","A1NVJB5O4H7ZCJ","3HUR21WDDUBEMSLDIXZW1FAIHWSYXN","","null","<img src=""img/food3.png"" style=""width:200px; border:14px solid green;"">","null","","","","","","","","","",""
"","image-keyboard-response","264","193708","0.0-304.0","3OB0CAO74IBJMMJS4VMCNCIC1S4HY5","A1NVJB5O4H7ZCJ","3HUR21WDDUBEMSLDIXZW1FAIHWSYXN","","693","img/food6.png","74","695.5","1","1","2","2","1,0.5,0,1,0.5,0,0.5,0,1","0.5,0,1,0.5,0,1,0,1,0.5","2","false",""
"","html-keyboard-response","265","194012","0.0-305.0","3OB0CAO74IBJMMJS4VMCNCIC1S4HY5","A1NVJB5O4H7ZCJ","3HUR21WDDUBEMSLDIXZW1FAIHWSYXN","","null","<img src=""img/food6.png"" style=""width:200px; border:14px solid green;"">","null","","","","","","","","","",""
"","image-keyboard-response","266","194837","0.0-307.0","3OB0CAO74IBJMMJS4VMCNCIC1S4HY5","A1NVJB5O4H7ZCJ","3HUR21WDDUBEMSLDIXZW1FAIHWSYXN","","821.9000000953674","img/food2.png","76","824.5","3","1","1","2","1,0.5,0,1,0.5,0,0.5,0,1","0.5,0,1,0.5,0,1,0,1,0.5","2","false",""
"","html-keyboard-response","267","195141","0.0-308.0","3OB0CAO74IBJMMJS4VMCNCIC1S4HY5","A1NVJB5O4H7ZCJ","3HUR21WDDUBEMSLDIXZW1FAIHWSYXN","","null","<img src=""img/food2.png"" style=""width:200px; border:14px solid green;"">","null","","","","","","","","","",""
"","image-keyboard-response","268","195749","0.0-310.0","3OB0CAO74IBJMMJS4VMCNCIC1S4HY5","A1NVJB5O4H7ZCJ","3HUR21WDDUBEMSLDIXZW1FAIHWSYXN","","604.7000000476837","img/food3.png","74","607.2999999523163","1","0","3","2","1,0.5,0,1,0.5,0,0.5,0,1","0.5,0,1,0.5,0,1,0,1,0.5","2","false",""
"","html-keyboard-response","269","196057","0.0-311.0","3OB0CAO74IBJMMJS4VMCNCIC1S4HY5","A1NVJB5O4H7ZCJ","3HUR21WDDUBEMSLDIXZW1FAIHWSYXN","","null","<img src=""img/food3.png"" style=""width:200px;border:14px solid red;"">","null","","","","","","","","","",""
"","image-keyboard-response","270","196445","0.0-313.0","3OB0CAO74IBJMMJS4VMCNCIC1S4HY5","A1NVJB5O4H7ZCJ","3HUR21WDDUBEMSLDIXZW1FAIHWSYXN","","385.30000019073486","img/food2.png","75","387.7999999523163","2","0","1","2","1,0.5,0,1,0.5,0,0.5,0,1","0.5,0,1,0.5,0,1,0,1,0.5","2","false",""
"","html-keyboard-response","271","196749","0.0-314.0","3OB0CAO74IBJMMJS4VMCNCIC1S4HY5","A1NVJB5O4H7ZCJ","3HUR21WDDUBEMSLDIXZW1FAIHWSYXN","","null","<img src=""img/food2.png"" style=""width:200px;border:14px solid red;"">","null","","","","","","","","","",""
"","image-keyboard-response","272","197573","0.0-316.0","3OB0CAO74IBJMMJS4VMCNCIC1S4HY5","A1NVJB5O4H7ZCJ","3HUR21WDDUBEMSLDIXZW1FAIHWSYXN","","820.7999999523163","img/food6.png","74","823.2999999523163","1","0","2","2","1,0.5,0,1,0.5,0,0.5,0,1","0.5,0,1,0.5,0,1,0,1,0.5","2","false",""
"","html-keyboard-response","273","197876","0.0-317.0","3OB0CAO74IBJMMJS4VMCNCIC1S4HY5","A1NVJB5O4H7ZCJ","3HUR21WDDUBEMSLDIXZW1FAIHWSYXN","","null","<img src=""img/food6.png"" style=""width:200px;border:14px solid red;"">","null","","","","","","","","","",""
"","image-keyboard-response","274","198485","0.0-319.0","3OB0CAO74IBJMMJS4VMCNCIC1S4HY5","A1NVJB5O4H7ZCJ","3HUR21WDDUBEMSLDIXZW1FAIHWSYXN","","605.2000000476837","img/food6.png","74","607.7999999523163","1","1","2","2","1,0.5,0,1,0.5,0,0.5,0,1","0.5,0,1,0.5,0,1,0,1,0.5","2","false",""
"","html-keyboard-response","275","198789","0.0-320.0","3OB0CAO74IBJMMJS4VMCNCIC1S4HY5","A1NVJB5O4H7ZCJ","3HUR21WDDUBEMSLDIXZW1FAIHWSYXN","","null","<img src=""img/food6.png"" style=""width:200px; border:14px solid green;"">","null","","","","","","","","","",""
"","image-keyboard-response","276","199405","0.0-322.0","3OB0CAO74IBJMMJS4VMCNCIC1S4HY5","A1NVJB5O4H7ZCJ","3HUR21WDDUBEMSLDIXZW1FAIHWSYXN","","612.9000000953674","img/food3.png","76","615.5999999046326","3","0","3","2","1,0.5,0,1,0.5,0,0.5,0,1","0.5,0,1,0.5,0,1,0,1,0.5","2","false",""
"","html-keyboard-response","277","199709","0.0-323.0","3OB0CAO74IBJMMJS4VMCNCIC1S4HY5","A1NVJB5O4H7ZCJ","3HUR21WDDUBEMSLDIXZW1FAIHWSYXN","","null","<img src=""img/food3.png"" style=""width:200px;border:14px solid red;"">","null","","","","","","","","","",""
"","image-keyboard-response","278","200405","0.0-325.0","3OB0CAO74IBJMMJS4VMCNCIC1S4HY5","A1NVJB5O4H7ZCJ","3HUR21WDDUBEMSLDIXZW1FAIHWSYXN","","692.5999999046326","img/food6.png","75","695.1000001430511","2","0","2","2","1,0.5,0,1,0.5,0,0.5,0,1","0.5,0,1,0.5,0,1,0,1,0.5","2","false",""
"","html-keyboard-response","279","200709","0.0-326.0","3OB0CAO74IBJMMJS4VMCNCIC1S4HY5","A1NVJB5O4H7ZCJ","3HUR21WDDUBEMSLDIXZW1FAIHWSYXN","","null","<img src=""img/food6.png"" style=""width:200px;border:14px solid red;"">","null","","","","","","","","","",""
"","image-keyboard-response","280","201114","0.0-328.0","3OB0CAO74IBJMMJS4VMCNCIC1S4HY5","A1NVJB5O4H7ZCJ","3HUR21WDDUBEMSLDIXZW1FAIHWSYXN","","401","img/food2.png","74","403.10000014305115","1","0","1","2","1,0.5,0,1,0.5,0,0.5,0,1","0.5,0,1,0.5,0,1,0,1,0.5","2","false",""
"","html-keyboard-response","281","201417","0.0-329.0","3OB0CAO74IBJMMJS4VMCNCIC1S4HY5","A1NVJB5O4H7ZCJ","3HUR21WDDUBEMSLDIXZW1FAIHWSYXN","","null","<img src=""img/food2.png"" style=""width:200px;border:14px solid red;"">","null","","","","","","","","","",""
"","image-keyboard-response","282","202213","0.0-331.0","3OB0CAO74IBJMMJS4VMCNCIC1S4HY5","A1NVJB5O4H7ZCJ","3HUR21WDDUBEMSLDIXZW1FAIHWSYXN","","794.7999999523163","img/food6.png","74","796.3999998569489","1","1","2","2","1,0.5,0,1,0.5,0,0.5,0,1","0.5,0,1,0.5,0,1,0,1,0.5","2","false",""
"","html-keyboard-response","283","202517","0.0-332.0","3OB0CAO74IBJMMJS4VMCNCIC1S4HY5","A1NVJB5O4H7ZCJ","3HUR21WDDUBEMSLDIXZW1FAIHWSYXN","","null","<img src=""img/food6.png"" style=""width:200px; border:14px solid green;"">","null","","","","","","","","","",""
"","image-keyboard-response","284","203205","0.0-334.0","3OB0CAO74IBJMMJS4VMCNCIC1S4HY5","A1NVJB5O4H7ZCJ","3HUR21WDDUBEMSLDIXZW1FAIHWSYXN","","684.5999999046326","img/food2.png","75","687.0999999046326","2","0","1","2","1,0.5,0,1,0.5,0,0.5,0,1","0.5,0,1,0.5,0,1,0,1,0.5","2","false",""
"","html-keyboard-response","285","203508","0.0-335.0","3OB0CAO74IBJMMJS4VMCNCIC1S4HY5","A1NVJB5O4H7ZCJ","3HUR21WDDUBEMSLDIXZW1FAIHWSYXN","","null","<img src=""img/food2.png"" style=""width:200px;border:14px solid red;"">","null","","","","","","","","","",""
"","image-keyboard-response","286","203988","0.0-337.0","3OB0CAO74IBJMMJS4VMCNCIC1S4HY5","A1NVJB5O4H7ZCJ","3HUR21WDDUBEMSLDIXZW1FAIHWSYXN","","477","img/food6.png","74","479.5","1","1","2","2","1,0.5,0,1,0.5,0,0.5,0,1","0.5,0,1,0.5,0,1,0,1,0.5","2","false",""
"","html-keyboard-response","287","204292","0.0-338.0","3OB0CAO74IBJMMJS4VMCNCIC1S4HY5","A1NVJB5O4H7ZCJ","3HUR21WDDUBEMSLDIXZW1FAIHWSYXN","","null","<img src=""img/food6.png"" style=""width:200px; border:14px solid green;"">","null","","","","","","","","","",""
"","image-keyboard-response","288","204789","0.0-340.0","3OB0CAO74IBJMMJS4VMCNCIC1S4HY5","A1NVJB5O4H7ZCJ","3HUR21WDDUBEMSLDIXZW1FAIHWSYXN","","495.09999990463257","img/food2.png","76","496.90000009536743","3","1","1","2","1,0.5,0,1,0.5,0,0.5,0,1","0.5,0,1,0.5,0,1,0,1,0.5","2","false",""
"","html-keyboard-response","289","205092","0.0-341.0","3OB0CAO74IBJMMJS4VMCNCIC1S4HY5","A1NVJB5O4H7ZCJ","3HUR21WDDUBEMSLDIXZW1FAIHWSYXN","","null","<img src=""img/food2.png"" style=""width:200px; border:14px solid green;"">","null","","","","","","","","","",""
"","image-keyboard-response","290","205980","0.0-343.0","3OB0CAO74IBJMMJS4VMCNCIC1S4HY5","A1NVJB5O4H7ZCJ","3HUR21WDDUBEMSLDIXZW1FAIHWSYXN","","886.2000000476837","img/food3.png","75","888","2","1","3","2","1,0.5,0,1,0.5,0,0.5,0,1","0.5,0,1,0.5,0,1,0,1,0.5","2","false",""
"","html-keyboard-response","291","206284","0.0-344.0","3OB0CAO74IBJMMJS4VMCNCIC1S4HY5","A1NVJB5O4H7ZCJ","3HUR21WDDUBEMSLDIXZW1FAIHWSYXN","","null","<img src=""img/food3.png"" style=""width:200px; border:14px solid green;"">","null","","","","","","","","","",""
"","image-keyboard-response","292","206934","0.0-346.0","3OB0CAO74IBJMMJS4VMCNCIC1S4HY5","A1NVJB5O4H7ZCJ","3HUR21WDDUBEMSLDIXZW1FAIHWSYXN","","646.5","img/food6.png","74","649.0999999046326","1","0","2","2","1,0.5,0,1,0.5,0,0.5,0,1","0.5,0,1,0.5,0,1,0,1,0.5","2","false",""
"","html-keyboard-response","293","207241","0.0-347.0","3OB0CAO74IBJMMJS4VMCNCIC1S4HY5","A1NVJB5O4H7ZCJ","3HUR21WDDUBEMSLDIXZW1FAIHWSYXN","","null","<img src=""img/food6.png"" style=""width:200px;border:14px solid red;"">","null","","","","","","","","","",""
"","image-keyboard-response","294","207995","0.0-349.0","3OB0CAO74IBJMMJS4VMCNCIC1S4HY5","A1NVJB5O4H7ZCJ","3HUR21WDDUBEMSLDIXZW1FAIHWSYXN","","750.5","img/food2.png","76","752.9000000953674","3","1","1","2","1,0.5,0,1,0.5,0,0.5,0,1","0.5,0,1,0.5,0,1,0,1,0.5","2","false",""
"","html-keyboard-response","295","208297","0.0-350.0","3OB0CAO74IBJMMJS4VMCNCIC1S4HY5","A1NVJB5O4H7ZCJ","3HUR21WDDUBEMSLDIXZW1FAIHWSYXN","","null","<img src=""img/food2.png"" style=""width:200px; border:14px solid green;"">","null","","","","","","","","","",""
"","image-keyboard-response","296","208782","0.0-352.0","3OB0CAO74IBJMMJS4VMCNCIC1S4HY5","A1NVJB5O4H7ZCJ","3HUR21WDDUBEMSLDIXZW1FAIHWSYXN","","481.2000000476837","img/food2.png","76","483.69999980926514","3","1","1","2","1,0.5,0,1,0.5,0,0.5,0,1","0.5,0,1,0.5,0,1,0,1,0.5","2","false",""
"","html-keyboard-response","297","209093","0.0-353.0","3OB0CAO74IBJMMJS4VMCNCIC1S4HY5","A1NVJB5O4H7ZCJ","3HUR21WDDUBEMSLDIXZW1FAIHWSYXN","","null","<img src=""img/food2.png"" style=""width:200px; border:14px solid green;"">","null","","","","","","","","","",""
"","image-keyboard-response","298","209670","0.0-355.0","3OB0CAO74IBJMMJS4VMCNCIC1S4HY5","A1NVJB5O4H7ZCJ","3HUR21WDDUBEMSLDIXZW1FAIHWSYXN","","573.7999999523163","img/food3.png","75","576.4000000953674","2","1","3","2","1,0.5,0,1,0.5,0,0.5,0,1","0.5,0,1,0.5,0,1,0,1,0.5","2","false",""
"","html-keyboard-response","299","209973","0.0-356.0","3OB0CAO74IBJMMJS4VMCNCIC1S4HY5","A1NVJB5O4H7ZCJ","3HUR21WDDUBEMSLDIXZW1FAIHWSYXN","","null","<img src=""img/food3.png"" style=""width:200px; border:14px solid green;"">","null","","","","","","","","","",""
"","image-keyboard-response","300","210429","0.0-358.0","3OB0CAO74IBJMMJS4VMCNCIC1S4HY5","A1NVJB5O4H7ZCJ","3HUR21WDDUBEMSLDIXZW1FAIHWSYXN","","453.2999999523163","img/food3.png","75","455.19999980926514","2","1","3","2","1,0.5,0,1,0.5,0,0.5,0,1","0.5,0,1,0.5,0,1,0,1,0.5","2","false",""
"","html-keyboard-response","301","210732","0.0-359.0","3OB0CAO74IBJMMJS4VMCNCIC1S4HY5","A1NVJB5O4H7ZCJ","3HUR21WDDUBEMSLDIXZW1FAIHWSYXN","","null","<img src=""img/food3.png"" style=""width:200px; border:14px solid green;"">","null","","","","","","","","","",""
"","image-keyboard-response","302","211207","0.0-361.0","3OB0CAO74IBJMMJS4VMCNCIC1S4HY5","A1NVJB5O4H7ZCJ","3HUR21WDDUBEMSLDIXZW1FAIHWSYXN","","473.19999980926514","img/food6.png","76","474.80000019073486","3","1","2","2","1,0.5,0,1,0.5,0,0.5,0,1","0.5,0,1,0.5,0,1,0,1,0.5","2","false",""
"","html-keyboard-response","303","211510","0.0-362.0","3OB0CAO74IBJMMJS4VMCNCIC1S4HY5","A1NVJB5O4H7ZCJ","3HUR21WDDUBEMSLDIXZW1FAIHWSYXN","","null","<img src=""img/food6.png"" style=""width:200px; border:14px solid green;"">","null","","","","","","","","","",""
"","image-keyboard-response","304","212031","0.0-364.0","3OB0CAO74IBJMMJS4VMCNCIC1S4HY5","A1NVJB5O4H7ZCJ","3HUR21WDDUBEMSLDIXZW1FAIHWSYXN","","514","img/food3.png","76","516.7999999523163","3","0","3","2","1,0.5,0,1,0.5,0,0.5,0,1","0.5,0,1,0.5,0,1,0,1,0.5","2","false",""
"","html-keyboard-response","305","212338","0.0-365.0","3OB0CAO74IBJMMJS4VMCNCIC1S4HY5","A1NVJB5O4H7ZCJ","3HUR21WDDUBEMSLDIXZW1FAIHWSYXN","","null","<img src=""img/food3.png"" style=""width:200px;border:14px solid red;"">","null","","","","","","","","","",""
"","image-keyboard-response","306","212745","0.0-367.0","3OB0CAO74IBJMMJS4VMCNCIC1S4HY5","A1NVJB5O4H7ZCJ","3HUR21WDDUBEMSLDIXZW1FAIHWSYXN","","403.80000019073486","img/food6.png","75","406.2999999523163","2","0","2","2","1,0.5,0,1,0.5,0,0.5,0,1","0.5,0,1,0.5,0,1,0,1,0.5","2","false",""
"","html-keyboard-response","307","213049","0.0-368.0","3OB0CAO74IBJMMJS4VMCNCIC1S4HY5","A1NVJB5O4H7ZCJ","3HUR21WDDUBEMSLDIXZW1FAIHWSYXN","","null","<img src=""img/food6.png"" style=""width:200px;border:14px solid red;"">","null","","","","","","","","","",""
"","image-keyboard-response","308","213409","0.0-370.0","3OB0CAO74IBJMMJS4VMCNCIC1S4HY5","A1NVJB5O4H7ZCJ","3HUR21WDDUBEMSLDIXZW1FAIHWSYXN","","355.60000014305115","img/food6.png","76","358.69999980926514","3","1","2","2","1,0.5,0,1,0.5,0,0.5,0,1","0.5,0,1,0.5,0,1,0,1,0.5","2","false",""
"","html-keyboard-response","309","213712","0.0-371.0","3OB0CAO74IBJMMJS4VMCNCIC1S4HY5","A1NVJB5O4H7ZCJ","3HUR21WDDUBEMSLDIXZW1FAIHWSYXN","","null","<img src=""img/food6.png"" style=""width:200px; border:14px solid green;"">","null","","","","","","","","","",""
"","image-keyboard-response","310","214425","0.0-373.0","3OB0CAO74IBJMMJS4VMCNCIC1S4HY5","A1NVJB5O4H7ZCJ","3HUR21WDDUBEMSLDIXZW1FAIHWSYXN","","709.4000000953674","img/food6.png","76","712","3","1","2","2","1,0.5,0,1,0.5,0,0.5,0,1","0.5,0,1,0.5,0,1,0,1,0.5","2","false",""
"","html-keyboard-response","311","214729","0.0-374.0","3OB0CAO74IBJMMJS4VMCNCIC1S4HY5","A1NVJB5O4H7ZCJ","3HUR21WDDUBEMSLDIXZW1FAIHWSYXN","","null","<img src=""img/food6.png"" style=""width:200px; border:14px solid green;"">","null","","","","","","","","","",""
"","image-keyboard-response","312","215129","0.0-376.0","3OB0CAO74IBJMMJS4VMCNCIC1S4HY5","A1NVJB5O4H7ZCJ","3HUR21WDDUBEMSLDIXZW1FAIHWSYXN","","396.40000009536743","img/food6.png","76","398.90000009536743","3","1","2","2","1,0.5,0,1,0.5,0,0.5,0,1","0.5,0,1,0.5,0,1,0,1,0.5","2","false",""
"","html-keyboard-response","313","215432","0.0-377.0","3OB0CAO74IBJMMJS4VMCNCIC1S4HY5","A1NVJB5O4H7ZCJ","3HUR21WDDUBEMSLDIXZW1FAIHWSYXN","","null","<img src=""img/food6.png"" style=""width:200px; border:14px solid green;"">","null","","","","","","","","","",""
"","image-keyboard-response","314","216033","0.0-379.0","3OB0CAO74IBJMMJS4VMCNCIC1S4HY5","A1NVJB5O4H7ZCJ","3HUR21WDDUBEMSLDIXZW1FAIHWSYXN","","598.0999999046326","img/food2.png","75","600.7000000476837","2","0","1","2","1,0.5,0,1,0.5,0,0.5,0,1","0.5,0,1,0.5,0,1,0,1,0.5","2","false",""
"","html-keyboard-response","315","216337","0.0-380.0","3OB0CAO74IBJMMJS4VMCNCIC1S4HY5","A1NVJB5O4H7ZCJ","3HUR21WDDUBEMSLDIXZW1FAIHWSYXN","","null","<img src=""img/food2.png"" style=""width:200px;border:14px solid red;"">","null","","","","","","","","","",""
"","image-keyboard-response","316","216848","0.0-382.0","3OB0CAO74IBJMMJS4VMCNCIC1S4HY5","A1NVJB5O4H7ZCJ","3HUR21WDDUBEMSLDIXZW1FAIHWSYXN","","508.39999985694885","img/food3.png","74","510.7999999523163","1","0","3","2","1,0.5,0,1,0.5,0,0.5,0,1","0.5,0,1,0.5,0,1,0,1,0.5","2","false",""
"","html-keyboard-response","317","217152","0.0-383.0","3OB0CAO74IBJMMJS4VMCNCIC1S4HY5","A1NVJB5O4H7ZCJ","3HUR21WDDUBEMSLDIXZW1FAIHWSYXN","","null","<img src=""img/food3.png"" style=""width:200px;border:14px solid red;"">","null","","","","","","","","","",""
"","image-keyboard-response","318","217601","0.0-385.0","3OB0CAO74IBJMMJS4VMCNCIC1S4HY5","A1NVJB5O4H7ZCJ","3HUR21WDDUBEMSLDIXZW1FAIHWSYXN","","445.59999990463257","img/food6.png","76","448.2999999523163","3","1","2","2","1,0.5,0,1,0.5,0,0.5,0,1","0.5,0,1,0.5,0,1,0,1,0.5","2","false",""
"","html-keyboard-response","319","217905","0.0-386.0","3OB0CAO74IBJMMJS4VMCNCIC1S4HY5","A1NVJB5O4H7ZCJ","3HUR21WDDUBEMSLDIXZW1FAIHWSYXN","","null","<img src=""img/food6.png"" style=""width:200px; border:14px solid green;"">","null","","","","","","","","","",""
"","image-keyboard-response","320","218281","0.0-388.0","3OB0CAO74IBJMMJS4VMCNCIC1S4HY5","A1NVJB5O4H7ZCJ","3HUR21WDDUBEMSLDIXZW1FAIHWSYXN","","372.5","img/food2.png","75","375.09999990463257","2","0","1","2","1,0.5,0,1,0.5,0,0.5,0,1","0.5,0,1,0.5,0,1,0,1,0.5","2","false",""
"","html-keyboard-response","321","218585","0.0-389.0","3OB0CAO74IBJMMJS4VMCNCIC1S4HY5","A1NVJB5O4H7ZCJ","3HUR21WDDUBEMSLDIXZW1FAIHWSYXN","","null","<img src=""img/food2.png"" style=""width:200px;border:14px solid red;"">","null","","","","","","","","","",""
"","image-keyboard-response","322","219113","0.0-391.0","3OB0CAO74IBJMMJS4VMCNCIC1S4HY5","A1NVJB5O4H7ZCJ","3HUR21WDDUBEMSLDIXZW1FAIHWSYXN","","524.8999998569489","img/food3.png","76","527.4000000953674","3","0","3","2","1,0.5,0,1,0.5,0,0.5,0,1","0.5,0,1,0.5,0,1,0,1,0.5","2","false",""
"","html-keyboard-response","323","219417","0.0-392.0","3OB0CAO74IBJMMJS4VMCNCIC1S4HY5","A1NVJB5O4H7ZCJ","3HUR21WDDUBEMSLDIXZW1FAIHWSYXN","","null","<img src=""img/food3.png"" style=""width:200px;border:14px solid red;"">","null","","","","","","","","","",""
"","image-keyboard-response","324","219785","0.0-394.0","3OB0CAO74IBJMMJS4VMCNCIC1S4HY5","A1NVJB5O4H7ZCJ","3HUR21WDDUBEMSLDIXZW1FAIHWSYXN","","364.5","img/food6.png","75","367.2999999523163","2","0","2","2","1,0.5,0,1,0.5,0,0.5,0,1","0.5,0,1,0.5,0,1,0,1,0.5","2","false",""
"","html-keyboard-response","325","220088","0.0-395.0","3OB0CAO74IBJMMJS4VMCNCIC1S4HY5","A1NVJB5O4H7ZCJ","3HUR21WDDUBEMSLDIXZW1FAIHWSYXN","","null","<img src=""img/food6.png"" style=""width:200px;border:14px solid red;"">","null","","","","","","","","","",""
"","image-keyboard-response","326","220855","0.0-397.0","3OB0CAO74IBJMMJS4VMCNCIC1S4HY5","A1NVJB5O4H7ZCJ","3HUR21WDDUBEMSLDIXZW1FAIHWSYXN","","763.7000000476837","img/food3.png","76","766","3","1","3","2","1,0.5,0,1,0.5,0,0.5,0,1","0.5,0,1,0.5,0,1,0,1,0.5","2","false",""
"","html-keyboard-response","327","221157","0.0-398.0","3OB0CAO74IBJMMJS4VMCNCIC1S4HY5","A1NVJB5O4H7ZCJ","3HUR21WDDUBEMSLDIXZW1FAIHWSYXN","","null","<img src=""img/food3.png"" style=""width:200px; border:14px solid green;"">","null","","","","","","","","","",""
"","image-keyboard-response","328","221904","0.0-400.0","3OB0CAO74IBJMMJS4VMCNCIC1S4HY5","A1NVJB5O4H7ZCJ","3HUR21WDDUBEMSLDIXZW1FAIHWSYXN","","743.7000000476837","img/food3.png","75","746.3999998569489","2","1","3","2","1,0.5,0,1,0.5,0,0.5,0,1","0.5,0,1,0.5,0,1,0,1,0.5","2","false",""
"","html-keyboard-response","329","222210","0.0-401.0","3OB0CAO74IBJMMJS4VMCNCIC1S4HY5","A1NVJB5O4H7ZCJ","3HUR21WDDUBEMSLDIXZW1FAIHWSYXN","","null","<img src=""img/food3.png"" style=""width:200px; border:14px solid green;"">","null","","","","","","","","","",""
"","image-keyboard-response","330","222648","0.0-403.0","3OB0CAO74IBJMMJS4VMCNCIC1S4HY5","A1NVJB5O4H7ZCJ","3HUR21WDDUBEMSLDIXZW1FAIHWSYXN","","435.2999999523163","img/food3.png","75","437.59999990463257","2","1","3","2","1,0.5,0,1,0.5,0,0.5,0,1","0.5,0,1,0.5,0,1,0,1,0.5","2","false",""
"","html-keyboard-response","331","222951","0.0-404.0","3OB0CAO74IBJMMJS4VMCNCIC1S4HY5","A1NVJB5O4H7ZCJ","3HUR21WDDUBEMSLDIXZW1FAIHWSYXN","","null","<img src=""img/food3.png"" style=""width:200px; border:14px solid green;"">","null","","","","","","","","","",""
"","image-keyboard-response","332","223768","0.0-406.0","3OB0CAO74IBJMMJS4VMCNCIC1S4HY5","A1NVJB5O4H7ZCJ","3HUR21WDDUBEMSLDIXZW1FAIHWSYXN","","813.7999999523163","img/food6.png","74","816.5999999046326","1","0","2","2","1,0.5,0,1,0.5,0,0.5,0,1","0.5,0,1,0.5,0,1,0,1,0.5","2","false",""
"","html-keyboard-response","333","224073","0.0-407.0","3OB0CAO74IBJMMJS4VMCNCIC1S4HY5","A1NVJB5O4H7ZCJ","3HUR21WDDUBEMSLDIXZW1FAIHWSYXN","","null","<img src=""img/food6.png"" style=""width:200px;border:14px solid red;"">","null","","","","","","","","","",""
"","image-keyboard-response","334","224464","0.0-409.0","3OB0CAO74IBJMMJS4VMCNCIC1S4HY5","A1NVJB5O4H7ZCJ","3HUR21WDDUBEMSLDIXZW1FAIHWSYXN","","388.09999990463257","img/food3.png","75","390.7999999523163","2","1","3","2","1,0.5,0,1,0.5,0,0.5,0,1","0.5,0,1,0.5,0,1,0,1,0.5","2","false",""
"","html-keyboard-response","335","224768","0.0-410.0","3OB0CAO74IBJMMJS4VMCNCIC1S4HY5","A1NVJB5O4H7ZCJ","3HUR21WDDUBEMSLDIXZW1FAIHWSYXN","","null","<img src=""img/food3.png"" style=""width:200px; border:14px solid green;"">","null","","","","","","","","","",""
"","image-keyboard-response","336","225513","0.0-412.0","3OB0CAO74IBJMMJS4VMCNCIC1S4HY5","A1NVJB5O4H7ZCJ","3HUR21WDDUBEMSLDIXZW1FAIHWSYXN","","741.5999999046326","img/food2.png","76","744.2999999523163","3","1","1","2","1,0.5,0,1,0.5,0,0.5,0,1","0.5,0,1,0.5,0,1,0,1,0.5","2","false",""
"","html-keyboard-response","337","225816","0.0-413.0","3OB0CAO74IBJMMJS4VMCNCIC1S4HY5","A1NVJB5O4H7ZCJ","3HUR21WDDUBEMSLDIXZW1FAIHWSYXN","","null","<img src=""img/food2.png"" style=""width:200px; border:14px solid green;"">","null","","","","","","","","","",""
"","image-keyboard-response","338","226409","0.0-415.0","3OB0CAO74IBJMMJS4VMCNCIC1S4HY5","A1NVJB5O4H7ZCJ","3HUR21WDDUBEMSLDIXZW1FAIHWSYXN","","589.2999999523163","img/food6.png","76","591.8999998569489","3","1","2","2","1,0.5,0,1,0.5,0,0.5,0,1","0.5,0,1,0.5,0,1,0,1,0.5","2","false",""
"","html-keyboard-response","339","226712","0.0-416.0","3OB0CAO74IBJMMJS4VMCNCIC1S4HY5","A1NVJB5O4H7ZCJ","3HUR21WDDUBEMSLDIXZW1FAIHWSYXN","","null","<img src=""img/food6.png"" style=""width:200px; border:14px solid green;"">","null","","","","","","","","","",""
"","image-keyboard-response","340","227442","0.0-418.0","3OB0CAO74IBJMMJS4VMCNCIC1S4HY5","A1NVJB5O4H7ZCJ","3HUR21WDDUBEMSLDIXZW1FAIHWSYXN","","726.7000000476837","img/food2.png","76","729.4000000953674","3","1","1","2","1,0.5,0,1,0.5,0,0.5,0,1","0.5,0,1,0.5,0,1,0,1,0.5","2","false",""
"","html-keyboard-response","341","227747","0.0-419.0","3OB0CAO74IBJMMJS4VMCNCIC1S4HY5","A1NVJB5O4H7ZCJ","3HUR21WDDUBEMSLDIXZW1FAIHWSYXN","","null","<img src=""img/food2.png"" style=""width:200px; border:14px solid green;"">","null","","","","","","","","","",""
"","image-keyboard-response","342","228513","0.0-421.0","3OB0CAO74IBJMMJS4VMCNCIC1S4HY5","A1NVJB5O4H7ZCJ","3HUR21WDDUBEMSLDIXZW1FAIHWSYXN","","762.2000000476837","img/food3.png","76","764.7999999523163","3","1","3","2","1,0.5,0,1,0.5,0,0.5,0,1","0.5,0,1,0.5,0,1,0,1,0.5","2","false",""
"","html-keyboard-response","343","228816","0.0-422.0","3OB0CAO74IBJMMJS4VMCNCIC1S4HY5","A1NVJB5O4H7ZCJ","3HUR21WDDUBEMSLDIXZW1FAIHWSYXN","","null","<img src=""img/food3.png"" style=""width:200px; border:14px solid green;"">","null","","","","","","","","","",""
"","image-keyboard-response","344","229665","0.0-424.0","3OB0CAO74IBJMMJS4VMCNCIC1S4HY5","A1NVJB5O4H7ZCJ","3HUR21WDDUBEMSLDIXZW1FAIHWSYXN","","845.0999999046326","img/food6.png","76","847.6000001430511","3","1","2","2","1,0.5,0,1,0.5,0,0.5,0,1","0.5,0,1,0.5,0,1,0,1,0.5","2","false",""
"","html-keyboard-response","345","229968","0.0-425.0","3OB0CAO74IBJMMJS4VMCNCIC1S4HY5","A1NVJB5O4H7ZCJ","3HUR21WDDUBEMSLDIXZW1FAIHWSYXN","","null","<img src=""img/food6.png"" style=""width:200px; border:14px solid green;"">","null","","","","","","","","","",""
"","image-keyboard-response","346","230641","0.0-427.0","3OB0CAO74IBJMMJS4VMCNCIC1S4HY5","A1NVJB5O4H7ZCJ","3HUR21WDDUBEMSLDIXZW1FAIHWSYXN","","669.5","img/food2.png","76","671.9000000953674","3","1","1","2","1,0.5,0,1,0.5,0,0.5,0,1","0.5,0,1,0.5,0,1,0,1,0.5","2","false",""
"","html-keyboard-response","347","230954","0.0-428.0","3OB0CAO74IBJMMJS4VMCNCIC1S4HY5","A1NVJB5O4H7ZCJ","3HUR21WDDUBEMSLDIXZW1FAIHWSYXN","","null","<img src=""img/food2.png"" style=""width:200px; border:14px solid green;"">","null","","","","","","","","","",""
"","image-keyboard-response","348","231481","0.0-430.0","3OB0CAO74IBJMMJS4VMCNCIC1S4HY5","A1NVJB5O4H7ZCJ","3HUR21WDDUBEMSLDIXZW1FAIHWSYXN","","522.7999999523163","img/food2.png","76","525.5","3","1","1","2","1,0.5,0,1,0.5,0,0.5,0,1","0.5,0,1,0.5,0,1,0,1,0.5","2","false",""
"","html-keyboard-response","349","231785","0.0-431.0","3OB0CAO74IBJMMJS4VMCNCIC1S4HY5","A1NVJB5O4H7ZCJ","3HUR21WDDUBEMSLDIXZW1FAIHWSYXN","","null","<img src=""img/food2.png"" style=""width:200px; border:14px solid green;"">","null","","","","","","","","","",""
"","image-keyboard-response","350","232457","0.0-433.0","3OB0CAO74IBJMMJS4VMCNCIC1S4HY5","A1NVJB5O4H7ZCJ","3HUR21WDDUBEMSLDIXZW1FAIHWSYXN","","668.5999999046326","img/food3.png","76","671.6000001430511","3","1","3","2","1,0.5,0,1,0.5,0,0.5,0,1","0.5,0,1,0.5,0,1,0,1,0.5","2","false",""
"","html-keyboard-response","351","232761","0.0-434.0","3OB0CAO74IBJMMJS4VMCNCIC1S4HY5","A1NVJB5O4H7ZCJ","3HUR21WDDUBEMSLDIXZW1FAIHWSYXN","","null","<img src=""img/food3.png"" style=""width:200px; border:14px solid green;"">","null","","","","","","","","","",""
"","image-keyboard-response","352","233285","0.0-436.0","3OB0CAO74IBJMMJS4VMCNCIC1S4HY5","A1NVJB5O4H7ZCJ","3HUR21WDDUBEMSLDIXZW1FAIHWSYXN","","520.4000000953674","img/food2.png","76","523.0999999046326","3","1","1","2","1,0.5,0,1,0.5,0,0.5,0,1","0.5,0,1,0.5,0,1,0,1,0.5","2","false",""
"","html-keyboard-response","353","233588","0.0-437.0","3OB0CAO74IBJMMJS4VMCNCIC1S4HY5","A1NVJB5O4H7ZCJ","3HUR21WDDUBEMSLDIXZW1FAIHWSYXN","","null","<img src=""img/food2.png"" style=""width:200px; border:14px solid green;"">","null","","","","","","","","","",""
"","image-keyboard-response","354","234185","0.0-439.0","3OB0CAO74IBJMMJS4VMCNCIC1S4HY5","A1NVJB5O4H7ZCJ","3HUR21WDDUBEMSLDIXZW1FAIHWSYXN","","594","img/food3.png","76","596","3","1","3","2","1,0.5,0,1,0.5,0,0.5,0,1","0.5,0,1,0.5,0,1,0,1,0.5","2","false",""
"","html-keyboard-response","355","234488","0.0-440.0","3OB0CAO74IBJMMJS4VMCNCIC1S4HY5","A1NVJB5O4H7ZCJ","3HUR21WDDUBEMSLDIXZW1FAIHWSYXN","","null","<img src=""img/food3.png"" style=""width:200px; border:14px solid green;"">","null","","","","","","","","","",""
"","image-keyboard-response","356","234937","0.0-442.0","3OB0CAO74IBJMMJS4VMCNCIC1S4HY5","A1NVJB5O4H7ZCJ","3HUR21WDDUBEMSLDIXZW1FAIHWSYXN","","447.60000014305115","img/food3.png","76","448.40000009536743","3","1","3","2","1,0.5,0,1,0.5,0,0.5,0,1","0.5,0,1,0.5,0,1,0,1,0.5","2","false",""
"","html-keyboard-response","357","235240","0.0-443.0","3OB0CAO74IBJMMJS4VMCNCIC1S4HY5","A1NVJB5O4H7ZCJ","3HUR21WDDUBEMSLDIXZW1FAIHWSYXN","","null","<img src=""img/food3.png"" style=""width:200px; border:14px solid green;"">","null","","","","","","","","","",""
"","image-keyboard-response","358","235897","0.0-445.0","3OB0CAO74IBJMMJS4VMCNCIC1S4HY5","A1NVJB5O4H7ZCJ","3HUR21WDDUBEMSLDIXZW1FAIHWSYXN","","655.8000001907349","img/food2.png","76","656.9000000953674","3","1","1","2","1,0.5,0,1,0.5,0,0.5,0,1","0.5,0,1,0.5,0,1,0,1,0.5","2","false",""
"","html-keyboard-response","359","236201","0.0-446.0","3OB0CAO74IBJMMJS4VMCNCIC1S4HY5","A1NVJB5O4H7ZCJ","3HUR21WDDUBEMSLDIXZW1FAIHWSYXN","","null","<img src=""img/food2.png"" style=""width:200px; border:14px solid green;"">","null","","","","","","","","","",""
"","image-keyboard-response","360","236676","0.0-448.0","3OB0CAO74IBJMMJS4VMCNCIC1S4HY5","A1NVJB5O4H7ZCJ","3HUR21WDDUBEMSLDIXZW1FAIHWSYXN","","472.2000000476837","img/food2.png","76","474.7000000476837","3","1","1","2","1,0.5,0,1,0.5,0,0.5,0,1","0.5,0,1,0.5,0,1,0,1,0.5","2","false",""
"","html-keyboard-response","361","236980","0.0-449.0","3OB0CAO74IBJMMJS4VMCNCIC1S4HY5","A1NVJB5O4H7ZCJ","3HUR21WDDUBEMSLDIXZW1FAIHWSYXN","","null","<img src=""img/food2.png"" style=""width:200px; border:14px solid green;"">","null","","","","","","","","","",""
"","image-keyboard-response","362","237372","0.0-451.0","3OB0CAO74IBJMMJS4VMCNCIC1S4HY5","A1NVJB5O4H7ZCJ","3HUR21WDDUBEMSLDIXZW1FAIHWSYXN","","389.09999990463257","img/food2.png","76","391.69999980926514","3","1","1","2","1,0.5,0,1,0.5,0,0.5,0,1","0.5,0,1,0.5,0,1,0,1,0.5","2","false",""
"","html-keyboard-response","363","237678","0.0-452.0","3OB0CAO74IBJMMJS4VMCNCIC1S4HY5","A1NVJB5O4H7ZCJ","3HUR21WDDUBEMSLDIXZW1FAIHWSYXN","","null","<img src=""img/food2.png"" style=""width:200px; border:14px solid green;"">","null","","","","","","","","","",""
"","instructions","364","240965","0.0-454.0","3OB0CAO74IBJMMJS4VMCNCIC1S4HY5","A1NVJB5O4H7ZCJ","3HUR21WDDUBEMSLDIXZW1FAIHWSYXN","[{""page_index"":0,""viewing_time"":3282.9000000953674}]","3283.9000000953674","","","","","","","","","","","",""
"","survey-text","365","245962","0.0-455.0","3OB0CAO74IBJMMJS4VMCNCIC1S4HY5","A1NVJB5O4H7ZCJ","3HUR21WDDUBEMSLDIXZW1FAIHWSYXN","","4982","","","","","","","","","","","","{""Q0"":""A1NVJB5O4H7ZCJ""}"
