"success","trial_type","trial_index","time_elapsed","internal_node_id","assignmentID","mturkID","hitID","view_history","rt","stimulus","key_press","reactionTime","a","r","s","cond","reward_cond","reward_cond_actual","reward_matrix_idx","warning","responses"
"true","fullscreen","0","2503","0.0-0.0","39U1BHVTDMD8BSDZF4ABB1PN3BW3T3","A1P6OXEJ86HQRM","3PIOQ99R7Y8STPN46QFY0SD7JTFNU0","","","","","","","","","","","","","",""
"","instructions","1","21057","0.0-1.0","39U1BHVTDMD8BSDZF4ABB1PN3BW3T3","A1P6OXEJ86HQRM","3PIOQ99R7Y8STPN46QFY0SD7JTFNU0","[{""page_index"":0,""viewing_time"":3281.9000000059605},{""page_index"":1,""viewing_time"":914.8999999985099},{""page_index"":2,""viewing_time"":2265.5},{""page_index"":1,""viewing_time"":923},{""page_index"":2,""viewing_time"":442},{""page_index"":3,""viewing_time"":3577.89999999851},{""page_index"":4,""viewing_time"":1193},{""page_index"":5,""viewing_time"":1678.1000000014901},{""page_index"":6,""viewing_time"":4275.79999999702}]","18552.5","","","","","","","","","","","",""
"","image-keyboard-response","2","22287","0.0-2.0","39U1BHVTDMD8BSDZF4ABB1PN3BW3T3","A1P6OXEJ86HQRM","3PIOQ99R7Y8STPN46QFY0SD7JTFNU0","","1228.5","img/food6.png","74","1229.6000000014901","1","1","1","1","1,0.5,0,1,0.5,0,0.5,0,1","1,0.5,0,1,0.5,0,0.5,0,1","1","",""
"","html-keyboard-response","3","22595","0.0-3.0","39U1BHVTDMD8BSDZF4ABB1PN3BW3T3","A1P6OXEJ86HQRM","3PIOQ99R7Y8STPN46QFY0SD7JTFNU0","","null","<img src=""img/food6.png"" style=""width:200px; border:14px solid green;"">","null","","","","","","","","","",""
"","image-keyboard-response","4","23194","0.0-4.0","39U1BHVTDMD8BSDZF4ABB1PN3BW3T3","A1P6OXEJ86HQRM","3PIOQ99R7Y8STPN46QFY0SD7JTFNU0","","598","img/food6.png","74","598.6999999955297","1","1","1","1","1,0.5,0,1,0.5,0,0.5,0,1","1,0.5,0,1,0.5,0,0.5,0,1","1","",""
"","html-keyboard-response","5","23498","0.0-5.0","39U1BHVTDMD8BSDZF4ABB1PN3BW3T3","A1P6OXEJ86HQRM","3PIOQ99R7Y8STPN46QFY0SD7JTFNU0","","null","<img src=""img/food6.png"" style=""width:200px; border:14px solid green;"">","null","","","","","","","","","",""
"","image-keyboard-response","6","24042","0.0-6.0","39U1BHVTDMD8BSDZF4ABB1PN3BW3T3","A1P6OXEJ86HQRM","3PIOQ99R7Y8STPN46QFY0SD7JTFNU0","","543.5","img/food5.png","75","544.2999999970198","2","0","2","1","1,0.5,0,1,0.5,0,0.5,0,1","1,0.5,0,1,0.5,0,0.5,0,1","1","",""
"","html-keyboard-response","7","24353","0.0-7.0","39U1BHVTDMD8BSDZF4ABB1PN3BW3T3","A1P6OXEJ86HQRM","3PIOQ99R7Y8STPN46QFY0SD7JTFNU0","","null","<img src=""img/food5.png"" style=""width:200px;border:14px solid red;"">","null","","","","","","","","","",""
"","image-keyboard-response","8","24936","0.0-8.0","39U1BHVTDMD8BSDZF4ABB1PN3BW3T3","A1P6OXEJ86HQRM","3PIOQ99R7Y8STPN46QFY0SD7JTFNU0","","581.8000000044703","img/food6.png","74","582.3999999985099","1","1","1","1","1,0.5,0,1,0.5,0,0.5,0,1","1,0.5,0,1,0.5,0,0.5,0,1","1","",""
"","html-keyboard-response","9","25244","0.0-9.0","39U1BHVTDMD8BSDZF4ABB1PN3BW3T3","A1P6OXEJ86HQRM","3PIOQ99R7Y8STPN46QFY0SD7JTFNU0","","null","<img src=""img/food6.png"" style=""width:200px; border:14px solid green;"">","null","","","","","","","","","",""
"","image-keyboard-response","10","25748","0.0-10.0","39U1BHVTDMD8BSDZF4ABB1PN3BW3T3","A1P6OXEJ86HQRM","3PIOQ99R7Y8STPN46QFY0SD7JTFNU0","","503.09999999403954","img/food5.png","74","503.79999999701977","1","1","2","1","1,0.5,0,1,0.5,0,0.5,0,1","1,0.5,0,1,0.5,0,0.5,0,1","1","",""
"","html-keyboard-response","11","26054","0.0-11.0","39U1BHVTDMD8BSDZF4ABB1PN3BW3T3","A1P6OXEJ86HQRM","3PIOQ99R7Y8STPN46QFY0SD7JTFNU0","","null","<img src=""img/food5.png"" style=""width:200px; border:14px solid green;"">","null","","","","","","","","","",""
"","image-keyboard-response","12","26563","0.0-12.0","39U1BHVTDMD8BSDZF4ABB1PN3BW3T3","A1P6OXEJ86HQRM","3PIOQ99R7Y8STPN46QFY0SD7JTFNU0","","508.1000000014901","img/food6.png","74","509","1","1","1","1","1,0.5,0,1,0.5,0,0.5,0,1","1,0.5,0,1,0.5,0,0.5,0,1","1","",""
"","html-keyboard-response","13","26877","0.0-13.0","39U1BHVTDMD8BSDZF4ABB1PN3BW3T3","A1P6OXEJ86HQRM","3PIOQ99R7Y8STPN46QFY0SD7JTFNU0","","null","<img src=""img/food6.png"" style=""width:200px; border:14px solid green;"">","null","","","","","","","","","",""
"","image-keyboard-response","14","27695","0.0-14.0","39U1BHVTDMD8BSDZF4ABB1PN3BW3T3","A1P6OXEJ86HQRM","3PIOQ99R7Y8STPN46QFY0SD7JTFNU0","","816.6000000014901","img/food5.png","74","817.6999999955297","1","1","2","1","1,0.5,0,1,0.5,0,0.5,0,1","1,0.5,0,1,0.5,0,0.5,0,1","1","",""
"","html-keyboard-response","15","27999","0.0-15.0","39U1BHVTDMD8BSDZF4ABB1PN3BW3T3","A1P6OXEJ86HQRM","3PIOQ99R7Y8STPN46QFY0SD7JTFNU0","","null","<img src=""img/food5.png"" style=""width:200px; border:14px solid green;"">","null","","","","","","","","","",""
"","image-keyboard-response","16","28535","0.0-16.0","39U1BHVTDMD8BSDZF4ABB1PN3BW3T3","A1P6OXEJ86HQRM","3PIOQ99R7Y8STPN46QFY0SD7JTFNU0","","534.5999999940395","img/food6.png","74","535.6000000014901","1","1","1","1","1,0.5,0,1,0.5,0,0.5,0,1","1,0.5,0,1,0.5,0,0.5,0,1","1","",""
"","html-keyboard-response","17","28838","0.0-17.0","39U1BHVTDMD8BSDZF4ABB1PN3BW3T3","A1P6OXEJ86HQRM","3PIOQ99R7Y8STPN46QFY0SD7JTFNU0","","null","<img src=""img/food6.png"" style=""width:200px; border:14px solid green;"">","null","","","","","","","","","",""
"","image-keyboard-response","18","29532","0.0-18.0","39U1BHVTDMD8BSDZF4ABB1PN3BW3T3","A1P6OXEJ86HQRM","3PIOQ99R7Y8STPN46QFY0SD7JTFNU0","","692.9000000059605","img/food4.png","76","693.7999999970198","3","1","3","1","1,0.5,0,1,0.5,0,0.5,0,1","1,0.5,0,1,0.5,0,0.5,0,1","1","",""
"","html-keyboard-response","19","29834","0.0-19.0","39U1BHVTDMD8BSDZF4ABB1PN3BW3T3","A1P6OXEJ86HQRM","3PIOQ99R7Y8STPN46QFY0SD7JTFNU0","","null","<img src=""img/food4.png"" style=""width:200px; border:14px solid green;"">","null","","","","","","","","","",""
"","image-keyboard-response","20","30757","0.0-20.0","39U1BHVTDMD8BSDZF4ABB1PN3BW3T3","A1P6OXEJ86HQRM","3PIOQ99R7Y8STPN46QFY0SD7JTFNU0","","922.3999999985099","img/food6.png","74","923.1999999955297","1","1","1","1","1,0.5,0,1,0.5,0,0.5,0,1","1,0.5,0,1,0.5,0,0.5,0,1","1","",""
"","html-keyboard-response","21","31062","0.0-21.0","39U1BHVTDMD8BSDZF4ABB1PN3BW3T3","A1P6OXEJ86HQRM","3PIOQ99R7Y8STPN46QFY0SD7JTFNU0","","null","<img src=""img/food6.png"" style=""width:200px; border:14px solid green;"">","null","","","","","","","","","",""
"","image-keyboard-response","22","31591","0.0-22.0","39U1BHVTDMD8BSDZF4ABB1PN3BW3T3","A1P6OXEJ86HQRM","3PIOQ99R7Y8STPN46QFY0SD7JTFNU0","","527.6999999955297","img/food6.png","74","528.5","1","1","1","1","1,0.5,0,1,0.5,0,0.5,0,1","1,0.5,0,1,0.5,0,0.5,0,1","1","",""
"","html-keyboard-response","23","31892","0.0-23.0","39U1BHVTDMD8BSDZF4ABB1PN3BW3T3","A1P6OXEJ86HQRM","3PIOQ99R7Y8STPN46QFY0SD7JTFNU0","","null","<img src=""img/food6.png"" style=""width:200px; border:14px solid green;"">","null","","","","","","","","","",""
"","image-keyboard-response","24","32496","0.0-24.0","39U1BHVTDMD8BSDZF4ABB1PN3BW3T3","A1P6OXEJ86HQRM","3PIOQ99R7Y8STPN46QFY0SD7JTFNU0","","602.7999999970198","img/food5.png","74","603.3999999985099","1","1","2","1","1,0.5,0,1,0.5,0,0.5,0,1","1,0.5,0,1,0.5,0,0.5,0,1","1","",""
"","html-keyboard-response","25","32797","0.0-25.0","39U1BHVTDMD8BSDZF4ABB1PN3BW3T3","A1P6OXEJ86HQRM","3PIOQ99R7Y8STPN46QFY0SD7JTFNU0","","null","<img src=""img/food5.png"" style=""width:200px; border:14px solid green;"">","null","","","","","","","","","",""
"","image-keyboard-response","26","33393","0.0-26.0","39U1BHVTDMD8BSDZF4ABB1PN3BW3T3","A1P6OXEJ86HQRM","3PIOQ99R7Y8STPN46QFY0SD7JTFNU0","","595.7000000029802","img/food4.png","76","596.3000000044703","3","1","3","1","1,0.5,0,1,0.5,0,0.5,0,1","1,0.5,0,1,0.5,0,0.5,0,1","1","",""
"","html-keyboard-response","27","33695","0.0-27.0","39U1BHVTDMD8BSDZF4ABB1PN3BW3T3","A1P6OXEJ86HQRM","3PIOQ99R7Y8STPN46QFY0SD7JTFNU0","","null","<img src=""img/food4.png"" style=""width:200px; border:14px solid green;"">","null","","","","","","","","","",""
"","image-keyboard-response","28","34415","0.0-28.0","39U1BHVTDMD8BSDZF4ABB1PN3BW3T3","A1P6OXEJ86HQRM","3PIOQ99R7Y8STPN46QFY0SD7JTFNU0","","719.1999999955297","img/food6.png","74","719.6999999955297","1","1","1","1","1,0.5,0,1,0.5,0,0.5,0,1","1,0.5,0,1,0.5,0,0.5,0,1","1","",""
"","html-keyboard-response","29","34716","0.0-29.0","39U1BHVTDMD8BSDZF4ABB1PN3BW3T3","A1P6OXEJ86HQRM","3PIOQ99R7Y8STPN46QFY0SD7JTFNU0","","null","<img src=""img/food6.png"" style=""width:200px; border:14px solid green;"">","null","","","","","","","","","",""
"","image-keyboard-response","30","35211","0.0-30.0","39U1BHVTDMD8BSDZF4ABB1PN3BW3T3","A1P6OXEJ86HQRM","3PIOQ99R7Y8STPN46QFY0SD7JTFNU0","","494.3999999985099","img/food5.png","74","495","1","1","2","1","1,0.5,0,1,0.5,0,0.5,0,1","1,0.5,0,1,0.5,0,0.5,0,1","1","",""
"","html-keyboard-response","31","35512","0.0-31.0","39U1BHVTDMD8BSDZF4ABB1PN3BW3T3","A1P6OXEJ86HQRM","3PIOQ99R7Y8STPN46QFY0SD7JTFNU0","","null","<img src=""img/food5.png"" style=""width:200px; border:14px solid green;"">","null","","","","","","","","","",""
"","image-keyboard-response","32","36155","0.0-32.0","39U1BHVTDMD8BSDZF4ABB1PN3BW3T3","A1P6OXEJ86HQRM","3PIOQ99R7Y8STPN46QFY0SD7JTFNU0","","641.8999999985099","img/food4.png","76","642.7000000029802","3","1","3","1","1,0.5,0,1,0.5,0,0.5,0,1","1,0.5,0,1,0.5,0,0.5,0,1","1","",""
"","html-keyboard-response","33","36457","0.0-33.0","39U1BHVTDMD8BSDZF4ABB1PN3BW3T3","A1P6OXEJ86HQRM","3PIOQ99R7Y8STPN46QFY0SD7JTFNU0","","null","<img src=""img/food4.png"" style=""width:200px; border:14px solid green;"">","null","","","","","","","","","",""
"","image-keyboard-response","34","37032","0.0-34.0","39U1BHVTDMD8BSDZF4ABB1PN3BW3T3","A1P6OXEJ86HQRM","3PIOQ99R7Y8STPN46QFY0SD7JTFNU0","","574.7000000029802","img/food5.png","74","575.2999999970198","1","1","2","1","1,0.5,0,1,0.5,0,0.5,0,1","1,0.5,0,1,0.5,0,0.5,0,1","1","",""
"","html-keyboard-response","35","37338","0.0-35.0","39U1BHVTDMD8BSDZF4ABB1PN3BW3T3","A1P6OXEJ86HQRM","3PIOQ99R7Y8STPN46QFY0SD7JTFNU0","","null","<img src=""img/food5.png"" style=""width:200px; border:14px solid green;"">","null","","","","","","","","","",""
"","image-keyboard-response","36","37987","0.0-36.0","39U1BHVTDMD8BSDZF4ABB1PN3BW3T3","A1P6OXEJ86HQRM","3PIOQ99R7Y8STPN46QFY0SD7JTFNU0","","647.4000000059605","img/food4.png","76","648.5","3","1","3","1","1,0.5,0,1,0.5,0,0.5,0,1","1,0.5,0,1,0.5,0,0.5,0,1","1","",""
"","html-keyboard-response","37","38289","0.0-37.0","39U1BHVTDMD8BSDZF4ABB1PN3BW3T3","A1P6OXEJ86HQRM","3PIOQ99R7Y8STPN46QFY0SD7JTFNU0","","null","<img src=""img/food4.png"" style=""width:200px; border:14px solid green;"">","null","","","","","","","","","",""
"","image-keyboard-response","38","38746","0.0-38.0","39U1BHVTDMD8BSDZF4ABB1PN3BW3T3","A1P6OXEJ86HQRM","3PIOQ99R7Y8STPN46QFY0SD7JTFNU0","","456.30000000447035","img/food4.png","76","457.1000000014901","3","1","3","1","1,0.5,0,1,0.5,0,0.5,0,1","1,0.5,0,1,0.5,0,0.5,0,1","1","",""
"","html-keyboard-response","39","39049","0.0-39.0","39U1BHVTDMD8BSDZF4ABB1PN3BW3T3","A1P6OXEJ86HQRM","3PIOQ99R7Y8STPN46QFY0SD7JTFNU0","","null","<img src=""img/food4.png"" style=""width:200px; border:14px solid green;"">","null","","","","","","","","","",""
"","image-keyboard-response","40","39664","0.0-40.0","39U1BHVTDMD8BSDZF4ABB1PN3BW3T3","A1P6OXEJ86HQRM","3PIOQ99R7Y8STPN46QFY0SD7JTFNU0","","613.7000000029802","img/food6.png","74","614.6999999955297","1","1","1","1","1,0.5,0,1,0.5,0,0.5,0,1","1,0.5,0,1,0.5,0,0.5,0,1","1","",""
"","html-keyboard-response","41","39966","0.0-41.0","39U1BHVTDMD8BSDZF4ABB1PN3BW3T3","A1P6OXEJ86HQRM","3PIOQ99R7Y8STPN46QFY0SD7JTFNU0","","null","<img src=""img/food6.png"" style=""width:200px; border:14px solid green;"">","null","","","","","","","","","",""
"","image-keyboard-response","42","40459","0.0-42.0","39U1BHVTDMD8BSDZF4ABB1PN3BW3T3","A1P6OXEJ86HQRM","3PIOQ99R7Y8STPN46QFY0SD7JTFNU0","","491.90000000596046","img/food5.png","74","492.5","1","1","2","1","1,0.5,0,1,0.5,0,0.5,0,1","1,0.5,0,1,0.5,0,0.5,0,1","1","",""
"","html-keyboard-response","43","40761","0.0-43.0","39U1BHVTDMD8BSDZF4ABB1PN3BW3T3","A1P6OXEJ86HQRM","3PIOQ99R7Y8STPN46QFY0SD7JTFNU0","","null","<img src=""img/food5.png"" style=""width:200px; border:14px solid green;"">","null","","","","","","","","","",""
"","image-keyboard-response","44","41422","0.0-44.0","39U1BHVTDMD8BSDZF4ABB1PN3BW3T3","A1P6OXEJ86HQRM","3PIOQ99R7Y8STPN46QFY0SD7JTFNU0","","660.2000000029802","img/food4.png","76","660.6000000014901","3","1","3","1","1,0.5,0,1,0.5,0,0.5,0,1","1,0.5,0,1,0.5,0,0.5,0,1","1","",""
"","html-keyboard-response","45","41723","0.0-45.0","39U1BHVTDMD8BSDZF4ABB1PN3BW3T3","A1P6OXEJ86HQRM","3PIOQ99R7Y8STPN46QFY0SD7JTFNU0","","null","<img src=""img/food4.png"" style=""width:200px; border:14px solid green;"">","null","","","","","","","","","",""
"","image-keyboard-response","46","42262","0.0-46.0","39U1BHVTDMD8BSDZF4ABB1PN3BW3T3","A1P6OXEJ86HQRM","3PIOQ99R7Y8STPN46QFY0SD7JTFNU0","","537.5","img/food6.png","74","538.2999999970198","1","1","1","1","1,0.5,0,1,0.5,0,0.5,0,1","1,0.5,0,1,0.5,0,0.5,0,1","1","",""
"","html-keyboard-response","47","42563","0.0-47.0","39U1BHVTDMD8BSDZF4ABB1PN3BW3T3","A1P6OXEJ86HQRM","3PIOQ99R7Y8STPN46QFY0SD7JTFNU0","","null","<img src=""img/food6.png"" style=""width:200px; border:14px solid green;"">","null","","","","","","","","","",""
"","image-keyboard-response","48","43151","0.0-48.0","39U1BHVTDMD8BSDZF4ABB1PN3BW3T3","A1P6OXEJ86HQRM","3PIOQ99R7Y8STPN46QFY0SD7JTFNU0","","587.5","img/food5.png","74","588.3999999985099","1","1","2","1","1,0.5,0,1,0.5,0,0.5,0,1","1,0.5,0,1,0.5,0,0.5,0,1","1","",""
"","html-keyboard-response","49","43453","0.0-49.0","39U1BHVTDMD8BSDZF4ABB1PN3BW3T3","A1P6OXEJ86HQRM","3PIOQ99R7Y8STPN46QFY0SD7JTFNU0","","null","<img src=""img/food5.png"" style=""width:200px; border:14px solid green;"">","null","","","","","","","","","",""
"","image-keyboard-response","50","44174","0.0-50.0","39U1BHVTDMD8BSDZF4ABB1PN3BW3T3","A1P6OXEJ86HQRM","3PIOQ99R7Y8STPN46QFY0SD7JTFNU0","","719.7999999970198","img/food4.png","76","720.7000000029802","3","1","3","1","1,0.5,0,1,0.5,0,0.5,0,1","1,0.5,0,1,0.5,0,0.5,0,1","1","",""
"","html-keyboard-response","51","44475","0.0-51.0","39U1BHVTDMD8BSDZF4ABB1PN3BW3T3","A1P6OXEJ86HQRM","3PIOQ99R7Y8STPN46QFY0SD7JTFNU0","","null","<img src=""img/food4.png"" style=""width:200px; border:14px solid green;"">","null","","","","","","","","","",""
"","image-keyboard-response","52","45073","0.0-52.0","39U1BHVTDMD8BSDZF4ABB1PN3BW3T3","A1P6OXEJ86HQRM","3PIOQ99R7Y8STPN46QFY0SD7JTFNU0","","596.2999999970198","img/food6.png","74","596.8000000044703","1","1","1","1","1,0.5,0,1,0.5,0,0.5,0,1","1,0.5,0,1,0.5,0,0.5,0,1","1","",""
"","html-keyboard-response","53","45375","0.0-53.0","39U1BHVTDMD8BSDZF4ABB1PN3BW3T3","A1P6OXEJ86HQRM","3PIOQ99R7Y8STPN46QFY0SD7JTFNU0","","null","<img src=""img/food6.png"" style=""width:200px; border:14px solid green;"">","null","","","","","","","","","",""
"","image-keyboard-response","54","45841","0.0-54.0","39U1BHVTDMD8BSDZF4ABB1PN3BW3T3","A1P6OXEJ86HQRM","3PIOQ99R7Y8STPN46QFY0SD7JTFNU0","","465.6000000014901","img/food6.png","74","466.29999999701977","1","1","1","1","1,0.5,0,1,0.5,0,0.5,0,1","1,0.5,0,1,0.5,0,0.5,0,1","1","",""
"","html-keyboard-response","55","46153","0.0-55.0","39U1BHVTDMD8BSDZF4ABB1PN3BW3T3","A1P6OXEJ86HQRM","3PIOQ99R7Y8STPN46QFY0SD7JTFNU0","","null","<img src=""img/food6.png"" style=""width:200px; border:14px solid green;"">","null","","","","","","","","","",""
"","image-keyboard-response","56","46604","0.0-56.0","39U1BHVTDMD8BSDZF4ABB1PN3BW3T3","A1P6OXEJ86HQRM","3PIOQ99R7Y8STPN46QFY0SD7JTFNU0","","450.1000000014901","img/food5.png","74","450.69999999552965","1","1","2","1","1,0.5,0,1,0.5,0,0.5,0,1","1,0.5,0,1,0.5,0,0.5,0,1","1","",""
"","html-keyboard-response","57","46905","0.0-57.0","39U1BHVTDMD8BSDZF4ABB1PN3BW3T3","A1P6OXEJ86HQRM","3PIOQ99R7Y8STPN46QFY0SD7JTFNU0","","null","<img src=""img/food5.png"" style=""width:200px; border:14px solid green;"">","null","","","","","","","","","",""
"","image-keyboard-response","58","47514","0.0-58.0","39U1BHVTDMD8BSDZF4ABB1PN3BW3T3","A1P6OXEJ86HQRM","3PIOQ99R7Y8STPN46QFY0SD7JTFNU0","","608.1999999955297","img/food4.png","76","608.8999999985099","3","1","3","1","1,0.5,0,1,0.5,0,0.5,0,1","1,0.5,0,1,0.5,0,0.5,0,1","1","",""
"","html-keyboard-response","59","47815","0.0-59.0","39U1BHVTDMD8BSDZF4ABB1PN3BW3T3","A1P6OXEJ86HQRM","3PIOQ99R7Y8STPN46QFY0SD7JTFNU0","","null","<img src=""img/food4.png"" style=""width:200px; border:14px solid green;"">","null","","","","","","","","","",""
"","image-keyboard-response","60","48335","0.0-60.0","39U1BHVTDMD8BSDZF4ABB1PN3BW3T3","A1P6OXEJ86HQRM","3PIOQ99R7Y8STPN46QFY0SD7JTFNU0","","518.7999999970198","img/food4.png","76","519.6000000014901","3","1","3","1","1,0.5,0,1,0.5,0,0.5,0,1","1,0.5,0,1,0.5,0,0.5,0,1","1","",""
"","html-keyboard-response","61","48637","0.0-61.0","39U1BHVTDMD8BSDZF4ABB1PN3BW3T3","A1P6OXEJ86HQRM","3PIOQ99R7Y8STPN46QFY0SD7JTFNU0","","null","<img src=""img/food4.png"" style=""width:200px; border:14px solid green;"">","null","","","","","","","","","",""
"","image-keyboard-response","62","49392","0.0-62.0","39U1BHVTDMD8BSDZF4ABB1PN3BW3T3","A1P6OXEJ86HQRM","3PIOQ99R7Y8STPN46QFY0SD7JTFNU0","","754.5","img/food6.png","74","755.2000000029802","1","1","1","1","1,0.5,0,1,0.5,0,0.5,0,1","1,0.5,0,1,0.5,0,0.5,0,1","1","",""
"","html-keyboard-response","63","49701","0.0-63.0","39U1BHVTDMD8BSDZF4ABB1PN3BW3T3","A1P6OXEJ86HQRM","3PIOQ99R7Y8STPN46QFY0SD7JTFNU0","","null","<img src=""img/food6.png"" style=""width:200px; border:14px solid green;"">","null","","","","","","","","","",""
"","image-keyboard-response","64","50427","0.0-64.0","39U1BHVTDMD8BSDZF4ABB1PN3BW3T3","A1P6OXEJ86HQRM","3PIOQ99R7Y8STPN46QFY0SD7JTFNU0","","725.2999999970198","img/food4.png","76","725.8999999985099","3","1","3","1","1,0.5,0,1,0.5,0,0.5,0,1","1,0.5,0,1,0.5,0,0.5,0,1","1","",""
"","html-keyboard-response","65","50729","0.0-65.0","39U1BHVTDMD8BSDZF4ABB1PN3BW3T3","A1P6OXEJ86HQRM","3PIOQ99R7Y8STPN46QFY0SD7JTFNU0","","null","<img src=""img/food4.png"" style=""width:200px; border:14px solid green;"">","null","","","","","","","","","",""
"","image-keyboard-response","66","51190","0.0-66.0","39U1BHVTDMD8BSDZF4ABB1PN3BW3T3","A1P6OXEJ86HQRM","3PIOQ99R7Y8STPN46QFY0SD7JTFNU0","","460.3999999985099","img/food4.png","76","461.1000000014901","3","1","3","1","1,0.5,0,1,0.5,0,0.5,0,1","1,0.5,0,1,0.5,0,0.5,0,1","1","",""
"","html-keyboard-response","67","51491","0.0-67.0","39U1BHVTDMD8BSDZF4ABB1PN3BW3T3","A1P6OXEJ86HQRM","3PIOQ99R7Y8STPN46QFY0SD7JTFNU0","","null","<img src=""img/food4.png"" style=""width:200px; border:14px solid green;"">","null","","","","","","","","","",""
"","image-keyboard-response","68","52037","0.0-68.0","39U1BHVTDMD8BSDZF4ABB1PN3BW3T3","A1P6OXEJ86HQRM","3PIOQ99R7Y8STPN46QFY0SD7JTFNU0","","544","img/food5.png","74","545.2000000029802","1","1","2","1","1,0.5,0,1,0.5,0,0.5,0,1","1,0.5,0,1,0.5,0,0.5,0,1","1","",""
"","html-keyboard-response","69","52351","0.0-69.0","39U1BHVTDMD8BSDZF4ABB1PN3BW3T3","A1P6OXEJ86HQRM","3PIOQ99R7Y8STPN46QFY0SD7JTFNU0","","null","<img src=""img/food5.png"" style=""width:200px; border:14px solid green;"">","null","","","","","","","","","",""
"","image-keyboard-response","70","52820","0.0-70.0","39U1BHVTDMD8BSDZF4ABB1PN3BW3T3","A1P6OXEJ86HQRM","3PIOQ99R7Y8STPN46QFY0SD7JTFNU0","","468.1000000014901","img/food4.png","74","468.79999999701977","1","1","3","1","1,0.5,0,1,0.5,0,0.5,0,1","1,0.5,0,1,0.5,0,0.5,0,1","1","",""
"","html-keyboard-response","71","53121","0.0-71.0","39U1BHVTDMD8BSDZF4ABB1PN3BW3T3","A1P6OXEJ86HQRM","3PIOQ99R7Y8STPN46QFY0SD7JTFNU0","","null","<img src=""img/food4.png"" style=""width:200px; border:14px solid green;"">","null","","","","","","","","","",""
"","image-keyboard-response","72","54268","0.0-72.0","39U1BHVTDMD8BSDZF4ABB1PN3BW3T3","A1P6OXEJ86HQRM","3PIOQ99R7Y8STPN46QFY0SD7JTFNU0","","1145.5","img/food6.png","74","1146.2999999970198","1","1","1","1","1,0.5,0,1,0.5,0,0.5,0,1","1,0.5,0,1,0.5,0,0.5,0,1","1","",""
"","html-keyboard-response","73","54569","0.0-73.0","39U1BHVTDMD8BSDZF4ABB1PN3BW3T3","A1P6OXEJ86HQRM","3PIOQ99R7Y8STPN46QFY0SD7JTFNU0","","null","<img src=""img/food6.png"" style=""width:200px; border:14px solid green;"">","null","","","","","","","","","",""
"","image-keyboard-response","74","54977","0.0-74.0","39U1BHVTDMD8BSDZF4ABB1PN3BW3T3","A1P6OXEJ86HQRM","3PIOQ99R7Y8STPN46QFY0SD7JTFNU0","","406.70000000298023","img/food4.png","74","407.79999999701977","1","0","3","1","1,0.5,0,1,0.5,0,0.5,0,1","1,0.5,0,1,0.5,0,0.5,0,1","1","",""
"","html-keyboard-response","75","55278","0.0-75.0","39U1BHVTDMD8BSDZF4ABB1PN3BW3T3","A1P6OXEJ86HQRM","3PIOQ99R7Y8STPN46QFY0SD7JTFNU0","","null","<img src=""img/food4.png"" style=""width:200px;border:14px solid red;"">","null","","","","","","","","","",""
"","image-keyboard-response","76","55869","0.0-76.0","39U1BHVTDMD8BSDZF4ABB1PN3BW3T3","A1P6OXEJ86HQRM","3PIOQ99R7Y8STPN46QFY0SD7JTFNU0","","589.7000000029802","img/food6.png","74","590.6000000014901","1","1","1","1","1,0.5,0,1,0.5,0,0.5,0,1","1,0.5,0,1,0.5,0,0.5,0,1","1","",""
"","html-keyboard-response","77","56171","0.0-77.0","39U1BHVTDMD8BSDZF4ABB1PN3BW3T3","A1P6OXEJ86HQRM","3PIOQ99R7Y8STPN46QFY0SD7JTFNU0","","null","<img src=""img/food6.png"" style=""width:200px; border:14px solid green;"">","null","","","","","","","","","",""
"","image-keyboard-response","78","56667","0.0-78.0","39U1BHVTDMD8BSDZF4ABB1PN3BW3T3","A1P6OXEJ86HQRM","3PIOQ99R7Y8STPN46QFY0SD7JTFNU0","","495.6000000014901","img/food5.png","74","496.3999999985099","1","1","2","1","1,0.5,0,1,0.5,0,0.5,0,1","1,0.5,0,1,0.5,0,0.5,0,1","1","",""
"","html-keyboard-response","79","56968","0.0-79.0","39U1BHVTDMD8BSDZF4ABB1PN3BW3T3","A1P6OXEJ86HQRM","3PIOQ99R7Y8STPN46QFY0SD7JTFNU0","","null","<img src=""img/food5.png"" style=""width:200px; border:14px solid green;"">","null","","","","","","","","","",""
"","image-keyboard-response","80","57466","0.0-80.0","39U1BHVTDMD8BSDZF4ABB1PN3BW3T3","A1P6OXEJ86HQRM","3PIOQ99R7Y8STPN46QFY0SD7JTFNU0","","496.79999999701977","img/food5.png","74","497.3999999985099","1","1","2","1","1,0.5,0,1,0.5,0,0.5,0,1","1,0.5,0,1,0.5,0,0.5,0,1","1","",""
"","html-keyboard-response","81","57768","0.0-81.0","39U1BHVTDMD8BSDZF4ABB1PN3BW3T3","A1P6OXEJ86HQRM","3PIOQ99R7Y8STPN46QFY0SD7JTFNU0","","null","<img src=""img/food5.png"" style=""width:200px; border:14px solid green;"">","null","","","","","","","","","",""
"","image-keyboard-response","82","58237","0.0-82.0","39U1BHVTDMD8BSDZF4ABB1PN3BW3T3","A1P6OXEJ86HQRM","3PIOQ99R7Y8STPN46QFY0SD7JTFNU0","","468.6000000014901","img/food5.png","74","469.29999999701977","1","1","2","1","1,0.5,0,1,0.5,0,0.5,0,1","1,0.5,0,1,0.5,0,0.5,0,1","1","",""
"","html-keyboard-response","83","58539","0.0-83.0","39U1BHVTDMD8BSDZF4ABB1PN3BW3T3","A1P6OXEJ86HQRM","3PIOQ99R7Y8STPN46QFY0SD7JTFNU0","","null","<img src=""img/food5.png"" style=""width:200px; border:14px solid green;"">","null","","","","","","","","","",""
"","image-keyboard-response","84","59015","0.0-84.0","39U1BHVTDMD8BSDZF4ABB1PN3BW3T3","A1P6OXEJ86HQRM","3PIOQ99R7Y8STPN46QFY0SD7JTFNU0","","475","img/food4.png","76","475.69999999552965","3","1","3","1","1,0.5,0,1,0.5,0,0.5,0,1","1,0.5,0,1,0.5,0,0.5,0,1","1","",""
"","html-keyboard-response","85","59317","0.0-85.0","39U1BHVTDMD8BSDZF4ABB1PN3BW3T3","A1P6OXEJ86HQRM","3PIOQ99R7Y8STPN46QFY0SD7JTFNU0","","null","<img src=""img/food4.png"" style=""width:200px; border:14px solid green;"">","null","","","","","","","","","",""
"","image-keyboard-response","86","59790","0.0-86.0","39U1BHVTDMD8BSDZF4ABB1PN3BW3T3","A1P6OXEJ86HQRM","3PIOQ99R7Y8STPN46QFY0SD7JTFNU0","","472.30000000447035","img/food5.png","74","473.09999999403954","1","1","2","1","1,0.5,0,1,0.5,0,0.5,0,1","1,0.5,0,1,0.5,0,0.5,0,1","1","",""
"","html-keyboard-response","87","60092","0.0-87.0","39U1BHVTDMD8BSDZF4ABB1PN3BW3T3","A1P6OXEJ86HQRM","3PIOQ99R7Y8STPN46QFY0SD7JTFNU0","","null","<img src=""img/food5.png"" style=""width:200px; border:14px solid green;"">","null","","","","","","","","","",""
"","image-keyboard-response","88","60554","0.0-88.0","39U1BHVTDMD8BSDZF4ABB1PN3BW3T3","A1P6OXEJ86HQRM","3PIOQ99R7Y8STPN46QFY0SD7JTFNU0","","461.30000000447035","img/food6.png","74","462.29999999701977","1","1","1","1","1,0.5,0,1,0.5,0,0.5,0,1","1,0.5,0,1,0.5,0,0.5,0,1","1","",""
"","html-keyboard-response","89","60856","0.0-89.0","39U1BHVTDMD8BSDZF4ABB1PN3BW3T3","A1P6OXEJ86HQRM","3PIOQ99R7Y8STPN46QFY0SD7JTFNU0","","null","<img src=""img/food6.png"" style=""width:200px; border:14px solid green;"">","null","","","","","","","","","",""
"","image-keyboard-response","90","61404","0.0-90.0","39U1BHVTDMD8BSDZF4ABB1PN3BW3T3","A1P6OXEJ86HQRM","3PIOQ99R7Y8STPN46QFY0SD7JTFNU0","","546.9000000059605","img/food4.png","76","547.6000000014901","3","1","3","1","1,0.5,0,1,0.5,0,0.5,0,1","1,0.5,0,1,0.5,0,0.5,0,1","1","",""
"","html-keyboard-response","91","61706","0.0-91.0","39U1BHVTDMD8BSDZF4ABB1PN3BW3T3","A1P6OXEJ86HQRM","3PIOQ99R7Y8STPN46QFY0SD7JTFNU0","","null","<img src=""img/food4.png"" style=""width:200px; border:14px solid green;"">","null","","","","","","","","","",""
"","image-keyboard-response","92","62175","0.0-92.0","39U1BHVTDMD8BSDZF4ABB1PN3BW3T3","A1P6OXEJ86HQRM","3PIOQ99R7Y8STPN46QFY0SD7JTFNU0","","468.29999999701977","img/food6.png","74","468.79999999701977","1","1","1","1","1,0.5,0,1,0.5,0,0.5,0,1","1,0.5,0,1,0.5,0,0.5,0,1","1","",""
"","html-keyboard-response","93","62477","0.0-93.0","39U1BHVTDMD8BSDZF4ABB1PN3BW3T3","A1P6OXEJ86HQRM","3PIOQ99R7Y8STPN46QFY0SD7JTFNU0","","null","<img src=""img/food6.png"" style=""width:200px; border:14px solid green;"">","null","","","","","","","","","",""
"","image-keyboard-response","94","63017","0.0-94.0","39U1BHVTDMD8BSDZF4ABB1PN3BW3T3","A1P6OXEJ86HQRM","3PIOQ99R7Y8STPN46QFY0SD7JTFNU0","","539.5","img/food6.png","74","540.1000000014901","1","1","1","1","1,0.5,0,1,0.5,0,0.5,0,1","1,0.5,0,1,0.5,0,0.5,0,1","1","",""
"","html-keyboard-response","95","63319","0.0-95.0","39U1BHVTDMD8BSDZF4ABB1PN3BW3T3","A1P6OXEJ86HQRM","3PIOQ99R7Y8STPN46QFY0SD7JTFNU0","","null","<img src=""img/food6.png"" style=""width:200px; border:14px solid green;"">","null","","","","","","","","","",""
"","image-keyboard-response","96","63872","0.0-96.0","39U1BHVTDMD8BSDZF4ABB1PN3BW3T3","A1P6OXEJ86HQRM","3PIOQ99R7Y8STPN46QFY0SD7JTFNU0","","552.5","img/food4.png","76","553.3000000044703","3","1","3","1","1,0.5,0,1,0.5,0,0.5,0,1","1,0.5,0,1,0.5,0,0.5,0,1","1","",""
"","html-keyboard-response","97","64174","0.0-97.0","39U1BHVTDMD8BSDZF4ABB1PN3BW3T3","A1P6OXEJ86HQRM","3PIOQ99R7Y8STPN46QFY0SD7JTFNU0","","null","<img src=""img/food4.png"" style=""width:200px; border:14px solid green;"">","null","","","","","","","","","",""
"","image-keyboard-response","98","64656","0.0-98.0","39U1BHVTDMD8BSDZF4ABB1PN3BW3T3","A1P6OXEJ86HQRM","3PIOQ99R7Y8STPN46QFY0SD7JTFNU0","","480.70000000298023","img/food6.png","74","481.30000000447035","1","1","1","1","1,0.5,0,1,0.5,0,0.5,0,1","1,0.5,0,1,0.5,0,0.5,0,1","1","",""
"","html-keyboard-response","99","64957","0.0-99.0","39U1BHVTDMD8BSDZF4ABB1PN3BW3T3","A1P6OXEJ86HQRM","3PIOQ99R7Y8STPN46QFY0SD7JTFNU0","","null","<img src=""img/food6.png"" style=""width:200px; border:14px solid green;"">","null","","","","","","","","","",""
"","image-keyboard-response","100","65526","0.0-100.0","39U1BHVTDMD8BSDZF4ABB1PN3BW3T3","A1P6OXEJ86HQRM","3PIOQ99R7Y8STPN46QFY0SD7JTFNU0","","567.7000000029802","img/food4.png","76","568.3999999985099","3","1","3","1","1,0.5,0,1,0.5,0,0.5,0,1","1,0.5,0,1,0.5,0,0.5,0,1","1","",""
"","html-keyboard-response","101","65828","0.0-101.0","39U1BHVTDMD8BSDZF4ABB1PN3BW3T3","A1P6OXEJ86HQRM","3PIOQ99R7Y8STPN46QFY0SD7JTFNU0","","null","<img src=""img/food4.png"" style=""width:200px; border:14px solid green;"">","null","","","","","","","","","",""
"","image-keyboard-response","102","66266","0.0-102.0","39U1BHVTDMD8BSDZF4ABB1PN3BW3T3","A1P6OXEJ86HQRM","3PIOQ99R7Y8STPN46QFY0SD7JTFNU0","","437.80000000447035","img/food5.png","74","438.5","1","1","2","1","1,0.5,0,1,0.5,0,0.5,0,1","1,0.5,0,1,0.5,0,0.5,0,1","1","",""
"","html-keyboard-response","103","66568","0.0-103.0","39U1BHVTDMD8BSDZF4ABB1PN3BW3T3","A1P6OXEJ86HQRM","3PIOQ99R7Y8STPN46QFY0SD7JTFNU0","","null","<img src=""img/food5.png"" style=""width:200px; border:14px solid green;"">","null","","","","","","","","","",""
"","image-keyboard-response","104","67059","0.0-104.0","39U1BHVTDMD8BSDZF4ABB1PN3BW3T3","A1P6OXEJ86HQRM","3PIOQ99R7Y8STPN46QFY0SD7JTFNU0","","490.5","img/food5.png","74","491.3999999985099","1","1","2","1","1,0.5,0,1,0.5,0,0.5,0,1","1,0.5,0,1,0.5,0,0.5,0,1","1","",""
"","html-keyboard-response","105","67361","0.0-105.0","39U1BHVTDMD8BSDZF4ABB1PN3BW3T3","A1P6OXEJ86HQRM","3PIOQ99R7Y8STPN46QFY0SD7JTFNU0","","null","<img src=""img/food5.png"" style=""width:200px; border:14px solid green;"">","null","","","","","","","","","",""
"","image-keyboard-response","106","67904","0.0-106.0","39U1BHVTDMD8BSDZF4ABB1PN3BW3T3","A1P6OXEJ86HQRM","3PIOQ99R7Y8STPN46QFY0SD7JTFNU0","","542.2999999970198","img/food4.png","76","542.8999999985099","3","1","3","1","1,0.5,0,1,0.5,0,0.5,0,1","1,0.5,0,1,0.5,0,0.5,0,1","1","",""
"","html-keyboard-response","107","68205","0.0-107.0","39U1BHVTDMD8BSDZF4ABB1PN3BW3T3","A1P6OXEJ86HQRM","3PIOQ99R7Y8STPN46QFY0SD7JTFNU0","","null","<img src=""img/food4.png"" style=""width:200px; border:14px solid green;"">","null","","","","","","","","","",""
"","image-keyboard-response","108","68678","0.0-108.0","39U1BHVTDMD8BSDZF4ABB1PN3BW3T3","A1P6OXEJ86HQRM","3PIOQ99R7Y8STPN46QFY0SD7JTFNU0","","471.3999999985099","img/food6.png","74","472.1000000014901","1","1","1","1","1,0.5,0,1,0.5,0,0.5,0,1","1,0.5,0,1,0.5,0,0.5,0,1","1","",""
"","html-keyboard-response","109","68980","0.0-109.0","39U1BHVTDMD8BSDZF4ABB1PN3BW3T3","A1P6OXEJ86HQRM","3PIOQ99R7Y8STPN46QFY0SD7JTFNU0","","null","<img src=""img/food6.png"" style=""width:200px; border:14px solid green;"">","null","","","","","","","","","",""
"","image-keyboard-response","110","69515","0.0-110.0","39U1BHVTDMD8BSDZF4ABB1PN3BW3T3","A1P6OXEJ86HQRM","3PIOQ99R7Y8STPN46QFY0SD7JTFNU0","","534.5","img/food5.png","74","535.0999999940395","1","1","2","1","1,0.5,0,1,0.5,0,0.5,0,1","1,0.5,0,1,0.5,0,0.5,0,1","1","",""
"","html-keyboard-response","111","69824","0.0-111.0","39U1BHVTDMD8BSDZF4ABB1PN3BW3T3","A1P6OXEJ86HQRM","3PIOQ99R7Y8STPN46QFY0SD7JTFNU0","","null","<img src=""img/food5.png"" style=""width:200px; border:14px solid green;"">","null","","","","","","","","","",""
"","image-keyboard-response","112","70415","0.0-112.0","39U1BHVTDMD8BSDZF4ABB1PN3BW3T3","A1P6OXEJ86HQRM","3PIOQ99R7Y8STPN46QFY0SD7JTFNU0","","589.6999999955297","img/food4.png","76","590.7000000029802","3","1","3","1","1,0.5,0,1,0.5,0,0.5,0,1","1,0.5,0,1,0.5,0,0.5,0,1","1","",""
"","html-keyboard-response","113","70717","0.0-113.0","39U1BHVTDMD8BSDZF4ABB1PN3BW3T3","A1P6OXEJ86HQRM","3PIOQ99R7Y8STPN46QFY0SD7JTFNU0","","null","<img src=""img/food4.png"" style=""width:200px; border:14px solid green;"">","null","","","","","","","","","",""
"","image-keyboard-response","114","71220","0.0-114.0","39U1BHVTDMD8BSDZF4ABB1PN3BW3T3","A1P6OXEJ86HQRM","3PIOQ99R7Y8STPN46QFY0SD7JTFNU0","","502.30000000447035","img/food6.png","74","503.19999999552965","1","1","1","1","1,0.5,0,1,0.5,0,0.5,0,1","1,0.5,0,1,0.5,0,0.5,0,1","1","",""
"","html-keyboard-response","115","71522","0.0-115.0","39U1BHVTDMD8BSDZF4ABB1PN3BW3T3","A1P6OXEJ86HQRM","3PIOQ99R7Y8STPN46QFY0SD7JTFNU0","","null","<img src=""img/food6.png"" style=""width:200px; border:14px solid green;"">","null","","","","","","","","","",""
"","image-keyboard-response","116","72028","0.0-116.0","39U1BHVTDMD8BSDZF4ABB1PN3BW3T3","A1P6OXEJ86HQRM","3PIOQ99R7Y8STPN46QFY0SD7JTFNU0","","505.40000000596046","img/food5.png","74","506.20000000298023","1","1","2","1","1,0.5,0,1,0.5,0,0.5,0,1","1,0.5,0,1,0.5,0,0.5,0,1","1","",""
"","html-keyboard-response","117","72330","0.0-117.0","39U1BHVTDMD8BSDZF4ABB1PN3BW3T3","A1P6OXEJ86HQRM","3PIOQ99R7Y8STPN46QFY0SD7JTFNU0","","null","<img src=""img/food5.png"" style=""width:200px; border:14px solid green;"">","null","","","","","","","","","",""
"","image-keyboard-response","118","72885","0.0-118.0","39U1BHVTDMD8BSDZF4ABB1PN3BW3T3","A1P6OXEJ86HQRM","3PIOQ99R7Y8STPN46QFY0SD7JTFNU0","","553.6000000014901","img/food4.png","76","554.2999999970198","3","1","3","1","1,0.5,0,1,0.5,0,0.5,0,1","1,0.5,0,1,0.5,0,0.5,0,1","1","",""
"","html-keyboard-response","119","73186","0.0-119.0","39U1BHVTDMD8BSDZF4ABB1PN3BW3T3","A1P6OXEJ86HQRM","3PIOQ99R7Y8STPN46QFY0SD7JTFNU0","","null","<img src=""img/food4.png"" style=""width:200px; border:14px solid green;"">","null","","","","","","","","","",""
"","image-keyboard-response","120","73676","0.0-120.0","39U1BHVTDMD8BSDZF4ABB1PN3BW3T3","A1P6OXEJ86HQRM","3PIOQ99R7Y8STPN46QFY0SD7JTFNU0","","489","img/food4.png","76","489.79999999701977","3","1","3","1","1,0.5,0,1,0.5,0,0.5,0,1","1,0.5,0,1,0.5,0,0.5,0,1","1","",""
"","html-keyboard-response","121","73978","0.0-121.0","39U1BHVTDMD8BSDZF4ABB1PN3BW3T3","A1P6OXEJ86HQRM","3PIOQ99R7Y8STPN46QFY0SD7JTFNU0","","null","<img src=""img/food4.png"" style=""width:200px; border:14px solid green;"">","null","","","","","","","","","",""
"","image-keyboard-response","122","74482","0.0-122.0","39U1BHVTDMD8BSDZF4ABB1PN3BW3T3","A1P6OXEJ86HQRM","3PIOQ99R7Y8STPN46QFY0SD7JTFNU0","","502.70000000298023","img/food5.png","74","503.5","1","1","2","1","1,0.5,0,1,0.5,0,0.5,0,1","1,0.5,0,1,0.5,0,0.5,0,1","1","",""
"","html-keyboard-response","123","74784","0.0-123.0","39U1BHVTDMD8BSDZF4ABB1PN3BW3T3","A1P6OXEJ86HQRM","3PIOQ99R7Y8STPN46QFY0SD7JTFNU0","","null","<img src=""img/food5.png"" style=""width:200px; border:14px solid green;"">","null","","","","","","","","","",""
"","image-keyboard-response","124","75306","0.0-124.0","39U1BHVTDMD8BSDZF4ABB1PN3BW3T3","A1P6OXEJ86HQRM","3PIOQ99R7Y8STPN46QFY0SD7JTFNU0","","521.2999999970198","img/food4.png","76","522.2999999970198","3","1","3","1","1,0.5,0,1,0.5,0,0.5,0,1","1,0.5,0,1,0.5,0,0.5,0,1","1","",""
"","html-keyboard-response","125","75609","0.0-125.0","39U1BHVTDMD8BSDZF4ABB1PN3BW3T3","A1P6OXEJ86HQRM","3PIOQ99R7Y8STPN46QFY0SD7JTFNU0","","null","<img src=""img/food4.png"" style=""width:200px; border:14px solid green;"">","null","","","","","","","","","",""
"","image-keyboard-response","126","76046","0.0-126.0","39U1BHVTDMD8BSDZF4ABB1PN3BW3T3","A1P6OXEJ86HQRM","3PIOQ99R7Y8STPN46QFY0SD7JTFNU0","","436.59999999403954","img/food6.png","74","437.1000000014901","1","1","1","1","1,0.5,0,1,0.5,0,0.5,0,1","1,0.5,0,1,0.5,0,0.5,0,1","1","",""
"","html-keyboard-response","127","76348","0.0-127.0","39U1BHVTDMD8BSDZF4ABB1PN3BW3T3","A1P6OXEJ86HQRM","3PIOQ99R7Y8STPN46QFY0SD7JTFNU0","","null","<img src=""img/food6.png"" style=""width:200px; border:14px solid green;"">","null","","","","","","","","","",""
"","image-keyboard-response","128","76874","0.0-128.0","39U1BHVTDMD8BSDZF4ABB1PN3BW3T3","A1P6OXEJ86HQRM","3PIOQ99R7Y8STPN46QFY0SD7JTFNU0","","525.2999999970198","img/food6.png","74","526.1999999955297","1","1","1","1","1,0.5,0,1,0.5,0,0.5,0,1","1,0.5,0,1,0.5,0,0.5,0,1","1","",""
"","html-keyboard-response","129","77176","0.0-129.0","39U1BHVTDMD8BSDZF4ABB1PN3BW3T3","A1P6OXEJ86HQRM","3PIOQ99R7Y8STPN46QFY0SD7JTFNU0","","null","<img src=""img/food6.png"" style=""width:200px; border:14px solid green;"">","null","","","","","","","","","",""
"","image-keyboard-response","130","77701","0.0-130.0","39U1BHVTDMD8BSDZF4ABB1PN3BW3T3","A1P6OXEJ86HQRM","3PIOQ99R7Y8STPN46QFY0SD7JTFNU0","","522.7999999970198","img/food4.png","76","523.2000000029802","3","1","3","1","1,0.5,0,1,0.5,0,0.5,0,1","1,0.5,0,1,0.5,0,0.5,0,1","1","",""
"","html-keyboard-response","131","78002","0.0-131.0","39U1BHVTDMD8BSDZF4ABB1PN3BW3T3","A1P6OXEJ86HQRM","3PIOQ99R7Y8STPN46QFY0SD7JTFNU0","","null","<img src=""img/food4.png"" style=""width:200px; border:14px solid green;"">","null","","","","","","","","","",""
"","image-keyboard-response","132","78435","0.0-132.0","39U1BHVTDMD8BSDZF4ABB1PN3BW3T3","A1P6OXEJ86HQRM","3PIOQ99R7Y8STPN46QFY0SD7JTFNU0","","432","img/food4.png","76","432.70000000298023","3","1","3","1","1,0.5,0,1,0.5,0,0.5,0,1","1,0.5,0,1,0.5,0,0.5,0,1","1","",""
"","html-keyboard-response","133","78736","0.0-133.0","39U1BHVTDMD8BSDZF4ABB1PN3BW3T3","A1P6OXEJ86HQRM","3PIOQ99R7Y8STPN46QFY0SD7JTFNU0","","null","<img src=""img/food4.png"" style=""width:200px; border:14px solid green;"">","null","","","","","","","","","",""
"","image-keyboard-response","134","79221","0.0-134.0","39U1BHVTDMD8BSDZF4ABB1PN3BW3T3","A1P6OXEJ86HQRM","3PIOQ99R7Y8STPN46QFY0SD7JTFNU0","","484.1000000014901","img/food5.png","74","484.79999999701977","1","1","2","1","1,0.5,0,1,0.5,0,0.5,0,1","1,0.5,0,1,0.5,0,0.5,0,1","1","",""
"","html-keyboard-response","135","79523","0.0-135.0","39U1BHVTDMD8BSDZF4ABB1PN3BW3T3","A1P6OXEJ86HQRM","3PIOQ99R7Y8STPN46QFY0SD7JTFNU0","","null","<img src=""img/food5.png"" style=""width:200px; border:14px solid green;"">","null","","","","","","","","","",""
"","image-keyboard-response","136","80008","0.0-136.0","39U1BHVTDMD8BSDZF4ABB1PN3BW3T3","A1P6OXEJ86HQRM","3PIOQ99R7Y8STPN46QFY0SD7JTFNU0","","484.20000000298023","img/food5.png","74","484.90000000596046","1","1","2","1","1,0.5,0,1,0.5,0,0.5,0,1","1,0.5,0,1,0.5,0,0.5,0,1","1","",""
"","html-keyboard-response","137","80324","0.0-137.0","39U1BHVTDMD8BSDZF4ABB1PN3BW3T3","A1P6OXEJ86HQRM","3PIOQ99R7Y8STPN46QFY0SD7JTFNU0","","null","<img src=""img/food5.png"" style=""width:200px; border:14px solid green;"">","null","","","","","","","","","",""
"","image-keyboard-response","138","80822","0.0-138.0","39U1BHVTDMD8BSDZF4ABB1PN3BW3T3","A1P6OXEJ86HQRM","3PIOQ99R7Y8STPN46QFY0SD7JTFNU0","","496.8999999985099","img/food6.png","74","497.5","1","1","1","1","1,0.5,0,1,0.5,0,0.5,0,1","1,0.5,0,1,0.5,0,0.5,0,1","1","",""
"","html-keyboard-response","139","81124","0.0-139.0","39U1BHVTDMD8BSDZF4ABB1PN3BW3T3","A1P6OXEJ86HQRM","3PIOQ99R7Y8STPN46QFY0SD7JTFNU0","","null","<img src=""img/food6.png"" style=""width:200px; border:14px solid green;"">","null","","","","","","","","","",""
"","image-keyboard-response","140","81646","0.0-140.0","39U1BHVTDMD8BSDZF4ABB1PN3BW3T3","A1P6OXEJ86HQRM","3PIOQ99R7Y8STPN46QFY0SD7JTFNU0","","521","img/food6.png","74","521.7999999970198","1","1","1","1","1,0.5,0,1,0.5,0,0.5,0,1","1,0.5,0,1,0.5,0,0.5,0,1","1","",""
"","html-keyboard-response","141","81947","0.0-141.0","39U1BHVTDMD8BSDZF4ABB1PN3BW3T3","A1P6OXEJ86HQRM","3PIOQ99R7Y8STPN46QFY0SD7JTFNU0","","null","<img src=""img/food6.png"" style=""width:200px; border:14px solid green;"">","null","","","","","","","","","",""
"","image-keyboard-response","142","82346","0.0-142.0","39U1BHVTDMD8BSDZF4ABB1PN3BW3T3","A1P6OXEJ86HQRM","3PIOQ99R7Y8STPN46QFY0SD7JTFNU0","","398.5","img/food6.png","74","399.19999999552965","1","1","1","1","1,0.5,0,1,0.5,0,0.5,0,1","1,0.5,0,1,0.5,0,0.5,0,1","1","",""
"","html-keyboard-response","143","82648","0.0-143.0","39U1BHVTDMD8BSDZF4ABB1PN3BW3T3","A1P6OXEJ86HQRM","3PIOQ99R7Y8STPN46QFY0SD7JTFNU0","","null","<img src=""img/food6.png"" style=""width:200px; border:14px solid green;"">","null","","","","","","","","","",""
"","image-keyboard-response","144","83162","0.0-144.0","39U1BHVTDMD8BSDZF4ABB1PN3BW3T3","A1P6OXEJ86HQRM","3PIOQ99R7Y8STPN46QFY0SD7JTFNU0","","513.3000000044703","img/food5.png","74","514.1999999955297","1","1","2","1","1,0.5,0,1,0.5,0,0.5,0,1","1,0.5,0,1,0.5,0,0.5,0,1","1","",""
"","html-keyboard-response","145","83464","0.0-145.0","39U1BHVTDMD8BSDZF4ABB1PN3BW3T3","A1P6OXEJ86HQRM","3PIOQ99R7Y8STPN46QFY0SD7JTFNU0","","null","<img src=""img/food5.png"" style=""width:200px; border:14px solid green;"">","null","","","","","","","","","",""
"","image-keyboard-response","146","83926","0.0-146.0","39U1BHVTDMD8BSDZF4ABB1PN3BW3T3","A1P6OXEJ86HQRM","3PIOQ99R7Y8STPN46QFY0SD7JTFNU0","","460.8999999985099","img/food5.png","74","461.6000000014901","1","1","2","1","1,0.5,0,1,0.5,0,0.5,0,1","1,0.5,0,1,0.5,0,0.5,0,1","1","",""
"","html-keyboard-response","147","84228","0.0-147.0","39U1BHVTDMD8BSDZF4ABB1PN3BW3T3","A1P6OXEJ86HQRM","3PIOQ99R7Y8STPN46QFY0SD7JTFNU0","","null","<img src=""img/food5.png"" style=""width:200px; border:14px solid green;"">","null","","","","","","","","","",""
"","image-keyboard-response","148","84730","0.0-148.0","39U1BHVTDMD8BSDZF4ABB1PN3BW3T3","A1P6OXEJ86HQRM","3PIOQ99R7Y8STPN46QFY0SD7JTFNU0","","501.1000000014901","img/food6.png","74","502","1","1","1","1","1,0.5,0,1,0.5,0,0.5,0,1","1,0.5,0,1,0.5,0,0.5,0,1","1","",""
"","html-keyboard-response","149","85032","0.0-149.0","39U1BHVTDMD8BSDZF4ABB1PN3BW3T3","A1P6OXEJ86HQRM","3PIOQ99R7Y8STPN46QFY0SD7JTFNU0","","null","<img src=""img/food6.png"" style=""width:200px; border:14px solid green;"">","null","","","","","","","","","",""
"","image-keyboard-response","150","85613","0.0-150.0","39U1BHVTDMD8BSDZF4ABB1PN3BW3T3","A1P6OXEJ86HQRM","3PIOQ99R7Y8STPN46QFY0SD7JTFNU0","","580.2000000029802","img/food4.png","76","581.3000000044703","3","1","3","1","1,0.5,0,1,0.5,0,0.5,0,1","1,0.5,0,1,0.5,0,0.5,0,1","1","",""
"","html-keyboard-response","151","85916","0.0-151.0","39U1BHVTDMD8BSDZF4ABB1PN3BW3T3","A1P6OXEJ86HQRM","3PIOQ99R7Y8STPN46QFY0SD7JTFNU0","","null","<img src=""img/food4.png"" style=""width:200px; border:14px solid green;"">","null","","","","","","","","","",""
"","image-keyboard-response","152","86397","0.0-152.0","39U1BHVTDMD8BSDZF4ABB1PN3BW3T3","A1P6OXEJ86HQRM","3PIOQ99R7Y8STPN46QFY0SD7JTFNU0","","480.6000000014901","img/food5.png","74","481.30000000447035","1","1","2","1","1,0.5,0,1,0.5,0,0.5,0,1","1,0.5,0,1,0.5,0,0.5,0,1","1","",""
"","html-keyboard-response","153","86700","0.0-153.0","39U1BHVTDMD8BSDZF4ABB1PN3BW3T3","A1P6OXEJ86HQRM","3PIOQ99R7Y8STPN46QFY0SD7JTFNU0","","null","<img src=""img/food5.png"" style=""width:200px; border:14px solid green;"">","null","","","","","","","","","",""
"","image-keyboard-response","154","87255","0.0-154.0","39U1BHVTDMD8BSDZF4ABB1PN3BW3T3","A1P6OXEJ86HQRM","3PIOQ99R7Y8STPN46QFY0SD7JTFNU0","","554.2000000029802","img/food5.png","74","554.8000000044703","1","1","2","1","1,0.5,0,1,0.5,0,0.5,0,1","1,0.5,0,1,0.5,0,0.5,0,1","1","",""
"","html-keyboard-response","155","87567","0.0-155.0","39U1BHVTDMD8BSDZF4ABB1PN3BW3T3","A1P6OXEJ86HQRM","3PIOQ99R7Y8STPN46QFY0SD7JTFNU0","","null","<img src=""img/food5.png"" style=""width:200px; border:14px solid green;"">","null","","","","","","","","","",""
"","image-keyboard-response","156","88079","0.0-156.0","39U1BHVTDMD8BSDZF4ABB1PN3BW3T3","A1P6OXEJ86HQRM","3PIOQ99R7Y8STPN46QFY0SD7JTFNU0","","511.29999999701977","img/food6.png","74","512","1","1","1","1","1,0.5,0,1,0.5,0,0.5,0,1","1,0.5,0,1,0.5,0,0.5,0,1","1","",""
"","html-keyboard-response","157","88393","0.0-157.0","39U1BHVTDMD8BSDZF4ABB1PN3BW3T3","A1P6OXEJ86HQRM","3PIOQ99R7Y8STPN46QFY0SD7JTFNU0","","null","<img src=""img/food6.png"" style=""width:200px; border:14px solid green;"">","null","","","","","","","","","",""
"","image-keyboard-response","158","88886","0.0-158.0","39U1BHVTDMD8BSDZF4ABB1PN3BW3T3","A1P6OXEJ86HQRM","3PIOQ99R7Y8STPN46QFY0SD7JTFNU0","","491.29999999701977","img/food4.png","76","492.29999999701977","3","1","3","1","1,0.5,0,1,0.5,0,0.5,0,1","1,0.5,0,1,0.5,0,0.5,0,1","1","",""
"","html-keyboard-response","159","89188","0.0-159.0","39U1BHVTDMD8BSDZF4ABB1PN3BW3T3","A1P6OXEJ86HQRM","3PIOQ99R7Y8STPN46QFY0SD7JTFNU0","","null","<img src=""img/food4.png"" style=""width:200px; border:14px solid green;"">","null","","","","","","","","","",""
"","image-keyboard-response","160","89702","0.0-160.0","39U1BHVTDMD8BSDZF4ABB1PN3BW3T3","A1P6OXEJ86HQRM","3PIOQ99R7Y8STPN46QFY0SD7JTFNU0","","512.6000000014901","img/food5.png","74","513.2999999970198","1","1","2","1","1,0.5,0,1,0.5,0,0.5,0,1","1,0.5,0,1,0.5,0,0.5,0,1","1","",""
"","html-keyboard-response","161","90004","0.0-161.0","39U1BHVTDMD8BSDZF4ABB1PN3BW3T3","A1P6OXEJ86HQRM","3PIOQ99R7Y8STPN46QFY0SD7JTFNU0","","null","<img src=""img/food5.png"" style=""width:200px; border:14px solid green;"">","null","","","","","","","","","",""
"","image-keyboard-response","162","90521","0.0-162.0","39U1BHVTDMD8BSDZF4ABB1PN3BW3T3","A1P6OXEJ86HQRM","3PIOQ99R7Y8STPN46QFY0SD7JTFNU0","","515.8999999985099","img/food5.png","74","516.5","1","1","2","1","1,0.5,0,1,0.5,0,0.5,0,1","1,0.5,0,1,0.5,0,0.5,0,1","1","",""
"","html-keyboard-response","163","90823","0.0-163.0","39U1BHVTDMD8BSDZF4ABB1PN3BW3T3","A1P6OXEJ86HQRM","3PIOQ99R7Y8STPN46QFY0SD7JTFNU0","","null","<img src=""img/food5.png"" style=""width:200px; border:14px solid green;"">","null","","","","","","","","","",""
"","image-keyboard-response","164","91370","0.0-164.0","39U1BHVTDMD8BSDZF4ABB1PN3BW3T3","A1P6OXEJ86HQRM","3PIOQ99R7Y8STPN46QFY0SD7JTFNU0","","546.6000000014901","img/food4.png","76","547.3999999985099","3","1","3","1","1,0.5,0,1,0.5,0,0.5,0,1","1,0.5,0,1,0.5,0,0.5,0,1","1","",""
"","html-keyboard-response","165","91671","0.0-165.0","39U1BHVTDMD8BSDZF4ABB1PN3BW3T3","A1P6OXEJ86HQRM","3PIOQ99R7Y8STPN46QFY0SD7JTFNU0","","null","<img src=""img/food4.png"" style=""width:200px; border:14px solid green;"">","null","","","","","","","","","",""
"","image-keyboard-response","166","92162","0.0-166.0","39U1BHVTDMD8BSDZF4ABB1PN3BW3T3","A1P6OXEJ86HQRM","3PIOQ99R7Y8STPN46QFY0SD7JTFNU0","","489.3999999985099","img/food5.png","74","490.5","1","1","2","1","1,0.5,0,1,0.5,0,0.5,0,1","1,0.5,0,1,0.5,0,0.5,0,1","1","",""
"","html-keyboard-response","167","92464","0.0-167.0","39U1BHVTDMD8BSDZF4ABB1PN3BW3T3","A1P6OXEJ86HQRM","3PIOQ99R7Y8STPN46QFY0SD7JTFNU0","","null","<img src=""img/food5.png"" style=""width:200px; border:14px solid green;"">","null","","","","","","","","","",""
"","image-keyboard-response","168","92998","0.0-168.0","39U1BHVTDMD8BSDZF4ABB1PN3BW3T3","A1P6OXEJ86HQRM","3PIOQ99R7Y8STPN46QFY0SD7JTFNU0","","532.6000000014901","img/food5.png","74","533.2000000029802","1","1","2","1","1,0.5,0,1,0.5,0,0.5,0,1","1,0.5,0,1,0.5,0,0.5,0,1","1","",""
"","html-keyboard-response","169","93300","0.0-169.0","39U1BHVTDMD8BSDZF4ABB1PN3BW3T3","A1P6OXEJ86HQRM","3PIOQ99R7Y8STPN46QFY0SD7JTFNU0","","null","<img src=""img/food5.png"" style=""width:200px; border:14px solid green;"">","null","","","","","","","","","",""
"","image-keyboard-response","170","93859","0.0-170.0","39U1BHVTDMD8BSDZF4ABB1PN3BW3T3","A1P6OXEJ86HQRM","3PIOQ99R7Y8STPN46QFY0SD7JTFNU0","","558.1000000014901","img/food4.png","76","558.7000000029802","3","1","3","1","1,0.5,0,1,0.5,0,0.5,0,1","1,0.5,0,1,0.5,0,0.5,0,1","1","",""
"","html-keyboard-response","171","94160","0.0-171.0","39U1BHVTDMD8BSDZF4ABB1PN3BW3T3","A1P6OXEJ86HQRM","3PIOQ99R7Y8STPN46QFY0SD7JTFNU0","","null","<img src=""img/food4.png"" style=""width:200px; border:14px solid green;"">","null","","","","","","","","","",""
"","image-keyboard-response","172","94644","0.0-172.0","39U1BHVTDMD8BSDZF4ABB1PN3BW3T3","A1P6OXEJ86HQRM","3PIOQ99R7Y8STPN46QFY0SD7JTFNU0","","482.70000000298023","img/food6.png","74","483.5","1","1","1","1","1,0.5,0,1,0.5,0,0.5,0,1","1,0.5,0,1,0.5,0,0.5,0,1","1","",""
"","html-keyboard-response","173","94946","0.0-173.0","39U1BHVTDMD8BSDZF4ABB1PN3BW3T3","A1P6OXEJ86HQRM","3PIOQ99R7Y8STPN46QFY0SD7JTFNU0","","null","<img src=""img/food6.png"" style=""width:200px; border:14px solid green;"">","null","","","","","","","","","",""
"","image-keyboard-response","174","95426","0.0-174.0","39U1BHVTDMD8BSDZF4ABB1PN3BW3T3","A1P6OXEJ86HQRM","3PIOQ99R7Y8STPN46QFY0SD7JTFNU0","","478.6000000014901","img/food5.png","74","479.29999999701977","1","1","2","1","1,0.5,0,1,0.5,0,0.5,0,1","1,0.5,0,1,0.5,0,0.5,0,1","1","",""
"","html-keyboard-response","175","95728","0.0-175.0","39U1BHVTDMD8BSDZF4ABB1PN3BW3T3","A1P6OXEJ86HQRM","3PIOQ99R7Y8STPN46QFY0SD7JTFNU0","","null","<img src=""img/food5.png"" style=""width:200px; border:14px solid green;"">","null","","","","","","","","","",""
"","image-keyboard-response","176","96264","0.0-176.0","39U1BHVTDMD8BSDZF4ABB1PN3BW3T3","A1P6OXEJ86HQRM","3PIOQ99R7Y8STPN46QFY0SD7JTFNU0","","534.5","img/food4.png","76","535.7000000029802","3","1","3","1","1,0.5,0,1,0.5,0,0.5,0,1","1,0.5,0,1,0.5,0,0.5,0,1","1","",""
"","html-keyboard-response","177","96566","0.0-177.0","39U1BHVTDMD8BSDZF4ABB1PN3BW3T3","A1P6OXEJ86HQRM","3PIOQ99R7Y8STPN46QFY0SD7JTFNU0","","null","<img src=""img/food4.png"" style=""width:200px; border:14px solid green;"">","null","","","","","","","","","",""
"","image-keyboard-response","178","97036","0.0-178.0","39U1BHVTDMD8BSDZF4ABB1PN3BW3T3","A1P6OXEJ86HQRM","3PIOQ99R7Y8STPN46QFY0SD7JTFNU0","","468.69999999552965","img/food6.png","74","469.29999999701977","1","1","1","1","1,0.5,0,1,0.5,0,0.5,0,1","1,0.5,0,1,0.5,0,0.5,0,1","1","",""
"","html-keyboard-response","179","97338","0.0-179.0","39U1BHVTDMD8BSDZF4ABB1PN3BW3T3","A1P6OXEJ86HQRM","3PIOQ99R7Y8STPN46QFY0SD7JTFNU0","","null","<img src=""img/food6.png"" style=""width:200px; border:14px solid green;"">","null","","","","","","","","","",""
"","image-keyboard-response","180","97955","0.0-180.0","39U1BHVTDMD8BSDZF4ABB1PN3BW3T3","A1P6OXEJ86HQRM","3PIOQ99R7Y8STPN46QFY0SD7JTFNU0","","616.3999999985099","img/food4.png","76","617.1000000014901","3","1","3","1","1,0.5,0,1,0.5,0,0.5,0,1","1,0.5,0,1,0.5,0,0.5,0,1","1","",""
"","html-keyboard-response","181","98256","0.0-181.0","39U1BHVTDMD8BSDZF4ABB1PN3BW3T3","A1P6OXEJ86HQRM","3PIOQ99R7Y8STPN46QFY0SD7JTFNU0","","null","<img src=""img/food4.png"" style=""width:200px; border:14px solid green;"">","null","","","","","","","","","",""
"","html-keyboard-response","182","102592","0.0-182.0","39U1BHVTDMD8BSDZF4ABB1PN3BW3T3","A1P6OXEJ86HQRM","3PIOQ99R7Y8STPN46QFY0SD7JTFNU0","","","","","","","","","","","","","",""
"","instructions","183","117963","0.0-183.0","39U1BHVTDMD8BSDZF4ABB1PN3BW3T3","A1P6OXEJ86HQRM","3PIOQ99R7Y8STPN46QFY0SD7JTFNU0","[{""page_index"":0,""viewing_time"":13295.40000000596},{""page_index"":1,""viewing_time"":2074.89999999851}]","15370.5","","","","","","","","","","","",""
"","image-keyboard-response","184","118771","0.0-184.0","39U1BHVTDMD8BSDZF4ABB1PN3BW3T3","A1P6OXEJ86HQRM","3PIOQ99R7Y8STPN46QFY0SD7JTFNU0","","807.7000000029802","img/food1.png","74","808.6000000014901","1","0","1","2","1,0.5,0,1,0.5,0,0.5,0,1","0,1,0.5,0,1,0.5,1,0.5,0","3","false",""
"","html-keyboard-response","185","119073","0.0-185.0","39U1BHVTDMD8BSDZF4ABB1PN3BW3T3","A1P6OXEJ86HQRM","3PIOQ99R7Y8STPN46QFY0SD7JTFNU0","","null","<img src=""img/food1.png"" style=""width:200px;border:14px solid red;"">","null","","","","","","","","","",""
"","image-keyboard-response","186","119621","0.0-187.0","39U1BHVTDMD8BSDZF4ABB1PN3BW3T3","A1P6OXEJ86HQRM","3PIOQ99R7Y8STPN46QFY0SD7JTFNU0","","546.4000000059605","img/food2.png","74","547","1","0","2","2","1,0.5,0,1,0.5,0,0.5,0,1","0,1,0.5,0,1,0.5,1,0.5,0","3","false",""
"","html-keyboard-response","187","119923","0.0-188.0","39U1BHVTDMD8BSDZF4ABB1PN3BW3T3","A1P6OXEJ86HQRM","3PIOQ99R7Y8STPN46QFY0SD7JTFNU0","","null","<img src=""img/food2.png"" style=""width:200px;border:14px solid red;"">","null","","","","","","","","","",""
"","image-keyboard-response","188","120360","0.0-190.0","39U1BHVTDMD8BSDZF4ABB1PN3BW3T3","A1P6OXEJ86HQRM","3PIOQ99R7Y8STPN46QFY0SD7JTFNU0","","435.79999999701977","img/food1.png","74","436.6000000014901","1","0","1","2","1,0.5,0,1,0.5,0,0.5,0,1","0,1,0.5,0,1,0.5,1,0.5,0","3","false",""
"","html-keyboard-response","189","120673","0.0-191.0","39U1BHVTDMD8BSDZF4ABB1PN3BW3T3","A1P6OXEJ86HQRM","3PIOQ99R7Y8STPN46QFY0SD7JTFNU0","","null","<img src=""img/food1.png"" style=""width:200px;border:14px solid red;"">","null","","","","","","","","","",""
"","image-keyboard-response","190","121126","0.0-193.0","39U1BHVTDMD8BSDZF4ABB1PN3BW3T3","A1P6OXEJ86HQRM","3PIOQ99R7Y8STPN46QFY0SD7JTFNU0","","452.20000000298023","img/food2.png","75","452.90000000596046","2","1","2","2","1,0.5,0,1,0.5,0,0.5,0,1","0,1,0.5,0,1,0.5,1,0.5,0","3","false",""
"","html-keyboard-response","191","121427","0.0-194.0","39U1BHVTDMD8BSDZF4ABB1PN3BW3T3","A1P6OXEJ86HQRM","3PIOQ99R7Y8STPN46QFY0SD7JTFNU0","","null","<img src=""img/food2.png"" style=""width:200px; border:14px solid green;"">","null","","","","","","","","","",""
"","image-keyboard-response","192","121958","0.0-196.0","39U1BHVTDMD8BSDZF4ABB1PN3BW3T3","A1P6OXEJ86HQRM","3PIOQ99R7Y8STPN46QFY0SD7JTFNU0","","530","img/food1.png","75","530.6000000014901","2","1","1","2","1,0.5,0,1,0.5,0,0.5,0,1","0,1,0.5,0,1,0.5,1,0.5,0","3","false",""
"","html-keyboard-response","193","122261","0.0-197.0","39U1BHVTDMD8BSDZF4ABB1PN3BW3T3","A1P6OXEJ86HQRM","3PIOQ99R7Y8STPN46QFY0SD7JTFNU0","","null","<img src=""img/food1.png"" style=""width:200px; border:14px solid green;"">","null","","","","","","","","","",""
"","image-keyboard-response","194","122782","0.0-199.0","39U1BHVTDMD8BSDZF4ABB1PN3BW3T3","A1P6OXEJ86HQRM","3PIOQ99R7Y8STPN46QFY0SD7JTFNU0","","519.5","img/food1.png","75","520.6000000014901","2","1","1","2","1,0.5,0,1,0.5,0,0.5,0,1","0,1,0.5,0,1,0.5,1,0.5,0","3","false",""
"","html-keyboard-response","195","123084","0.0-200.0","39U1BHVTDMD8BSDZF4ABB1PN3BW3T3","A1P6OXEJ86HQRM","3PIOQ99R7Y8STPN46QFY0SD7JTFNU0","","null","<img src=""img/food1.png"" style=""width:200px; border:14px solid green;"">","null","","","","","","","","","",""
"","image-keyboard-response","196","123541","0.0-202.0","39U1BHVTDMD8BSDZF4ABB1PN3BW3T3","A1P6OXEJ86HQRM","3PIOQ99R7Y8STPN46QFY0SD7JTFNU0","","456","img/food2.png","75","456.6000000014901","2","1","2","2","1,0.5,0,1,0.5,0,0.5,0,1","0,1,0.5,0,1,0.5,1,0.5,0","3","false",""
"","html-keyboard-response","197","123843","0.0-203.0","39U1BHVTDMD8BSDZF4ABB1PN3BW3T3","A1P6OXEJ86HQRM","3PIOQ99R7Y8STPN46QFY0SD7JTFNU0","","null","<img src=""img/food2.png"" style=""width:200px; border:14px solid green;"">","null","","","","","","","","","",""
"","image-keyboard-response","198","124296","0.0-205.0","39U1BHVTDMD8BSDZF4ABB1PN3BW3T3","A1P6OXEJ86HQRM","3PIOQ99R7Y8STPN46QFY0SD7JTFNU0","","451.70000000298023","img/food1.png","75","452.3999999985099","2","1","1","2","1,0.5,0,1,0.5,0,0.5,0,1","0,1,0.5,0,1,0.5,1,0.5,0","3","false",""
"","html-keyboard-response","199","124597","0.0-206.0","39U1BHVTDMD8BSDZF4ABB1PN3BW3T3","A1P6OXEJ86HQRM","3PIOQ99R7Y8STPN46QFY0SD7JTFNU0","","null","<img src=""img/food1.png"" style=""width:200px; border:14px solid green;"">","null","","","","","","","","","",""
"","image-keyboard-response","200","125104","0.0-208.0","39U1BHVTDMD8BSDZF4ABB1PN3BW3T3","A1P6OXEJ86HQRM","3PIOQ99R7Y8STPN46QFY0SD7JTFNU0","","506.20000000298023","img/food2.png","75","506.80000000447035","2","1","2","2","1,0.5,0,1,0.5,0,0.5,0,1","0,1,0.5,0,1,0.5,1,0.5,0","3","false",""
"","html-keyboard-response","201","125406","0.0-209.0","39U1BHVTDMD8BSDZF4ABB1PN3BW3T3","A1P6OXEJ86HQRM","3PIOQ99R7Y8STPN46QFY0SD7JTFNU0","","null","<img src=""img/food2.png"" style=""width:200px; border:14px solid green;"">","null","","","","","","","","","",""
"","image-keyboard-response","202","125896","0.0-211.0","39U1BHVTDMD8BSDZF4ABB1PN3BW3T3","A1P6OXEJ86HQRM","3PIOQ99R7Y8STPN46QFY0SD7JTFNU0","","488.3999999985099","img/food2.png","75","489.29999999701977","2","1","2","2","1,0.5,0,1,0.5,0,0.5,0,1","0,1,0.5,0,1,0.5,1,0.5,0","3","false",""
"","html-keyboard-response","203","126199","0.0-212.0","39U1BHVTDMD8BSDZF4ABB1PN3BW3T3","A1P6OXEJ86HQRM","3PIOQ99R7Y8STPN46QFY0SD7JTFNU0","","null","<img src=""img/food2.png"" style=""width:200px; border:14px solid green;"">","null","","","","","","","","","",""
"","image-keyboard-response","204","126629","0.0-214.0","39U1BHVTDMD8BSDZF4ABB1PN3BW3T3","A1P6OXEJ86HQRM","3PIOQ99R7Y8STPN46QFY0SD7JTFNU0","","428.8999999985099","img/food1.png","75","429.5","2","1","1","2","1,0.5,0,1,0.5,0,0.5,0,1","0,1,0.5,0,1,0.5,1,0.5,0","3","false",""
"","html-keyboard-response","205","126931","0.0-215.0","39U1BHVTDMD8BSDZF4ABB1PN3BW3T3","A1P6OXEJ86HQRM","3PIOQ99R7Y8STPN46QFY0SD7JTFNU0","","null","<img src=""img/food1.png"" style=""width:200px; border:14px solid green;"">","null","","","","","","","","","",""
"","image-keyboard-response","206","127506","0.0-217.0","39U1BHVTDMD8BSDZF4ABB1PN3BW3T3","A1P6OXEJ86HQRM","3PIOQ99R7Y8STPN46QFY0SD7JTFNU0","","574","img/food3.png","75","574.5","2","0","3","2","1,0.5,0,1,0.5,0,0.5,0,1","0,1,0.5,0,1,0.5,1,0.5,0","3","false",""
"","html-keyboard-response","207","127807","0.0-218.0","39U1BHVTDMD8BSDZF4ABB1PN3BW3T3","A1P6OXEJ86HQRM","3PIOQ99R7Y8STPN46QFY0SD7JTFNU0","","null","<img src=""img/food3.png"" style=""width:200px;border:14px solid red;"">","null","","","","","","","","","",""
"","image-keyboard-response","208","128351","0.0-220.0","39U1BHVTDMD8BSDZF4ABB1PN3BW3T3","A1P6OXEJ86HQRM","3PIOQ99R7Y8STPN46QFY0SD7JTFNU0","","542.3999999985099","img/food3.png","75","543","2","1","3","2","1,0.5,0,1,0.5,0,0.5,0,1","0,1,0.5,0,1,0.5,1,0.5,0","3","false",""
"","html-keyboard-response","209","128652","0.0-221.0","39U1BHVTDMD8BSDZF4ABB1PN3BW3T3","A1P6OXEJ86HQRM","3PIOQ99R7Y8STPN46QFY0SD7JTFNU0","","null","<img src=""img/food3.png"" style=""width:200px; border:14px solid green;"">","null","","","","","","","","","",""
"","image-keyboard-response","210","129095","0.0-223.0","39U1BHVTDMD8BSDZF4ABB1PN3BW3T3","A1P6OXEJ86HQRM","3PIOQ99R7Y8STPN46QFY0SD7JTFNU0","","442.70000000298023","img/food2.png","75","443.59999999403954","2","1","2","2","1,0.5,0,1,0.5,0,0.5,0,1","0,1,0.5,0,1,0.5,1,0.5,0","3","false",""
"","html-keyboard-response","211","129397","0.0-224.0","39U1BHVTDMD8BSDZF4ABB1PN3BW3T3","A1P6OXEJ86HQRM","3PIOQ99R7Y8STPN46QFY0SD7JTFNU0","","null","<img src=""img/food2.png"" style=""width:200px; border:14px solid green;"">","null","","","","","","","","","",""
"","image-keyboard-response","212","129963","0.0-226.0","39U1BHVTDMD8BSDZF4ABB1PN3BW3T3","A1P6OXEJ86HQRM","3PIOQ99R7Y8STPN46QFY0SD7JTFNU0","","564.0999999940395","img/food3.png","75","564.7000000029802","2","1","3","2","1,0.5,0,1,0.5,0,0.5,0,1","0,1,0.5,0,1,0.5,1,0.5,0","3","false",""
"","html-keyboard-response","213","130265","0.0-227.0","39U1BHVTDMD8BSDZF4ABB1PN3BW3T3","A1P6OXEJ86HQRM","3PIOQ99R7Y8STPN46QFY0SD7JTFNU0","","null","<img src=""img/food3.png"" style=""width:200px; border:14px solid green;"">","null","","","","","","","","","",""
"","image-keyboard-response","214","130747","0.0-229.0","39U1BHVTDMD8BSDZF4ABB1PN3BW3T3","A1P6OXEJ86HQRM","3PIOQ99R7Y8STPN46QFY0SD7JTFNU0","","480.90000000596046","img/food2.png","75","481.8999999985099","2","1","2","2","1,0.5,0,1,0.5,0,0.5,0,1","0,1,0.5,0,1,0.5,1,0.5,0","3","false",""
"","html-keyboard-response","215","131049","0.0-230.0","39U1BHVTDMD8BSDZF4ABB1PN3BW3T3","A1P6OXEJ86HQRM","3PIOQ99R7Y8STPN46QFY0SD7JTFNU0","","null","<img src=""img/food2.png"" style=""width:200px; border:14px solid green;"">","null","","","","","","","","","",""
"","image-keyboard-response","216","131597","0.0-232.0","39U1BHVTDMD8BSDZF4ABB1PN3BW3T3","A1P6OXEJ86HQRM","3PIOQ99R7Y8STPN46QFY0SD7JTFNU0","","546.7999999970198","img/food1.png","75","547.6999999955297","2","1","1","2","1,0.5,0,1,0.5,0,0.5,0,1","0,1,0.5,0,1,0.5,1,0.5,0","3","false",""
"","html-keyboard-response","217","131898","0.0-233.0","39U1BHVTDMD8BSDZF4ABB1PN3BW3T3","A1P6OXEJ86HQRM","3PIOQ99R7Y8STPN46QFY0SD7JTFNU0","","null","<img src=""img/food1.png"" style=""width:200px; border:14px solid green;"">","null","","","","","","","","","",""
"","image-keyboard-response","218","132396","0.0-235.0","39U1BHVTDMD8BSDZF4ABB1PN3BW3T3","A1P6OXEJ86HQRM","3PIOQ99R7Y8STPN46QFY0SD7JTFNU0","","497","img/food2.png","75","497.80000000447035","2","1","2","2","1,0.5,0,1,0.5,0,0.5,0,1","0,1,0.5,0,1,0.5,1,0.5,0","3","false",""
"","html-keyboard-response","219","132698","0.0-236.0","39U1BHVTDMD8BSDZF4ABB1PN3BW3T3","A1P6OXEJ86HQRM","3PIOQ99R7Y8STPN46QFY0SD7JTFNU0","","null","<img src=""img/food2.png"" style=""width:200px; border:14px solid green;"">","null","","","","","","","","","",""
"","image-keyboard-response","220","133231","0.0-238.0","39U1BHVTDMD8BSDZF4ABB1PN3BW3T3","A1P6OXEJ86HQRM","3PIOQ99R7Y8STPN46QFY0SD7JTFNU0","","532.6000000014901","img/food3.png","75","533.4000000059605","2","1","3","2","1,0.5,0,1,0.5,0,0.5,0,1","0,1,0.5,0,1,0.5,1,0.5,0","3","false",""
"","html-keyboard-response","221","133533","0.0-239.0","39U1BHVTDMD8BSDZF4ABB1PN3BW3T3","A1P6OXEJ86HQRM","3PIOQ99R7Y8STPN46QFY0SD7JTFNU0","","null","<img src=""img/food3.png"" style=""width:200px; border:14px solid green;"">","null","","","","","","","","","",""
"","image-keyboard-response","222","133979","0.0-241.0","39U1BHVTDMD8BSDZF4ABB1PN3BW3T3","A1P6OXEJ86HQRM","3PIOQ99R7Y8STPN46QFY0SD7JTFNU0","","444.6000000014901","img/food3.png","75","445.19999999552965","2","1","3","2","1,0.5,0,1,0.5,0,0.5,0,1","0,1,0.5,0,1,0.5,1,0.5,0","3","false",""
"","html-keyboard-response","223","134280","0.0-242.0","39U1BHVTDMD8BSDZF4ABB1PN3BW3T3","A1P6OXEJ86HQRM","3PIOQ99R7Y8STPN46QFY0SD7JTFNU0","","null","<img src=""img/food3.png"" style=""width:200px; border:14px solid green;"">","null","","","","","","","","","",""
"","image-keyboard-response","224","134716","0.0-244.0","39U1BHVTDMD8BSDZF4ABB1PN3BW3T3","A1P6OXEJ86HQRM","3PIOQ99R7Y8STPN46QFY0SD7JTFNU0","","434.20000000298023","img/food1.png","75","435.29999999701977","2","1","1","2","1,0.5,0,1,0.5,0,0.5,0,1","0,1,0.5,0,1,0.5,1,0.5,0","3","false",""
"","html-keyboard-response","225","135018","0.0-245.0","39U1BHVTDMD8BSDZF4ABB1PN3BW3T3","A1P6OXEJ86HQRM","3PIOQ99R7Y8STPN46QFY0SD7JTFNU0","","null","<img src=""img/food1.png"" style=""width:200px; border:14px solid green;"">","null","","","","","","","","","",""
"","image-keyboard-response","226","135454","0.0-247.0","39U1BHVTDMD8BSDZF4ABB1PN3BW3T3","A1P6OXEJ86HQRM","3PIOQ99R7Y8STPN46QFY0SD7JTFNU0","","434.59999999403954","img/food3.png","75","435.3999999985099","2","1","3","2","1,0.5,0,1,0.5,0,0.5,0,1","0,1,0.5,0,1,0.5,1,0.5,0","3","false",""
"","html-keyboard-response","227","135756","0.0-248.0","39U1BHVTDMD8BSDZF4ABB1PN3BW3T3","A1P6OXEJ86HQRM","3PIOQ99R7Y8STPN46QFY0SD7JTFNU0","","null","<img src=""img/food3.png"" style=""width:200px; border:14px solid green;"">","null","","","","","","","","","",""
"","image-keyboard-response","228","136203","0.0-250.0","39U1BHVTDMD8BSDZF4ABB1PN3BW3T3","A1P6OXEJ86HQRM","3PIOQ99R7Y8STPN46QFY0SD7JTFNU0","","446","img/food2.png","75","446.70000000298023","2","1","2","2","1,0.5,0,1,0.5,0,0.5,0,1","0,1,0.5,0,1,0.5,1,0.5,0","3","false",""
"","html-keyboard-response","229","136505","0.0-251.0","39U1BHVTDMD8BSDZF4ABB1PN3BW3T3","A1P6OXEJ86HQRM","3PIOQ99R7Y8STPN46QFY0SD7JTFNU0","","null","<img src=""img/food2.png"" style=""width:200px; border:14px solid green;"">","null","","","","","","","","","",""
"","image-keyboard-response","230","136926","0.0-253.0","39U1BHVTDMD8BSDZF4ABB1PN3BW3T3","A1P6OXEJ86HQRM","3PIOQ99R7Y8STPN46QFY0SD7JTFNU0","","420","img/food3.png","75","420.70000000298023","2","0","3","2","1,0.5,0,1,0.5,0,0.5,0,1","0,1,0.5,0,1,0.5,1,0.5,0","3","false",""
"","html-keyboard-response","231","137229","0.0-254.0","39U1BHVTDMD8BSDZF4ABB1PN3BW3T3","A1P6OXEJ86HQRM","3PIOQ99R7Y8STPN46QFY0SD7JTFNU0","","null","<img src=""img/food3.png"" style=""width:200px;border:14px solid red;"">","null","","","","","","","","","",""
"","image-keyboard-response","232","137666","0.0-256.0","39U1BHVTDMD8BSDZF4ABB1PN3BW3T3","A1P6OXEJ86HQRM","3PIOQ99R7Y8STPN46QFY0SD7JTFNU0","","436.79999999701977","img/food2.png","75","437.5","2","1","2","2","1,0.5,0,1,0.5,0,0.5,0,1","0,1,0.5,0,1,0.5,1,0.5,0","3","false",""
"","html-keyboard-response","233","137968","0.0-257.0","39U1BHVTDMD8BSDZF4ABB1PN3BW3T3","A1P6OXEJ86HQRM","3PIOQ99R7Y8STPN46QFY0SD7JTFNU0","","null","<img src=""img/food2.png"" style=""width:200px; border:14px solid green;"">","null","","","","","","","","","",""
"","image-keyboard-response","234","138406","0.0-259.0","39U1BHVTDMD8BSDZF4ABB1PN3BW3T3","A1P6OXEJ86HQRM","3PIOQ99R7Y8STPN46QFY0SD7JTFNU0","","437.1000000014901","img/food3.png","75","437.69999999552965","2","1","3","2","1,0.5,0,1,0.5,0,0.5,0,1","0,1,0.5,0,1,0.5,1,0.5,0","3","false",""
"","html-keyboard-response","235","138708","0.0-260.0","39U1BHVTDMD8BSDZF4ABB1PN3BW3T3","A1P6OXEJ86HQRM","3PIOQ99R7Y8STPN46QFY0SD7JTFNU0","","null","<img src=""img/food3.png"" style=""width:200px; border:14px solid green;"">","null","","","","","","","","","",""
"","image-keyboard-response","236","139116","0.0-262.0","39U1BHVTDMD8BSDZF4ABB1PN3BW3T3","A1P6OXEJ86HQRM","3PIOQ99R7Y8STPN46QFY0SD7JTFNU0","","407.30000000447035","img/food1.png","75","408.19999999552965","2","1","1","2","1,0.5,0,1,0.5,0,0.5,0,1","0,1,0.5,0,1,0.5,1,0.5,0","3","false",""
"","html-keyboard-response","237","139417","0.0-263.0","39U1BHVTDMD8BSDZF4ABB1PN3BW3T3","A1P6OXEJ86HQRM","3PIOQ99R7Y8STPN46QFY0SD7JTFNU0","","null","<img src=""img/food1.png"" style=""width:200px; border:14px solid green;"">","null","","","","","","","","","",""
"","image-keyboard-response","238","139807","0.0-265.0","39U1BHVTDMD8BSDZF4ABB1PN3BW3T3","A1P6OXEJ86HQRM","3PIOQ99R7Y8STPN46QFY0SD7JTFNU0","","388.8999999985099","img/food3.png","75","389.70000000298023","2","1","3","2","1,0.5,0,1,0.5,0,0.5,0,1","0,1,0.5,0,1,0.5,1,0.5,0","3","false",""
"","html-keyboard-response","239","140109","0.0-266.0","39U1BHVTDMD8BSDZF4ABB1PN3BW3T3","A1P6OXEJ86HQRM","3PIOQ99R7Y8STPN46QFY0SD7JTFNU0","","null","<img src=""img/food3.png"" style=""width:200px; border:14px solid green;"">","null","","","","","","","","","",""
"","image-keyboard-response","240","140434","0.0-268.0","39U1BHVTDMD8BSDZF4ABB1PN3BW3T3","A1P6OXEJ86HQRM","3PIOQ99R7Y8STPN46QFY0SD7JTFNU0","","323.8999999985099","img/food3.png","75","324.3999999985099","2","0","3","2","1,0.5,0,1,0.5,0,0.5,0,1","0,1,0.5,0,1,0.5,1,0.5,0","3","false",""
"","html-keyboard-response","241","140735","0.0-269.0","39U1BHVTDMD8BSDZF4ABB1PN3BW3T3","A1P6OXEJ86HQRM","3PIOQ99R7Y8STPN46QFY0SD7JTFNU0","","null","<img src=""img/food3.png"" style=""width:200px;border:14px solid red;"">","null","","","","","","","","","",""
"","image-keyboard-response","242","141096","0.0-271.0","39U1BHVTDMD8BSDZF4ABB1PN3BW3T3","A1P6OXEJ86HQRM","3PIOQ99R7Y8STPN46QFY0SD7JTFNU0","","360.40000000596046","img/food3.png","75","361.1000000014901","2","0","3","2","1,0.5,0,1,0.5,0,0.5,0,1","0,1,0.5,0,1,0.5,1,0.5,0","3","false",""
"","html-keyboard-response","243","141397","0.0-272.0","39U1BHVTDMD8BSDZF4ABB1PN3BW3T3","A1P6OXEJ86HQRM","3PIOQ99R7Y8STPN46QFY0SD7JTFNU0","","null","<img src=""img/food3.png"" style=""width:200px;border:14px solid red;"">","null","","","","","","","","","",""
"","image-keyboard-response","244","141841","0.0-274.0","39U1BHVTDMD8BSDZF4ABB1PN3BW3T3","A1P6OXEJ86HQRM","3PIOQ99R7Y8STPN46QFY0SD7JTFNU0","","443.20000000298023","img/food1.png","75","443.80000000447035","2","1","1","2","1,0.5,0,1,0.5,0,0.5,0,1","0,1,0.5,0,1,0.5,1,0.5,0","3","false",""
"","html-keyboard-response","245","142144","0.0-275.0","39U1BHVTDMD8BSDZF4ABB1PN3BW3T3","A1P6OXEJ86HQRM","3PIOQ99R7Y8STPN46QFY0SD7JTFNU0","","null","<img src=""img/food1.png"" style=""width:200px; border:14px solid green;"">","null","","","","","","","","","",""
"","image-keyboard-response","246","142516","0.0-277.0","39U1BHVTDMD8BSDZF4ABB1PN3BW3T3","A1P6OXEJ86HQRM","3PIOQ99R7Y8STPN46QFY0SD7JTFNU0","","371.5","img/food1.png","75","372.1000000014901","2","1","1","2","1,0.5,0,1,0.5,0,0.5,0,1","0,1,0.5,0,1,0.5,1,0.5,0","3","false",""
"","html-keyboard-response","247","142817","0.0-278.0","39U1BHVTDMD8BSDZF4ABB1PN3BW3T3","A1P6OXEJ86HQRM","3PIOQ99R7Y8STPN46QFY0SD7JTFNU0","","null","<img src=""img/food1.png"" style=""width:200px; border:14px solid green;"">","null","","","","","","","","","",""
"","image-keyboard-response","248","143227","0.0-280.0","39U1BHVTDMD8BSDZF4ABB1PN3BW3T3","A1P6OXEJ86HQRM","3PIOQ99R7Y8STPN46QFY0SD7JTFNU0","","408.8999999985099","img/food2.png","75","409.69999999552965","2","1","2","2","1,0.5,0,1,0.5,0,0.5,0,1","0,1,0.5,0,1,0.5,1,0.5,0","3","false",""
"","html-keyboard-response","249","143529","0.0-281.0","39U1BHVTDMD8BSDZF4ABB1PN3BW3T3","A1P6OXEJ86HQRM","3PIOQ99R7Y8STPN46QFY0SD7JTFNU0","","null","<img src=""img/food2.png"" style=""width:200px; border:14px solid green;"">","null","","","","","","","","","",""
"","image-keyboard-response","250","143946","0.0-283.0","39U1BHVTDMD8BSDZF4ABB1PN3BW3T3","A1P6OXEJ86HQRM","3PIOQ99R7Y8STPN46QFY0SD7JTFNU0","","415.20000000298023","img/food1.png","75","416","2","1","1","2","1,0.5,0,1,0.5,0,0.5,0,1","0,1,0.5,0,1,0.5,1,0.5,0","3","false",""
"","html-keyboard-response","251","144247","0.0-284.0","39U1BHVTDMD8BSDZF4ABB1PN3BW3T3","A1P6OXEJ86HQRM","3PIOQ99R7Y8STPN46QFY0SD7JTFNU0","","null","<img src=""img/food1.png"" style=""width:200px; border:14px solid green;"">","null","","","","","","","","","",""
"","image-keyboard-response","252","144611","0.0-286.0","39U1BHVTDMD8BSDZF4ABB1PN3BW3T3","A1P6OXEJ86HQRM","3PIOQ99R7Y8STPN46QFY0SD7JTFNU0","","362.1000000014901","img/food3.png","75","362.80000000447035","2","1","3","2","1,0.5,0,1,0.5,0,0.5,0,1","0,1,0.5,0,1,0.5,1,0.5,0","3","false",""
"","html-keyboard-response","253","144913","0.0-287.0","39U1BHVTDMD8BSDZF4ABB1PN3BW3T3","A1P6OXEJ86HQRM","3PIOQ99R7Y8STPN46QFY0SD7JTFNU0","","null","<img src=""img/food3.png"" style=""width:200px; border:14px solid green;"">","null","","","","","","","","","",""
"","image-keyboard-response","254","145288","0.0-289.0","39U1BHVTDMD8BSDZF4ABB1PN3BW3T3","A1P6OXEJ86HQRM","3PIOQ99R7Y8STPN46QFY0SD7JTFNU0","","374.79999999701977","img/food2.png","75","375.5","2","1","2","2","1,0.5,0,1,0.5,0,0.5,0,1","0,1,0.5,0,1,0.5,1,0.5,0","3","false",""
"","html-keyboard-response","255","145591","0.0-290.0","39U1BHVTDMD8BSDZF4ABB1PN3BW3T3","A1P6OXEJ86HQRM","3PIOQ99R7Y8STPN46QFY0SD7JTFNU0","","null","<img src=""img/food2.png"" style=""width:200px; border:14px solid green;"">","null","","","","","","","","","",""
"","image-keyboard-response","256","145929","0.0-292.0","39U1BHVTDMD8BSDZF4ABB1PN3BW3T3","A1P6OXEJ86HQRM","3PIOQ99R7Y8STPN46QFY0SD7JTFNU0","","337.69999999552965","img/food3.png","75","338.3999999985099","2","1","3","2","1,0.5,0,1,0.5,0,0.5,0,1","0,1,0.5,0,1,0.5,1,0.5,0","3","false",""
"","html-keyboard-response","257","146240","0.0-293.0","39U1BHVTDMD8BSDZF4ABB1PN3BW3T3","A1P6OXEJ86HQRM","3PIOQ99R7Y8STPN46QFY0SD7JTFNU0","","null","<img src=""img/food3.png"" style=""width:200px; border:14px solid green;"">","null","","","","","","","","","",""
"","image-keyboard-response","258","146601","0.0-295.0","39U1BHVTDMD8BSDZF4ABB1PN3BW3T3","A1P6OXEJ86HQRM","3PIOQ99R7Y8STPN46QFY0SD7JTFNU0","","360.20000000298023","img/food2.png","75","361","2","1","2","2","1,0.5,0,1,0.5,0,0.5,0,1","0,1,0.5,0,1,0.5,1,0.5,0","3","false",""
"","html-keyboard-response","259","146902","0.0-296.0","39U1BHVTDMD8BSDZF4ABB1PN3BW3T3","A1P6OXEJ86HQRM","3PIOQ99R7Y8STPN46QFY0SD7JTFNU0","","null","<img src=""img/food2.png"" style=""width:200px; border:14px solid green;"">","null","","","","","","","","","",""
"","image-keyboard-response","260","147245","0.0-298.0","39U1BHVTDMD8BSDZF4ABB1PN3BW3T3","A1P6OXEJ86HQRM","3PIOQ99R7Y8STPN46QFY0SD7JTFNU0","","341.40000000596046","img/food1.png","75","342.1000000014901","2","1","1","2","1,0.5,0,1,0.5,0,0.5,0,1","0,1,0.5,0,1,0.5,1,0.5,0","3","false",""
"","html-keyboard-response","261","147546","0.0-299.0","39U1BHVTDMD8BSDZF4ABB1PN3BW3T3","A1P6OXEJ86HQRM","3PIOQ99R7Y8STPN46QFY0SD7JTFNU0","","null","<img src=""img/food1.png"" style=""width:200px; border:14px solid green;"">","null","","","","","","","","","",""
"","image-keyboard-response","262","147849","0.0-301.0","39U1BHVTDMD8BSDZF4ABB1PN3BW3T3","A1P6OXEJ86HQRM","3PIOQ99R7Y8STPN46QFY0SD7JTFNU0","","301.5","img/food1.png","75","302.5","2","1","1","2","1,0.5,0,1,0.5,0,0.5,0,1","0,1,0.5,0,1,0.5,1,0.5,0","3","false",""
"","html-keyboard-response","263","148151","0.0-302.0","39U1BHVTDMD8BSDZF4ABB1PN3BW3T3","A1P6OXEJ86HQRM","3PIOQ99R7Y8STPN46QFY0SD7JTFNU0","","null","<img src=""img/food1.png"" style=""width:200px; border:14px solid green;"">","null","","","","","","","","","",""
"","image-keyboard-response","264","148526","0.0-304.0","39U1BHVTDMD8BSDZF4ABB1PN3BW3T3","A1P6OXEJ86HQRM","3PIOQ99R7Y8STPN46QFY0SD7JTFNU0","","373.3999999985099","img/food1.png","75","374","2","1","1","2","1,0.5,0,1,0.5,0,0.5,0,1","0,1,0.5,0,1,0.5,1,0.5,0","3","false",""
"","html-keyboard-response","265","148829","0.0-305.0","39U1BHVTDMD8BSDZF4ABB1PN3BW3T3","A1P6OXEJ86HQRM","3PIOQ99R7Y8STPN46QFY0SD7JTFNU0","","null","<img src=""img/food1.png"" style=""width:200px; border:14px solid green;"">","null","","","","","","","","","",""
"","image-keyboard-response","266","149163","0.0-307.0","39U1BHVTDMD8BSDZF4ABB1PN3BW3T3","A1P6OXEJ86HQRM","3PIOQ99R7Y8STPN46QFY0SD7JTFNU0","","332.6000000014901","img/food2.png","75","333.29999999701977","2","1","2","2","1,0.5,0,1,0.5,0,0.5,0,1","0,1,0.5,0,1,0.5,1,0.5,0","3","false",""
"","html-keyboard-response","267","149465","0.0-308.0","39U1BHVTDMD8BSDZF4ABB1PN3BW3T3","A1P6OXEJ86HQRM","3PIOQ99R7Y8STPN46QFY0SD7JTFNU0","","null","<img src=""img/food2.png"" style=""width:200px; border:14px solid green;"">","null","","","","","","","","","",""
"","image-keyboard-response","268","149775","0.0-310.0","39U1BHVTDMD8BSDZF4ABB1PN3BW3T3","A1P6OXEJ86HQRM","3PIOQ99R7Y8STPN46QFY0SD7JTFNU0","","309","img/food3.png","75","309.8999999985099","2","0","3","2","1,0.5,0,1,0.5,0,0.5,0,1","0,1,0.5,0,1,0.5,1,0.5,0","3","false",""
"","html-keyboard-response","269","150076","0.0-311.0","39U1BHVTDMD8BSDZF4ABB1PN3BW3T3","A1P6OXEJ86HQRM","3PIOQ99R7Y8STPN46QFY0SD7JTFNU0","","null","<img src=""img/food3.png"" style=""width:200px;border:14px solid red;"">","null","","","","","","","","","",""
"","image-keyboard-response","270","150390","0.0-313.0","39U1BHVTDMD8BSDZF4ABB1PN3BW3T3","A1P6OXEJ86HQRM","3PIOQ99R7Y8STPN46QFY0SD7JTFNU0","","312.79999999701977","img/food2.png","75","313.29999999701977","2","1","2","2","1,0.5,0,1,0.5,0,0.5,0,1","0,1,0.5,0,1,0.5,1,0.5,0","3","false",""
"","html-keyboard-response","271","150691","0.0-314.0","39U1BHVTDMD8BSDZF4ABB1PN3BW3T3","A1P6OXEJ86HQRM","3PIOQ99R7Y8STPN46QFY0SD7JTFNU0","","null","<img src=""img/food2.png"" style=""width:200px; border:14px solid green;"">","null","","","","","","","","","",""
"","image-keyboard-response","272","150996","0.0-316.0","39U1BHVTDMD8BSDZF4ABB1PN3BW3T3","A1P6OXEJ86HQRM","3PIOQ99R7Y8STPN46QFY0SD7JTFNU0","","303.29999999701977","img/food3.png","75","304.20000000298023","2","1","3","2","1,0.5,0,1,0.5,0,0.5,0,1","0,1,0.5,0,1,0.5,1,0.5,0","3","false",""
"","html-keyboard-response","273","151298","0.0-317.0","39U1BHVTDMD8BSDZF4ABB1PN3BW3T3","A1P6OXEJ86HQRM","3PIOQ99R7Y8STPN46QFY0SD7JTFNU0","","null","<img src=""img/food3.png"" style=""width:200px; border:14px solid green;"">","null","","","","","","","","","",""
"","image-keyboard-response","274","151558","0.0-319.0","39U1BHVTDMD8BSDZF4ABB1PN3BW3T3","A1P6OXEJ86HQRM","3PIOQ99R7Y8STPN46QFY0SD7JTFNU0","","258.6000000014901","img/food1.png","75","259.69999999552965","2","1","1","2","1,0.5,0,1,0.5,0,0.5,0,1","0,1,0.5,0,1,0.5,1,0.5,0","3","false",""
"","html-keyboard-response","275","151860","0.0-320.0","39U1BHVTDMD8BSDZF4ABB1PN3BW3T3","A1P6OXEJ86HQRM","3PIOQ99R7Y8STPN46QFY0SD7JTFNU0","","null","<img src=""img/food1.png"" style=""width:200px; border:14px solid green;"">","null","","","","","","","","","",""
"","image-keyboard-response","276","152119","0.0-322.0","39U1BHVTDMD8BSDZF4ABB1PN3BW3T3","A1P6OXEJ86HQRM","3PIOQ99R7Y8STPN46QFY0SD7JTFNU0","","258.5","img/food1.png","75","259.30000000447035","2","1","1","2","1,0.5,0,1,0.5,0,0.5,0,1","0,1,0.5,0,1,0.5,1,0.5,0","3","false",""
"","html-keyboard-response","277","152421","0.0-323.0","39U1BHVTDMD8BSDZF4ABB1PN3BW3T3","A1P6OXEJ86HQRM","3PIOQ99R7Y8STPN46QFY0SD7JTFNU0","","null","<img src=""img/food1.png"" style=""width:200px; border:14px solid green;"">","null","","","","","","","","","",""
"","image-keyboard-response","278","152710","0.0-325.0","39U1BHVTDMD8BSDZF4ABB1PN3BW3T3","A1P6OXEJ86HQRM","3PIOQ99R7Y8STPN46QFY0SD7JTFNU0","","288","img/food1.png","75","289.1000000014901","2","1","1","2","1,0.5,0,1,0.5,0,0.5,0,1","0,1,0.5,0,1,0.5,1,0.5,0","3","false",""
"","html-keyboard-response","279","153012","0.0-326.0","39U1BHVTDMD8BSDZF4ABB1PN3BW3T3","A1P6OXEJ86HQRM","3PIOQ99R7Y8STPN46QFY0SD7JTFNU0","","null","<img src=""img/food1.png"" style=""width:200px; border:14px solid green;"">","null","","","","","","","","","",""
"","image-keyboard-response","280","153283","0.0-328.0","39U1BHVTDMD8BSDZF4ABB1PN3BW3T3","A1P6OXEJ86HQRM","3PIOQ99R7Y8STPN46QFY0SD7JTFNU0","","270.29999999701977","img/food1.png","75","271.19999999552965","2","1","1","2","1,0.5,0,1,0.5,0,0.5,0,1","0,1,0.5,0,1,0.5,1,0.5,0","3","false",""
"","html-keyboard-response","281","153585","0.0-329.0","39U1BHVTDMD8BSDZF4ABB1PN3BW3T3","A1P6OXEJ86HQRM","3PIOQ99R7Y8STPN46QFY0SD7JTFNU0","","null","<img src=""img/food1.png"" style=""width:200px; border:14px solid green;"">","null","","","","","","","","","",""
"","image-keyboard-response","282","153858","0.0-331.0","39U1BHVTDMD8BSDZF4ABB1PN3BW3T3","A1P6OXEJ86HQRM","3PIOQ99R7Y8STPN46QFY0SD7JTFNU0","","271.79999999701977","img/food3.png","75","272.5","2","1","3","2","1,0.5,0,1,0.5,0,0.5,0,1","0,1,0.5,0,1,0.5,1,0.5,0","3","false",""
"","html-keyboard-response","283","154160","0.0-332.0","39U1BHVTDMD8BSDZF4ABB1PN3BW3T3","A1P6OXEJ86HQRM","3PIOQ99R7Y8STPN46QFY0SD7JTFNU0","","null","<img src=""img/food3.png"" style=""width:200px; border:14px solid green;"">","null","","","","","","","","","",""
"","image-keyboard-response","284","154401","0.0-334.0","39U1BHVTDMD8BSDZF4ABB1PN3BW3T3","A1P6OXEJ86HQRM","3PIOQ99R7Y8STPN46QFY0SD7JTFNU0","","240.10000000149012","img/food2.png","75","240.80000000447035","2","1","2","2","1,0.5,0,1,0.5,0,0.5,0,1","0,1,0.5,0,1,0.5,1,0.5,0","3","false",""
"","html-keyboard-response","285","154703","0.0-335.0","39U1BHVTDMD8BSDZF4ABB1PN3BW3T3","A1P6OXEJ86HQRM","3PIOQ99R7Y8STPN46QFY0SD7JTFNU0","","null","<img src=""img/food2.png"" style=""width:200px; border:14px solid green;"">","null","","","","","","","","","",""
"","image-keyboard-response","286","154946","0.0-337.0","39U1BHVTDMD8BSDZF4ABB1PN3BW3T3","A1P6OXEJ86HQRM","3PIOQ99R7Y8STPN46QFY0SD7JTFNU0","","242.5","img/food3.png","75","243.10000000149012","2","1","3","2","1,0.5,0,1,0.5,0,0.5,0,1","0,1,0.5,0,1,0.5,1,0.5,0","3","false",""
"","html-keyboard-response","287","155248","0.0-338.0","39U1BHVTDMD8BSDZF4ABB1PN3BW3T3","A1P6OXEJ86HQRM","3PIOQ99R7Y8STPN46QFY0SD7JTFNU0","","null","<img src=""img/food3.png"" style=""width:200px; border:14px solid green;"">","null","","","","","","","","","",""
"","image-keyboard-response","288","155466","0.0-340.0","39U1BHVTDMD8BSDZF4ABB1PN3BW3T3","A1P6OXEJ86HQRM","3PIOQ99R7Y8STPN46QFY0SD7JTFNU0","","217.20000000298023","img/food2.png","75","217.89999999850988","2","1","2","2","1,0.5,0,1,0.5,0,0.5,0,1","0,1,0.5,0,1,0.5,1,0.5,0","3","false",""
"","html-keyboard-response","289","155768","0.0-341.0","39U1BHVTDMD8BSDZF4ABB1PN3BW3T3","A1P6OXEJ86HQRM","3PIOQ99R7Y8STPN46QFY0SD7JTFNU0","","null","<img src=""img/food2.png"" style=""width:200px; border:14px solid green;"">","null","","","","","","","","","",""
"","image-keyboard-response","290","155966","0.0-343.0","39U1BHVTDMD8BSDZF4ABB1PN3BW3T3","A1P6OXEJ86HQRM","3PIOQ99R7Y8STPN46QFY0SD7JTFNU0","","197.39999999850988","img/food1.png","75","198.20000000298023","2","1","1","2","1,0.5,0,1,0.5,0,0.5,0,1","0,1,0.5,0,1,0.5,1,0.5,0","3","false",""
"","html-keyboard-response","291","156267","0.0-344.0","39U1BHVTDMD8BSDZF4ABB1PN3BW3T3","A1P6OXEJ86HQRM","3PIOQ99R7Y8STPN46QFY0SD7JTFNU0","","null","<img src=""img/food1.png"" style=""width:200px; border:14px solid green;"">","null","","","","","","","","","",""
"","image-keyboard-response","292","156451","0.0-346.0","39U1BHVTDMD8BSDZF4ABB1PN3BW3T3","A1P6OXEJ86HQRM","3PIOQ99R7Y8STPN46QFY0SD7JTFNU0","","182.09999999403954","img/food1.png","75","183.20000000298023","2","1","1","2","1,0.5,0,1,0.5,0,0.5,0,1","0,1,0.5,0,1,0.5,1,0.5,0","3","false",""
"","html-keyboard-response","293","156752","0.0-347.0","39U1BHVTDMD8BSDZF4ABB1PN3BW3T3","A1P6OXEJ86HQRM","3PIOQ99R7Y8STPN46QFY0SD7JTFNU0","","null","<img src=""img/food1.png"" style=""width:200px; border:14px solid green;"">","null","","","","","","","","","",""
"","image-keyboard-response","294","156991","0.0-349.0","39U1BHVTDMD8BSDZF4ABB1PN3BW3T3","A1P6OXEJ86HQRM","3PIOQ99R7Y8STPN46QFY0SD7JTFNU0","","237.80000000447035","img/food2.png","75","238.29999999701977","2","1","2","2","1,0.5,0,1,0.5,0,0.5,0,1","0,1,0.5,0,1,0.5,1,0.5,0","3","false",""
"","html-keyboard-response","295","157292","0.0-350.0","39U1BHVTDMD8BSDZF4ABB1PN3BW3T3","A1P6OXEJ86HQRM","3PIOQ99R7Y8STPN46QFY0SD7JTFNU0","","null","<img src=""img/food2.png"" style=""width:200px; border:14px solid green;"">","null","","","","","","","","","",""
"","image-keyboard-response","296","157526","0.0-352.0","39U1BHVTDMD8BSDZF4ABB1PN3BW3T3","A1P6OXEJ86HQRM","3PIOQ99R7Y8STPN46QFY0SD7JTFNU0","","232.29999999701977","img/food3.png","75","233.30000000447035","2","0","3","2","1,0.5,0,1,0.5,0,0.5,0,1","0,1,0.5,0,1,0.5,1,0.5,0","3","false",""
"","html-keyboard-response","297","157827","0.0-353.0","39U1BHVTDMD8BSDZF4ABB1PN3BW3T3","A1P6OXEJ86HQRM","3PIOQ99R7Y8STPN46QFY0SD7JTFNU0","","null","<img src=""img/food3.png"" style=""width:200px;border:14px solid red;"">","null","","","","","","","","","",""
"","image-keyboard-response","298","158096","0.0-355.0","39U1BHVTDMD8BSDZF4ABB1PN3BW3T3","A1P6OXEJ86HQRM","3PIOQ99R7Y8STPN46QFY0SD7JTFNU0","","267.79999999701977","img/food1.png","75","268.6000000014901","2","1","1","2","1,0.5,0,1,0.5,0,0.5,0,1","0,1,0.5,0,1,0.5,1,0.5,0","3","false",""
"","html-keyboard-response","299","158398","0.0-356.0","39U1BHVTDMD8BSDZF4ABB1PN3BW3T3","A1P6OXEJ86HQRM","3PIOQ99R7Y8STPN46QFY0SD7JTFNU0","","null","<img src=""img/food1.png"" style=""width:200px; border:14px solid green;"">","null","","","","","","","","","",""
"","image-keyboard-response","300","158591","0.0-358.0","39U1BHVTDMD8BSDZF4ABB1PN3BW3T3","A1P6OXEJ86HQRM","3PIOQ99R7Y8STPN46QFY0SD7JTFNU0","","191.79999999701977","img/food2.png","75","192.59999999403954","2","1","2","2","1,0.5,0,1,0.5,0,0.5,0,1","0,1,0.5,0,1,0.5,1,0.5,0","3","false",""
"","html-keyboard-response","301","158892","0.0-359.0","39U1BHVTDMD8BSDZF4ABB1PN3BW3T3","A1P6OXEJ86HQRM","3PIOQ99R7Y8STPN46QFY0SD7JTFNU0","","null","<img src=""img/food2.png"" style=""width:200px; border:14px solid green;"">","null","","","","","","","","","",""
"","image-keyboard-response","302","159165","0.0-361.0","39U1BHVTDMD8BSDZF4ABB1PN3BW3T3","A1P6OXEJ86HQRM","3PIOQ99R7Y8STPN46QFY0SD7JTFNU0","","271.70000000298023","img/food1.png","75","272.6000000014901","2","1","1","2","1,0.5,0,1,0.5,0,0.5,0,1","0,1,0.5,0,1,0.5,1,0.5,0","3","false",""
"","html-keyboard-response","303","159466","0.0-362.0","39U1BHVTDMD8BSDZF4ABB1PN3BW3T3","A1P6OXEJ86HQRM","3PIOQ99R7Y8STPN46QFY0SD7JTFNU0","","null","<img src=""img/food1.png"" style=""width:200px; border:14px solid green;"">","null","","","","","","","","","",""
"","image-keyboard-response","304","159684","0.0-364.0","39U1BHVTDMD8BSDZF4ABB1PN3BW3T3","A1P6OXEJ86HQRM","3PIOQ99R7Y8STPN46QFY0SD7JTFNU0","","216.10000000149012","img/food1.png","75","217","2","1","1","2","1,0.5,0,1,0.5,0,0.5,0,1","0,1,0.5,0,1,0.5,1,0.5,0","3","false",""
"","html-keyboard-response","305","159985","0.0-365.0","39U1BHVTDMD8BSDZF4ABB1PN3BW3T3","A1P6OXEJ86HQRM","3PIOQ99R7Y8STPN46QFY0SD7JTFNU0","","null","<img src=""img/food1.png"" style=""width:200px; border:14px solid green;"">","null","","","","","","","","","",""
"","image-keyboard-response","306","160233","0.0-367.0","39U1BHVTDMD8BSDZF4ABB1PN3BW3T3","A1P6OXEJ86HQRM","3PIOQ99R7Y8STPN46QFY0SD7JTFNU0","","247.39999999850988","img/food2.png","75","248","2","1","2","2","1,0.5,0,1,0.5,0,0.5,0,1","0,1,0.5,0,1,0.5,1,0.5,0","3","false",""
"","html-keyboard-response","307","160535","0.0-368.0","39U1BHVTDMD8BSDZF4ABB1PN3BW3T3","A1P6OXEJ86HQRM","3PIOQ99R7Y8STPN46QFY0SD7JTFNU0","","null","<img src=""img/food2.png"" style=""width:200px; border:14px solid green;"">","null","","","","","","","","","",""
"","image-keyboard-response","308","160762","0.0-370.0","39U1BHVTDMD8BSDZF4ABB1PN3BW3T3","A1P6OXEJ86HQRM","3PIOQ99R7Y8STPN46QFY0SD7JTFNU0","","225.70000000298023","img/food3.png","75","226.39999999850988","2","1","3","2","1,0.5,0,1,0.5,0,0.5,0,1","0,1,0.5,0,1,0.5,1,0.5,0","3","false",""
"","html-keyboard-response","309","161064","0.0-371.0","39U1BHVTDMD8BSDZF4ABB1PN3BW3T3","A1P6OXEJ86HQRM","3PIOQ99R7Y8STPN46QFY0SD7JTFNU0","","null","<img src=""img/food3.png"" style=""width:200px; border:14px solid green;"">","null","","","","","","","","","",""
"","image-keyboard-response","310","161304","0.0-373.0","39U1BHVTDMD8BSDZF4ABB1PN3BW3T3","A1P6OXEJ86HQRM","3PIOQ99R7Y8STPN46QFY0SD7JTFNU0","","238.09999999403954","img/food2.png","75","239","2","1","2","2","1,0.5,0,1,0.5,0,0.5,0,1","0,1,0.5,0,1,0.5,1,0.5,0","3","false",""
"","html-keyboard-response","311","161606","0.0-374.0","39U1BHVTDMD8BSDZF4ABB1PN3BW3T3","A1P6OXEJ86HQRM","3PIOQ99R7Y8STPN46QFY0SD7JTFNU0","","null","<img src=""img/food2.png"" style=""width:200px; border:14px solid green;"">","null","","","","","","","","","",""
"","image-keyboard-response","312","161818","0.0-376.0","39U1BHVTDMD8BSDZF4ABB1PN3BW3T3","A1P6OXEJ86HQRM","3PIOQ99R7Y8STPN46QFY0SD7JTFNU0","","210.59999999403954","img/food2.png","75","211.30000000447035","2","1","2","2","1,0.5,0,1,0.5,0,0.5,0,1","0,1,0.5,0,1,0.5,1,0.5,0","3","false",""
"","html-keyboard-response","313","162119","0.0-377.0","39U1BHVTDMD8BSDZF4ABB1PN3BW3T3","A1P6OXEJ86HQRM","3PIOQ99R7Y8STPN46QFY0SD7JTFNU0","","null","<img src=""img/food2.png"" style=""width:200px; border:14px solid green;"">","null","","","","","","","","","",""
"","image-keyboard-response","314","162390","0.0-379.0","39U1BHVTDMD8BSDZF4ABB1PN3BW3T3","A1P6OXEJ86HQRM","3PIOQ99R7Y8STPN46QFY0SD7JTFNU0","","270.29999999701977","img/food1.png","75","271.20000000298023","2","1","1","2","1,0.5,0,1,0.5,0,0.5,0,1","0,1,0.5,0,1,0.5,1,0.5,0","3","false",""
"","html-keyboard-response","315","162692","0.0-380.0","39U1BHVTDMD8BSDZF4ABB1PN3BW3T3","A1P6OXEJ86HQRM","3PIOQ99R7Y8STPN46QFY0SD7JTFNU0","","null","<img src=""img/food1.png"" style=""width:200px; border:14px solid green;"">","null","","","","","","","","","",""
"","image-keyboard-response","316","162917","0.0-382.0","39U1BHVTDMD8BSDZF4ABB1PN3BW3T3","A1P6OXEJ86HQRM","3PIOQ99R7Y8STPN46QFY0SD7JTFNU0","","223.5","img/food2.png","75","224.29999999701977","2","1","2","2","1,0.5,0,1,0.5,0,0.5,0,1","0,1,0.5,0,1,0.5,1,0.5,0","3","false",""
"","html-keyboard-response","317","163218","0.0-383.0","39U1BHVTDMD8BSDZF4ABB1PN3BW3T3","A1P6OXEJ86HQRM","3PIOQ99R7Y8STPN46QFY0SD7JTFNU0","","null","<img src=""img/food2.png"" style=""width:200px; border:14px solid green;"">","null","","","","","","","","","",""
"","image-keyboard-response","318","163457","0.0-385.0","39U1BHVTDMD8BSDZF4ABB1PN3BW3T3","A1P6OXEJ86HQRM","3PIOQ99R7Y8STPN46QFY0SD7JTFNU0","","237.80000000447035","img/food3.png","75","238.60000000149012","2","0","3","2","1,0.5,0,1,0.5,0,0.5,0,1","0,1,0.5,0,1,0.5,1,0.5,0","3","false",""
"","html-keyboard-response","319","163759","0.0-386.0","39U1BHVTDMD8BSDZF4ABB1PN3BW3T3","A1P6OXEJ86HQRM","3PIOQ99R7Y8STPN46QFY0SD7JTFNU0","","null","<img src=""img/food3.png"" style=""width:200px;border:14px solid red;"">","null","","","","","","","","","",""
"","image-keyboard-response","320","163980","0.0-388.0","39U1BHVTDMD8BSDZF4ABB1PN3BW3T3","A1P6OXEJ86HQRM","3PIOQ99R7Y8STPN46QFY0SD7JTFNU0","","220.39999999850988","img/food3.png","75","221.40000000596046","2","0","3","2","1,0.5,0,1,0.5,0,0.5,0,1","0,1,0.5,0,1,0.5,1,0.5,0","3","false",""
"","html-keyboard-response","321","164281","0.0-389.0","39U1BHVTDMD8BSDZF4ABB1PN3BW3T3","A1P6OXEJ86HQRM","3PIOQ99R7Y8STPN46QFY0SD7JTFNU0","","null","<img src=""img/food3.png"" style=""width:200px;border:14px solid red;"">","null","","","","","","","","","",""
"","image-keyboard-response","322","164587","0.0-391.0","39U1BHVTDMD8BSDZF4ABB1PN3BW3T3","A1P6OXEJ86HQRM","3PIOQ99R7Y8STPN46QFY0SD7JTFNU0","","304.29999999701977","img/food1.png","75","305.1000000014901","2","1","1","2","1,0.5,0,1,0.5,0,0.5,0,1","0,1,0.5,0,1,0.5,1,0.5,0","3","false",""
"","html-keyboard-response","323","164888","0.0-392.0","39U1BHVTDMD8BSDZF4ABB1PN3BW3T3","A1P6OXEJ86HQRM","3PIOQ99R7Y8STPN46QFY0SD7JTFNU0","","null","<img src=""img/food1.png"" style=""width:200px; border:14px solid green;"">","null","","","","","","","","","",""
"","image-keyboard-response","324","165094","0.0-394.0","39U1BHVTDMD8BSDZF4ABB1PN3BW3T3","A1P6OXEJ86HQRM","3PIOQ99R7Y8STPN46QFY0SD7JTFNU0","","204.79999999701977","img/food3.png","75","205.5","2","1","3","2","1,0.5,0,1,0.5,0,0.5,0,1","0,1,0.5,0,1,0.5,1,0.5,0","3","false",""
"","html-keyboard-response","325","165395","0.0-395.0","39U1BHVTDMD8BSDZF4ABB1PN3BW3T3","A1P6OXEJ86HQRM","3PIOQ99R7Y8STPN46QFY0SD7JTFNU0","","null","<img src=""img/food3.png"" style=""width:200px; border:14px solid green;"">","null","","","","","","","","","",""
"","image-keyboard-response","326","165641","0.0-397.0","39U1BHVTDMD8BSDZF4ABB1PN3BW3T3","A1P6OXEJ86HQRM","3PIOQ99R7Y8STPN46QFY0SD7JTFNU0","","245","img/food2.png","75","245.60000000149012","2","1","2","2","1,0.5,0,1,0.5,0,0.5,0,1","0,1,0.5,0,1,0.5,1,0.5,0","3","false",""
"","html-keyboard-response","327","165943","0.0-398.0","39U1BHVTDMD8BSDZF4ABB1PN3BW3T3","A1P6OXEJ86HQRM","3PIOQ99R7Y8STPN46QFY0SD7JTFNU0","","null","<img src=""img/food2.png"" style=""width:200px; border:14px solid green;"">","null","","","","","","","","","",""
"","image-keyboard-response","328","166187","0.0-400.0","39U1BHVTDMD8BSDZF4ABB1PN3BW3T3","A1P6OXEJ86HQRM","3PIOQ99R7Y8STPN46QFY0SD7JTFNU0","","243","img/food1.png","75","243.89999999850988","2","1","1","2","1,0.5,0,1,0.5,0,0.5,0,1","0,1,0.5,0,1,0.5,1,0.5,0","3","false",""
"","html-keyboard-response","329","166490","0.0-401.0","39U1BHVTDMD8BSDZF4ABB1PN3BW3T3","A1P6OXEJ86HQRM","3PIOQ99R7Y8STPN46QFY0SD7JTFNU0","","null","<img src=""img/food1.png"" style=""width:200px; border:14px solid green;"">","null","","","","","","","","","",""
"","image-keyboard-response","330","166746","0.0-403.0","39U1BHVTDMD8BSDZF4ABB1PN3BW3T3","A1P6OXEJ86HQRM","3PIOQ99R7Y8STPN46QFY0SD7JTFNU0","","255.89999999850988","img/food1.png","75","256.5","2","1","1","2","1,0.5,0,1,0.5,0,0.5,0,1","0,1,0.5,0,1,0.5,1,0.5,0","3","false",""
"","html-keyboard-response","331","167048","0.0-404.0","39U1BHVTDMD8BSDZF4ABB1PN3BW3T3","A1P6OXEJ86HQRM","3PIOQ99R7Y8STPN46QFY0SD7JTFNU0","","null","<img src=""img/food1.png"" style=""width:200px; border:14px solid green;"">","null","","","","","","","","","",""
"","image-keyboard-response","332","167278","0.0-406.0","39U1BHVTDMD8BSDZF4ABB1PN3BW3T3","A1P6OXEJ86HQRM","3PIOQ99R7Y8STPN46QFY0SD7JTFNU0","","229.29999999701977","img/food3.png","75","229.79999999701977","2","1","3","2","1,0.5,0,1,0.5,0,0.5,0,1","0,1,0.5,0,1,0.5,1,0.5,0","3","false",""
"","html-keyboard-response","333","167579","0.0-407.0","39U1BHVTDMD8BSDZF4ABB1PN3BW3T3","A1P6OXEJ86HQRM","3PIOQ99R7Y8STPN46QFY0SD7JTFNU0","","null","<img src=""img/food3.png"" style=""width:200px; border:14px solid green;"">","null","","","","","","","","","",""
"","image-keyboard-response","334","167814","0.0-409.0","39U1BHVTDMD8BSDZF4ABB1PN3BW3T3","A1P6OXEJ86HQRM","3PIOQ99R7Y8STPN46QFY0SD7JTFNU0","","234.70000000298023","img/food2.png","75","235.30000000447035","2","1","2","2","1,0.5,0,1,0.5,0,0.5,0,1","0,1,0.5,0,1,0.5,1,0.5,0","3","false",""
"","html-keyboard-response","335","168116","0.0-410.0","39U1BHVTDMD8BSDZF4ABB1PN3BW3T3","A1P6OXEJ86HQRM","3PIOQ99R7Y8STPN46QFY0SD7JTFNU0","","null","<img src=""img/food2.png"" style=""width:200px; border:14px solid green;"">","null","","","","","","","","","",""
"","image-keyboard-response","336","168340","0.0-412.0","39U1BHVTDMD8BSDZF4ABB1PN3BW3T3","A1P6OXEJ86HQRM","3PIOQ99R7Y8STPN46QFY0SD7JTFNU0","","223.10000000149012","img/food3.png","75","223.89999999850988","2","1","3","2","1,0.5,0,1,0.5,0,0.5,0,1","0,1,0.5,0,1,0.5,1,0.5,0","3","false",""
"","html-keyboard-response","337","168642","0.0-413.0","39U1BHVTDMD8BSDZF4ABB1PN3BW3T3","A1P6OXEJ86HQRM","3PIOQ99R7Y8STPN46QFY0SD7JTFNU0","","null","<img src=""img/food3.png"" style=""width:200px; border:14px solid green;"">","null","","","","","","","","","",""
"","image-keyboard-response","338","168865","0.0-415.0","39U1BHVTDMD8BSDZF4ABB1PN3BW3T3","A1P6OXEJ86HQRM","3PIOQ99R7Y8STPN46QFY0SD7JTFNU0","","222.89999999850988","img/food2.png","75","223.39999999850988","2","1","2","2","1,0.5,0,1,0.5,0,0.5,0,1","0,1,0.5,0,1,0.5,1,0.5,0","3","false",""
"","html-keyboard-response","339","169167","0.0-416.0","39U1BHVTDMD8BSDZF4ABB1PN3BW3T3","A1P6OXEJ86HQRM","3PIOQ99R7Y8STPN46QFY0SD7JTFNU0","","null","<img src=""img/food2.png"" style=""width:200px; border:14px solid green;"">","null","","","","","","","","","",""
"","image-keyboard-response","340","169366","0.0-418.0","39U1BHVTDMD8BSDZF4ABB1PN3BW3T3","A1P6OXEJ86HQRM","3PIOQ99R7Y8STPN46QFY0SD7JTFNU0","","198.29999999701977","img/food3.png","75","198.90000000596046","2","0","3","2","1,0.5,0,1,0.5,0,0.5,0,1","0,1,0.5,0,1,0.5,1,0.5,0","3","false",""
"","html-keyboard-response","341","169668","0.0-419.0","39U1BHVTDMD8BSDZF4ABB1PN3BW3T3","A1P6OXEJ86HQRM","3PIOQ99R7Y8STPN46QFY0SD7JTFNU0","","null","<img src=""img/food3.png"" style=""width:200px;border:14px solid red;"">","null","","","","","","","","","",""
"","image-keyboard-response","342","169942","0.0-421.0","39U1BHVTDMD8BSDZF4ABB1PN3BW3T3","A1P6OXEJ86HQRM","3PIOQ99R7Y8STPN46QFY0SD7JTFNU0","","273.30000000447035","img/food3.png","75","274.1000000014901","2","1","3","2","1,0.5,0,1,0.5,0,0.5,0,1","0,1,0.5,0,1,0.5,1,0.5,0","3","false",""
"","html-keyboard-response","343","170244","0.0-422.0","39U1BHVTDMD8BSDZF4ABB1PN3BW3T3","A1P6OXEJ86HQRM","3PIOQ99R7Y8STPN46QFY0SD7JTFNU0","","null","<img src=""img/food3.png"" style=""width:200px; border:14px solid green;"">","null","","","","","","","","","",""
"","image-keyboard-response","344","170527","0.0-424.0","39U1BHVTDMD8BSDZF4ABB1PN3BW3T3","A1P6OXEJ86HQRM","3PIOQ99R7Y8STPN46QFY0SD7JTFNU0","","281.70000000298023","img/food2.png","75","282.3999999985099","2","1","2","2","1,0.5,0,1,0.5,0,0.5,0,1","0,1,0.5,0,1,0.5,1,0.5,0","3","false",""
"","html-keyboard-response","345","170829","0.0-425.0","39U1BHVTDMD8BSDZF4ABB1PN3BW3T3","A1P6OXEJ86HQRM","3PIOQ99R7Y8STPN46QFY0SD7JTFNU0","","null","<img src=""img/food2.png"" style=""width:200px; border:14px solid green;"">","null","","","","","","","","","",""
"","image-keyboard-response","346","171077","0.0-427.0","39U1BHVTDMD8BSDZF4ABB1PN3BW3T3","A1P6OXEJ86HQRM","3PIOQ99R7Y8STPN46QFY0SD7JTFNU0","","247","img/food2.png","75","247.69999999552965","2","1","2","2","1,0.5,0,1,0.5,0,0.5,0,1","0,1,0.5,0,1,0.5,1,0.5,0","3","false",""
"","html-keyboard-response","347","171378","0.0-428.0","39U1BHVTDMD8BSDZF4ABB1PN3BW3T3","A1P6OXEJ86HQRM","3PIOQ99R7Y8STPN46QFY0SD7JTFNU0","","null","<img src=""img/food2.png"" style=""width:200px; border:14px solid green;"">","null","","","","","","","","","",""
"","image-keyboard-response","348","171596","0.0-430.0","39U1BHVTDMD8BSDZF4ABB1PN3BW3T3","A1P6OXEJ86HQRM","3PIOQ99R7Y8STPN46QFY0SD7JTFNU0","","216.80000000447035","img/food2.png","75","217.70000000298023","2","1","2","2","1,0.5,0,1,0.5,0,0.5,0,1","0,1,0.5,0,1,0.5,1,0.5,0","3","false",""
"","html-keyboard-response","349","171898","0.0-431.0","39U1BHVTDMD8BSDZF4ABB1PN3BW3T3","A1P6OXEJ86HQRM","3PIOQ99R7Y8STPN46QFY0SD7JTFNU0","","null","<img src=""img/food2.png"" style=""width:200px; border:14px solid green;"">","null","","","","","","","","","",""
"","image-keyboard-response","350","172164","0.0-433.0","39U1BHVTDMD8BSDZF4ABB1PN3BW3T3","A1P6OXEJ86HQRM","3PIOQ99R7Y8STPN46QFY0SD7JTFNU0","","264.69999999552965","img/food1.png","75","265.6000000014901","2","1","1","2","1,0.5,0,1,0.5,0,0.5,0,1","0,1,0.5,0,1,0.5,1,0.5,0","3","false",""
"","html-keyboard-response","351","172466","0.0-434.0","39U1BHVTDMD8BSDZF4ABB1PN3BW3T3","A1P6OXEJ86HQRM","3PIOQ99R7Y8STPN46QFY0SD7JTFNU0","","null","<img src=""img/food1.png"" style=""width:200px; border:14px solid green;"">","null","","","","","","","","","",""
"","image-keyboard-response","352","172764","0.0-436.0","39U1BHVTDMD8BSDZF4ABB1PN3BW3T3","A1P6OXEJ86HQRM","3PIOQ99R7Y8STPN46QFY0SD7JTFNU0","","296.5","img/food3.png","75","297.29999999701977","2","1","3","2","1,0.5,0,1,0.5,0,0.5,0,1","0,1,0.5,0,1,0.5,1,0.5,0","3","false",""
"","html-keyboard-response","353","173066","0.0-437.0","39U1BHVTDMD8BSDZF4ABB1PN3BW3T3","A1P6OXEJ86HQRM","3PIOQ99R7Y8STPN46QFY0SD7JTFNU0","","null","<img src=""img/food3.png"" style=""width:200px; border:14px solid green;"">","null","","","","","","","","","",""
"","image-keyboard-response","354","173279","0.0-439.0","39U1BHVTDMD8BSDZF4ABB1PN3BW3T3","A1P6OXEJ86HQRM","3PIOQ99R7Y8STPN46QFY0SD7JTFNU0","","213","img/food3.png","75","213.5","2","0","3","2","1,0.5,0,1,0.5,0,0.5,0,1","0,1,0.5,0,1,0.5,1,0.5,0","3","false",""
"","html-keyboard-response","355","173588","0.0-440.0","39U1BHVTDMD8BSDZF4ABB1PN3BW3T3","A1P6OXEJ86HQRM","3PIOQ99R7Y8STPN46QFY0SD7JTFNU0","","null","<img src=""img/food3.png"" style=""width:200px;border:14px solid red;"">","null","","","","","","","","","",""
"","image-keyboard-response","356","173800","0.0-442.0","39U1BHVTDMD8BSDZF4ABB1PN3BW3T3","A1P6OXEJ86HQRM","3PIOQ99R7Y8STPN46QFY0SD7JTFNU0","","210.09999999403954","img/food2.png","75","210.70000000298023","2","1","2","2","1,0.5,0,1,0.5,0,0.5,0,1","0,1,0.5,0,1,0.5,1,0.5,0","3","false",""
"","html-keyboard-response","357","174102","0.0-443.0","39U1BHVTDMD8BSDZF4ABB1PN3BW3T3","A1P6OXEJ86HQRM","3PIOQ99R7Y8STPN46QFY0SD7JTFNU0","","null","<img src=""img/food2.png"" style=""width:200px; border:14px solid green;"">","null","","","","","","","","","",""
"","image-keyboard-response","358","174382","0.0-445.0","39U1BHVTDMD8BSDZF4ABB1PN3BW3T3","A1P6OXEJ86HQRM","3PIOQ99R7Y8STPN46QFY0SD7JTFNU0","","278.90000000596046","img/food3.png","75","279.69999999552965","2","0","3","2","1,0.5,0,1,0.5,0,0.5,0,1","0,1,0.5,0,1,0.5,1,0.5,0","3","false",""
"","html-keyboard-response","359","174684","0.0-446.0","39U1BHVTDMD8BSDZF4ABB1PN3BW3T3","A1P6OXEJ86HQRM","3PIOQ99R7Y8STPN46QFY0SD7JTFNU0","","null","<img src=""img/food3.png"" style=""width:200px;border:14px solid red;"">","null","","","","","","","","","",""
"","image-keyboard-response","360","174938","0.0-448.0","39U1BHVTDMD8BSDZF4ABB1PN3BW3T3","A1P6OXEJ86HQRM","3PIOQ99R7Y8STPN46QFY0SD7JTFNU0","","253.39999999850988","img/food1.png","75","254","2","1","1","2","1,0.5,0,1,0.5,0,0.5,0,1","0,1,0.5,0,1,0.5,1,0.5,0","3","false",""
"","html-keyboard-response","361","175240","0.0-449.0","39U1BHVTDMD8BSDZF4ABB1PN3BW3T3","A1P6OXEJ86HQRM","3PIOQ99R7Y8STPN46QFY0SD7JTFNU0","","null","<img src=""img/food1.png"" style=""width:200px; border:14px solid green;"">","null","","","","","","","","","",""
"","image-keyboard-response","362","175504","0.0-451.0","39U1BHVTDMD8BSDZF4ABB1PN3BW3T3","A1P6OXEJ86HQRM","3PIOQ99R7Y8STPN46QFY0SD7JTFNU0","","263.79999999701977","img/food3.png","75","264.69999999552965","2","0","3","2","1,0.5,0,1,0.5,0,0.5,0,1","0,1,0.5,0,1,0.5,1,0.5,0","3","false",""
"","html-keyboard-response","363","175806","0.0-452.0","39U1BHVTDMD8BSDZF4ABB1PN3BW3T3","A1P6OXEJ86HQRM","3PIOQ99R7Y8STPN46QFY0SD7JTFNU0","","null","<img src=""img/food3.png"" style=""width:200px;border:14px solid red;"">","null","","","","","","","","","",""
"","instructions","364","178920","0.0-454.0","39U1BHVTDMD8BSDZF4ABB1PN3BW3T3","A1P6OXEJ86HQRM","3PIOQ99R7Y8STPN46QFY0SD7JTFNU0","[{""page_index"":0,""viewing_time"":3113.2999999970198}]","3113.5","","","","","","","","","","","",""
"","survey-text","365","182025","0.0-455.0","39U1BHVTDMD8BSDZF4ABB1PN3BW3T3","A1P6OXEJ86HQRM","3PIOQ99R7Y8STPN46QFY0SD7JTFNU0","","3102.60000000149","","","","","","","","","","","","{""Q0"":""A1P6OXEJ86HQRM""}"
