"success","trial_type","trial_index","time_elapsed","internal_node_id","assignmentID","mturkID","hitID","view_history","rt","stimulus","key_press","reactionTime","a","r","s","cond","reward_cond","reward_cond_actual","reward_matrix_idx","warning","responses"
"true","fullscreen","0","3132","0.0-0.0","3R9WASFE202ZDG2R5R0VYYF1RZDZFI","A1PNYLOKED8FWF","3HUR21WDDUBEMSLDIXZW1FAIHW8YX3","","","","","","","","","","","","","",""
"","instructions","1","24016","0.0-1.0","3R9WASFE202ZDG2R5R0VYYF1RZDZFI","A1PNYLOKED8FWF","3HUR21WDDUBEMSLDIXZW1FAIHW8YX3","[{""page_index"":0,""viewing_time"":1516.5},{""page_index"":1,""viewing_time"":2456.7999999523163},{""page_index"":2,""viewing_time"":3371.100000023842},{""page_index"":3,""viewing_time"":4828.799999952316},{""page_index"":4,""viewing_time"":2153.2000000476837},{""page_index"":5,""viewing_time"":3765},{""page_index"":6,""viewing_time"":2792}]","20883.599999904633","","","","","","","","","","","",""
"","image-keyboard-response","2","25501","0.0-2.0","3R9WASFE202ZDG2R5R0VYYF1RZDZFI","A1PNYLOKED8FWF","3HUR21WDDUBEMSLDIXZW1FAIHW8YX3","","1483.5","img/food2.png","74","1484.3999999761581","1","0","3","1","1,0.5,0,1,0.5,0,0.5,0,1","0.5,0,1,0.5,0,1,0,1,0.5","2","",""
"","html-keyboard-response","3","25808","0.0-3.0","3R9WASFE202ZDG2R5R0VYYF1RZDZFI","A1PNYLOKED8FWF","3HUR21WDDUBEMSLDIXZW1FAIHW8YX3","","null","<img src=""img/food2.png"" style=""width:200px;border:14px solid red;"">","null","","","","","","","","","",""
"","image-keyboard-response","4","26802","0.0-4.0","3R9WASFE202ZDG2R5R0VYYF1RZDZFI","A1PNYLOKED8FWF","3HUR21WDDUBEMSLDIXZW1FAIHW8YX3","","993","img/food2.png","74","993.6000000238419","1","0","3","1","1,0.5,0,1,0.5,0,0.5,0,1","0.5,0,1,0.5,0,1,0,1,0.5","2","",""
"","html-keyboard-response","5","27109","0.0-5.0","3R9WASFE202ZDG2R5R0VYYF1RZDZFI","A1PNYLOKED8FWF","3HUR21WDDUBEMSLDIXZW1FAIHW8YX3","","null","<img src=""img/food2.png"" style=""width:200px;border:14px solid red;"">","null","","","","","","","","","",""
"","image-keyboard-response","6","28765","0.0-6.0","3R9WASFE202ZDG2R5R0VYYF1RZDZFI","A1PNYLOKED8FWF","3HUR21WDDUBEMSLDIXZW1FAIHW8YX3","","1656.2000000476837","img/food1.png","74","1656.7000000476837","1","0","2","1","1,0.5,0,1,0.5,0,0.5,0,1","0.5,0,1,0.5,0,1,0,1,0.5","2","",""
"","html-keyboard-response","7","29077","0.0-7.0","3R9WASFE202ZDG2R5R0VYYF1RZDZFI","A1PNYLOKED8FWF","3HUR21WDDUBEMSLDIXZW1FAIHW8YX3","","null","<img src=""img/food1.png"" style=""width:200px;border:14px solid red;"">","null","","","","","","","","","",""
"","image-keyboard-response","8","29610","0.0-8.0","3R9WASFE202ZDG2R5R0VYYF1RZDZFI","A1PNYLOKED8FWF","3HUR21WDDUBEMSLDIXZW1FAIHW8YX3","","531.6000000238419","img/food3.png","74","532.2000000476837","1","0","1","1","1,0.5,0,1,0.5,0,0.5,0,1","0.5,0,1,0.5,0,1,0,1,0.5","2","",""
"","html-keyboard-response","9","29911","0.0-9.0","3R9WASFE202ZDG2R5R0VYYF1RZDZFI","A1PNYLOKED8FWF","3HUR21WDDUBEMSLDIXZW1FAIHW8YX3","","null","<img src=""img/food3.png"" style=""width:200px;border:14px solid red;"">","null","","","","","","","","","",""
"","image-keyboard-response","10","30269","0.0-10.0","3R9WASFE202ZDG2R5R0VYYF1RZDZFI","A1PNYLOKED8FWF","3HUR21WDDUBEMSLDIXZW1FAIHW8YX3","","357.2000000476837","img/food3.png","74","357.59999990463257","1","1","1","1","1,0.5,0,1,0.5,0,0.5,0,1","0.5,0,1,0.5,0,1,0,1,0.5","2","",""
"","html-keyboard-response","11","30570","0.0-11.0","3R9WASFE202ZDG2R5R0VYYF1RZDZFI","A1PNYLOKED8FWF","3HUR21WDDUBEMSLDIXZW1FAIHW8YX3","","null","<img src=""img/food3.png"" style=""width:200px; border:14px solid green;"">","null","","","","","","","","","",""
"","image-keyboard-response","12","31715","0.0-12.0","3R9WASFE202ZDG2R5R0VYYF1RZDZFI","A1PNYLOKED8FWF","3HUR21WDDUBEMSLDIXZW1FAIHW8YX3","","1144.6000000238419","img/food1.png","75","1145.1000000238419","2","0","2","1","1,0.5,0,1,0.5,0,0.5,0,1","0.5,0,1,0.5,0,1,0,1,0.5","2","",""
"","html-keyboard-response","13","32016","0.0-13.0","3R9WASFE202ZDG2R5R0VYYF1RZDZFI","A1PNYLOKED8FWF","3HUR21WDDUBEMSLDIXZW1FAIHW8YX3","","null","<img src=""img/food1.png"" style=""width:200px;border:14px solid red;"">","null","","","","","","","","","",""
"","image-keyboard-response","14","32408","0.0-14.0","3R9WASFE202ZDG2R5R0VYYF1RZDZFI","A1PNYLOKED8FWF","3HUR21WDDUBEMSLDIXZW1FAIHW8YX3","","391","img/food1.png","75","391.39999997615814","2","0","2","1","1,0.5,0,1,0.5,0,0.5,0,1","0.5,0,1,0.5,0,1,0,1,0.5","2","",""
"","html-keyboard-response","15","32709","0.0-15.0","3R9WASFE202ZDG2R5R0VYYF1RZDZFI","A1PNYLOKED8FWF","3HUR21WDDUBEMSLDIXZW1FAIHW8YX3","","null","<img src=""img/food1.png"" style=""width:200px;border:14px solid red;"">","null","","","","","","","","","",""
"","image-keyboard-response","16","33045","0.0-16.0","3R9WASFE202ZDG2R5R0VYYF1RZDZFI","A1PNYLOKED8FWF","3HUR21WDDUBEMSLDIXZW1FAIHW8YX3","","335.10000002384186","img/food1.png","76","335.5","3","1","2","1","1,0.5,0,1,0.5,0,0.5,0,1","0.5,0,1,0.5,0,1,0,1,0.5","2","",""
"","html-keyboard-response","17","33346","0.0-17.0","3R9WASFE202ZDG2R5R0VYYF1RZDZFI","A1PNYLOKED8FWF","3HUR21WDDUBEMSLDIXZW1FAIHW8YX3","","null","<img src=""img/food1.png"" style=""width:200px; border:14px solid green;"">","null","","","","","","","","","",""
"","image-keyboard-response","18","34329","0.0-18.0","3R9WASFE202ZDG2R5R0VYYF1RZDZFI","A1PNYLOKED8FWF","3HUR21WDDUBEMSLDIXZW1FAIHW8YX3","","982.1999999284744","img/food3.png","74","982.5","1","1","1","1","1,0.5,0,1,0.5,0,0.5,0,1","0.5,0,1,0.5,0,1,0,1,0.5","2","",""
"","html-keyboard-response","19","34630","0.0-19.0","3R9WASFE202ZDG2R5R0VYYF1RZDZFI","A1PNYLOKED8FWF","3HUR21WDDUBEMSLDIXZW1FAIHW8YX3","","null","<img src=""img/food3.png"" style=""width:200px; border:14px solid green;"">","null","","","","","","","","","",""
"","image-keyboard-response","20","35339","0.0-20.0","3R9WASFE202ZDG2R5R0VYYF1RZDZFI","A1PNYLOKED8FWF","3HUR21WDDUBEMSLDIXZW1FAIHW8YX3","","707.9000000953674","img/food2.png","75","708.2999999523163","2","1","3","1","1,0.5,0,1,0.5,0,0.5,0,1","0.5,0,1,0.5,0,1,0,1,0.5","2","",""
"","html-keyboard-response","21","35640","0.0-21.0","3R9WASFE202ZDG2R5R0VYYF1RZDZFI","A1PNYLOKED8FWF","3HUR21WDDUBEMSLDIXZW1FAIHW8YX3","","null","<img src=""img/food2.png"" style=""width:200px; border:14px solid green;"">","null","","","","","","","","","",""
"","image-keyboard-response","22","36450","0.0-22.0","3R9WASFE202ZDG2R5R0VYYF1RZDZFI","A1PNYLOKED8FWF","3HUR21WDDUBEMSLDIXZW1FAIHW8YX3","","809.1999999284744","img/food1.png","76","809.6000000238419","3","1","2","1","1,0.5,0,1,0.5,0,0.5,0,1","0.5,0,1,0.5,0,1,0,1,0.5","2","",""
"","html-keyboard-response","23","36750","0.0-23.0","3R9WASFE202ZDG2R5R0VYYF1RZDZFI","A1PNYLOKED8FWF","3HUR21WDDUBEMSLDIXZW1FAIHW8YX3","","null","<img src=""img/food1.png"" style=""width:200px; border:14px solid green;"">","null","","","","","","","","","",""
"","image-keyboard-response","24","37340","0.0-24.0","3R9WASFE202ZDG2R5R0VYYF1RZDZFI","A1PNYLOKED8FWF","3HUR21WDDUBEMSLDIXZW1FAIHW8YX3","","588.5","img/food2.png","75","589","2","1","3","1","1,0.5,0,1,0.5,0,0.5,0,1","0.5,0,1,0.5,0,1,0,1,0.5","2","",""
"","html-keyboard-response","25","37641","0.0-25.0","3R9WASFE202ZDG2R5R0VYYF1RZDZFI","A1PNYLOKED8FWF","3HUR21WDDUBEMSLDIXZW1FAIHW8YX3","","null","<img src=""img/food2.png"" style=""width:200px; border:14px solid green;"">","null","","","","","","","","","",""
"","image-keyboard-response","26","38406","0.0-26.0","3R9WASFE202ZDG2R5R0VYYF1RZDZFI","A1PNYLOKED8FWF","3HUR21WDDUBEMSLDIXZW1FAIHW8YX3","","764.5","img/food1.png","76","765","3","1","2","1","1,0.5,0,1,0.5,0,0.5,0,1","0.5,0,1,0.5,0,1,0,1,0.5","2","",""
"","html-keyboard-response","27","38707","0.0-27.0","3R9WASFE202ZDG2R5R0VYYF1RZDZFI","A1PNYLOKED8FWF","3HUR21WDDUBEMSLDIXZW1FAIHW8YX3","","null","<img src=""img/food1.png"" style=""width:200px; border:14px solid green;"">","null","","","","","","","","","",""
"","image-keyboard-response","28","39051","0.0-28.0","3R9WASFE202ZDG2R5R0VYYF1RZDZFI","A1PNYLOKED8FWF","3HUR21WDDUBEMSLDIXZW1FAIHW8YX3","","342.90000009536743","img/food1.png","76","343.39999997615814","3","1","2","1","1,0.5,0,1,0.5,0,0.5,0,1","0.5,0,1,0.5,0,1,0,1,0.5","2","",""
"","html-keyboard-response","29","39352","0.0-29.0","3R9WASFE202ZDG2R5R0VYYF1RZDZFI","A1PNYLOKED8FWF","3HUR21WDDUBEMSLDIXZW1FAIHW8YX3","","null","<img src=""img/food1.png"" style=""width:200px; border:14px solid green;"">","null","","","","","","","","","",""
"","image-keyboard-response","30","39787","0.0-30.0","3R9WASFE202ZDG2R5R0VYYF1RZDZFI","A1PNYLOKED8FWF","3HUR21WDDUBEMSLDIXZW1FAIHW8YX3","","434","img/food2.png","75","434.5","2","1","3","1","1,0.5,0,1,0.5,0,0.5,0,1","0.5,0,1,0.5,0,1,0,1,0.5","2","",""
"","html-keyboard-response","31","40088","0.0-31.0","3R9WASFE202ZDG2R5R0VYYF1RZDZFI","A1PNYLOKED8FWF","3HUR21WDDUBEMSLDIXZW1FAIHW8YX3","","null","<img src=""img/food2.png"" style=""width:200px; border:14px solid green;"">","null","","","","","","","","","",""
"","image-keyboard-response","32","40567","0.0-32.0","3R9WASFE202ZDG2R5R0VYYF1RZDZFI","A1PNYLOKED8FWF","3HUR21WDDUBEMSLDIXZW1FAIHW8YX3","","478.2999999523163","img/food2.png","75","478.7000000476837","2","1","3","1","1,0.5,0,1,0.5,0,0.5,0,1","0.5,0,1,0.5,0,1,0,1,0.5","2","",""
"","html-keyboard-response","33","40867","0.0-33.0","3R9WASFE202ZDG2R5R0VYYF1RZDZFI","A1PNYLOKED8FWF","3HUR21WDDUBEMSLDIXZW1FAIHW8YX3","","null","<img src=""img/food2.png"" style=""width:200px; border:14px solid green;"">","null","","","","","","","","","",""
"","image-keyboard-response","34","41391","0.0-34.0","3R9WASFE202ZDG2R5R0VYYF1RZDZFI","A1PNYLOKED8FWF","3HUR21WDDUBEMSLDIXZW1FAIHW8YX3","","522.6000000238419","img/food3.png","74","523.0999999046326","1","1","1","1","1,0.5,0,1,0.5,0,0.5,0,1","0.5,0,1,0.5,0,1,0,1,0.5","2","",""
"","html-keyboard-response","35","41692","0.0-35.0","3R9WASFE202ZDG2R5R0VYYF1RZDZFI","A1PNYLOKED8FWF","3HUR21WDDUBEMSLDIXZW1FAIHW8YX3","","null","<img src=""img/food3.png"" style=""width:200px; border:14px solid green;"">","null","","","","","","","","","",""
"","image-keyboard-response","36","43864","0.0-36.0","3R9WASFE202ZDG2R5R0VYYF1RZDZFI","A1PNYLOKED8FWF","3HUR21WDDUBEMSLDIXZW1FAIHW8YX3","","2171.2999999523163","img/food1.png","75","2171.9000000953674","2","0","2","1","1,0.5,0,1,0.5,0,0.5,0,1","0.5,0,1,0.5,0,1,0,1,0.5","2","",""
"","html-keyboard-response","37","44165","0.0-37.0","3R9WASFE202ZDG2R5R0VYYF1RZDZFI","A1PNYLOKED8FWF","3HUR21WDDUBEMSLDIXZW1FAIHW8YX3","","null","<img src=""img/food1.png"" style=""width:200px;border:14px solid red;"">","null","","","","","","","","","",""
"","image-keyboard-response","38","44966","0.0-38.0","3R9WASFE202ZDG2R5R0VYYF1RZDZFI","A1PNYLOKED8FWF","3HUR21WDDUBEMSLDIXZW1FAIHW8YX3","","799.7000000476837","img/food3.png","74","800.0999999046326","1","1","1","1","1,0.5,0,1,0.5,0,0.5,0,1","0.5,0,1,0.5,0,1,0,1,0.5","2","",""
"","html-keyboard-response","39","45267","0.0-39.0","3R9WASFE202ZDG2R5R0VYYF1RZDZFI","A1PNYLOKED8FWF","3HUR21WDDUBEMSLDIXZW1FAIHW8YX3","","null","<img src=""img/food3.png"" style=""width:200px; border:14px solid green;"">","null","","","","","","","","","",""
"","image-keyboard-response","40","46182","0.0-40.0","3R9WASFE202ZDG2R5R0VYYF1RZDZFI","A1PNYLOKED8FWF","3HUR21WDDUBEMSLDIXZW1FAIHW8YX3","","914.5","img/food2.png","75","915","2","1","3","1","1,0.5,0,1,0.5,0,0.5,0,1","0.5,0,1,0.5,0,1,0,1,0.5","2","",""
"","html-keyboard-response","41","46483","0.0-41.0","3R9WASFE202ZDG2R5R0VYYF1RZDZFI","A1PNYLOKED8FWF","3HUR21WDDUBEMSLDIXZW1FAIHW8YX3","","null","<img src=""img/food2.png"" style=""width:200px; border:14px solid green;"">","null","","","","","","","","","",""
"","image-keyboard-response","42","47127","0.0-42.0","3R9WASFE202ZDG2R5R0VYYF1RZDZFI","A1PNYLOKED8FWF","3HUR21WDDUBEMSLDIXZW1FAIHW8YX3","","643.0999999046326","img/food3.png","74","643.5","1","0","1","1","1,0.5,0,1,0.5,0,0.5,0,1","0.5,0,1,0.5,0,1,0,1,0.5","2","",""
"","html-keyboard-response","43","47427","0.0-43.0","3R9WASFE202ZDG2R5R0VYYF1RZDZFI","A1PNYLOKED8FWF","3HUR21WDDUBEMSLDIXZW1FAIHW8YX3","","null","<img src=""img/food3.png"" style=""width:200px;border:14px solid red;"">","null","","","","","","","","","",""
"","image-keyboard-response","44","48284","0.0-44.0","3R9WASFE202ZDG2R5R0VYYF1RZDZFI","A1PNYLOKED8FWF","3HUR21WDDUBEMSLDIXZW1FAIHW8YX3","","855.6999999284744","img/food1.png","76","856.2000000476837","3","1","2","1","1,0.5,0,1,0.5,0,0.5,0,1","0.5,0,1,0.5,0,1,0,1,0.5","2","",""
"","html-keyboard-response","45","48600","0.0-45.0","3R9WASFE202ZDG2R5R0VYYF1RZDZFI","A1PNYLOKED8FWF","3HUR21WDDUBEMSLDIXZW1FAIHW8YX3","","null","<img src=""img/food1.png"" style=""width:200px; border:14px solid green;"">","null","","","","","","","","","",""
"","image-keyboard-response","46","49491","0.0-46.0","3R9WASFE202ZDG2R5R0VYYF1RZDZFI","A1PNYLOKED8FWF","3HUR21WDDUBEMSLDIXZW1FAIHW8YX3","","890.4000000953674","img/food2.png","75","890.7999999523163","2","1","3","1","1,0.5,0,1,0.5,0,0.5,0,1","0.5,0,1,0.5,0,1,0,1,0.5","2","",""
"","html-keyboard-response","47","49791","0.0-47.0","3R9WASFE202ZDG2R5R0VYYF1RZDZFI","A1PNYLOKED8FWF","3HUR21WDDUBEMSLDIXZW1FAIHW8YX3","","null","<img src=""img/food2.png"" style=""width:200px; border:14px solid green;"">","null","","","","","","","","","",""
"","image-keyboard-response","48","50157","0.0-48.0","3R9WASFE202ZDG2R5R0VYYF1RZDZFI","A1PNYLOKED8FWF","3HUR21WDDUBEMSLDIXZW1FAIHW8YX3","","364.59999990463257","img/food2.png","75","365.10000002384186","2","1","3","1","1,0.5,0,1,0.5,0,0.5,0,1","0.5,0,1,0.5,0,1,0,1,0.5","2","",""
"","html-keyboard-response","49","50458","0.0-49.0","3R9WASFE202ZDG2R5R0VYYF1RZDZFI","A1PNYLOKED8FWF","3HUR21WDDUBEMSLDIXZW1FAIHW8YX3","","null","<img src=""img/food2.png"" style=""width:200px; border:14px solid green;"">","null","","","","","","","","","",""
"","image-keyboard-response","50","51168","0.0-50.0","3R9WASFE202ZDG2R5R0VYYF1RZDZFI","A1PNYLOKED8FWF","3HUR21WDDUBEMSLDIXZW1FAIHW8YX3","","708.6000000238419","img/food3.png","74","709.1999999284744","1","0","1","1","1,0.5,0,1,0.5,0,0.5,0,1","0.5,0,1,0.5,0,1,0,1,0.5","2","",""
"","html-keyboard-response","51","51469","0.0-51.0","3R9WASFE202ZDG2R5R0VYYF1RZDZFI","A1PNYLOKED8FWF","3HUR21WDDUBEMSLDIXZW1FAIHW8YX3","","null","<img src=""img/food3.png"" style=""width:200px;border:14px solid red;"">","null","","","","","","","","","",""
"","image-keyboard-response","52","53253","0.0-52.0","3R9WASFE202ZDG2R5R0VYYF1RZDZFI","A1PNYLOKED8FWF","3HUR21WDDUBEMSLDIXZW1FAIHW8YX3","","1783.4000000953674","img/food1.png","76","1783.6999999284744","3","1","2","1","1,0.5,0,1,0.5,0,0.5,0,1","0.5,0,1,0.5,0,1,0,1,0.5","2","",""
"","html-keyboard-response","53","53554","0.0-53.0","3R9WASFE202ZDG2R5R0VYYF1RZDZFI","A1PNYLOKED8FWF","3HUR21WDDUBEMSLDIXZW1FAIHW8YX3","","null","<img src=""img/food1.png"" style=""width:200px; border:14px solid green;"">","null","","","","","","","","","",""
"","image-keyboard-response","54","54410","0.0-54.0","3R9WASFE202ZDG2R5R0VYYF1RZDZFI","A1PNYLOKED8FWF","3HUR21WDDUBEMSLDIXZW1FAIHW8YX3","","855.3999999761581","img/food3.png","74","855.8000000715256","1","0","1","1","1,0.5,0,1,0.5,0,0.5,0,1","0.5,0,1,0.5,0,1,0,1,0.5","2","",""
"","html-keyboard-response","55","54711","0.0-55.0","3R9WASFE202ZDG2R5R0VYYF1RZDZFI","A1PNYLOKED8FWF","3HUR21WDDUBEMSLDIXZW1FAIHW8YX3","","null","<img src=""img/food3.png"" style=""width:200px;border:14px solid red;"">","null","","","","","","","","","",""
"","image-keyboard-response","56","55619","0.0-56.0","3R9WASFE202ZDG2R5R0VYYF1RZDZFI","A1PNYLOKED8FWF","3HUR21WDDUBEMSLDIXZW1FAIHW8YX3","","907.1000000238419","img/food1.png","75","907.6999999284744","2","0","2","1","1,0.5,0,1,0.5,0,0.5,0,1","0.5,0,1,0.5,0,1,0,1,0.5","2","",""
"","html-keyboard-response","57","55919","0.0-57.0","3R9WASFE202ZDG2R5R0VYYF1RZDZFI","A1PNYLOKED8FWF","3HUR21WDDUBEMSLDIXZW1FAIHW8YX3","","null","<img src=""img/food1.png"" style=""width:200px;border:14px solid red;"">","null","","","","","","","","","",""
"","image-keyboard-response","58","56542","0.0-58.0","3R9WASFE202ZDG2R5R0VYYF1RZDZFI","A1PNYLOKED8FWF","3HUR21WDDUBEMSLDIXZW1FAIHW8YX3","","621.6000000238419","img/food3.png","74","622","1","0","1","1","1,0.5,0,1,0.5,0,0.5,0,1","0.5,0,1,0.5,0,1,0,1,0.5","2","",""
"","html-keyboard-response","59","56843","0.0-59.0","3R9WASFE202ZDG2R5R0VYYF1RZDZFI","A1PNYLOKED8FWF","3HUR21WDDUBEMSLDIXZW1FAIHW8YX3","","null","<img src=""img/food3.png"" style=""width:200px;border:14px solid red;"">","null","","","","","","","","","",""
"","image-keyboard-response","60","57586","0.0-60.0","3R9WASFE202ZDG2R5R0VYYF1RZDZFI","A1PNYLOKED8FWF","3HUR21WDDUBEMSLDIXZW1FAIHW8YX3","","741.7000000476837","img/food2.png","75","742.2999999523163","2","1","3","1","1,0.5,0,1,0.5,0,0.5,0,1","0.5,0,1,0.5,0,1,0,1,0.5","2","",""
"","html-keyboard-response","61","57886","0.0-61.0","3R9WASFE202ZDG2R5R0VYYF1RZDZFI","A1PNYLOKED8FWF","3HUR21WDDUBEMSLDIXZW1FAIHW8YX3","","null","<img src=""img/food2.png"" style=""width:200px; border:14px solid green;"">","null","","","","","","","","","",""
"","image-keyboard-response","62","58624","0.0-62.0","3R9WASFE202ZDG2R5R0VYYF1RZDZFI","A1PNYLOKED8FWF","3HUR21WDDUBEMSLDIXZW1FAIHW8YX3","","736.6999999284744","img/food3.png","74","737.1000000238419","1","1","1","1","1,0.5,0,1,0.5,0,0.5,0,1","0.5,0,1,0.5,0,1,0,1,0.5","2","",""
"","html-keyboard-response","63","58924","0.0-63.0","3R9WASFE202ZDG2R5R0VYYF1RZDZFI","A1PNYLOKED8FWF","3HUR21WDDUBEMSLDIXZW1FAIHW8YX3","","null","<img src=""img/food3.png"" style=""width:200px; border:14px solid green;"">","null","","","","","","","","","",""
"","image-keyboard-response","64","59615","0.0-64.0","3R9WASFE202ZDG2R5R0VYYF1RZDZFI","A1PNYLOKED8FWF","3HUR21WDDUBEMSLDIXZW1FAIHW8YX3","","689.6999999284744","img/food1.png","76","690.2000000476837","3","1","2","1","1,0.5,0,1,0.5,0,0.5,0,1","0.5,0,1,0.5,0,1,0,1,0.5","2","",""
"","html-keyboard-response","65","59916","0.0-65.0","3R9WASFE202ZDG2R5R0VYYF1RZDZFI","A1PNYLOKED8FWF","3HUR21WDDUBEMSLDIXZW1FAIHW8YX3","","null","<img src=""img/food1.png"" style=""width:200px; border:14px solid green;"">","null","","","","","","","","","",""
"","image-keyboard-response","66","60254","0.0-66.0","3R9WASFE202ZDG2R5R0VYYF1RZDZFI","A1PNYLOKED8FWF","3HUR21WDDUBEMSLDIXZW1FAIHW8YX3","","337.39999997615814","img/food1.png","76","337.89999997615814","3","1","2","1","1,0.5,0,1,0.5,0,0.5,0,1","0.5,0,1,0.5,0,1,0,1,0.5","2","",""
"","html-keyboard-response","67","60555","0.0-67.0","3R9WASFE202ZDG2R5R0VYYF1RZDZFI","A1PNYLOKED8FWF","3HUR21WDDUBEMSLDIXZW1FAIHW8YX3","","null","<img src=""img/food1.png"" style=""width:200px; border:14px solid green;"">","null","","","","","","","","","",""
"","image-keyboard-response","68","60846","0.0-68.0","3R9WASFE202ZDG2R5R0VYYF1RZDZFI","A1PNYLOKED8FWF","3HUR21WDDUBEMSLDIXZW1FAIHW8YX3","","290.09999990463257","img/food1.png","76","290.60000002384186","3","1","2","1","1,0.5,0,1,0.5,0,0.5,0,1","0.5,0,1,0.5,0,1,0,1,0.5","2","",""
"","html-keyboard-response","69","61147","0.0-69.0","3R9WASFE202ZDG2R5R0VYYF1RZDZFI","A1PNYLOKED8FWF","3HUR21WDDUBEMSLDIXZW1FAIHW8YX3","","null","<img src=""img/food1.png"" style=""width:200px; border:14px solid green;"">","null","","","","","","","","","",""
"","image-keyboard-response","70","62021","0.0-70.0","3R9WASFE202ZDG2R5R0VYYF1RZDZFI","A1PNYLOKED8FWF","3HUR21WDDUBEMSLDIXZW1FAIHW8YX3","","873.3999999761581","img/food3.png","74","873.7999999523163","1","0","1","1","1,0.5,0,1,0.5,0,0.5,0,1","0.5,0,1,0.5,0,1,0,1,0.5","2","",""
"","html-keyboard-response","71","62322","0.0-71.0","3R9WASFE202ZDG2R5R0VYYF1RZDZFI","A1PNYLOKED8FWF","3HUR21WDDUBEMSLDIXZW1FAIHW8YX3","","null","<img src=""img/food3.png"" style=""width:200px;border:14px solid red;"">","null","","","","","","","","","",""
"","image-keyboard-response","72","63918","0.0-72.0","3R9WASFE202ZDG2R5R0VYYF1RZDZFI","A1PNYLOKED8FWF","3HUR21WDDUBEMSLDIXZW1FAIHW8YX3","","1595.5","img/food1.png","75","1595.8999999761581","2","0","2","1","1,0.5,0,1,0.5,0,0.5,0,1","0.5,0,1,0.5,0,1,0,1,0.5","2","",""
"","html-keyboard-response","73","64219","0.0-73.0","3R9WASFE202ZDG2R5R0VYYF1RZDZFI","A1PNYLOKED8FWF","3HUR21WDDUBEMSLDIXZW1FAIHW8YX3","","null","<img src=""img/food1.png"" style=""width:200px;border:14px solid red;"">","null","","","","","","","","","",""
"","image-keyboard-response","74","65149","0.0-74.0","3R9WASFE202ZDG2R5R0VYYF1RZDZFI","A1PNYLOKED8FWF","3HUR21WDDUBEMSLDIXZW1FAIHW8YX3","","929.1999999284744","img/food2.png","75","929.8000000715256","2","1","3","1","1,0.5,0,1,0.5,0,0.5,0,1","0.5,0,1,0.5,0,1,0,1,0.5","2","",""
"","html-keyboard-response","75","65450","0.0-75.0","3R9WASFE202ZDG2R5R0VYYF1RZDZFI","A1PNYLOKED8FWF","3HUR21WDDUBEMSLDIXZW1FAIHW8YX3","","null","<img src=""img/food2.png"" style=""width:200px; border:14px solid green;"">","null","","","","","","","","","",""
"","image-keyboard-response","76","66184","0.0-76.0","3R9WASFE202ZDG2R5R0VYYF1RZDZFI","A1PNYLOKED8FWF","3HUR21WDDUBEMSLDIXZW1FAIHW8YX3","","733.3000000715256","img/food1.png","76","733.6999999284744","3","1","2","1","1,0.5,0,1,0.5,0,0.5,0,1","0.5,0,1,0.5,0,1,0,1,0.5","2","",""
"","html-keyboard-response","77","66485","0.0-77.0","3R9WASFE202ZDG2R5R0VYYF1RZDZFI","A1PNYLOKED8FWF","3HUR21WDDUBEMSLDIXZW1FAIHW8YX3","","null","<img src=""img/food1.png"" style=""width:200px; border:14px solid green;"">","null","","","","","","","","","",""
"","image-keyboard-response","78","67195","0.0-78.0","3R9WASFE202ZDG2R5R0VYYF1RZDZFI","A1PNYLOKED8FWF","3HUR21WDDUBEMSLDIXZW1FAIHW8YX3","","709.2999999523163","img/food3.png","74","709.6000000238419","1","1","1","1","1,0.5,0,1,0.5,0,0.5,0,1","0.5,0,1,0.5,0,1,0,1,0.5","2","",""
"","html-keyboard-response","79","67497","0.0-79.0","3R9WASFE202ZDG2R5R0VYYF1RZDZFI","A1PNYLOKED8FWF","3HUR21WDDUBEMSLDIXZW1FAIHW8YX3","","null","<img src=""img/food3.png"" style=""width:200px; border:14px solid green;"">","null","","","","","","","","","",""
"","image-keyboard-response","80","68516","0.0-80.0","3R9WASFE202ZDG2R5R0VYYF1RZDZFI","A1PNYLOKED8FWF","3HUR21WDDUBEMSLDIXZW1FAIHW8YX3","","1019","img/food1.png","76","1019.3999999761581","3","1","2","1","1,0.5,0,1,0.5,0,0.5,0,1","0.5,0,1,0.5,0,1,0,1,0.5","2","",""
"","html-keyboard-response","81","68818","0.0-81.0","3R9WASFE202ZDG2R5R0VYYF1RZDZFI","A1PNYLOKED8FWF","3HUR21WDDUBEMSLDIXZW1FAIHW8YX3","","null","<img src=""img/food1.png"" style=""width:200px; border:14px solid green;"">","null","","","","","","","","","",""
"","image-keyboard-response","82","69224","0.0-82.0","3R9WASFE202ZDG2R5R0VYYF1RZDZFI","A1PNYLOKED8FWF","3HUR21WDDUBEMSLDIXZW1FAIHW8YX3","","406","img/food2.png","75","406.2999999523163","2","1","3","1","1,0.5,0,1,0.5,0,0.5,0,1","0.5,0,1,0.5,0,1,0,1,0.5","2","",""
"","html-keyboard-response","83","69525","0.0-83.0","3R9WASFE202ZDG2R5R0VYYF1RZDZFI","A1PNYLOKED8FWF","3HUR21WDDUBEMSLDIXZW1FAIHW8YX3","","null","<img src=""img/food2.png"" style=""width:200px; border:14px solid green;"">","null","","","","","","","","","",""
"","image-keyboard-response","84","70009","0.0-84.0","3R9WASFE202ZDG2R5R0VYYF1RZDZFI","A1PNYLOKED8FWF","3HUR21WDDUBEMSLDIXZW1FAIHW8YX3","","483.40000009536743","img/food1.png","76","483.89999997615814","3","1","2","1","1,0.5,0,1,0.5,0,0.5,0,1","0.5,0,1,0.5,0,1,0,1,0.5","2","",""
"","html-keyboard-response","85","70310","0.0-85.0","3R9WASFE202ZDG2R5R0VYYF1RZDZFI","A1PNYLOKED8FWF","3HUR21WDDUBEMSLDIXZW1FAIHW8YX3","","null","<img src=""img/food1.png"" style=""width:200px; border:14px solid green;"">","null","","","","","","","","","",""
"","image-keyboard-response","86","70760","0.0-86.0","3R9WASFE202ZDG2R5R0VYYF1RZDZFI","A1PNYLOKED8FWF","3HUR21WDDUBEMSLDIXZW1FAIHW8YX3","","449.7000000476837","img/food3.png","74","450.10000002384186","1","0","1","1","1,0.5,0,1,0.5,0,0.5,0,1","0.5,0,1,0.5,0,1,0,1,0.5","2","",""
"","html-keyboard-response","87","71061","0.0-87.0","3R9WASFE202ZDG2R5R0VYYF1RZDZFI","A1PNYLOKED8FWF","3HUR21WDDUBEMSLDIXZW1FAIHW8YX3","","null","<img src=""img/food3.png"" style=""width:200px;border:14px solid red;"">","null","","","","","","","","","",""
"","image-keyboard-response","88","72248","0.0-88.0","3R9WASFE202ZDG2R5R0VYYF1RZDZFI","A1PNYLOKED8FWF","3HUR21WDDUBEMSLDIXZW1FAIHW8YX3","","1186.9000000953674","img/food2.png","75","1187.3999999761581","2","1","3","1","1,0.5,0,1,0.5,0,0.5,0,1","0.5,0,1,0.5,0,1,0,1,0.5","2","",""
"","html-keyboard-response","89","72549","0.0-89.0","3R9WASFE202ZDG2R5R0VYYF1RZDZFI","A1PNYLOKED8FWF","3HUR21WDDUBEMSLDIXZW1FAIHW8YX3","","null","<img src=""img/food2.png"" style=""width:200px; border:14px solid green;"">","null","","","","","","","","","",""
"","image-keyboard-response","90","73339","0.0-90.0","3R9WASFE202ZDG2R5R0VYYF1RZDZFI","A1PNYLOKED8FWF","3HUR21WDDUBEMSLDIXZW1FAIHW8YX3","","789","img/food1.png","76","789.5","3","1","2","1","1,0.5,0,1,0.5,0,0.5,0,1","0.5,0,1,0.5,0,1,0,1,0.5","2","",""
"","html-keyboard-response","91","73640","0.0-91.0","3R9WASFE202ZDG2R5R0VYYF1RZDZFI","A1PNYLOKED8FWF","3HUR21WDDUBEMSLDIXZW1FAIHW8YX3","","null","<img src=""img/food1.png"" style=""width:200px; border:14px solid green;"">","null","","","","","","","","","",""
"","image-keyboard-response","92","74646","0.0-92.0","3R9WASFE202ZDG2R5R0VYYF1RZDZFI","A1PNYLOKED8FWF","3HUR21WDDUBEMSLDIXZW1FAIHW8YX3","","1005.2000000476837","img/food2.png","75","1005.5999999046326","2","1","3","1","1,0.5,0,1,0.5,0,0.5,0,1","0.5,0,1,0.5,0,1,0,1,0.5","2","",""
"","html-keyboard-response","93","74947","0.0-93.0","3R9WASFE202ZDG2R5R0VYYF1RZDZFI","A1PNYLOKED8FWF","3HUR21WDDUBEMSLDIXZW1FAIHW8YX3","","null","<img src=""img/food2.png"" style=""width:200px; border:14px solid green;"">","null","","","","","","","","","",""
"","image-keyboard-response","94","75425","0.0-94.0","3R9WASFE202ZDG2R5R0VYYF1RZDZFI","A1PNYLOKED8FWF","3HUR21WDDUBEMSLDIXZW1FAIHW8YX3","","477.5","img/food3.png","74","478","1","1","1","1","1,0.5,0,1,0.5,0,0.5,0,1","0.5,0,1,0.5,0,1,0,1,0.5","2","",""
"","html-keyboard-response","95","75726","0.0-95.0","3R9WASFE202ZDG2R5R0VYYF1RZDZFI","A1PNYLOKED8FWF","3HUR21WDDUBEMSLDIXZW1FAIHW8YX3","","null","<img src=""img/food3.png"" style=""width:200px; border:14px solid green;"">","null","","","","","","","","","",""
"","image-keyboard-response","96","76594","0.0-96.0","3R9WASFE202ZDG2R5R0VYYF1RZDZFI","A1PNYLOKED8FWF","3HUR21WDDUBEMSLDIXZW1FAIHW8YX3","","867.2999999523163","img/food2.png","75","867.7000000476837","2","1","3","1","1,0.5,0,1,0.5,0,0.5,0,1","0.5,0,1,0.5,0,1,0,1,0.5","2","",""
"","html-keyboard-response","97","76896","0.0-97.0","3R9WASFE202ZDG2R5R0VYYF1RZDZFI","A1PNYLOKED8FWF","3HUR21WDDUBEMSLDIXZW1FAIHW8YX3","","null","<img src=""img/food2.png"" style=""width:200px; border:14px solid green;"">","null","","","","","","","","","",""
"","image-keyboard-response","98","77237","0.0-98.0","3R9WASFE202ZDG2R5R0VYYF1RZDZFI","A1PNYLOKED8FWF","3HUR21WDDUBEMSLDIXZW1FAIHW8YX3","","340.90000009536743","img/food2.png","75","341.1999999284744","2","1","3","1","1,0.5,0,1,0.5,0,0.5,0,1","0.5,0,1,0.5,0,1,0,1,0.5","2","",""
"","html-keyboard-response","99","77539","0.0-99.0","3R9WASFE202ZDG2R5R0VYYF1RZDZFI","A1PNYLOKED8FWF","3HUR21WDDUBEMSLDIXZW1FAIHW8YX3","","null","<img src=""img/food2.png"" style=""width:200px; border:14px solid green;"">","null","","","","","","","","","",""
"","image-keyboard-response","100","78345","0.0-100.0","3R9WASFE202ZDG2R5R0VYYF1RZDZFI","A1PNYLOKED8FWF","3HUR21WDDUBEMSLDIXZW1FAIHW8YX3","","805.3000000715256","img/food1.png","76","805.8999999761581","3","1","2","1","1,0.5,0,1,0.5,0,0.5,0,1","0.5,0,1,0.5,0,1,0,1,0.5","2","",""
"","html-keyboard-response","101","78647","0.0-101.0","3R9WASFE202ZDG2R5R0VYYF1RZDZFI","A1PNYLOKED8FWF","3HUR21WDDUBEMSLDIXZW1FAIHW8YX3","","null","<img src=""img/food1.png"" style=""width:200px; border:14px solid green;"">","null","","","","","","","","","",""
"","image-keyboard-response","102","79164","0.0-102.0","3R9WASFE202ZDG2R5R0VYYF1RZDZFI","A1PNYLOKED8FWF","3HUR21WDDUBEMSLDIXZW1FAIHW8YX3","","517","img/food1.png","76","517.7999999523163","3","1","2","1","1,0.5,0,1,0.5,0,0.5,0,1","0.5,0,1,0.5,0,1,0,1,0.5","2","",""
"","html-keyboard-response","103","79467","0.0-103.0","3R9WASFE202ZDG2R5R0VYYF1RZDZFI","A1PNYLOKED8FWF","3HUR21WDDUBEMSLDIXZW1FAIHW8YX3","","null","<img src=""img/food1.png"" style=""width:200px; border:14px solid green;"">","null","","","","","","","","","",""
"","image-keyboard-response","104","80197","0.0-104.0","3R9WASFE202ZDG2R5R0VYYF1RZDZFI","A1PNYLOKED8FWF","3HUR21WDDUBEMSLDIXZW1FAIHW8YX3","","729.8000000715256","img/food2.png","75","730.1999999284744","2","1","3","1","1,0.5,0,1,0.5,0,0.5,0,1","0.5,0,1,0.5,0,1,0,1,0.5","2","",""
"","html-keyboard-response","105","80498","0.0-105.0","3R9WASFE202ZDG2R5R0VYYF1RZDZFI","A1PNYLOKED8FWF","3HUR21WDDUBEMSLDIXZW1FAIHW8YX3","","null","<img src=""img/food2.png"" style=""width:200px; border:14px solid green;"">","null","","","","","","","","","",""
"","image-keyboard-response","106","81072","0.0-106.0","3R9WASFE202ZDG2R5R0VYYF1RZDZFI","A1PNYLOKED8FWF","3HUR21WDDUBEMSLDIXZW1FAIHW8YX3","","573.5","img/food3.png","74","574.1000000238419","1","0","1","1","1,0.5,0,1,0.5,0,0.5,0,1","0.5,0,1,0.5,0,1,0,1,0.5","2","",""
"","html-keyboard-response","107","81373","0.0-107.0","3R9WASFE202ZDG2R5R0VYYF1RZDZFI","A1PNYLOKED8FWF","3HUR21WDDUBEMSLDIXZW1FAIHW8YX3","","null","<img src=""img/food3.png"" style=""width:200px;border:14px solid red;"">","null","","","","","","","","","",""
"","image-keyboard-response","108","81779","0.0-108.0","3R9WASFE202ZDG2R5R0VYYF1RZDZFI","A1PNYLOKED8FWF","3HUR21WDDUBEMSLDIXZW1FAIHW8YX3","","405.7999999523163","img/food3.png","74","406.3000000715256","1","0","1","1","1,0.5,0,1,0.5,0,0.5,0,1","0.5,0,1,0.5,0,1,0,1,0.5","2","",""
"","html-keyboard-response","109","82081","0.0-109.0","3R9WASFE202ZDG2R5R0VYYF1RZDZFI","A1PNYLOKED8FWF","3HUR21WDDUBEMSLDIXZW1FAIHW8YX3","","null","<img src=""img/food3.png"" style=""width:200px;border:14px solid red;"">","null","","","","","","","","","",""
"","image-keyboard-response","110","83004","0.0-110.0","3R9WASFE202ZDG2R5R0VYYF1RZDZFI","A1PNYLOKED8FWF","3HUR21WDDUBEMSLDIXZW1FAIHW8YX3","","922.5999999046326","img/food1.png","76","922.8999999761581","3","1","2","1","1,0.5,0,1,0.5,0,0.5,0,1","0.5,0,1,0.5,0,1,0,1,0.5","2","",""
"","html-keyboard-response","111","83305","0.0-111.0","3R9WASFE202ZDG2R5R0VYYF1RZDZFI","A1PNYLOKED8FWF","3HUR21WDDUBEMSLDIXZW1FAIHW8YX3","","null","<img src=""img/food1.png"" style=""width:200px; border:14px solid green;"">","null","","","","","","","","","",""
"","image-keyboard-response","112","83944","0.0-112.0","3R9WASFE202ZDG2R5R0VYYF1RZDZFI","A1PNYLOKED8FWF","3HUR21WDDUBEMSLDIXZW1FAIHW8YX3","","638.1999999284744","img/food2.png","75","638.7000000476837","2","1","3","1","1,0.5,0,1,0.5,0,0.5,0,1","0.5,0,1,0.5,0,1,0,1,0.5","2","",""
"","html-keyboard-response","113","84247","0.0-113.0","3R9WASFE202ZDG2R5R0VYYF1RZDZFI","A1PNYLOKED8FWF","3HUR21WDDUBEMSLDIXZW1FAIHW8YX3","","null","<img src=""img/food2.png"" style=""width:200px; border:14px solid green;"">","null","","","","","","","","","",""
"","image-keyboard-response","114","84867","0.0-114.0","3R9WASFE202ZDG2R5R0VYYF1RZDZFI","A1PNYLOKED8FWF","3HUR21WDDUBEMSLDIXZW1FAIHW8YX3","","619.4000000953674","img/food3.png","74","619.8999999761581","1","0","1","1","1,0.5,0,1,0.5,0,0.5,0,1","0.5,0,1,0.5,0,1,0,1,0.5","2","",""
"","html-keyboard-response","115","85168","0.0-115.0","3R9WASFE202ZDG2R5R0VYYF1RZDZFI","A1PNYLOKED8FWF","3HUR21WDDUBEMSLDIXZW1FAIHW8YX3","","null","<img src=""img/food3.png"" style=""width:200px;border:14px solid red;"">","null","","","","","","","","","",""
"","image-keyboard-response","116","85664","0.0-116.0","3R9WASFE202ZDG2R5R0VYYF1RZDZFI","A1PNYLOKED8FWF","3HUR21WDDUBEMSLDIXZW1FAIHW8YX3","","494.89999997615814","img/food3.png","74","495.5","1","1","1","1","1,0.5,0,1,0.5,0,0.5,0,1","0.5,0,1,0.5,0,1,0,1,0.5","2","",""
"","html-keyboard-response","117","85965","0.0-117.0","3R9WASFE202ZDG2R5R0VYYF1RZDZFI","A1PNYLOKED8FWF","3HUR21WDDUBEMSLDIXZW1FAIHW8YX3","","null","<img src=""img/food3.png"" style=""width:200px; border:14px solid green;"">","null","","","","","","","","","",""
"","image-keyboard-response","118","86623","0.0-118.0","3R9WASFE202ZDG2R5R0VYYF1RZDZFI","A1PNYLOKED8FWF","3HUR21WDDUBEMSLDIXZW1FAIHW8YX3","","658","img/food2.png","75","658.5","2","1","3","1","1,0.5,0,1,0.5,0,0.5,0,1","0.5,0,1,0.5,0,1,0,1,0.5","2","",""
"","html-keyboard-response","119","86925","0.0-119.0","3R9WASFE202ZDG2R5R0VYYF1RZDZFI","A1PNYLOKED8FWF","3HUR21WDDUBEMSLDIXZW1FAIHW8YX3","","null","<img src=""img/food2.png"" style=""width:200px; border:14px solid green;"">","null","","","","","","","","","",""
"","image-keyboard-response","120","87236","0.0-120.0","3R9WASFE202ZDG2R5R0VYYF1RZDZFI","A1PNYLOKED8FWF","3HUR21WDDUBEMSLDIXZW1FAIHW8YX3","","311","img/food2.png","75","311.39999997615814","2","1","3","1","1,0.5,0,1,0.5,0,0.5,0,1","0.5,0,1,0.5,0,1,0,1,0.5","2","",""
"","html-keyboard-response","121","87537","0.0-121.0","3R9WASFE202ZDG2R5R0VYYF1RZDZFI","A1PNYLOKED8FWF","3HUR21WDDUBEMSLDIXZW1FAIHW8YX3","","null","<img src=""img/food2.png"" style=""width:200px; border:14px solid green;"">","null","","","","","","","","","",""
"","image-keyboard-response","122","87824","0.0-122.0","3R9WASFE202ZDG2R5R0VYYF1RZDZFI","A1PNYLOKED8FWF","3HUR21WDDUBEMSLDIXZW1FAIHW8YX3","","285.5","img/food2.png","75","286","2","1","3","1","1,0.5,0,1,0.5,0,0.5,0,1","0.5,0,1,0.5,0,1,0,1,0.5","2","",""
"","html-keyboard-response","123","88125","0.0-123.0","3R9WASFE202ZDG2R5R0VYYF1RZDZFI","A1PNYLOKED8FWF","3HUR21WDDUBEMSLDIXZW1FAIHW8YX3","","null","<img src=""img/food2.png"" style=""width:200px; border:14px solid green;"">","null","","","","","","","","","",""
"","image-keyboard-response","124","88788","0.0-124.0","3R9WASFE202ZDG2R5R0VYYF1RZDZFI","A1PNYLOKED8FWF","3HUR21WDDUBEMSLDIXZW1FAIHW8YX3","","662.3000000715256","img/food3.png","74","662.6999999284744","1","0","1","1","1,0.5,0,1,0.5,0,0.5,0,1","0.5,0,1,0.5,0,1,0,1,0.5","2","",""
"","html-keyboard-response","125","89089","0.0-125.0","3R9WASFE202ZDG2R5R0VYYF1RZDZFI","A1PNYLOKED8FWF","3HUR21WDDUBEMSLDIXZW1FAIHW8YX3","","null","<img src=""img/food3.png"" style=""width:200px;border:14px solid red;"">","null","","","","","","","","","",""
"","image-keyboard-response","126","89815","0.0-126.0","3R9WASFE202ZDG2R5R0VYYF1RZDZFI","A1PNYLOKED8FWF","3HUR21WDDUBEMSLDIXZW1FAIHW8YX3","","725.5","img/food3.png","74","725.8999999761581","1","1","1","1","1,0.5,0,1,0.5,0,0.5,0,1","0.5,0,1,0.5,0,1,0,1,0.5","2","",""
"","html-keyboard-response","127","90116","0.0-127.0","3R9WASFE202ZDG2R5R0VYYF1RZDZFI","A1PNYLOKED8FWF","3HUR21WDDUBEMSLDIXZW1FAIHW8YX3","","null","<img src=""img/food3.png"" style=""width:200px; border:14px solid green;"">","null","","","","","","","","","",""
"","image-keyboard-response","128","90448","0.0-128.0","3R9WASFE202ZDG2R5R0VYYF1RZDZFI","A1PNYLOKED8FWF","3HUR21WDDUBEMSLDIXZW1FAIHW8YX3","","331.90000009536743","img/food3.png","74","332.39999997615814","1","1","1","1","1,0.5,0,1,0.5,0,0.5,0,1","0.5,0,1,0.5,0,1,0,1,0.5","2","",""
"","html-keyboard-response","129","90750","0.0-129.0","3R9WASFE202ZDG2R5R0VYYF1RZDZFI","A1PNYLOKED8FWF","3HUR21WDDUBEMSLDIXZW1FAIHW8YX3","","null","<img src=""img/food3.png"" style=""width:200px; border:14px solid green;"">","null","","","","","","","","","",""
"","image-keyboard-response","130","91007","0.0-130.0","3R9WASFE202ZDG2R5R0VYYF1RZDZFI","A1PNYLOKED8FWF","3HUR21WDDUBEMSLDIXZW1FAIHW8YX3","","256.7000000476837","img/food3.png","74","257.2999999523163","1","1","1","1","1,0.5,0,1,0.5,0,0.5,0,1","0.5,0,1,0.5,0,1,0,1,0.5","2","",""
"","html-keyboard-response","131","91309","0.0-131.0","3R9WASFE202ZDG2R5R0VYYF1RZDZFI","A1PNYLOKED8FWF","3HUR21WDDUBEMSLDIXZW1FAIHW8YX3","","null","<img src=""img/food3.png"" style=""width:200px; border:14px solid green;"">","null","","","","","","","","","",""
"","image-keyboard-response","132","92114","0.0-132.0","3R9WASFE202ZDG2R5R0VYYF1RZDZFI","A1PNYLOKED8FWF","3HUR21WDDUBEMSLDIXZW1FAIHW8YX3","","804.3999999761581","img/food1.png","76","804.8999999761581","3","1","2","1","1,0.5,0,1,0.5,0,0.5,0,1","0.5,0,1,0.5,0,1,0,1,0.5","2","",""
"","html-keyboard-response","133","92416","0.0-133.0","3R9WASFE202ZDG2R5R0VYYF1RZDZFI","A1PNYLOKED8FWF","3HUR21WDDUBEMSLDIXZW1FAIHW8YX3","","null","<img src=""img/food1.png"" style=""width:200px; border:14px solid green;"">","null","","","","","","","","","",""
"","image-keyboard-response","134","92933","0.0-134.0","3R9WASFE202ZDG2R5R0VYYF1RZDZFI","A1PNYLOKED8FWF","3HUR21WDDUBEMSLDIXZW1FAIHW8YX3","","516.9000000953674","img/food2.png","75","517.2999999523163","2","1","3","1","1,0.5,0,1,0.5,0,0.5,0,1","0.5,0,1,0.5,0,1,0,1,0.5","2","",""
"","html-keyboard-response","135","93234","0.0-135.0","3R9WASFE202ZDG2R5R0VYYF1RZDZFI","A1PNYLOKED8FWF","3HUR21WDDUBEMSLDIXZW1FAIHW8YX3","","null","<img src=""img/food2.png"" style=""width:200px; border:14px solid green;"">","null","","","","","","","","","",""
"","image-keyboard-response","136","93798","0.0-136.0","3R9WASFE202ZDG2R5R0VYYF1RZDZFI","A1PNYLOKED8FWF","3HUR21WDDUBEMSLDIXZW1FAIHW8YX3","","563.8000000715256","img/food1.png","76","564.2999999523163","3","1","2","1","1,0.5,0,1,0.5,0,0.5,0,1","0.5,0,1,0.5,0,1,0,1,0.5","2","",""
"","html-keyboard-response","137","94099","0.0-137.0","3R9WASFE202ZDG2R5R0VYYF1RZDZFI","A1PNYLOKED8FWF","3HUR21WDDUBEMSLDIXZW1FAIHW8YX3","","null","<img src=""img/food1.png"" style=""width:200px; border:14px solid green;"">","null","","","","","","","","","",""
"","image-keyboard-response","138","94478","0.0-138.0","3R9WASFE202ZDG2R5R0VYYF1RZDZFI","A1PNYLOKED8FWF","3HUR21WDDUBEMSLDIXZW1FAIHW8YX3","","378.2000000476837","img/food3.png","74","378.6999999284744","1","0","1","1","1,0.5,0,1,0.5,0,0.5,0,1","0.5,0,1,0.5,0,1,0,1,0.5","2","",""
"","html-keyboard-response","139","94779","0.0-139.0","3R9WASFE202ZDG2R5R0VYYF1RZDZFI","A1PNYLOKED8FWF","3HUR21WDDUBEMSLDIXZW1FAIHW8YX3","","null","<img src=""img/food3.png"" style=""width:200px;border:14px solid red;"">","null","","","","","","","","","",""
"","image-keyboard-response","140","95267","0.0-140.0","3R9WASFE202ZDG2R5R0VYYF1RZDZFI","A1PNYLOKED8FWF","3HUR21WDDUBEMSLDIXZW1FAIHW8YX3","","487.3000000715256","img/food2.png","75","487.89999997615814","2","1","3","1","1,0.5,0,1,0.5,0,0.5,0,1","0.5,0,1,0.5,0,1,0,1,0.5","2","",""
"","html-keyboard-response","141","95569","0.0-141.0","3R9WASFE202ZDG2R5R0VYYF1RZDZFI","A1PNYLOKED8FWF","3HUR21WDDUBEMSLDIXZW1FAIHW8YX3","","null","<img src=""img/food2.png"" style=""width:200px; border:14px solid green;"">","null","","","","","","","","","",""
"","image-keyboard-response","142","95948","0.0-142.0","3R9WASFE202ZDG2R5R0VYYF1RZDZFI","A1PNYLOKED8FWF","3HUR21WDDUBEMSLDIXZW1FAIHW8YX3","","378.39999997615814","img/food2.png","75","378.8000000715256","2","1","3","1","1,0.5,0,1,0.5,0,0.5,0,1","0.5,0,1,0.5,0,1,0,1,0.5","2","",""
"","html-keyboard-response","143","96249","0.0-143.0","3R9WASFE202ZDG2R5R0VYYF1RZDZFI","A1PNYLOKED8FWF","3HUR21WDDUBEMSLDIXZW1FAIHW8YX3","","null","<img src=""img/food2.png"" style=""width:200px; border:14px solid green;"">","null","","","","","","","","","",""
"","image-keyboard-response","144","96719","0.0-144.0","3R9WASFE202ZDG2R5R0VYYF1RZDZFI","A1PNYLOKED8FWF","3HUR21WDDUBEMSLDIXZW1FAIHW8YX3","","469.39999997615814","img/food3.png","74","469.89999997615814","1","1","1","1","1,0.5,0,1,0.5,0,0.5,0,1","0.5,0,1,0.5,0,1,0,1,0.5","2","",""
"","html-keyboard-response","145","97020","0.0-145.0","3R9WASFE202ZDG2R5R0VYYF1RZDZFI","A1PNYLOKED8FWF","3HUR21WDDUBEMSLDIXZW1FAIHW8YX3","","null","<img src=""img/food3.png"" style=""width:200px; border:14px solid green;"">","null","","","","","","","","","",""
"","image-keyboard-response","146","97423","0.0-146.0","3R9WASFE202ZDG2R5R0VYYF1RZDZFI","A1PNYLOKED8FWF","3HUR21WDDUBEMSLDIXZW1FAIHW8YX3","","402.2000000476837","img/food3.png","74","402.6999999284744","1","0","1","1","1,0.5,0,1,0.5,0,0.5,0,1","0.5,0,1,0.5,0,1,0,1,0.5","2","",""
"","html-keyboard-response","147","97731","0.0-147.0","3R9WASFE202ZDG2R5R0VYYF1RZDZFI","A1PNYLOKED8FWF","3HUR21WDDUBEMSLDIXZW1FAIHW8YX3","","null","<img src=""img/food3.png"" style=""width:200px;border:14px solid red;"">","null","","","","","","","","","",""
"","image-keyboard-response","148","98189","0.0-148.0","3R9WASFE202ZDG2R5R0VYYF1RZDZFI","A1PNYLOKED8FWF","3HUR21WDDUBEMSLDIXZW1FAIHW8YX3","","457.7999999523163","img/food1.png","76","458.2000000476837","3","1","2","1","1,0.5,0,1,0.5,0,0.5,0,1","0.5,0,1,0.5,0,1,0,1,0.5","2","",""
"","html-keyboard-response","149","98490","0.0-149.0","3R9WASFE202ZDG2R5R0VYYF1RZDZFI","A1PNYLOKED8FWF","3HUR21WDDUBEMSLDIXZW1FAIHW8YX3","","null","<img src=""img/food1.png"" style=""width:200px; border:14px solid green;"">","null","","","","","","","","","",""
"","image-keyboard-response","150","100584","0.0-150.0","3R9WASFE202ZDG2R5R0VYYF1RZDZFI","A1PNYLOKED8FWF","3HUR21WDDUBEMSLDIXZW1FAIHW8YX3","","2093.600000023842","img/food2.png","76","2094.100000023842","3","1","3","1","1,0.5,0,1,0.5,0,0.5,0,1","0.5,0,1,0.5,0,1,0,1,0.5","2","",""
"","html-keyboard-response","151","100887","0.0-151.0","3R9WASFE202ZDG2R5R0VYYF1RZDZFI","A1PNYLOKED8FWF","3HUR21WDDUBEMSLDIXZW1FAIHW8YX3","","null","<img src=""img/food2.png"" style=""width:200px; border:14px solid green;"">","null","","","","","","","","","",""
"","image-keyboard-response","152","102403","0.0-152.0","3R9WASFE202ZDG2R5R0VYYF1RZDZFI","A1PNYLOKED8FWF","3HUR21WDDUBEMSLDIXZW1FAIHW8YX3","","1515.7999999523163","img/food1.png","76","1516.2999999523163","3","1","2","1","1,0.5,0,1,0.5,0,0.5,0,1","0.5,0,1,0.5,0,1,0,1,0.5","2","",""
"","html-keyboard-response","153","102704","0.0-153.0","3R9WASFE202ZDG2R5R0VYYF1RZDZFI","A1PNYLOKED8FWF","3HUR21WDDUBEMSLDIXZW1FAIHW8YX3","","null","<img src=""img/food1.png"" style=""width:200px; border:14px solid green;"">","null","","","","","","","","","",""
"","image-keyboard-response","154","103042","0.0-154.0","3R9WASFE202ZDG2R5R0VYYF1RZDZFI","A1PNYLOKED8FWF","3HUR21WDDUBEMSLDIXZW1FAIHW8YX3","","336.89999997615814","img/food1.png","76","337.39999997615814","3","1","2","1","1,0.5,0,1,0.5,0,0.5,0,1","0.5,0,1,0.5,0,1,0,1,0.5","2","",""
"","html-keyboard-response","155","103343","0.0-155.0","3R9WASFE202ZDG2R5R0VYYF1RZDZFI","A1PNYLOKED8FWF","3HUR21WDDUBEMSLDIXZW1FAIHW8YX3","","null","<img src=""img/food1.png"" style=""width:200px; border:14px solid green;"">","null","","","","","","","","","",""
"","image-keyboard-response","156","103640","0.0-156.0","3R9WASFE202ZDG2R5R0VYYF1RZDZFI","A1PNYLOKED8FWF","3HUR21WDDUBEMSLDIXZW1FAIHW8YX3","","296.90000009536743","img/food1.png","76","297.1999999284744","3","1","2","1","1,0.5,0,1,0.5,0,0.5,0,1","0.5,0,1,0.5,0,1,0,1,0.5","2","",""
"","html-keyboard-response","157","103941","0.0-157.0","3R9WASFE202ZDG2R5R0VYYF1RZDZFI","A1PNYLOKED8FWF","3HUR21WDDUBEMSLDIXZW1FAIHW8YX3","","null","<img src=""img/food1.png"" style=""width:200px; border:14px solid green;"">","null","","","","","","","","","",""
"","image-keyboard-response","158","104623","0.0-158.0","3R9WASFE202ZDG2R5R0VYYF1RZDZFI","A1PNYLOKED8FWF","3HUR21WDDUBEMSLDIXZW1FAIHW8YX3","","681.7000000476837","img/food2.png","76","682.1999999284744","3","0","3","1","1,0.5,0,1,0.5,0,0.5,0,1","0.5,0,1,0.5,0,1,0,1,0.5","2","",""
"","html-keyboard-response","159","104924","0.0-159.0","3R9WASFE202ZDG2R5R0VYYF1RZDZFI","A1PNYLOKED8FWF","3HUR21WDDUBEMSLDIXZW1FAIHW8YX3","","null","<img src=""img/food2.png"" style=""width:200px;border:14px solid red;"">","null","","","","","","","","","",""
"","image-keyboard-response","160","105924","0.0-160.0","3R9WASFE202ZDG2R5R0VYYF1RZDZFI","A1PNYLOKED8FWF","3HUR21WDDUBEMSLDIXZW1FAIHW8YX3","","999.6000000238419","img/food3.png","76","1000.3000000715256","3","1","1","1","1,0.5,0,1,0.5,0,0.5,0,1","0.5,0,1,0.5,0,1,0,1,0.5","2","",""
"","html-keyboard-response","161","106235","0.0-161.0","3R9WASFE202ZDG2R5R0VYYF1RZDZFI","A1PNYLOKED8FWF","3HUR21WDDUBEMSLDIXZW1FAIHW8YX3","","null","<img src=""img/food3.png"" style=""width:200px; border:14px solid green;"">","null","","","","","","","","","",""
"","image-keyboard-response","162","107708","0.0-162.0","3R9WASFE202ZDG2R5R0VYYF1RZDZFI","A1PNYLOKED8FWF","3HUR21WDDUBEMSLDIXZW1FAIHW8YX3","","1472.5","img/food2.png","76","1473.1000000238419","3","1","3","1","1,0.5,0,1,0.5,0,0.5,0,1","0.5,0,1,0.5,0,1,0,1,0.5","2","",""
"","html-keyboard-response","163","108009","0.0-163.0","3R9WASFE202ZDG2R5R0VYYF1RZDZFI","A1PNYLOKED8FWF","3HUR21WDDUBEMSLDIXZW1FAIHW8YX3","","null","<img src=""img/food2.png"" style=""width:200px; border:14px solid green;"">","null","","","","","","","","","",""
"","image-keyboard-response","164","108401","0.0-164.0","3R9WASFE202ZDG2R5R0VYYF1RZDZFI","A1PNYLOKED8FWF","3HUR21WDDUBEMSLDIXZW1FAIHW8YX3","","391.40000009536743","img/food3.png","76","391.7999999523163","3","1","1","1","1,0.5,0,1,0.5,0,0.5,0,1","0.5,0,1,0.5,0,1,0,1,0.5","2","",""
"","html-keyboard-response","165","108702","0.0-165.0","3R9WASFE202ZDG2R5R0VYYF1RZDZFI","A1PNYLOKED8FWF","3HUR21WDDUBEMSLDIXZW1FAIHW8YX3","","null","<img src=""img/food3.png"" style=""width:200px; border:14px solid green;"">","null","","","","","","","","","",""
"","image-keyboard-response","166","108980","0.0-166.0","3R9WASFE202ZDG2R5R0VYYF1RZDZFI","A1PNYLOKED8FWF","3HUR21WDDUBEMSLDIXZW1FAIHW8YX3","","277.40000009536743","img/food3.png","76","277.89999997615814","3","1","1","1","1,0.5,0,1,0.5,0,0.5,0,1","0.5,0,1,0.5,0,1,0,1,0.5","2","",""
"","html-keyboard-response","167","109282","0.0-167.0","3R9WASFE202ZDG2R5R0VYYF1RZDZFI","A1PNYLOKED8FWF","3HUR21WDDUBEMSLDIXZW1FAIHW8YX3","","null","<img src=""img/food3.png"" style=""width:200px; border:14px solid green;"">","null","","","","","","","","","",""
"","image-keyboard-response","168","109543","0.0-168.0","3R9WASFE202ZDG2R5R0VYYF1RZDZFI","A1PNYLOKED8FWF","3HUR21WDDUBEMSLDIXZW1FAIHW8YX3","","260.5","img/food3.png","76","261","3","1","1","1","1,0.5,0,1,0.5,0,0.5,0,1","0.5,0,1,0.5,0,1,0,1,0.5","2","",""
"","html-keyboard-response","169","109844","0.0-169.0","3R9WASFE202ZDG2R5R0VYYF1RZDZFI","A1PNYLOKED8FWF","3HUR21WDDUBEMSLDIXZW1FAIHW8YX3","","null","<img src=""img/food3.png"" style=""width:200px; border:14px solid green;"">","null","","","","","","","","","",""
"","image-keyboard-response","170","110232","0.0-170.0","3R9WASFE202ZDG2R5R0VYYF1RZDZFI","A1PNYLOKED8FWF","3HUR21WDDUBEMSLDIXZW1FAIHW8YX3","","387.7000000476837","img/food1.png","76","388.1999999284744","3","1","2","1","1,0.5,0,1,0.5,0,0.5,0,1","0.5,0,1,0.5,0,1,0,1,0.5","2","",""
"","html-keyboard-response","171","110548","0.0-171.0","3R9WASFE202ZDG2R5R0VYYF1RZDZFI","A1PNYLOKED8FWF","3HUR21WDDUBEMSLDIXZW1FAIHW8YX3","","null","<img src=""img/food1.png"" style=""width:200px; border:14px solid green;"">","null","","","","","","","","","",""
"","image-keyboard-response","172","110755","0.0-172.0","3R9WASFE202ZDG2R5R0VYYF1RZDZFI","A1PNYLOKED8FWF","3HUR21WDDUBEMSLDIXZW1FAIHW8YX3","","206.69999992847443","img/food2.png","76","207.10000002384186","3","0","3","1","1,0.5,0,1,0.5,0,0.5,0,1","0.5,0,1,0.5,0,1,0,1,0.5","2","",""
"","html-keyboard-response","173","111056","0.0-173.0","3R9WASFE202ZDG2R5R0VYYF1RZDZFI","A1PNYLOKED8FWF","3HUR21WDDUBEMSLDIXZW1FAIHW8YX3","","null","<img src=""img/food2.png"" style=""width:200px;border:14px solid red;"">","null","","","","","","","","","",""
"","image-keyboard-response","174","111344","0.0-174.0","3R9WASFE202ZDG2R5R0VYYF1RZDZFI","A1PNYLOKED8FWF","3HUR21WDDUBEMSLDIXZW1FAIHW8YX3","","287.39999997615814","img/food2.png","76","287.89999997615814","3","0","3","1","1,0.5,0,1,0.5,0,0.5,0,1","0.5,0,1,0.5,0,1,0,1,0.5","2","",""
"","html-keyboard-response","175","111645","0.0-175.0","3R9WASFE202ZDG2R5R0VYYF1RZDZFI","A1PNYLOKED8FWF","3HUR21WDDUBEMSLDIXZW1FAIHW8YX3","","null","<img src=""img/food2.png"" style=""width:200px;border:14px solid red;"">","null","","","","","","","","","",""
"","image-keyboard-response","176","112145","0.0-176.0","3R9WASFE202ZDG2R5R0VYYF1RZDZFI","A1PNYLOKED8FWF","3HUR21WDDUBEMSLDIXZW1FAIHW8YX3","","499.40000009536743","img/food2.png","76","499.7999999523163","3","0","3","1","1,0.5,0,1,0.5,0,0.5,0,1","0.5,0,1,0.5,0,1,0,1,0.5","2","",""
"","html-keyboard-response","177","112446","0.0-177.0","3R9WASFE202ZDG2R5R0VYYF1RZDZFI","A1PNYLOKED8FWF","3HUR21WDDUBEMSLDIXZW1FAIHW8YX3","","null","<img src=""img/food2.png"" style=""width:200px;border:14px solid red;"">","null","","","","","","","","","",""
"","image-keyboard-response","178","113266","0.0-178.0","3R9WASFE202ZDG2R5R0VYYF1RZDZFI","A1PNYLOKED8FWF","3HUR21WDDUBEMSLDIXZW1FAIHW8YX3","","819.2000000476837","img/food1.png","76","819.6999999284744","3","1","2","1","1,0.5,0,1,0.5,0,0.5,0,1","0.5,0,1,0.5,0,1,0,1,0.5","2","",""
"","html-keyboard-response","179","113567","0.0-179.0","3R9WASFE202ZDG2R5R0VYYF1RZDZFI","A1PNYLOKED8FWF","3HUR21WDDUBEMSLDIXZW1FAIHW8YX3","","null","<img src=""img/food1.png"" style=""width:200px; border:14px solid green;"">","null","","","","","","","","","",""
"","image-keyboard-response","180","114317","0.0-180.0","3R9WASFE202ZDG2R5R0VYYF1RZDZFI","A1PNYLOKED8FWF","3HUR21WDDUBEMSLDIXZW1FAIHW8YX3","","749.2000000476837","img/food3.png","76","749.5","3","1","1","1","1,0.5,0,1,0.5,0,0.5,0,1","0.5,0,1,0.5,0,1,0,1,0.5","2","",""
"","html-keyboard-response","181","114621","0.0-181.0","3R9WASFE202ZDG2R5R0VYYF1RZDZFI","A1PNYLOKED8FWF","3HUR21WDDUBEMSLDIXZW1FAIHW8YX3","","null","<img src=""img/food3.png"" style=""width:200px; border:14px solid green;"">","null","","","","","","","","","",""
"","html-keyboard-response","182","116379","0.0-182.0","3R9WASFE202ZDG2R5R0VYYF1RZDZFI","A1PNYLOKED8FWF","3HUR21WDDUBEMSLDIXZW1FAIHW8YX3","","","","","","","","","","","","","",""
"","instructions","183","127883","0.0-183.0","3R9WASFE202ZDG2R5R0VYYF1RZDZFI","A1PNYLOKED8FWF","3HUR21WDDUBEMSLDIXZW1FAIHW8YX3","[{""page_index"":0,""viewing_time"":10064.400000095367},{""page_index"":1,""viewing_time"":1439.0999999046326}]","11503.600000023842","","","","","","","","","","","",""
"","image-keyboard-response","184","128188","0.0-184.0","3R9WASFE202ZDG2R5R0VYYF1RZDZFI","A1PNYLOKED8FWF","3HUR21WDDUBEMSLDIXZW1FAIHW8YX3","","304.7999999523163","img/food6.png","74","305.39999997615814","1","1","3","2","1,0.5,0,1,0.5,0,0.5,0,1","0,1,0.5,0,1,0.5,1,0.5,0","3","false",""
"","html-keyboard-response","185","128491","0.0-185.0","3R9WASFE202ZDG2R5R0VYYF1RZDZFI","A1PNYLOKED8FWF","3HUR21WDDUBEMSLDIXZW1FAIHW8YX3","","null","<img src=""img/food6.png"" style=""width:200px; border:14px solid green;"">","null","","","","","","","","","",""
"","image-keyboard-response","186","128866","0.0-187.0","3R9WASFE202ZDG2R5R0VYYF1RZDZFI","A1PNYLOKED8FWF","3HUR21WDDUBEMSLDIXZW1FAIHW8YX3","","374.8000000715256","img/food6.png","74","375.39999997615814","1","1","3","2","1,0.5,0,1,0.5,0,0.5,0,1","0,1,0.5,0,1,0.5,1,0.5,0","3","false",""
"","html-keyboard-response","187","129168","0.0-188.0","3R9WASFE202ZDG2R5R0VYYF1RZDZFI","A1PNYLOKED8FWF","3HUR21WDDUBEMSLDIXZW1FAIHW8YX3","","null","<img src=""img/food6.png"" style=""width:200px; border:14px solid green;"">","null","","","","","","","","","",""
"","image-keyboard-response","188","129631","0.0-190.0","3R9WASFE202ZDG2R5R0VYYF1RZDZFI","A1PNYLOKED8FWF","3HUR21WDDUBEMSLDIXZW1FAIHW8YX3","","462.90000009536743","img/food4.png","75","463.2999999523163","2","1","2","2","1,0.5,0,1,0.5,0,0.5,0,1","0,1,0.5,0,1,0.5,1,0.5,0","3","false",""
"","html-keyboard-response","189","129933","0.0-191.0","3R9WASFE202ZDG2R5R0VYYF1RZDZFI","A1PNYLOKED8FWF","3HUR21WDDUBEMSLDIXZW1FAIHW8YX3","","null","<img src=""img/food4.png"" style=""width:200px; border:14px solid green;"">","null","","","","","","","","","",""
"","image-keyboard-response","190","130358","0.0-193.0","3R9WASFE202ZDG2R5R0VYYF1RZDZFI","A1PNYLOKED8FWF","3HUR21WDDUBEMSLDIXZW1FAIHW8YX3","","424.8000000715256","img/food6.png","74","425.2999999523163","1","1","3","2","1,0.5,0,1,0.5,0,0.5,0,1","0,1,0.5,0,1,0.5,1,0.5,0","3","false",""
"","html-keyboard-response","191","130660","0.0-194.0","3R9WASFE202ZDG2R5R0VYYF1RZDZFI","A1PNYLOKED8FWF","3HUR21WDDUBEMSLDIXZW1FAIHW8YX3","","null","<img src=""img/food6.png"" style=""width:200px; border:14px solid green;"">","null","","","","","","","","","",""
"","image-keyboard-response","192","130970","0.0-196.0","3R9WASFE202ZDG2R5R0VYYF1RZDZFI","A1PNYLOKED8FWF","3HUR21WDDUBEMSLDIXZW1FAIHW8YX3","","309.90000009536743","img/food6.png","74","310.39999997615814","1","1","3","2","1,0.5,0,1,0.5,0,0.5,0,1","0,1,0.5,0,1,0.5,1,0.5,0","3","false",""
"","html-keyboard-response","193","131272","0.0-197.0","3R9WASFE202ZDG2R5R0VYYF1RZDZFI","A1PNYLOKED8FWF","3HUR21WDDUBEMSLDIXZW1FAIHW8YX3","","null","<img src=""img/food6.png"" style=""width:200px; border:14px solid green;"">","null","","","","","","","","","",""
"","image-keyboard-response","194","131661","0.0-199.0","3R9WASFE202ZDG2R5R0VYYF1RZDZFI","A1PNYLOKED8FWF","3HUR21WDDUBEMSLDIXZW1FAIHW8YX3","","387.89999997615814","img/food4.png","75","388.5","2","1","2","2","1,0.5,0,1,0.5,0,0.5,0,1","0,1,0.5,0,1,0.5,1,0.5,0","3","false",""
"","html-keyboard-response","195","131962","0.0-200.0","3R9WASFE202ZDG2R5R0VYYF1RZDZFI","A1PNYLOKED8FWF","3HUR21WDDUBEMSLDIXZW1FAIHW8YX3","","null","<img src=""img/food4.png"" style=""width:200px; border:14px solid green;"">","null","","","","","","","","","",""
"","image-keyboard-response","196","132347","0.0-202.0","3R9WASFE202ZDG2R5R0VYYF1RZDZFI","A1PNYLOKED8FWF","3HUR21WDDUBEMSLDIXZW1FAIHW8YX3","","384.3000000715256","img/food4.png","75","384.7999999523163","2","1","2","2","1,0.5,0,1,0.5,0,0.5,0,1","0,1,0.5,0,1,0.5,1,0.5,0","3","false",""
"","html-keyboard-response","197","132648","0.0-203.0","3R9WASFE202ZDG2R5R0VYYF1RZDZFI","A1PNYLOKED8FWF","3HUR21WDDUBEMSLDIXZW1FAIHW8YX3","","null","<img src=""img/food4.png"" style=""width:200px; border:14px solid green;"">","null","","","","","","","","","",""
"","image-keyboard-response","198","133235","0.0-205.0","3R9WASFE202ZDG2R5R0VYYF1RZDZFI","A1PNYLOKED8FWF","3HUR21WDDUBEMSLDIXZW1FAIHW8YX3","","586.2000000476837","img/food5.png","76","586.7999999523163","3","0","1","2","1,0.5,0,1,0.5,0,0.5,0,1","0,1,0.5,0,1,0.5,1,0.5,0","3","false",""
"","html-keyboard-response","199","133541","0.0-206.0","3R9WASFE202ZDG2R5R0VYYF1RZDZFI","A1PNYLOKED8FWF","3HUR21WDDUBEMSLDIXZW1FAIHW8YX3","","null","<img src=""img/food5.png"" style=""width:200px;border:14px solid red;"">","null","","","","","","","","","",""
"","image-keyboard-response","200","134339","0.0-208.0","3R9WASFE202ZDG2R5R0VYYF1RZDZFI","A1PNYLOKED8FWF","3HUR21WDDUBEMSLDIXZW1FAIHW8YX3","","797.2000000476837","img/food6.png","74","797.5999999046326","1","1","3","2","1,0.5,0,1,0.5,0,0.5,0,1","0,1,0.5,0,1,0.5,1,0.5,0","3","false",""
"","html-keyboard-response","201","134640","0.0-209.0","3R9WASFE202ZDG2R5R0VYYF1RZDZFI","A1PNYLOKED8FWF","3HUR21WDDUBEMSLDIXZW1FAIHW8YX3","","null","<img src=""img/food6.png"" style=""width:200px; border:14px solid green;"">","null","","","","","","","","","",""
"","image-keyboard-response","202","134989","0.0-211.0","3R9WASFE202ZDG2R5R0VYYF1RZDZFI","A1PNYLOKED8FWF","3HUR21WDDUBEMSLDIXZW1FAIHW8YX3","","347.8000000715256","img/food6.png","74","348.5","1","1","3","2","1,0.5,0,1,0.5,0,0.5,0,1","0,1,0.5,0,1,0.5,1,0.5,0","3","false",""
"","html-keyboard-response","203","135291","0.0-212.0","3R9WASFE202ZDG2R5R0VYYF1RZDZFI","A1PNYLOKED8FWF","3HUR21WDDUBEMSLDIXZW1FAIHW8YX3","","null","<img src=""img/food6.png"" style=""width:200px; border:14px solid green;"">","null","","","","","","","","","",""
"","image-keyboard-response","204","135761","0.0-214.0","3R9WASFE202ZDG2R5R0VYYF1RZDZFI","A1PNYLOKED8FWF","3HUR21WDDUBEMSLDIXZW1FAIHW8YX3","","469.7000000476837","img/food4.png","75","470.09999990463257","2","1","2","2","1,0.5,0,1,0.5,0,0.5,0,1","0,1,0.5,0,1,0.5,1,0.5,0","3","false",""
"","html-keyboard-response","205","136062","0.0-215.0","3R9WASFE202ZDG2R5R0VYYF1RZDZFI","A1PNYLOKED8FWF","3HUR21WDDUBEMSLDIXZW1FAIHW8YX3","","null","<img src=""img/food4.png"" style=""width:200px; border:14px solid green;"">","null","","","","","","","","","",""
"","image-keyboard-response","206","136367","0.0-217.0","3R9WASFE202ZDG2R5R0VYYF1RZDZFI","A1PNYLOKED8FWF","3HUR21WDDUBEMSLDIXZW1FAIHW8YX3","","304.09999990463257","img/food4.png","75","304.89999997615814","2","1","2","2","1,0.5,0,1,0.5,0,0.5,0,1","0,1,0.5,0,1,0.5,1,0.5,0","3","false",""
"","html-keyboard-response","207","136668","0.0-218.0","3R9WASFE202ZDG2R5R0VYYF1RZDZFI","A1PNYLOKED8FWF","3HUR21WDDUBEMSLDIXZW1FAIHW8YX3","","null","<img src=""img/food4.png"" style=""width:200px; border:14px solid green;"">","null","","","","","","","","","",""
"","image-keyboard-response","208","137068","0.0-220.0","3R9WASFE202ZDG2R5R0VYYF1RZDZFI","A1PNYLOKED8FWF","3HUR21WDDUBEMSLDIXZW1FAIHW8YX3","","399","img/food6.png","74","399.5","1","1","3","2","1,0.5,0,1,0.5,0,0.5,0,1","0,1,0.5,0,1,0.5,1,0.5,0","3","false",""
"","html-keyboard-response","209","137369","0.0-221.0","3R9WASFE202ZDG2R5R0VYYF1RZDZFI","A1PNYLOKED8FWF","3HUR21WDDUBEMSLDIXZW1FAIHW8YX3","","null","<img src=""img/food6.png"" style=""width:200px; border:14px solid green;"">","null","","","","","","","","","",""
"","image-keyboard-response","210","137926","0.0-223.0","3R9WASFE202ZDG2R5R0VYYF1RZDZFI","A1PNYLOKED8FWF","3HUR21WDDUBEMSLDIXZW1FAIHW8YX3","","556","img/food6.png","74","556.3999999761581","1","1","3","2","1,0.5,0,1,0.5,0,0.5,0,1","0,1,0.5,0,1,0.5,1,0.5,0","3","false",""
"","html-keyboard-response","211","138228","0.0-224.0","3R9WASFE202ZDG2R5R0VYYF1RZDZFI","A1PNYLOKED8FWF","3HUR21WDDUBEMSLDIXZW1FAIHW8YX3","","null","<img src=""img/food6.png"" style=""width:200px; border:14px solid green;"">","null","","","","","","","","","",""
"","image-keyboard-response","212","138568","0.0-226.0","3R9WASFE202ZDG2R5R0VYYF1RZDZFI","A1PNYLOKED8FWF","3HUR21WDDUBEMSLDIXZW1FAIHW8YX3","","339.8000000715256","img/food4.png","75","340.39999997615814","2","1","2","2","1,0.5,0,1,0.5,0,0.5,0,1","0,1,0.5,0,1,0.5,1,0.5,0","3","false",""
"","html-keyboard-response","213","138870","0.0-227.0","3R9WASFE202ZDG2R5R0VYYF1RZDZFI","A1PNYLOKED8FWF","3HUR21WDDUBEMSLDIXZW1FAIHW8YX3","","null","<img src=""img/food4.png"" style=""width:200px; border:14px solid green;"">","null","","","","","","","","","",""
"","image-keyboard-response","214","139632","0.0-229.0","3R9WASFE202ZDG2R5R0VYYF1RZDZFI","A1PNYLOKED8FWF","3HUR21WDDUBEMSLDIXZW1FAIHW8YX3","","762","img/food5.png","76","762.3999999761581","3","0","1","2","1,0.5,0,1,0.5,0,0.5,0,1","0,1,0.5,0,1,0.5,1,0.5,0","3","false",""
"","html-keyboard-response","215","139933","0.0-230.0","3R9WASFE202ZDG2R5R0VYYF1RZDZFI","A1PNYLOKED8FWF","3HUR21WDDUBEMSLDIXZW1FAIHW8YX3","","null","<img src=""img/food5.png"" style=""width:200px;border:14px solid red;"">","null","","","","","","","","","",""
"","image-keyboard-response","216","140478","0.0-232.0","3R9WASFE202ZDG2R5R0VYYF1RZDZFI","A1PNYLOKED8FWF","3HUR21WDDUBEMSLDIXZW1FAIHW8YX3","","544.2000000476837","img/food6.png","74","544.7999999523163","1","1","3","2","1,0.5,0,1,0.5,0,0.5,0,1","0,1,0.5,0,1,0.5,1,0.5,0","3","false",""
"","html-keyboard-response","217","140780","0.0-233.0","3R9WASFE202ZDG2R5R0VYYF1RZDZFI","A1PNYLOKED8FWF","3HUR21WDDUBEMSLDIXZW1FAIHW8YX3","","null","<img src=""img/food6.png"" style=""width:200px; border:14px solid green;"">","null","","","","","","","","","",""
"","image-keyboard-response","218","141314","0.0-235.0","3R9WASFE202ZDG2R5R0VYYF1RZDZFI","A1PNYLOKED8FWF","3HUR21WDDUBEMSLDIXZW1FAIHW8YX3","","534","img/food5.png","75","534.3999999761581","2","1","1","2","1,0.5,0,1,0.5,0,0.5,0,1","0,1,0.5,0,1,0.5,1,0.5,0","3","false",""
"","html-keyboard-response","219","141615","0.0-236.0","3R9WASFE202ZDG2R5R0VYYF1RZDZFI","A1PNYLOKED8FWF","3HUR21WDDUBEMSLDIXZW1FAIHW8YX3","","null","<img src=""img/food5.png"" style=""width:200px; border:14px solid green;"">","null","","","","","","","","","",""
"","image-keyboard-response","220","142137","0.0-238.0","3R9WASFE202ZDG2R5R0VYYF1RZDZFI","A1PNYLOKED8FWF","3HUR21WDDUBEMSLDIXZW1FAIHW8YX3","","521.5","img/food6.png","74","522","1","1","3","2","1,0.5,0,1,0.5,0,0.5,0,1","0,1,0.5,0,1,0.5,1,0.5,0","3","false",""
"","html-keyboard-response","221","142438","0.0-239.0","3R9WASFE202ZDG2R5R0VYYF1RZDZFI","A1PNYLOKED8FWF","3HUR21WDDUBEMSLDIXZW1FAIHW8YX3","","null","<img src=""img/food6.png"" style=""width:200px; border:14px solid green;"">","null","","","","","","","","","",""
"","image-keyboard-response","222","142754","0.0-241.0","3R9WASFE202ZDG2R5R0VYYF1RZDZFI","A1PNYLOKED8FWF","3HUR21WDDUBEMSLDIXZW1FAIHW8YX3","","315.5","img/food6.png","74","315.89999997615814","1","1","3","2","1,0.5,0,1,0.5,0,0.5,0,1","0,1,0.5,0,1,0.5,1,0.5,0","3","false",""
"","html-keyboard-response","223","143055","0.0-242.0","3R9WASFE202ZDG2R5R0VYYF1RZDZFI","A1PNYLOKED8FWF","3HUR21WDDUBEMSLDIXZW1FAIHW8YX3","","null","<img src=""img/food6.png"" style=""width:200px; border:14px solid green;"">","null","","","","","","","","","",""
"","image-keyboard-response","224","143629","0.0-244.0","3R9WASFE202ZDG2R5R0VYYF1RZDZFI","A1PNYLOKED8FWF","3HUR21WDDUBEMSLDIXZW1FAIHW8YX3","","573.6000000238419","img/food4.png","75","574","2","1","2","2","1,0.5,0,1,0.5,0,0.5,0,1","0,1,0.5,0,1,0.5,1,0.5,0","3","false",""
"","html-keyboard-response","225","143931","0.0-245.0","3R9WASFE202ZDG2R5R0VYYF1RZDZFI","A1PNYLOKED8FWF","3HUR21WDDUBEMSLDIXZW1FAIHW8YX3","","null","<img src=""img/food4.png"" style=""width:200px; border:14px solid green;"">","null","","","","","","","","","",""
"","image-keyboard-response","226","144265","0.0-247.0","3R9WASFE202ZDG2R5R0VYYF1RZDZFI","A1PNYLOKED8FWF","3HUR21WDDUBEMSLDIXZW1FAIHW8YX3","","332.89999997615814","img/food4.png","75","333.5","2","1","2","2","1,0.5,0,1,0.5,0,0.5,0,1","0,1,0.5,0,1,0.5,1,0.5,0","3","false",""
"","html-keyboard-response","227","144566","0.0-248.0","3R9WASFE202ZDG2R5R0VYYF1RZDZFI","A1PNYLOKED8FWF","3HUR21WDDUBEMSLDIXZW1FAIHW8YX3","","null","<img src=""img/food4.png"" style=""width:200px; border:14px solid green;"">","null","","","","","","","","","",""
"","image-keyboard-response","228","145495","0.0-250.0","3R9WASFE202ZDG2R5R0VYYF1RZDZFI","A1PNYLOKED8FWF","3HUR21WDDUBEMSLDIXZW1FAIHW8YX3","","928.2000000476837","img/food5.png","76","928.5999999046326","3","1","1","2","1,0.5,0,1,0.5,0,0.5,0,1","0,1,0.5,0,1,0.5,1,0.5,0","3","false",""
"","html-keyboard-response","229","145796","0.0-251.0","3R9WASFE202ZDG2R5R0VYYF1RZDZFI","A1PNYLOKED8FWF","3HUR21WDDUBEMSLDIXZW1FAIHW8YX3","","null","<img src=""img/food5.png"" style=""width:200px; border:14px solid green;"">","null","","","","","","","","","",""
"","image-keyboard-response","230","146360","0.0-253.0","3R9WASFE202ZDG2R5R0VYYF1RZDZFI","A1PNYLOKED8FWF","3HUR21WDDUBEMSLDIXZW1FAIHW8YX3","","563.1000000238419","img/food6.png","74","563.5","1","1","3","2","1,0.5,0,1,0.5,0,0.5,0,1","0,1,0.5,0,1,0.5,1,0.5,0","3","false",""
"","html-keyboard-response","231","146662","0.0-254.0","3R9WASFE202ZDG2R5R0VYYF1RZDZFI","A1PNYLOKED8FWF","3HUR21WDDUBEMSLDIXZW1FAIHW8YX3","","null","<img src=""img/food6.png"" style=""width:200px; border:14px solid green;"">","null","","","","","","","","","",""
"","image-keyboard-response","232","147108","0.0-256.0","3R9WASFE202ZDG2R5R0VYYF1RZDZFI","A1PNYLOKED8FWF","3HUR21WDDUBEMSLDIXZW1FAIHW8YX3","","445.39999997615814","img/food6.png","74","445.90000009536743","1","1","3","2","1,0.5,0,1,0.5,0,0.5,0,1","0,1,0.5,0,1,0.5,1,0.5,0","3","false",""
"","html-keyboard-response","233","147410","0.0-257.0","3R9WASFE202ZDG2R5R0VYYF1RZDZFI","A1PNYLOKED8FWF","3HUR21WDDUBEMSLDIXZW1FAIHW8YX3","","null","<img src=""img/food6.png"" style=""width:200px; border:14px solid green;"">","null","","","","","","","","","",""
"","image-keyboard-response","234","148084","0.0-259.0","3R9WASFE202ZDG2R5R0VYYF1RZDZFI","A1PNYLOKED8FWF","3HUR21WDDUBEMSLDIXZW1FAIHW8YX3","","673.1000000238419","img/food5.png","76","673.6000000238419","3","0","1","2","1,0.5,0,1,0.5,0,0.5,0,1","0,1,0.5,0,1,0.5,1,0.5,0","3","false",""
"","html-keyboard-response","235","148386","0.0-260.0","3R9WASFE202ZDG2R5R0VYYF1RZDZFI","A1PNYLOKED8FWF","3HUR21WDDUBEMSLDIXZW1FAIHW8YX3","","null","<img src=""img/food5.png"" style=""width:200px;border:14px solid red;"">","null","","","","","","","","","",""
"","image-keyboard-response","236","148734","0.0-262.0","3R9WASFE202ZDG2R5R0VYYF1RZDZFI","A1PNYLOKED8FWF","3HUR21WDDUBEMSLDIXZW1FAIHW8YX3","","348","img/food5.png","76","348.5","3","0","1","2","1,0.5,0,1,0.5,0,0.5,0,1","0,1,0.5,0,1,0.5,1,0.5,0","3","false",""
"","html-keyboard-response","237","149035","0.0-263.0","3R9WASFE202ZDG2R5R0VYYF1RZDZFI","A1PNYLOKED8FWF","3HUR21WDDUBEMSLDIXZW1FAIHW8YX3","","null","<img src=""img/food5.png"" style=""width:200px;border:14px solid red;"">","null","","","","","","","","","",""
"","image-keyboard-response","238","149656","0.0-265.0","3R9WASFE202ZDG2R5R0VYYF1RZDZFI","A1PNYLOKED8FWF","3HUR21WDDUBEMSLDIXZW1FAIHW8YX3","","620.1000000238419","img/food5.png","75","620.6000000238419","2","1","1","2","1,0.5,0,1,0.5,0,0.5,0,1","0,1,0.5,0,1,0.5,1,0.5,0","3","false",""
"","html-keyboard-response","239","149957","0.0-266.0","3R9WASFE202ZDG2R5R0VYYF1RZDZFI","A1PNYLOKED8FWF","3HUR21WDDUBEMSLDIXZW1FAIHW8YX3","","null","<img src=""img/food5.png"" style=""width:200px; border:14px solid green;"">","null","","","","","","","","","",""
"","image-keyboard-response","240","150654","0.0-268.0","3R9WASFE202ZDG2R5R0VYYF1RZDZFI","A1PNYLOKED8FWF","3HUR21WDDUBEMSLDIXZW1FAIHW8YX3","","696.3999999761581","img/food6.png","74","696.7999999523163","1","1","3","2","1,0.5,0,1,0.5,0,0.5,0,1","0,1,0.5,0,1,0.5,1,0.5,0","3","false",""
"","html-keyboard-response","241","150957","0.0-269.0","3R9WASFE202ZDG2R5R0VYYF1RZDZFI","A1PNYLOKED8FWF","3HUR21WDDUBEMSLDIXZW1FAIHW8YX3","","null","<img src=""img/food6.png"" style=""width:200px; border:14px solid green;"">","null","","","","","","","","","",""
"","image-keyboard-response","242","151738","0.0-271.0","3R9WASFE202ZDG2R5R0VYYF1RZDZFI","A1PNYLOKED8FWF","3HUR21WDDUBEMSLDIXZW1FAIHW8YX3","","781","img/food5.png","75","781.5","2","1","1","2","1,0.5,0,1,0.5,0,0.5,0,1","0,1,0.5,0,1,0.5,1,0.5,0","3","false",""
"","html-keyboard-response","243","152039","0.0-272.0","3R9WASFE202ZDG2R5R0VYYF1RZDZFI","A1PNYLOKED8FWF","3HUR21WDDUBEMSLDIXZW1FAIHW8YX3","","null","<img src=""img/food5.png"" style=""width:200px; border:14px solid green;"">","null","","","","","","","","","",""
"","image-keyboard-response","244","152755","0.0-274.0","3R9WASFE202ZDG2R5R0VYYF1RZDZFI","A1PNYLOKED8FWF","3HUR21WDDUBEMSLDIXZW1FAIHW8YX3","","715.8999999761581","img/food6.png","74","716.3999999761581","1","1","3","2","1,0.5,0,1,0.5,0,0.5,0,1","0,1,0.5,0,1,0.5,1,0.5,0","3","false",""
"","html-keyboard-response","245","153064","0.0-275.0","3R9WASFE202ZDG2R5R0VYYF1RZDZFI","A1PNYLOKED8FWF","3HUR21WDDUBEMSLDIXZW1FAIHW8YX3","","null","<img src=""img/food6.png"" style=""width:200px; border:14px solid green;"">","null","","","","","","","","","",""
"","image-keyboard-response","246","153431","0.0-277.0","3R9WASFE202ZDG2R5R0VYYF1RZDZFI","A1PNYLOKED8FWF","3HUR21WDDUBEMSLDIXZW1FAIHW8YX3","","366.40000009536743","img/food5.png","75","367","2","1","1","2","1,0.5,0,1,0.5,0,0.5,0,1","0,1,0.5,0,1,0.5,1,0.5,0","3","false",""
"","html-keyboard-response","247","153732","0.0-278.0","3R9WASFE202ZDG2R5R0VYYF1RZDZFI","A1PNYLOKED8FWF","3HUR21WDDUBEMSLDIXZW1FAIHW8YX3","","null","<img src=""img/food5.png"" style=""width:200px; border:14px solid green;"">","null","","","","","","","","","",""
"","image-keyboard-response","248","154292","0.0-280.0","3R9WASFE202ZDG2R5R0VYYF1RZDZFI","A1PNYLOKED8FWF","3HUR21WDDUBEMSLDIXZW1FAIHW8YX3","","559.2999999523163","img/food6.png","74","559.6999999284744","1","1","3","2","1,0.5,0,1,0.5,0,0.5,0,1","0,1,0.5,0,1,0.5,1,0.5,0","3","false",""
"","html-keyboard-response","249","154594","0.0-281.0","3R9WASFE202ZDG2R5R0VYYF1RZDZFI","A1PNYLOKED8FWF","3HUR21WDDUBEMSLDIXZW1FAIHW8YX3","","null","<img src=""img/food6.png"" style=""width:200px; border:14px solid green;"">","null","","","","","","","","","",""
"","image-keyboard-response","250","155183","0.0-283.0","3R9WASFE202ZDG2R5R0VYYF1RZDZFI","A1PNYLOKED8FWF","3HUR21WDDUBEMSLDIXZW1FAIHW8YX3","","588.9000000953674","img/food4.png","75","589.6000000238419","2","1","2","2","1,0.5,0,1,0.5,0,0.5,0,1","0,1,0.5,0,1,0.5,1,0.5,0","3","false",""
"","html-keyboard-response","251","155484","0.0-284.0","3R9WASFE202ZDG2R5R0VYYF1RZDZFI","A1PNYLOKED8FWF","3HUR21WDDUBEMSLDIXZW1FAIHW8YX3","","null","<img src=""img/food4.png"" style=""width:200px; border:14px solid green;"">","null","","","","","","","","","",""
"","image-keyboard-response","252","156485","0.0-286.0","3R9WASFE202ZDG2R5R0VYYF1RZDZFI","A1PNYLOKED8FWF","3HUR21WDDUBEMSLDIXZW1FAIHW8YX3","","","img/food5.png","","1001","-1","0","1","2","1,0.5,0,1,0.5,0,0.5,0,1","0,1,0.5,0,1,0.5,1,0.5,0","3","true",""
"","html-keyboard-response","253","156787","0.0-287.0","3R9WASFE202ZDG2R5R0VYYF1RZDZFI","A1PNYLOKED8FWF","3HUR21WDDUBEMSLDIXZW1FAIHW8YX3","","null","<img src=""img/food5.png"" style=""width:200px;border:14px solid red;"">","null","","","","","","","","","",""
"","html-keyboard-response","254","158799","0.0-288.0-0.0","3R9WASFE202ZDG2R5R0VYYF1RZDZFI","A1PNYLOKED8FWF","3HUR21WDDUBEMSLDIXZW1FAIHW8YX3","","","","","","","","","","","","","",""
"","image-keyboard-response","255","159196","0.0-289.0","3R9WASFE202ZDG2R5R0VYYF1RZDZFI","A1PNYLOKED8FWF","3HUR21WDDUBEMSLDIXZW1FAIHW8YX3","","395.90000009536743","img/food5.png","74","396.60000002384186","1","0","1","2","1,0.5,0,1,0.5,0,0.5,0,1","0,1,0.5,0,1,0.5,1,0.5,0","3","false",""
"","html-keyboard-response","256","159498","0.0-290.0","3R9WASFE202ZDG2R5R0VYYF1RZDZFI","A1PNYLOKED8FWF","3HUR21WDDUBEMSLDIXZW1FAIHW8YX3","","null","<img src=""img/food5.png"" style=""width:200px;border:14px solid red;"">","null","","","","","","","","","",""
"","image-keyboard-response","257","159832","0.0-292.0","3R9WASFE202ZDG2R5R0VYYF1RZDZFI","A1PNYLOKED8FWF","3HUR21WDDUBEMSLDIXZW1FAIHW8YX3","","334.10000002384186","img/food5.png","75","334.60000002384186","2","1","1","2","1,0.5,0,1,0.5,0,0.5,0,1","0,1,0.5,0,1,0.5,1,0.5,0","3","false",""
"","html-keyboard-response","258","160133","0.0-293.0","3R9WASFE202ZDG2R5R0VYYF1RZDZFI","A1PNYLOKED8FWF","3HUR21WDDUBEMSLDIXZW1FAIHW8YX3","","null","<img src=""img/food5.png"" style=""width:200px; border:14px solid green;"">","null","","","","","","","","","",""
"","image-keyboard-response","259","160716","0.0-295.0","3R9WASFE202ZDG2R5R0VYYF1RZDZFI","A1PNYLOKED8FWF","3HUR21WDDUBEMSLDIXZW1FAIHW8YX3","","582.5","img/food4.png","74","583","1","0","2","2","1,0.5,0,1,0.5,0,0.5,0,1","0,1,0.5,0,1,0.5,1,0.5,0","3","false",""
"","html-keyboard-response","260","161018","0.0-296.0","3R9WASFE202ZDG2R5R0VYYF1RZDZFI","A1PNYLOKED8FWF","3HUR21WDDUBEMSLDIXZW1FAIHW8YX3","","null","<img src=""img/food4.png"" style=""width:200px;border:14px solid red;"">","null","","","","","","","","","",""
"","image-keyboard-response","261","161310","0.0-298.0","3R9WASFE202ZDG2R5R0VYYF1RZDZFI","A1PNYLOKED8FWF","3HUR21WDDUBEMSLDIXZW1FAIHW8YX3","","291.3000000715256","img/food4.png","75","291.7999999523163","2","1","2","2","1,0.5,0,1,0.5,0,0.5,0,1","0,1,0.5,0,1,0.5,1,0.5,0","3","false",""
"","html-keyboard-response","262","161611","0.0-299.0","3R9WASFE202ZDG2R5R0VYYF1RZDZFI","A1PNYLOKED8FWF","3HUR21WDDUBEMSLDIXZW1FAIHW8YX3","","null","<img src=""img/food4.png"" style=""width:200px; border:14px solid green;"">","null","","","","","","","","","",""
"","image-keyboard-response","263","161909","0.0-301.0","3R9WASFE202ZDG2R5R0VYYF1RZDZFI","A1PNYLOKED8FWF","3HUR21WDDUBEMSLDIXZW1FAIHW8YX3","","296.89999997615814","img/food4.png","75","297.5","2","1","2","2","1,0.5,0,1,0.5,0,0.5,0,1","0,1,0.5,0,1,0.5,1,0.5,0","3","false",""
"","html-keyboard-response","264","162210","0.0-302.0","3R9WASFE202ZDG2R5R0VYYF1RZDZFI","A1PNYLOKED8FWF","3HUR21WDDUBEMSLDIXZW1FAIHW8YX3","","null","<img src=""img/food4.png"" style=""width:200px; border:14px solid green;"">","null","","","","","","","","","",""
"","image-keyboard-response","265","162493","0.0-304.0","3R9WASFE202ZDG2R5R0VYYF1RZDZFI","A1PNYLOKED8FWF","3HUR21WDDUBEMSLDIXZW1FAIHW8YX3","","282","img/food4.png","75","282.5","2","1","2","2","1,0.5,0,1,0.5,0,0.5,0,1","0,1,0.5,0,1,0.5,1,0.5,0","3","false",""
"","html-keyboard-response","266","162794","0.0-305.0","3R9WASFE202ZDG2R5R0VYYF1RZDZFI","A1PNYLOKED8FWF","3HUR21WDDUBEMSLDIXZW1FAIHW8YX3","","null","<img src=""img/food4.png"" style=""width:200px; border:14px solid green;"">","null","","","","","","","","","",""
"","image-keyboard-response","267","163171","0.0-307.0","3R9WASFE202ZDG2R5R0VYYF1RZDZFI","A1PNYLOKED8FWF","3HUR21WDDUBEMSLDIXZW1FAIHW8YX3","","376.10000002384186","img/food6.png","74","376.59999990463257","1","1","3","2","1,0.5,0,1,0.5,0,0.5,0,1","0,1,0.5,0,1,0.5,1,0.5,0","3","false",""
"","html-keyboard-response","268","163473","0.0-308.0","3R9WASFE202ZDG2R5R0VYYF1RZDZFI","A1PNYLOKED8FWF","3HUR21WDDUBEMSLDIXZW1FAIHW8YX3","","null","<img src=""img/food6.png"" style=""width:200px; border:14px solid green;"">","null","","","","","","","","","",""
"","image-keyboard-response","269","164079","0.0-310.0","3R9WASFE202ZDG2R5R0VYYF1RZDZFI","A1PNYLOKED8FWF","3HUR21WDDUBEMSLDIXZW1FAIHW8YX3","","605.1000000238419","img/food5.png","75","605.6999999284744","2","1","1","2","1,0.5,0,1,0.5,0,0.5,0,1","0,1,0.5,0,1,0.5,1,0.5,0","3","false",""
"","html-keyboard-response","270","164381","0.0-311.0","3R9WASFE202ZDG2R5R0VYYF1RZDZFI","A1PNYLOKED8FWF","3HUR21WDDUBEMSLDIXZW1FAIHW8YX3","","null","<img src=""img/food5.png"" style=""width:200px; border:14px solid green;"">","null","","","","","","","","","",""
"","image-keyboard-response","271","164935","0.0-313.0","3R9WASFE202ZDG2R5R0VYYF1RZDZFI","A1PNYLOKED8FWF","3HUR21WDDUBEMSLDIXZW1FAIHW8YX3","","553.6000000238419","img/food4.png","75","554","2","1","2","2","1,0.5,0,1,0.5,0,0.5,0,1","0,1,0.5,0,1,0.5,1,0.5,0","3","false",""
"","html-keyboard-response","272","165236","0.0-314.0","3R9WASFE202ZDG2R5R0VYYF1RZDZFI","A1PNYLOKED8FWF","3HUR21WDDUBEMSLDIXZW1FAIHW8YX3","","null","<img src=""img/food4.png"" style=""width:200px; border:14px solid green;"">","null","","","","","","","","","",""
"","image-keyboard-response","273","165550","0.0-316.0","3R9WASFE202ZDG2R5R0VYYF1RZDZFI","A1PNYLOKED8FWF","3HUR21WDDUBEMSLDIXZW1FAIHW8YX3","","313.5","img/food4.png","75","314","2","1","2","2","1,0.5,0,1,0.5,0,0.5,0,1","0,1,0.5,0,1,0.5,1,0.5,0","3","false",""
"","html-keyboard-response","274","165851","0.0-317.0","3R9WASFE202ZDG2R5R0VYYF1RZDZFI","A1PNYLOKED8FWF","3HUR21WDDUBEMSLDIXZW1FAIHW8YX3","","null","<img src=""img/food4.png"" style=""width:200px; border:14px solid green;"">","null","","","","","","","","","",""
"","image-keyboard-response","275","166257","0.0-319.0","3R9WASFE202ZDG2R5R0VYYF1RZDZFI","A1PNYLOKED8FWF","3HUR21WDDUBEMSLDIXZW1FAIHW8YX3","","405.10000002384186","img/food6.png","74","405.7000000476837","1","1","3","2","1,0.5,0,1,0.5,0,0.5,0,1","0,1,0.5,0,1,0.5,1,0.5,0","3","false",""
"","html-keyboard-response","276","166558","0.0-320.0","3R9WASFE202ZDG2R5R0VYYF1RZDZFI","A1PNYLOKED8FWF","3HUR21WDDUBEMSLDIXZW1FAIHW8YX3","","null","<img src=""img/food6.png"" style=""width:200px; border:14px solid green;"">","null","","","","","","","","","",""
"","image-keyboard-response","277","166853","0.0-322.0","3R9WASFE202ZDG2R5R0VYYF1RZDZFI","A1PNYLOKED8FWF","3HUR21WDDUBEMSLDIXZW1FAIHW8YX3","","294.3000000715256","img/food4.png","75","294.7999999523163","2","1","2","2","1,0.5,0,1,0.5,0,0.5,0,1","0,1,0.5,0,1,0.5,1,0.5,0","3","false",""
"","html-keyboard-response","278","167154","0.0-323.0","3R9WASFE202ZDG2R5R0VYYF1RZDZFI","A1PNYLOKED8FWF","3HUR21WDDUBEMSLDIXZW1FAIHW8YX3","","null","<img src=""img/food4.png"" style=""width:200px; border:14px solid green;"">","null","","","","","","","","","",""
"","image-keyboard-response","279","167519","0.0-325.0","3R9WASFE202ZDG2R5R0VYYF1RZDZFI","A1PNYLOKED8FWF","3HUR21WDDUBEMSLDIXZW1FAIHW8YX3","","364.09999990463257","img/food6.png","75","364.60000002384186","2","0","3","2","1,0.5,0,1,0.5,0,0.5,0,1","0,1,0.5,0,1,0.5,1,0.5,0","3","false",""
"","html-keyboard-response","280","167821","0.0-326.0","3R9WASFE202ZDG2R5R0VYYF1RZDZFI","A1PNYLOKED8FWF","3HUR21WDDUBEMSLDIXZW1FAIHW8YX3","","null","<img src=""img/food6.png"" style=""width:200px;border:14px solid red;"">","null","","","","","","","","","",""
"","image-keyboard-response","281","168212","0.0-328.0","3R9WASFE202ZDG2R5R0VYYF1RZDZFI","A1PNYLOKED8FWF","3HUR21WDDUBEMSLDIXZW1FAIHW8YX3","","390.90000009536743","img/food4.png","75","391.5","2","1","2","2","1,0.5,0,1,0.5,0,0.5,0,1","0,1,0.5,0,1,0.5,1,0.5,0","3","false",""
"","html-keyboard-response","282","168513","0.0-329.0","3R9WASFE202ZDG2R5R0VYYF1RZDZFI","A1PNYLOKED8FWF","3HUR21WDDUBEMSLDIXZW1FAIHW8YX3","","null","<img src=""img/food4.png"" style=""width:200px; border:14px solid green;"">","null","","","","","","","","","",""
"","image-keyboard-response","283","168862","0.0-331.0","3R9WASFE202ZDG2R5R0VYYF1RZDZFI","A1PNYLOKED8FWF","3HUR21WDDUBEMSLDIXZW1FAIHW8YX3","","348.2999999523163","img/food5.png","75","348.7999999523163","2","1","1","2","1,0.5,0,1,0.5,0,0.5,0,1","0,1,0.5,0,1,0.5,1,0.5,0","3","false",""
"","html-keyboard-response","284","169163","0.0-332.0","3R9WASFE202ZDG2R5R0VYYF1RZDZFI","A1PNYLOKED8FWF","3HUR21WDDUBEMSLDIXZW1FAIHW8YX3","","null","<img src=""img/food5.png"" style=""width:200px; border:14px solid green;"">","null","","","","","","","","","",""
"","image-keyboard-response","285","169470","0.0-334.0","3R9WASFE202ZDG2R5R0VYYF1RZDZFI","A1PNYLOKED8FWF","3HUR21WDDUBEMSLDIXZW1FAIHW8YX3","","306.5","img/food5.png","75","307","2","1","1","2","1,0.5,0,1,0.5,0,0.5,0,1","0,1,0.5,0,1,0.5,1,0.5,0","3","false",""
"","html-keyboard-response","286","169772","0.0-335.0","3R9WASFE202ZDG2R5R0VYYF1RZDZFI","A1PNYLOKED8FWF","3HUR21WDDUBEMSLDIXZW1FAIHW8YX3","","null","<img src=""img/food5.png"" style=""width:200px; border:14px solid green;"">","null","","","","","","","","","",""
"","image-keyboard-response","287","170060","0.0-337.0","3R9WASFE202ZDG2R5R0VYYF1RZDZFI","A1PNYLOKED8FWF","3HUR21WDDUBEMSLDIXZW1FAIHW8YX3","","287.90000009536743","img/food5.png","75","288.5","2","1","1","2","1,0.5,0,1,0.5,0,0.5,0,1","0,1,0.5,0,1,0.5,1,0.5,0","3","false",""
"","html-keyboard-response","288","170361","0.0-338.0","3R9WASFE202ZDG2R5R0VYYF1RZDZFI","A1PNYLOKED8FWF","3HUR21WDDUBEMSLDIXZW1FAIHW8YX3","","null","<img src=""img/food5.png"" style=""width:200px; border:14px solid green;"">","null","","","","","","","","","",""
"","image-keyboard-response","289","170820","0.0-340.0","3R9WASFE202ZDG2R5R0VYYF1RZDZFI","A1PNYLOKED8FWF","3HUR21WDDUBEMSLDIXZW1FAIHW8YX3","","458.40000009536743","img/food6.png","74","458.89999997615814","1","1","3","2","1,0.5,0,1,0.5,0,0.5,0,1","0,1,0.5,0,1,0.5,1,0.5,0","3","false",""
"","html-keyboard-response","290","171122","0.0-341.0","3R9WASFE202ZDG2R5R0VYYF1RZDZFI","A1PNYLOKED8FWF","3HUR21WDDUBEMSLDIXZW1FAIHW8YX3","","null","<img src=""img/food6.png"" style=""width:200px; border:14px solid green;"">","null","","","","","","","","","",""
"","image-keyboard-response","291","171670","0.0-343.0","3R9WASFE202ZDG2R5R0VYYF1RZDZFI","A1PNYLOKED8FWF","3HUR21WDDUBEMSLDIXZW1FAIHW8YX3","","547.9000000953674","img/food5.png","75","548.3999999761581","2","1","1","2","1,0.5,0,1,0.5,0,0.5,0,1","0,1,0.5,0,1,0.5,1,0.5,0","3","false",""
"","html-keyboard-response","292","171972","0.0-344.0","3R9WASFE202ZDG2R5R0VYYF1RZDZFI","A1PNYLOKED8FWF","3HUR21WDDUBEMSLDIXZW1FAIHW8YX3","","null","<img src=""img/food5.png"" style=""width:200px; border:14px solid green;"">","null","","","","","","","","","",""
"","image-keyboard-response","293","172369","0.0-346.0","3R9WASFE202ZDG2R5R0VYYF1RZDZFI","A1PNYLOKED8FWF","3HUR21WDDUBEMSLDIXZW1FAIHW8YX3","","396.8000000715256","img/food6.png","74","397.2999999523163","1","1","3","2","1,0.5,0,1,0.5,0,0.5,0,1","0,1,0.5,0,1,0.5,1,0.5,0","3","false",""
"","html-keyboard-response","294","172670","0.0-347.0","3R9WASFE202ZDG2R5R0VYYF1RZDZFI","A1PNYLOKED8FWF","3HUR21WDDUBEMSLDIXZW1FAIHW8YX3","","null","<img src=""img/food6.png"" style=""width:200px; border:14px solid green;"">","null","","","","","","","","","",""
"","image-keyboard-response","295","173077","0.0-349.0","3R9WASFE202ZDG2R5R0VYYF1RZDZFI","A1PNYLOKED8FWF","3HUR21WDDUBEMSLDIXZW1FAIHW8YX3","","406","img/food5.png","75","406.5","2","1","1","2","1,0.5,0,1,0.5,0,0.5,0,1","0,1,0.5,0,1,0.5,1,0.5,0","3","false",""
"","html-keyboard-response","296","173378","0.0-350.0","3R9WASFE202ZDG2R5R0VYYF1RZDZFI","A1PNYLOKED8FWF","3HUR21WDDUBEMSLDIXZW1FAIHW8YX3","","null","<img src=""img/food5.png"" style=""width:200px; border:14px solid green;"">","null","","","","","","","","","",""
"","image-keyboard-response","297","173888","0.0-352.0","3R9WASFE202ZDG2R5R0VYYF1RZDZFI","A1PNYLOKED8FWF","3HUR21WDDUBEMSLDIXZW1FAIHW8YX3","","509.3000000715256","img/food6.png","74","509.7999999523163","1","1","3","2","1,0.5,0,1,0.5,0,0.5,0,1","0,1,0.5,0,1,0.5,1,0.5,0","3","false",""
"","html-keyboard-response","298","174189","0.0-353.0","3R9WASFE202ZDG2R5R0VYYF1RZDZFI","A1PNYLOKED8FWF","3HUR21WDDUBEMSLDIXZW1FAIHW8YX3","","null","<img src=""img/food6.png"" style=""width:200px; border:14px solid green;"">","null","","","","","","","","","",""
"","image-keyboard-response","299","174467","0.0-355.0","3R9WASFE202ZDG2R5R0VYYF1RZDZFI","A1PNYLOKED8FWF","3HUR21WDDUBEMSLDIXZW1FAIHW8YX3","","277.10000002384186","img/food5.png","75","277.5","2","1","1","2","1,0.5,0,1,0.5,0,0.5,0,1","0,1,0.5,0,1,0.5,1,0.5,0","3","false",""
"","html-keyboard-response","300","174769","0.0-356.0","3R9WASFE202ZDG2R5R0VYYF1RZDZFI","A1PNYLOKED8FWF","3HUR21WDDUBEMSLDIXZW1FAIHW8YX3","","null","<img src=""img/food5.png"" style=""width:200px; border:14px solid green;"">","null","","","","","","","","","",""
"","image-keyboard-response","301","175442","0.0-358.0","3R9WASFE202ZDG2R5R0VYYF1RZDZFI","A1PNYLOKED8FWF","3HUR21WDDUBEMSLDIXZW1FAIHW8YX3","","673.0999999046326","img/food4.png","75","673.3999999761581","2","1","2","2","1,0.5,0,1,0.5,0,0.5,0,1","0,1,0.5,0,1,0.5,1,0.5,0","3","false",""
"","html-keyboard-response","302","175744","0.0-359.0","3R9WASFE202ZDG2R5R0VYYF1RZDZFI","A1PNYLOKED8FWF","3HUR21WDDUBEMSLDIXZW1FAIHW8YX3","","null","<img src=""img/food4.png"" style=""width:200px; border:14px solid green;"">","null","","","","","","","","","",""
"","image-keyboard-response","303","176122","0.0-361.0","3R9WASFE202ZDG2R5R0VYYF1RZDZFI","A1PNYLOKED8FWF","3HUR21WDDUBEMSLDIXZW1FAIHW8YX3","","377.90000009536743","img/food5.png","75","378.5","2","1","1","2","1,0.5,0,1,0.5,0,0.5,0,1","0,1,0.5,0,1,0.5,1,0.5,0","3","false",""
"","html-keyboard-response","304","176423","0.0-362.0","3R9WASFE202ZDG2R5R0VYYF1RZDZFI","A1PNYLOKED8FWF","3HUR21WDDUBEMSLDIXZW1FAIHW8YX3","","null","<img src=""img/food5.png"" style=""width:200px; border:14px solid green;"">","null","","","","","","","","","",""
"","image-keyboard-response","305","176987","0.0-364.0","3R9WASFE202ZDG2R5R0VYYF1RZDZFI","A1PNYLOKED8FWF","3HUR21WDDUBEMSLDIXZW1FAIHW8YX3","","563.7999999523163","img/food6.png","74","564.2999999523163","1","1","3","2","1,0.5,0,1,0.5,0,0.5,0,1","0,1,0.5,0,1,0.5,1,0.5,0","3","false",""
"","html-keyboard-response","306","177288","0.0-365.0","3R9WASFE202ZDG2R5R0VYYF1RZDZFI","A1PNYLOKED8FWF","3HUR21WDDUBEMSLDIXZW1FAIHW8YX3","","null","<img src=""img/food6.png"" style=""width:200px; border:14px solid green;"">","null","","","","","","","","","",""
"","image-keyboard-response","307","177783","0.0-367.0","3R9WASFE202ZDG2R5R0VYYF1RZDZFI","A1PNYLOKED8FWF","3HUR21WDDUBEMSLDIXZW1FAIHW8YX3","","494.39999997615814","img/food4.png","75","494.89999997615814","2","1","2","2","1,0.5,0,1,0.5,0,0.5,0,1","0,1,0.5,0,1,0.5,1,0.5,0","3","false",""
"","html-keyboard-response","308","178085","0.0-368.0","3R9WASFE202ZDG2R5R0VYYF1RZDZFI","A1PNYLOKED8FWF","3HUR21WDDUBEMSLDIXZW1FAIHW8YX3","","null","<img src=""img/food4.png"" style=""width:200px; border:14px solid green;"">","null","","","","","","","","","",""
"","image-keyboard-response","309","178614","0.0-370.0","3R9WASFE202ZDG2R5R0VYYF1RZDZFI","A1PNYLOKED8FWF","3HUR21WDDUBEMSLDIXZW1FAIHW8YX3","","528.8000000715256","img/food5.png","75","529.1999999284744","2","1","1","2","1,0.5,0,1,0.5,0,0.5,0,1","0,1,0.5,0,1,0.5,1,0.5,0","3","false",""
"","html-keyboard-response","310","178916","0.0-371.0","3R9WASFE202ZDG2R5R0VYYF1RZDZFI","A1PNYLOKED8FWF","3HUR21WDDUBEMSLDIXZW1FAIHW8YX3","","null","<img src=""img/food5.png"" style=""width:200px; border:14px solid green;"">","null","","","","","","","","","",""
"","image-keyboard-response","311","179234","0.0-373.0","3R9WASFE202ZDG2R5R0VYYF1RZDZFI","A1PNYLOKED8FWF","3HUR21WDDUBEMSLDIXZW1FAIHW8YX3","","318","img/food5.png","75","318.60000002384186","2","1","1","2","1,0.5,0,1,0.5,0,0.5,0,1","0,1,0.5,0,1,0.5,1,0.5,0","3","false",""
"","html-keyboard-response","312","179535","0.0-374.0","3R9WASFE202ZDG2R5R0VYYF1RZDZFI","A1PNYLOKED8FWF","3HUR21WDDUBEMSLDIXZW1FAIHW8YX3","","null","<img src=""img/food5.png"" style=""width:200px; border:14px solid green;"">","null","","","","","","","","","",""
"","image-keyboard-response","313","179844","0.0-376.0","3R9WASFE202ZDG2R5R0VYYF1RZDZFI","A1PNYLOKED8FWF","3HUR21WDDUBEMSLDIXZW1FAIHW8YX3","","308.09999990463257","img/food5.png","75","308.60000002384186","2","1","1","2","1,0.5,0,1,0.5,0,0.5,0,1","0,1,0.5,0,1,0.5,1,0.5,0","3","false",""
"","html-keyboard-response","314","180145","0.0-377.0","3R9WASFE202ZDG2R5R0VYYF1RZDZFI","A1PNYLOKED8FWF","3HUR21WDDUBEMSLDIXZW1FAIHW8YX3","","null","<img src=""img/food5.png"" style=""width:200px; border:14px solid green;"">","null","","","","","","","","","",""
"","image-keyboard-response","315","180631","0.0-379.0","3R9WASFE202ZDG2R5R0VYYF1RZDZFI","A1PNYLOKED8FWF","3HUR21WDDUBEMSLDIXZW1FAIHW8YX3","","485.60000002384186","img/food4.png","74","486.10000002384186","1","0","2","2","1,0.5,0,1,0.5,0,0.5,0,1","0,1,0.5,0,1,0.5,1,0.5,0","3","false",""
"","html-keyboard-response","316","180932","0.0-380.0","3R9WASFE202ZDG2R5R0VYYF1RZDZFI","A1PNYLOKED8FWF","3HUR21WDDUBEMSLDIXZW1FAIHW8YX3","","null","<img src=""img/food4.png"" style=""width:200px;border:14px solid red;"">","null","","","","","","","","","",""
"","image-keyboard-response","317","181628","0.0-382.0","3R9WASFE202ZDG2R5R0VYYF1RZDZFI","A1PNYLOKED8FWF","3HUR21WDDUBEMSLDIXZW1FAIHW8YX3","","695.2000000476837","img/food5.png","75","695.6999999284744","2","1","1","2","1,0.5,0,1,0.5,0,0.5,0,1","0,1,0.5,0,1,0.5,1,0.5,0","3","false",""
"","html-keyboard-response","318","181929","0.0-383.0","3R9WASFE202ZDG2R5R0VYYF1RZDZFI","A1PNYLOKED8FWF","3HUR21WDDUBEMSLDIXZW1FAIHW8YX3","","null","<img src=""img/food5.png"" style=""width:200px; border:14px solid green;"">","null","","","","","","","","","",""
"","image-keyboard-response","319","182241","0.0-385.0","3R9WASFE202ZDG2R5R0VYYF1RZDZFI","A1PNYLOKED8FWF","3HUR21WDDUBEMSLDIXZW1FAIHW8YX3","","310.7000000476837","img/food4.png","75","311.1999999284744","2","1","2","2","1,0.5,0,1,0.5,0,0.5,0,1","0,1,0.5,0,1,0.5,1,0.5,0","3","false",""
"","html-keyboard-response","320","182542","0.0-386.0","3R9WASFE202ZDG2R5R0VYYF1RZDZFI","A1PNYLOKED8FWF","3HUR21WDDUBEMSLDIXZW1FAIHW8YX3","","null","<img src=""img/food4.png"" style=""width:200px; border:14px solid green;"">","null","","","","","","","","","",""
"","image-keyboard-response","321","183045","0.0-388.0","3R9WASFE202ZDG2R5R0VYYF1RZDZFI","A1PNYLOKED8FWF","3HUR21WDDUBEMSLDIXZW1FAIHW8YX3","","502.7999999523163","img/food6.png","74","503.2999999523163","1","1","3","2","1,0.5,0,1,0.5,0,0.5,0,1","0,1,0.5,0,1,0.5,1,0.5,0","3","false",""
"","html-keyboard-response","322","183346","0.0-389.0","3R9WASFE202ZDG2R5R0VYYF1RZDZFI","A1PNYLOKED8FWF","3HUR21WDDUBEMSLDIXZW1FAIHW8YX3","","null","<img src=""img/food6.png"" style=""width:200px; border:14px solid green;"">","null","","","","","","","","","",""
"","image-keyboard-response","323","183666","0.0-391.0","3R9WASFE202ZDG2R5R0VYYF1RZDZFI","A1PNYLOKED8FWF","3HUR21WDDUBEMSLDIXZW1FAIHW8YX3","","319.09999990463257","img/food6.png","74","319.7000000476837","1","1","3","2","1,0.5,0,1,0.5,0,0.5,0,1","0,1,0.5,0,1,0.5,1,0.5,0","3","false",""
"","html-keyboard-response","324","183967","0.0-392.0","3R9WASFE202ZDG2R5R0VYYF1RZDZFI","A1PNYLOKED8FWF","3HUR21WDDUBEMSLDIXZW1FAIHW8YX3","","null","<img src=""img/food6.png"" style=""width:200px; border:14px solid green;"">","null","","","","","","","","","",""
"","image-keyboard-response","325","184350","0.0-394.0","3R9WASFE202ZDG2R5R0VYYF1RZDZFI","A1PNYLOKED8FWF","3HUR21WDDUBEMSLDIXZW1FAIHW8YX3","","381.7999999523163","img/food5.png","75","382.2999999523163","2","1","1","2","1,0.5,0,1,0.5,0,0.5,0,1","0,1,0.5,0,1,0.5,1,0.5,0","3","false",""
"","html-keyboard-response","326","184651","0.0-395.0","3R9WASFE202ZDG2R5R0VYYF1RZDZFI","A1PNYLOKED8FWF","3HUR21WDDUBEMSLDIXZW1FAIHW8YX3","","null","<img src=""img/food5.png"" style=""width:200px; border:14px solid green;"">","null","","","","","","","","","",""
"","image-keyboard-response","327","184979","0.0-397.0","3R9WASFE202ZDG2R5R0VYYF1RZDZFI","A1PNYLOKED8FWF","3HUR21WDDUBEMSLDIXZW1FAIHW8YX3","","327.10000002384186","img/food4.png","75","327.60000002384186","2","1","2","2","1,0.5,0,1,0.5,0,0.5,0,1","0,1,0.5,0,1,0.5,1,0.5,0","3","false",""
"","html-keyboard-response","328","185281","0.0-398.0","3R9WASFE202ZDG2R5R0VYYF1RZDZFI","A1PNYLOKED8FWF","3HUR21WDDUBEMSLDIXZW1FAIHW8YX3","","null","<img src=""img/food4.png"" style=""width:200px; border:14px solid green;"">","null","","","","","","","","","",""
"","image-keyboard-response","329","185582","0.0-400.0","3R9WASFE202ZDG2R5R0VYYF1RZDZFI","A1PNYLOKED8FWF","3HUR21WDDUBEMSLDIXZW1FAIHW8YX3","","300.10000002384186","img/food4.png","75","300.60000002384186","2","1","2","2","1,0.5,0,1,0.5,0,0.5,0,1","0,1,0.5,0,1,0.5,1,0.5,0","3","false",""
"","html-keyboard-response","330","185883","0.0-401.0","3R9WASFE202ZDG2R5R0VYYF1RZDZFI","A1PNYLOKED8FWF","3HUR21WDDUBEMSLDIXZW1FAIHW8YX3","","null","<img src=""img/food4.png"" style=""width:200px; border:14px solid green;"">","null","","","","","","","","","",""
"","image-keyboard-response","331","186290","0.0-403.0","3R9WASFE202ZDG2R5R0VYYF1RZDZFI","A1PNYLOKED8FWF","3HUR21WDDUBEMSLDIXZW1FAIHW8YX3","","406.5","img/food5.png","75","407","2","1","1","2","1,0.5,0,1,0.5,0,0.5,0,1","0,1,0.5,0,1,0.5,1,0.5,0","3","false",""
"","html-keyboard-response","332","186591","0.0-404.0","3R9WASFE202ZDG2R5R0VYYF1RZDZFI","A1PNYLOKED8FWF","3HUR21WDDUBEMSLDIXZW1FAIHW8YX3","","null","<img src=""img/food5.png"" style=""width:200px; border:14px solid green;"">","null","","","","","","","","","",""
"","image-keyboard-response","333","187010","0.0-406.0","3R9WASFE202ZDG2R5R0VYYF1RZDZFI","A1PNYLOKED8FWF","3HUR21WDDUBEMSLDIXZW1FAIHW8YX3","","418.10000002384186","img/food6.png","74","418.60000002384186","1","1","3","2","1,0.5,0,1,0.5,0,0.5,0,1","0,1,0.5,0,1,0.5,1,0.5,0","3","false",""
"","html-keyboard-response","334","187311","0.0-407.0","3R9WASFE202ZDG2R5R0VYYF1RZDZFI","A1PNYLOKED8FWF","3HUR21WDDUBEMSLDIXZW1FAIHW8YX3","","null","<img src=""img/food6.png"" style=""width:200px; border:14px solid green;"">","null","","","","","","","","","",""
"","image-keyboard-response","335","187649","0.0-409.0","3R9WASFE202ZDG2R5R0VYYF1RZDZFI","A1PNYLOKED8FWF","3HUR21WDDUBEMSLDIXZW1FAIHW8YX3","","337.2000000476837","img/food6.png","74","337.7999999523163","1","1","3","2","1,0.5,0,1,0.5,0,0.5,0,1","0,1,0.5,0,1,0.5,1,0.5,0","3","false",""
"","html-keyboard-response","336","187950","0.0-410.0","3R9WASFE202ZDG2R5R0VYYF1RZDZFI","A1PNYLOKED8FWF","3HUR21WDDUBEMSLDIXZW1FAIHW8YX3","","null","<img src=""img/food6.png"" style=""width:200px; border:14px solid green;"">","null","","","","","","","","","",""
"","image-keyboard-response","337","188235","0.0-412.0","3R9WASFE202ZDG2R5R0VYYF1RZDZFI","A1PNYLOKED8FWF","3HUR21WDDUBEMSLDIXZW1FAIHW8YX3","","283.8000000715256","img/food6.png","74","284.1999999284744","1","1","3","2","1,0.5,0,1,0.5,0,0.5,0,1","0,1,0.5,0,1,0.5,1,0.5,0","3","false",""
"","html-keyboard-response","338","188536","0.0-413.0","3R9WASFE202ZDG2R5R0VYYF1RZDZFI","A1PNYLOKED8FWF","3HUR21WDDUBEMSLDIXZW1FAIHW8YX3","","null","<img src=""img/food6.png"" style=""width:200px; border:14px solid green;"">","null","","","","","","","","","",""
"","image-keyboard-response","339","188876","0.0-415.0","3R9WASFE202ZDG2R5R0VYYF1RZDZFI","A1PNYLOKED8FWF","3HUR21WDDUBEMSLDIXZW1FAIHW8YX3","","338.8000000715256","img/food4.png","75","339.1999999284744","2","1","2","2","1,0.5,0,1,0.5,0,0.5,0,1","0,1,0.5,0,1,0.5,1,0.5,0","3","false",""
"","html-keyboard-response","340","189178","0.0-416.0","3R9WASFE202ZDG2R5R0VYYF1RZDZFI","A1PNYLOKED8FWF","3HUR21WDDUBEMSLDIXZW1FAIHW8YX3","","null","<img src=""img/food4.png"" style=""width:200px; border:14px solid green;"">","null","","","","","","","","","",""
"","image-keyboard-response","341","189455","0.0-418.0","3R9WASFE202ZDG2R5R0VYYF1RZDZFI","A1PNYLOKED8FWF","3HUR21WDDUBEMSLDIXZW1FAIHW8YX3","","276.6999999284744","img/food4.png","75","277.10000002384186","2","1","2","2","1,0.5,0,1,0.5,0,0.5,0,1","0,1,0.5,0,1,0.5,1,0.5,0","3","false",""
"","html-keyboard-response","342","189756","0.0-419.0","3R9WASFE202ZDG2R5R0VYYF1RZDZFI","A1PNYLOKED8FWF","3HUR21WDDUBEMSLDIXZW1FAIHW8YX3","","null","<img src=""img/food4.png"" style=""width:200px; border:14px solid green;"">","null","","","","","","","","","",""
"","image-keyboard-response","343","190059","0.0-421.0","3R9WASFE202ZDG2R5R0VYYF1RZDZFI","A1PNYLOKED8FWF","3HUR21WDDUBEMSLDIXZW1FAIHW8YX3","","301.89999997615814","img/food4.png","75","302.39999997615814","2","1","2","2","1,0.5,0,1,0.5,0,0.5,0,1","0,1,0.5,0,1,0.5,1,0.5,0","3","false",""
"","html-keyboard-response","344","190361","0.0-422.0","3R9WASFE202ZDG2R5R0VYYF1RZDZFI","A1PNYLOKED8FWF","3HUR21WDDUBEMSLDIXZW1FAIHW8YX3","","null","<img src=""img/food4.png"" style=""width:200px; border:14px solid green;"">","null","","","","","","","","","",""
"","image-keyboard-response","345","190870","0.0-424.0","3R9WASFE202ZDG2R5R0VYYF1RZDZFI","A1PNYLOKED8FWF","3HUR21WDDUBEMSLDIXZW1FAIHW8YX3","","508.39999997615814","img/food6.png","74","508.7999999523163","1","1","3","2","1,0.5,0,1,0.5,0,0.5,0,1","0,1,0.5,0,1,0.5,1,0.5,0","3","false",""
"","html-keyboard-response","346","191171","0.0-425.0","3R9WASFE202ZDG2R5R0VYYF1RZDZFI","A1PNYLOKED8FWF","3HUR21WDDUBEMSLDIXZW1FAIHW8YX3","","null","<img src=""img/food6.png"" style=""width:200px; border:14px solid green;"">","null","","","","","","","","","",""
"","image-keyboard-response","347","191527","0.0-427.0","3R9WASFE202ZDG2R5R0VYYF1RZDZFI","A1PNYLOKED8FWF","3HUR21WDDUBEMSLDIXZW1FAIHW8YX3","","355","img/food6.png","74","355.5","1","1","3","2","1,0.5,0,1,0.5,0,0.5,0,1","0,1,0.5,0,1,0.5,1,0.5,0","3","false",""
"","html-keyboard-response","348","191828","0.0-428.0","3R9WASFE202ZDG2R5R0VYYF1RZDZFI","A1PNYLOKED8FWF","3HUR21WDDUBEMSLDIXZW1FAIHW8YX3","","null","<img src=""img/food6.png"" style=""width:200px; border:14px solid green;"">","null","","","","","","","","","",""
"","image-keyboard-response","349","192223","0.0-430.0","3R9WASFE202ZDG2R5R0VYYF1RZDZFI","A1PNYLOKED8FWF","3HUR21WDDUBEMSLDIXZW1FAIHW8YX3","","393.90000009536743","img/food4.png","75","394.5","2","1","2","2","1,0.5,0,1,0.5,0,0.5,0,1","0,1,0.5,0,1,0.5,1,0.5,0","3","false",""
"","html-keyboard-response","350","192529","0.0-431.0","3R9WASFE202ZDG2R5R0VYYF1RZDZFI","A1PNYLOKED8FWF","3HUR21WDDUBEMSLDIXZW1FAIHW8YX3","","null","<img src=""img/food4.png"" style=""width:200px; border:14px solid green;"">","null","","","","","","","","","",""
"","image-keyboard-response","351","192823","0.0-433.0","3R9WASFE202ZDG2R5R0VYYF1RZDZFI","A1PNYLOKED8FWF","3HUR21WDDUBEMSLDIXZW1FAIHW8YX3","","293.3000000715256","img/food4.png","75","293.7999999523163","2","1","2","2","1,0.5,0,1,0.5,0,0.5,0,1","0,1,0.5,0,1,0.5,1,0.5,0","3","false",""
"","html-keyboard-response","352","193124","0.0-434.0","3R9WASFE202ZDG2R5R0VYYF1RZDZFI","A1PNYLOKED8FWF","3HUR21WDDUBEMSLDIXZW1FAIHW8YX3","","null","<img src=""img/food4.png"" style=""width:200px; border:14px solid green;"">","null","","","","","","","","","",""
"","image-keyboard-response","353","193436","0.0-436.0","3R9WASFE202ZDG2R5R0VYYF1RZDZFI","A1PNYLOKED8FWF","3HUR21WDDUBEMSLDIXZW1FAIHW8YX3","","310.7999999523163","img/food5.png","75","311.1999999284744","2","1","1","2","1,0.5,0,1,0.5,0,0.5,0,1","0,1,0.5,0,1,0.5,1,0.5,0","3","false",""
"","html-keyboard-response","354","193738","0.0-437.0","3R9WASFE202ZDG2R5R0VYYF1RZDZFI","A1PNYLOKED8FWF","3HUR21WDDUBEMSLDIXZW1FAIHW8YX3","","null","<img src=""img/food5.png"" style=""width:200px; border:14px solid green;"">","null","","","","","","","","","",""
"","image-keyboard-response","355","194290","0.0-439.0","3R9WASFE202ZDG2R5R0VYYF1RZDZFI","A1PNYLOKED8FWF","3HUR21WDDUBEMSLDIXZW1FAIHW8YX3","","551.2000000476837","img/food4.png","75","551.6999999284744","2","1","2","2","1,0.5,0,1,0.5,0,0.5,0,1","0,1,0.5,0,1,0.5,1,0.5,0","3","false",""
"","html-keyboard-response","356","194591","0.0-440.0","3R9WASFE202ZDG2R5R0VYYF1RZDZFI","A1PNYLOKED8FWF","3HUR21WDDUBEMSLDIXZW1FAIHW8YX3","","null","<img src=""img/food4.png"" style=""width:200px; border:14px solid green;"">","null","","","","","","","","","",""
"","image-keyboard-response","357","194947","0.0-442.0","3R9WASFE202ZDG2R5R0VYYF1RZDZFI","A1PNYLOKED8FWF","3HUR21WDDUBEMSLDIXZW1FAIHW8YX3","","355.10000002384186","img/food5.png","75","355.90000009536743","2","1","1","2","1,0.5,0,1,0.5,0,0.5,0,1","0,1,0.5,0,1,0.5,1,0.5,0","3","false",""
"","html-keyboard-response","358","195248","0.0-443.0","3R9WASFE202ZDG2R5R0VYYF1RZDZFI","A1PNYLOKED8FWF","3HUR21WDDUBEMSLDIXZW1FAIHW8YX3","","null","<img src=""img/food5.png"" style=""width:200px; border:14px solid green;"">","null","","","","","","","","","",""
"","image-keyboard-response","359","195658","0.0-445.0","3R9WASFE202ZDG2R5R0VYYF1RZDZFI","A1PNYLOKED8FWF","3HUR21WDDUBEMSLDIXZW1FAIHW8YX3","","408.8000000715256","img/food4.png","75","409.1999999284744","2","1","2","2","1,0.5,0,1,0.5,0,0.5,0,1","0,1,0.5,0,1,0.5,1,0.5,0","3","false",""
"","html-keyboard-response","360","195960","0.0-446.0","3R9WASFE202ZDG2R5R0VYYF1RZDZFI","A1PNYLOKED8FWF","3HUR21WDDUBEMSLDIXZW1FAIHW8YX3","","null","<img src=""img/food4.png"" style=""width:200px; border:14px solid green;"">","null","","","","","","","","","",""
"","image-keyboard-response","361","196281","0.0-448.0","3R9WASFE202ZDG2R5R0VYYF1RZDZFI","A1PNYLOKED8FWF","3HUR21WDDUBEMSLDIXZW1FAIHW8YX3","","320.89999997615814","img/food5.png","75","321.40000009536743","2","1","1","2","1,0.5,0,1,0.5,0,0.5,0,1","0,1,0.5,0,1,0.5,1,0.5,0","3","false",""
"","html-keyboard-response","362","196583","0.0-449.0","3R9WASFE202ZDG2R5R0VYYF1RZDZFI","A1PNYLOKED8FWF","3HUR21WDDUBEMSLDIXZW1FAIHW8YX3","","null","<img src=""img/food5.png"" style=""width:200px; border:14px solid green;"">","null","","","","","","","","","",""
"","image-keyboard-response","363","196877","0.0-451.0","3R9WASFE202ZDG2R5R0VYYF1RZDZFI","A1PNYLOKED8FWF","3HUR21WDDUBEMSLDIXZW1FAIHW8YX3","","293.40000009536743","img/food5.png","75","293.89999997615814","2","1","1","2","1,0.5,0,1,0.5,0,0.5,0,1","0,1,0.5,0,1,0.5,1,0.5,0","3","false",""
"","html-keyboard-response","364","197178","0.0-452.0","3R9WASFE202ZDG2R5R0VYYF1RZDZFI","A1PNYLOKED8FWF","3HUR21WDDUBEMSLDIXZW1FAIHW8YX3","","null","<img src=""img/food5.png"" style=""width:200px; border:14px solid green;"">","null","","","","","","","","","",""
"","instructions","365","198955","0.0-454.0","3R9WASFE202ZDG2R5R0VYYF1RZDZFI","A1PNYLOKED8FWF","3HUR21WDDUBEMSLDIXZW1FAIHW8YX3","[{""page_index"":0,""viewing_time"":1777}]","1777.1000000238419","","","","","","","","","","","",""
"","survey-text","366","205889","0.0-455.0","3R9WASFE202ZDG2R5R0VYYF1RZDZFI","A1PNYLOKED8FWF","3HUR21WDDUBEMSLDIXZW1FAIHW8YX3","","6931.600000023842","","","","","","","","","","","","{""Q0"":""A1PNYLOKED8FWF""}"
