"success","trial_type","trial_index","time_elapsed","internal_node_id","assignmentID","mturkID","hitID","view_history","rt","stimulus","key_press","reactionTime","a","r","warning","s","cond","reward_cond","reward_cond_actual","reward_matrix_idx","responses"
"true","fullscreen","0","3024","0.0-0.0","3HMIGG0U4MSQTBIZ1RS6AZPDXUFY8D","A1Q56N80RJLQ7S","3KTZHH2ONI1ODAVRRMZTRL6IHCUM80","","","","","","","","","","","","","",""
"","instructions","1","8256","0.0-1.0","3HMIGG0U4MSQTBIZ1RS6AZPDXUFY8D","A1Q56N80RJLQ7S","3KTZHH2ONI1ODAVRRMZTRL6IHCUM80","[{""page_index"":0,""viewing_time"":1158.5},{""page_index"":1,""viewing_time"":885.3000000715256},{""page_index"":2,""viewing_time"":374.6999999284744},{""page_index"":3,""viewing_time"":593.8000000715256},{""page_index"":4,""viewing_time"":899.5},{""page_index"":5,""viewing_time"":689.3999999761581},{""page_index"":6,""viewing_time"":630.1000000238419}]","5231.5","","","","","","","","","","","",""
"","instructions","2","15038","0.0-2.0","3HMIGG0U4MSQTBIZ1RS6AZPDXUFY8D","A1Q56N80RJLQ7S","3KTZHH2ONI1ODAVRRMZTRL6IHCUM80","[{""page_index"":0,""viewing_time"":6051.100000023842},{""page_index"":1,""viewing_time"":730}]","6781.5","","","","","","","","","","","",""
"","image-keyboard-response","3","15441","0.0-3.0","3HMIGG0U4MSQTBIZ1RS6AZPDXUFY8D","A1Q56N80RJLQ7S","3KTZHH2ONI1ODAVRRMZTRL6IHCUM80","","401.39999997615814","img/food6.png","75","402.2999999523163","2","1","false","1","2","1,0.7,0,1,0.7,0,0.7,0,1","0,1,0.7,0,1,0.7,1,0.7,0","3",""
"","html-keyboard-response","4","15754","0.0-4.0","3HMIGG0U4MSQTBIZ1RS6AZPDXUFY8D","A1Q56N80RJLQ7S","3KTZHH2ONI1ODAVRRMZTRL6IHCUM80","","null","<img src=""img/food6.png"" style=""width:200px; border:14px solid green;"">","null","","","","","","","","","",""
"","image-keyboard-response","5","16065","0.0-6.0","3HMIGG0U4MSQTBIZ1RS6AZPDXUFY8D","A1Q56N80RJLQ7S","3KTZHH2ONI1ODAVRRMZTRL6IHCUM80","","308.7000000476837","img/food2.png","75","309.7000000476837","2","1","false","3","2","1,0.7,0,1,0.7,0,0.7,0,1","0,1,0.7,0,1,0.7,1,0.7,0","3",""
"","html-keyboard-response","6","16375","0.0-7.0","3HMIGG0U4MSQTBIZ1RS6AZPDXUFY8D","A1Q56N80RJLQ7S","3KTZHH2ONI1ODAVRRMZTRL6IHCUM80","","null","<img src=""img/food2.png"" style=""width:200px; border:14px solid green;"">","null","","","","","","","","","",""
"","image-keyboard-response","7","16673","0.0-9.0","3HMIGG0U4MSQTBIZ1RS6AZPDXUFY8D","A1Q56N80RJLQ7S","3KTZHH2ONI1ODAVRRMZTRL6IHCUM80","","296","img/food5.png","76","296.90000009536743","3","0","false","2","2","1,0.7,0,1,0.7,0,0.7,0,1","0,1,0.7,0,1,0.7,1,0.7,0","3",""
"","html-keyboard-response","8","16983","0.0-10.0","3HMIGG0U4MSQTBIZ1RS6AZPDXUFY8D","A1Q56N80RJLQ7S","3KTZHH2ONI1ODAVRRMZTRL6IHCUM80","","null","<img src=""img/food5.png"" style=""width:200px;border:14px solid red;"">","null","","","","","","","","","",""
"","image-keyboard-response","9","17240","0.0-12.0","3HMIGG0U4MSQTBIZ1RS6AZPDXUFY8D","A1Q56N80RJLQ7S","3KTZHH2ONI1ODAVRRMZTRL6IHCUM80","","255.29999995231628","img/food6.png","74","256.39999997615814","1","0","false","1","2","1,0.7,0,1,0.7,0,0.7,0,1","0,1,0.7,0,1,0.7,1,0.7,0","3",""
"","html-keyboard-response","10","17547","0.0-13.0","3HMIGG0U4MSQTBIZ1RS6AZPDXUFY8D","A1Q56N80RJLQ7S","3KTZHH2ONI1ODAVRRMZTRL6IHCUM80","","null","<img src=""img/food6.png"" style=""width:200px;border:14px solid red;"">","null","","","","","","","","","",""
"","image-keyboard-response","11","17776","0.0-15.0","3HMIGG0U4MSQTBIZ1RS6AZPDXUFY8D","A1Q56N80RJLQ7S","3KTZHH2ONI1ODAVRRMZTRL6IHCUM80","","227.60000002384186","img/food5.png","74","228.30000007152557","1","0","false","2","2","1,0.7,0,1,0.7,0,0.7,0,1","0,1,0.7,0,1,0.7,1,0.7,0","3",""
"","html-keyboard-response","12","18077","0.0-16.0","3HMIGG0U4MSQTBIZ1RS6AZPDXUFY8D","A1Q56N80RJLQ7S","3KTZHH2ONI1ODAVRRMZTRL6IHCUM80","","null","<img src=""img/food5.png"" style=""width:200px;border:14px solid red;"">","null","","","","","","","","","",""
"","image-keyboard-response","13","18296","0.0-18.0","3HMIGG0U4MSQTBIZ1RS6AZPDXUFY8D","A1Q56N80RJLQ7S","3KTZHH2ONI1ODAVRRMZTRL6IHCUM80","","217.5","img/food5.png","75","218.29999995231628","2","1","false","2","2","1,0.7,0,1,0.7,0,0.7,0,1","0,1,0.7,0,1,0.7,1,0.7,0","3",""
"","html-keyboard-response","14","18607","0.0-19.0","3HMIGG0U4MSQTBIZ1RS6AZPDXUFY8D","A1Q56N80RJLQ7S","3KTZHH2ONI1ODAVRRMZTRL6IHCUM80","","null","<img src=""img/food5.png"" style=""width:200px; border:14px solid green;"">","null","","","","","","","","","",""
"","image-keyboard-response","15","18833","0.0-21.0","3HMIGG0U4MSQTBIZ1RS6AZPDXUFY8D","A1Q56N80RJLQ7S","3KTZHH2ONI1ODAVRRMZTRL6IHCUM80","","224.19999992847443","img/food6.png","75","225","2","1","false","1","2","1,0.7,0,1,0.7,0,0.7,0,1","0,1,0.7,0,1,0.7,1,0.7,0","3",""
"","html-keyboard-response","16","19139","0.0-22.0","3HMIGG0U4MSQTBIZ1RS6AZPDXUFY8D","A1Q56N80RJLQ7S","3KTZHH2ONI1ODAVRRMZTRL6IHCUM80","","null","<img src=""img/food6.png"" style=""width:200px; border:14px solid green;"">","null","","","","","","","","","",""
"","image-keyboard-response","17","19345","0.0-24.0","3HMIGG0U4MSQTBIZ1RS6AZPDXUFY8D","A1Q56N80RJLQ7S","3KTZHH2ONI1ODAVRRMZTRL6IHCUM80","","203.80000007152557","img/food2.png","76","204.80000007152557","3","0","false","3","2","1,0.7,0,1,0.7,0,0.7,0,1","0,1,0.7,0,1,0.7,1,0.7,0","3",""
"","html-keyboard-response","18","19655","0.0-25.0","3HMIGG0U4MSQTBIZ1RS6AZPDXUFY8D","A1Q56N80RJLQ7S","3KTZHH2ONI1ODAVRRMZTRL6IHCUM80","","null","<img src=""img/food2.png"" style=""width:200px;border:14px solid red;"">","null","","","","","","","","","",""
"","image-keyboard-response","19","19833","0.0-27.0","3HMIGG0U4MSQTBIZ1RS6AZPDXUFY8D","A1Q56N80RJLQ7S","3KTZHH2ONI1ODAVRRMZTRL6IHCUM80","","176.40000009536743","img/food2.png","75","177.30000007152557","2","1","false","3","2","1,0.7,0,1,0.7,0,0.7,0,1","0,1,0.7,0,1,0.7,1,0.7,0","3",""
"","html-keyboard-response","20","20139","0.0-28.0","3HMIGG0U4MSQTBIZ1RS6AZPDXUFY8D","A1Q56N80RJLQ7S","3KTZHH2ONI1ODAVRRMZTRL6IHCUM80","","null","<img src=""img/food2.png"" style=""width:200px; border:14px solid green;"">","null","","","","","","","","","",""
"","image-keyboard-response","21","20353","0.0-30.0","3HMIGG0U4MSQTBIZ1RS6AZPDXUFY8D","A1Q56N80RJLQ7S","3KTZHH2ONI1ODAVRRMZTRL6IHCUM80","","212","img/food2.png","75","212.89999997615814","2","1","false","3","2","1,0.7,0,1,0.7,0,0.7,0,1","0,1,0.7,0,1,0.7,1,0.7,0","3",""
"","html-keyboard-response","22","20654","0.0-31.0","3HMIGG0U4MSQTBIZ1RS6AZPDXUFY8D","A1Q56N80RJLQ7S","3KTZHH2ONI1ODAVRRMZTRL6IHCUM80","","null","<img src=""img/food2.png"" style=""width:200px; border:14px solid green;"">","null","","","","","","","","","",""
"","image-keyboard-response","23","20865","0.0-33.0","3HMIGG0U4MSQTBIZ1RS6AZPDXUFY8D","A1Q56N80RJLQ7S","3KTZHH2ONI1ODAVRRMZTRL6IHCUM80","","209.89999997615814","img/food2.png","75","210.69999992847443","2","1","false","3","2","1,0.7,0,1,0.7,0,0.7,0,1","0,1,0.7,0,1,0.7,1,0.7,0","3",""
"","html-keyboard-response","24","21170","0.0-34.0","3HMIGG0U4MSQTBIZ1RS6AZPDXUFY8D","A1Q56N80RJLQ7S","3KTZHH2ONI1ODAVRRMZTRL6IHCUM80","","null","<img src=""img/food2.png"" style=""width:200px; border:14px solid green;"">","null","","","","","","","","","",""
"","image-keyboard-response","25","21352","0.0-36.0","3HMIGG0U4MSQTBIZ1RS6AZPDXUFY8D","A1Q56N80RJLQ7S","3KTZHH2ONI1ODAVRRMZTRL6IHCUM80","","181.5","img/food2.png","75","182.40000009536743","2","0","false","3","2","1,0.7,0,1,0.7,0,0.7,0,1","0,1,0.7,0,1,0.7,1,0.7,0","3",""
"","html-keyboard-response","26","21655","0.0-37.0","3HMIGG0U4MSQTBIZ1RS6AZPDXUFY8D","A1Q56N80RJLQ7S","3KTZHH2ONI1ODAVRRMZTRL6IHCUM80","","null","<img src=""img/food2.png"" style=""width:200px;border:14px solid red;"">","null","","","","","","","","","",""
"","image-keyboard-response","27","21864","0.0-39.0","3HMIGG0U4MSQTBIZ1RS6AZPDXUFY8D","A1Q56N80RJLQ7S","3KTZHH2ONI1ODAVRRMZTRL6IHCUM80","","208.40000009536743","img/food5.png","75","209.10000002384186","2","1","false","2","2","1,0.7,0,1,0.7,0,0.7,0,1","0,1,0.7,0,1,0.7,1,0.7,0","3",""
"","html-keyboard-response","28","22172","0.0-40.0","3HMIGG0U4MSQTBIZ1RS6AZPDXUFY8D","A1Q56N80RJLQ7S","3KTZHH2ONI1ODAVRRMZTRL6IHCUM80","","null","<img src=""img/food5.png"" style=""width:200px; border:14px solid green;"">","null","","","","","","","","","",""
"","image-keyboard-response","29","22344","0.0-42.0","3HMIGG0U4MSQTBIZ1RS6AZPDXUFY8D","A1Q56N80RJLQ7S","3KTZHH2ONI1ODAVRRMZTRL6IHCUM80","","171.39999997615814","img/food2.png","75","172.19999992847443","2","0","false","3","2","1,0.7,0,1,0.7,0,0.7,0,1","0,1,0.7,0,1,0.7,1,0.7,0","3",""
"","html-keyboard-response","30","22654","0.0-43.0","3HMIGG0U4MSQTBIZ1RS6AZPDXUFY8D","A1Q56N80RJLQ7S","3KTZHH2ONI1ODAVRRMZTRL6IHCUM80","","null","<img src=""img/food2.png"" style=""width:200px;border:14px solid red;"">","null","","","","","","","","","",""
"","image-keyboard-response","31","22848","0.0-45.0","3HMIGG0U4MSQTBIZ1RS6AZPDXUFY8D","A1Q56N80RJLQ7S","3KTZHH2ONI1ODAVRRMZTRL6IHCUM80","","192.60000002384186","img/food5.png","75","193.29999995231628","2","1","false","2","2","1,0.7,0,1,0.7,0,0.7,0,1","0,1,0.7,0,1,0.7,1,0.7,0","3",""
"","html-keyboard-response","32","23153","0.0-46.0","3HMIGG0U4MSQTBIZ1RS6AZPDXUFY8D","A1Q56N80RJLQ7S","3KTZHH2ONI1ODAVRRMZTRL6IHCUM80","","null","<img src=""img/food5.png"" style=""width:200px; border:14px solid green;"">","null","","","","","","","","","",""
"","image-keyboard-response","33","23353","0.0-48.0","3HMIGG0U4MSQTBIZ1RS6AZPDXUFY8D","A1Q56N80RJLQ7S","3KTZHH2ONI1ODAVRRMZTRL6IHCUM80","","198.79999995231628","img/food5.png","75","199.5","2","1","false","2","2","1,0.7,0,1,0.7,0,0.7,0,1","0,1,0.7,0,1,0.7,1,0.7,0","3",""
"","html-keyboard-response","34","23654","0.0-49.0","3HMIGG0U4MSQTBIZ1RS6AZPDXUFY8D","A1Q56N80RJLQ7S","3KTZHH2ONI1ODAVRRMZTRL6IHCUM80","","null","<img src=""img/food5.png"" style=""width:200px; border:14px solid green;"">","null","","","","","","","","","",""
"","image-keyboard-response","35","23784","0.0-51.0","3HMIGG0U4MSQTBIZ1RS6AZPDXUFY8D","A1Q56N80RJLQ7S","3KTZHH2ONI1ODAVRRMZTRL6IHCUM80","","129.39999997615814","img/food6.png","75","130.09999990463257","2","1","false","1","2","1,0.7,0,1,0.7,0,0.7,0,1","0,1,0.7,0,1,0.7,1,0.7,0","3",""
"","html-keyboard-response","36","24089","0.0-52.0","3HMIGG0U4MSQTBIZ1RS6AZPDXUFY8D","A1Q56N80RJLQ7S","3KTZHH2ONI1ODAVRRMZTRL6IHCUM80","","null","<img src=""img/food6.png"" style=""width:200px; border:14px solid green;"">","null","","","","","","","","","",""
"","image-keyboard-response","37","24329","0.0-54.0","3HMIGG0U4MSQTBIZ1RS6AZPDXUFY8D","A1Q56N80RJLQ7S","3KTZHH2ONI1ODAVRRMZTRL6IHCUM80","","238","img/food6.png","75","238.80000007152557","2","1","false","1","2","1,0.7,0,1,0.7,0,0.7,0,1","0,1,0.7,0,1,0.7,1,0.7,0","3",""
"","html-keyboard-response","38","24636","0.0-55.0","3HMIGG0U4MSQTBIZ1RS6AZPDXUFY8D","A1Q56N80RJLQ7S","3KTZHH2ONI1ODAVRRMZTRL6IHCUM80","","null","<img src=""img/food6.png"" style=""width:200px; border:14px solid green;"">","null","","","","","","","","","",""
"","image-keyboard-response","39","24704","0.0-57.0","3HMIGG0U4MSQTBIZ1RS6AZPDXUFY8D","A1Q56N80RJLQ7S","3KTZHH2ONI1ODAVRRMZTRL6IHCUM80","","67.10000002384186","img/food2.png","74","67.89999997615814","1","1","false","3","2","1,0.7,0,1,0.7,0,0.7,0,1","0,1,0.7,0,1,0.7,1,0.7,0","3",""
"","html-keyboard-response","40","25011","0.0-58.0","3HMIGG0U4MSQTBIZ1RS6AZPDXUFY8D","A1Q56N80RJLQ7S","3KTZHH2ONI1ODAVRRMZTRL6IHCUM80","","null","<img src=""img/food2.png"" style=""width:200px; border:14px solid green;"">","null","","","","","","","","","",""
"","image-keyboard-response","41","25168","0.0-60.0","3HMIGG0U4MSQTBIZ1RS6AZPDXUFY8D","A1Q56N80RJLQ7S","3KTZHH2ONI1ODAVRRMZTRL6IHCUM80","","155.79999995231628","img/food2.png","74","156.59999990463257","1","1","false","3","2","1,0.7,0,1,0.7,0,0.7,0,1","0,1,0.7,0,1,0.7,1,0.7,0","3",""
"","html-keyboard-response","42","25478","0.0-61.0","3HMIGG0U4MSQTBIZ1RS6AZPDXUFY8D","A1Q56N80RJLQ7S","3KTZHH2ONI1ODAVRRMZTRL6IHCUM80","","null","<img src=""img/food2.png"" style=""width:200px; border:14px solid green;"">","null","","","","","","","","","",""
"","image-keyboard-response","43","25512","0.0-63.0","3HMIGG0U4MSQTBIZ1RS6AZPDXUFY8D","A1Q56N80RJLQ7S","3KTZHH2ONI1ODAVRRMZTRL6IHCUM80","","32.39999997615814","img/food6.png","74","33","1","0","false","1","2","1,0.7,0,1,0.7,0,0.7,0,1","0,1,0.7,0,1,0.7,1,0.7,0","3",""
"","html-keyboard-response","44","25823","0.0-64.0","3HMIGG0U4MSQTBIZ1RS6AZPDXUFY8D","A1Q56N80RJLQ7S","3KTZHH2ONI1ODAVRRMZTRL6IHCUM80","","null","<img src=""img/food6.png"" style=""width:200px;border:14px solid red;"">","null","","","","","","","","","",""
"","image-keyboard-response","45","25960","0.0-66.0","3HMIGG0U4MSQTBIZ1RS6AZPDXUFY8D","A1Q56N80RJLQ7S","3KTZHH2ONI1ODAVRRMZTRL6IHCUM80","","135.79999995231628","img/food6.png","74","136.89999997615814","1","0","false","1","2","1,0.7,0,1,0.7,0,0.7,0,1","0,1,0.7,0,1,0.7,1,0.7,0","3",""
"","html-keyboard-response","46","26275","0.0-67.0","3HMIGG0U4MSQTBIZ1RS6AZPDXUFY8D","A1Q56N80RJLQ7S","3KTZHH2ONI1ODAVRRMZTRL6IHCUM80","","null","<img src=""img/food6.png"" style=""width:200px;border:14px solid red;"">","null","","","","","","","","","",""
"","image-keyboard-response","47","26320","0.0-69.0","3HMIGG0U4MSQTBIZ1RS6AZPDXUFY8D","A1Q56N80RJLQ7S","3KTZHH2ONI1ODAVRRMZTRL6IHCUM80","","43.60000002384186","img/food2.png","74","44.5","1","1","false","3","2","1,0.7,0,1,0.7,0,0.7,0,1","0,1,0.7,0,1,0.7,1,0.7,0","3",""
"","html-keyboard-response","48","26633","0.0-70.0","3HMIGG0U4MSQTBIZ1RS6AZPDXUFY8D","A1Q56N80RJLQ7S","3KTZHH2ONI1ODAVRRMZTRL6IHCUM80","","null","<img src=""img/food2.png"" style=""width:200px; border:14px solid green;"">","null","","","","","","","","","",""
"","image-keyboard-response","49","26888","0.0-72.0","3HMIGG0U4MSQTBIZ1RS6AZPDXUFY8D","A1Q56N80RJLQ7S","3KTZHH2ONI1ODAVRRMZTRL6IHCUM80","","254.09999990463257","img/food6.png","74","255","1","0","false","1","2","1,0.7,0,1,0.7,0,0.7,0,1","0,1,0.7,0,1,0.7,1,0.7,0","3",""
"","html-keyboard-response","50","27195","0.0-73.0","3HMIGG0U4MSQTBIZ1RS6AZPDXUFY8D","A1Q56N80RJLQ7S","3KTZHH2ONI1ODAVRRMZTRL6IHCUM80","","null","<img src=""img/food6.png"" style=""width:200px;border:14px solid red;"">","null","","","","","","","","","",""
"","image-keyboard-response","51","27328","0.0-75.0","3HMIGG0U4MSQTBIZ1RS6AZPDXUFY8D","A1Q56N80RJLQ7S","3KTZHH2ONI1ODAVRRMZTRL6IHCUM80","","131.79999995231628","img/food2.png","74","132.60000002384186","1","1","false","3","2","1,0.7,0,1,0.7,0,0.7,0,1","0,1,0.7,0,1,0.7,1,0.7,0","3",""
"","html-keyboard-response","52","27630","0.0-76.0","3HMIGG0U4MSQTBIZ1RS6AZPDXUFY8D","A1Q56N80RJLQ7S","3KTZHH2ONI1ODAVRRMZTRL6IHCUM80","","null","<img src=""img/food2.png"" style=""width:200px; border:14px solid green;"">","null","","","","","","","","","",""
"","image-keyboard-response","53","27720","0.0-78.0","3HMIGG0U4MSQTBIZ1RS6AZPDXUFY8D","A1Q56N80RJLQ7S","3KTZHH2ONI1ODAVRRMZTRL6IHCUM80","","88.5","img/food2.png","74","89.20000004768372","1","1","false","3","2","1,0.7,0,1,0.7,0,0.7,0,1","0,1,0.7,0,1,0.7,1,0.7,0","3",""
"","html-keyboard-response","54","28023","0.0-79.0","3HMIGG0U4MSQTBIZ1RS6AZPDXUFY8D","A1Q56N80RJLQ7S","3KTZHH2ONI1ODAVRRMZTRL6IHCUM80","","null","<img src=""img/food2.png"" style=""width:200px; border:14px solid green;"">","null","","","","","","","","","",""
"","image-keyboard-response","55","28088","0.0-81.0","3HMIGG0U4MSQTBIZ1RS6AZPDXUFY8D","A1Q56N80RJLQ7S","3KTZHH2ONI1ODAVRRMZTRL6IHCUM80","","63.799999952316284","img/food6.png","75","64.60000002384186","2","1","false","1","2","1,0.7,0,1,0.7,0,0.7,0,1","0,1,0.7,0,1,0.7,1,0.7,0","3",""
"","html-keyboard-response","56","28397","0.0-82.0","3HMIGG0U4MSQTBIZ1RS6AZPDXUFY8D","A1Q56N80RJLQ7S","3KTZHH2ONI1ODAVRRMZTRL6IHCUM80","","null","<img src=""img/food6.png"" style=""width:200px; border:14px solid green;"">","null","","","","","","","","","",""
"","image-keyboard-response","57","28520","0.0-84.0","3HMIGG0U4MSQTBIZ1RS6AZPDXUFY8D","A1Q56N80RJLQ7S","3KTZHH2ONI1ODAVRRMZTRL6IHCUM80","","121.79999995231628","img/food5.png","75","122.5","2","1","false","2","2","1,0.7,0,1,0.7,0,0.7,0,1","0,1,0.7,0,1,0.7,1,0.7,0","3",""
"","html-keyboard-response","58","28833","0.0-85.0","3HMIGG0U4MSQTBIZ1RS6AZPDXUFY8D","A1Q56N80RJLQ7S","3KTZHH2ONI1ODAVRRMZTRL6IHCUM80","","null","<img src=""img/food5.png"" style=""width:200px; border:14px solid green;"">","null","","","","","","","","","",""
"","image-keyboard-response","59","28848","0.0-87.0","3HMIGG0U4MSQTBIZ1RS6AZPDXUFY8D","A1Q56N80RJLQ7S","3KTZHH2ONI1ODAVRRMZTRL6IHCUM80","","13.700000047683716","img/food2.png","75","14.400000095367432","2","0","false","3","2","1,0.7,0,1,0.7,0,0.7,0,1","0,1,0.7,0,1,0.7,1,0.7,0","3",""
"","html-keyboard-response","60","29159","0.0-88.0","3HMIGG0U4MSQTBIZ1RS6AZPDXUFY8D","A1Q56N80RJLQ7S","3KTZHH2ONI1ODAVRRMZTRL6IHCUM80","","null","<img src=""img/food2.png"" style=""width:200px;border:14px solid red;"">","null","","","","","","","","","",""
"","image-keyboard-response","61","29336","0.0-90.0","3HMIGG0U4MSQTBIZ1RS6AZPDXUFY8D","A1Q56N80RJLQ7S","3KTZHH2ONI1ODAVRRMZTRL6IHCUM80","","175.30000007152557","img/food5.png","75","176.20000004768372","2","1","false","2","2","1,0.7,0,1,0.7,0,0.7,0,1","0,1,0.7,0,1,0.7,1,0.7,0","3",""
"","html-keyboard-response","62","29638","0.0-91.0","3HMIGG0U4MSQTBIZ1RS6AZPDXUFY8D","A1Q56N80RJLQ7S","3KTZHH2ONI1ODAVRRMZTRL6IHCUM80","","null","<img src=""img/food5.png"" style=""width:200px; border:14px solid green;"">","null","","","","","","","","","",""
"","image-keyboard-response","63","29768","0.0-93.0","3HMIGG0U4MSQTBIZ1RS6AZPDXUFY8D","A1Q56N80RJLQ7S","3KTZHH2ONI1ODAVRRMZTRL6IHCUM80","","129.10000002384186","img/food6.png","75","129.89999997615814","2","1","false","1","2","1,0.7,0,1,0.7,0,0.7,0,1","0,1,0.7,0,1,0.7,1,0.7,0","3",""
"","html-keyboard-response","64","30070","0.0-94.0","3HMIGG0U4MSQTBIZ1RS6AZPDXUFY8D","A1Q56N80RJLQ7S","3KTZHH2ONI1ODAVRRMZTRL6IHCUM80","","null","<img src=""img/food6.png"" style=""width:200px; border:14px solid green;"">","null","","","","","","","","","",""
"","image-keyboard-response","65","30289","0.0-96.0","3HMIGG0U4MSQTBIZ1RS6AZPDXUFY8D","A1Q56N80RJLQ7S","3KTZHH2ONI1ODAVRRMZTRL6IHCUM80","","217","img/food2.png","76","218.09999990463257","3","0","false","3","2","1,0.7,0,1,0.7,0,0.7,0,1","0,1,0.7,0,1,0.7,1,0.7,0","3",""
"","html-keyboard-response","66","30590","0.0-97.0","3HMIGG0U4MSQTBIZ1RS6AZPDXUFY8D","A1Q56N80RJLQ7S","3KTZHH2ONI1ODAVRRMZTRL6IHCUM80","","null","<img src=""img/food2.png"" style=""width:200px;border:14px solid red;"">","null","","","","","","","","","",""
"","image-keyboard-response","67","30785","0.0-99.0","3HMIGG0U4MSQTBIZ1RS6AZPDXUFY8D","A1Q56N80RJLQ7S","3KTZHH2ONI1ODAVRRMZTRL6IHCUM80","","193.5","img/food5.png","76","194.5","3","1","false","2","2","1,0.7,0,1,0.7,0,0.7,0,1","0,1,0.7,0,1,0.7,1,0.7,0","3",""
"","html-keyboard-response","68","31088","0.0-100.0","3HMIGG0U4MSQTBIZ1RS6AZPDXUFY8D","A1Q56N80RJLQ7S","3KTZHH2ONI1ODAVRRMZTRL6IHCUM80","","null","<img src=""img/food5.png"" style=""width:200px; border:14px solid green;"">","null","","","","","","","","","",""
"","image-keyboard-response","69","31112","0.0-102.0","3HMIGG0U4MSQTBIZ1RS6AZPDXUFY8D","A1Q56N80RJLQ7S","3KTZHH2ONI1ODAVRRMZTRL6IHCUM80","","23.600000023841858","img/food6.png","76","24.199999928474426","3","1","false","1","2","1,0.7,0,1,0.7,0,0.7,0,1","0,1,0.7,0,1,0.7,1,0.7,0","3",""
"","html-keyboard-response","70","31413","0.0-103.0","3HMIGG0U4MSQTBIZ1RS6AZPDXUFY8D","A1Q56N80RJLQ7S","3KTZHH2ONI1ODAVRRMZTRL6IHCUM80","","null","<img src=""img/food6.png"" style=""width:200px; border:14px solid green;"">","null","","","","","","","","","",""
"","image-keyboard-response","71","31560","0.0-105.0","3HMIGG0U4MSQTBIZ1RS6AZPDXUFY8D","A1Q56N80RJLQ7S","3KTZHH2ONI1ODAVRRMZTRL6IHCUM80","","145.60000002384186","img/food5.png","75","146.5","2","1","false","2","2","1,0.7,0,1,0.7,0,0.7,0,1","0,1,0.7,0,1,0.7,1,0.7,0","3",""
"","html-keyboard-response","72","31863","0.0-106.0","3HMIGG0U4MSQTBIZ1RS6AZPDXUFY8D","A1Q56N80RJLQ7S","3KTZHH2ONI1ODAVRRMZTRL6IHCUM80","","null","<img src=""img/food5.png"" style=""width:200px; border:14px solid green;"">","null","","","","","","","","","",""
"","image-keyboard-response","73","31968","0.0-108.0","3HMIGG0U4MSQTBIZ1RS6AZPDXUFY8D","A1Q56N80RJLQ7S","3KTZHH2ONI1ODAVRRMZTRL6IHCUM80","","104.60000002384186","img/food6.png","75","105.39999997615814","2","1","false","1","2","1,0.7,0,1,0.7,0,0.7,0,1","0,1,0.7,0,1,0.7,1,0.7,0","3",""
"","html-keyboard-response","74","32270","0.0-109.0","3HMIGG0U4MSQTBIZ1RS6AZPDXUFY8D","A1Q56N80RJLQ7S","3KTZHH2ONI1ODAVRRMZTRL6IHCUM80","","null","<img src=""img/food6.png"" style=""width:200px; border:14px solid green;"">","null","","","","","","","","","",""
"","image-keyboard-response","75","32432","0.0-111.0","3HMIGG0U4MSQTBIZ1RS6AZPDXUFY8D","A1Q56N80RJLQ7S","3KTZHH2ONI1ODAVRRMZTRL6IHCUM80","","161.20000004768372","img/food5.png","75","162.10000002384186","2","1","false","2","2","1,0.7,0,1,0.7,0,0.7,0,1","0,1,0.7,0,1,0.7,1,0.7,0","3",""
"","html-keyboard-response","76","32735","0.0-112.0","3HMIGG0U4MSQTBIZ1RS6AZPDXUFY8D","A1Q56N80RJLQ7S","3KTZHH2ONI1ODAVRRMZTRL6IHCUM80","","null","<img src=""img/food5.png"" style=""width:200px; border:14px solid green;"">","null","","","","","","","","","",""
"","image-keyboard-response","77","32880","0.0-114.0","3HMIGG0U4MSQTBIZ1RS6AZPDXUFY8D","A1Q56N80RJLQ7S","3KTZHH2ONI1ODAVRRMZTRL6IHCUM80","","144.20000004768372","img/food6.png","75","145.10000002384186","2","1","false","1","2","1,0.7,0,1,0.7,0,0.7,0,1","0,1,0.7,0,1,0.7,1,0.7,0","3",""
"","html-keyboard-response","78","33182","0.0-115.0","3HMIGG0U4MSQTBIZ1RS6AZPDXUFY8D","A1Q56N80RJLQ7S","3KTZHH2ONI1ODAVRRMZTRL6IHCUM80","","null","<img src=""img/food6.png"" style=""width:200px; border:14px solid green;"">","null","","","","","","","","","",""
"","image-keyboard-response","79","33336","0.0-117.0","3HMIGG0U4MSQTBIZ1RS6AZPDXUFY8D","A1Q56N80RJLQ7S","3KTZHH2ONI1ODAVRRMZTRL6IHCUM80","","152.89999997615814","img/food2.png","75","153.79999995231628","2","1","false","3","2","1,0.7,0,1,0.7,0,0.7,0,1","0,1,0.7,0,1,0.7,1,0.7,0","3",""
"","html-keyboard-response","80","33638","0.0-118.0","3HMIGG0U4MSQTBIZ1RS6AZPDXUFY8D","A1Q56N80RJLQ7S","3KTZHH2ONI1ODAVRRMZTRL6IHCUM80","","null","<img src=""img/food2.png"" style=""width:200px; border:14px solid green;"">","null","","","","","","","","","",""
"","image-keyboard-response","81","33777","0.0-120.0","3HMIGG0U4MSQTBIZ1RS6AZPDXUFY8D","A1Q56N80RJLQ7S","3KTZHH2ONI1ODAVRRMZTRL6IHCUM80","","137.29999995231628","img/food5.png","75","138.29999995231628","2","1","false","2","2","1,0.7,0,1,0.7,0,0.7,0,1","0,1,0.7,0,1,0.7,1,0.7,0","3",""
"","html-keyboard-response","82","34079","0.0-121.0","3HMIGG0U4MSQTBIZ1RS6AZPDXUFY8D","A1Q56N80RJLQ7S","3KTZHH2ONI1ODAVRRMZTRL6IHCUM80","","null","<img src=""img/food5.png"" style=""width:200px; border:14px solid green;"">","null","","","","","","","","","",""
"","image-keyboard-response","83","34225","0.0-123.0","3HMIGG0U4MSQTBIZ1RS6AZPDXUFY8D","A1Q56N80RJLQ7S","3KTZHH2ONI1ODAVRRMZTRL6IHCUM80","","144.19999992847443","img/food5.png","74","145.19999992847443","1","0","false","2","2","1,0.7,0,1,0.7,0,0.7,0,1","0,1,0.7,0,1,0.7,1,0.7,0","3",""
"","html-keyboard-response","84","34528","0.0-124.0","3HMIGG0U4MSQTBIZ1RS6AZPDXUFY8D","A1Q56N80RJLQ7S","3KTZHH2ONI1ODAVRRMZTRL6IHCUM80","","null","<img src=""img/food5.png"" style=""width:200px;border:14px solid red;"">","null","","","","","","","","","",""
"","image-keyboard-response","85","34568","0.0-126.0","3HMIGG0U4MSQTBIZ1RS6AZPDXUFY8D","A1Q56N80RJLQ7S","3KTZHH2ONI1ODAVRRMZTRL6IHCUM80","","39.299999952316284","img/food5.png","74","40.10000002384186","1","0","false","2","2","1,0.7,0,1,0.7,0,0.7,0,1","0,1,0.7,0,1,0.7,1,0.7,0","3",""
"","html-keyboard-response","86","34870","0.0-127.0","3HMIGG0U4MSQTBIZ1RS6AZPDXUFY8D","A1Q56N80RJLQ7S","3KTZHH2ONI1ODAVRRMZTRL6IHCUM80","","null","<img src=""img/food5.png"" style=""width:200px;border:14px solid red;"">","null","","","","","","","","","",""
"","image-keyboard-response","87","34944","0.0-129.0","3HMIGG0U4MSQTBIZ1RS6AZPDXUFY8D","A1Q56N80RJLQ7S","3KTZHH2ONI1ODAVRRMZTRL6IHCUM80","","72.60000002384186","img/food2.png","74","73.60000002384186","1","1","false","3","2","1,0.7,0,1,0.7,0,0.7,0,1","0,1,0.7,0,1,0.7,1,0.7,0","3",""
"","html-keyboard-response","88","35246","0.0-130.0","3HMIGG0U4MSQTBIZ1RS6AZPDXUFY8D","A1Q56N80RJLQ7S","3KTZHH2ONI1ODAVRRMZTRL6IHCUM80","","null","<img src=""img/food2.png"" style=""width:200px; border:14px solid green;"">","null","","","","","","","","","",""
"","image-keyboard-response","89","35368","0.0-132.0","3HMIGG0U4MSQTBIZ1RS6AZPDXUFY8D","A1Q56N80RJLQ7S","3KTZHH2ONI1ODAVRRMZTRL6IHCUM80","","120.89999997615814","img/food2.png","74","121.89999997615814","1","1","false","3","2","1,0.7,0,1,0.7,0,0.7,0,1","0,1,0.7,0,1,0.7,1,0.7,0","3",""
"","html-keyboard-response","90","35671","0.0-133.0","3HMIGG0U4MSQTBIZ1RS6AZPDXUFY8D","A1Q56N80RJLQ7S","3KTZHH2ONI1ODAVRRMZTRL6IHCUM80","","null","<img src=""img/food2.png"" style=""width:200px; border:14px solid green;"">","null","","","","","","","","","",""
"","image-keyboard-response","91","35688","0.0-135.0","3HMIGG0U4MSQTBIZ1RS6AZPDXUFY8D","A1Q56N80RJLQ7S","3KTZHH2ONI1ODAVRRMZTRL6IHCUM80","","16.700000047683716","img/food6.png","74","17.5","1","0","false","1","2","1,0.7,0,1,0.7,0,0.7,0,1","0,1,0.7,0,1,0.7,1,0.7,0","3",""
"","html-keyboard-response","92","35990","0.0-136.0","3HMIGG0U4MSQTBIZ1RS6AZPDXUFY8D","A1Q56N80RJLQ7S","3KTZHH2ONI1ODAVRRMZTRL6IHCUM80","","null","<img src=""img/food6.png"" style=""width:200px;border:14px solid red;"">","null","","","","","","","","","",""
"","image-keyboard-response","93","36073","0.0-138.0","3HMIGG0U4MSQTBIZ1RS6AZPDXUFY8D","A1Q56N80RJLQ7S","3KTZHH2ONI1ODAVRRMZTRL6IHCUM80","","81.10000002384186","img/food6.png","74","82.19999992847443","1","0","false","1","2","1,0.7,0,1,0.7,0,0.7,0,1","0,1,0.7,0,1,0.7,1,0.7,0","3",""
"","html-keyboard-response","94","36375","0.0-139.0","3HMIGG0U4MSQTBIZ1RS6AZPDXUFY8D","A1Q56N80RJLQ7S","3KTZHH2ONI1ODAVRRMZTRL6IHCUM80","","null","<img src=""img/food6.png"" style=""width:200px;border:14px solid red;"">","null","","","","","","","","","",""
"","image-keyboard-response","95","36576","0.0-141.0","3HMIGG0U4MSQTBIZ1RS6AZPDXUFY8D","A1Q56N80RJLQ7S","3KTZHH2ONI1ODAVRRMZTRL6IHCUM80","","200","img/food2.png","74","200.89999997615814","1","1","false","3","2","1,0.7,0,1,0.7,0,0.7,0,1","0,1,0.7,0,1,0.7,1,0.7,0","3",""
"","html-keyboard-response","96","36878","0.0-142.0","3HMIGG0U4MSQTBIZ1RS6AZPDXUFY8D","A1Q56N80RJLQ7S","3KTZHH2ONI1ODAVRRMZTRL6IHCUM80","","null","<img src=""img/food2.png"" style=""width:200px; border:14px solid green;"">","null","","","","","","","","","",""
"","image-keyboard-response","97","37313","0.0-144.0","3HMIGG0U4MSQTBIZ1RS6AZPDXUFY8D","A1Q56N80RJLQ7S","3KTZHH2ONI1ODAVRRMZTRL6IHCUM80","","433.5","img/food6.png","74","434.39999997615814","1","0","false","1","2","1,0.7,0,1,0.7,0,0.7,0,1","0,1,0.7,0,1,0.7,1,0.7,0","3",""
"","html-keyboard-response","98","37615","0.0-145.0","3HMIGG0U4MSQTBIZ1RS6AZPDXUFY8D","A1Q56N80RJLQ7S","3KTZHH2ONI1ODAVRRMZTRL6IHCUM80","","null","<img src=""img/food6.png"" style=""width:200px;border:14px solid red;"">","null","","","","","","","","","",""
"","image-keyboard-response","99","37753","0.0-147.0","3HMIGG0U4MSQTBIZ1RS6AZPDXUFY8D","A1Q56N80RJLQ7S","3KTZHH2ONI1ODAVRRMZTRL6IHCUM80","","136.10000002384186","img/food5.png","74","137.19999992847443","1","0","false","2","2","1,0.7,0,1,0.7,0,0.7,0,1","0,1,0.7,0,1,0.7,1,0.7,0","3",""
"","html-keyboard-response","100","38055","0.0-148.0","3HMIGG0U4MSQTBIZ1RS6AZPDXUFY8D","A1Q56N80RJLQ7S","3KTZHH2ONI1ODAVRRMZTRL6IHCUM80","","null","<img src=""img/food5.png"" style=""width:200px;border:14px solid red;"">","null","","","","","","","","","",""
"","image-keyboard-response","101","38480","0.0-150.0","3HMIGG0U4MSQTBIZ1RS6AZPDXUFY8D","A1Q56N80RJLQ7S","3KTZHH2ONI1ODAVRRMZTRL6IHCUM80","","423.89999997615814","img/food6.png","74","425","1","0","false","1","2","1,0.7,0,1,0.7,0,0.7,0,1","0,1,0.7,0,1,0.7,1,0.7,0","3",""
"","html-keyboard-response","102","38783","0.0-151.0","3HMIGG0U4MSQTBIZ1RS6AZPDXUFY8D","A1Q56N80RJLQ7S","3KTZHH2ONI1ODAVRRMZTRL6IHCUM80","","null","<img src=""img/food6.png"" style=""width:200px;border:14px solid red;"">","null","","","","","","","","","",""
"","image-keyboard-response","103","38992","0.0-153.0","3HMIGG0U4MSQTBIZ1RS6AZPDXUFY8D","A1Q56N80RJLQ7S","3KTZHH2ONI1ODAVRRMZTRL6IHCUM80","","208.29999995231628","img/food5.png","75","209.39999997615814","2","1","false","2","2","1,0.7,0,1,0.7,0,0.7,0,1","0,1,0.7,0,1,0.7,1,0.7,0","3",""
"","html-keyboard-response","104","39295","0.0-154.0","3HMIGG0U4MSQTBIZ1RS6AZPDXUFY8D","A1Q56N80RJLQ7S","3KTZHH2ONI1ODAVRRMZTRL6IHCUM80","","null","<img src=""img/food5.png"" style=""width:200px; border:14px solid green;"">","null","","","","","","","","","",""
"","image-keyboard-response","105","39480","0.0-156.0","3HMIGG0U4MSQTBIZ1RS6AZPDXUFY8D","A1Q56N80RJLQ7S","3KTZHH2ONI1ODAVRRMZTRL6IHCUM80","","184.39999997615814","img/food2.png","75","185.29999995231628","2","1","false","3","2","1,0.7,0,1,0.7,0,0.7,0,1","0,1,0.7,0,1,0.7,1,0.7,0","3",""
"","html-keyboard-response","106","39782","0.0-157.0","3HMIGG0U4MSQTBIZ1RS6AZPDXUFY8D","A1Q56N80RJLQ7S","3KTZHH2ONI1ODAVRRMZTRL6IHCUM80","","null","<img src=""img/food2.png"" style=""width:200px; border:14px solid green;"">","null","","","","","","","","","",""
"","image-keyboard-response","107","40009","0.0-159.0","3HMIGG0U4MSQTBIZ1RS6AZPDXUFY8D","A1Q56N80RJLQ7S","3KTZHH2ONI1ODAVRRMZTRL6IHCUM80","","224.80000007152557","img/food5.png","76","226","3","0","false","2","2","1,0.7,0,1,0.7,0,0.7,0,1","0,1,0.7,0,1,0.7,1,0.7,0","3",""
"","html-keyboard-response","108","40310","0.0-160.0","3HMIGG0U4MSQTBIZ1RS6AZPDXUFY8D","A1Q56N80RJLQ7S","3KTZHH2ONI1ODAVRRMZTRL6IHCUM80","","null","<img src=""img/food5.png"" style=""width:200px;border:14px solid red;"">","null","","","","","","","","","",""
"","image-keyboard-response","109","40464","0.0-162.0","3HMIGG0U4MSQTBIZ1RS6AZPDXUFY8D","A1Q56N80RJLQ7S","3KTZHH2ONI1ODAVRRMZTRL6IHCUM80","","152.60000002384186","img/food2.png","75","153.60000002384186","2","1","false","3","2","1,0.7,0,1,0.7,0,0.7,0,1","0,1,0.7,0,1,0.7,1,0.7,0","3",""
"","html-keyboard-response","110","40766","0.0-163.0","3HMIGG0U4MSQTBIZ1RS6AZPDXUFY8D","A1Q56N80RJLQ7S","3KTZHH2ONI1ODAVRRMZTRL6IHCUM80","","null","<img src=""img/food2.png"" style=""width:200px; border:14px solid green;"">","null","","","","","","","","","",""
"","image-keyboard-response","111","40929","0.0-165.0","3HMIGG0U4MSQTBIZ1RS6AZPDXUFY8D","A1Q56N80RJLQ7S","3KTZHH2ONI1ODAVRRMZTRL6IHCUM80","","161.29999995231628","img/food5.png","75","162.5","2","1","false","2","2","1,0.7,0,1,0.7,0,0.7,0,1","0,1,0.7,0,1,0.7,1,0.7,0","3",""
"","html-keyboard-response","112","41231","0.0-166.0","3HMIGG0U4MSQTBIZ1RS6AZPDXUFY8D","A1Q56N80RJLQ7S","3KTZHH2ONI1ODAVRRMZTRL6IHCUM80","","null","<img src=""img/food5.png"" style=""width:200px; border:14px solid green;"">","null","","","","","","","","","",""
"","image-keyboard-response","113","41409","0.0-168.0","3HMIGG0U4MSQTBIZ1RS6AZPDXUFY8D","A1Q56N80RJLQ7S","3KTZHH2ONI1ODAVRRMZTRL6IHCUM80","","176.69999992847443","img/food6.png","75","177.79999995231628","2","1","false","1","2","1,0.7,0,1,0.7,0,0.7,0,1","0,1,0.7,0,1,0.7,1,0.7,0","3",""
"","html-keyboard-response","114","41711","0.0-169.0","3HMIGG0U4MSQTBIZ1RS6AZPDXUFY8D","A1Q56N80RJLQ7S","3KTZHH2ONI1ODAVRRMZTRL6IHCUM80","","null","<img src=""img/food6.png"" style=""width:200px; border:14px solid green;"">","null","","","","","","","","","",""
"","image-keyboard-response","115","41856","0.0-171.0","3HMIGG0U4MSQTBIZ1RS6AZPDXUFY8D","A1Q56N80RJLQ7S","3KTZHH2ONI1ODAVRRMZTRL6IHCUM80","","143.89999997615814","img/food5.png","76","144.89999997615814","3","1","false","2","2","1,0.7,0,1,0.7,0,0.7,0,1","0,1,0.7,0,1,0.7,1,0.7,0","3",""
"","html-keyboard-response","116","42158","0.0-172.0","3HMIGG0U4MSQTBIZ1RS6AZPDXUFY8D","A1Q56N80RJLQ7S","3KTZHH2ONI1ODAVRRMZTRL6IHCUM80","","null","<img src=""img/food5.png"" style=""width:200px; border:14px solid green;"">","null","","","","","","","","","",""
"","image-keyboard-response","117","42296","0.0-174.0","3HMIGG0U4MSQTBIZ1RS6AZPDXUFY8D","A1Q56N80RJLQ7S","3KTZHH2ONI1ODAVRRMZTRL6IHCUM80","","136.5","img/food2.png","75","137.60000002384186","2","1","false","3","2","1,0.7,0,1,0.7,0,0.7,0,1","0,1,0.7,0,1,0.7,1,0.7,0","3",""
"","html-keyboard-response","118","42598","0.0-175.0","3HMIGG0U4MSQTBIZ1RS6AZPDXUFY8D","A1Q56N80RJLQ7S","3KTZHH2ONI1ODAVRRMZTRL6IHCUM80","","null","<img src=""img/food2.png"" style=""width:200px; border:14px solid green;"">","null","","","","","","","","","",""
"","image-keyboard-response","119","42809","0.0-177.0","3HMIGG0U4MSQTBIZ1RS6AZPDXUFY8D","A1Q56N80RJLQ7S","3KTZHH2ONI1ODAVRRMZTRL6IHCUM80","","209.19999992847443","img/food2.png","74","210.10000002384186","1","1","false","3","2","1,0.7,0,1,0.7,0,0.7,0,1","0,1,0.7,0,1,0.7,1,0.7,0","3",""
"","html-keyboard-response","120","43111","0.0-178.0","3HMIGG0U4MSQTBIZ1RS6AZPDXUFY8D","A1Q56N80RJLQ7S","3KTZHH2ONI1ODAVRRMZTRL6IHCUM80","","null","<img src=""img/food2.png"" style=""width:200px; border:14px solid green;"">","null","","","","","","","","","",""
"","image-keyboard-response","121","43177","0.0-180.0","3HMIGG0U4MSQTBIZ1RS6AZPDXUFY8D","A1Q56N80RJLQ7S","3KTZHH2ONI1ODAVRRMZTRL6IHCUM80","","64","img/food6.png","75","65.09999990463257","2","1","false","1","2","1,0.7,0,1,0.7,0,0.7,0,1","0,1,0.7,0,1,0.7,1,0.7,0","3",""
"","html-keyboard-response","122","43478","0.0-181.0","3HMIGG0U4MSQTBIZ1RS6AZPDXUFY8D","A1Q56N80RJLQ7S","3KTZHH2ONI1ODAVRRMZTRL6IHCUM80","","null","<img src=""img/food6.png"" style=""width:200px; border:14px solid green;"">","null","","","","","","","","","",""
"","image-keyboard-response","123","43680","0.0-183.0","3HMIGG0U4MSQTBIZ1RS6AZPDXUFY8D","A1Q56N80RJLQ7S","3KTZHH2ONI1ODAVRRMZTRL6IHCUM80","","201","img/food2.png","75","201.79999995231628","2","1","false","3","2","1,0.7,0,1,0.7,0,0.7,0,1","0,1,0.7,0,1,0.7,1,0.7,0","3",""
"","html-keyboard-response","124","43982","0.0-184.0","3HMIGG0U4MSQTBIZ1RS6AZPDXUFY8D","A1Q56N80RJLQ7S","3KTZHH2ONI1ODAVRRMZTRL6IHCUM80","","null","<img src=""img/food2.png"" style=""width:200px; border:14px solid green;"">","null","","","","","","","","","",""
"","image-keyboard-response","125","44168","0.0-186.0","3HMIGG0U4MSQTBIZ1RS6AZPDXUFY8D","A1Q56N80RJLQ7S","3KTZHH2ONI1ODAVRRMZTRL6IHCUM80","","184.89999997615814","img/food6.png","76","186.10000002384186","3","0","false","1","2","1,0.7,0,1,0.7,0,0.7,0,1","0,1,0.7,0,1,0.7,1,0.7,0","3",""
"","html-keyboard-response","126","44470","0.0-187.0","3HMIGG0U4MSQTBIZ1RS6AZPDXUFY8D","A1Q56N80RJLQ7S","3KTZHH2ONI1ODAVRRMZTRL6IHCUM80","","null","<img src=""img/food6.png"" style=""width:200px;border:14px solid red;"">","null","","","","","","","","","",""
"","image-keyboard-response","127","44609","0.0-189.0","3HMIGG0U4MSQTBIZ1RS6AZPDXUFY8D","A1Q56N80RJLQ7S","3KTZHH2ONI1ODAVRRMZTRL6IHCUM80","","137","img/food6.png","75","137.89999997615814","2","1","false","1","2","1,0.7,0,1,0.7,0,0.7,0,1","0,1,0.7,0,1,0.7,1,0.7,0","3",""
"","html-keyboard-response","128","44912","0.0-190.0","3HMIGG0U4MSQTBIZ1RS6AZPDXUFY8D","A1Q56N80RJLQ7S","3KTZHH2ONI1ODAVRRMZTRL6IHCUM80","","null","<img src=""img/food6.png"" style=""width:200px; border:14px solid green;"">","null","","","","","","","","","",""
"","image-keyboard-response","129","45113","0.0-192.0","3HMIGG0U4MSQTBIZ1RS6AZPDXUFY8D","A1Q56N80RJLQ7S","3KTZHH2ONI1ODAVRRMZTRL6IHCUM80","","199.59999990463257","img/food2.png","75","200.59999990463257","2","1","false","3","2","1,0.7,0,1,0.7,0,0.7,0,1","0,1,0.7,0,1,0.7,1,0.7,0","3",""
"","html-keyboard-response","130","45414","0.0-193.0","3HMIGG0U4MSQTBIZ1RS6AZPDXUFY8D","A1Q56N80RJLQ7S","3KTZHH2ONI1ODAVRRMZTRL6IHCUM80","","null","<img src=""img/food2.png"" style=""width:200px; border:14px solid green;"">","null","","","","","","","","","",""
"","image-keyboard-response","131","45585","0.0-195.0","3HMIGG0U4MSQTBIZ1RS6AZPDXUFY8D","A1Q56N80RJLQ7S","3KTZHH2ONI1ODAVRRMZTRL6IHCUM80","","168.69999992847443","img/food6.png","74","169.89999997615814","1","0","false","1","2","1,0.7,0,1,0.7,0,0.7,0,1","0,1,0.7,0,1,0.7,1,0.7,0","3",""
"","html-keyboard-response","132","45886","0.0-196.0","3HMIGG0U4MSQTBIZ1RS6AZPDXUFY8D","A1Q56N80RJLQ7S","3KTZHH2ONI1ODAVRRMZTRL6IHCUM80","","null","<img src=""img/food6.png"" style=""width:200px;border:14px solid red;"">","null","","","","","","","","","",""
"","image-keyboard-response","133","46073","0.0-198.0","3HMIGG0U4MSQTBIZ1RS6AZPDXUFY8D","A1Q56N80RJLQ7S","3KTZHH2ONI1ODAVRRMZTRL6IHCUM80","","184.89999997615814","img/food6.png","75","185.70000004768372","2","1","false","1","2","1,0.7,0,1,0.7,0,0.7,0,1","0,1,0.7,0,1,0.7,1,0.7,0","3",""
"","html-keyboard-response","134","46375","0.0-199.0","3HMIGG0U4MSQTBIZ1RS6AZPDXUFY8D","A1Q56N80RJLQ7S","3KTZHH2ONI1ODAVRRMZTRL6IHCUM80","","null","<img src=""img/food6.png"" style=""width:200px; border:14px solid green;"">","null","","","","","","","","","",""
"","image-keyboard-response","135","46608","0.0-201.0","3HMIGG0U4MSQTBIZ1RS6AZPDXUFY8D","A1Q56N80RJLQ7S","3KTZHH2ONI1ODAVRRMZTRL6IHCUM80","","232.10000002384186","img/food5.png","75","233.10000002384186","2","1","false","2","2","1,0.7,0,1,0.7,0,0.7,0,1","0,1,0.7,0,1,0.7,1,0.7,0","3",""
"","html-keyboard-response","136","46911","0.0-202.0","3HMIGG0U4MSQTBIZ1RS6AZPDXUFY8D","A1Q56N80RJLQ7S","3KTZHH2ONI1ODAVRRMZTRL6IHCUM80","","null","<img src=""img/food5.png"" style=""width:200px; border:14px solid green;"">","null","","","","","","","","","",""
"","image-keyboard-response","137","47153","0.0-204.0","3HMIGG0U4MSQTBIZ1RS6AZPDXUFY8D","A1Q56N80RJLQ7S","3KTZHH2ONI1ODAVRRMZTRL6IHCUM80","","240.59999990463257","img/food5.png","75","241.79999995231628","2","1","false","2","2","1,0.7,0,1,0.7,0,0.7,0,1","0,1,0.7,0,1,0.7,1,0.7,0","3",""
"","html-keyboard-response","138","47455","0.0-205.0","3HMIGG0U4MSQTBIZ1RS6AZPDXUFY8D","A1Q56N80RJLQ7S","3KTZHH2ONI1ODAVRRMZTRL6IHCUM80","","null","<img src=""img/food5.png"" style=""width:200px; border:14px solid green;"">","null","","","","","","","","","",""
"","image-keyboard-response","139","47600","0.0-207.0","3HMIGG0U4MSQTBIZ1RS6AZPDXUFY8D","A1Q56N80RJLQ7S","3KTZHH2ONI1ODAVRRMZTRL6IHCUM80","","143.79999995231628","img/food6.png","75","145","2","1","false","1","2","1,0.7,0,1,0.7,0,0.7,0,1","0,1,0.7,0,1,0.7,1,0.7,0","3",""
"","html-keyboard-response","140","47902","0.0-208.0","3HMIGG0U4MSQTBIZ1RS6AZPDXUFY8D","A1Q56N80RJLQ7S","3KTZHH2ONI1ODAVRRMZTRL6IHCUM80","","null","<img src=""img/food6.png"" style=""width:200px; border:14px solid green;"">","null","","","","","","","","","",""
"","image-keyboard-response","141","48057","0.0-210.0","3HMIGG0U4MSQTBIZ1RS6AZPDXUFY8D","A1Q56N80RJLQ7S","3KTZHH2ONI1ODAVRRMZTRL6IHCUM80","","152.5","img/food5.png","76","153.69999992847443","3","0","false","2","2","1,0.7,0,1,0.7,0,0.7,0,1","0,1,0.7,0,1,0.7,1,0.7,0","3",""
"","html-keyboard-response","142","48359","0.0-211.0","3HMIGG0U4MSQTBIZ1RS6AZPDXUFY8D","A1Q56N80RJLQ7S","3KTZHH2ONI1ODAVRRMZTRL6IHCUM80","","null","<img src=""img/food5.png"" style=""width:200px;border:14px solid red;"">","null","","","","","","","","","",""
"","image-keyboard-response","143","48488","0.0-213.0","3HMIGG0U4MSQTBIZ1RS6AZPDXUFY8D","A1Q56N80RJLQ7S","3KTZHH2ONI1ODAVRRMZTRL6IHCUM80","","128.30000007152557","img/food5.png","75","129.40000009536743","2","1","false","2","2","1,0.7,0,1,0.7,0,0.7,0,1","0,1,0.7,0,1,0.7,1,0.7,0","3",""
"","html-keyboard-response","144","48791","0.0-214.0","3HMIGG0U4MSQTBIZ1RS6AZPDXUFY8D","A1Q56N80RJLQ7S","3KTZHH2ONI1ODAVRRMZTRL6IHCUM80","","null","<img src=""img/food5.png"" style=""width:200px; border:14px solid green;"">","null","","","","","","","","","",""
"","image-keyboard-response","145","48953","0.0-216.0","3HMIGG0U4MSQTBIZ1RS6AZPDXUFY8D","A1Q56N80RJLQ7S","3KTZHH2ONI1ODAVRRMZTRL6IHCUM80","","160","img/food5.png","75","161","2","1","false","2","2","1,0.7,0,1,0.7,0,0.7,0,1","0,1,0.7,0,1,0.7,1,0.7,0","3",""
"","html-keyboard-response","146","49255","0.0-217.0","3HMIGG0U4MSQTBIZ1RS6AZPDXUFY8D","A1Q56N80RJLQ7S","3KTZHH2ONI1ODAVRRMZTRL6IHCUM80","","null","<img src=""img/food5.png"" style=""width:200px; border:14px solid green;"">","null","","","","","","","","","",""
"","image-keyboard-response","147","49384","0.0-219.0","3HMIGG0U4MSQTBIZ1RS6AZPDXUFY8D","A1Q56N80RJLQ7S","3KTZHH2ONI1ODAVRRMZTRL6IHCUM80","","127.39999997615814","img/food5.png","75","128.29999995231628","2","1","false","2","2","1,0.7,0,1,0.7,0,0.7,0,1","0,1,0.7,0,1,0.7,1,0.7,0","3",""
"","html-keyboard-response","148","49686","0.0-220.0","3HMIGG0U4MSQTBIZ1RS6AZPDXUFY8D","A1Q56N80RJLQ7S","3KTZHH2ONI1ODAVRRMZTRL6IHCUM80","","null","<img src=""img/food5.png"" style=""width:200px; border:14px solid green;"">","null","","","","","","","","","",""
"","image-keyboard-response","149","49833","0.0-222.0","3HMIGG0U4MSQTBIZ1RS6AZPDXUFY8D","A1Q56N80RJLQ7S","3KTZHH2ONI1ODAVRRMZTRL6IHCUM80","","145.29999995231628","img/food6.png","75","146.29999995231628","2","1","false","1","2","1,0.7,0,1,0.7,0,0.7,0,1","0,1,0.7,0,1,0.7,1,0.7,0","3",""
"","html-keyboard-response","150","50135","0.0-223.0","3HMIGG0U4MSQTBIZ1RS6AZPDXUFY8D","A1Q56N80RJLQ7S","3KTZHH2ONI1ODAVRRMZTRL6IHCUM80","","null","<img src=""img/food6.png"" style=""width:200px; border:14px solid green;"">","null","","","","","","","","","",""
"","image-keyboard-response","151","50304","0.0-225.0","3HMIGG0U4MSQTBIZ1RS6AZPDXUFY8D","A1Q56N80RJLQ7S","3KTZHH2ONI1ODAVRRMZTRL6IHCUM80","","167.69999992847443","img/food2.png","75","168.60000002384186","2","0","false","3","2","1,0.7,0,1,0.7,0,0.7,0,1","0,1,0.7,0,1,0.7,1,0.7,0","3",""
"","html-keyboard-response","152","50607","0.0-226.0","3HMIGG0U4MSQTBIZ1RS6AZPDXUFY8D","A1Q56N80RJLQ7S","3KTZHH2ONI1ODAVRRMZTRL6IHCUM80","","null","<img src=""img/food2.png"" style=""width:200px;border:14px solid red;"">","null","","","","","","","","","",""
"","image-keyboard-response","153","50753","0.0-228.0","3HMIGG0U4MSQTBIZ1RS6AZPDXUFY8D","A1Q56N80RJLQ7S","3KTZHH2ONI1ODAVRRMZTRL6IHCUM80","","144.79999995231628","img/food6.png","75","145.69999992847443","2","1","false","1","2","1,0.7,0,1,0.7,0,0.7,0,1","0,1,0.7,0,1,0.7,1,0.7,0","3",""
"","html-keyboard-response","154","51064","0.0-229.0","3HMIGG0U4MSQTBIZ1RS6AZPDXUFY8D","A1Q56N80RJLQ7S","3KTZHH2ONI1ODAVRRMZTRL6IHCUM80","","null","<img src=""img/food6.png"" style=""width:200px; border:14px solid green;"">","null","","","","","","","","","",""
"","image-keyboard-response","155","51273","0.0-231.0","3HMIGG0U4MSQTBIZ1RS6AZPDXUFY8D","A1Q56N80RJLQ7S","3KTZHH2ONI1ODAVRRMZTRL6IHCUM80","","207.09999990463257","img/food5.png","74","208.09999990463257","1","0","false","2","2","1,0.7,0,1,0.7,0,0.7,0,1","0,1,0.7,0,1,0.7,1,0.7,0","3",""
"","html-keyboard-response","156","51575","0.0-232.0","3HMIGG0U4MSQTBIZ1RS6AZPDXUFY8D","A1Q56N80RJLQ7S","3KTZHH2ONI1ODAVRRMZTRL6IHCUM80","","null","<img src=""img/food5.png"" style=""width:200px;border:14px solid red;"">","null","","","","","","","","","",""
"","image-keyboard-response","157","51777","0.0-234.0","3HMIGG0U4MSQTBIZ1RS6AZPDXUFY8D","A1Q56N80RJLQ7S","3KTZHH2ONI1ODAVRRMZTRL6IHCUM80","","200.09999990463257","img/food5.png","74","201.29999995231628","1","0","false","2","2","1,0.7,0,1,0.7,0,0.7,0,1","0,1,0.7,0,1,0.7,1,0.7,0","3",""
"","html-keyboard-response","158","52079","0.0-235.0","3HMIGG0U4MSQTBIZ1RS6AZPDXUFY8D","A1Q56N80RJLQ7S","3KTZHH2ONI1ODAVRRMZTRL6IHCUM80","","null","<img src=""img/food5.png"" style=""width:200px;border:14px solid red;"">","null","","","","","","","","","",""
"","image-keyboard-response","159","52153","0.0-237.0","3HMIGG0U4MSQTBIZ1RS6AZPDXUFY8D","A1Q56N80RJLQ7S","3KTZHH2ONI1ODAVRRMZTRL6IHCUM80","","72.5","img/food6.png","75","73.60000002384186","2","1","false","1","2","1,0.7,0,1,0.7,0,0.7,0,1","0,1,0.7,0,1,0.7,1,0.7,0","3",""
"","html-keyboard-response","160","52455","0.0-238.0","3HMIGG0U4MSQTBIZ1RS6AZPDXUFY8D","A1Q56N80RJLQ7S","3KTZHH2ONI1ODAVRRMZTRL6IHCUM80","","null","<img src=""img/food6.png"" style=""width:200px; border:14px solid green;"">","null","","","","","","","","","",""
"","image-keyboard-response","161","52648","0.0-240.0","3HMIGG0U4MSQTBIZ1RS6AZPDXUFY8D","A1Q56N80RJLQ7S","3KTZHH2ONI1ODAVRRMZTRL6IHCUM80","","191.60000002384186","img/food6.png","75","192.5","2","1","false","1","2","1,0.7,0,1,0.7,0,0.7,0,1","0,1,0.7,0,1,0.7,1,0.7,0","3",""
"","html-keyboard-response","162","52950","0.0-241.0","3HMIGG0U4MSQTBIZ1RS6AZPDXUFY8D","A1Q56N80RJLQ7S","3KTZHH2ONI1ODAVRRMZTRL6IHCUM80","","null","<img src=""img/food6.png"" style=""width:200px; border:14px solid green;"">","null","","","","","","","","","",""
"","image-keyboard-response","163","53105","0.0-243.0","3HMIGG0U4MSQTBIZ1RS6AZPDXUFY8D","A1Q56N80RJLQ7S","3KTZHH2ONI1ODAVRRMZTRL6IHCUM80","","153.69999992847443","img/food2.png","75","154.59999990463257","2","0","false","3","2","1,0.7,0,1,0.7,0,0.7,0,1","0,1,0.7,0,1,0.7,1,0.7,0","3",""
"","html-keyboard-response","164","53408","0.0-244.0","3HMIGG0U4MSQTBIZ1RS6AZPDXUFY8D","A1Q56N80RJLQ7S","3KTZHH2ONI1ODAVRRMZTRL6IHCUM80","","null","<img src=""img/food2.png"" style=""width:200px;border:14px solid red;"">","null","","","","","","","","","",""
"","image-keyboard-response","165","53592","0.0-246.0","3HMIGG0U4MSQTBIZ1RS6AZPDXUFY8D","A1Q56N80RJLQ7S","3KTZHH2ONI1ODAVRRMZTRL6IHCUM80","","183.40000009536743","img/food5.png","76","184.29999995231628","3","1","false","2","2","1,0.7,0,1,0.7,0,0.7,0,1","0,1,0.7,0,1,0.7,1,0.7,0","3",""
"","html-keyboard-response","166","53894","0.0-247.0","3HMIGG0U4MSQTBIZ1RS6AZPDXUFY8D","A1Q56N80RJLQ7S","3KTZHH2ONI1ODAVRRMZTRL6IHCUM80","","null","<img src=""img/food5.png"" style=""width:200px; border:14px solid green;"">","null","","","","","","","","","",""
"","image-keyboard-response","167","54049","0.0-249.0","3HMIGG0U4MSQTBIZ1RS6AZPDXUFY8D","A1Q56N80RJLQ7S","3KTZHH2ONI1ODAVRRMZTRL6IHCUM80","","153.29999995231628","img/food6.png","76","154.19999992847443","3","1","false","1","2","1,0.7,0,1,0.7,0,0.7,0,1","0,1,0.7,0,1,0.7,1,0.7,0","3",""
"","html-keyboard-response","168","54351","0.0-250.0","3HMIGG0U4MSQTBIZ1RS6AZPDXUFY8D","A1Q56N80RJLQ7S","3KTZHH2ONI1ODAVRRMZTRL6IHCUM80","","null","<img src=""img/food6.png"" style=""width:200px; border:14px solid green;"">","null","","","","","","","","","",""
"","image-keyboard-response","169","54513","0.0-252.0","3HMIGG0U4MSQTBIZ1RS6AZPDXUFY8D","A1Q56N80RJLQ7S","3KTZHH2ONI1ODAVRRMZTRL6IHCUM80","","160.5","img/food2.png","76","161.39999997615814","3","0","false","3","2","1,0.7,0,1,0.7,0,0.7,0,1","0,1,0.7,0,1,0.7,1,0.7,0","3",""
"","html-keyboard-response","170","54814","0.0-253.0","3HMIGG0U4MSQTBIZ1RS6AZPDXUFY8D","A1Q56N80RJLQ7S","3KTZHH2ONI1ODAVRRMZTRL6IHCUM80","","null","<img src=""img/food2.png"" style=""width:200px;border:14px solid red;"">","null","","","","","","","","","",""
"","image-keyboard-response","171","54953","0.0-255.0","3HMIGG0U4MSQTBIZ1RS6AZPDXUFY8D","A1Q56N80RJLQ7S","3KTZHH2ONI1ODAVRRMZTRL6IHCUM80","","137","img/food6.png","75","138","2","1","false","1","2","1,0.7,0,1,0.7,0,0.7,0,1","0,1,0.7,0,1,0.7,1,0.7,0","3",""
"","html-keyboard-response","172","55256","0.0-256.0","3HMIGG0U4MSQTBIZ1RS6AZPDXUFY8D","A1Q56N80RJLQ7S","3KTZHH2ONI1ODAVRRMZTRL6IHCUM80","","null","<img src=""img/food6.png"" style=""width:200px; border:14px solid green;"">","null","","","","","","","","","",""
"","image-keyboard-response","173","55473","0.0-258.0","3HMIGG0U4MSQTBIZ1RS6AZPDXUFY8D","A1Q56N80RJLQ7S","3KTZHH2ONI1ODAVRRMZTRL6IHCUM80","","215.39999997615814","img/food5.png","75","216.60000002384186","2","1","false","2","2","1,0.7,0,1,0.7,0,0.7,0,1","0,1,0.7,0,1,0.7,1,0.7,0","3",""
"","html-keyboard-response","174","55775","0.0-259.0","3HMIGG0U4MSQTBIZ1RS6AZPDXUFY8D","A1Q56N80RJLQ7S","3KTZHH2ONI1ODAVRRMZTRL6IHCUM80","","null","<img src=""img/food5.png"" style=""width:200px; border:14px solid green;"">","null","","","","","","","","","",""
"","image-keyboard-response","175","55897","0.0-261.0","3HMIGG0U4MSQTBIZ1RS6AZPDXUFY8D","A1Q56N80RJLQ7S","3KTZHH2ONI1ODAVRRMZTRL6IHCUM80","","120","img/food2.png","75","121.19999992847443","2","1","false","3","2","1,0.7,0,1,0.7,0,0.7,0,1","0,1,0.7,0,1,0.7,1,0.7,0","3",""
"","html-keyboard-response","176","56198","0.0-262.0","3HMIGG0U4MSQTBIZ1RS6AZPDXUFY8D","A1Q56N80RJLQ7S","3KTZHH2ONI1ODAVRRMZTRL6IHCUM80","","null","<img src=""img/food2.png"" style=""width:200px; border:14px solid green;"">","null","","","","","","","","","",""
"","image-keyboard-response","177","56353","0.0-264.0","3HMIGG0U4MSQTBIZ1RS6AZPDXUFY8D","A1Q56N80RJLQ7S","3KTZHH2ONI1ODAVRRMZTRL6IHCUM80","","153.19999992847443","img/food2.png","75","154.19999992847443","2","1","false","3","2","1,0.7,0,1,0.7,0,0.7,0,1","0,1,0.7,0,1,0.7,1,0.7,0","3",""
"","html-keyboard-response","178","56655","0.0-265.0","3HMIGG0U4MSQTBIZ1RS6AZPDXUFY8D","A1Q56N80RJLQ7S","3KTZHH2ONI1ODAVRRMZTRL6IHCUM80","","null","<img src=""img/food2.png"" style=""width:200px; border:14px solid green;"">","null","","","","","","","","","",""
"","image-keyboard-response","179","56777","0.0-267.0","3HMIGG0U4MSQTBIZ1RS6AZPDXUFY8D","A1Q56N80RJLQ7S","3KTZHH2ONI1ODAVRRMZTRL6IHCUM80","","120.69999992847443","img/food2.png","75","121.5","2","1","false","3","2","1,0.7,0,1,0.7,0,0.7,0,1","0,1,0.7,0,1,0.7,1,0.7,0","3",""
"","html-keyboard-response","180","57078","0.0-268.0","3HMIGG0U4MSQTBIZ1RS6AZPDXUFY8D","A1Q56N80RJLQ7S","3KTZHH2ONI1ODAVRRMZTRL6IHCUM80","","null","<img src=""img/food2.png"" style=""width:200px; border:14px solid green;"">","null","","","","","","","","","",""
"","image-keyboard-response","181","57200","0.0-270.0","3HMIGG0U4MSQTBIZ1RS6AZPDXUFY8D","A1Q56N80RJLQ7S","3KTZHH2ONI1ODAVRRMZTRL6IHCUM80","","120.39999997615814","img/food5.png","75","121.09999990463257","2","1","false","2","2","1,0.7,0,1,0.7,0,0.7,0,1","0,1,0.7,0,1,0.7,1,0.7,0","3",""
"","html-keyboard-response","182","57502","0.0-271.0","3HMIGG0U4MSQTBIZ1RS6AZPDXUFY8D","A1Q56N80RJLQ7S","3KTZHH2ONI1ODAVRRMZTRL6IHCUM80","","null","<img src=""img/food5.png"" style=""width:200px; border:14px solid green;"">","null","","","","","","","","","",""
"","instructions","183","61572","0.0-273.0","3HMIGG0U4MSQTBIZ1RS6AZPDXUFY8D","A1Q56N80RJLQ7S","3KTZHH2ONI1ODAVRRMZTRL6IHCUM80","[{""page_index"":0,""viewing_time"":3293.100000023842},{""page_index"":1,""viewing_time"":775.2000000476837}]","4068.5","","","","","","","","","","","",""
"","image-keyboard-response","184","62120","0.0-274.0","3HMIGG0U4MSQTBIZ1RS6AZPDXUFY8D","A1Q56N80RJLQ7S","3KTZHH2ONI1ODAVRRMZTRL6IHCUM80","","546.8999999761581","img/food3.png","75","548","2","1","","1","1","1,0.7,0,1,0.7,0,0.7,0,1","1,0.7,0,1,0.7,0,0.7,0,1","1",""
"","html-keyboard-response","185","62422","0.0-275.0","3HMIGG0U4MSQTBIZ1RS6AZPDXUFY8D","A1Q56N80RJLQ7S","3KTZHH2ONI1ODAVRRMZTRL6IHCUM80","","null","<img src=""img/food3.png"" style=""width:200px; border:14px solid green;"">","null","","","","","","","","","",""
"","image-keyboard-response","186","62728","0.0-276.0","3HMIGG0U4MSQTBIZ1RS6AZPDXUFY8D","A1Q56N80RJLQ7S","3KTZHH2ONI1ODAVRRMZTRL6IHCUM80","","304.8000000715256","img/food4.png","76","305.89999997615814","3","0","","2","1","1,0.7,0,1,0.7,0,0.7,0,1","1,0.7,0,1,0.7,0,0.7,0,1","1",""
"","html-keyboard-response","187","63030","0.0-277.0","3HMIGG0U4MSQTBIZ1RS6AZPDXUFY8D","A1Q56N80RJLQ7S","3KTZHH2ONI1ODAVRRMZTRL6IHCUM80","","null","<img src=""img/food4.png"" style=""width:200px;border:14px solid red;"">","null","","","","","","","","","",""
"","image-keyboard-response","188","63248","0.0-278.0","3HMIGG0U4MSQTBIZ1RS6AZPDXUFY8D","A1Q56N80RJLQ7S","3KTZHH2ONI1ODAVRRMZTRL6IHCUM80","","217","img/food1.png","75","217.80000007152557","2","0","","3","1","1,0.7,0,1,0.7,0,0.7,0,1","1,0.7,0,1,0.7,0,0.7,0,1","1",""
"","html-keyboard-response","189","63551","0.0-279.0","3HMIGG0U4MSQTBIZ1RS6AZPDXUFY8D","A1Q56N80RJLQ7S","3KTZHH2ONI1ODAVRRMZTRL6IHCUM80","","null","<img src=""img/food1.png"" style=""width:200px;border:14px solid red;"">","null","","","","","","","","","",""
"","image-keyboard-response","190","63712","0.0-280.0","3HMIGG0U4MSQTBIZ1RS6AZPDXUFY8D","A1Q56N80RJLQ7S","3KTZHH2ONI1ODAVRRMZTRL6IHCUM80","","159.59999990463257","img/food1.png","74","160.70000004768372","1","1","","3","1","1,0.7,0,1,0.7,0,0.7,0,1","1,0.7,0,1,0.7,0,0.7,0,1","1",""
"","html-keyboard-response","191","64014","0.0-281.0","3HMIGG0U4MSQTBIZ1RS6AZPDXUFY8D","A1Q56N80RJLQ7S","3KTZHH2ONI1ODAVRRMZTRL6IHCUM80","","null","<img src=""img/food1.png"" style=""width:200px; border:14px solid green;"">","null","","","","","","","","","",""
"","image-keyboard-response","192","64184","0.0-282.0","3HMIGG0U4MSQTBIZ1RS6AZPDXUFY8D","A1Q56N80RJLQ7S","3KTZHH2ONI1ODAVRRMZTRL6IHCUM80","","168.70000004768372","img/food1.png","74","169.80000007152557","1","0","","3","1","1,0.7,0,1,0.7,0,0.7,0,1","1,0.7,0,1,0.7,0,0.7,0,1","1",""
"","html-keyboard-response","193","64486","0.0-283.0","3HMIGG0U4MSQTBIZ1RS6AZPDXUFY8D","A1Q56N80RJLQ7S","3KTZHH2ONI1ODAVRRMZTRL6IHCUM80","","null","<img src=""img/food1.png"" style=""width:200px;border:14px solid red;"">","null","","","","","","","","","",""
"","image-keyboard-response","194","64688","0.0-284.0","3HMIGG0U4MSQTBIZ1RS6AZPDXUFY8D","A1Q56N80RJLQ7S","3KTZHH2ONI1ODAVRRMZTRL6IHCUM80","","201.10000002384186","img/food1.png","75","201.89999997615814","2","0","","3","1","1,0.7,0,1,0.7,0,0.7,0,1","1,0.7,0,1,0.7,0,0.7,0,1","1",""
"","html-keyboard-response","195","64989","0.0-285.0","3HMIGG0U4MSQTBIZ1RS6AZPDXUFY8D","A1Q56N80RJLQ7S","3KTZHH2ONI1ODAVRRMZTRL6IHCUM80","","null","<img src=""img/food1.png"" style=""width:200px;border:14px solid red;"">","null","","","","","","","","","",""
"","image-keyboard-response","196","65128","0.0-286.0","3HMIGG0U4MSQTBIZ1RS6AZPDXUFY8D","A1Q56N80RJLQ7S","3KTZHH2ONI1ODAVRRMZTRL6IHCUM80","","137.70000004768372","img/food4.png","75","138.5","2","0","","2","1","1,0.7,0,1,0.7,0,0.7,0,1","1,0.7,0,1,0.7,0,0.7,0,1","1",""
"","html-keyboard-response","197","65431","0.0-287.0","3HMIGG0U4MSQTBIZ1RS6AZPDXUFY8D","A1Q56N80RJLQ7S","3KTZHH2ONI1ODAVRRMZTRL6IHCUM80","","null","<img src=""img/food4.png"" style=""width:200px;border:14px solid red;"">","null","","","","","","","","","",""
"","image-keyboard-response","198","65600","0.0-288.0","3HMIGG0U4MSQTBIZ1RS6AZPDXUFY8D","A1Q56N80RJLQ7S","3KTZHH2ONI1ODAVRRMZTRL6IHCUM80","","168.20000004768372","img/food4.png","76","169.10000002384186","3","0","","2","1","1,0.7,0,1,0.7,0,0.7,0,1","1,0.7,0,1,0.7,0,0.7,0,1","1",""
"","html-keyboard-response","199","65902","0.0-289.0","3HMIGG0U4MSQTBIZ1RS6AZPDXUFY8D","A1Q56N80RJLQ7S","3KTZHH2ONI1ODAVRRMZTRL6IHCUM80","","null","<img src=""img/food4.png"" style=""width:200px;border:14px solid red;"">","null","","","","","","","","","",""
"","image-keyboard-response","200","66040","0.0-290.0","3HMIGG0U4MSQTBIZ1RS6AZPDXUFY8D","A1Q56N80RJLQ7S","3KTZHH2ONI1ODAVRRMZTRL6IHCUM80","","137","img/food4.png","76","138","3","0","","2","1","1,0.7,0,1,0.7,0,0.7,0,1","1,0.7,0,1,0.7,0,0.7,0,1","1",""
"","html-keyboard-response","201","66342","0.0-291.0","3HMIGG0U4MSQTBIZ1RS6AZPDXUFY8D","A1Q56N80RJLQ7S","3KTZHH2ONI1ODAVRRMZTRL6IHCUM80","","null","<img src=""img/food4.png"" style=""width:200px;border:14px solid red;"">","null","","","","","","","","","",""
"","image-keyboard-response","202","66440","0.0-292.0","3HMIGG0U4MSQTBIZ1RS6AZPDXUFY8D","A1Q56N80RJLQ7S","3KTZHH2ONI1ODAVRRMZTRL6IHCUM80","","96.29999995231628","img/food1.png","75","97.19999992847443","2","0","","3","1","1,0.7,0,1,0.7,0,0.7,0,1","1,0.7,0,1,0.7,0,0.7,0,1","1",""
"","html-keyboard-response","203","66741","0.0-293.0","3HMIGG0U4MSQTBIZ1RS6AZPDXUFY8D","A1Q56N80RJLQ7S","3KTZHH2ONI1ODAVRRMZTRL6IHCUM80","","null","<img src=""img/food1.png"" style=""width:200px;border:14px solid red;"">","null","","","","","","","","","",""
"","image-keyboard-response","204","66895","0.0-294.0","3HMIGG0U4MSQTBIZ1RS6AZPDXUFY8D","A1Q56N80RJLQ7S","3KTZHH2ONI1ODAVRRMZTRL6IHCUM80","","153.10000002384186","img/food4.png","75","153.89999997615814","2","1","","2","1","1,0.7,0,1,0.7,0,0.7,0,1","1,0.7,0,1,0.7,0,0.7,0,1","1",""
"","html-keyboard-response","205","67201","0.0-295.0","3HMIGG0U4MSQTBIZ1RS6AZPDXUFY8D","A1Q56N80RJLQ7S","3KTZHH2ONI1ODAVRRMZTRL6IHCUM80","","null","<img src=""img/food4.png"" style=""width:200px; border:14px solid green;"">","null","","","","","","","","","",""
"","image-keyboard-response","206","67224","0.0-296.0","3HMIGG0U4MSQTBIZ1RS6AZPDXUFY8D","A1Q56N80RJLQ7S","3KTZHH2ONI1ODAVRRMZTRL6IHCUM80","","21.800000071525574","img/food4.png","74","22.800000071525574","1","1","","2","1","1,0.7,0,1,0.7,0,0.7,0,1","1,0.7,0,1,0.7,0,0.7,0,1","1",""
"","html-keyboard-response","207","67526","0.0-297.0","3HMIGG0U4MSQTBIZ1RS6AZPDXUFY8D","A1Q56N80RJLQ7S","3KTZHH2ONI1ODAVRRMZTRL6IHCUM80","","null","<img src=""img/food4.png"" style=""width:200px; border:14px solid green;"">","null","","","","","","","","","",""
"","image-keyboard-response","208","67688","0.0-298.0","3HMIGG0U4MSQTBIZ1RS6AZPDXUFY8D","A1Q56N80RJLQ7S","3KTZHH2ONI1ODAVRRMZTRL6IHCUM80","","160.60000002384186","img/food1.png","74","161.5","1","1","","3","1","1,0.7,0,1,0.7,0,0.7,0,1","1,0.7,0,1,0.7,0,0.7,0,1","1",""
"","html-keyboard-response","209","67990","0.0-299.0","3HMIGG0U4MSQTBIZ1RS6AZPDXUFY8D","A1Q56N80RJLQ7S","3KTZHH2ONI1ODAVRRMZTRL6IHCUM80","","null","<img src=""img/food1.png"" style=""width:200px; border:14px solid green;"">","null","","","","","","","","","",""
"","image-keyboard-response","210","68136","0.0-300.0","3HMIGG0U4MSQTBIZ1RS6AZPDXUFY8D","A1Q56N80RJLQ7S","3KTZHH2ONI1ODAVRRMZTRL6IHCUM80","","145.40000009536743","img/food4.png","74","146.5","1","1","","2","1","1,0.7,0,1,0.7,0,0.7,0,1","1,0.7,0,1,0.7,0,0.7,0,1","1",""
"","html-keyboard-response","211","68438","0.0-301.0","3HMIGG0U4MSQTBIZ1RS6AZPDXUFY8D","A1Q56N80RJLQ7S","3KTZHH2ONI1ODAVRRMZTRL6IHCUM80","","null","<img src=""img/food4.png"" style=""width:200px; border:14px solid green;"">","null","","","","","","","","","",""
"","image-keyboard-response","212","68585","0.0-302.0","3HMIGG0U4MSQTBIZ1RS6AZPDXUFY8D","A1Q56N80RJLQ7S","3KTZHH2ONI1ODAVRRMZTRL6IHCUM80","","144.69999992847443","img/food3.png","74","145.80000007152557","1","1","","1","1","1,0.7,0,1,0.7,0,0.7,0,1","1,0.7,0,1,0.7,0,0.7,0,1","1",""
"","html-keyboard-response","213","68887","0.0-303.0","3HMIGG0U4MSQTBIZ1RS6AZPDXUFY8D","A1Q56N80RJLQ7S","3KTZHH2ONI1ODAVRRMZTRL6IHCUM80","","null","<img src=""img/food3.png"" style=""width:200px; border:14px solid green;"">","null","","","","","","","","","",""
"","image-keyboard-response","214","69024","0.0-304.0","3HMIGG0U4MSQTBIZ1RS6AZPDXUFY8D","A1Q56N80RJLQ7S","3KTZHH2ONI1ODAVRRMZTRL6IHCUM80","","135.89999997615814","img/food1.png","74","137.10000002384186","1","1","","3","1","1,0.7,0,1,0.7,0,0.7,0,1","1,0.7,0,1,0.7,0,0.7,0,1","1",""
"","html-keyboard-response","215","69327","0.0-305.0","3HMIGG0U4MSQTBIZ1RS6AZPDXUFY8D","A1Q56N80RJLQ7S","3KTZHH2ONI1ODAVRRMZTRL6IHCUM80","","null","<img src=""img/food1.png"" style=""width:200px; border:14px solid green;"">","null","","","","","","","","","",""
"","image-keyboard-response","216","69480","0.0-306.0","3HMIGG0U4MSQTBIZ1RS6AZPDXUFY8D","A1Q56N80RJLQ7S","3KTZHH2ONI1ODAVRRMZTRL6IHCUM80","","151.5","img/food4.png","74","152.60000002384186","1","1","","2","1","1,0.7,0,1,0.7,0,0.7,0,1","1,0.7,0,1,0.7,0,0.7,0,1","1",""
"","html-keyboard-response","217","69783","0.0-307.0","3HMIGG0U4MSQTBIZ1RS6AZPDXUFY8D","A1Q56N80RJLQ7S","3KTZHH2ONI1ODAVRRMZTRL6IHCUM80","","null","<img src=""img/food4.png"" style=""width:200px; border:14px solid green;"">","null","","","","","","","","","",""
"","image-keyboard-response","218","69864","0.0-308.0","3HMIGG0U4MSQTBIZ1RS6AZPDXUFY8D","A1Q56N80RJLQ7S","3KTZHH2ONI1ODAVRRMZTRL6IHCUM80","","80","img/food3.png","74","81.29999995231628","1","1","","1","1","1,0.7,0,1,0.7,0,0.7,0,1","1,0.7,0,1,0.7,0,0.7,0,1","1",""
"","html-keyboard-response","219","70167","0.0-309.0","3HMIGG0U4MSQTBIZ1RS6AZPDXUFY8D","A1Q56N80RJLQ7S","3KTZHH2ONI1ODAVRRMZTRL6IHCUM80","","null","<img src=""img/food3.png"" style=""width:200px; border:14px solid green;"">","null","","","","","","","","","",""
"","image-keyboard-response","220","70256","0.0-310.0","3HMIGG0U4MSQTBIZ1RS6AZPDXUFY8D","A1Q56N80RJLQ7S","3KTZHH2ONI1ODAVRRMZTRL6IHCUM80","","87.90000009536743","img/food1.png","74","88.90000009536743","1","1","","3","1","1,0.7,0,1,0.7,0,0.7,0,1","1,0.7,0,1,0.7,0,0.7,0,1","1",""
"","html-keyboard-response","221","70558","0.0-311.0","3HMIGG0U4MSQTBIZ1RS6AZPDXUFY8D","A1Q56N80RJLQ7S","3KTZHH2ONI1ODAVRRMZTRL6IHCUM80","","null","<img src=""img/food1.png"" style=""width:200px; border:14px solid green;"">","null","","","","","","","","","",""
"","image-keyboard-response","222","70640","0.0-312.0","3HMIGG0U4MSQTBIZ1RS6AZPDXUFY8D","A1Q56N80RJLQ7S","3KTZHH2ONI1ODAVRRMZTRL6IHCUM80","","80.5","img/food3.png","74","81.70000004768372","1","1","","1","1","1,0.7,0,1,0.7,0,0.7,0,1","1,0.7,0,1,0.7,0,0.7,0,1","1",""
"","html-keyboard-response","223","70942","0.0-313.0","3HMIGG0U4MSQTBIZ1RS6AZPDXUFY8D","A1Q56N80RJLQ7S","3KTZHH2ONI1ODAVRRMZTRL6IHCUM80","","null","<img src=""img/food3.png"" style=""width:200px; border:14px solid green;"">","null","","","","","","","","","",""
"","image-keyboard-response","224","71032","0.0-314.0","3HMIGG0U4MSQTBIZ1RS6AZPDXUFY8D","A1Q56N80RJLQ7S","3KTZHH2ONI1ODAVRRMZTRL6IHCUM80","","88.70000004768372","img/food4.png","74","89.79999995231628","1","1","","2","1","1,0.7,0,1,0.7,0,0.7,0,1","1,0.7,0,1,0.7,0,0.7,0,1","1",""
"","html-keyboard-response","225","71334","0.0-315.0","3HMIGG0U4MSQTBIZ1RS6AZPDXUFY8D","A1Q56N80RJLQ7S","3KTZHH2ONI1ODAVRRMZTRL6IHCUM80","","null","<img src=""img/food4.png"" style=""width:200px; border:14px solid green;"">","null","","","","","","","","","",""
"","image-keyboard-response","226","71681","0.0-316.0","3HMIGG0U4MSQTBIZ1RS6AZPDXUFY8D","A1Q56N80RJLQ7S","3KTZHH2ONI1ODAVRRMZTRL6IHCUM80","","345.2999999523163","img/food4.png","74","346.60000002384186","1","1","","2","1","1,0.7,0,1,0.7,0,0.7,0,1","1,0.7,0,1,0.7,0,0.7,0,1","1",""
"","html-keyboard-response","227","71983","0.0-317.0","3HMIGG0U4MSQTBIZ1RS6AZPDXUFY8D","A1Q56N80RJLQ7S","3KTZHH2ONI1ODAVRRMZTRL6IHCUM80","","null","<img src=""img/food4.png"" style=""width:200px; border:14px solid green;"">","null","","","","","","","","","",""
"","image-keyboard-response","228","72208","0.0-318.0","3HMIGG0U4MSQTBIZ1RS6AZPDXUFY8D","A1Q56N80RJLQ7S","3KTZHH2ONI1ODAVRRMZTRL6IHCUM80","","224.29999995231628","img/food1.png","74","225.20000004768372","1","1","","3","1","1,0.7,0,1,0.7,0,0.7,0,1","1,0.7,0,1,0.7,0,0.7,0,1","1",""
"","html-keyboard-response","229","72510","0.0-319.0","3HMIGG0U4MSQTBIZ1RS6AZPDXUFY8D","A1Q56N80RJLQ7S","3KTZHH2ONI1ODAVRRMZTRL6IHCUM80","","null","<img src=""img/food1.png"" style=""width:200px; border:14px solid green;"">","null","","","","","","","","","",""
"","image-keyboard-response","230","72568","0.0-320.0","3HMIGG0U4MSQTBIZ1RS6AZPDXUFY8D","A1Q56N80RJLQ7S","3KTZHH2ONI1ODAVRRMZTRL6IHCUM80","","56.5","img/food4.png","75","57.5","2","0","","2","1","1,0.7,0,1,0.7,0,0.7,0,1","1,0.7,0,1,0.7,0,0.7,0,1","1",""
"","html-keyboard-response","231","72870","0.0-321.0","3HMIGG0U4MSQTBIZ1RS6AZPDXUFY8D","A1Q56N80RJLQ7S","3KTZHH2ONI1ODAVRRMZTRL6IHCUM80","","null","<img src=""img/food4.png"" style=""width:200px;border:14px solid red;"">","null","","","","","","","","","",""
"","image-keyboard-response","232","72960","0.0-322.0","3HMIGG0U4MSQTBIZ1RS6AZPDXUFY8D","A1Q56N80RJLQ7S","3KTZHH2ONI1ODAVRRMZTRL6IHCUM80","","88.59999990463257","img/food3.png","74","89.60000002384186","1","1","","1","1","1,0.7,0,1,0.7,0,0.7,0,1","1,0.7,0,1,0.7,0,0.7,0,1","1",""
"","html-keyboard-response","233","73262","0.0-323.0","3HMIGG0U4MSQTBIZ1RS6AZPDXUFY8D","A1Q56N80RJLQ7S","3KTZHH2ONI1ODAVRRMZTRL6IHCUM80","","null","<img src=""img/food3.png"" style=""width:200px; border:14px solid green;"">","null","","","","","","","","","",""
"","image-keyboard-response","234","73272","0.0-324.0","3HMIGG0U4MSQTBIZ1RS6AZPDXUFY8D","A1Q56N80RJLQ7S","3KTZHH2ONI1ODAVRRMZTRL6IHCUM80","","7.700000047683716","img/food3.png","75","8.900000095367432","2","0","","1","1","1,0.7,0,1,0.7,0,0.7,0,1","1,0.7,0,1,0.7,0,0.7,0,1","1",""
"","html-keyboard-response","235","73573","0.0-325.0","3HMIGG0U4MSQTBIZ1RS6AZPDXUFY8D","A1Q56N80RJLQ7S","3KTZHH2ONI1ODAVRRMZTRL6IHCUM80","","null","<img src=""img/food3.png"" style=""width:200px;border:14px solid red;"">","null","","","","","","","","","",""
"","image-keyboard-response","236","73624","0.0-326.0","3HMIGG0U4MSQTBIZ1RS6AZPDXUFY8D","A1Q56N80RJLQ7S","3KTZHH2ONI1ODAVRRMZTRL6IHCUM80","","49.5","img/food4.png","75","50.700000047683716","2","1","","2","1","1,0.7,0,1,0.7,0,0.7,0,1","1,0.7,0,1,0.7,0,0.7,0,1","1",""
"","html-keyboard-response","237","73927","0.0-327.0","3HMIGG0U4MSQTBIZ1RS6AZPDXUFY8D","A1Q56N80RJLQ7S","3KTZHH2ONI1ODAVRRMZTRL6IHCUM80","","null","<img src=""img/food4.png"" style=""width:200px; border:14px solid green;"">","null","","","","","","","","","",""
"","image-keyboard-response","238","74080","0.0-328.0","3HMIGG0U4MSQTBIZ1RS6AZPDXUFY8D","A1Q56N80RJLQ7S","3KTZHH2ONI1ODAVRRMZTRL6IHCUM80","","152","img/food3.png","74","153","1","1","","1","1","1,0.7,0,1,0.7,0,0.7,0,1","1,0.7,0,1,0.7,0,0.7,0,1","1",""
"","html-keyboard-response","239","74383","0.0-329.0","3HMIGG0U4MSQTBIZ1RS6AZPDXUFY8D","A1Q56N80RJLQ7S","3KTZHH2ONI1ODAVRRMZTRL6IHCUM80","","null","<img src=""img/food3.png"" style=""width:200px; border:14px solid green;"">","null","","","","","","","","","",""
"","image-keyboard-response","240","74528","0.0-330.0","3HMIGG0U4MSQTBIZ1RS6AZPDXUFY8D","A1Q56N80RJLQ7S","3KTZHH2ONI1ODAVRRMZTRL6IHCUM80","","143.79999995231628","img/food3.png","74","144.69999992847443","1","1","","1","1","1,0.7,0,1,0.7,0,0.7,0,1","1,0.7,0,1,0.7,0,0.7,0,1","1",""
"","html-keyboard-response","241","74830","0.0-331.0","3HMIGG0U4MSQTBIZ1RS6AZPDXUFY8D","A1Q56N80RJLQ7S","3KTZHH2ONI1ODAVRRMZTRL6IHCUM80","","null","<img src=""img/food3.png"" style=""width:200px; border:14px solid green;"">","null","","","","","","","","","",""
"","image-keyboard-response","242","74976","0.0-332.0","3HMIGG0U4MSQTBIZ1RS6AZPDXUFY8D","A1Q56N80RJLQ7S","3KTZHH2ONI1ODAVRRMZTRL6IHCUM80","","144.79999995231628","img/food4.png","74","145.89999997615814","1","1","","2","1","1,0.7,0,1,0.7,0,0.7,0,1","1,0.7,0,1,0.7,0,0.7,0,1","1",""
"","html-keyboard-response","243","75279","0.0-333.0","3HMIGG0U4MSQTBIZ1RS6AZPDXUFY8D","A1Q56N80RJLQ7S","3KTZHH2ONI1ODAVRRMZTRL6IHCUM80","","null","<img src=""img/food4.png"" style=""width:200px; border:14px solid green;"">","null","","","","","","","","","",""
"","image-keyboard-response","244","75408","0.0-334.0","3HMIGG0U4MSQTBIZ1RS6AZPDXUFY8D","A1Q56N80RJLQ7S","3KTZHH2ONI1ODAVRRMZTRL6IHCUM80","","127.79999995231628","img/food3.png","74","128.89999997615814","1","1","","1","1","1,0.7,0,1,0.7,0,0.7,0,1","1,0.7,0,1,0.7,0,0.7,0,1","1",""
"","html-keyboard-response","245","75709","0.0-335.0","3HMIGG0U4MSQTBIZ1RS6AZPDXUFY8D","A1Q56N80RJLQ7S","3KTZHH2ONI1ODAVRRMZTRL6IHCUM80","","null","<img src=""img/food3.png"" style=""width:200px; border:14px solid green;"">","null","","","","","","","","","",""
"","image-keyboard-response","246","75864","0.0-336.0","3HMIGG0U4MSQTBIZ1RS6AZPDXUFY8D","A1Q56N80RJLQ7S","3KTZHH2ONI1ODAVRRMZTRL6IHCUM80","","153.5","img/food3.png","74","154.29999995231628","1","1","","1","1","1,0.7,0,1,0.7,0,0.7,0,1","1,0.7,0,1,0.7,0,0.7,0,1","1",""
"","html-keyboard-response","247","76166","0.0-337.0","3HMIGG0U4MSQTBIZ1RS6AZPDXUFY8D","A1Q56N80RJLQ7S","3KTZHH2ONI1ODAVRRMZTRL6IHCUM80","","null","<img src=""img/food3.png"" style=""width:200px; border:14px solid green;"">","null","","","","","","","","","",""
"","image-keyboard-response","248","76353","0.0-338.0","3HMIGG0U4MSQTBIZ1RS6AZPDXUFY8D","A1Q56N80RJLQ7S","3KTZHH2ONI1ODAVRRMZTRL6IHCUM80","","185.19999992847443","img/food3.png","74","186.39999997615814","1","1","","1","1","1,0.7,0,1,0.7,0,0.7,0,1","1,0.7,0,1,0.7,0,0.7,0,1","1",""
"","html-keyboard-response","249","76655","0.0-339.0","3HMIGG0U4MSQTBIZ1RS6AZPDXUFY8D","A1Q56N80RJLQ7S","3KTZHH2ONI1ODAVRRMZTRL6IHCUM80","","null","<img src=""img/food3.png"" style=""width:200px; border:14px solid green;"">","null","","","","","","","","","",""
"","image-keyboard-response","250","76817","0.0-340.0","3HMIGG0U4MSQTBIZ1RS6AZPDXUFY8D","A1Q56N80RJLQ7S","3KTZHH2ONI1ODAVRRMZTRL6IHCUM80","","160.29999995231628","img/food3.png","74","161.29999995231628","1","1","","1","1","1,0.7,0,1,0.7,0,0.7,0,1","1,0.7,0,1,0.7,0,0.7,0,1","1",""
"","html-keyboard-response","251","77119","0.0-341.0","3HMIGG0U4MSQTBIZ1RS6AZPDXUFY8D","A1Q56N80RJLQ7S","3KTZHH2ONI1ODAVRRMZTRL6IHCUM80","","null","<img src=""img/food3.png"" style=""width:200px; border:14px solid green;"">","null","","","","","","","","","",""
"","image-keyboard-response","252","77240","0.0-342.0","3HMIGG0U4MSQTBIZ1RS6AZPDXUFY8D","A1Q56N80RJLQ7S","3KTZHH2ONI1ODAVRRMZTRL6IHCUM80","","119.5","img/food3.png","74","120.80000007152557","1","1","","1","1","1,0.7,0,1,0.7,0,0.7,0,1","1,0.7,0,1,0.7,0,0.7,0,1","1",""
"","html-keyboard-response","253","77542","0.0-343.0","3HMIGG0U4MSQTBIZ1RS6AZPDXUFY8D","A1Q56N80RJLQ7S","3KTZHH2ONI1ODAVRRMZTRL6IHCUM80","","null","<img src=""img/food3.png"" style=""width:200px; border:14px solid green;"">","null","","","","","","","","","",""
"","image-keyboard-response","254","77656","0.0-344.0","3HMIGG0U4MSQTBIZ1RS6AZPDXUFY8D","A1Q56N80RJLQ7S","3KTZHH2ONI1ODAVRRMZTRL6IHCUM80","","112","img/food4.png","74","112.89999997615814","1","1","","2","1","1,0.7,0,1,0.7,0,0.7,0,1","1,0.7,0,1,0.7,0,0.7,0,1","1",""
"","html-keyboard-response","255","77957","0.0-345.0","3HMIGG0U4MSQTBIZ1RS6AZPDXUFY8D","A1Q56N80RJLQ7S","3KTZHH2ONI1ODAVRRMZTRL6IHCUM80","","null","<img src=""img/food4.png"" style=""width:200px; border:14px solid green;"">","null","","","","","","","","","",""
"","image-keyboard-response","256","78192","0.0-346.0","3HMIGG0U4MSQTBIZ1RS6AZPDXUFY8D","A1Q56N80RJLQ7S","3KTZHH2ONI1ODAVRRMZTRL6IHCUM80","","233.5","img/food1.png","75","234.5","2","0","","3","1","1,0.7,0,1,0.7,0,0.7,0,1","1,0.7,0,1,0.7,0,0.7,0,1","1",""
"","html-keyboard-response","257","78494","0.0-347.0","3HMIGG0U4MSQTBIZ1RS6AZPDXUFY8D","A1Q56N80RJLQ7S","3KTZHH2ONI1ODAVRRMZTRL6IHCUM80","","null","<img src=""img/food1.png"" style=""width:200px;border:14px solid red;"">","null","","","","","","","","","",""
"","image-keyboard-response","258","78648","0.0-348.0","3HMIGG0U4MSQTBIZ1RS6AZPDXUFY8D","A1Q56N80RJLQ7S","3KTZHH2ONI1ODAVRRMZTRL6IHCUM80","","153.10000002384186","img/food4.png","75","154.29999995231628","2","1","","2","1","1,0.7,0,1,0.7,0,0.7,0,1","1,0.7,0,1,0.7,0,0.7,0,1","1",""
"","html-keyboard-response","259","78950","0.0-349.0","3HMIGG0U4MSQTBIZ1RS6AZPDXUFY8D","A1Q56N80RJLQ7S","3KTZHH2ONI1ODAVRRMZTRL6IHCUM80","","null","<img src=""img/food4.png"" style=""width:200px; border:14px solid green;"">","null","","","","","","","","","",""
"","image-keyboard-response","260","79208","0.0-350.0","3HMIGG0U4MSQTBIZ1RS6AZPDXUFY8D","A1Q56N80RJLQ7S","3KTZHH2ONI1ODAVRRMZTRL6IHCUM80","","256.7000000476837","img/food4.png","75","257.7000000476837","2","1","","2","1","1,0.7,0,1,0.7,0,0.7,0,1","1,0.7,0,1,0.7,0,0.7,0,1","1",""
"","html-keyboard-response","261","79511","0.0-351.0","3HMIGG0U4MSQTBIZ1RS6AZPDXUFY8D","A1Q56N80RJLQ7S","3KTZHH2ONI1ODAVRRMZTRL6IHCUM80","","null","<img src=""img/food4.png"" style=""width:200px; border:14px solid green;"">","null","","","","","","","","","",""
"","image-keyboard-response","262","79672","0.0-352.0","3HMIGG0U4MSQTBIZ1RS6AZPDXUFY8D","A1Q56N80RJLQ7S","3KTZHH2ONI1ODAVRRMZTRL6IHCUM80","","160.29999995231628","img/food3.png","75","161.29999995231628","2","0","","1","1","1,0.7,0,1,0.7,0,0.7,0,1","1,0.7,0,1,0.7,0,0.7,0,1","1",""
"","html-keyboard-response","263","79975","0.0-353.0","3HMIGG0U4MSQTBIZ1RS6AZPDXUFY8D","A1Q56N80RJLQ7S","3KTZHH2ONI1ODAVRRMZTRL6IHCUM80","","null","<img src=""img/food3.png"" style=""width:200px;border:14px solid red;"">","null","","","","","","","","","",""
"","image-keyboard-response","264","80088","0.0-354.0","3HMIGG0U4MSQTBIZ1RS6AZPDXUFY8D","A1Q56N80RJLQ7S","3KTZHH2ONI1ODAVRRMZTRL6IHCUM80","","112.20000004768372","img/food4.png","75","113.10000002384186","2","1","","2","1","1,0.7,0,1,0.7,0,0.7,0,1","1,0.7,0,1,0.7,0,0.7,0,1","1",""
"","html-keyboard-response","265","80390","0.0-355.0","3HMIGG0U4MSQTBIZ1RS6AZPDXUFY8D","A1Q56N80RJLQ7S","3KTZHH2ONI1ODAVRRMZTRL6IHCUM80","","null","<img src=""img/food4.png"" style=""width:200px; border:14px solid green;"">","null","","","","","","","","","",""
"","image-keyboard-response","266","80536","0.0-356.0","3HMIGG0U4MSQTBIZ1RS6AZPDXUFY8D","A1Q56N80RJLQ7S","3KTZHH2ONI1ODAVRRMZTRL6IHCUM80","","145.5","img/food4.png","76","146.60000002384186","3","0","","2","1","1,0.7,0,1,0.7,0,0.7,0,1","1,0.7,0,1,0.7,0,0.7,0,1","1",""
"","html-keyboard-response","267","80838","0.0-357.0","3HMIGG0U4MSQTBIZ1RS6AZPDXUFY8D","A1Q56N80RJLQ7S","3KTZHH2ONI1ODAVRRMZTRL6IHCUM80","","null","<img src=""img/food4.png"" style=""width:200px;border:14px solid red;"">","null","","","","","","","","","",""
"","image-keyboard-response","268","81072","0.0-358.0","3HMIGG0U4MSQTBIZ1RS6AZPDXUFY8D","A1Q56N80RJLQ7S","3KTZHH2ONI1ODAVRRMZTRL6IHCUM80","","233.19999992847443","img/food4.png","76","234.29999995231628","3","0","","2","1","1,0.7,0,1,0.7,0,0.7,0,1","1,0.7,0,1,0.7,0,0.7,0,1","1",""
"","html-keyboard-response","269","81374","0.0-359.0","3HMIGG0U4MSQTBIZ1RS6AZPDXUFY8D","A1Q56N80RJLQ7S","3KTZHH2ONI1ODAVRRMZTRL6IHCUM80","","null","<img src=""img/food4.png"" style=""width:200px;border:14px solid red;"">","null","","","","","","","","","",""
"","image-keyboard-response","270","81680","0.0-360.0","3HMIGG0U4MSQTBIZ1RS6AZPDXUFY8D","A1Q56N80RJLQ7S","3KTZHH2ONI1ODAVRRMZTRL6IHCUM80","","304.7999999523163","img/food3.png","75","305.7999999523163","2","0","","1","1","1,0.7,0,1,0.7,0,0.7,0,1","1,0.7,0,1,0.7,0,0.7,0,1","1",""
"","html-keyboard-response","271","81982","0.0-361.0","3HMIGG0U4MSQTBIZ1RS6AZPDXUFY8D","A1Q56N80RJLQ7S","3KTZHH2ONI1ODAVRRMZTRL6IHCUM80","","null","<img src=""img/food3.png"" style=""width:200px;border:14px solid red;"">","null","","","","","","","","","",""
"","image-keyboard-response","272","82176","0.0-362.0","3HMIGG0U4MSQTBIZ1RS6AZPDXUFY8D","A1Q56N80RJLQ7S","3KTZHH2ONI1ODAVRRMZTRL6IHCUM80","","192.59999990463257","img/food1.png","75","193.69999992847443","2","0","","3","1","1,0.7,0,1,0.7,0,0.7,0,1","1,0.7,0,1,0.7,0,0.7,0,1","1",""
"","html-keyboard-response","273","82479","0.0-363.0","3HMIGG0U4MSQTBIZ1RS6AZPDXUFY8D","A1Q56N80RJLQ7S","3KTZHH2ONI1ODAVRRMZTRL6IHCUM80","","null","<img src=""img/food1.png"" style=""width:200px;border:14px solid red;"">","null","","","","","","","","","",""
"","image-keyboard-response","274","82696","0.0-364.0","3HMIGG0U4MSQTBIZ1RS6AZPDXUFY8D","A1Q56N80RJLQ7S","3KTZHH2ONI1ODAVRRMZTRL6IHCUM80","","216.10000002384186","img/food3.png","74","217","1","1","","1","1","1,0.7,0,1,0.7,0,0.7,0,1","1,0.7,0,1,0.7,0,0.7,0,1","1",""
"","html-keyboard-response","275","82998","0.0-365.0","3HMIGG0U4MSQTBIZ1RS6AZPDXUFY8D","A1Q56N80RJLQ7S","3KTZHH2ONI1ODAVRRMZTRL6IHCUM80","","null","<img src=""img/food3.png"" style=""width:200px; border:14px solid green;"">","null","","","","","","","","","",""
"","image-keyboard-response","276","83304","0.0-366.0","3HMIGG0U4MSQTBIZ1RS6AZPDXUFY8D","A1Q56N80RJLQ7S","3KTZHH2ONI1ODAVRRMZTRL6IHCUM80","","304.59999990463257","img/food1.png","74","305.5","1","1","","3","1","1,0.7,0,1,0.7,0,0.7,0,1","1,0.7,0,1,0.7,0,0.7,0,1","1",""
"","html-keyboard-response","277","83606","0.0-367.0","3HMIGG0U4MSQTBIZ1RS6AZPDXUFY8D","A1Q56N80RJLQ7S","3KTZHH2ONI1ODAVRRMZTRL6IHCUM80","","null","<img src=""img/food1.png"" style=""width:200px; border:14px solid green;"">","null","","","","","","","","","",""
"","image-keyboard-response","278","83808","0.0-368.0","3HMIGG0U4MSQTBIZ1RS6AZPDXUFY8D","A1Q56N80RJLQ7S","3KTZHH2ONI1ODAVRRMZTRL6IHCUM80","","201.10000002384186","img/food3.png","75","202.10000002384186","2","1","","1","1","1,0.7,0,1,0.7,0,0.7,0,1","1,0.7,0,1,0.7,0,0.7,0,1","1",""
"","html-keyboard-response","279","84110","0.0-369.0","3HMIGG0U4MSQTBIZ1RS6AZPDXUFY8D","A1Q56N80RJLQ7S","3KTZHH2ONI1ODAVRRMZTRL6IHCUM80","","null","<img src=""img/food3.png"" style=""width:200px; border:14px solid green;"">","null","","","","","","","","","",""
"","image-keyboard-response","280","84344","0.0-370.0","3HMIGG0U4MSQTBIZ1RS6AZPDXUFY8D","A1Q56N80RJLQ7S","3KTZHH2ONI1ODAVRRMZTRL6IHCUM80","","233","img/food1.png","75","234","2","0","","3","1","1,0.7,0,1,0.7,0,0.7,0,1","1,0.7,0,1,0.7,0,0.7,0,1","1",""
"","html-keyboard-response","281","84647","0.0-371.0","3HMIGG0U4MSQTBIZ1RS6AZPDXUFY8D","A1Q56N80RJLQ7S","3KTZHH2ONI1ODAVRRMZTRL6IHCUM80","","null","<img src=""img/food1.png"" style=""width:200px;border:14px solid red;"">","null","","","","","","","","","",""
"","image-keyboard-response","282","84904","0.0-372.0","3HMIGG0U4MSQTBIZ1RS6AZPDXUFY8D","A1Q56N80RJLQ7S","3KTZHH2ONI1ODAVRRMZTRL6IHCUM80","","255.59999990463257","img/food3.png","75","256.6999999284744","2","0","","1","1","1,0.7,0,1,0.7,0,0.7,0,1","1,0.7,0,1,0.7,0,0.7,0,1","1",""
"","html-keyboard-response","283","85207","0.0-373.0","3HMIGG0U4MSQTBIZ1RS6AZPDXUFY8D","A1Q56N80RJLQ7S","3KTZHH2ONI1ODAVRRMZTRL6IHCUM80","","null","<img src=""img/food3.png"" style=""width:200px;border:14px solid red;"">","null","","","","","","","","","",""
"","image-keyboard-response","284","85416","0.0-374.0","3HMIGG0U4MSQTBIZ1RS6AZPDXUFY8D","A1Q56N80RJLQ7S","3KTZHH2ONI1ODAVRRMZTRL6IHCUM80","","207.70000004768372","img/food1.png","76","208.60000002384186","3","1","","3","1","1,0.7,0,1,0.7,0,0.7,0,1","1,0.7,0,1,0.7,0,0.7,0,1","1",""
"","html-keyboard-response","285","85718","0.0-375.0","3HMIGG0U4MSQTBIZ1RS6AZPDXUFY8D","A1Q56N80RJLQ7S","3KTZHH2ONI1ODAVRRMZTRL6IHCUM80","","null","<img src=""img/food1.png"" style=""width:200px; border:14px solid green;"">","null","","","","","","","","","",""
"","image-keyboard-response","286","86016","0.0-376.0","3HMIGG0U4MSQTBIZ1RS6AZPDXUFY8D","A1Q56N80RJLQ7S","3KTZHH2ONI1ODAVRRMZTRL6IHCUM80","","297.5","img/food1.png","76","298.7000000476837","3","1","","3","1","1,0.7,0,1,0.7,0,0.7,0,1","1,0.7,0,1,0.7,0,0.7,0,1","1",""
"","html-keyboard-response","287","86319","0.0-377.0","3HMIGG0U4MSQTBIZ1RS6AZPDXUFY8D","A1Q56N80RJLQ7S","3KTZHH2ONI1ODAVRRMZTRL6IHCUM80","","null","<img src=""img/food1.png"" style=""width:200px; border:14px solid green;"">","null","","","","","","","","","",""
"","image-keyboard-response","288","86512","0.0-378.0","3HMIGG0U4MSQTBIZ1RS6AZPDXUFY8D","A1Q56N80RJLQ7S","3KTZHH2ONI1ODAVRRMZTRL6IHCUM80","","192.5","img/food1.png","76","193.60000002384186","3","1","","3","1","1,0.7,0,1,0.7,0,0.7,0,1","1,0.7,0,1,0.7,0,0.7,0,1","1",""
"","html-keyboard-response","289","86815","0.0-379.0","3HMIGG0U4MSQTBIZ1RS6AZPDXUFY8D","A1Q56N80RJLQ7S","3KTZHH2ONI1ODAVRRMZTRL6IHCUM80","","null","<img src=""img/food1.png"" style=""width:200px; border:14px solid green;"">","null","","","","","","","","","",""
"","image-keyboard-response","290","86968","0.0-380.0","3HMIGG0U4MSQTBIZ1RS6AZPDXUFY8D","A1Q56N80RJLQ7S","3KTZHH2ONI1ODAVRRMZTRL6IHCUM80","","152","img/food4.png","75","153.09999990463257","2","1","","2","1","1,0.7,0,1,0.7,0,0.7,0,1","1,0.7,0,1,0.7,0,0.7,0,1","1",""
"","html-keyboard-response","291","87271","0.0-381.0","3HMIGG0U4MSQTBIZ1RS6AZPDXUFY8D","A1Q56N80RJLQ7S","3KTZHH2ONI1ODAVRRMZTRL6IHCUM80","","null","<img src=""img/food4.png"" style=""width:200px; border:14px solid green;"">","null","","","","","","","","","",""
"","image-keyboard-response","292","87504","0.0-382.0","3HMIGG0U4MSQTBIZ1RS6AZPDXUFY8D","A1Q56N80RJLQ7S","3KTZHH2ONI1ODAVRRMZTRL6IHCUM80","","232.29999995231628","img/food3.png","75","233.39999997615814","2","0","","1","1","1,0.7,0,1,0.7,0,0.7,0,1","1,0.7,0,1,0.7,0,0.7,0,1","1",""
"","html-keyboard-response","293","87807","0.0-383.0","3HMIGG0U4MSQTBIZ1RS6AZPDXUFY8D","A1Q56N80RJLQ7S","3KTZHH2ONI1ODAVRRMZTRL6IHCUM80","","null","<img src=""img/food3.png"" style=""width:200px;border:14px solid red;"">","null","","","","","","","","","",""
"","image-keyboard-response","294","87977","0.0-384.0","3HMIGG0U4MSQTBIZ1RS6AZPDXUFY8D","A1Q56N80RJLQ7S","3KTZHH2ONI1ODAVRRMZTRL6IHCUM80","","167.79999995231628","img/food1.png","75","169","2","0","","3","1","1,0.7,0,1,0.7,0,0.7,0,1","1,0.7,0,1,0.7,0,0.7,0,1","1",""
"","html-keyboard-response","295","88279","0.0-385.0","3HMIGG0U4MSQTBIZ1RS6AZPDXUFY8D","A1Q56N80RJLQ7S","3KTZHH2ONI1ODAVRRMZTRL6IHCUM80","","null","<img src=""img/food1.png"" style=""width:200px;border:14px solid red;"">","null","","","","","","","","","",""
"","image-keyboard-response","296","88368","0.0-386.0","3HMIGG0U4MSQTBIZ1RS6AZPDXUFY8D","A1Q56N80RJLQ7S","3KTZHH2ONI1ODAVRRMZTRL6IHCUM80","","87.39999997615814","img/food4.png","75","88.39999997615814","2","0","","2","1","1,0.7,0,1,0.7,0,0.7,0,1","1,0.7,0,1,0.7,0,0.7,0,1","1",""
"","html-keyboard-response","297","88670","0.0-387.0","3HMIGG0U4MSQTBIZ1RS6AZPDXUFY8D","A1Q56N80RJLQ7S","3KTZHH2ONI1ODAVRRMZTRL6IHCUM80","","null","<img src=""img/food4.png"" style=""width:200px;border:14px solid red;"">","null","","","","","","","","","",""
"","image-keyboard-response","298","88800","0.0-388.0","3HMIGG0U4MSQTBIZ1RS6AZPDXUFY8D","A1Q56N80RJLQ7S","3KTZHH2ONI1ODAVRRMZTRL6IHCUM80","","128.29999995231628","img/food3.png","75","129.29999995231628","2","1","","1","1","1,0.7,0,1,0.7,0,0.7,0,1","1,0.7,0,1,0.7,0,0.7,0,1","1",""
"","html-keyboard-response","299","89102","0.0-389.0","3HMIGG0U4MSQTBIZ1RS6AZPDXUFY8D","A1Q56N80RJLQ7S","3KTZHH2ONI1ODAVRRMZTRL6IHCUM80","","null","<img src=""img/food3.png"" style=""width:200px; border:14px solid green;"">","null","","","","","","","","","",""
"","image-keyboard-response","300","89224","0.0-390.0","3HMIGG0U4MSQTBIZ1RS6AZPDXUFY8D","A1Q56N80RJLQ7S","3KTZHH2ONI1ODAVRRMZTRL6IHCUM80","","120.69999992847443","img/food1.png","74","121.89999997615814","1","0","","3","1","1,0.7,0,1,0.7,0,0.7,0,1","1,0.7,0,1,0.7,0,0.7,0,1","1",""
"","html-keyboard-response","301","89526","0.0-391.0","3HMIGG0U4MSQTBIZ1RS6AZPDXUFY8D","A1Q56N80RJLQ7S","3KTZHH2ONI1ODAVRRMZTRL6IHCUM80","","null","<img src=""img/food1.png"" style=""width:200px;border:14px solid red;"">","null","","","","","","","","","",""
"","image-keyboard-response","302","89632","0.0-392.0","3HMIGG0U4MSQTBIZ1RS6AZPDXUFY8D","A1Q56N80RJLQ7S","3KTZHH2ONI1ODAVRRMZTRL6IHCUM80","","104.5","img/food4.png","74","105.70000004768372","1","1","","2","1","1,0.7,0,1,0.7,0,0.7,0,1","1,0.7,0,1,0.7,0,0.7,0,1","1",""
"","html-keyboard-response","303","89937","0.0-393.0","3HMIGG0U4MSQTBIZ1RS6AZPDXUFY8D","A1Q56N80RJLQ7S","3KTZHH2ONI1ODAVRRMZTRL6IHCUM80","","null","<img src=""img/food4.png"" style=""width:200px; border:14px solid green;"">","null","","","","","","","","","",""
"","image-keyboard-response","304","90216","0.0-394.0","3HMIGG0U4MSQTBIZ1RS6AZPDXUFY8D","A1Q56N80RJLQ7S","3KTZHH2ONI1ODAVRRMZTRL6IHCUM80","","278.2999999523163","img/food4.png","74","279.39999997615814","1","1","","2","1","1,0.7,0,1,0.7,0,0.7,0,1","1,0.7,0,1,0.7,0,0.7,0,1","1",""
"","html-keyboard-response","305","90519","0.0-395.0","3HMIGG0U4MSQTBIZ1RS6AZPDXUFY8D","A1Q56N80RJLQ7S","3KTZHH2ONI1ODAVRRMZTRL6IHCUM80","","null","<img src=""img/food4.png"" style=""width:200px; border:14px solid green;"">","null","","","","","","","","","",""
"","image-keyboard-response","306","90552","0.0-396.0","3HMIGG0U4MSQTBIZ1RS6AZPDXUFY8D","A1Q56N80RJLQ7S","3KTZHH2ONI1ODAVRRMZTRL6IHCUM80","","31.899999976158142","img/food3.png","75","32.89999997615814","2","0","","1","1","1,0.7,0,1,0.7,0,0.7,0,1","1,0.7,0,1,0.7,0,0.7,0,1","1",""
"","html-keyboard-response","307","90854","0.0-397.0","3HMIGG0U4MSQTBIZ1RS6AZPDXUFY8D","A1Q56N80RJLQ7S","3KTZHH2ONI1ODAVRRMZTRL6IHCUM80","","null","<img src=""img/food3.png"" style=""width:200px;border:14px solid red;"">","null","","","","","","","","","",""
"","image-keyboard-response","308","90985","0.0-398.0","3HMIGG0U4MSQTBIZ1RS6AZPDXUFY8D","A1Q56N80RJLQ7S","3KTZHH2ONI1ODAVRRMZTRL6IHCUM80","","129.10000002384186","img/food1.png","76","130.30000007152557","3","1","","3","1","1,0.7,0,1,0.7,0,0.7,0,1","1,0.7,0,1,0.7,0,0.7,0,1","1",""
"","html-keyboard-response","309","91293","0.0-399.0","3HMIGG0U4MSQTBIZ1RS6AZPDXUFY8D","A1Q56N80RJLQ7S","3KTZHH2ONI1ODAVRRMZTRL6IHCUM80","","null","<img src=""img/food1.png"" style=""width:200px; border:14px solid green;"">","null","","","","","","","","","",""
"","image-keyboard-response","310","91512","0.0-400.0","3HMIGG0U4MSQTBIZ1RS6AZPDXUFY8D","A1Q56N80RJLQ7S","3KTZHH2ONI1ODAVRRMZTRL6IHCUM80","","218.30000007152557","img/food3.png","76","219.29999995231628","3","0","","1","1","1,0.7,0,1,0.7,0,0.7,0,1","1,0.7,0,1,0.7,0,0.7,0,1","1",""
"","html-keyboard-response","311","91814","0.0-401.0","3HMIGG0U4MSQTBIZ1RS6AZPDXUFY8D","A1Q56N80RJLQ7S","3KTZHH2ONI1ODAVRRMZTRL6IHCUM80","","null","<img src=""img/food3.png"" style=""width:200px;border:14px solid red;"">","null","","","","","","","","","",""
"","image-keyboard-response","312","92040","0.0-402.0","3HMIGG0U4MSQTBIZ1RS6AZPDXUFY8D","A1Q56N80RJLQ7S","3KTZHH2ONI1ODAVRRMZTRL6IHCUM80","","224.5","img/food1.png","76","225.70000004768372","3","1","","3","1","1,0.7,0,1,0.7,0,0.7,0,1","1,0.7,0,1,0.7,0,0.7,0,1","1",""
"","html-keyboard-response","313","92343","0.0-403.0","3HMIGG0U4MSQTBIZ1RS6AZPDXUFY8D","A1Q56N80RJLQ7S","3KTZHH2ONI1ODAVRRMZTRL6IHCUM80","","null","<img src=""img/food1.png"" style=""width:200px; border:14px solid green;"">","null","","","","","","","","","",""
"","image-keyboard-response","314","92376","0.0-404.0","3HMIGG0U4MSQTBIZ1RS6AZPDXUFY8D","A1Q56N80RJLQ7S","3KTZHH2ONI1ODAVRRMZTRL6IHCUM80","","31.199999928474426","img/food1.png","75","32.10000002384186","2","0","","3","1","1,0.7,0,1,0.7,0,0.7,0,1","1,0.7,0,1,0.7,0,0.7,0,1","1",""
"","html-keyboard-response","315","92678","0.0-405.0","3HMIGG0U4MSQTBIZ1RS6AZPDXUFY8D","A1Q56N80RJLQ7S","3KTZHH2ONI1ODAVRRMZTRL6IHCUM80","","null","<img src=""img/food1.png"" style=""width:200px;border:14px solid red;"">","null","","","","","","","","","",""
"","image-keyboard-response","316","92832","0.0-406.0","3HMIGG0U4MSQTBIZ1RS6AZPDXUFY8D","A1Q56N80RJLQ7S","3KTZHH2ONI1ODAVRRMZTRL6IHCUM80","","153.30000007152557","img/food3.png","74","154.29999995231628","1","1","","1","1","1,0.7,0,1,0.7,0,0.7,0,1","1,0.7,0,1,0.7,0,0.7,0,1","1",""
"","html-keyboard-response","317","93134","0.0-407.0","3HMIGG0U4MSQTBIZ1RS6AZPDXUFY8D","A1Q56N80RJLQ7S","3KTZHH2ONI1ODAVRRMZTRL6IHCUM80","","null","<img src=""img/food3.png"" style=""width:200px; border:14px solid green;"">","null","","","","","","","","","",""
"","image-keyboard-response","318","93224","0.0-408.0","3HMIGG0U4MSQTBIZ1RS6AZPDXUFY8D","A1Q56N80RJLQ7S","3KTZHH2ONI1ODAVRRMZTRL6IHCUM80","","89.5","img/food1.png","74","90.60000002384186","1","1","","3","1","1,0.7,0,1,0.7,0,0.7,0,1","1,0.7,0,1,0.7,0,0.7,0,1","1",""
"","html-keyboard-response","319","93526","0.0-409.0","3HMIGG0U4MSQTBIZ1RS6AZPDXUFY8D","A1Q56N80RJLQ7S","3KTZHH2ONI1ODAVRRMZTRL6IHCUM80","","null","<img src=""img/food1.png"" style=""width:200px; border:14px solid green;"">","null","","","","","","","","","",""
"","image-keyboard-response","320","93648","0.0-410.0","3HMIGG0U4MSQTBIZ1RS6AZPDXUFY8D","A1Q56N80RJLQ7S","3KTZHH2ONI1ODAVRRMZTRL6IHCUM80","","120.60000002384186","img/food4.png","75","121.60000002384186","2","1","","2","1","1,0.7,0,1,0.7,0,0.7,0,1","1,0.7,0,1,0.7,0,0.7,0,1","1",""
"","html-keyboard-response","321","93950","0.0-411.0","3HMIGG0U4MSQTBIZ1RS6AZPDXUFY8D","A1Q56N80RJLQ7S","3KTZHH2ONI1ODAVRRMZTRL6IHCUM80","","null","<img src=""img/food4.png"" style=""width:200px; border:14px solid green;"">","null","","","","","","","","","",""
"","image-keyboard-response","322","94240","0.0-412.0","3HMIGG0U4MSQTBIZ1RS6AZPDXUFY8D","A1Q56N80RJLQ7S","3KTZHH2ONI1ODAVRRMZTRL6IHCUM80","","289.2000000476837","img/food1.png","75","290.3000000715256","2","0","","3","1","1,0.7,0,1,0.7,0,0.7,0,1","1,0.7,0,1,0.7,0,0.7,0,1","1",""
"","html-keyboard-response","323","94543","0.0-413.0","3HMIGG0U4MSQTBIZ1RS6AZPDXUFY8D","A1Q56N80RJLQ7S","3KTZHH2ONI1ODAVRRMZTRL6IHCUM80","","null","<img src=""img/food1.png"" style=""width:200px;border:14px solid red;"">","null","","","","","","","","","",""
"","image-keyboard-response","324","94680","0.0-414.0","3HMIGG0U4MSQTBIZ1RS6AZPDXUFY8D","A1Q56N80RJLQ7S","3KTZHH2ONI1ODAVRRMZTRL6IHCUM80","","136.10000002384186","img/food1.png","74","137.30000007152557","1","1","","3","1","1,0.7,0,1,0.7,0,0.7,0,1","1,0.7,0,1,0.7,0,0.7,0,1","1",""
"","html-keyboard-response","325","94983","0.0-415.0","3HMIGG0U4MSQTBIZ1RS6AZPDXUFY8D","A1Q56N80RJLQ7S","3KTZHH2ONI1ODAVRRMZTRL6IHCUM80","","null","<img src=""img/food1.png"" style=""width:200px; border:14px solid green;"">","null","","","","","","","","","",""
"","image-keyboard-response","326","95152","0.0-416.0","3HMIGG0U4MSQTBIZ1RS6AZPDXUFY8D","A1Q56N80RJLQ7S","3KTZHH2ONI1ODAVRRMZTRL6IHCUM80","","168","img/food1.png","74","169.30000007152557","1","1","","3","1","1,0.7,0,1,0.7,0,0.7,0,1","1,0.7,0,1,0.7,0,0.7,0,1","1",""
"","html-keyboard-response","327","95454","0.0-417.0","3HMIGG0U4MSQTBIZ1RS6AZPDXUFY8D","A1Q56N80RJLQ7S","3KTZHH2ONI1ODAVRRMZTRL6IHCUM80","","null","<img src=""img/food1.png"" style=""width:200px; border:14px solid green;"">","null","","","","","","","","","",""
"","image-keyboard-response","328","95552","0.0-418.0","3HMIGG0U4MSQTBIZ1RS6AZPDXUFY8D","A1Q56N80RJLQ7S","3KTZHH2ONI1ODAVRRMZTRL6IHCUM80","","96.59999990463257","img/food1.png","76","97.79999995231628","3","1","","3","1","1,0.7,0,1,0.7,0,0.7,0,1","1,0.7,0,1,0.7,0,0.7,0,1","1",""
"","html-keyboard-response","329","95855","0.0-419.0","3HMIGG0U4MSQTBIZ1RS6AZPDXUFY8D","A1Q56N80RJLQ7S","3KTZHH2ONI1ODAVRRMZTRL6IHCUM80","","null","<img src=""img/food1.png"" style=""width:200px; border:14px solid green;"">","null","","","","","","","","","",""
"","image-keyboard-response","330","96016","0.0-420.0","3HMIGG0U4MSQTBIZ1RS6AZPDXUFY8D","A1Q56N80RJLQ7S","3KTZHH2ONI1ODAVRRMZTRL6IHCUM80","","159.69999992847443","img/food1.png","76","160.79999995231628","3","1","","3","1","1,0.7,0,1,0.7,0,0.7,0,1","1,0.7,0,1,0.7,0,0.7,0,1","1",""
"","html-keyboard-response","331","96319","0.0-421.0","3HMIGG0U4MSQTBIZ1RS6AZPDXUFY8D","A1Q56N80RJLQ7S","3KTZHH2ONI1ODAVRRMZTRL6IHCUM80","","null","<img src=""img/food1.png"" style=""width:200px; border:14px solid green;"">","null","","","","","","","","","",""
"","image-keyboard-response","332","96408","0.0-422.0","3HMIGG0U4MSQTBIZ1RS6AZPDXUFY8D","A1Q56N80RJLQ7S","3KTZHH2ONI1ODAVRRMZTRL6IHCUM80","","88.19999992847443","img/food1.png","75","89.29999995231628","2","0","","3","1","1,0.7,0,1,0.7,0,0.7,0,1","1,0.7,0,1,0.7,0,0.7,0,1","1",""
"","html-keyboard-response","333","96710","0.0-423.0","3HMIGG0U4MSQTBIZ1RS6AZPDXUFY8D","A1Q56N80RJLQ7S","3KTZHH2ONI1ODAVRRMZTRL6IHCUM80","","null","<img src=""img/food1.png"" style=""width:200px;border:14px solid red;"">","null","","","","","","","","","",""
"","image-keyboard-response","334","96824","0.0-424.0","3HMIGG0U4MSQTBIZ1RS6AZPDXUFY8D","A1Q56N80RJLQ7S","3KTZHH2ONI1ODAVRRMZTRL6IHCUM80","","112.30000007152557","img/food4.png","75","113.40000009536743","2","0","","2","1","1,0.7,0,1,0.7,0,0.7,0,1","1,0.7,0,1,0.7,0,0.7,0,1","1",""
"","html-keyboard-response","335","97126","0.0-425.0","3HMIGG0U4MSQTBIZ1RS6AZPDXUFY8D","A1Q56N80RJLQ7S","3KTZHH2ONI1ODAVRRMZTRL6IHCUM80","","null","<img src=""img/food4.png"" style=""width:200px;border:14px solid red;"">","null","","","","","","","","","",""
"","image-keyboard-response","336","97216","0.0-426.0","3HMIGG0U4MSQTBIZ1RS6AZPDXUFY8D","A1Q56N80RJLQ7S","3KTZHH2ONI1ODAVRRMZTRL6IHCUM80","","88.39999997615814","img/food4.png","75","89.59999990463257","2","1","","2","1","1,0.7,0,1,0.7,0,0.7,0,1","1,0.7,0,1,0.7,0,0.7,0,1","1",""
"","html-keyboard-response","337","97519","0.0-427.0","3HMIGG0U4MSQTBIZ1RS6AZPDXUFY8D","A1Q56N80RJLQ7S","3KTZHH2ONI1ODAVRRMZTRL6IHCUM80","","null","<img src=""img/food4.png"" style=""width:200px; border:14px solid green;"">","null","","","","","","","","","",""
"","image-keyboard-response","338","97584","0.0-428.0","3HMIGG0U4MSQTBIZ1RS6AZPDXUFY8D","A1Q56N80RJLQ7S","3KTZHH2ONI1ODAVRRMZTRL6IHCUM80","","63.90000009536743","img/food3.png","76","64.80000007152557","3","0","","1","1","1,0.7,0,1,0.7,0,0.7,0,1","1,0.7,0,1,0.7,0,0.7,0,1","1",""
"","html-keyboard-response","339","97887","0.0-429.0","3HMIGG0U4MSQTBIZ1RS6AZPDXUFY8D","A1Q56N80RJLQ7S","3KTZHH2ONI1ODAVRRMZTRL6IHCUM80","","null","<img src=""img/food3.png"" style=""width:200px;border:14px solid red;"">","null","","","","","","","","","",""
"","image-keyboard-response","340","98000","0.0-430.0","3HMIGG0U4MSQTBIZ1RS6AZPDXUFY8D","A1Q56N80RJLQ7S","3KTZHH2ONI1ODAVRRMZTRL6IHCUM80","","112.09999990463257","img/food1.png","74","113.29999995231628","1","1","","3","1","1,0.7,0,1,0.7,0,0.7,0,1","1,0.7,0,1,0.7,0,0.7,0,1","1",""
"","html-keyboard-response","341","98302","0.0-431.0","3HMIGG0U4MSQTBIZ1RS6AZPDXUFY8D","A1Q56N80RJLQ7S","3KTZHH2ONI1ODAVRRMZTRL6IHCUM80","","null","<img src=""img/food1.png"" style=""width:200px; border:14px solid green;"">","null","","","","","","","","","",""
"","image-keyboard-response","342","98401","0.0-432.0","3HMIGG0U4MSQTBIZ1RS6AZPDXUFY8D","A1Q56N80RJLQ7S","3KTZHH2ONI1ODAVRRMZTRL6IHCUM80","","97.60000002384186","img/food1.png","74","98.59999990463257","1","0","","3","1","1,0.7,0,1,0.7,0,0.7,0,1","1,0.7,0,1,0.7,0,0.7,0,1","1",""
"","html-keyboard-response","343","98702","0.0-433.0","3HMIGG0U4MSQTBIZ1RS6AZPDXUFY8D","A1Q56N80RJLQ7S","3KTZHH2ONI1ODAVRRMZTRL6IHCUM80","","null","<img src=""img/food1.png"" style=""width:200px;border:14px solid red;"">","null","","","","","","","","","",""
"","image-keyboard-response","344","98816","0.0-434.0","3HMIGG0U4MSQTBIZ1RS6AZPDXUFY8D","A1Q56N80RJLQ7S","3KTZHH2ONI1ODAVRRMZTRL6IHCUM80","","112.5","img/food3.png","74","113.70000004768372","1","1","","1","1","1,0.7,0,1,0.7,0,0.7,0,1","1,0.7,0,1,0.7,0,0.7,0,1","1",""
"","html-keyboard-response","345","99118","0.0-435.0","3HMIGG0U4MSQTBIZ1RS6AZPDXUFY8D","A1Q56N80RJLQ7S","3KTZHH2ONI1ODAVRRMZTRL6IHCUM80","","null","<img src=""img/food3.png"" style=""width:200px; border:14px solid green;"">","null","","","","","","","","","",""
"","image-keyboard-response","346","99192","0.0-436.0","3HMIGG0U4MSQTBIZ1RS6AZPDXUFY8D","A1Q56N80RJLQ7S","3KTZHH2ONI1ODAVRRMZTRL6IHCUM80","","72.69999992847443","img/food4.png","74","73.80000007152557","1","1","","2","1","1,0.7,0,1,0.7,0,0.7,0,1","1,0.7,0,1,0.7,0,0.7,0,1","1",""
"","html-keyboard-response","347","99495","0.0-437.0","3HMIGG0U4MSQTBIZ1RS6AZPDXUFY8D","A1Q56N80RJLQ7S","3KTZHH2ONI1ODAVRRMZTRL6IHCUM80","","null","<img src=""img/food4.png"" style=""width:200px; border:14px solid green;"">","null","","","","","","","","","",""
"","image-keyboard-response","348","99848","0.0-438.0","3HMIGG0U4MSQTBIZ1RS6AZPDXUFY8D","A1Q56N80RJLQ7S","3KTZHH2ONI1ODAVRRMZTRL6IHCUM80","","352.2999999523163","img/food3.png","74","353.5","1","1","","1","1","1,0.7,0,1,0.7,0,0.7,0,1","1,0.7,0,1,0.7,0,0.7,0,1","1",""
"","html-keyboard-response","349","100151","0.0-439.0","3HMIGG0U4MSQTBIZ1RS6AZPDXUFY8D","A1Q56N80RJLQ7S","3KTZHH2ONI1ODAVRRMZTRL6IHCUM80","","null","<img src=""img/food3.png"" style=""width:200px; border:14px solid green;"">","null","","","","","","","","","",""
"","image-keyboard-response","350","100224","0.0-440.0","3HMIGG0U4MSQTBIZ1RS6AZPDXUFY8D","A1Q56N80RJLQ7S","3KTZHH2ONI1ODAVRRMZTRL6IHCUM80","","72.09999990463257","img/food3.png","74","73.29999995231628","1","1","","1","1","1,0.7,0,1,0.7,0,0.7,0,1","1,0.7,0,1,0.7,0,0.7,0,1","1",""
"","html-keyboard-response","351","100527","0.0-441.0","3HMIGG0U4MSQTBIZ1RS6AZPDXUFY8D","A1Q56N80RJLQ7S","3KTZHH2ONI1ODAVRRMZTRL6IHCUM80","","null","<img src=""img/food3.png"" style=""width:200px; border:14px solid green;"">","null","","","","","","","","","",""
"","image-keyboard-response","352","100672","0.0-442.0","3HMIGG0U4MSQTBIZ1RS6AZPDXUFY8D","A1Q56N80RJLQ7S","3KTZHH2ONI1ODAVRRMZTRL6IHCUM80","","143.5","img/food4.png","74","144.60000002384186","1","1","","2","1","1,0.7,0,1,0.7,0,0.7,0,1","1,0.7,0,1,0.7,0,0.7,0,1","1",""
"","html-keyboard-response","353","100974","0.0-443.0","3HMIGG0U4MSQTBIZ1RS6AZPDXUFY8D","A1Q56N80RJLQ7S","3KTZHH2ONI1ODAVRRMZTRL6IHCUM80","","null","<img src=""img/food4.png"" style=""width:200px; border:14px solid green;"">","null","","","","","","","","","",""
"","image-keyboard-response","354","101288","0.0-444.0","3HMIGG0U4MSQTBIZ1RS6AZPDXUFY8D","A1Q56N80RJLQ7S","3KTZHH2ONI1ODAVRRMZTRL6IHCUM80","","312.6999999284744","img/food3.png","74","313.6999999284744","1","1","","1","1","1,0.7,0,1,0.7,0,0.7,0,1","1,0.7,0,1,0.7,0,0.7,0,1","1",""
"","html-keyboard-response","355","101590","0.0-445.0","3HMIGG0U4MSQTBIZ1RS6AZPDXUFY8D","A1Q56N80RJLQ7S","3KTZHH2ONI1ODAVRRMZTRL6IHCUM80","","null","<img src=""img/food3.png"" style=""width:200px; border:14px solid green;"">","null","","","","","","","","","",""
"","image-keyboard-response","356","101888","0.0-446.0","3HMIGG0U4MSQTBIZ1RS6AZPDXUFY8D","A1Q56N80RJLQ7S","3KTZHH2ONI1ODAVRRMZTRL6IHCUM80","","296.5","img/food4.png","74","297.7000000476837","1","1","","2","1","1,0.7,0,1,0.7,0,0.7,0,1","1,0.7,0,1,0.7,0,0.7,0,1","1",""
"","html-keyboard-response","357","102191","0.0-447.0","3HMIGG0U4MSQTBIZ1RS6AZPDXUFY8D","A1Q56N80RJLQ7S","3KTZHH2ONI1ODAVRRMZTRL6IHCUM80","","null","<img src=""img/food4.png"" style=""width:200px; border:14px solid green;"">","null","","","","","","","","","",""
"","image-keyboard-response","358","102280","0.0-448.0","3HMIGG0U4MSQTBIZ1RS6AZPDXUFY8D","A1Q56N80RJLQ7S","3KTZHH2ONI1ODAVRRMZTRL6IHCUM80","","87.70000004768372","img/food4.png","74","88.89999997615814","1","1","","2","1","1,0.7,0,1,0.7,0,0.7,0,1","1,0.7,0,1,0.7,0,0.7,0,1","1",""
"","html-keyboard-response","359","102582","0.0-449.0","3HMIGG0U4MSQTBIZ1RS6AZPDXUFY8D","A1Q56N80RJLQ7S","3KTZHH2ONI1ODAVRRMZTRL6IHCUM80","","null","<img src=""img/food4.png"" style=""width:200px; border:14px solid green;"">","null","","","","","","","","","",""
"","image-keyboard-response","360","102808","0.0-450.0","3HMIGG0U4MSQTBIZ1RS6AZPDXUFY8D","A1Q56N80RJLQ7S","3KTZHH2ONI1ODAVRRMZTRL6IHCUM80","","224.09999990463257","img/food3.png","74","225.10000002384186","1","1","","1","1","1,0.7,0,1,0.7,0,0.7,0,1","1,0.7,0,1,0.7,0,0.7,0,1","1",""
"","html-keyboard-response","361","103110","0.0-451.0","3HMIGG0U4MSQTBIZ1RS6AZPDXUFY8D","A1Q56N80RJLQ7S","3KTZHH2ONI1ODAVRRMZTRL6IHCUM80","","null","<img src=""img/food3.png"" style=""width:200px; border:14px solid green;"">","null","","","","","","","","","",""
"","image-keyboard-response","362","103216","0.0-452.0","3HMIGG0U4MSQTBIZ1RS6AZPDXUFY8D","A1Q56N80RJLQ7S","3KTZHH2ONI1ODAVRRMZTRL6IHCUM80","","104.5","img/food3.png","74","105.59999990463257","1","1","","1","1","1,0.7,0,1,0.7,0,0.7,0,1","1,0.7,0,1,0.7,0,0.7,0,1","1",""
"","html-keyboard-response","363","103518","0.0-453.0","3HMIGG0U4MSQTBIZ1RS6AZPDXUFY8D","A1Q56N80RJLQ7S","3KTZHH2ONI1ODAVRRMZTRL6IHCUM80","","null","<img src=""img/food3.png"" style=""width:200px; border:14px solid green;"">","null","","","","","","","","","",""
"","html-keyboard-response","364","109468","0.0-454.0","3HMIGG0U4MSQTBIZ1RS6AZPDXUFY8D","A1Q56N80RJLQ7S","3KTZHH2ONI1ODAVRRMZTRL6IHCUM80","","","","","","","","","","","","","",""
"","instructions","365","111053","0.0-455.0","3HMIGG0U4MSQTBIZ1RS6AZPDXUFY8D","A1Q56N80RJLQ7S","3KTZHH2ONI1ODAVRRMZTRL6IHCUM80","[{""page_index"":0,""viewing_time"":1583.3999999761581}]","1583.7000000476837","","","","","","","","","","","",""
"","survey-text","366","115539","0.0-456.0","3HMIGG0U4MSQTBIZ1RS6AZPDXUFY8D","A1Q56N80RJLQ7S","3KTZHH2ONI1ODAVRRMZTRL6IHCUM80","","4483.799999952316","","","","","","","","","","","","{""Q0"":""A1Q56N80RJLQ7S""}"
