"success","trial_type","trial_index","time_elapsed","internal_node_id","assignmentID","mturkID","hitID","view_history","rt","stimulus","key_press","reactionTime","a","r","warning","s","cond","reward_cond","reward_cond_actual","reward_matrix_idx","responses"
"true","fullscreen","0","7730","0.0-0.0","","","","","","","","","","","","","","","","",""
"","instructions","1","17504","0.0-1.0","","","","[{""page_index"":0,""viewing_time"":2684.899999999907},{""page_index"":1,""viewing_time"":693.3999999999069},{""page_index"":2,""viewing_time"":722.2000000001863},{""page_index"":3,""viewing_time"":2746.6999999997206},{""page_index"":4,""viewing_time"":977.3999999999069},{""page_index"":5,""viewing_time"":958.3000000002794},{""page_index"":6,""viewing_time"":990}]","9773.099999999627","","","","","","","","","","","",""
"","instructions","2","31359","0.0-2.0","","","","[{""page_index"":0,""viewing_time"":12748.700000000186},{""page_index"":1,""viewing_time"":1106.1000000000931}]","13855","","","","","","","","","","","",""
"","image-keyboard-response","3","32103","0.0-3.0","","","","","742.1000000000931","img/food6.png","74","742.9000000003725","1","0","false","2","2","1,0.7,0,1,0.7,0,0.7,0,1","0,1,0.7,0,1,0.7,1,0.7,0","3",""
"","html-keyboard-response","4","32405","0.0-4.0","","","","","null","<img src=""img/food6.png"" style=""width:200px;border:14px solid red;"">","null","","","","","","","","","",""
"","image-keyboard-response","5","32615","0.0-6.0","","","","","209.39999999990687","img/food1.png","75","210.10000000009313","2","0","false","3","2","1,0.7,0,1,0.7,0,0.7,0,1","0,1,0.7,0,1,0.7,1,0.7,0","3",""
"","html-keyboard-response","6","32916","0.0-7.0","","","","","null","<img src=""img/food1.png"" style=""width:200px;border:14px solid red;"">","null","","","","","","","","","",""
"","image-keyboard-response","7","33030","0.0-9.0","","","","","112.5","img/food3.png","76","113.1999999997206","3","1","false","1","2","1,0.7,0,1,0.7,0,0.7,0,1","0,1,0.7,0,1,0.7,1,0.7,0","3",""
"","html-keyboard-response","8","33332","0.0-10.0","","","","","null","<img src=""img/food3.png"" style=""width:200px; border:14px solid green;"">","null","","","","","","","","","",""
"","image-keyboard-response","9","33551","0.0-12.0","","","","","218.10000000009313","img/food1.png","76","218.89999999990687","3","0","false","3","2","1,0.7,0,1,0.7,0,0.7,0,1","0,1,0.7,0,1,0.7,1,0.7,0","3",""
"","html-keyboard-response","10","33853","0.0-13.0","","","","","null","<img src=""img/food1.png"" style=""width:200px;border:14px solid red;"">","null","","","","","","","","","",""
"","image-keyboard-response","11","34056","0.0-15.0","","","","","202.09999999962747","img/food6.png","75","203","2","1","false","2","2","1,0.7,0,1,0.7,0,0.7,0,1","0,1,0.7,0,1,0.7,1,0.7,0","3",""
"","html-keyboard-response","12","34358","0.0-16.0","","","","","null","<img src=""img/food6.png"" style=""width:200px; border:14px solid green;"">","null","","","","","","","","","",""
"","image-keyboard-response","13","34622","0.0-18.0","","","","","263.20000000018626","img/food3.png","75","263.6999999997206","2","1","false","1","2","1,0.7,0,1,0.7,0,0.7,0,1","0,1,0.7,0,1,0.7,1,0.7,0","3",""
"","html-keyboard-response","14","34923","0.0-19.0","","","","","null","<img src=""img/food3.png"" style=""width:200px; border:14px solid green;"">","null","","","","","","","","","",""
"","image-keyboard-response","15","35119","0.0-21.0","","","","","195.10000000009313","img/food3.png","75","195.79999999981374","2","1","false","1","2","1,0.7,0,1,0.7,0,0.7,0,1","0,1,0.7,0,1,0.7,1,0.7,0","3",""
"","html-keyboard-response","16","35420","0.0-22.0","","","","","null","<img src=""img/food3.png"" style=""width:200px; border:14px solid green;"">","null","","","","","","","","","",""
"","image-keyboard-response","17","35598","0.0-24.0","","","","","177.3000000002794","img/food6.png","75","177.70000000018626","2","1","false","2","2","1,0.7,0,1,0.7,0,0.7,0,1","0,1,0.7,0,1,0.7,1,0.7,0","3",""
"","html-keyboard-response","18","35900","0.0-25.0","","","","","null","<img src=""img/food6.png"" style=""width:200px; border:14px solid green;"">","null","","","","","","","","","",""
"","image-keyboard-response","19","36024","0.0-27.0","","","","","122.70000000018626","img/food3.png","75","123.39999999990687","2","1","false","1","2","1,0.7,0,1,0.7,0,0.7,0,1","0,1,0.7,0,1,0.7,1,0.7,0","3",""
"","html-keyboard-response","20","36326","0.0-28.0","","","","","null","<img src=""img/food3.png"" style=""width:200px; border:14px solid green;"">","null","","","","","","","","","",""
"","image-keyboard-response","21","36447","0.0-30.0","","","","","120.10000000009313","img/food1.png","75","120.8000000002794","2","1","false","3","2","1,0.7,0,1,0.7,0,0.7,0,1","0,1,0.7,0,1,0.7,1,0.7,0","3",""
"","html-keyboard-response","22","36748","0.0-31.0","","","","","null","<img src=""img/food1.png"" style=""width:200px; border:14px solid green;"">","null","","","","","","","","","",""
"","image-keyboard-response","23","36855","0.0-33.0","","","","","106.29999999981374","img/food1.png","75","106.89999999990687","2","1","false","3","2","1,0.7,0,1,0.7,0,0.7,0,1","0,1,0.7,0,1,0.7,1,0.7,0","3",""
"","html-keyboard-response","24","37158","0.0-34.0","","","","","null","<img src=""img/food1.png"" style=""width:200px; border:14px solid green;"">","null","","","","","","","","","",""
"","image-keyboard-response","25","37286","0.0-36.0","","","","","127.59999999962747","img/food6.png","75","128.20000000018626","2","1","false","2","2","1,0.7,0,1,0.7,0,0.7,0,1","0,1,0.7,0,1,0.7,1,0.7,0","3",""
"","html-keyboard-response","26","37587","0.0-37.0","","","","","null","<img src=""img/food6.png"" style=""width:200px; border:14px solid green;"">","null","","","","","","","","","",""
"","image-keyboard-response","27","37679","0.0-39.0","","","","","90.39999999990687","img/food6.png","75","91","2","1","false","2","2","1,0.7,0,1,0.7,0,0.7,0,1","0,1,0.7,0,1,0.7,1,0.7,0","3",""
"","html-keyboard-response","28","37980","0.0-40.0","","","","","null","<img src=""img/food6.png"" style=""width:200px; border:14px solid green;"">","null","","","","","","","","","",""
"","image-keyboard-response","29","38270","0.0-42.0","","","","","289.60000000009313","img/food3.png","75","290.29999999981374","2","1","false","1","2","1,0.7,0,1,0.7,0,0.7,0,1","0,1,0.7,0,1,0.7,1,0.7,0","3",""
"","html-keyboard-response","30","38572","0.0-43.0","","","","","null","<img src=""img/food3.png"" style=""width:200px; border:14px solid green;"">","null","","","","","","","","","",""
"","image-keyboard-response","31","38598","0.0-45.0","","","","","25.700000000186265","img/food1.png","75","26.200000000186265","2","1","false","3","2","1,0.7,0,1,0.7,0,0.7,0,1","0,1,0.7,0,1,0.7,1,0.7,0","3",""
"","html-keyboard-response","32","38900","0.0-46.0","","","","","null","<img src=""img/food1.png"" style=""width:200px; border:14px solid green;"">","null","","","","","","","","","",""
"","image-keyboard-response","33","38974","0.0-48.0","","","","","73.29999999981374","img/food1.png","75","73.89999999990687","2","0","false","3","2","1,0.7,0,1,0.7,0,0.7,0,1","0,1,0.7,0,1,0.7,1,0.7,0","3",""
"","html-keyboard-response","34","39276","0.0-49.0","","","","","null","<img src=""img/food1.png"" style=""width:200px;border:14px solid red;"">","null","","","","","","","","","",""
"","image-keyboard-response","35","39335","0.0-51.0","","","","","57.5","img/food1.png","75","58.10000000009313","2","1","false","3","2","1,0.7,0,1,0.7,0,0.7,0,1","0,1,0.7,0,1,0.7,1,0.7,0","3",""
"","html-keyboard-response","36","39636","0.0-52.0","","","","","null","<img src=""img/food1.png"" style=""width:200px; border:14px solid green;"">","null","","","","","","","","","",""
"","image-keyboard-response","37","39694","0.0-54.0","","","","","56.89999999990687","img/food1.png","75","57.39999999990687","2","1","false","3","2","1,0.7,0,1,0.7,0,0.7,0,1","0,1,0.7,0,1,0.7,1,0.7,0","3",""
"","html-keyboard-response","38","39996","0.0-55.0","","","","","null","<img src=""img/food1.png"" style=""width:200px; border:14px solid green;"">","null","","","","","","","","","",""
"","image-keyboard-response","39","40311","0.0-57.0","","","","","314.29999999981374","img/food3.png","75","314.90000000037253","2","1","false","1","2","1,0.7,0,1,0.7,0,0.7,0,1","0,1,0.7,0,1,0.7,1,0.7,0","3",""
"","html-keyboard-response","40","40612","0.0-58.0","","","","","null","<img src=""img/food3.png"" style=""width:200px; border:14px solid green;"">","null","","","","","","","","","",""
"","image-keyboard-response","41","40679","0.0-60.0","","","","","65.60000000009313","img/food1.png","75","66.3000000002794","2","0","false","3","2","1,0.7,0,1,0.7,0,0.7,0,1","0,1,0.7,0,1,0.7,1,0.7,0","3",""
"","html-keyboard-response","42","40980","0.0-61.0","","","","","null","<img src=""img/food1.png"" style=""width:200px;border:14px solid red;"">","null","","","","","","","","","",""
"","image-keyboard-response","43","41071","0.0-63.0","","","","","90.10000000009313","img/food1.png","75","90.6999999997206","2","1","false","3","2","1,0.7,0,1,0.7,0,0.7,0,1","0,1,0.7,0,1,0.7,1,0.7,0","3",""
"","html-keyboard-response","44","41373","0.0-64.0","","","","","null","<img src=""img/food1.png"" style=""width:200px; border:14px solid green;"">","null","","","","","","","","","",""
"","image-keyboard-response","45","41486","0.0-66.0","","","","","113","img/food3.png","75","113.60000000009313","2","1","false","1","2","1,0.7,0,1,0.7,0,0.7,0,1","0,1,0.7,0,1,0.7,1,0.7,0","3",""
"","html-keyboard-response","46","41788","0.0-67.0","","","","","null","<img src=""img/food3.png"" style=""width:200px; border:14px solid green;"">","null","","","","","","","","","",""
"","image-keyboard-response","47","41879","0.0-69.0","","","","","89.5","img/food3.png","75","90.10000000009313","2","1","false","1","2","1,0.7,0,1,0.7,0,0.7,0,1","0,1,0.7,0,1,0.7,1,0.7,0","3",""
"","html-keyboard-response","48","42181","0.0-70.0","","","","","null","<img src=""img/food3.png"" style=""width:200px; border:14px solid green;"">","null","","","","","","","","","",""
"","image-keyboard-response","49","42256","0.0-72.0","","","","","73.60000000009313","img/food1.png","75","74.10000000009313","2","1","false","3","2","1,0.7,0,1,0.7,0,0.7,0,1","0,1,0.7,0,1,0.7,1,0.7,0","3",""
"","html-keyboard-response","50","42557","0.0-73.0","","","","","null","<img src=""img/food1.png"" style=""width:200px; border:14px solid green;"">","null","","","","","","","","","",""
"","image-keyboard-response","51","42679","0.0-75.0","","","","","121","img/food3.png","75","121.70000000018626","2","1","false","1","2","1,0.7,0,1,0.7,0,0.7,0,1","0,1,0.7,0,1,0.7,1,0.7,0","3",""
"","html-keyboard-response","52","42982","0.0-76.0","","","","","null","<img src=""img/food3.png"" style=""width:200px; border:14px solid green;"">","null","","","","","","","","","",""
"","image-keyboard-response","53","43031","0.0-78.0","","","","","48.10000000009313","img/food6.png","75","48.799999999813735","2","1","false","2","2","1,0.7,0,1,0.7,0,0.7,0,1","0,1,0.7,0,1,0.7,1,0.7,0","3",""
"","html-keyboard-response","54","43332","0.0-79.0","","","","","null","<img src=""img/food6.png"" style=""width:200px; border:14px solid green;"">","null","","","","","","","","","",""
"","image-keyboard-response","55","43398","0.0-81.0","","","","","65.20000000018626","img/food6.png","75","65.89999999990687","2","1","false","2","2","1,0.7,0,1,0.7,0,0.7,0,1","0,1,0.7,0,1,0.7,1,0.7,0","3",""
"","html-keyboard-response","56","43700","0.0-82.0","","","","","null","<img src=""img/food6.png"" style=""width:200px; border:14px solid green;"">","null","","","","","","","","","",""
"","image-keyboard-response","57","43775","0.0-84.0","","","","","73.60000000009313","img/food6.png","75","74.5","2","1","false","2","2","1,0.7,0,1,0.7,0,0.7,0,1","0,1,0.7,0,1,0.7,1,0.7,0","3",""
"","html-keyboard-response","58","44091","0.0-85.0","","","","","null","<img src=""img/food6.png"" style=""width:200px; border:14px solid green;"">","null","","","","","","","","","",""
"","image-keyboard-response","59","44127","0.0-87.0","","","","","35","img/food6.png","75","35.89999999990687","2","1","false","2","2","1,0.7,0,1,0.7,0,0.7,0,1","0,1,0.7,0,1,0.7,1,0.7,0","3",""
"","html-keyboard-response","60","44429","0.0-88.0","","","","","null","<img src=""img/food6.png"" style=""width:200px; border:14px solid green;"">","null","","","","","","","","","",""
"","image-keyboard-response","61","44455","0.0-90.0","","","","","25.300000000279397","img/food6.png","75","25.800000000279397","2","1","false","2","2","1,0.7,0,1,0.7,0,0.7,0,1","0,1,0.7,0,1,0.7,1,0.7,0","3",""
"","html-keyboard-response","62","44760","0.0-91.0","","","","","null","<img src=""img/food6.png"" style=""width:200px; border:14px solid green;"">","null","","","","","","","","","",""
"","image-keyboard-response","63","44831","0.0-93.0","","","","","70.70000000018626","img/food1.png","75","71.39999999990687","2","1","false","3","2","1,0.7,0,1,0.7,0,0.7,0,1","0,1,0.7,0,1,0.7,1,0.7,0","3",""
"","html-keyboard-response","64","45133","0.0-94.0","","","","","null","<img src=""img/food1.png"" style=""width:200px; border:14px solid green;"">","null","","","","","","","","","",""
"","image-keyboard-response","65","45158","0.0-96.0","","","","","24.200000000186265","img/food6.png","75","25.100000000093132","2","1","false","2","2","1,0.7,0,1,0.7,0,0.7,0,1","0,1,0.7,0,1,0.7,1,0.7,0","3",""
"","html-keyboard-response","66","45460","0.0-97.0","","","","","null","<img src=""img/food6.png"" style=""width:200px; border:14px solid green;"">","null","","","","","","","","","",""
"","image-keyboard-response","67","45462","0.0-99.0","","","","","1.5","img/food6.png","75","1.8000000002793968","2","1","false","2","2","1,0.7,0,1,0.7,0,0.7,0,1","0,1,0.7,0,1,0.7,1,0.7,0","3",""
"","html-keyboard-response","68","45764","0.0-100.0","","","","","null","<img src=""img/food6.png"" style=""width:200px; border:14px solid green;"">","null","","","","","","","","","",""
"","image-keyboard-response","69","45775","0.0-102.0","","","","","10.300000000279397","img/food1.png","75","10.900000000372529","2","0","false","3","2","1,0.7,0,1,0.7,0,0.7,0,1","0,1,0.7,0,1,0.7,1,0.7,0","3",""
"","html-keyboard-response","70","46077","0.0-103.0","","","","","null","<img src=""img/food1.png"" style=""width:200px;border:14px solid red;"">","null","","","","","","","","","",""
"","image-keyboard-response","71","46079","0.0-105.0","","","","","1.2000000001862645","img/food6.png","75","1.900000000372529","2","1","false","2","2","1,0.7,0,1,0.7,0,0.7,0,1","0,1,0.7,0,1,0.7,1,0.7,0","3",""
"","html-keyboard-response","72","46380","0.0-106.0","","","","","null","<img src=""img/food6.png"" style=""width:200px; border:14px solid green;"">","null","","","","","","","","","",""
"","image-keyboard-response","73","46383","0.0-108.0","","","","","2.2000000001862645","img/food3.png","75","2.6000000000931323","2","1","false","1","2","1,0.7,0,1,0.7,0,0.7,0,1","0,1,0.7,0,1,0.7,1,0.7,0","3",""
"","html-keyboard-response","74","46684","0.0-109.0","","","","","null","<img src=""img/food3.png"" style=""width:200px; border:14px solid green;"">","null","","","","","","","","","",""
"","image-keyboard-response","75","46919","0.0-111.0","","","","","233.70000000018626","img/food1.png","75","234.39999999990687","2","1","false","3","2","1,0.7,0,1,0.7,0,0.7,0,1","0,1,0.7,0,1,0.7,1,0.7,0","3",""
"","html-keyboard-response","76","47220","0.0-112.0","","","","","null","<img src=""img/food1.png"" style=""width:200px; border:14px solid green;"">","null","","","","","","","","","",""
"","image-keyboard-response","77","47463","0.0-114.0","","","","","241.89999999990687","img/food6.png","75","242.60000000009313","2","1","false","2","2","1,0.7,0,1,0.7,0,0.7,0,1","0,1,0.7,0,1,0.7,1,0.7,0","3",""
"","html-keyboard-response","78","47764","0.0-115.0","","","","","null","<img src=""img/food6.png"" style=""width:200px; border:14px solid green;"">","null","","","","","","","","","",""
"","image-keyboard-response","79","47774","0.0-117.0","","","","","10.199999999720603","img/food6.png","75","10.5","2","1","false","2","2","1,0.7,0,1,0.7,0,0.7,0,1","0,1,0.7,0,1,0.7,1,0.7,0","3",""
"","html-keyboard-response","80","48076","0.0-118.0","","","","","null","<img src=""img/food6.png"" style=""width:200px; border:14px solid green;"">","null","","","","","","","","","",""
"","image-keyboard-response","81","48350","0.0-120.0","","","","","273.29999999981374","img/food3.png","75","273.89999999990687","2","1","false","1","2","1,0.7,0,1,0.7,0,0.7,0,1","0,1,0.7,0,1,0.7,1,0.7,0","3",""
"","html-keyboard-response","82","48652","0.0-121.0","","","","","null","<img src=""img/food3.png"" style=""width:200px; border:14px solid green;"">","null","","","","","","","","","",""
"","image-keyboard-response","83","48911","0.0-123.0","","","","","258.20000000018626","img/food6.png","75","258.6999999997206","2","1","false","2","2","1,0.7,0,1,0.7,0,0.7,0,1","0,1,0.7,0,1,0.7,1,0.7,0","3",""
"","html-keyboard-response","84","49213","0.0-124.0","","","","","null","<img src=""img/food6.png"" style=""width:200px; border:14px solid green;"">","null","","","","","","","","","",""
"","image-keyboard-response","85","49223","0.0-126.0","","","","","9.300000000279397","img/food1.png","75","9.700000000186265","2","1","false","3","2","1,0.7,0,1,0.7,0,0.7,0,1","0,1,0.7,0,1,0.7,1,0.7,0","3",""
"","html-keyboard-response","86","49524","0.0-127.0","","","","","null","<img src=""img/food1.png"" style=""width:200px; border:14px solid green;"">","null","","","","","","","","","",""
"","image-keyboard-response","87","49543","0.0-129.0","","","","","18.100000000093132","img/food6.png","75","18.800000000279397","2","1","false","2","2","1,0.7,0,1,0.7,0,0.7,0,1","0,1,0.7,0,1,0.7,1,0.7,0","3",""
"","html-keyboard-response","88","49845","0.0-130.0","","","","","null","<img src=""img/food6.png"" style=""width:200px; border:14px solid green;"">","null","","","","","","","","","",""
"","image-keyboard-response","89","49855","0.0-132.0","","","","","9","img/food6.png","75","9.5","2","1","false","2","2","1,0.7,0,1,0.7,0,0.7,0,1","0,1,0.7,0,1,0.7,1,0.7,0","3",""
"","html-keyboard-response","90","50156","0.0-133.0","","","","","null","<img src=""img/food6.png"" style=""width:200px; border:14px solid green;"">","null","","","","","","","","","",""
"","image-keyboard-response","91","50167","0.0-135.0","","","","","9.700000000186265","img/food3.png","75","11","2","1","false","1","2","1,0.7,0,1,0.7,0,0.7,0,1","0,1,0.7,0,1,0.7,1,0.7,0","3",""
"","html-keyboard-response","92","50470","0.0-136.0","","","","","null","<img src=""img/food3.png"" style=""width:200px; border:14px solid green;"">","null","","","","","","","","","",""
"","image-keyboard-response","93","50471","0.0-138.0","","","","","0.10000000009313226","img/food3.png","75","0.8999999999068677","2","1","false","1","2","1,0.7,0,1,0.7,0,0.7,0,1","0,1,0.7,0,1,0.7,1,0.7,0","3",""
"","html-keyboard-response","94","50772","0.0-139.0","","","","","null","<img src=""img/food3.png"" style=""width:200px; border:14px solid green;"">","null","","","","","","","","","",""
"","image-keyboard-response","95","51030","0.0-141.0","","","","","257.5","img/food6.png","75","258.1999999997206","2","1","false","2","2","1,0.7,0,1,0.7,0,0.7,0,1","0,1,0.7,0,1,0.7,1,0.7,0","3",""
"","html-keyboard-response","96","51332","0.0-142.0","","","","","null","<img src=""img/food6.png"" style=""width:200px; border:14px solid green;"">","null","","","","","","","","","",""
"","image-keyboard-response","97","51334","0.0-144.0","","","","","1.6000000000931323","img/food1.png","75","2.099999999627471","2","0","false","3","2","1,0.7,0,1,0.7,0,0.7,0,1","0,1,0.7,0,1,0.7,1,0.7,0","3",""
"","html-keyboard-response","98","51636","0.0-145.0","","","","","null","<img src=""img/food1.png"" style=""width:200px;border:14px solid red;"">","null","","","","","","","","","",""
"","image-keyboard-response","99","51878","0.0-147.0","","","","","241.60000000009313","img/food3.png","75","242.3000000002794","2","1","false","1","2","1,0.7,0,1,0.7,0,0.7,0,1","0,1,0.7,0,1,0.7,1,0.7,0","3",""
"","html-keyboard-response","100","52180","0.0-148.0","","","","","null","<img src=""img/food3.png"" style=""width:200px; border:14px solid green;"">","null","","","","","","","","","",""
"","image-keyboard-response","101","52383","0.0-150.0","","","","","202.10000000009313","img/food1.png","75","202.70000000018626","2","1","false","3","2","1,0.7,0,1,0.7,0,0.7,0,1","0,1,0.7,0,1,0.7,1,0.7,0","3",""
"","html-keyboard-response","102","52684","0.0-151.0","","","","","null","<img src=""img/food1.png"" style=""width:200px; border:14px solid green;"">","null","","","","","","","","","",""
"","image-keyboard-response","103","52951","0.0-153.0","","","","","266.79999999981374","img/food3.png","75","267.39999999990687","2","1","false","1","2","1,0.7,0,1,0.7,0,0.7,0,1","0,1,0.7,0,1,0.7,1,0.7,0","3",""
"","html-keyboard-response","104","53253","0.0-154.0","","","","","null","<img src=""img/food3.png"" style=""width:200px; border:14px solid green;"">","null","","","","","","","","","",""
"","image-keyboard-response","105","53263","0.0-156.0","","","","","8.899999999906868","img/food6.png","75","9.5","2","1","false","2","2","1,0.7,0,1,0.7,0,0.7,0,1","0,1,0.7,0,1,0.7,1,0.7,0","3",""
"","html-keyboard-response","106","53565","0.0-157.0","","","","","null","<img src=""img/food6.png"" style=""width:200px; border:14px solid green;"">","null","","","","","","","","","",""
"","image-keyboard-response","107","53647","0.0-159.0","","","","","81.60000000009313","img/food3.png","75","82.3000000002794","2","1","false","1","2","1,0.7,0,1,0.7,0,0.7,0,1","0,1,0.7,0,1,0.7,1,0.7,0","3",""
"","html-keyboard-response","108","53950","0.0-160.0","","","","","null","<img src=""img/food3.png"" style=""width:200px; border:14px solid green;"">","null","","","","","","","","","",""
"","image-keyboard-response","109","53959","0.0-162.0","","","","","8.600000000093132","img/food1.png","75","9.199999999720603","2","0","false","3","2","1,0.7,0,1,0.7,0,0.7,0,1","0,1,0.7,0,1,0.7,1,0.7,0","3",""
"","html-keyboard-response","110","54261","0.0-163.0","","","","","null","<img src=""img/food1.png"" style=""width:200px;border:14px solid red;"">","null","","","","","","","","","",""
"","image-keyboard-response","111","54535","0.0-165.0","","","","","273.20000000018626","img/food3.png","75","273.60000000009313","2","1","false","1","2","1,0.7,0,1,0.7,0,0.7,0,1","0,1,0.7,0,1,0.7,1,0.7,0","3",""
"","html-keyboard-response","112","54837","0.0-166.0","","","","","null","<img src=""img/food3.png"" style=""width:200px; border:14px solid green;"">","null","","","","","","","","","",""
"","image-keyboard-response","113","55135","0.0-168.0","","","","","297.5","img/food3.png","75","298.10000000009313","2","1","false","1","2","1,0.7,0,1,0.7,0,0.7,0,1","0,1,0.7,0,1,0.7,1,0.7,0","3",""
"","html-keyboard-response","114","55437","0.0-169.0","","","","","null","<img src=""img/food3.png"" style=""width:200px; border:14px solid green;"">","null","","","","","","","","","",""
"","image-keyboard-response","115","55462","0.0-171.0","","","","","24.399999999906868","img/food3.png","75","25.09999999962747","2","1","false","1","2","1,0.7,0,1,0.7,0,0.7,0,1","0,1,0.7,0,1,0.7,1,0.7,0","3",""
"","html-keyboard-response","116","55764","0.0-172.0","","","","","null","<img src=""img/food3.png"" style=""width:200px; border:14px solid green;"">","null","","","","","","","","","",""
"","image-keyboard-response","117","55823","0.0-174.0","","","","","57.5","img/food3.png","75","58.200000000186265","2","1","false","1","2","1,0.7,0,1,0.7,0,0.7,0,1","0,1,0.7,0,1,0.7,1,0.7,0","3",""
"","html-keyboard-response","118","56124","0.0-175.0","","","","","null","<img src=""img/food3.png"" style=""width:200px; border:14px solid green;"">","null","","","","","","","","","",""
"","image-keyboard-response","119","56150","0.0-177.0","","","","","25.899999999906868","img/food1.png","75","26.299999999813735","2","1","false","3","2","1,0.7,0,1,0.7,0,0.7,0,1","0,1,0.7,0,1,0.7,1,0.7,0","3",""
"","html-keyboard-response","120","56453","0.0-178.0","","","","","null","<img src=""img/food1.png"" style=""width:200px; border:14px solid green;"">","null","","","","","","","","","",""
"","image-keyboard-response","121","56503","0.0-180.0","","","","","49.5","img/food6.png","75","50.3000000002794","2","1","false","2","2","1,0.7,0,1,0.7,0,0.7,0,1","0,1,0.7,0,1,0.7,1,0.7,0","3",""
"","html-keyboard-response","122","56805","0.0-181.0","","","","","null","<img src=""img/food6.png"" style=""width:200px; border:14px solid green;"">","null","","","","","","","","","",""
"","image-keyboard-response","123","56887","0.0-183.0","","","","","81.10000000009313","img/food6.png","75","81.8000000002794","2","1","false","2","2","1,0.7,0,1,0.7,0,0.7,0,1","0,1,0.7,0,1,0.7,1,0.7,0","3",""
"","html-keyboard-response","124","57189","0.0-184.0","","","","","null","<img src=""img/food6.png"" style=""width:200px; border:14px solid green;"">","null","","","","","","","","","",""
"","image-keyboard-response","125","57198","0.0-186.0","","","","","8.700000000186265","img/food6.png","75","9.199999999720603","2","1","false","2","2","1,0.7,0,1,0.7,0,0.7,0,1","0,1,0.7,0,1,0.7,1,0.7,0","3",""
"","html-keyboard-response","126","57500","0.0-187.0","","","","","null","<img src=""img/food6.png"" style=""width:200px; border:14px solid green;"">","null","","","","","","","","","",""
"","image-keyboard-response","127","57559","0.0-189.0","","","","","57.8000000002794","img/food1.png","75","58.39999999990687","2","1","false","3","2","1,0.7,0,1,0.7,0,0.7,0,1","0,1,0.7,0,1,0.7,1,0.7,0","3",""
"","html-keyboard-response","128","57861","0.0-190.0","","","","","null","<img src=""img/food1.png"" style=""width:200px; border:14px solid green;"">","null","","","","","","","","","",""
"","image-keyboard-response","129","57894","0.0-192.0","","","","","32.5","img/food6.png","75","33","2","1","false","2","2","1,0.7,0,1,0.7,0,0.7,0,1","0,1,0.7,0,1,0.7,1,0.7,0","3",""
"","html-keyboard-response","130","58196","0.0-193.0","","","","","null","<img src=""img/food6.png"" style=""width:200px; border:14px solid green;"">","null","","","","","","","","","",""
"","image-keyboard-response","131","58246","0.0-195.0","","","","","49.299999999813735","img/food3.png","75","50","2","1","false","1","2","1,0.7,0,1,0.7,0,0.7,0,1","0,1,0.7,0,1,0.7,1,0.7,0","3",""
"","html-keyboard-response","132","58547","0.0-196.0","","","","","null","<img src=""img/food3.png"" style=""width:200px; border:14px solid green;"">","null","","","","","","","","","",""
"","image-keyboard-response","133","58566","0.0-198.0","","","","","17.799999999813735","img/food6.png","75","18.5","2","1","false","2","2","1,0.7,0,1,0.7,0,0.7,0,1","0,1,0.7,0,1,0.7,1,0.7,0","3",""
"","html-keyboard-response","134","58868","0.0-199.0","","","","","null","<img src=""img/food6.png"" style=""width:200px; border:14px solid green;"">","null","","","","","","","","","",""
"","image-keyboard-response","135","58919","0.0-201.0","","","","","49.89999999990687","img/food1.png","75","50.5","2","1","false","3","2","1,0.7,0,1,0.7,0,0.7,0,1","0,1,0.7,0,1,0.7,1,0.7,0","3",""
"","html-keyboard-response","136","59221","0.0-202.0","","","","","null","<img src=""img/food1.png"" style=""width:200px; border:14px solid green;"">","null","","","","","","","","","",""
"","image-keyboard-response","137","59238","0.0-204.0","","","","","16.399999999906868","img/food6.png","75","17","2","1","false","2","2","1,0.7,0,1,0.7,0,0.7,0,1","0,1,0.7,0,1,0.7,1,0.7,0","3",""
"","html-keyboard-response","138","59539","0.0-205.0","","","","","null","<img src=""img/food6.png"" style=""width:200px; border:14px solid green;"">","null","","","","","","","","","",""
"","image-keyboard-response","139","59855","0.0-207.0","","","","","314.5","img/food1.png","75","315.39999999990687","2","1","false","3","2","1,0.7,0,1,0.7,0,0.7,0,1","0,1,0.7,0,1,0.7,1,0.7,0","3",""
"","html-keyboard-response","140","60157","0.0-208.0","","","","","null","<img src=""img/food1.png"" style=""width:200px; border:14px solid green;"">","null","","","","","","","","","",""
"","image-keyboard-response","141","60183","0.0-210.0","","","","","25.100000000093132","img/food1.png","75","25.699999999720603","2","0","false","3","2","1,0.7,0,1,0.7,0,0.7,0,1","0,1,0.7,0,1,0.7,1,0.7,0","3",""
"","html-keyboard-response","142","60485","0.0-211.0","","","","","null","<img src=""img/food1.png"" style=""width:200px;border:14px solid red;"">","null","","","","","","","","","",""
"","image-keyboard-response","143","60487","0.0-213.0","","","","","0.7999999998137355","img/food3.png","75","1.2999999998137355","2","1","false","1","2","1,0.7,0,1,0.7,0,0.7,0,1","0,1,0.7,0,1,0.7,1,0.7,0","3",""
"","html-keyboard-response","144","60788","0.0-214.0","","","","","null","<img src=""img/food3.png"" style=""width:200px; border:14px solid green;"">","null","","","","","","","","","",""
"","image-keyboard-response","145","61111","0.0-216.0","","","","","322","img/food1.png","75","322.60000000009313","2","1","false","3","2","1,0.7,0,1,0.7,0,0.7,0,1","0,1,0.7,0,1,0.7,1,0.7,0","3",""
"","html-keyboard-response","146","61412","0.0-217.0","","","","","null","<img src=""img/food1.png"" style=""width:200px; border:14px solid green;"">","null","","","","","","","","","",""
"","image-keyboard-response","147","61439","0.0-219.0","","","","","25.59999999962747","img/food6.png","75","26.300000000279397","2","1","false","2","2","1,0.7,0,1,0.7,0,0.7,0,1","0,1,0.7,0,1,0.7,1,0.7,0","3",""
"","html-keyboard-response","148","61741","0.0-220.0","","","","","null","<img src=""img/food6.png"" style=""width:200px; border:14px solid green;"">","null","","","","","","","","","",""
"","image-keyboard-response","149","61742","0.0-222.0","","","","","0.20000000018626451","img/food3.png","75","0.8999999999068677","2","1","false","1","2","1,0.7,0,1,0.7,0,0.7,0,1","0,1,0.7,0,1,0.7,1,0.7,0","3",""
"","html-keyboard-response","150","62043","0.0-223.0","","","","","null","<img src=""img/food3.png"" style=""width:200px; border:14px solid green;"">","null","","","","","","","","","",""
"","image-keyboard-response","151","62070","0.0-225.0","","","","","26.800000000279397","img/food1.png","75","27.399999999906868","2","0","false","3","2","1,0.7,0,1,0.7,0,0.7,0,1","0,1,0.7,0,1,0.7,1,0.7,0","3",""
"","html-keyboard-response","152","62372","0.0-226.0","","","","","null","<img src=""img/food1.png"" style=""width:200px;border:14px solid red;"">","null","","","","","","","","","",""
"","image-keyboard-response","153","62374","0.0-228.0","","","","","1.1000000000931323","img/food1.png","75","2","2","1","false","3","2","1,0.7,0,1,0.7,0,0.7,0,1","0,1,0.7,0,1,0.7,1,0.7,0","3",""
"","html-keyboard-response","154","62676","0.0-229.0","","","","","null","<img src=""img/food1.png"" style=""width:200px; border:14px solid green;"">","null","","","","","","","","","",""
"","image-keyboard-response","155","62679","0.0-231.0","","","","","1.3000000002793968","img/food3.png","75","2.2999999998137355","2","1","false","1","2","1,0.7,0,1,0.7,0,0.7,0,1","0,1,0.7,0,1,0.7,1,0.7,0","3",""
"","html-keyboard-response","156","62981","0.0-232.0","","","","","null","<img src=""img/food3.png"" style=""width:200px; border:14px solid green;"">","null","","","","","","","","","",""
"","image-keyboard-response","157","63263","0.0-234.0","","","","","281","img/food1.png","75","281.60000000009313","2","1","false","3","2","1,0.7,0,1,0.7,0,0.7,0,1","0,1,0.7,0,1,0.7,1,0.7,0","3",""
"","html-keyboard-response","158","63563","0.0-235.0","","","","","null","<img src=""img/food1.png"" style=""width:200px; border:14px solid green;"">","null","","","","","","","","","",""
"","image-keyboard-response","159","63599","0.0-237.0","","","","","34.89999999990687","img/food3.png","75","35.5","2","1","false","1","2","1,0.7,0,1,0.7,0,0.7,0,1","0,1,0.7,0,1,0.7,1,0.7,0","3",""
"","html-keyboard-response","160","63902","0.0-238.0","","","","","null","<img src=""img/food3.png"" style=""width:200px; border:14px solid green;"">","null","","","","","","","","","",""
"","image-keyboard-response","161","63911","0.0-240.0","","","","","8.099999999627471","img/food1.png","75","8.700000000186265","2","1","false","3","2","1,0.7,0,1,0.7,0,0.7,0,1","0,1,0.7,0,1,0.7,1,0.7,0","3",""
"","html-keyboard-response","162","64212","0.0-241.0","","","","","null","<img src=""img/food1.png"" style=""width:200px; border:14px solid green;"">","null","","","","","","","","","",""
"","image-keyboard-response","163","64214","0.0-243.0","","","","","1.099999999627471","img/food3.png","75","1.6000000000931323","2","1","false","1","2","1,0.7,0,1,0.7,0,0.7,0,1","0,1,0.7,0,1,0.7,1,0.7,0","3",""
"","html-keyboard-response","164","64515","0.0-244.0","","","","","null","<img src=""img/food3.png"" style=""width:200px; border:14px solid green;"">","null","","","","","","","","","",""
"","image-keyboard-response","165","64831","0.0-246.0","","","","","315.39999999990687","img/food3.png","75","316","2","1","false","1","2","1,0.7,0,1,0.7,0,0.7,0,1","0,1,0.7,0,1,0.7,1,0.7,0","3",""
"","html-keyboard-response","166","65133","0.0-247.0","","","","","null","<img src=""img/food3.png"" style=""width:200px; border:14px solid green;"">","null","","","","","","","","","",""
"","image-keyboard-response","167","65150","0.0-249.0","","","","","15.900000000372529","img/food3.png","75","16.700000000186265","2","1","false","1","2","1,0.7,0,1,0.7,0,0.7,0,1","0,1,0.7,0,1,0.7,1,0.7,0","3",""
"","html-keyboard-response","168","65453","0.0-250.0","","","","","null","<img src=""img/food3.png"" style=""width:200px; border:14px solid green;"">","null","","","","","","","","","",""
"","image-keyboard-response","169","65470","0.0-252.0","","","","","16.600000000093132","img/food6.png","75","17.300000000279397","2","1","false","2","2","1,0.7,0,1,0.7,0,0.7,0,1","0,1,0.7,0,1,0.7,1,0.7,0","3",""
"","html-keyboard-response","170","65772","0.0-253.0","","","","","null","<img src=""img/food6.png"" style=""width:200px; border:14px solid green;"">","null","","","","","","","","","",""
"","image-keyboard-response","171","65775","0.0-255.0","","","","","2.1000000000931323","img/food6.png","75","2.8000000002793968","2","1","false","2","2","1,0.7,0,1,0.7,0,0.7,0,1","0,1,0.7,0,1,0.7,1,0.7,0","3",""
"","html-keyboard-response","172","66076","0.0-256.0","","","","","null","<img src=""img/food6.png"" style=""width:200px; border:14px solid green;"">","null","","","","","","","","","",""
"","image-keyboard-response","173","66326","0.0-258.0","","","","","249.39999999990687","img/food1.png","75","249.79999999981374","2","0","false","3","2","1,0.7,0,1,0.7,0,0.7,0,1","0,1,0.7,0,1,0.7,1,0.7,0","3",""
"","html-keyboard-response","174","66639","0.0-259.0","","","","","null","<img src=""img/food1.png"" style=""width:200px;border:14px solid red;"">","null","","","","","","","","","",""
"","image-keyboard-response","175","66911","0.0-261.0","","","","","272","img/food3.png","75","272.5","2","1","false","1","2","1,0.7,0,1,0.7,0,0.7,0,1","0,1,0.7,0,1,0.7,1,0.7,0","3",""
"","html-keyboard-response","176","67213","0.0-262.0","","","","","null","<img src=""img/food3.png"" style=""width:200px; border:14px solid green;"">","null","","","","","","","","","",""
"","image-keyboard-response","177","67214","0.0-264.0","","","","","0.20000000018626451","img/food6.png","75","0.6000000000931323","2","1","false","2","2","1,0.7,0,1,0.7,0,0.7,0,1","0,1,0.7,0,1,0.7,1,0.7,0","3",""
"","html-keyboard-response","178","67516","0.0-265.0","","","","","null","<img src=""img/food6.png"" style=""width:200px; border:14px solid green;"">","null","","","","","","","","","",""
"","image-keyboard-response","179","67542","0.0-267.0","","","","","25.799999999813735","img/food3.png","75","26.300000000279397","2","1","false","1","2","1,0.7,0,1,0.7,0,0.7,0,1","0,1,0.7,0,1,0.7,1,0.7,0","3",""
"","html-keyboard-response","180","67844","0.0-268.0","","","","","null","<img src=""img/food3.png"" style=""width:200px; border:14px solid green;"">","null","","","","","","","","","",""
"","image-keyboard-response","181","68110","0.0-270.0","","","","","265.8000000002794","img/food1.png","75","266.5","2","1","false","3","2","1,0.7,0,1,0.7,0,0.7,0,1","0,1,0.7,0,1,0.7,1,0.7,0","3",""
"","html-keyboard-response","182","68412","0.0-271.0","","","","","null","<img src=""img/food1.png"" style=""width:200px; border:14px solid green;"">","null","","","","","","","","","",""
"","instructions","183","74860","0.0-273.0","","","","[{""page_index"":0,""viewing_time"":5433.200000000186},{""page_index"":1,""viewing_time"":1014}]","6447.4000000003725","","","","","","","","","","","",""
"","image-keyboard-response","184","76135","0.0-274.0","","","","","1274.9000000003725","img/food2.png","75","1275.8000000002794","2","1","","2","1","1,0.7,0,1,0.7,0,0.7,0,1","0,1,0.7,0,1,0.7,1,0.7,0","3",""
"","html-keyboard-response","185","76437","0.0-275.0","","","","","null","<img src=""img/food2.png"" style=""width:200px; border:14px solid green;"">","null","","","","","","","","","",""
"","image-keyboard-response","186","76783","0.0-276.0","","","","","345","img/food4.png","75","345.60000000009313","2","1","","1","1","1,0.7,0,1,0.7,0,0.7,0,1","0,1,0.7,0,1,0.7,1,0.7,0","3",""
"","html-keyboard-response","187","77085","0.0-277.0","","","","","null","<img src=""img/food4.png"" style=""width:200px; border:14px solid green;"">","null","","","","","","","","","",""
"","image-keyboard-response","188","77199","0.0-278.0","","","","","113.20000000018626","img/food2.png","75","113.89999999990687","2","1","","2","1","1,0.7,0,1,0.7,0,0.7,0,1","0,1,0.7,0,1,0.7,1,0.7,0","3",""
"","html-keyboard-response","189","77501","0.0-279.0","","","","","null","<img src=""img/food2.png"" style=""width:200px; border:14px solid green;"">","null","","","","","","","","","",""
"","image-keyboard-response","190","77559","0.0-280.0","","","","","57","img/food2.png","75","57.700000000186265","2","1","","2","1","1,0.7,0,1,0.7,0,0.7,0,1","0,1,0.7,0,1,0.7,1,0.7,0","3",""
"","html-keyboard-response","191","77861","0.0-281.0","","","","","null","<img src=""img/food2.png"" style=""width:200px; border:14px solid green;"">","null","","","","","","","","","",""
"","image-keyboard-response","192","77910","0.0-282.0","","","","","48.799999999813735","img/food4.png","75","49.59999999962747","2","1","","1","1","1,0.7,0,1,0.7,0,0.7,0,1","0,1,0.7,0,1,0.7,1,0.7,0","3",""
"","html-keyboard-response","193","78212","0.0-283.0","","","","","null","<img src=""img/food4.png"" style=""width:200px; border:14px solid green;"">","null","","","","","","","","","",""
"","image-keyboard-response","194","78270","0.0-284.0","","","","","57.1999999997206","img/food4.png","75","57.8000000002794","2","1","","1","1","1,0.7,0,1,0.7,0,0.7,0,1","0,1,0.7,0,1,0.7,1,0.7,0","3",""
"","html-keyboard-response","195","78572","0.0-285.0","","","","","null","<img src=""img/food4.png"" style=""width:200px; border:14px solid green;"">","null","","","","","","","","","",""
"","image-keyboard-response","196","78614","0.0-286.0","","","","","41.799999999813735","img/food5.png","75","42.299999999813735","2","1","","3","1","1,0.7,0,1,0.7,0,0.7,0,1","0,1,0.7,0,1,0.7,1,0.7,0","3",""
"","html-keyboard-response","197","78915","0.0-287.0","","","","","null","<img src=""img/food5.png"" style=""width:200px; border:14px solid green;"">","null","","","","","","","","","",""
"","image-keyboard-response","198","79247","0.0-288.0","","","","","330.39999999990687","img/food5.png","75","331","2","0","","3","1","1,0.7,0,1,0.7,0,0.7,0,1","0,1,0.7,0,1,0.7,1,0.7,0","3",""
"","html-keyboard-response","199","79549","0.0-289.0","","","","","null","<img src=""img/food5.png"" style=""width:200px;border:14px solid red;"">","null","","","","","","","","","",""
"","image-keyboard-response","200","79654","0.0-290.0","","","","","105","img/food2.png","75","105.70000000018626","2","1","","2","1","1,0.7,0,1,0.7,0,0.7,0,1","0,1,0.7,0,1,0.7,1,0.7,0","3",""
"","html-keyboard-response","201","79956","0.0-291.0","","","","","null","<img src=""img/food2.png"" style=""width:200px; border:14px solid green;"">","null","","","","","","","","","",""
"","image-keyboard-response","202","80039","0.0-292.0","","","","","82.60000000009313","img/food4.png","75","83","2","1","","1","1","1,0.7,0,1,0.7,0,0.7,0,1","0,1,0.7,0,1,0.7,1,0.7,0","3",""
"","html-keyboard-response","203","80341","0.0-293.0","","","","","null","<img src=""img/food4.png"" style=""width:200px; border:14px solid green;"">","null","","","","","","","","","",""
"","image-keyboard-response","204","80406","0.0-294.0","","","","","64.70000000018626","img/food2.png","75","65.29999999981374","2","1","","2","1","1,0.7,0,1,0.7,0,0.7,0,1","0,1,0.7,0,1,0.7,1,0.7,0","3",""
"","html-keyboard-response","205","80709","0.0-295.0","","","","","null","<img src=""img/food2.png"" style=""width:200px; border:14px solid green;"">","null","","","","","","","","","",""
"","image-keyboard-response","206","80774","0.0-296.0","","","","","65","img/food4.png","75","65.6999999997206","2","1","","1","1","1,0.7,0,1,0.7,0,0.7,0,1","0,1,0.7,0,1,0.7,1,0.7,0","3",""
"","html-keyboard-response","207","81076","0.0-297.0","","","","","null","<img src=""img/food4.png"" style=""width:200px; border:14px solid green;"">","null","","","","","","","","","",""
"","image-keyboard-response","208","81103","0.0-298.0","","","","","26.299999999813735","img/food5.png","75","26.800000000279397","2","1","","3","1","1,0.7,0,1,0.7,0,0.7,0,1","0,1,0.7,0,1,0.7,1,0.7,0","3",""
"","html-keyboard-response","209","81404","0.0-299.0","","","","","null","<img src=""img/food5.png"" style=""width:200px; border:14px solid green;"">","null","","","","","","","","","",""
"","image-keyboard-response","210","81438","0.0-300.0","","","","","32.89999999990687","img/food5.png","75","33.60000000009313","2","1","","3","1","1,0.7,0,1,0.7,0,0.7,0,1","0,1,0.7,0,1,0.7,1,0.7,0","3",""
"","html-keyboard-response","211","81740","0.0-301.0","","","","","null","<img src=""img/food5.png"" style=""width:200px; border:14px solid green;"">","null","","","","","","","","","",""
"","image-keyboard-response","212","81767","0.0-302.0","","","","","26.199999999720603","img/food2.png","75","26.899999999906868","2","1","","2","1","1,0.7,0,1,0.7,0,0.7,0,1","0,1,0.7,0,1,0.7,1,0.7,0","3",""
"","html-keyboard-response","213","82068","0.0-303.0","","","","","null","<img src=""img/food2.png"" style=""width:200px; border:14px solid green;"">","null","","","","","","","","","",""
"","image-keyboard-response","214","82151","0.0-304.0","","","","","81.1999999997206","img/food2.png","75","82","2","1","","2","1","1,0.7,0,1,0.7,0,0.7,0,1","0,1,0.7,0,1,0.7,1,0.7,0","3",""
"","html-keyboard-response","215","82452","0.0-305.0","","","","","null","<img src=""img/food2.png"" style=""width:200px; border:14px solid green;"">","null","","","","","","","","","",""
"","image-keyboard-response","216","82494","0.0-306.0","","","","","42.200000000186265","img/food4.png","75","42.60000000009313","2","1","","1","1","1,0.7,0,1,0.7,0,0.7,0,1","0,1,0.7,0,1,0.7,1,0.7,0","3",""
"","html-keyboard-response","217","82796","0.0-307.0","","","","","null","<img src=""img/food4.png"" style=""width:200px; border:14px solid green;"">","null","","","","","","","","","",""
"","image-keyboard-response","218","82823","0.0-308.0","","","","","25.300000000279397","img/food4.png","75","26.199999999720603","2","1","","1","1","1,0.7,0,1,0.7,0,0.7,0,1","0,1,0.7,0,1,0.7,1,0.7,0","3",""
"","html-keyboard-response","219","83124","0.0-309.0","","","","","null","<img src=""img/food4.png"" style=""width:200px; border:14px solid green;"">","null","","","","","","","","","",""
"","image-keyboard-response","220","83183","0.0-310.0","","","","","57.8000000002794","img/food5.png","75","58.60000000009313","2","0","","3","1","1,0.7,0,1,0.7,0,0.7,0,1","0,1,0.7,0,1,0.7,1,0.7,0","3",""
"","html-keyboard-response","221","83485","0.0-311.0","","","","","null","<img src=""img/food5.png"" style=""width:200px;border:14px solid red;"">","null","","","","","","","","","",""
"","image-keyboard-response","222","83511","0.0-312.0","","","","","25","img/food4.png","75","25.600000000093132","2","1","","1","1","1,0.7,0,1,0.7,0,0.7,0,1","0,1,0.7,0,1,0.7,1,0.7,0","3",""
"","html-keyboard-response","223","83813","0.0-313.0","","","","","null","<img src=""img/food4.png"" style=""width:200px; border:14px solid green;"">","null","","","","","","","","","",""
"","image-keyboard-response","224","83911","0.0-314.0","","","","","97.39999999990687","img/food5.png","75","98.10000000009313","2","1","","3","1","1,0.7,0,1,0.7,0,0.7,0,1","0,1,0.7,0,1,0.7,1,0.7,0","3",""
"","html-keyboard-response","225","84212","0.0-315.0","","","","","null","<img src=""img/food5.png"" style=""width:200px; border:14px solid green;"">","null","","","","","","","","","",""
"","image-keyboard-response","226","84278","0.0-316.0","","","","","65.20000000018626","img/food4.png","75","65.59999999962747","2","1","","1","1","1,0.7,0,1,0.7,0,0.7,0,1","0,1,0.7,0,1,0.7,1,0.7,0","3",""
"","html-keyboard-response","227","84580","0.0-317.0","","","","","null","<img src=""img/food4.png"" style=""width:200px; border:14px solid green;"">","null","","","","","","","","","",""
"","image-keyboard-response","228","84687","0.0-318.0","","","","","106.70000000018626","img/food4.png","75","107.1999999997206","2","1","","1","1","1,0.7,0,1,0.7,0,0.7,0,1","0,1,0.7,0,1,0.7,1,0.7,0","3",""
"","html-keyboard-response","229","84989","0.0-319.0","","","","","null","<img src=""img/food4.png"" style=""width:200px; border:14px solid green;"">","null","","","","","","","","","",""
"","image-keyboard-response","230","85023","0.0-320.0","","","","","33.39999999990687","img/food2.png","75","34","2","1","","2","1","1,0.7,0,1,0.7,0,0.7,0,1","0,1,0.7,0,1,0.7,1,0.7,0","3",""
"","html-keyboard-response","231","85324","0.0-321.0","","","","","null","<img src=""img/food2.png"" style=""width:200px; border:14px solid green;"">","null","","","","","","","","","",""
"","image-keyboard-response","232","85375","0.0-322.0","","","","","50.39999999990687","img/food5.png","75","50.89999999990687","2","1","","3","1","1,0.7,0,1,0.7,0,0.7,0,1","0,1,0.7,0,1,0.7,1,0.7,0","3",""
"","html-keyboard-response","233","85676","0.0-323.0","","","","","null","<img src=""img/food5.png"" style=""width:200px; border:14px solid green;"">","null","","","","","","","","","",""
"","image-keyboard-response","234","85687","0.0-324.0","","","","","9.800000000279397","img/food2.png","75","10.5","2","1","","2","1","1,0.7,0,1,0.7,0,0.7,0,1","0,1,0.7,0,1,0.7,1,0.7,0","3",""
"","html-keyboard-response","235","85988","0.0-325.0","","","","","null","<img src=""img/food2.png"" style=""width:200px; border:14px solid green;"">","null","","","","","","","","","",""
"","image-keyboard-response","236","86063","0.0-326.0","","","","","74","img/food2.png","75","74.6999999997206","2","1","","2","1","1,0.7,0,1,0.7,0,0.7,0,1","0,1,0.7,0,1,0.7,1,0.7,0","3",""
"","html-keyboard-response","237","86364","0.0-327.0","","","","","null","<img src=""img/food2.png"" style=""width:200px; border:14px solid green;"">","null","","","","","","","","","",""
"","image-keyboard-response","238","86423","0.0-328.0","","","","","57.60000000009313","img/food2.png","75","58.10000000009313","2","1","","2","1","1,0.7,0,1,0.7,0,0.7,0,1","0,1,0.7,0,1,0.7,1,0.7,0","3",""
"","html-keyboard-response","239","86725","0.0-329.0","","","","","null","<img src=""img/food2.png"" style=""width:200px; border:14px solid green;"">","null","","","","","","","","","",""
"","image-keyboard-response","240","86775","0.0-330.0","","","","","49.3000000002794","img/food2.png","75","49.90000000037253","2","1","","2","1","1,0.7,0,1,0.7,0,0.7,0,1","0,1,0.7,0,1,0.7,1,0.7,0","3",""
"","html-keyboard-response","241","87077","0.0-331.0","","","","","null","<img src=""img/food2.png"" style=""width:200px; border:14px solid green;"">","null","","","","","","","","","",""
"","image-keyboard-response","242","87151","0.0-332.0","","","","","73.29999999981374","img/food5.png","75","73.79999999981374","2","0","","3","1","1,0.7,0,1,0.7,0,0.7,0,1","0,1,0.7,0,1,0.7,1,0.7,0","3",""
"","html-keyboard-response","243","87452","0.0-333.0","","","","","null","<img src=""img/food5.png"" style=""width:200px;border:14px solid red;"">","null","","","","","","","","","",""
"","image-keyboard-response","244","87471","0.0-334.0","","","","","17.90000000037253","img/food2.png","75","18.799999999813735","2","1","","2","1","1,0.7,0,1,0.7,0,0.7,0,1","0,1,0.7,0,1,0.7,1,0.7,0","3",""
"","html-keyboard-response","245","87773","0.0-335.0","","","","","null","<img src=""img/food2.png"" style=""width:200px; border:14px solid green;"">","null","","","","","","","","","",""
"","image-keyboard-response","246","87862","0.0-336.0","","","","","88.60000000009313","img/food5.png","75","89.5","2","1","","3","1","1,0.7,0,1,0.7,0,0.7,0,1","0,1,0.7,0,1,0.7,1,0.7,0","3",""
"","html-keyboard-response","247","88163","0.0-337.0","","","","","null","<img src=""img/food5.png"" style=""width:200px; border:14px solid green;"">","null","","","","","","","","","",""
"","image-keyboard-response","248","88182","0.0-338.0","","","","","18.5","img/food5.png","75","19.299999999813735","2","0","","3","1","1,0.7,0,1,0.7,0,0.7,0,1","0,1,0.7,0,1,0.7,1,0.7,0","3",""
"","html-keyboard-response","249","88484","0.0-339.0","","","","","null","<img src=""img/food5.png"" style=""width:200px;border:14px solid red;"">","null","","","","","","","","","",""
"","image-keyboard-response","250","88535","0.0-340.0","","","","","49.799999999813735","img/food5.png","75","50.40000000037253","2","0","","3","1","1,0.7,0,1,0.7,0,0.7,0,1","0,1,0.7,0,1,0.7,1,0.7,0","3",""
"","html-keyboard-response","251","88836","0.0-341.0","","","","","null","<img src=""img/food5.png"" style=""width:200px;border:14px solid red;"">","null","","","","","","","","","",""
"","image-keyboard-response","252","88855","0.0-342.0","","","","","17.799999999813735","img/food2.png","75","18.5","2","1","","2","1","1,0.7,0,1,0.7,0,0.7,0,1","0,1,0.7,0,1,0.7,1,0.7,0","3",""
"","html-keyboard-response","253","89156","0.0-343.0","","","","","null","<img src=""img/food2.png"" style=""width:200px; border:14px solid green;"">","null","","","","","","","","","",""
"","image-keyboard-response","254","89199","0.0-344.0","","","","","42.5","img/food4.png","75","43","2","1","","1","1","1,0.7,0,1,0.7,0,0.7,0,1","0,1,0.7,0,1,0.7,1,0.7,0","3",""
"","html-keyboard-response","255","89502","0.0-345.0","","","","","null","<img src=""img/food4.png"" style=""width:200px; border:14px solid green;"">","null","","","","","","","","","",""
"","image-keyboard-response","256","89559","0.0-346.0","","","","","56.40000000037253","img/food4.png","75","56.89999999990687","2","1","","1","1","1,0.7,0,1,0.7,0,0.7,0,1","0,1,0.7,0,1,0.7,1,0.7,0","3",""
"","html-keyboard-response","257","89869","0.0-347.0","","","","","null","<img src=""img/food4.png"" style=""width:200px; border:14px solid green;"">","null","","","","","","","","","",""
"","image-keyboard-response","258","89894","0.0-348.0","","","","","25.100000000093132","img/food5.png","75","25.700000000186265","2","1","","3","1","1,0.7,0,1,0.7,0,0.7,0,1","0,1,0.7,0,1,0.7,1,0.7,0","3",""
"","html-keyboard-response","259","90195","0.0-349.0","","","","","null","<img src=""img/food5.png"" style=""width:200px; border:14px solid green;"">","null","","","","","","","","","",""
"","image-keyboard-response","260","90254","0.0-350.0","","","","","57.700000000186265","img/food5.png","75","58.39999999990687","2","1","","3","1","1,0.7,0,1,0.7,0,0.7,0,1","0,1,0.7,0,1,0.7,1,0.7,0","3",""
"","html-keyboard-response","261","90555","0.0-351.0","","","","","null","<img src=""img/food5.png"" style=""width:200px; border:14px solid green;"">","null","","","","","","","","","",""
"","image-keyboard-response","262","90575","0.0-352.0","","","","","19.299999999813735","img/food2.png","75","19.800000000279397","2","1","","2","1","1,0.7,0,1,0.7,0,0.7,0,1","0,1,0.7,0,1,0.7,1,0.7,0","3",""
"","html-keyboard-response","263","90876","0.0-353.0","","","","","null","<img src=""img/food2.png"" style=""width:200px; border:14px solid green;"">","null","","","","","","","","","",""
"","image-keyboard-response","264","90935","0.0-354.0","","","","","58","img/food4.png","75","58.799999999813735","2","1","","1","1","1,0.7,0,1,0.7,0,0.7,0,1","0,1,0.7,0,1,0.7,1,0.7,0","3",""
"","html-keyboard-response","265","91237","0.0-355.0","","","","","null","<img src=""img/food4.png"" style=""width:200px; border:14px solid green;"">","null","","","","","","","","","",""
"","image-keyboard-response","266","91246","0.0-356.0","","","","","8.299999999813735","img/food5.png","75","9","2","1","","3","1","1,0.7,0,1,0.7,0,0.7,0,1","0,1,0.7,0,1,0.7,1,0.7,0","3",""
"","html-keyboard-response","267","91548","0.0-357.0","","","","","null","<img src=""img/food5.png"" style=""width:200px; border:14px solid green;"">","null","","","","","","","","","",""
"","image-keyboard-response","268","91606","0.0-358.0","","","","","57.89999999990687","img/food5.png","75","58.60000000009313","2","1","","3","1","1,0.7,0,1,0.7,0,0.7,0,1","0,1,0.7,0,1,0.7,1,0.7,0","3",""
"","html-keyboard-response","269","91909","0.0-359.0","","","","","null","<img src=""img/food5.png"" style=""width:200px; border:14px solid green;"">","null","","","","","","","","","",""
"","image-keyboard-response","270","91910","0.0-360.0","","","","","1","img/food5.png","75","1.599999999627471","2","0","","3","1","1,0.7,0,1,0.7,0,0.7,0,1","0,1,0.7,0,1,0.7,1,0.7,0","3",""
"","html-keyboard-response","271","92212","0.0-361.0","","","","","null","<img src=""img/food5.png"" style=""width:200px;border:14px solid red;"">","null","","","","","","","","","",""
"","image-keyboard-response","272","92223","0.0-362.0","","","","","10","img/food5.png","75","10.700000000186265","2","1","","3","1","1,0.7,0,1,0.7,0,0.7,0,1","0,1,0.7,0,1,0.7,1,0.7,0","3",""
"","html-keyboard-response","273","92525","0.0-363.0","","","","","null","<img src=""img/food5.png"" style=""width:200px; border:14px solid green;"">","null","","","","","","","","","",""
"","image-keyboard-response","274","92591","0.0-364.0","","","","","65.10000000009313","img/food2.png","75","65.5","2","1","","2","1","1,0.7,0,1,0.7,0,0.7,0,1","0,1,0.7,0,1,0.7,1,0.7,0","3",""
"","html-keyboard-response","275","92893","0.0-365.0","","","","","null","<img src=""img/food2.png"" style=""width:200px; border:14px solid green;"">","null","","","","","","","","","",""
"","image-keyboard-response","276","92918","0.0-366.0","","","","","25","img/food4.png","75","25.700000000186265","2","1","","1","1","1,0.7,0,1,0.7,0,0.7,0,1","0,1,0.7,0,1,0.7,1,0.7,0","3",""
"","html-keyboard-response","277","93220","0.0-367.0","","","","","null","<img src=""img/food4.png"" style=""width:200px; border:14px solid green;"">","null","","","","","","","","","",""
"","image-keyboard-response","278","93294","0.0-368.0","","","","","73.39999999990687","img/food2.png","75","74","2","1","","2","1","1,0.7,0,1,0.7,0,0.7,0,1","0,1,0.7,0,1,0.7,1,0.7,0","3",""
"","html-keyboard-response","279","93594","0.0-369.0","","","","","null","<img src=""img/food2.png"" style=""width:200px; border:14px solid green;"">","null","","","","","","","","","",""
"","image-keyboard-response","280","93607","0.0-370.0","","","","","11.399999999906868","img/food4.png","75","12.100000000093132","2","1","","1","1","1,0.7,0,1,0.7,0,0.7,0,1","0,1,0.7,0,1,0.7,1,0.7,0","3",""
"","html-keyboard-response","281","93909","0.0-371.0","","","","","null","<img src=""img/food4.png"" style=""width:200px; border:14px solid green;"">","null","","","","","","","","","",""
"","image-keyboard-response","282","93935","0.0-372.0","","","","","25.799999999813735","img/food5.png","75","26.300000000279397","2","1","","3","1","1,0.7,0,1,0.7,0,0.7,0,1","0,1,0.7,0,1,0.7,1,0.7,0","3",""
"","html-keyboard-response","283","94237","0.0-373.0","","","","","null","<img src=""img/food5.png"" style=""width:200px; border:14px solid green;"">","null","","","","","","","","","",""
"","image-keyboard-response","284","94550","0.0-374.0","","","","","313.20000000018626","img/food5.png","75","313.79999999981374","2","0","","3","1","1,0.7,0,1,0.7,0,0.7,0,1","0,1,0.7,0,1,0.7,1,0.7,0","3",""
"","html-keyboard-response","285","94852","0.0-375.0","","","","","null","<img src=""img/food5.png"" style=""width:200px;border:14px solid red;"">","null","","","","","","","","","",""
"","image-keyboard-response","286","95319","0.0-376.0","","","","","466.3000000002794","img/food5.png","75","466.89999999990687","2","1","","3","1","1,0.7,0,1,0.7,0,0.7,0,1","0,1,0.7,0,1,0.7,1,0.7,0","3",""
"","html-keyboard-response","287","95621","0.0-377.0","","","","","null","<img src=""img/food5.png"" style=""width:200px; border:14px solid green;"">","null","","","","","","","","","",""
"","image-keyboard-response","288","95622","0.0-378.0","","","","","1.1000000000931323","img/food4.png","75","1.6000000000931323","2","1","","1","1","1,0.7,0,1,0.7,0,0.7,0,1","0,1,0.7,0,1,0.7,1,0.7,0","3",""
"","html-keyboard-response","289","95924","0.0-379.0","","","","","null","<img src=""img/food4.png"" style=""width:200px; border:14px solid green;"">","null","","","","","","","","","",""
"","image-keyboard-response","290","95999","0.0-380.0","","","","","74.40000000037253","img/food4.png","75","75.39999999990687","2","1","","1","1","1,0.7,0,1,0.7,0,0.7,0,1","0,1,0.7,0,1,0.7,1,0.7,0","3",""
"","html-keyboard-response","291","96301","0.0-381.0","","","","","null","<img src=""img/food4.png"" style=""width:200px; border:14px solid green;"">","null","","","","","","","","","",""
"","image-keyboard-response","292","96383","0.0-382.0","","","","","81.40000000037253","img/food4.png","75","81.89999999990687","2","1","","1","1","1,0.7,0,1,0.7,0,0.7,0,1","0,1,0.7,0,1,0.7,1,0.7,0","3",""
"","html-keyboard-response","293","96684","0.0-383.0","","","","","null","<img src=""img/food4.png"" style=""width:200px; border:14px solid green;"">","null","","","","","","","","","",""
"","image-keyboard-response","294","96719","0.0-384.0","","","","","34.3000000002794","img/food2.png","75","34.89999999990687","2","1","","2","1","1,0.7,0,1,0.7,0,0.7,0,1","0,1,0.7,0,1,0.7,1,0.7,0","3",""
"","html-keyboard-response","295","97020","0.0-385.0","","","","","null","<img src=""img/food2.png"" style=""width:200px; border:14px solid green;"">","null","","","","","","","","","",""
"","image-keyboard-response","296","97039","0.0-386.0","","","","","18.200000000186265","img/food2.png","75","18.59999999962747","2","1","","2","1","1,0.7,0,1,0.7,0,0.7,0,1","0,1,0.7,0,1,0.7,1,0.7,0","3",""
"","html-keyboard-response","297","97341","0.0-387.0","","","","","null","<img src=""img/food2.png"" style=""width:200px; border:14px solid green;"">","null","","","","","","","","","",""
"","image-keyboard-response","298","97383","0.0-388.0","","","","","41","img/food4.png","75","41.60000000009313","2","1","","1","1","1,0.7,0,1,0.7,0,0.7,0,1","0,1,0.7,0,1,0.7,1,0.7,0","3",""
"","html-keyboard-response","299","97685","0.0-389.0","","","","","null","<img src=""img/food4.png"" style=""width:200px; border:14px solid green;"">","null","","","","","","","","","",""
"","image-keyboard-response","300","97710","0.0-390.0","","","","","24.5","img/food4.png","75","25.200000000186265","2","1","","1","1","1,0.7,0,1,0.7,0,0.7,0,1","0,1,0.7,0,1,0.7,1,0.7,0","3",""
"","html-keyboard-response","301","98012","0.0-391.0","","","","","null","<img src=""img/food4.png"" style=""width:200px; border:14px solid green;"">","null","","","","","","","","","",""
"","image-keyboard-response","302","98054","0.0-392.0","","","","","41.89999999990687","img/food4.png","75","42.60000000009313","2","1","","1","1","1,0.7,0,1,0.7,0,0.7,0,1","0,1,0.7,0,1,0.7,1,0.7,0","3",""
"","html-keyboard-response","303","98355","0.0-393.0","","","","","null","<img src=""img/food4.png"" style=""width:200px; border:14px solid green;"">","null","","","","","","","","","",""
"","image-keyboard-response","304","98358","0.0-394.0","","","","","1.8999999999068677","img/food4.png","75","2.6000000000931323","2","1","","1","1","1,0.7,0,1,0.7,0,0.7,0,1","0,1,0.7,0,1,0.7,1,0.7,0","3",""
"","html-keyboard-response","305","98661","0.0-395.0","","","","","null","<img src=""img/food4.png"" style=""width:200px; border:14px solid green;"">","null","","","","","","","","","",""
"","image-keyboard-response","306","98735","0.0-396.0","","","","","72.79999999981374","img/food5.png","75","73.5","2","1","","3","1","1,0.7,0,1,0.7,0,0.7,0,1","0,1,0.7,0,1,0.7,1,0.7,0","3",""
"","html-keyboard-response","307","99035","0.0-397.0","","","","","null","<img src=""img/food5.png"" style=""width:200px; border:14px solid green;"">","null","","","","","","","","","",""
"","image-keyboard-response","308","99055","0.0-398.0","","","","","18.5","img/food5.png","75","19","2","1","","3","1","1,0.7,0,1,0.7,0,0.7,0,1","0,1,0.7,0,1,0.7,1,0.7,0","3",""
"","html-keyboard-response","309","99356","0.0-399.0","","","","","null","<img src=""img/food5.png"" style=""width:200px; border:14px solid green;"">","null","","","","","","","","","",""
"","image-keyboard-response","310","99390","0.0-400.0","","","","","33","img/food2.png","75","33.700000000186265","2","1","","2","1","1,0.7,0,1,0.7,0,0.7,0,1","0,1,0.7,0,1,0.7,1,0.7,0","3",""
"","html-keyboard-response","311","99692","0.0-401.0","","","","","null","<img src=""img/food2.png"" style=""width:200px; border:14px solid green;"">","null","","","","","","","","","",""
"","image-keyboard-response","312","99727","0.0-402.0","","","","","34.39999999990687","img/food5.png","75","34.89999999990687","2","0","","3","1","1,0.7,0,1,0.7,0,0.7,0,1","0,1,0.7,0,1,0.7,1,0.7,0","3",""
"","html-keyboard-response","313","100029","0.0-403.0","","","","","null","<img src=""img/food5.png"" style=""width:200px;border:14px solid red;"">","null","","","","","","","","","",""
"","image-keyboard-response","314","100103","0.0-404.0","","","","","73.29999999981374","img/food2.png","75","74","2","1","","2","1","1,0.7,0,1,0.7,0,0.7,0,1","0,1,0.7,0,1,0.7,1,0.7,0","3",""
"","html-keyboard-response","315","100404","0.0-405.0","","","","","null","<img src=""img/food2.png"" style=""width:200px; border:14px solid green;"">","null","","","","","","","","","",""
"","image-keyboard-response","316","100438","0.0-406.0","","","","","33.10000000009313","img/food4.png","75","33.6999999997206","2","1","","1","1","1,0.7,0,1,0.7,0,0.7,0,1","0,1,0.7,0,1,0.7,1,0.7,0","3",""
"","html-keyboard-response","317","100739","0.0-407.0","","","","","null","<img src=""img/food4.png"" style=""width:200px; border:14px solid green;"">","null","","","","","","","","","",""
"","image-keyboard-response","318","100782","0.0-408.0","","","","","41.89999999990687","img/food2.png","75","42.799999999813735","2","1","","2","1","1,0.7,0,1,0.7,0,0.7,0,1","0,1,0.7,0,1,0.7,1,0.7,0","3",""
"","html-keyboard-response","319","101085","0.0-409.0","","","","","null","<img src=""img/food2.png"" style=""width:200px; border:14px solid green;"">","null","","","","","","","","","",""
"","image-keyboard-response","320","101142","0.0-410.0","","","","","57.10000000009313","img/food4.png","75","57.8000000002794","2","1","","1","1","1,0.7,0,1,0.7,0,0.7,0,1","0,1,0.7,0,1,0.7,1,0.7,0","3",""
"","html-keyboard-response","321","101445","0.0-411.0","","","","","null","<img src=""img/food4.png"" style=""width:200px; border:14px solid green;"">","null","","","","","","","","","",""
"","image-keyboard-response","322","101471","0.0-412.0","","","","","25.300000000279397","img/food4.png","75","25.799999999813735","2","1","","1","1","1,0.7,0,1,0.7,0,0.7,0,1","0,1,0.7,0,1,0.7,1,0.7,0","3",""
"","html-keyboard-response","323","101772","0.0-413.0","","","","","null","<img src=""img/food4.png"" style=""width:200px; border:14px solid green;"">","null","","","","","","","","","",""
"","image-keyboard-response","324","101814","0.0-414.0","","","","","41.3000000002794","img/food2.png","75","41.799999999813735","2","1","","2","1","1,0.7,0,1,0.7,0,0.7,0,1","0,1,0.7,0,1,0.7,1,0.7,0","3",""
"","html-keyboard-response","325","102116","0.0-415.0","","","","","null","<img src=""img/food2.png"" style=""width:200px; border:14px solid green;"">","null","","","","","","","","","",""
"","image-keyboard-response","326","102127","0.0-416.0","","","","","10.5","img/food5.png","75","11","2","0","","3","1","1,0.7,0,1,0.7,0,0.7,0,1","0,1,0.7,0,1,0.7,1,0.7,0","3",""
"","html-keyboard-response","327","102429","0.0-417.0","","","","","null","<img src=""img/food5.png"" style=""width:200px;border:14px solid red;"">","null","","","","","","","","","",""
"","image-keyboard-response","328","102454","0.0-418.0","","","","","24.40000000037253","img/food2.png","75","25.100000000093132","2","1","","2","1","1,0.7,0,1,0.7,0,0.7,0,1","0,1,0.7,0,1,0.7,1,0.7,0","3",""
"","html-keyboard-response","329","102755","0.0-419.0","","","","","null","<img src=""img/food2.png"" style=""width:200px; border:14px solid green;"">","null","","","","","","","","","",""
"","image-keyboard-response","330","102782","0.0-420.0","","","","","26.300000000279397","img/food2.png","75","26.799999999813735","2","1","","2","1","1,0.7,0,1,0.7,0,0.7,0,1","0,1,0.7,0,1,0.7,1,0.7,0","3",""
"","html-keyboard-response","331","103084","0.0-421.0","","","","","null","<img src=""img/food2.png"" style=""width:200px; border:14px solid green;"">","null","","","","","","","","","",""
"","image-keyboard-response","332","103127","0.0-422.0","","","","","42.5","img/food2.png","75","43.10000000009313","2","1","","2","1","1,0.7,0,1,0.7,0,0.7,0,1","0,1,0.7,0,1,0.7,1,0.7,0","3",""
"","html-keyboard-response","333","103428","0.0-423.0","","","","","null","<img src=""img/food2.png"" style=""width:200px; border:14px solid green;"">","null","","","","","","","","","",""
"","image-keyboard-response","334","103439","0.0-424.0","","","","","9.600000000093132","img/food4.png","75","10.200000000186265","2","1","","1","1","1,0.7,0,1,0.7,0,0.7,0,1","0,1,0.7,0,1,0.7,1,0.7,0","3",""
"","html-keyboard-response","335","103740","0.0-425.0","","","","","null","<img src=""img/food4.png"" style=""width:200px; border:14px solid green;"">","null","","","","","","","","","",""
"","image-keyboard-response","336","103743","0.0-426.0","","","","","2","img/food4.png","75","2.7000000001862645","2","1","","1","1","1,0.7,0,1,0.7,0,0.7,0,1","0,1,0.7,0,1,0.7,1,0.7,0","3",""
"","html-keyboard-response","337","104045","0.0-427.0","","","","","null","<img src=""img/food4.png"" style=""width:200px; border:14px solid green;"">","null","","","","","","","","","",""
"","image-keyboard-response","338","104127","0.0-428.0","","","","","81.29999999981374","img/food2.png","75","82.20000000018626","2","1","","2","1","1,0.7,0,1,0.7,0,0.7,0,1","0,1,0.7,0,1,0.7,1,0.7,0","3",""
"","html-keyboard-response","339","104430","0.0-429.0","","","","","null","<img src=""img/food2.png"" style=""width:200px; border:14px solid green;"">","null","","","","","","","","","",""
"","image-keyboard-response","340","104454","0.0-430.0","","","","","24","img/food5.png","75","24.699999999720603","2","1","","3","1","1,0.7,0,1,0.7,0,0.7,0,1","0,1,0.7,0,1,0.7,1,0.7,0","3",""
"","html-keyboard-response","341","104756","0.0-431.0","","","","","null","<img src=""img/food5.png"" style=""width:200px; border:14px solid green;"">","null","","","","","","","","","",""
"","image-keyboard-response","342","104791","0.0-432.0","","","","","34.6999999997206","img/food5.png","75","35.5","2","1","","3","1","1,0.7,0,1,0.7,0,0.7,0,1","0,1,0.7,0,1,0.7,1,0.7,0","3",""
"","html-keyboard-response","343","105094","0.0-433.0","","","","","null","<img src=""img/food5.png"" style=""width:200px; border:14px solid green;"">","null","","","","","","","","","",""
"","image-keyboard-response","344","105127","0.0-434.0","","","","","32.59999999962747","img/food4.png","75","33.3000000002794","2","1","","1","1","1,0.7,0,1,0.7,0,0.7,0,1","0,1,0.7,0,1,0.7,1,0.7,0","3",""
"","html-keyboard-response","345","105442","0.0-435.0","","","","","null","<img src=""img/food4.png"" style=""width:200px; border:14px solid green;"">","null","","","","","","","","","",""
"","image-keyboard-response","346","105463","0.0-436.0","","","","","18.899999999906868","img/food4.png","75","19.800000000279397","2","1","","1","1","1,0.7,0,1,0.7,0,0.7,0,1","0,1,0.7,0,1,0.7,1,0.7,0","3",""
"","html-keyboard-response","347","105764","0.0-437.0","","","","","null","<img src=""img/food4.png"" style=""width:200px; border:14px solid green;"">","null","","","","","","","","","",""
"","image-keyboard-response","348","105807","0.0-438.0","","","","","42.10000000009313","img/food2.png","75","42.6999999997206","2","1","","2","1","1,0.7,0,1,0.7,0,0.7,0,1","0,1,0.7,0,1,0.7,1,0.7,0","3",""
"","html-keyboard-response","349","106109","0.0-439.0","","","","","null","<img src=""img/food2.png"" style=""width:200px; border:14px solid green;"">","null","","","","","","","","","",""
"","image-keyboard-response","350","106177","0.0-440.0","","","","","67.39999999990687","img/food2.png","75","68.3000000002794","2","1","","2","1","1,0.7,0,1,0.7,0,0.7,0,1","0,1,0.7,0,1,0.7,1,0.7,0","3",""
"","html-keyboard-response","351","106480","0.0-441.0","","","","","null","<img src=""img/food2.png"" style=""width:200px; border:14px solid green;"">","null","","","","","","","","","",""
"","image-keyboard-response","352","106503","0.0-442.0","","","","","22.200000000186265","img/food4.png","75","22.899999999906868","2","1","","1","1","1,0.7,0,1,0.7,0,0.7,0,1","0,1,0.7,0,1,0.7,1,0.7,0","3",""
"","html-keyboard-response","353","106805","0.0-443.0","","","","","null","<img src=""img/food4.png"" style=""width:200px; border:14px solid green;"">","null","","","","","","","","","",""
"","image-keyboard-response","354","106855","0.0-444.0","","","","","49.39999999990687","img/food5.png","75","49.89999999990687","2","1","","3","1","1,0.7,0,1,0.7,0,0.7,0,1","0,1,0.7,0,1,0.7,1,0.7,0","3",""
"","html-keyboard-response","355","107158","0.0-445.0","","","","","null","<img src=""img/food5.png"" style=""width:200px; border:14px solid green;"">","null","","","","","","","","","",""
"","image-keyboard-response","356","107183","0.0-446.0","","","","","24.399999999906868","img/food2.png","75","24.899999999906868","2","1","","2","1","1,0.7,0,1,0.7,0,0.7,0,1","0,1,0.7,0,1,0.7,1,0.7,0","3",""
"","html-keyboard-response","357","107484","0.0-447.0","","","","","null","<img src=""img/food2.png"" style=""width:200px; border:14px solid green;"">","null","","","","","","","","","",""
"","image-keyboard-response","358","107527","0.0-448.0","","","","","41.6999999997206","img/food5.png","75","42.5","2","0","","3","1","1,0.7,0,1,0.7,0,0.7,0,1","0,1,0.7,0,1,0.7,1,0.7,0","3",""
"","html-keyboard-response","359","107830","0.0-449.0","","","","","null","<img src=""img/food5.png"" style=""width:200px;border:14px solid red;"">","null","","","","","","","","","",""
"","image-keyboard-response","360","108014","0.0-450.0","","","","","183.8000000002794","img/food5.png","75","184.5","2","0","","3","1","1,0.7,0,1,0.7,0,0.7,0,1","0,1,0.7,0,1,0.7,1,0.7,0","3",""
"","html-keyboard-response","361","108317","0.0-451.0","","","","","null","<img src=""img/food5.png"" style=""width:200px;border:14px solid red;"">","null","","","","","","","","","",""
"","image-keyboard-response","362","108375","0.0-452.0","","","","","57.299999999813735","img/food5.png","75","58","2","1","","3","1","1,0.7,0,1,0.7,0,0.7,0,1","0,1,0.7,0,1,0.7,1,0.7,0","3",""
"","html-keyboard-response","363","108676","0.0-453.0","","","","","null","<img src=""img/food5.png"" style=""width:200px; border:14px solid green;"">","null","","","","","","","","","",""
"","html-keyboard-response","364","114944","0.0-454.0","","","","","","","","","","","","","","","","",""
"","instructions","365","116662","0.0-455.0","","","","[{""page_index"":0,""viewing_time"":1717.2999999998137}]","1717.6000000000931","","","","","","","","","","","",""
"","survey-text","366","123496","0.0-456.0","","","","","6830.600000000093","","","","","","","","","","","","{""Q0"":""A1RKHN69EI6ZPK""}"
