"success","trial_type","trial_index","time_elapsed","internal_node_id","assignmentID","mturkID","hitID","view_history","rt","stimulus","key_press","reactionTime","a","r","warning","s","cond","reward_cond","reward_cond_actual","reward_matrix_idx","responses"
"true","fullscreen","0","3121","0.0-0.0","3YT88D1N09K989NCLVWJAA2RKY53KX","A1ROEDVMTO9Y3X","3UDTAB6HH6LRO17U79I9TKUGYFV09C","","","","","","","","","","","","","",""
"","instructions","1","16506","0.0-1.0","3YT88D1N09K989NCLVWJAA2RKY53KX","A1ROEDVMTO9Y3X","3UDTAB6HH6LRO17U79I9TKUGYFV09C","[{""page_index"":0,""viewing_time"":2941},{""page_index"":1,""viewing_time"":1824.2999999970198},{""page_index"":2,""viewing_time"":1216.6000000089407},{""page_index"":3,""viewing_time"":1430.8999999910593},{""page_index"":4,""viewing_time"":1880},{""page_index"":5,""viewing_time"":2504.2999999970198},{""page_index"":6,""viewing_time"":1583.800000011921}]","13381.20000000298","","","","","","","","","","","",""
"","instructions","2","20962","0.0-2.0","3YT88D1N09K989NCLVWJAA2RKY53KX","A1ROEDVMTO9Y3X","3UDTAB6HH6LRO17U79I9TKUGYFV09C","[{""page_index"":0,""viewing_time"":3383.199999988079},{""page_index"":1,""viewing_time"":1072.1000000089407}]","4455.399999991059","","","","","","","","","","","",""
"","image-keyboard-response","3","21426","0.0-3.0","3YT88D1N09K989NCLVWJAA2RKY53KX","A1ROEDVMTO9Y3X","3UDTAB6HH6LRO17U79I9TKUGYFV09C","","462.40000000596046","img/food6.png","74","464.20000000298023","1","1","false","2","2","1,0.5,0,1,0.5,0,0.5,0,1","1,0.5,0,1,0.5,0,0.5,0,1","1",""
"","html-keyboard-response","4","21733","0.0-4.0","3YT88D1N09K989NCLVWJAA2RKY53KX","A1ROEDVMTO9Y3X","3UDTAB6HH6LRO17U79I9TKUGYFV09C","","null","<img src=""img/food6.png"" style=""width:200px; border:14px solid green;"">","null","","","","","","","","","",""
"","image-keyboard-response","5","22346","0.0-6.0","3YT88D1N09K989NCLVWJAA2RKY53KX","A1ROEDVMTO9Y3X","3UDTAB6HH6LRO17U79I9TKUGYFV09C","","611.2999999970198","img/food6.png","75","612.3999999910593","2","1","false","2","2","1,0.5,0,1,0.5,0,0.5,0,1","1,0.5,0,1,0.5,0,0.5,0,1","1",""
"","html-keyboard-response","6","22655","0.0-7.0","3YT88D1N09K989NCLVWJAA2RKY53KX","A1ROEDVMTO9Y3X","3UDTAB6HH6LRO17U79I9TKUGYFV09C","","null","<img src=""img/food6.png"" style=""width:200px; border:14px solid green;"">","null","","","","","","","","","",""
"","image-keyboard-response","7","23321","0.0-9.0","3YT88D1N09K989NCLVWJAA2RKY53KX","A1ROEDVMTO9Y3X","3UDTAB6HH6LRO17U79I9TKUGYFV09C","","664","img/food4.png","76","665.2000000029802","3","1","false","3","2","1,0.5,0,1,0.5,0,0.5,0,1","1,0.5,0,1,0.5,0,0.5,0,1","1",""
"","html-keyboard-response","8","23638","0.0-10.0","3YT88D1N09K989NCLVWJAA2RKY53KX","A1ROEDVMTO9Y3X","3UDTAB6HH6LRO17U79I9TKUGYFV09C","","null","<img src=""img/food4.png"" style=""width:200px; border:14px solid green;"">","null","","","","","","","","","",""
"","image-keyboard-response","9","24178","0.0-12.0","3YT88D1N09K989NCLVWJAA2RKY53KX","A1ROEDVMTO9Y3X","3UDTAB6HH6LRO17U79I9TKUGYFV09C","","539.0999999940395","img/food6.png","74","540.2999999970198","1","1","false","2","2","1,0.5,0,1,0.5,0,0.5,0,1","1,0.5,0,1,0.5,0,0.5,0,1","1",""
"","html-keyboard-response","10","24493","0.0-13.0","3YT88D1N09K989NCLVWJAA2RKY53KX","A1ROEDVMTO9Y3X","3UDTAB6HH6LRO17U79I9TKUGYFV09C","","null","<img src=""img/food6.png"" style=""width:200px; border:14px solid green;"">","null","","","","","","","","","",""
"","image-keyboard-response","11","25068","0.0-15.0","3YT88D1N09K989NCLVWJAA2RKY53KX","A1ROEDVMTO9Y3X","3UDTAB6HH6LRO17U79I9TKUGYFV09C","","573.0999999940395","img/food4.png","75","574.6000000089407","2","0","false","3","2","1,0.5,0,1,0.5,0,0.5,0,1","1,0.5,0,1,0.5,0,0.5,0,1","1",""
"","html-keyboard-response","12","25384","0.0-16.0","3YT88D1N09K989NCLVWJAA2RKY53KX","A1ROEDVMTO9Y3X","3UDTAB6HH6LRO17U79I9TKUGYFV09C","","null","<img src=""img/food4.png"" style=""width:200px;border:14px solid red;"">","null","","","","","","","","","",""
"","image-keyboard-response","13","25907","0.0-18.0","3YT88D1N09K989NCLVWJAA2RKY53KX","A1ROEDVMTO9Y3X","3UDTAB6HH6LRO17U79I9TKUGYFV09C","","522.6999999880791","img/food4.png","74","523.6000000089407","1","1","false","3","2","1,0.5,0,1,0.5,0,0.5,0,1","1,0.5,0,1,0.5,0,0.5,0,1","1",""
"","html-keyboard-response","14","26223","0.0-19.0","3YT88D1N09K989NCLVWJAA2RKY53KX","A1ROEDVMTO9Y3X","3UDTAB6HH6LRO17U79I9TKUGYFV09C","","null","<img src=""img/food4.png"" style=""width:200px; border:14px solid green;"">","null","","","","","","","","","",""
"","image-keyboard-response","15","26653","0.0-21.0","3YT88D1N09K989NCLVWJAA2RKY53KX","A1ROEDVMTO9Y3X","3UDTAB6HH6LRO17U79I9TKUGYFV09C","","428.20000000298023","img/food6.png","76","429.5","3","0","false","2","2","1,0.5,0,1,0.5,0,0.5,0,1","1,0.5,0,1,0.5,0,0.5,0,1","1",""
"","html-keyboard-response","16","26971","0.0-22.0","3YT88D1N09K989NCLVWJAA2RKY53KX","A1ROEDVMTO9Y3X","3UDTAB6HH6LRO17U79I9TKUGYFV09C","","null","<img src=""img/food6.png"" style=""width:200px;border:14px solid red;"">","null","","","","","","","","","",""
"","image-keyboard-response","17","27234","0.0-24.0","3YT88D1N09K989NCLVWJAA2RKY53KX","A1ROEDVMTO9Y3X","3UDTAB6HH6LRO17U79I9TKUGYFV09C","","261.5","img/food4.png","74","262.90000000596046","1","0","false","3","2","1,0.5,0,1,0.5,0,0.5,0,1","1,0.5,0,1,0.5,0,0.5,0,1","1",""
"","html-keyboard-response","18","27546","0.0-25.0","3YT88D1N09K989NCLVWJAA2RKY53KX","A1ROEDVMTO9Y3X","3UDTAB6HH6LRO17U79I9TKUGYFV09C","","null","<img src=""img/food4.png"" style=""width:200px;border:14px solid red;"">","null","","","","","","","","","",""
"","image-keyboard-response","19","27968","0.0-27.0","3YT88D1N09K989NCLVWJAA2RKY53KX","A1ROEDVMTO9Y3X","3UDTAB6HH6LRO17U79I9TKUGYFV09C","","421.09999999403954","img/food1.png","74","422","1","1","false","1","2","1,0.5,0,1,0.5,0,0.5,0,1","1,0.5,0,1,0.5,0,0.5,0,1","1",""
"","html-keyboard-response","20","28275","0.0-28.0","3YT88D1N09K989NCLVWJAA2RKY53KX","A1ROEDVMTO9Y3X","3UDTAB6HH6LRO17U79I9TKUGYFV09C","","null","<img src=""img/food1.png"" style=""width:200px; border:14px solid green;"">","null","","","","","","","","","",""
"","image-keyboard-response","21","28795","0.0-30.0","3YT88D1N09K989NCLVWJAA2RKY53KX","A1ROEDVMTO9Y3X","3UDTAB6HH6LRO17U79I9TKUGYFV09C","","518.9000000059605","img/food6.png","75","519.7999999970198","2","0","false","2","2","1,0.5,0,1,0.5,0,0.5,0,1","1,0.5,0,1,0.5,0,0.5,0,1","1",""
"","html-keyboard-response","22","29099","0.0-31.0","3YT88D1N09K989NCLVWJAA2RKY53KX","A1ROEDVMTO9Y3X","3UDTAB6HH6LRO17U79I9TKUGYFV09C","","null","<img src=""img/food6.png"" style=""width:200px;border:14px solid red;"">","null","","","","","","","","","",""
"","image-keyboard-response","23","29470","0.0-33.0","3YT88D1N09K989NCLVWJAA2RKY53KX","A1ROEDVMTO9Y3X","3UDTAB6HH6LRO17U79I9TKUGYFV09C","","368.6000000089407","img/food4.png","74","370","1","0","false","3","2","1,0.5,0,1,0.5,0,0.5,0,1","1,0.5,0,1,0.5,0,0.5,0,1","1",""
"","html-keyboard-response","24","29786","0.0-34.0","3YT88D1N09K989NCLVWJAA2RKY53KX","A1ROEDVMTO9Y3X","3UDTAB6HH6LRO17U79I9TKUGYFV09C","","null","<img src=""img/food4.png"" style=""width:200px;border:14px solid red;"">","null","","","","","","","","","",""
"","image-keyboard-response","25","30145","0.0-36.0","3YT88D1N09K989NCLVWJAA2RKY53KX","A1ROEDVMTO9Y3X","3UDTAB6HH6LRO17U79I9TKUGYFV09C","","357.80000001192093","img/food6.png","76","358.80000001192093","3","0","false","2","2","1,0.5,0,1,0.5,0,0.5,0,1","1,0.5,0,1,0.5,0,0.5,0,1","1",""
"","html-keyboard-response","26","30447","0.0-37.0","3YT88D1N09K989NCLVWJAA2RKY53KX","A1ROEDVMTO9Y3X","3UDTAB6HH6LRO17U79I9TKUGYFV09C","","null","<img src=""img/food6.png"" style=""width:200px;border:14px solid red;"">","null","","","","","","","","","",""
"","image-keyboard-response","27","30908","0.0-39.0","3YT88D1N09K989NCLVWJAA2RKY53KX","A1ROEDVMTO9Y3X","3UDTAB6HH6LRO17U79I9TKUGYFV09C","","458.20000000298023","img/food4.png","76","459.30000001192093","3","1","false","3","2","1,0.5,0,1,0.5,0,0.5,0,1","1,0.5,0,1,0.5,0,0.5,0,1","1",""
"","html-keyboard-response","28","31209","0.0-40.0","3YT88D1N09K989NCLVWJAA2RKY53KX","A1ROEDVMTO9Y3X","3UDTAB6HH6LRO17U79I9TKUGYFV09C","","null","<img src=""img/food4.png"" style=""width:200px; border:14px solid green;"">","null","","","","","","","","","",""
"","image-keyboard-response","29","31791","0.0-42.0","3YT88D1N09K989NCLVWJAA2RKY53KX","A1ROEDVMTO9Y3X","3UDTAB6HH6LRO17U79I9TKUGYFV09C","","579.7999999970198","img/food6.png","74","581.0999999940395","1","1","false","2","2","1,0.5,0,1,0.5,0,0.5,0,1","1,0.5,0,1,0.5,0,0.5,0,1","1",""
"","html-keyboard-response","30","32093","0.0-43.0","3YT88D1N09K989NCLVWJAA2RKY53KX","A1ROEDVMTO9Y3X","3UDTAB6HH6LRO17U79I9TKUGYFV09C","","null","<img src=""img/food6.png"" style=""width:200px; border:14px solid green;"">","null","","","","","","","","","",""
"","image-keyboard-response","31","32681","0.0-45.0","3YT88D1N09K989NCLVWJAA2RKY53KX","A1ROEDVMTO9Y3X","3UDTAB6HH6LRO17U79I9TKUGYFV09C","","586.5","img/food1.png","74","587.7999999970198","1","1","false","1","2","1,0.5,0,1,0.5,0,0.5,0,1","1,0.5,0,1,0.5,0,0.5,0,1","1",""
"","html-keyboard-response","32","32984","0.0-46.0","3YT88D1N09K989NCLVWJAA2RKY53KX","A1ROEDVMTO9Y3X","3UDTAB6HH6LRO17U79I9TKUGYFV09C","","null","<img src=""img/food1.png"" style=""width:200px; border:14px solid green;"">","null","","","","","","","","","",""
"","image-keyboard-response","33","33946","0.0-48.0","3YT88D1N09K989NCLVWJAA2RKY53KX","A1ROEDVMTO9Y3X","3UDTAB6HH6LRO17U79I9TKUGYFV09C","","960","img/food4.png","75","961.2000000029802","2","0","false","3","2","1,0.5,0,1,0.5,0,0.5,0,1","1,0.5,0,1,0.5,0,0.5,0,1","1",""
"","html-keyboard-response","34","34248","0.0-49.0","3YT88D1N09K989NCLVWJAA2RKY53KX","A1ROEDVMTO9Y3X","3UDTAB6HH6LRO17U79I9TKUGYFV09C","","null","<img src=""img/food4.png"" style=""width:200px;border:14px solid red;"">","null","","","","","","","","","",""
"","image-keyboard-response","35","35250","0.0-51.0","3YT88D1N09K989NCLVWJAA2RKY53KX","A1ROEDVMTO9Y3X","3UDTAB6HH6LRO17U79I9TKUGYFV09C","","","img/food4.png","","1002.2000000029802","-1","0","true","3","2","1,0.5,0,1,0.5,0,0.5,0,1","1,0.5,0,1,0.5,0,0.5,0,1","1",""
"","html-keyboard-response","36","35552","0.0-52.0","3YT88D1N09K989NCLVWJAA2RKY53KX","A1ROEDVMTO9Y3X","3UDTAB6HH6LRO17U79I9TKUGYFV09C","","null","<img src=""img/food4.png"" style=""width:200px;border:14px solid red;"">","null","","","","","","","","","",""
"","html-keyboard-response","37","44633","0.0-53.0-0.0","3YT88D1N09K989NCLVWJAA2RKY53KX","A1ROEDVMTO9Y3X","3UDTAB6HH6LRO17U79I9TKUGYFV09C","","","","","","","","","","","","","",""
"","image-keyboard-response","38","45133","0.0-54.0","3YT88D1N09K989NCLVWJAA2RKY53KX","A1ROEDVMTO9Y3X","3UDTAB6HH6LRO17U79I9TKUGYFV09C","","498.5","img/food4.png","74","499.70000000298023","1","0","false","3","2","1,0.5,0,1,0.5,0,0.5,0,1","1,0.5,0,1,0.5,0,0.5,0,1","1",""
"","html-keyboard-response","39","45446","0.0-55.0","3YT88D1N09K989NCLVWJAA2RKY53KX","A1ROEDVMTO9Y3X","3UDTAB6HH6LRO17U79I9TKUGYFV09C","","null","<img src=""img/food4.png"" style=""width:200px;border:14px solid red;"">","null","","","","","","","","","",""
"","image-keyboard-response","40","45953","0.0-57.0","3YT88D1N09K989NCLVWJAA2RKY53KX","A1ROEDVMTO9Y3X","3UDTAB6HH6LRO17U79I9TKUGYFV09C","","504.8999999910593","img/food1.png","76","506.29999999701977","3","0","false","1","2","1,0.5,0,1,0.5,0,0.5,0,1","1,0.5,0,1,0.5,0,0.5,0,1","1",""
"","html-keyboard-response","41","46255","0.0-58.0","3YT88D1N09K989NCLVWJAA2RKY53KX","A1ROEDVMTO9Y3X","3UDTAB6HH6LRO17U79I9TKUGYFV09C","","null","<img src=""img/food1.png"" style=""width:200px;border:14px solid red;"">","null","","","","","","","","","",""
"","image-keyboard-response","42","46635","0.0-60.0","3YT88D1N09K989NCLVWJAA2RKY53KX","A1ROEDVMTO9Y3X","3UDTAB6HH6LRO17U79I9TKUGYFV09C","","378.20000000298023","img/food1.png","75","379.20000000298023","2","1","false","1","2","1,0.5,0,1,0.5,0,0.5,0,1","1,0.5,0,1,0.5,0,0.5,0,1","1",""
"","html-keyboard-response","43","46936","0.0-61.0","3YT88D1N09K989NCLVWJAA2RKY53KX","A1ROEDVMTO9Y3X","3UDTAB6HH6LRO17U79I9TKUGYFV09C","","null","<img src=""img/food1.png"" style=""width:200px; border:14px solid green;"">","null","","","","","","","","","",""
"","image-keyboard-response","44","47477","0.0-63.0","3YT88D1N09K989NCLVWJAA2RKY53KX","A1ROEDVMTO9Y3X","3UDTAB6HH6LRO17U79I9TKUGYFV09C","","538.7000000029802","img/food1.png","74","539.6999999880791","1","1","false","1","2","1,0.5,0,1,0.5,0,0.5,0,1","1,0.5,0,1,0.5,0,0.5,0,1","1",""
"","html-keyboard-response","45","47779","0.0-64.0","3YT88D1N09K989NCLVWJAA2RKY53KX","A1ROEDVMTO9Y3X","3UDTAB6HH6LRO17U79I9TKUGYFV09C","","null","<img src=""img/food1.png"" style=""width:200px; border:14px solid green;"">","null","","","","","","","","","",""
"","image-keyboard-response","46","48402","0.0-66.0","3YT88D1N09K989NCLVWJAA2RKY53KX","A1ROEDVMTO9Y3X","3UDTAB6HH6LRO17U79I9TKUGYFV09C","","621","img/food1.png","75","622.0999999940395","2","0","false","1","2","1,0.5,0,1,0.5,0,0.5,0,1","1,0.5,0,1,0.5,0,0.5,0,1","1",""
"","html-keyboard-response","47","48704","0.0-67.0","3YT88D1N09K989NCLVWJAA2RKY53KX","A1ROEDVMTO9Y3X","3UDTAB6HH6LRO17U79I9TKUGYFV09C","","null","<img src=""img/food1.png"" style=""width:200px;border:14px solid red;"">","null","","","","","","","","","",""
"","image-keyboard-response","48","49413","0.0-69.0","3YT88D1N09K989NCLVWJAA2RKY53KX","A1ROEDVMTO9Y3X","3UDTAB6HH6LRO17U79I9TKUGYFV09C","","707.2999999970198","img/food1.png","74","708.2999999970198","1","1","false","1","2","1,0.5,0,1,0.5,0,0.5,0,1","1,0.5,0,1,0.5,0,0.5,0,1","1",""
"","html-keyboard-response","49","49714","0.0-70.0","3YT88D1N09K989NCLVWJAA2RKY53KX","A1ROEDVMTO9Y3X","3UDTAB6HH6LRO17U79I9TKUGYFV09C","","null","<img src=""img/food1.png"" style=""width:200px; border:14px solid green;"">","null","","","","","","","","","",""
"","image-keyboard-response","50","50216","0.0-72.0","3YT88D1N09K989NCLVWJAA2RKY53KX","A1ROEDVMTO9Y3X","3UDTAB6HH6LRO17U79I9TKUGYFV09C","","499.6000000089407","img/food1.png","76","500.70000000298023","3","0","false","1","2","1,0.5,0,1,0.5,0,0.5,0,1","1,0.5,0,1,0.5,0,0.5,0,1","1",""
"","html-keyboard-response","51","50518","0.0-73.0","3YT88D1N09K989NCLVWJAA2RKY53KX","A1ROEDVMTO9Y3X","3UDTAB6HH6LRO17U79I9TKUGYFV09C","","null","<img src=""img/food1.png"" style=""width:200px;border:14px solid red;"">","null","","","","","","","","","",""
"","image-keyboard-response","52","50901","0.0-75.0","3YT88D1N09K989NCLVWJAA2RKY53KX","A1ROEDVMTO9Y3X","3UDTAB6HH6LRO17U79I9TKUGYFV09C","","382.29999999701977","img/food1.png","74","383.19999998807907","1","1","false","1","2","1,0.5,0,1,0.5,0,0.5,0,1","1,0.5,0,1,0.5,0,0.5,0,1","1",""
"","html-keyboard-response","53","51203","0.0-76.0","3YT88D1N09K989NCLVWJAA2RKY53KX","A1ROEDVMTO9Y3X","3UDTAB6HH6LRO17U79I9TKUGYFV09C","","null","<img src=""img/food1.png"" style=""width:200px; border:14px solid green;"">","null","","","","","","","","","",""
"","image-keyboard-response","54","51752","0.0-78.0","3YT88D1N09K989NCLVWJAA2RKY53KX","A1ROEDVMTO9Y3X","3UDTAB6HH6LRO17U79I9TKUGYFV09C","","546.1999999880791","img/food1.png","74","547.5999999940395","1","1","false","1","2","1,0.5,0,1,0.5,0,0.5,0,1","1,0.5,0,1,0.5,0,0.5,0,1","1",""
"","html-keyboard-response","55","52054","0.0-79.0","3YT88D1N09K989NCLVWJAA2RKY53KX","A1ROEDVMTO9Y3X","3UDTAB6HH6LRO17U79I9TKUGYFV09C","","null","<img src=""img/food1.png"" style=""width:200px; border:14px solid green;"">","null","","","","","","","","","",""
"","image-keyboard-response","56","52524","0.0-81.0","3YT88D1N09K989NCLVWJAA2RKY53KX","A1ROEDVMTO9Y3X","3UDTAB6HH6LRO17U79I9TKUGYFV09C","","467.79999999701977","img/food1.png","74","469","1","1","false","1","2","1,0.5,0,1,0.5,0,0.5,0,1","1,0.5,0,1,0.5,0,0.5,0,1","1",""
"","html-keyboard-response","57","52825","0.0-82.0","3YT88D1N09K989NCLVWJAA2RKY53KX","A1ROEDVMTO9Y3X","3UDTAB6HH6LRO17U79I9TKUGYFV09C","","null","<img src=""img/food1.png"" style=""width:200px; border:14px solid green;"">","null","","","","","","","","","",""
"","image-keyboard-response","58","53293","0.0-84.0","3YT88D1N09K989NCLVWJAA2RKY53KX","A1ROEDVMTO9Y3X","3UDTAB6HH6LRO17U79I9TKUGYFV09C","","467.8999999910593","img/food1.png","74","468.40000000596046","1","1","false","1","2","1,0.5,0,1,0.5,0,0.5,0,1","1,0.5,0,1,0.5,0,0.5,0,1","1",""
"","html-keyboard-response","59","53595","0.0-85.0","3YT88D1N09K989NCLVWJAA2RKY53KX","A1ROEDVMTO9Y3X","3UDTAB6HH6LRO17U79I9TKUGYFV09C","","null","<img src=""img/food1.png"" style=""width:200px; border:14px solid green;"">","null","","","","","","","","","",""
"","image-keyboard-response","60","53978","0.0-87.0","3YT88D1N09K989NCLVWJAA2RKY53KX","A1ROEDVMTO9Y3X","3UDTAB6HH6LRO17U79I9TKUGYFV09C","","381.69999998807907","img/food6.png","74","383.20000000298023","1","1","false","2","2","1,0.5,0,1,0.5,0,0.5,0,1","1,0.5,0,1,0.5,0,0.5,0,1","1",""
"","html-keyboard-response","61","54281","0.0-88.0","3YT88D1N09K989NCLVWJAA2RKY53KX","A1ROEDVMTO9Y3X","3UDTAB6HH6LRO17U79I9TKUGYFV09C","","null","<img src=""img/food6.png"" style=""width:200px; border:14px solid green;"">","null","","","","","","","","","",""
"","image-keyboard-response","62","54698","0.0-90.0","3YT88D1N09K989NCLVWJAA2RKY53KX","A1ROEDVMTO9Y3X","3UDTAB6HH6LRO17U79I9TKUGYFV09C","","416.59999999403954","img/food6.png","74","417.29999999701977","1","1","false","2","2","1,0.5,0,1,0.5,0,0.5,0,1","1,0.5,0,1,0.5,0,0.5,0,1","1",""
"","html-keyboard-response","63","55014","0.0-91.0","3YT88D1N09K989NCLVWJAA2RKY53KX","A1ROEDVMTO9Y3X","3UDTAB6HH6LRO17U79I9TKUGYFV09C","","null","<img src=""img/food6.png"" style=""width:200px; border:14px solid green;"">","null","","","","","","","","","",""
"","image-keyboard-response","64","55500","0.0-93.0","3YT88D1N09K989NCLVWJAA2RKY53KX","A1ROEDVMTO9Y3X","3UDTAB6HH6LRO17U79I9TKUGYFV09C","","484.59999999403954","img/food6.png","74","486","1","1","false","2","2","1,0.5,0,1,0.5,0,0.5,0,1","1,0.5,0,1,0.5,0,0.5,0,1","1",""
"","html-keyboard-response","65","55803","0.0-94.0","3YT88D1N09K989NCLVWJAA2RKY53KX","A1ROEDVMTO9Y3X","3UDTAB6HH6LRO17U79I9TKUGYFV09C","","null","<img src=""img/food6.png"" style=""width:200px; border:14px solid green;"">","null","","","","","","","","","",""
"","image-keyboard-response","66","56492","0.0-96.0","3YT88D1N09K989NCLVWJAA2RKY53KX","A1ROEDVMTO9Y3X","3UDTAB6HH6LRO17U79I9TKUGYFV09C","","687.2000000029802","img/food4.png","74","688.5","1","0","false","3","2","1,0.5,0,1,0.5,0,0.5,0,1","1,0.5,0,1,0.5,0,0.5,0,1","1",""
"","html-keyboard-response","67","56794","0.0-97.0","3YT88D1N09K989NCLVWJAA2RKY53KX","A1ROEDVMTO9Y3X","3UDTAB6HH6LRO17U79I9TKUGYFV09C","","null","<img src=""img/food4.png"" style=""width:200px;border:14px solid red;"">","null","","","","","","","","","",""
"","image-keyboard-response","68","57132","0.0-99.0","3YT88D1N09K989NCLVWJAA2RKY53KX","A1ROEDVMTO9Y3X","3UDTAB6HH6LRO17U79I9TKUGYFV09C","","335.5","img/food1.png","75","336.8999999910593","2","0","false","1","2","1,0.5,0,1,0.5,0,0.5,0,1","1,0.5,0,1,0.5,0,0.5,0,1","1",""
"","html-keyboard-response","69","57435","0.0-100.0","3YT88D1N09K989NCLVWJAA2RKY53KX","A1ROEDVMTO9Y3X","3UDTAB6HH6LRO17U79I9TKUGYFV09C","","null","<img src=""img/food1.png"" style=""width:200px;border:14px solid red;"">","null","","","","","","","","","",""
"","image-keyboard-response","70","57764","0.0-102.0","3YT88D1N09K989NCLVWJAA2RKY53KX","A1ROEDVMTO9Y3X","3UDTAB6HH6LRO17U79I9TKUGYFV09C","","326.90000000596046","img/food6.png","76","328.20000000298023","3","0","false","2","2","1,0.5,0,1,0.5,0,0.5,0,1","1,0.5,0,1,0.5,0,0.5,0,1","1",""
"","html-keyboard-response","71","58067","0.0-103.0","3YT88D1N09K989NCLVWJAA2RKY53KX","A1ROEDVMTO9Y3X","3UDTAB6HH6LRO17U79I9TKUGYFV09C","","null","<img src=""img/food6.png"" style=""width:200px;border:14px solid red;"">","null","","","","","","","","","",""
"","image-keyboard-response","72","58549","0.0-105.0","3YT88D1N09K989NCLVWJAA2RKY53KX","A1ROEDVMTO9Y3X","3UDTAB6HH6LRO17U79I9TKUGYFV09C","","480.3999999910593","img/food4.png","74","481.70000000298023","1","1","false","3","2","1,0.5,0,1,0.5,0,0.5,0,1","1,0.5,0,1,0.5,0,0.5,0,1","1",""
"","html-keyboard-response","73","58851","0.0-106.0","3YT88D1N09K989NCLVWJAA2RKY53KX","A1ROEDVMTO9Y3X","3UDTAB6HH6LRO17U79I9TKUGYFV09C","","null","<img src=""img/food4.png"" style=""width:200px; border:14px solid green;"">","null","","","","","","","","","",""
"","image-keyboard-response","74","59283","0.0-108.0","3YT88D1N09K989NCLVWJAA2RKY53KX","A1ROEDVMTO9Y3X","3UDTAB6HH6LRO17U79I9TKUGYFV09C","","430.20000000298023","img/food6.png","74","431.5","1","1","false","2","2","1,0.5,0,1,0.5,0,0.5,0,1","1,0.5,0,1,0.5,0,0.5,0,1","1",""
"","html-keyboard-response","75","59585","0.0-109.0","3YT88D1N09K989NCLVWJAA2RKY53KX","A1ROEDVMTO9Y3X","3UDTAB6HH6LRO17U79I9TKUGYFV09C","","null","<img src=""img/food6.png"" style=""width:200px; border:14px solid green;"">","null","","","","","","","","","",""
"","image-keyboard-response","76","60013","0.0-111.0","3YT88D1N09K989NCLVWJAA2RKY53KX","A1ROEDVMTO9Y3X","3UDTAB6HH6LRO17U79I9TKUGYFV09C","","426.5","img/food6.png","74","427.29999999701977","1","1","false","2","2","1,0.5,0,1,0.5,0,0.5,0,1","1,0.5,0,1,0.5,0,0.5,0,1","1",""
"","html-keyboard-response","77","60314","0.0-112.0","3YT88D1N09K989NCLVWJAA2RKY53KX","A1ROEDVMTO9Y3X","3UDTAB6HH6LRO17U79I9TKUGYFV09C","","null","<img src=""img/food6.png"" style=""width:200px; border:14px solid green;"">","null","","","","","","","","","",""
"","image-keyboard-response","78","60732","0.0-114.0","3YT88D1N09K989NCLVWJAA2RKY53KX","A1ROEDVMTO9Y3X","3UDTAB6HH6LRO17U79I9TKUGYFV09C","","416.20000000298023","img/food4.png","74","417.6000000089407","1","1","false","3","2","1,0.5,0,1,0.5,0,0.5,0,1","1,0.5,0,1,0.5,0,0.5,0,1","1",""
"","html-keyboard-response","79","61035","0.0-115.0","3YT88D1N09K989NCLVWJAA2RKY53KX","A1ROEDVMTO9Y3X","3UDTAB6HH6LRO17U79I9TKUGYFV09C","","null","<img src=""img/food4.png"" style=""width:200px; border:14px solid green;"">","null","","","","","","","","","",""
"","image-keyboard-response","80","61460","0.0-117.0","3YT88D1N09K989NCLVWJAA2RKY53KX","A1ROEDVMTO9Y3X","3UDTAB6HH6LRO17U79I9TKUGYFV09C","","422.79999999701977","img/food6.png","74","424.20000000298023","1","1","false","2","2","1,0.5,0,1,0.5,0,0.5,0,1","1,0.5,0,1,0.5,0,0.5,0,1","1",""
"","html-keyboard-response","81","61762","0.0-118.0","3YT88D1N09K989NCLVWJAA2RKY53KX","A1ROEDVMTO9Y3X","3UDTAB6HH6LRO17U79I9TKUGYFV09C","","null","<img src=""img/food6.png"" style=""width:200px; border:14px solid green;"">","null","","","","","","","","","",""
"","image-keyboard-response","82","62380","0.0-120.0","3YT88D1N09K989NCLVWJAA2RKY53KX","A1ROEDVMTO9Y3X","3UDTAB6HH6LRO17U79I9TKUGYFV09C","","615.7000000029802","img/food4.png","74","617.0999999940395","1","0","false","3","2","1,0.5,0,1,0.5,0,0.5,0,1","1,0.5,0,1,0.5,0,0.5,0,1","1",""
"","html-keyboard-response","83","62683","0.0-121.0","3YT88D1N09K989NCLVWJAA2RKY53KX","A1ROEDVMTO9Y3X","3UDTAB6HH6LRO17U79I9TKUGYFV09C","","null","<img src=""img/food4.png"" style=""width:200px;border:14px solid red;"">","null","","","","","","","","","",""
"","image-keyboard-response","84","63468","0.0-123.0","3YT88D1N09K989NCLVWJAA2RKY53KX","A1ROEDVMTO9Y3X","3UDTAB6HH6LRO17U79I9TKUGYFV09C","","783.0999999940395","img/food6.png","75","784","2","0","false","2","2","1,0.5,0,1,0.5,0,0.5,0,1","1,0.5,0,1,0.5,0,0.5,0,1","1",""
"","html-keyboard-response","85","63770","0.0-124.0","3YT88D1N09K989NCLVWJAA2RKY53KX","A1ROEDVMTO9Y3X","3UDTAB6HH6LRO17U79I9TKUGYFV09C","","null","<img src=""img/food6.png"" style=""width:200px;border:14px solid red;"">","null","","","","","","","","","",""
"","image-keyboard-response","86","64056","0.0-126.0","3YT88D1N09K989NCLVWJAA2RKY53KX","A1ROEDVMTO9Y3X","3UDTAB6HH6LRO17U79I9TKUGYFV09C","","283.20000000298023","img/food1.png","76","284.5","3","0","false","1","2","1,0.5,0,1,0.5,0,0.5,0,1","1,0.5,0,1,0.5,0,0.5,0,1","1",""
"","html-keyboard-response","87","64358","0.0-127.0","3YT88D1N09K989NCLVWJAA2RKY53KX","A1ROEDVMTO9Y3X","3UDTAB6HH6LRO17U79I9TKUGYFV09C","","null","<img src=""img/food1.png"" style=""width:200px;border:14px solid red;"">","null","","","","","","","","","",""
"","image-keyboard-response","88","64647","0.0-129.0","3YT88D1N09K989NCLVWJAA2RKY53KX","A1ROEDVMTO9Y3X","3UDTAB6HH6LRO17U79I9TKUGYFV09C","","286.59999999403954","img/food1.png","74","288","1","1","false","1","2","1,0.5,0,1,0.5,0,0.5,0,1","1,0.5,0,1,0.5,0,0.5,0,1","1",""
"","html-keyboard-response","89","64950","0.0-130.0","3YT88D1N09K989NCLVWJAA2RKY53KX","A1ROEDVMTO9Y3X","3UDTAB6HH6LRO17U79I9TKUGYFV09C","","null","<img src=""img/food1.png"" style=""width:200px; border:14px solid green;"">","null","","","","","","","","","",""
"","image-keyboard-response","90","65305","0.0-132.0","3YT88D1N09K989NCLVWJAA2RKY53KX","A1ROEDVMTO9Y3X","3UDTAB6HH6LRO17U79I9TKUGYFV09C","","353.70000000298023","img/food4.png","74","354.79999999701977","1","0","false","3","2","1,0.5,0,1,0.5,0,0.5,0,1","1,0.5,0,1,0.5,0,0.5,0,1","1",""
"","html-keyboard-response","91","65607","0.0-133.0","3YT88D1N09K989NCLVWJAA2RKY53KX","A1ROEDVMTO9Y3X","3UDTAB6HH6LRO17U79I9TKUGYFV09C","","null","<img src=""img/food4.png"" style=""width:200px;border:14px solid red;"">","null","","","","","","","","","",""
"","image-keyboard-response","92","66237","0.0-135.0","3YT88D1N09K989NCLVWJAA2RKY53KX","A1ROEDVMTO9Y3X","3UDTAB6HH6LRO17U79I9TKUGYFV09C","","628.2999999970198","img/food6.png","74","629.3999999910593","1","1","false","2","2","1,0.5,0,1,0.5,0,0.5,0,1","1,0.5,0,1,0.5,0,0.5,0,1","1",""
"","html-keyboard-response","93","66553","0.0-136.0","3YT88D1N09K989NCLVWJAA2RKY53KX","A1ROEDVMTO9Y3X","3UDTAB6HH6LRO17U79I9TKUGYFV09C","","null","<img src=""img/food6.png"" style=""width:200px; border:14px solid green;"">","null","","","","","","","","","",""
"","image-keyboard-response","94","67010","0.0-138.0","3YT88D1N09K989NCLVWJAA2RKY53KX","A1ROEDVMTO9Y3X","3UDTAB6HH6LRO17U79I9TKUGYFV09C","","455.40000000596046","img/food6.png","74","456.5","1","1","false","2","2","1,0.5,0,1,0.5,0,0.5,0,1","1,0.5,0,1,0.5,0,0.5,0,1","1",""
"","html-keyboard-response","95","67313","0.0-139.0","3YT88D1N09K989NCLVWJAA2RKY53KX","A1ROEDVMTO9Y3X","3UDTAB6HH6LRO17U79I9TKUGYFV09C","","null","<img src=""img/food6.png"" style=""width:200px; border:14px solid green;"">","null","","","","","","","","","",""
"","image-keyboard-response","96","67713","0.0-141.0","3YT88D1N09K989NCLVWJAA2RKY53KX","A1ROEDVMTO9Y3X","3UDTAB6HH6LRO17U79I9TKUGYFV09C","","399.5","img/food6.png","74","400.29999999701977","1","1","false","2","2","1,0.5,0,1,0.5,0,0.5,0,1","1,0.5,0,1,0.5,0,0.5,0,1","1",""
"","html-keyboard-response","97","68015","0.0-142.0","3YT88D1N09K989NCLVWJAA2RKY53KX","A1ROEDVMTO9Y3X","3UDTAB6HH6LRO17U79I9TKUGYFV09C","","null","<img src=""img/food6.png"" style=""width:200px; border:14px solid green;"">","null","","","","","","","","","",""
"","image-keyboard-response","98","68423","0.0-144.0","3YT88D1N09K989NCLVWJAA2RKY53KX","A1ROEDVMTO9Y3X","3UDTAB6HH6LRO17U79I9TKUGYFV09C","","405.5","img/food6.png","74","406.8999999910593","1","1","false","2","2","1,0.5,0,1,0.5,0,0.5,0,1","1,0.5,0,1,0.5,0,0.5,0,1","1",""
"","html-keyboard-response","99","68739","0.0-145.0","3YT88D1N09K989NCLVWJAA2RKY53KX","A1ROEDVMTO9Y3X","3UDTAB6HH6LRO17U79I9TKUGYFV09C","","null","<img src=""img/food6.png"" style=""width:200px; border:14px solid green;"">","null","","","","","","","","","",""
"","image-keyboard-response","100","69128","0.0-147.0","3YT88D1N09K989NCLVWJAA2RKY53KX","A1ROEDVMTO9Y3X","3UDTAB6HH6LRO17U79I9TKUGYFV09C","","388","img/food4.png","74","389.20000000298023","1","1","false","3","2","1,0.5,0,1,0.5,0,0.5,0,1","1,0.5,0,1,0.5,0,0.5,0,1","1",""
"","html-keyboard-response","101","69430","0.0-148.0","3YT88D1N09K989NCLVWJAA2RKY53KX","A1ROEDVMTO9Y3X","3UDTAB6HH6LRO17U79I9TKUGYFV09C","","null","<img src=""img/food4.png"" style=""width:200px; border:14px solid green;"">","null","","","","","","","","","",""
"","image-keyboard-response","102","69912","0.0-150.0","3YT88D1N09K989NCLVWJAA2RKY53KX","A1ROEDVMTO9Y3X","3UDTAB6HH6LRO17U79I9TKUGYFV09C","","480.29999999701977","img/food1.png","74","481.6000000089407","1","1","false","1","2","1,0.5,0,1,0.5,0,0.5,0,1","1,0.5,0,1,0.5,0,0.5,0,1","1",""
"","html-keyboard-response","103","70215","0.0-151.0","3YT88D1N09K989NCLVWJAA2RKY53KX","A1ROEDVMTO9Y3X","3UDTAB6HH6LRO17U79I9TKUGYFV09C","","null","<img src=""img/food1.png"" style=""width:200px; border:14px solid green;"">","null","","","","","","","","","",""
"","image-keyboard-response","104","70857","0.0-153.0","3YT88D1N09K989NCLVWJAA2RKY53KX","A1ROEDVMTO9Y3X","3UDTAB6HH6LRO17U79I9TKUGYFV09C","","639.7000000029802","img/food4.png","74","641.1000000089407","1","0","false","3","2","1,0.5,0,1,0.5,0,0.5,0,1","1,0.5,0,1,0.5,0,0.5,0,1","1",""
"","html-keyboard-response","105","71159","0.0-154.0","3YT88D1N09K989NCLVWJAA2RKY53KX","A1ROEDVMTO9Y3X","3UDTAB6HH6LRO17U79I9TKUGYFV09C","","null","<img src=""img/food4.png"" style=""width:200px;border:14px solid red;"">","null","","","","","","","","","",""
"","image-keyboard-response","106","71961","0.0-156.0","3YT88D1N09K989NCLVWJAA2RKY53KX","A1ROEDVMTO9Y3X","3UDTAB6HH6LRO17U79I9TKUGYFV09C","","799.2999999970198","img/food1.png","75","800.7000000029802","2","1","false","1","2","1,0.5,0,1,0.5,0,0.5,0,1","1,0.5,0,1,0.5,0,0.5,0,1","1",""
"","html-keyboard-response","107","72264","0.0-157.0","3YT88D1N09K989NCLVWJAA2RKY53KX","A1ROEDVMTO9Y3X","3UDTAB6HH6LRO17U79I9TKUGYFV09C","","null","<img src=""img/food1.png"" style=""width:200px; border:14px solid green;"">","null","","","","","","","","","",""
"","image-keyboard-response","108","73146","0.0-159.0","3YT88D1N09K989NCLVWJAA2RKY53KX","A1ROEDVMTO9Y3X","3UDTAB6HH6LRO17U79I9TKUGYFV09C","","880.5","img/food4.png","75","881.4000000059605","2","0","false","3","2","1,0.5,0,1,0.5,0,0.5,0,1","1,0.5,0,1,0.5,0,0.5,0,1","1",""
"","html-keyboard-response","109","73448","0.0-160.0","3YT88D1N09K989NCLVWJAA2RKY53KX","A1ROEDVMTO9Y3X","3UDTAB6HH6LRO17U79I9TKUGYFV09C","","null","<img src=""img/food4.png"" style=""width:200px;border:14px solid red;"">","null","","","","","","","","","",""
"","image-keyboard-response","110","73828","0.0-162.0","3YT88D1N09K989NCLVWJAA2RKY53KX","A1ROEDVMTO9Y3X","3UDTAB6HH6LRO17U79I9TKUGYFV09C","","377.40000000596046","img/food6.png","74","378.80000001192093","1","1","false","2","2","1,0.5,0,1,0.5,0,0.5,0,1","1,0.5,0,1,0.5,0,0.5,0,1","1",""
"","html-keyboard-response","111","74131","0.0-163.0","3YT88D1N09K989NCLVWJAA2RKY53KX","A1ROEDVMTO9Y3X","3UDTAB6HH6LRO17U79I9TKUGYFV09C","","null","<img src=""img/food6.png"" style=""width:200px; border:14px solid green;"">","null","","","","","","","","","",""
"","image-keyboard-response","112","74667","0.0-165.0","3YT88D1N09K989NCLVWJAA2RKY53KX","A1ROEDVMTO9Y3X","3UDTAB6HH6LRO17U79I9TKUGYFV09C","","535.0999999940395","img/food1.png","74","535.5","1","1","false","1","2","1,0.5,0,1,0.5,0,0.5,0,1","1,0.5,0,1,0.5,0,0.5,0,1","1",""
"","html-keyboard-response","113","74969","0.0-166.0","3YT88D1N09K989NCLVWJAA2RKY53KX","A1ROEDVMTO9Y3X","3UDTAB6HH6LRO17U79I9TKUGYFV09C","","null","<img src=""img/food1.png"" style=""width:200px; border:14px solid green;"">","null","","","","","","","","","",""
"","image-keyboard-response","114","75391","0.0-168.0","3YT88D1N09K989NCLVWJAA2RKY53KX","A1ROEDVMTO9Y3X","3UDTAB6HH6LRO17U79I9TKUGYFV09C","","420.3999999910593","img/food1.png","74","421.79999999701977","1","1","false","1","2","1,0.5,0,1,0.5,0,0.5,0,1","1,0.5,0,1,0.5,0,0.5,0,1","1",""
"","html-keyboard-response","115","75694","0.0-169.0","3YT88D1N09K989NCLVWJAA2RKY53KX","A1ROEDVMTO9Y3X","3UDTAB6HH6LRO17U79I9TKUGYFV09C","","null","<img src=""img/food1.png"" style=""width:200px; border:14px solid green;"">","null","","","","","","","","","",""
"","image-keyboard-response","116","76155","0.0-171.0","3YT88D1N09K989NCLVWJAA2RKY53KX","A1ROEDVMTO9Y3X","3UDTAB6HH6LRO17U79I9TKUGYFV09C","","458.69999998807907","img/food1.png","74","460","1","1","false","1","2","1,0.5,0,1,0.5,0,0.5,0,1","1,0.5,0,1,0.5,0,0.5,0,1","1",""
"","html-keyboard-response","117","76458","0.0-172.0","3YT88D1N09K989NCLVWJAA2RKY53KX","A1ROEDVMTO9Y3X","3UDTAB6HH6LRO17U79I9TKUGYFV09C","","null","<img src=""img/food1.png"" style=""width:200px; border:14px solid green;"">","null","","","","","","","","","",""
"","image-keyboard-response","118","76915","0.0-174.0","3YT88D1N09K989NCLVWJAA2RKY53KX","A1ROEDVMTO9Y3X","3UDTAB6HH6LRO17U79I9TKUGYFV09C","","454.90000000596046","img/food4.png","74","456.20000000298023","1","0","false","3","2","1,0.5,0,1,0.5,0,0.5,0,1","1,0.5,0,1,0.5,0,0.5,0,1","1",""
"","html-keyboard-response","119","77216","0.0-175.0","3YT88D1N09K989NCLVWJAA2RKY53KX","A1ROEDVMTO9Y3X","3UDTAB6HH6LRO17U79I9TKUGYFV09C","","null","<img src=""img/food4.png"" style=""width:200px;border:14px solid red;"">","null","","","","","","","","","",""
"","image-keyboard-response","120","78218","0.0-177.0","3YT88D1N09K989NCLVWJAA2RKY53KX","A1ROEDVMTO9Y3X","3UDTAB6HH6LRO17U79I9TKUGYFV09C","","","img/food1.png","","1002","-1","0","true","1","2","1,0.5,0,1,0.5,0,0.5,0,1","1,0.5,0,1,0.5,0,0.5,0,1","1",""
"","html-keyboard-response","121","78521","0.0-178.0","3YT88D1N09K989NCLVWJAA2RKY53KX","A1ROEDVMTO9Y3X","3UDTAB6HH6LRO17U79I9TKUGYFV09C","","null","<img src=""img/food1.png"" style=""width:200px;border:14px solid red;"">","null","","","","","","","","","",""
"","html-keyboard-response","122","81114","0.0-179.0-0.0","3YT88D1N09K989NCLVWJAA2RKY53KX","A1ROEDVMTO9Y3X","3UDTAB6HH6LRO17U79I9TKUGYFV09C","","","","","","","","","","","","","",""
"","image-keyboard-response","123","81735","0.0-180.0","3YT88D1N09K989NCLVWJAA2RKY53KX","A1ROEDVMTO9Y3X","3UDTAB6HH6LRO17U79I9TKUGYFV09C","","619.8000000119209","img/food4.png","74","620.8000000119209","1","1","false","3","2","1,0.5,0,1,0.5,0,0.5,0,1","1,0.5,0,1,0.5,0,0.5,0,1","1",""
"","html-keyboard-response","124","82037","0.0-181.0","3YT88D1N09K989NCLVWJAA2RKY53KX","A1ROEDVMTO9Y3X","3UDTAB6HH6LRO17U79I9TKUGYFV09C","","null","<img src=""img/food4.png"" style=""width:200px; border:14px solid green;"">","null","","","","","","","","","",""
"","image-keyboard-response","125","82204","0.0-183.0","3YT88D1N09K989NCLVWJAA2RKY53KX","A1ROEDVMTO9Y3X","3UDTAB6HH6LRO17U79I9TKUGYFV09C","","164.79999999701977","img/food4.png","75","166.09999999403954","2","0","false","3","2","1,0.5,0,1,0.5,0,0.5,0,1","1,0.5,0,1,0.5,0,0.5,0,1","1",""
"","html-keyboard-response","126","82506","0.0-184.0","3YT88D1N09K989NCLVWJAA2RKY53KX","A1ROEDVMTO9Y3X","3UDTAB6HH6LRO17U79I9TKUGYFV09C","","null","<img src=""img/food4.png"" style=""width:200px;border:14px solid red;"">","null","","","","","","","","","",""
"","image-keyboard-response","127","82854","0.0-186.0","3YT88D1N09K989NCLVWJAA2RKY53KX","A1ROEDVMTO9Y3X","3UDTAB6HH6LRO17U79I9TKUGYFV09C","","345.59999999403954","img/food6.png","74","346.80000001192093","1","1","false","2","2","1,0.5,0,1,0.5,0,0.5,0,1","1,0.5,0,1,0.5,0,0.5,0,1","1",""
"","html-keyboard-response","128","83158","0.0-187.0","3YT88D1N09K989NCLVWJAA2RKY53KX","A1ROEDVMTO9Y3X","3UDTAB6HH6LRO17U79I9TKUGYFV09C","","null","<img src=""img/food6.png"" style=""width:200px; border:14px solid green;"">","null","","","","","","","","","",""
"","image-keyboard-response","129","83831","0.0-189.0","3YT88D1N09K989NCLVWJAA2RKY53KX","A1ROEDVMTO9Y3X","3UDTAB6HH6LRO17U79I9TKUGYFV09C","","670.9000000059605","img/food4.png","74","672.2999999970198","1","1","false","3","2","1,0.5,0,1,0.5,0,0.5,0,1","1,0.5,0,1,0.5,0,0.5,0,1","1",""
"","html-keyboard-response","130","84133","0.0-190.0","3YT88D1N09K989NCLVWJAA2RKY53KX","A1ROEDVMTO9Y3X","3UDTAB6HH6LRO17U79I9TKUGYFV09C","","null","<img src=""img/food4.png"" style=""width:200px; border:14px solid green;"">","null","","","","","","","","","",""
"","image-keyboard-response","131","84285","0.0-192.0","3YT88D1N09K989NCLVWJAA2RKY53KX","A1ROEDVMTO9Y3X","3UDTAB6HH6LRO17U79I9TKUGYFV09C","","150.5","img/food6.png","76","152.19999998807907","3","0","false","2","2","1,0.5,0,1,0.5,0,0.5,0,1","1,0.5,0,1,0.5,0,0.5,0,1","1",""
"","html-keyboard-response","132","84587","0.0-193.0","3YT88D1N09K989NCLVWJAA2RKY53KX","A1ROEDVMTO9Y3X","3UDTAB6HH6LRO17U79I9TKUGYFV09C","","null","<img src=""img/food6.png"" style=""width:200px;border:14px solid red;"">","null","","","","","","","","","",""
"","image-keyboard-response","133","84811","0.0-195.0","3YT88D1N09K989NCLVWJAA2RKY53KX","A1ROEDVMTO9Y3X","3UDTAB6HH6LRO17U79I9TKUGYFV09C","","221.5","img/food1.png","74","222.70000000298023","1","1","false","1","2","1,0.5,0,1,0.5,0,0.5,0,1","1,0.5,0,1,0.5,0,0.5,0,1","1",""
"","html-keyboard-response","134","85113","0.0-196.0","3YT88D1N09K989NCLVWJAA2RKY53KX","A1ROEDVMTO9Y3X","3UDTAB6HH6LRO17U79I9TKUGYFV09C","","null","<img src=""img/food1.png"" style=""width:200px; border:14px solid green;"">","null","","","","","","","","","",""
"","image-keyboard-response","135","85347","0.0-198.0","3YT88D1N09K989NCLVWJAA2RKY53KX","A1ROEDVMTO9Y3X","3UDTAB6HH6LRO17U79I9TKUGYFV09C","","233","img/food4.png","74","234.19999998807907","1","0","false","3","2","1,0.5,0,1,0.5,0,0.5,0,1","1,0.5,0,1,0.5,0,0.5,0,1","1",""
"","html-keyboard-response","136","85656","0.0-199.0","3YT88D1N09K989NCLVWJAA2RKY53KX","A1ROEDVMTO9Y3X","3UDTAB6HH6LRO17U79I9TKUGYFV09C","","null","<img src=""img/food4.png"" style=""width:200px;border:14px solid red;"">","null","","","","","","","","","",""
"","image-keyboard-response","137","85995","0.0-201.0","3YT88D1N09K989NCLVWJAA2RKY53KX","A1ROEDVMTO9Y3X","3UDTAB6HH6LRO17U79I9TKUGYFV09C","","337.30000001192093","img/food4.png","75","338.80000001192093","2","0","false","3","2","1,0.5,0,1,0.5,0,0.5,0,1","1,0.5,0,1,0.5,0,0.5,0,1","1",""
"","html-keyboard-response","138","86298","0.0-202.0","3YT88D1N09K989NCLVWJAA2RKY53KX","A1ROEDVMTO9Y3X","3UDTAB6HH6LRO17U79I9TKUGYFV09C","","null","<img src=""img/food4.png"" style=""width:200px;border:14px solid red;"">","null","","","","","","","","","",""
"","image-keyboard-response","139","86754","0.0-204.0","3YT88D1N09K989NCLVWJAA2RKY53KX","A1ROEDVMTO9Y3X","3UDTAB6HH6LRO17U79I9TKUGYFV09C","","455.6000000089407","img/food1.png","74","455.90000000596046","1","1","false","1","2","1,0.5,0,1,0.5,0,0.5,0,1","1,0.5,0,1,0.5,0,0.5,0,1","1",""
"","html-keyboard-response","140","87055","0.0-205.0","3YT88D1N09K989NCLVWJAA2RKY53KX","A1ROEDVMTO9Y3X","3UDTAB6HH6LRO17U79I9TKUGYFV09C","","null","<img src=""img/food1.png"" style=""width:200px; border:14px solid green;"">","null","","","","","","","","","",""
"","image-keyboard-response","141","87535","0.0-207.0","3YT88D1N09K989NCLVWJAA2RKY53KX","A1ROEDVMTO9Y3X","3UDTAB6HH6LRO17U79I9TKUGYFV09C","","479.5","img/food4.png","76","480","3","1","false","3","2","1,0.5,0,1,0.5,0,0.5,0,1","1,0.5,0,1,0.5,0,0.5,0,1","1",""
"","html-keyboard-response","142","87837","0.0-208.0","3YT88D1N09K989NCLVWJAA2RKY53KX","A1ROEDVMTO9Y3X","3UDTAB6HH6LRO17U79I9TKUGYFV09C","","null","<img src=""img/food4.png"" style=""width:200px; border:14px solid green;"">","null","","","","","","","","","",""
"","image-keyboard-response","143","88297","0.0-210.0","3YT88D1N09K989NCLVWJAA2RKY53KX","A1ROEDVMTO9Y3X","3UDTAB6HH6LRO17U79I9TKUGYFV09C","","458.5","img/food4.png","76","459.8999999910593","3","1","false","3","2","1,0.5,0,1,0.5,0,0.5,0,1","1,0.5,0,1,0.5,0,0.5,0,1","1",""
"","html-keyboard-response","144","88600","0.0-211.0","3YT88D1N09K989NCLVWJAA2RKY53KX","A1ROEDVMTO9Y3X","3UDTAB6HH6LRO17U79I9TKUGYFV09C","","null","<img src=""img/food4.png"" style=""width:200px; border:14px solid green;"">","null","","","","","","","","","",""
"","image-keyboard-response","145","89144","0.0-213.0","3YT88D1N09K989NCLVWJAA2RKY53KX","A1ROEDVMTO9Y3X","3UDTAB6HH6LRO17U79I9TKUGYFV09C","","542","img/food6.png","76","543","3","0","false","2","2","1,0.5,0,1,0.5,0,0.5,0,1","1,0.5,0,1,0.5,0,0.5,0,1","1",""
"","html-keyboard-response","146","89446","0.0-214.0","3YT88D1N09K989NCLVWJAA2RKY53KX","A1ROEDVMTO9Y3X","3UDTAB6HH6LRO17U79I9TKUGYFV09C","","null","<img src=""img/food6.png"" style=""width:200px;border:14px solid red;"">","null","","","","","","","","","",""
"","image-keyboard-response","147","89950","0.0-216.0","3YT88D1N09K989NCLVWJAA2RKY53KX","A1ROEDVMTO9Y3X","3UDTAB6HH6LRO17U79I9TKUGYFV09C","","502.29999999701977","img/food1.png","74","503.69999998807907","1","1","false","1","2","1,0.5,0,1,0.5,0,0.5,0,1","1,0.5,0,1,0.5,0,0.5,0,1","1",""
"","html-keyboard-response","148","90253","0.0-217.0","3YT88D1N09K989NCLVWJAA2RKY53KX","A1ROEDVMTO9Y3X","3UDTAB6HH6LRO17U79I9TKUGYFV09C","","null","<img src=""img/food1.png"" style=""width:200px; border:14px solid green;"">","null","","","","","","","","","",""
"","image-keyboard-response","149","90692","0.0-219.0","3YT88D1N09K989NCLVWJAA2RKY53KX","A1ROEDVMTO9Y3X","3UDTAB6HH6LRO17U79I9TKUGYFV09C","","438.90000000596046","img/food1.png","74","439.20000000298023","1","1","false","1","2","1,0.5,0,1,0.5,0,0.5,0,1","1,0.5,0,1,0.5,0,0.5,0,1","1",""
"","html-keyboard-response","150","90994","0.0-220.0","3YT88D1N09K989NCLVWJAA2RKY53KX","A1ROEDVMTO9Y3X","3UDTAB6HH6LRO17U79I9TKUGYFV09C","","null","<img src=""img/food1.png"" style=""width:200px; border:14px solid green;"">","null","","","","","","","","","",""
"","image-keyboard-response","151","91492","0.0-222.0","3YT88D1N09K989NCLVWJAA2RKY53KX","A1ROEDVMTO9Y3X","3UDTAB6HH6LRO17U79I9TKUGYFV09C","","495.79999999701977","img/food1.png","75","497.1000000089407","2","0","false","1","2","1,0.5,0,1,0.5,0,0.5,0,1","1,0.5,0,1,0.5,0,0.5,0,1","1",""
"","html-keyboard-response","152","91794","0.0-223.0","3YT88D1N09K989NCLVWJAA2RKY53KX","A1ROEDVMTO9Y3X","3UDTAB6HH6LRO17U79I9TKUGYFV09C","","null","<img src=""img/food1.png"" style=""width:200px;border:14px solid red;"">","null","","","","","","","","","",""
"","image-keyboard-response","153","92171","0.0-225.0","3YT88D1N09K989NCLVWJAA2RKY53KX","A1ROEDVMTO9Y3X","3UDTAB6HH6LRO17U79I9TKUGYFV09C","","375.29999999701977","img/food1.png","76","376.59999999403954","3","0","false","1","2","1,0.5,0,1,0.5,0,0.5,0,1","1,0.5,0,1,0.5,0,0.5,0,1","1",""
"","html-keyboard-response","154","92474","0.0-226.0","3YT88D1N09K989NCLVWJAA2RKY53KX","A1ROEDVMTO9Y3X","3UDTAB6HH6LRO17U79I9TKUGYFV09C","","null","<img src=""img/food1.png"" style=""width:200px;border:14px solid red;"">","null","","","","","","","","","",""
"","image-keyboard-response","155","92917","0.0-228.0","3YT88D1N09K989NCLVWJAA2RKY53KX","A1ROEDVMTO9Y3X","3UDTAB6HH6LRO17U79I9TKUGYFV09C","","441.40000000596046","img/food4.png","74","442.29999999701977","1","0","false","3","2","1,0.5,0,1,0.5,0,0.5,0,1","1,0.5,0,1,0.5,0,0.5,0,1","1",""
"","html-keyboard-response","156","93218","0.0-229.0","3YT88D1N09K989NCLVWJAA2RKY53KX","A1ROEDVMTO9Y3X","3UDTAB6HH6LRO17U79I9TKUGYFV09C","","null","<img src=""img/food4.png"" style=""width:200px;border:14px solid red;"">","null","","","","","","","","","",""
"","image-keyboard-response","157","93551","0.0-231.0","3YT88D1N09K989NCLVWJAA2RKY53KX","A1ROEDVMTO9Y3X","3UDTAB6HH6LRO17U79I9TKUGYFV09C","","331.8999999910593","img/food6.png","76","332.6000000089407","3","0","false","2","2","1,0.5,0,1,0.5,0,0.5,0,1","1,0.5,0,1,0.5,0,0.5,0,1","1",""
"","html-keyboard-response","158","93853","0.0-232.0","3YT88D1N09K989NCLVWJAA2RKY53KX","A1ROEDVMTO9Y3X","3UDTAB6HH6LRO17U79I9TKUGYFV09C","","null","<img src=""img/food6.png"" style=""width:200px;border:14px solid red;"">","null","","","","","","","","","",""
"","image-keyboard-response","159","94073","0.0-234.0","3YT88D1N09K989NCLVWJAA2RKY53KX","A1ROEDVMTO9Y3X","3UDTAB6HH6LRO17U79I9TKUGYFV09C","","218","img/food1.png","74","219.5","1","1","false","1","2","1,0.5,0,1,0.5,0,0.5,0,1","1,0.5,0,1,0.5,0,0.5,0,1","1",""
"","html-keyboard-response","160","94374","0.0-235.0","3YT88D1N09K989NCLVWJAA2RKY53KX","A1ROEDVMTO9Y3X","3UDTAB6HH6LRO17U79I9TKUGYFV09C","","null","<img src=""img/food1.png"" style=""width:200px; border:14px solid green;"">","null","","","","","","","","","",""
"","image-keyboard-response","161","94789","0.0-237.0","3YT88D1N09K989NCLVWJAA2RKY53KX","A1ROEDVMTO9Y3X","3UDTAB6HH6LRO17U79I9TKUGYFV09C","","412.30000001192093","img/food4.png","74","413.5","1","1","false","3","2","1,0.5,0,1,0.5,0,0.5,0,1","1,0.5,0,1,0.5,0,0.5,0,1","1",""
"","html-keyboard-response","162","95091","0.0-238.0","3YT88D1N09K989NCLVWJAA2RKY53KX","A1ROEDVMTO9Y3X","3UDTAB6HH6LRO17U79I9TKUGYFV09C","","null","<img src=""img/food4.png"" style=""width:200px; border:14px solid green;"">","null","","","","","","","","","",""
"","image-keyboard-response","163","95361","0.0-240.0","3YT88D1N09K989NCLVWJAA2RKY53KX","A1ROEDVMTO9Y3X","3UDTAB6HH6LRO17U79I9TKUGYFV09C","","268.90000000596046","img/food6.png","75","270.09999999403954","2","0","false","2","2","1,0.5,0,1,0.5,0,0.5,0,1","1,0.5,0,1,0.5,0,0.5,0,1","1",""
"","html-keyboard-response","164","95664","0.0-241.0","3YT88D1N09K989NCLVWJAA2RKY53KX","A1ROEDVMTO9Y3X","3UDTAB6HH6LRO17U79I9TKUGYFV09C","","null","<img src=""img/food6.png"" style=""width:200px;border:14px solid red;"">","null","","","","","","","","","",""
"","image-keyboard-response","165","95817","0.0-243.0","3YT88D1N09K989NCLVWJAA2RKY53KX","A1ROEDVMTO9Y3X","3UDTAB6HH6LRO17U79I9TKUGYFV09C","","151","img/food4.png","74","152.3999999910593","1","0","false","3","2","1,0.5,0,1,0.5,0,0.5,0,1","1,0.5,0,1,0.5,0,0.5,0,1","1",""
"","html-keyboard-response","166","96120","0.0-244.0","3YT88D1N09K989NCLVWJAA2RKY53KX","A1ROEDVMTO9Y3X","3UDTAB6HH6LRO17U79I9TKUGYFV09C","","null","<img src=""img/food4.png"" style=""width:200px;border:14px solid red;"">","null","","","","","","","","","",""
"","image-keyboard-response","167","96341","0.0-246.0","3YT88D1N09K989NCLVWJAA2RKY53KX","A1ROEDVMTO9Y3X","3UDTAB6HH6LRO17U79I9TKUGYFV09C","","218.70000000298023","img/food6.png","74","220.1000000089407","1","1","false","2","2","1,0.5,0,1,0.5,0,0.5,0,1","1,0.5,0,1,0.5,0,0.5,0,1","1",""
"","html-keyboard-response","168","96645","0.0-247.0","3YT88D1N09K989NCLVWJAA2RKY53KX","A1ROEDVMTO9Y3X","3UDTAB6HH6LRO17U79I9TKUGYFV09C","","null","<img src=""img/food6.png"" style=""width:200px; border:14px solid green;"">","null","","","","","","","","","",""
"","image-keyboard-response","169","96876","0.0-249.0","3YT88D1N09K989NCLVWJAA2RKY53KX","A1ROEDVMTO9Y3X","3UDTAB6HH6LRO17U79I9TKUGYFV09C","","229.09999999403954","img/food6.png","74","230.5","1","1","false","2","2","1,0.5,0,1,0.5,0,0.5,0,1","1,0.5,0,1,0.5,0,0.5,0,1","1",""
"","html-keyboard-response","170","97178","0.0-250.0","3YT88D1N09K989NCLVWJAA2RKY53KX","A1ROEDVMTO9Y3X","3UDTAB6HH6LRO17U79I9TKUGYFV09C","","null","<img src=""img/food6.png"" style=""width:200px; border:14px solid green;"">","null","","","","","","","","","",""
"","image-keyboard-response","171","97437","0.0-252.0","3YT88D1N09K989NCLVWJAA2RKY53KX","A1ROEDVMTO9Y3X","3UDTAB6HH6LRO17U79I9TKUGYFV09C","","257.20000000298023","img/food6.png","74","258.6000000089407","1","1","false","2","2","1,0.5,0,1,0.5,0,0.5,0,1","1,0.5,0,1,0.5,0,0.5,0,1","1",""
"","html-keyboard-response","172","97741","0.0-253.0","3YT88D1N09K989NCLVWJAA2RKY53KX","A1ROEDVMTO9Y3X","3UDTAB6HH6LRO17U79I9TKUGYFV09C","","null","<img src=""img/food6.png"" style=""width:200px; border:14px solid green;"">","null","","","","","","","","","",""
"","image-keyboard-response","173","98092","0.0-255.0","3YT88D1N09K989NCLVWJAA2RKY53KX","A1ROEDVMTO9Y3X","3UDTAB6HH6LRO17U79I9TKUGYFV09C","","349.20000000298023","img/food1.png","74","350.70000000298023","1","1","false","1","2","1,0.5,0,1,0.5,0,0.5,0,1","1,0.5,0,1,0.5,0,0.5,0,1","1",""
"","html-keyboard-response","174","98397","0.0-256.0","3YT88D1N09K989NCLVWJAA2RKY53KX","A1ROEDVMTO9Y3X","3UDTAB6HH6LRO17U79I9TKUGYFV09C","","null","<img src=""img/food1.png"" style=""width:200px; border:14px solid green;"">","null","","","","","","","","","",""
"","image-keyboard-response","175","98877","0.0-258.0","3YT88D1N09K989NCLVWJAA2RKY53KX","A1ROEDVMTO9Y3X","3UDTAB6HH6LRO17U79I9TKUGYFV09C","","479.29999999701977","img/food6.png","74","480.09999999403954","1","1","false","2","2","1,0.5,0,1,0.5,0,0.5,0,1","1,0.5,0,1,0.5,0,0.5,0,1","1",""
"","html-keyboard-response","176","99180","0.0-259.0","3YT88D1N09K989NCLVWJAA2RKY53KX","A1ROEDVMTO9Y3X","3UDTAB6HH6LRO17U79I9TKUGYFV09C","","null","<img src=""img/food6.png"" style=""width:200px; border:14px solid green;"">","null","","","","","","","","","",""
"","image-keyboard-response","177","99408","0.0-261.0","3YT88D1N09K989NCLVWJAA2RKY53KX","A1ROEDVMTO9Y3X","3UDTAB6HH6LRO17U79I9TKUGYFV09C","","226.5","img/food1.png","74","227.6000000089407","1","1","false","1","2","1,0.5,0,1,0.5,0,0.5,0,1","1,0.5,0,1,0.5,0,0.5,0,1","1",""
"","html-keyboard-response","178","99710","0.0-262.0","3YT88D1N09K989NCLVWJAA2RKY53KX","A1ROEDVMTO9Y3X","3UDTAB6HH6LRO17U79I9TKUGYFV09C","","null","<img src=""img/food1.png"" style=""width:200px; border:14px solid green;"">","null","","","","","","","","","",""
"","image-keyboard-response","179","99940","0.0-264.0","3YT88D1N09K989NCLVWJAA2RKY53KX","A1ROEDVMTO9Y3X","3UDTAB6HH6LRO17U79I9TKUGYFV09C","","228","img/food4.png","74","229.3999999910593","1","0","false","3","2","1,0.5,0,1,0.5,0,0.5,0,1","1,0.5,0,1,0.5,0,0.5,0,1","1",""
"","html-keyboard-response","180","100243","0.0-265.0","3YT88D1N09K989NCLVWJAA2RKY53KX","A1ROEDVMTO9Y3X","3UDTAB6HH6LRO17U79I9TKUGYFV09C","","null","<img src=""img/food4.png"" style=""width:200px;border:14px solid red;"">","null","","","","","","","","","",""
"","image-keyboard-response","181","100521","0.0-267.0","3YT88D1N09K989NCLVWJAA2RKY53KX","A1ROEDVMTO9Y3X","3UDTAB6HH6LRO17U79I9TKUGYFV09C","","275.70000000298023","img/food6.png","74","277.19999998807907","1","1","false","2","2","1,0.5,0,1,0.5,0,0.5,0,1","1,0.5,0,1,0.5,0,0.5,0,1","1",""
"","html-keyboard-response","182","100824","0.0-268.0","3YT88D1N09K989NCLVWJAA2RKY53KX","A1ROEDVMTO9Y3X","3UDTAB6HH6LRO17U79I9TKUGYFV09C","","null","<img src=""img/food6.png"" style=""width:200px; border:14px solid green;"">","null","","","","","","","","","",""
"","image-keyboard-response","183","101119","0.0-270.0","3YT88D1N09K989NCLVWJAA2RKY53KX","A1ROEDVMTO9Y3X","3UDTAB6HH6LRO17U79I9TKUGYFV09C","","293.79999999701977","img/food4.png","74","294.70000000298023","1","1","false","3","2","1,0.5,0,1,0.5,0,0.5,0,1","1,0.5,0,1,0.5,0,0.5,0,1","1",""
"","html-keyboard-response","184","101420","0.0-271.0","3YT88D1N09K989NCLVWJAA2RKY53KX","A1ROEDVMTO9Y3X","3UDTAB6HH6LRO17U79I9TKUGYFV09C","","null","<img src=""img/food4.png"" style=""width:200px; border:14px solid green;"">","null","","","","","","","","","",""
"","instructions","185","120194","0.0-273.0","3YT88D1N09K989NCLVWJAA2RKY53KX","A1ROEDVMTO9Y3X","3UDTAB6HH6LRO17U79I9TKUGYFV09C","[{""page_index"":0,""viewing_time"":17805.70000000298},{""page_index"":1,""viewing_time"":968.0999999940395}]","18774.09999999404","","","","","","","","","","","",""
"","image-keyboard-response","186","120659","0.0-274.0","3YT88D1N09K989NCLVWJAA2RKY53KX","A1ROEDVMTO9Y3X","3UDTAB6HH6LRO17U79I9TKUGYFV09C","","463.59999999403954","img/food2.png","74","464.80000001192093","1","1","","3","1","1,0.5,0,1,0.5,0,0.5,0,1","0,1,0.5,0,1,0.5,1,0.5,0","3",""
"","html-keyboard-response","187","120962","0.0-275.0","3YT88D1N09K989NCLVWJAA2RKY53KX","A1ROEDVMTO9Y3X","3UDTAB6HH6LRO17U79I9TKUGYFV09C","","null","<img src=""img/food2.png"" style=""width:200px; border:14px solid green;"">","null","","","","","","","","","",""
"","image-keyboard-response","188","121421","0.0-276.0","3YT88D1N09K989NCLVWJAA2RKY53KX","A1ROEDVMTO9Y3X","3UDTAB6HH6LRO17U79I9TKUGYFV09C","","456.90000000596046","img/food3.png","75","458.3999999910593","2","1","","2","1","1,0.5,0,1,0.5,0,0.5,0,1","0,1,0.5,0,1,0.5,1,0.5,0","3",""
"","html-keyboard-response","189","121723","0.0-277.0","3YT88D1N09K989NCLVWJAA2RKY53KX","A1ROEDVMTO9Y3X","3UDTAB6HH6LRO17U79I9TKUGYFV09C","","null","<img src=""img/food3.png"" style=""width:200px; border:14px solid green;"">","null","","","","","","","","","",""
"","image-keyboard-response","190","122199","0.0-278.0","3YT88D1N09K989NCLVWJAA2RKY53KX","A1ROEDVMTO9Y3X","3UDTAB6HH6LRO17U79I9TKUGYFV09C","","473.70000000298023","img/food5.png","76","475","3","1","","1","1","1,0.5,0,1,0.5,0,0.5,0,1","0,1,0.5,0,1,0.5,1,0.5,0","3",""
"","html-keyboard-response","191","122501","0.0-279.0","3YT88D1N09K989NCLVWJAA2RKY53KX","A1ROEDVMTO9Y3X","3UDTAB6HH6LRO17U79I9TKUGYFV09C","","null","<img src=""img/food5.png"" style=""width:200px; border:14px solid green;"">","null","","","","","","","","","",""
"","image-keyboard-response","192","122937","0.0-280.0","3YT88D1N09K989NCLVWJAA2RKY53KX","A1ROEDVMTO9Y3X","3UDTAB6HH6LRO17U79I9TKUGYFV09C","","434.79999999701977","img/food5.png","74","435.40000000596046","1","0","","1","1","1,0.5,0,1,0.5,0,0.5,0,1","0,1,0.5,0,1,0.5,1,0.5,0","3",""
"","html-keyboard-response","193","123240","0.0-281.0","3YT88D1N09K989NCLVWJAA2RKY53KX","A1ROEDVMTO9Y3X","3UDTAB6HH6LRO17U79I9TKUGYFV09C","","null","<img src=""img/food5.png"" style=""width:200px;border:14px solid red;"">","null","","","","","","","","","",""
"","image-keyboard-response","194","123800","0.0-282.0","3YT88D1N09K989NCLVWJAA2RKY53KX","A1ROEDVMTO9Y3X","3UDTAB6HH6LRO17U79I9TKUGYFV09C","","559.6999999880791","img/food2.png","75","560.4000000059605","2","1","","3","1","1,0.5,0,1,0.5,0,0.5,0,1","0,1,0.5,0,1,0.5,1,0.5,0","3",""
"","html-keyboard-response","195","124102","0.0-283.0","3YT88D1N09K989NCLVWJAA2RKY53KX","A1ROEDVMTO9Y3X","3UDTAB6HH6LRO17U79I9TKUGYFV09C","","null","<img src=""img/food2.png"" style=""width:200px; border:14px solid green;"">","null","","","","","","","","","",""
"","image-keyboard-response","196","124560","0.0-284.0","3YT88D1N09K989NCLVWJAA2RKY53KX","A1ROEDVMTO9Y3X","3UDTAB6HH6LRO17U79I9TKUGYFV09C","","456","img/food3.png","75","457.09999999403954","2","1","","2","1","1,0.5,0,1,0.5,0,0.5,0,1","0,1,0.5,0,1,0.5,1,0.5,0","3",""
"","html-keyboard-response","197","124862","0.0-285.0","3YT88D1N09K989NCLVWJAA2RKY53KX","A1ROEDVMTO9Y3X","3UDTAB6HH6LRO17U79I9TKUGYFV09C","","null","<img src=""img/food3.png"" style=""width:200px; border:14px solid green;"">","null","","","","","","","","","",""
"","image-keyboard-response","198","125254","0.0-286.0","3YT88D1N09K989NCLVWJAA2RKY53KX","A1ROEDVMTO9Y3X","3UDTAB6HH6LRO17U79I9TKUGYFV09C","","391","img/food2.png","75","391.90000000596046","2","0","","3","1","1,0.5,0,1,0.5,0,0.5,0,1","0,1,0.5,0,1,0.5,1,0.5,0","3",""
"","html-keyboard-response","199","125556","0.0-287.0","3YT88D1N09K989NCLVWJAA2RKY53KX","A1ROEDVMTO9Y3X","3UDTAB6HH6LRO17U79I9TKUGYFV09C","","null","<img src=""img/food2.png"" style=""width:200px;border:14px solid red;"">","null","","","","","","","","","",""
"","image-keyboard-response","200","125951","0.0-288.0","3YT88D1N09K989NCLVWJAA2RKY53KX","A1ROEDVMTO9Y3X","3UDTAB6HH6LRO17U79I9TKUGYFV09C","","393.20000000298023","img/food3.png","76","394.3999999910593","3","0","","2","1","1,0.5,0,1,0.5,0,0.5,0,1","0,1,0.5,0,1,0.5,1,0.5,0","3",""
"","html-keyboard-response","201","126253","0.0-289.0","3YT88D1N09K989NCLVWJAA2RKY53KX","A1ROEDVMTO9Y3X","3UDTAB6HH6LRO17U79I9TKUGYFV09C","","null","<img src=""img/food3.png"" style=""width:200px;border:14px solid red;"">","null","","","","","","","","","",""
"","image-keyboard-response","202","126572","0.0-290.0","3YT88D1N09K989NCLVWJAA2RKY53KX","A1ROEDVMTO9Y3X","3UDTAB6HH6LRO17U79I9TKUGYFV09C","","318.20000000298023","img/food2.png","74","318.79999999701977","1","1","","3","1","1,0.5,0,1,0.5,0,0.5,0,1","0,1,0.5,0,1,0.5,1,0.5,0","3",""
"","html-keyboard-response","203","126874","0.0-291.0","3YT88D1N09K989NCLVWJAA2RKY53KX","A1ROEDVMTO9Y3X","3UDTAB6HH6LRO17U79I9TKUGYFV09C","","null","<img src=""img/food2.png"" style=""width:200px; border:14px solid green;"">","null","","","","","","","","","",""
"","image-keyboard-response","204","127270","0.0-292.0","3YT88D1N09K989NCLVWJAA2RKY53KX","A1ROEDVMTO9Y3X","3UDTAB6HH6LRO17U79I9TKUGYFV09C","","395.29999999701977","img/food2.png","75","395.79999999701977","2","1","","3","1","1,0.5,0,1,0.5,0,0.5,0,1","0,1,0.5,0,1,0.5,1,0.5,0","3",""
"","html-keyboard-response","205","127572","0.0-293.0","3YT88D1N09K989NCLVWJAA2RKY53KX","A1ROEDVMTO9Y3X","3UDTAB6HH6LRO17U79I9TKUGYFV09C","","null","<img src=""img/food2.png"" style=""width:200px; border:14px solid green;"">","null","","","","","","","","","",""
"","image-keyboard-response","206","128008","0.0-294.0","3YT88D1N09K989NCLVWJAA2RKY53KX","A1ROEDVMTO9Y3X","3UDTAB6HH6LRO17U79I9TKUGYFV09C","","435.20000000298023","img/food3.png","76","436.20000000298023","3","0","","2","1","1,0.5,0,1,0.5,0,0.5,0,1","0,1,0.5,0,1,0.5,1,0.5,0","3",""
"","html-keyboard-response","207","128310","0.0-295.0","3YT88D1N09K989NCLVWJAA2RKY53KX","A1ROEDVMTO9Y3X","3UDTAB6HH6LRO17U79I9TKUGYFV09C","","null","<img src=""img/food3.png"" style=""width:200px;border:14px solid red;"">","null","","","","","","","","","",""
"","image-keyboard-response","208","128763","0.0-296.0","3YT88D1N09K989NCLVWJAA2RKY53KX","A1ROEDVMTO9Y3X","3UDTAB6HH6LRO17U79I9TKUGYFV09C","","450.3999999910593","img/food3.png","74","452","1","0","","2","1","1,0.5,0,1,0.5,0,0.5,0,1","0,1,0.5,0,1,0.5,1,0.5,0","3",""
"","html-keyboard-response","209","129064","0.0-297.0","3YT88D1N09K989NCLVWJAA2RKY53KX","A1ROEDVMTO9Y3X","3UDTAB6HH6LRO17U79I9TKUGYFV09C","","null","<img src=""img/food3.png"" style=""width:200px;border:14px solid red;"">","null","","","","","","","","","",""
"","image-keyboard-response","210","129550","0.0-298.0","3YT88D1N09K989NCLVWJAA2RKY53KX","A1ROEDVMTO9Y3X","3UDTAB6HH6LRO17U79I9TKUGYFV09C","","484.40000000596046","img/food2.png","75","485","2","0","","3","1","1,0.5,0,1,0.5,0,0.5,0,1","0,1,0.5,0,1,0.5,1,0.5,0","3",""
"","html-keyboard-response","211","129852","0.0-299.0","3YT88D1N09K989NCLVWJAA2RKY53KX","A1ROEDVMTO9Y3X","3UDTAB6HH6LRO17U79I9TKUGYFV09C","","null","<img src=""img/food2.png"" style=""width:200px;border:14px solid red;"">","null","","","","","","","","","",""
"","image-keyboard-response","212","130169","0.0-300.0","3YT88D1N09K989NCLVWJAA2RKY53KX","A1ROEDVMTO9Y3X","3UDTAB6HH6LRO17U79I9TKUGYFV09C","","315.90000000596046","img/food2.png","76","317","3","0","","3","1","1,0.5,0,1,0.5,0,0.5,0,1","0,1,0.5,0,1,0.5,1,0.5,0","3",""
"","html-keyboard-response","213","130471","0.0-301.0","3YT88D1N09K989NCLVWJAA2RKY53KX","A1ROEDVMTO9Y3X","3UDTAB6HH6LRO17U79I9TKUGYFV09C","","null","<img src=""img/food2.png"" style=""width:200px;border:14px solid red;"">","null","","","","","","","","","",""
"","image-keyboard-response","214","130978","0.0-302.0","3YT88D1N09K989NCLVWJAA2RKY53KX","A1ROEDVMTO9Y3X","3UDTAB6HH6LRO17U79I9TKUGYFV09C","","505.70000000298023","img/food3.png","74","506.79999999701977","1","0","","2","1","1,0.5,0,1,0.5,0,0.5,0,1","0,1,0.5,0,1,0.5,1,0.5,0","3",""
"","html-keyboard-response","215","131280","0.0-303.0","3YT88D1N09K989NCLVWJAA2RKY53KX","A1ROEDVMTO9Y3X","3UDTAB6HH6LRO17U79I9TKUGYFV09C","","null","<img src=""img/food3.png"" style=""width:200px;border:14px solid red;"">","null","","","","","","","","","",""
"","image-keyboard-response","216","131764","0.0-304.0","3YT88D1N09K989NCLVWJAA2RKY53KX","A1ROEDVMTO9Y3X","3UDTAB6HH6LRO17U79I9TKUGYFV09C","","482.3999999910593","img/food5.png","74","483.30000001192093","1","0","","1","1","1,0.5,0,1,0.5,0,0.5,0,1","0,1,0.5,0,1,0.5,1,0.5,0","3",""
"","html-keyboard-response","217","132066","0.0-305.0","3YT88D1N09K989NCLVWJAA2RKY53KX","A1ROEDVMTO9Y3X","3UDTAB6HH6LRO17U79I9TKUGYFV09C","","null","<img src=""img/food5.png"" style=""width:200px;border:14px solid red;"">","null","","","","","","","","","",""
"","image-keyboard-response","218","132476","0.0-306.0","3YT88D1N09K989NCLVWJAA2RKY53KX","A1ROEDVMTO9Y3X","3UDTAB6HH6LRO17U79I9TKUGYFV09C","","409.09999999403954","img/food2.png","75","409.80000001192093","2","1","","3","1","1,0.5,0,1,0.5,0,0.5,0,1","0,1,0.5,0,1,0.5,1,0.5,0","3",""
"","html-keyboard-response","219","132785","0.0-307.0","3YT88D1N09K989NCLVWJAA2RKY53KX","A1ROEDVMTO9Y3X","3UDTAB6HH6LRO17U79I9TKUGYFV09C","","null","<img src=""img/food2.png"" style=""width:200px; border:14px solid green;"">","null","","","","","","","","","",""
"","image-keyboard-response","220","133179","0.0-308.0","3YT88D1N09K989NCLVWJAA2RKY53KX","A1ROEDVMTO9Y3X","3UDTAB6HH6LRO17U79I9TKUGYFV09C","","393.40000000596046","img/food5.png","75","394.29999999701977","2","1","","1","1","1,0.5,0,1,0.5,0,0.5,0,1","0,1,0.5,0,1,0.5,1,0.5,0","3",""
"","html-keyboard-response","221","133481","0.0-309.0","3YT88D1N09K989NCLVWJAA2RKY53KX","A1ROEDVMTO9Y3X","3UDTAB6HH6LRO17U79I9TKUGYFV09C","","null","<img src=""img/food5.png"" style=""width:200px; border:14px solid green;"">","null","","","","","","","","","",""
"","image-keyboard-response","222","133862","0.0-310.0","3YT88D1N09K989NCLVWJAA2RKY53KX","A1ROEDVMTO9Y3X","3UDTAB6HH6LRO17U79I9TKUGYFV09C","","378.6000000089407","img/food2.png","75","380","2","0","","3","1","1,0.5,0,1,0.5,0,0.5,0,1","0,1,0.5,0,1,0.5,1,0.5,0","3",""
"","html-keyboard-response","223","134164","0.0-311.0","3YT88D1N09K989NCLVWJAA2RKY53KX","A1ROEDVMTO9Y3X","3UDTAB6HH6LRO17U79I9TKUGYFV09C","","null","<img src=""img/food2.png"" style=""width:200px;border:14px solid red;"">","null","","","","","","","","","",""
"","image-keyboard-response","224","134461","0.0-312.0","3YT88D1N09K989NCLVWJAA2RKY53KX","A1ROEDVMTO9Y3X","3UDTAB6HH6LRO17U79I9TKUGYFV09C","","295.1000000089407","img/food2.png","76","296.59999999403954","3","0","","3","1","1,0.5,0,1,0.5,0,0.5,0,1","0,1,0.5,0,1,0.5,1,0.5,0","3",""
"","html-keyboard-response","225","134763","0.0-313.0","3YT88D1N09K989NCLVWJAA2RKY53KX","A1ROEDVMTO9Y3X","3UDTAB6HH6LRO17U79I9TKUGYFV09C","","null","<img src=""img/food2.png"" style=""width:200px;border:14px solid red;"">","null","","","","","","","","","",""
"","image-keyboard-response","226","135130","0.0-314.0","3YT88D1N09K989NCLVWJAA2RKY53KX","A1ROEDVMTO9Y3X","3UDTAB6HH6LRO17U79I9TKUGYFV09C","","364.8999999910593","img/food5.png","74","366.20000000298023","1","0","","1","1","1,0.5,0,1,0.5,0,0.5,0,1","0,1,0.5,0,1,0.5,1,0.5,0","3",""
"","html-keyboard-response","227","135432","0.0-315.0","3YT88D1N09K989NCLVWJAA2RKY53KX","A1ROEDVMTO9Y3X","3UDTAB6HH6LRO17U79I9TKUGYFV09C","","null","<img src=""img/food5.png"" style=""width:200px;border:14px solid red;"">","null","","","","","","","","","",""
"","image-keyboard-response","228","135791","0.0-316.0","3YT88D1N09K989NCLVWJAA2RKY53KX","A1ROEDVMTO9Y3X","3UDTAB6HH6LRO17U79I9TKUGYFV09C","","357.20000000298023","img/food3.png","76","358.3999999910593","3","0","","2","1","1,0.5,0,1,0.5,0,0.5,0,1","0,1,0.5,0,1,0.5,1,0.5,0","3",""
"","html-keyboard-response","229","136093","0.0-317.0","3YT88D1N09K989NCLVWJAA2RKY53KX","A1ROEDVMTO9Y3X","3UDTAB6HH6LRO17U79I9TKUGYFV09C","","null","<img src=""img/food3.png"" style=""width:200px;border:14px solid red;"">","null","","","","","","","","","",""
"","image-keyboard-response","230","136282","0.0-318.0","3YT88D1N09K989NCLVWJAA2RKY53KX","A1ROEDVMTO9Y3X","3UDTAB6HH6LRO17U79I9TKUGYFV09C","","187.5","img/food3.png","75","188.40000000596046","2","1","","2","1","1,0.5,0,1,0.5,0,0.5,0,1","0,1,0.5,0,1,0.5,1,0.5,0","3",""
"","html-keyboard-response","231","136585","0.0-319.0","3YT88D1N09K989NCLVWJAA2RKY53KX","A1ROEDVMTO9Y3X","3UDTAB6HH6LRO17U79I9TKUGYFV09C","","null","<img src=""img/food3.png"" style=""width:200px; border:14px solid green;"">","null","","","","","","","","","",""
"","image-keyboard-response","232","136966","0.0-320.0","3YT88D1N09K989NCLVWJAA2RKY53KX","A1ROEDVMTO9Y3X","3UDTAB6HH6LRO17U79I9TKUGYFV09C","","379.79999999701977","img/food3.png","75","380.8999999910593","2","1","","2","1","1,0.5,0,1,0.5,0,0.5,0,1","0,1,0.5,0,1,0.5,1,0.5,0","3",""
"","html-keyboard-response","233","137268","0.0-321.0","3YT88D1N09K989NCLVWJAA2RKY53KX","A1ROEDVMTO9Y3X","3UDTAB6HH6LRO17U79I9TKUGYFV09C","","null","<img src=""img/food3.png"" style=""width:200px; border:14px solid green;"">","null","","","","","","","","","",""
"","image-keyboard-response","234","137695","0.0-322.0","3YT88D1N09K989NCLVWJAA2RKY53KX","A1ROEDVMTO9Y3X","3UDTAB6HH6LRO17U79I9TKUGYFV09C","","425.70000000298023","img/food3.png","75","426.5","2","1","","2","1","1,0.5,0,1,0.5,0,0.5,0,1","0,1,0.5,0,1,0.5,1,0.5,0","3",""
"","html-keyboard-response","235","137997","0.0-323.0","3YT88D1N09K989NCLVWJAA2RKY53KX","A1ROEDVMTO9Y3X","3UDTAB6HH6LRO17U79I9TKUGYFV09C","","null","<img src=""img/food3.png"" style=""width:200px; border:14px solid green;"">","null","","","","","","","","","",""
"","image-keyboard-response","236","138462","0.0-324.0","3YT88D1N09K989NCLVWJAA2RKY53KX","A1ROEDVMTO9Y3X","3UDTAB6HH6LRO17U79I9TKUGYFV09C","","462.90000000596046","img/food2.png","75","464.29999999701977","2","1","","3","1","1,0.5,0,1,0.5,0,0.5,0,1","0,1,0.5,0,1,0.5,1,0.5,0","3",""
"","html-keyboard-response","237","138765","0.0-325.0","3YT88D1N09K989NCLVWJAA2RKY53KX","A1ROEDVMTO9Y3X","3UDTAB6HH6LRO17U79I9TKUGYFV09C","","null","<img src=""img/food2.png"" style=""width:200px; border:14px solid green;"">","null","","","","","","","","","",""
"","image-keyboard-response","238","139247","0.0-326.0","3YT88D1N09K989NCLVWJAA2RKY53KX","A1ROEDVMTO9Y3X","3UDTAB6HH6LRO17U79I9TKUGYFV09C","","480","img/food2.png","74","481.5","1","1","","3","1","1,0.5,0,1,0.5,0,0.5,0,1","0,1,0.5,0,1,0.5,1,0.5,0","3",""
"","html-keyboard-response","239","139549","0.0-327.0","3YT88D1N09K989NCLVWJAA2RKY53KX","A1ROEDVMTO9Y3X","3UDTAB6HH6LRO17U79I9TKUGYFV09C","","null","<img src=""img/food2.png"" style=""width:200px; border:14px solid green;"">","null","","","","","","","","","",""
"","image-keyboard-response","240","140024","0.0-328.0","3YT88D1N09K989NCLVWJAA2RKY53KX","A1ROEDVMTO9Y3X","3UDTAB6HH6LRO17U79I9TKUGYFV09C","","474.30000001192093","img/food3.png","74","475","1","0","","2","1","1,0.5,0,1,0.5,0,0.5,0,1","0,1,0.5,0,1,0.5,1,0.5,0","3",""
"","html-keyboard-response","241","140327","0.0-329.0","3YT88D1N09K989NCLVWJAA2RKY53KX","A1ROEDVMTO9Y3X","3UDTAB6HH6LRO17U79I9TKUGYFV09C","","null","<img src=""img/food3.png"" style=""width:200px;border:14px solid red;"">","null","","","","","","","","","",""
"","image-keyboard-response","242","140578","0.0-330.0","3YT88D1N09K989NCLVWJAA2RKY53KX","A1ROEDVMTO9Y3X","3UDTAB6HH6LRO17U79I9TKUGYFV09C","","250","img/food2.png","75","251","2","1","","3","1","1,0.5,0,1,0.5,0,0.5,0,1","0,1,0.5,0,1,0.5,1,0.5,0","3",""
"","html-keyboard-response","243","140880","0.0-331.0","3YT88D1N09K989NCLVWJAA2RKY53KX","A1ROEDVMTO9Y3X","3UDTAB6HH6LRO17U79I9TKUGYFV09C","","null","<img src=""img/food2.png"" style=""width:200px; border:14px solid green;"">","null","","","","","","","","","",""
"","image-keyboard-response","244","141303","0.0-332.0","3YT88D1N09K989NCLVWJAA2RKY53KX","A1ROEDVMTO9Y3X","3UDTAB6HH6LRO17U79I9TKUGYFV09C","","421.59999999403954","img/food5.png","75","422.70000000298023","2","1","","1","1","1,0.5,0,1,0.5,0,0.5,0,1","0,1,0.5,0,1,0.5,1,0.5,0","3",""
"","html-keyboard-response","245","141605","0.0-333.0","3YT88D1N09K989NCLVWJAA2RKY53KX","A1ROEDVMTO9Y3X","3UDTAB6HH6LRO17U79I9TKUGYFV09C","","null","<img src=""img/food5.png"" style=""width:200px; border:14px solid green;"">","null","","","","","","","","","",""
"","image-keyboard-response","246","142008","0.0-334.0","3YT88D1N09K989NCLVWJAA2RKY53KX","A1ROEDVMTO9Y3X","3UDTAB6HH6LRO17U79I9TKUGYFV09C","","401","img/food5.png","75","402.5","2","1","","1","1","1,0.5,0,1,0.5,0,0.5,0,1","0,1,0.5,0,1,0.5,1,0.5,0","3",""
"","html-keyboard-response","247","142310","0.0-335.0","3YT88D1N09K989NCLVWJAA2RKY53KX","A1ROEDVMTO9Y3X","3UDTAB6HH6LRO17U79I9TKUGYFV09C","","null","<img src=""img/food5.png"" style=""width:200px; border:14px solid green;"">","null","","","","","","","","","",""
"","image-keyboard-response","248","142708","0.0-336.0","3YT88D1N09K989NCLVWJAA2RKY53KX","A1ROEDVMTO9Y3X","3UDTAB6HH6LRO17U79I9TKUGYFV09C","","395.70000000298023","img/food3.png","75","397.1000000089407","2","1","","2","1","1,0.5,0,1,0.5,0,0.5,0,1","0,1,0.5,0,1,0.5,1,0.5,0","3",""
"","html-keyboard-response","249","143010","0.0-337.0","3YT88D1N09K989NCLVWJAA2RKY53KX","A1ROEDVMTO9Y3X","3UDTAB6HH6LRO17U79I9TKUGYFV09C","","null","<img src=""img/food3.png"" style=""width:200px; border:14px solid green;"">","null","","","","","","","","","",""
"","image-keyboard-response","250","143420","0.0-338.0","3YT88D1N09K989NCLVWJAA2RKY53KX","A1ROEDVMTO9Y3X","3UDTAB6HH6LRO17U79I9TKUGYFV09C","","409.20000000298023","img/food5.png","75","410","2","1","","1","1","1,0.5,0,1,0.5,0,0.5,0,1","0,1,0.5,0,1,0.5,1,0.5,0","3",""
"","html-keyboard-response","251","143723","0.0-339.0","3YT88D1N09K989NCLVWJAA2RKY53KX","A1ROEDVMTO9Y3X","3UDTAB6HH6LRO17U79I9TKUGYFV09C","","null","<img src=""img/food5.png"" style=""width:200px; border:14px solid green;"">","null","","","","","","","","","",""
"","image-keyboard-response","252","144012","0.0-340.0","3YT88D1N09K989NCLVWJAA2RKY53KX","A1ROEDVMTO9Y3X","3UDTAB6HH6LRO17U79I9TKUGYFV09C","","286.90000000596046","img/food2.png","74","288.29999999701977","1","1","","3","1","1,0.5,0,1,0.5,0,0.5,0,1","0,1,0.5,0,1,0.5,1,0.5,0","3",""
"","html-keyboard-response","253","144314","0.0-341.0","3YT88D1N09K989NCLVWJAA2RKY53KX","A1ROEDVMTO9Y3X","3UDTAB6HH6LRO17U79I9TKUGYFV09C","","null","<img src=""img/food2.png"" style=""width:200px; border:14px solid green;"">","null","","","","","","","","","",""
"","image-keyboard-response","254","144598","0.0-342.0","3YT88D1N09K989NCLVWJAA2RKY53KX","A1ROEDVMTO9Y3X","3UDTAB6HH6LRO17U79I9TKUGYFV09C","","283.1000000089407","img/food2.png","75","283.90000000596046","2","0","","3","1","1,0.5,0,1,0.5,0,0.5,0,1","0,1,0.5,0,1,0.5,1,0.5,0","3",""
"","html-keyboard-response","255","144901","0.0-343.0","3YT88D1N09K989NCLVWJAA2RKY53KX","A1ROEDVMTO9Y3X","3UDTAB6HH6LRO17U79I9TKUGYFV09C","","null","<img src=""img/food2.png"" style=""width:200px;border:14px solid red;"">","null","","","","","","","","","",""
"","image-keyboard-response","256","145363","0.0-344.0","3YT88D1N09K989NCLVWJAA2RKY53KX","A1ROEDVMTO9Y3X","3UDTAB6HH6LRO17U79I9TKUGYFV09C","","460.3999999910593","img/food2.png","74","461.69999998807907","1","1","","3","1","1,0.5,0,1,0.5,0,0.5,0,1","0,1,0.5,0,1,0.5,1,0.5,0","3",""
"","html-keyboard-response","257","145665","0.0-345.0","3YT88D1N09K989NCLVWJAA2RKY53KX","A1ROEDVMTO9Y3X","3UDTAB6HH6LRO17U79I9TKUGYFV09C","","null","<img src=""img/food2.png"" style=""width:200px; border:14px solid green;"">","null","","","","","","","","","",""
"","image-keyboard-response","258","146072","0.0-346.0","3YT88D1N09K989NCLVWJAA2RKY53KX","A1ROEDVMTO9Y3X","3UDTAB6HH6LRO17U79I9TKUGYFV09C","","405.20000000298023","img/food2.png","74","406.70000000298023","1","1","","3","1","1,0.5,0,1,0.5,0,0.5,0,1","0,1,0.5,0,1,0.5,1,0.5,0","3",""
"","html-keyboard-response","259","146375","0.0-347.0","3YT88D1N09K989NCLVWJAA2RKY53KX","A1ROEDVMTO9Y3X","3UDTAB6HH6LRO17U79I9TKUGYFV09C","","null","<img src=""img/food2.png"" style=""width:200px; border:14px solid green;"">","null","","","","","","","","","",""
"","image-keyboard-response","260","146790","0.0-348.0","3YT88D1N09K989NCLVWJAA2RKY53KX","A1ROEDVMTO9Y3X","3UDTAB6HH6LRO17U79I9TKUGYFV09C","","414.09999999403954","img/food3.png","74","414.70000000298023","1","0","","2","1","1,0.5,0,1,0.5,0,0.5,0,1","0,1,0.5,0,1,0.5,1,0.5,0","3",""
"","html-keyboard-response","261","147092","0.0-349.0","3YT88D1N09K989NCLVWJAA2RKY53KX","A1ROEDVMTO9Y3X","3UDTAB6HH6LRO17U79I9TKUGYFV09C","","null","<img src=""img/food3.png"" style=""width:200px;border:14px solid red;"">","null","","","","","","","","","",""
"","image-keyboard-response","262","147512","0.0-350.0","3YT88D1N09K989NCLVWJAA2RKY53KX","A1ROEDVMTO9Y3X","3UDTAB6HH6LRO17U79I9TKUGYFV09C","","419.30000001192093","img/food2.png","75","420","2","0","","3","1","1,0.5,0,1,0.5,0,0.5,0,1","0,1,0.5,0,1,0.5,1,0.5,0","3",""
"","html-keyboard-response","263","147815","0.0-351.0","3YT88D1N09K989NCLVWJAA2RKY53KX","A1ROEDVMTO9Y3X","3UDTAB6HH6LRO17U79I9TKUGYFV09C","","null","<img src=""img/food2.png"" style=""width:200px;border:14px solid red;"">","null","","","","","","","","","",""
"","image-keyboard-response","264","148294","0.0-352.0","3YT88D1N09K989NCLVWJAA2RKY53KX","A1ROEDVMTO9Y3X","3UDTAB6HH6LRO17U79I9TKUGYFV09C","","477.80000001192093","img/food5.png","76","478.90000000596046","3","1","","1","1","1,0.5,0,1,0.5,0,0.5,0,1","0,1,0.5,0,1,0.5,1,0.5,0","3",""
"","html-keyboard-response","265","148597","0.0-353.0","3YT88D1N09K989NCLVWJAA2RKY53KX","A1ROEDVMTO9Y3X","3UDTAB6HH6LRO17U79I9TKUGYFV09C","","null","<img src=""img/food5.png"" style=""width:200px; border:14px solid green;"">","null","","","","","","","","","",""
"","image-keyboard-response","266","149012","0.0-354.0","3YT88D1N09K989NCLVWJAA2RKY53KX","A1ROEDVMTO9Y3X","3UDTAB6HH6LRO17U79I9TKUGYFV09C","","413.29999999701977","img/food3.png","76","414.59999999403954","3","0","","2","1","1,0.5,0,1,0.5,0,0.5,0,1","0,1,0.5,0,1,0.5,1,0.5,0","3",""
"","html-keyboard-response","267","149315","0.0-355.0","3YT88D1N09K989NCLVWJAA2RKY53KX","A1ROEDVMTO9Y3X","3UDTAB6HH6LRO17U79I9TKUGYFV09C","","null","<img src=""img/food3.png"" style=""width:200px;border:14px solid red;"">","null","","","","","","","","","",""
"","image-keyboard-response","268","149688","0.0-356.0","3YT88D1N09K989NCLVWJAA2RKY53KX","A1ROEDVMTO9Y3X","3UDTAB6HH6LRO17U79I9TKUGYFV09C","","372.20000000298023","img/food2.png","74","373.20000000298023","1","1","","3","1","1,0.5,0,1,0.5,0,0.5,0,1","0,1,0.5,0,1,0.5,1,0.5,0","3",""
"","html-keyboard-response","269","149990","0.0-357.0","3YT88D1N09K989NCLVWJAA2RKY53KX","A1ROEDVMTO9Y3X","3UDTAB6HH6LRO17U79I9TKUGYFV09C","","null","<img src=""img/food2.png"" style=""width:200px; border:14px solid green;"">","null","","","","","","","","","",""
"","image-keyboard-response","270","150534","0.0-358.0","3YT88D1N09K989NCLVWJAA2RKY53KX","A1ROEDVMTO9Y3X","3UDTAB6HH6LRO17U79I9TKUGYFV09C","","542.6999999880791","img/food2.png","74","543.9000000059605","1","1","","3","1","1,0.5,0,1,0.5,0,0.5,0,1","0,1,0.5,0,1,0.5,1,0.5,0","3",""
"","html-keyboard-response","271","150837","0.0-359.0","3YT88D1N09K989NCLVWJAA2RKY53KX","A1ROEDVMTO9Y3X","3UDTAB6HH6LRO17U79I9TKUGYFV09C","","null","<img src=""img/food2.png"" style=""width:200px; border:14px solid green;"">","null","","","","","","","","","",""
"","image-keyboard-response","272","151260","0.0-360.0","3YT88D1N09K989NCLVWJAA2RKY53KX","A1ROEDVMTO9Y3X","3UDTAB6HH6LRO17U79I9TKUGYFV09C","","420.90000000596046","img/food2.png","74","422.09999999403954","1","1","","3","1","1,0.5,0,1,0.5,0,0.5,0,1","0,1,0.5,0,1,0.5,1,0.5,0","3",""
"","html-keyboard-response","273","151562","0.0-361.0","3YT88D1N09K989NCLVWJAA2RKY53KX","A1ROEDVMTO9Y3X","3UDTAB6HH6LRO17U79I9TKUGYFV09C","","null","<img src=""img/food2.png"" style=""width:200px; border:14px solid green;"">","null","","","","","","","","","",""
"","image-keyboard-response","274","151982","0.0-362.0","3YT88D1N09K989NCLVWJAA2RKY53KX","A1ROEDVMTO9Y3X","3UDTAB6HH6LRO17U79I9TKUGYFV09C","","419.09999999403954","img/food3.png","74","420","1","0","","2","1","1,0.5,0,1,0.5,0,0.5,0,1","0,1,0.5,0,1,0.5,1,0.5,0","3",""
"","html-keyboard-response","275","152284","0.0-363.0","3YT88D1N09K989NCLVWJAA2RKY53KX","A1ROEDVMTO9Y3X","3UDTAB6HH6LRO17U79I9TKUGYFV09C","","null","<img src=""img/food3.png"" style=""width:200px;border:14px solid red;"">","null","","","","","","","","","",""
"","image-keyboard-response","276","152712","0.0-364.0","3YT88D1N09K989NCLVWJAA2RKY53KX","A1ROEDVMTO9Y3X","3UDTAB6HH6LRO17U79I9TKUGYFV09C","","426.6000000089407","img/food5.png","75","427.59999999403954","2","1","","1","1","1,0.5,0,1,0.5,0,0.5,0,1","0,1,0.5,0,1,0.5,1,0.5,0","3",""
"","html-keyboard-response","277","153015","0.0-365.0","3YT88D1N09K989NCLVWJAA2RKY53KX","A1ROEDVMTO9Y3X","3UDTAB6HH6LRO17U79I9TKUGYFV09C","","null","<img src=""img/food5.png"" style=""width:200px; border:14px solid green;"">","null","","","","","","","","","",""
"","image-keyboard-response","278","153428","0.0-366.0","3YT88D1N09K989NCLVWJAA2RKY53KX","A1ROEDVMTO9Y3X","3UDTAB6HH6LRO17U79I9TKUGYFV09C","","411.29999999701977","img/food3.png","75","412.90000000596046","2","1","","2","1","1,0.5,0,1,0.5,0,0.5,0,1","0,1,0.5,0,1,0.5,1,0.5,0","3",""
"","html-keyboard-response","279","153741","0.0-367.0","3YT88D1N09K989NCLVWJAA2RKY53KX","A1ROEDVMTO9Y3X","3UDTAB6HH6LRO17U79I9TKUGYFV09C","","null","<img src=""img/food3.png"" style=""width:200px; border:14px solid green;"">","null","","","","","","","","","",""
"","image-keyboard-response","280","154105","0.0-368.0","3YT88D1N09K989NCLVWJAA2RKY53KX","A1ROEDVMTO9Y3X","3UDTAB6HH6LRO17U79I9TKUGYFV09C","","363","img/food3.png","75","364.5","2","1","","2","1","1,0.5,0,1,0.5,0,0.5,0,1","0,1,0.5,0,1,0.5,1,0.5,0","3",""
"","html-keyboard-response","281","154408","0.0-369.0","3YT88D1N09K989NCLVWJAA2RKY53KX","A1ROEDVMTO9Y3X","3UDTAB6HH6LRO17U79I9TKUGYFV09C","","null","<img src=""img/food3.png"" style=""width:200px; border:14px solid green;"">","null","","","","","","","","","",""
"","image-keyboard-response","282","154662","0.0-370.0","3YT88D1N09K989NCLVWJAA2RKY53KX","A1ROEDVMTO9Y3X","3UDTAB6HH6LRO17U79I9TKUGYFV09C","","251.70000000298023","img/food2.png","75","253.20000000298023","2","1","","3","1","1,0.5,0,1,0.5,0,0.5,0,1","0,1,0.5,0,1,0.5,1,0.5,0","3",""
"","html-keyboard-response","283","154964","0.0-371.0","3YT88D1N09K989NCLVWJAA2RKY53KX","A1ROEDVMTO9Y3X","3UDTAB6HH6LRO17U79I9TKUGYFV09C","","null","<img src=""img/food2.png"" style=""width:200px; border:14px solid green;"">","null","","","","","","","","","",""
"","image-keyboard-response","284","155306","0.0-372.0","3YT88D1N09K989NCLVWJAA2RKY53KX","A1ROEDVMTO9Y3X","3UDTAB6HH6LRO17U79I9TKUGYFV09C","","340.40000000596046","img/food3.png","75","341.59999999403954","2","1","","2","1","1,0.5,0,1,0.5,0,0.5,0,1","0,1,0.5,0,1,0.5,1,0.5,0","3",""
"","html-keyboard-response","285","155607","0.0-373.0","3YT88D1N09K989NCLVWJAA2RKY53KX","A1ROEDVMTO9Y3X","3UDTAB6HH6LRO17U79I9TKUGYFV09C","","null","<img src=""img/food3.png"" style=""width:200px; border:14px solid green;"">","null","","","","","","","","","",""
"","image-keyboard-response","286","156153","0.0-374.0","3YT88D1N09K989NCLVWJAA2RKY53KX","A1ROEDVMTO9Y3X","3UDTAB6HH6LRO17U79I9TKUGYFV09C","","544.5","img/food5.png","76","545.8999999910593","3","0","","1","1","1,0.5,0,1,0.5,0,0.5,0,1","0,1,0.5,0,1,0.5,1,0.5,0","3",""
"","html-keyboard-response","287","156456","0.0-375.0","3YT88D1N09K989NCLVWJAA2RKY53KX","A1ROEDVMTO9Y3X","3UDTAB6HH6LRO17U79I9TKUGYFV09C","","null","<img src=""img/food5.png"" style=""width:200px;border:14px solid red;"">","null","","","","","","","","","",""
"","image-keyboard-response","288","156717","0.0-376.0","3YT88D1N09K989NCLVWJAA2RKY53KX","A1ROEDVMTO9Y3X","3UDTAB6HH6LRO17U79I9TKUGYFV09C","","259","img/food5.png","74","260.5","1","0","","1","1","1,0.5,0,1,0.5,0,0.5,0,1","0,1,0.5,0,1,0.5,1,0.5,0","3",""
"","html-keyboard-response","289","157019","0.0-377.0","3YT88D1N09K989NCLVWJAA2RKY53KX","A1ROEDVMTO9Y3X","3UDTAB6HH6LRO17U79I9TKUGYFV09C","","null","<img src=""img/food5.png"" style=""width:200px;border:14px solid red;"">","null","","","","","","","","","",""
"","image-keyboard-response","290","157524","0.0-378.0","3YT88D1N09K989NCLVWJAA2RKY53KX","A1ROEDVMTO9Y3X","3UDTAB6HH6LRO17U79I9TKUGYFV09C","","503.40000000596046","img/food5.png","75","504.6000000089407","2","1","","1","1","1,0.5,0,1,0.5,0,0.5,0,1","0,1,0.5,0,1,0.5,1,0.5,0","3",""
"","html-keyboard-response","291","157826","0.0-379.0","3YT88D1N09K989NCLVWJAA2RKY53KX","A1ROEDVMTO9Y3X","3UDTAB6HH6LRO17U79I9TKUGYFV09C","","null","<img src=""img/food5.png"" style=""width:200px; border:14px solid green;"">","null","","","","","","","","","",""
"","image-keyboard-response","292","158176","0.0-380.0","3YT88D1N09K989NCLVWJAA2RKY53KX","A1ROEDVMTO9Y3X","3UDTAB6HH6LRO17U79I9TKUGYFV09C","","347.90000000596046","img/food5.png","75","349.5","2","1","","1","1","1,0.5,0,1,0.5,0,0.5,0,1","0,1,0.5,0,1,0.5,1,0.5,0","3",""
"","html-keyboard-response","293","158478","0.0-381.0","3YT88D1N09K989NCLVWJAA2RKY53KX","A1ROEDVMTO9Y3X","3UDTAB6HH6LRO17U79I9TKUGYFV09C","","null","<img src=""img/food5.png"" style=""width:200px; border:14px solid green;"">","null","","","","","","","","","",""
"","image-keyboard-response","294","158858","0.0-382.0","3YT88D1N09K989NCLVWJAA2RKY53KX","A1ROEDVMTO9Y3X","3UDTAB6HH6LRO17U79I9TKUGYFV09C","","377.5","img/food2.png","75","378.79999999701977","2","0","","3","1","1,0.5,0,1,0.5,0,0.5,0,1","0,1,0.5,0,1,0.5,1,0.5,0","3",""
"","html-keyboard-response","295","159160","0.0-383.0","3YT88D1N09K989NCLVWJAA2RKY53KX","A1ROEDVMTO9Y3X","3UDTAB6HH6LRO17U79I9TKUGYFV09C","","null","<img src=""img/food2.png"" style=""width:200px;border:14px solid red;"">","null","","","","","","","","","",""
"","image-keyboard-response","296","159602","0.0-384.0","3YT88D1N09K989NCLVWJAA2RKY53KX","A1ROEDVMTO9Y3X","3UDTAB6HH6LRO17U79I9TKUGYFV09C","","439.29999999701977","img/food5.png","76","440.8999999910593","3","1","","1","1","1,0.5,0,1,0.5,0,0.5,0,1","0,1,0.5,0,1,0.5,1,0.5,0","3",""
"","html-keyboard-response","297","159904","0.0-385.0","3YT88D1N09K989NCLVWJAA2RKY53KX","A1ROEDVMTO9Y3X","3UDTAB6HH6LRO17U79I9TKUGYFV09C","","null","<img src=""img/food5.png"" style=""width:200px; border:14px solid green;"">","null","","","","","","","","","",""
"","image-keyboard-response","298","160231","0.0-386.0","3YT88D1N09K989NCLVWJAA2RKY53KX","A1ROEDVMTO9Y3X","3UDTAB6HH6LRO17U79I9TKUGYFV09C","","325.5","img/food5.png","76","327","3","1","","1","1","1,0.5,0,1,0.5,0,0.5,0,1","0,1,0.5,0,1,0.5,1,0.5,0","3",""
"","html-keyboard-response","299","160533","0.0-387.0","3YT88D1N09K989NCLVWJAA2RKY53KX","A1ROEDVMTO9Y3X","3UDTAB6HH6LRO17U79I9TKUGYFV09C","","null","<img src=""img/food5.png"" style=""width:200px; border:14px solid green;"">","null","","","","","","","","","",""
"","image-keyboard-response","300","161015","0.0-388.0","3YT88D1N09K989NCLVWJAA2RKY53KX","A1ROEDVMTO9Y3X","3UDTAB6HH6LRO17U79I9TKUGYFV09C","","481","img/food5.png","76","481.5","3","1","","1","1","1,0.5,0,1,0.5,0,0.5,0,1","0,1,0.5,0,1,0.5,1,0.5,0","3",""
"","html-keyboard-response","301","161317","0.0-389.0","3YT88D1N09K989NCLVWJAA2RKY53KX","A1ROEDVMTO9Y3X","3UDTAB6HH6LRO17U79I9TKUGYFV09C","","null","<img src=""img/food5.png"" style=""width:200px; border:14px solid green;"">","null","","","","","","","","","",""
"","image-keyboard-response","302","161791","0.0-390.0","3YT88D1N09K989NCLVWJAA2RKY53KX","A1ROEDVMTO9Y3X","3UDTAB6HH6LRO17U79I9TKUGYFV09C","","472.59999999403954","img/food5.png","76","473.5","3","0","","1","1","1,0.5,0,1,0.5,0,0.5,0,1","0,1,0.5,0,1,0.5,1,0.5,0","3",""
"","html-keyboard-response","303","162093","0.0-391.0","3YT88D1N09K989NCLVWJAA2RKY53KX","A1ROEDVMTO9Y3X","3UDTAB6HH6LRO17U79I9TKUGYFV09C","","null","<img src=""img/food5.png"" style=""width:200px;border:14px solid red;"">","null","","","","","","","","","",""
"","image-keyboard-response","304","162519","0.0-392.0","3YT88D1N09K989NCLVWJAA2RKY53KX","A1ROEDVMTO9Y3X","3UDTAB6HH6LRO17U79I9TKUGYFV09C","","424.09999999403954","img/food5.png","74","425.09999999403954","1","0","","1","1","1,0.5,0,1,0.5,0,0.5,0,1","0,1,0.5,0,1,0.5,1,0.5,0","3",""
"","html-keyboard-response","305","162820","0.0-393.0","3YT88D1N09K989NCLVWJAA2RKY53KX","A1ROEDVMTO9Y3X","3UDTAB6HH6LRO17U79I9TKUGYFV09C","","null","<img src=""img/food5.png"" style=""width:200px;border:14px solid red;"">","null","","","","","","","","","",""
"","image-keyboard-response","306","163352","0.0-394.0","3YT88D1N09K989NCLVWJAA2RKY53KX","A1ROEDVMTO9Y3X","3UDTAB6HH6LRO17U79I9TKUGYFV09C","","529.5999999940395","img/food3.png","74","531","1","0","","2","1","1,0.5,0,1,0.5,0,0.5,0,1","0,1,0.5,0,1,0.5,1,0.5,0","3",""
"","html-keyboard-response","307","163654","0.0-395.0","3YT88D1N09K989NCLVWJAA2RKY53KX","A1ROEDVMTO9Y3X","3UDTAB6HH6LRO17U79I9TKUGYFV09C","","null","<img src=""img/food3.png"" style=""width:200px;border:14px solid red;"">","null","","","","","","","","","",""
"","image-keyboard-response","308","164035","0.0-396.0","3YT88D1N09K989NCLVWJAA2RKY53KX","A1ROEDVMTO9Y3X","3UDTAB6HH6LRO17U79I9TKUGYFV09C","","379.09999999403954","img/food2.png","75","380.40000000596046","2","1","","3","1","1,0.5,0,1,0.5,0,0.5,0,1","0,1,0.5,0,1,0.5,1,0.5,0","3",""
"","html-keyboard-response","309","164343","0.0-397.0","3YT88D1N09K989NCLVWJAA2RKY53KX","A1ROEDVMTO9Y3X","3UDTAB6HH6LRO17U79I9TKUGYFV09C","","null","<img src=""img/food2.png"" style=""width:200px; border:14px solid green;"">","null","","","","","","","","","",""
"","image-keyboard-response","310","164796","0.0-398.0","3YT88D1N09K989NCLVWJAA2RKY53KX","A1ROEDVMTO9Y3X","3UDTAB6HH6LRO17U79I9TKUGYFV09C","","451.90000000596046","img/food2.png","75","453.1000000089407","2","0","","3","1","1,0.5,0,1,0.5,0,0.5,0,1","0,1,0.5,0,1,0.5,1,0.5,0","3",""
"","html-keyboard-response","311","165098","0.0-399.0","3YT88D1N09K989NCLVWJAA2RKY53KX","A1ROEDVMTO9Y3X","3UDTAB6HH6LRO17U79I9TKUGYFV09C","","null","<img src=""img/food2.png"" style=""width:200px;border:14px solid red;"">","null","","","","","","","","","",""
"","image-keyboard-response","312","165494","0.0-400.0","3YT88D1N09K989NCLVWJAA2RKY53KX","A1ROEDVMTO9Y3X","3UDTAB6HH6LRO17U79I9TKUGYFV09C","","394.90000000596046","img/food3.png","76","396","3","1","","2","1","1,0.5,0,1,0.5,0,0.5,0,1","0,1,0.5,0,1,0.5,1,0.5,0","3",""
"","html-keyboard-response","313","165796","0.0-401.0","3YT88D1N09K989NCLVWJAA2RKY53KX","A1ROEDVMTO9Y3X","3UDTAB6HH6LRO17U79I9TKUGYFV09C","","null","<img src=""img/food3.png"" style=""width:200px; border:14px solid green;"">","null","","","","","","","","","",""
"","image-keyboard-response","314","166168","0.0-402.0","3YT88D1N09K989NCLVWJAA2RKY53KX","A1ROEDVMTO9Y3X","3UDTAB6HH6LRO17U79I9TKUGYFV09C","","369.80000001192093","img/food5.png","75","371.20000000298023","2","1","","1","1","1,0.5,0,1,0.5,0,0.5,0,1","0,1,0.5,0,1,0.5,1,0.5,0","3",""
"","html-keyboard-response","315","166470","0.0-403.0","3YT88D1N09K989NCLVWJAA2RKY53KX","A1ROEDVMTO9Y3X","3UDTAB6HH6LRO17U79I9TKUGYFV09C","","null","<img src=""img/food5.png"" style=""width:200px; border:14px solid green;"">","null","","","","","","","","","",""
"","image-keyboard-response","316","166742","0.0-404.0","3YT88D1N09K989NCLVWJAA2RKY53KX","A1ROEDVMTO9Y3X","3UDTAB6HH6LRO17U79I9TKUGYFV09C","","269.90000000596046","img/food5.png","75","271.1000000089407","2","1","","1","1","1,0.5,0,1,0.5,0,0.5,0,1","0,1,0.5,0,1,0.5,1,0.5,0","3",""
"","html-keyboard-response","317","167043","0.0-405.0","3YT88D1N09K989NCLVWJAA2RKY53KX","A1ROEDVMTO9Y3X","3UDTAB6HH6LRO17U79I9TKUGYFV09C","","null","<img src=""img/food5.png"" style=""width:200px; border:14px solid green;"">","null","","","","","","","","","",""
"","image-keyboard-response","318","167384","0.0-406.0","3YT88D1N09K989NCLVWJAA2RKY53KX","A1ROEDVMTO9Y3X","3UDTAB6HH6LRO17U79I9TKUGYFV09C","","339.69999998807907","img/food5.png","74","340.70000000298023","1","0","","1","1","1,0.5,0,1,0.5,0,0.5,0,1","0,1,0.5,0,1,0.5,1,0.5,0","3",""
"","html-keyboard-response","319","167686","0.0-407.0","3YT88D1N09K989NCLVWJAA2RKY53KX","A1ROEDVMTO9Y3X","3UDTAB6HH6LRO17U79I9TKUGYFV09C","","null","<img src=""img/food5.png"" style=""width:200px;border:14px solid red;"">","null","","","","","","","","","",""
"","image-keyboard-response","320","167918","0.0-408.0","3YT88D1N09K989NCLVWJAA2RKY53KX","A1ROEDVMTO9Y3X","3UDTAB6HH6LRO17U79I9TKUGYFV09C","","231.1000000089407","img/food3.png","76","232.20000000298023","3","1","","2","1","1,0.5,0,1,0.5,0,0.5,0,1","0,1,0.5,0,1,0.5,1,0.5,0","3",""
"","html-keyboard-response","321","168220","0.0-409.0","3YT88D1N09K989NCLVWJAA2RKY53KX","A1ROEDVMTO9Y3X","3UDTAB6HH6LRO17U79I9TKUGYFV09C","","null","<img src=""img/food3.png"" style=""width:200px; border:14px solid green;"">","null","","","","","","","","","",""
"","image-keyboard-response","322","168452","0.0-410.0","3YT88D1N09K989NCLVWJAA2RKY53KX","A1ROEDVMTO9Y3X","3UDTAB6HH6LRO17U79I9TKUGYFV09C","","231.1000000089407","img/food2.png","76","231.79999999701977","3","0","","3","1","1,0.5,0,1,0.5,0,0.5,0,1","0,1,0.5,0,1,0.5,1,0.5,0","3",""
"","html-keyboard-response","323","168754","0.0-411.0","3YT88D1N09K989NCLVWJAA2RKY53KX","A1ROEDVMTO9Y3X","3UDTAB6HH6LRO17U79I9TKUGYFV09C","","null","<img src=""img/food2.png"" style=""width:200px;border:14px solid red;"">","null","","","","","","","","","",""
"","image-keyboard-response","324","169086","0.0-412.0","3YT88D1N09K989NCLVWJAA2RKY53KX","A1ROEDVMTO9Y3X","3UDTAB6HH6LRO17U79I9TKUGYFV09C","","329.90000000596046","img/food2.png","75","332.3999999910593","2","1","","3","1","1,0.5,0,1,0.5,0,0.5,0,1","0,1,0.5,0,1,0.5,1,0.5,0","3",""
"","html-keyboard-response","325","169390","0.0-413.0","3YT88D1N09K989NCLVWJAA2RKY53KX","A1ROEDVMTO9Y3X","3UDTAB6HH6LRO17U79I9TKUGYFV09C","","null","<img src=""img/food2.png"" style=""width:200px; border:14px solid green;"">","null","","","","","","","","","",""
"","image-keyboard-response","326","169894","0.0-414.0","3YT88D1N09K989NCLVWJAA2RKY53KX","A1ROEDVMTO9Y3X","3UDTAB6HH6LRO17U79I9TKUGYFV09C","","502.59999999403954","img/food5.png","75","503.6000000089407","2","1","","1","1","1,0.5,0,1,0.5,0,0.5,0,1","0,1,0.5,0,1,0.5,1,0.5,0","3",""
"","html-keyboard-response","327","170197","0.0-415.0","3YT88D1N09K989NCLVWJAA2RKY53KX","A1ROEDVMTO9Y3X","3UDTAB6HH6LRO17U79I9TKUGYFV09C","","null","<img src=""img/food5.png"" style=""width:200px; border:14px solid green;"">","null","","","","","","","","","",""
"","image-keyboard-response","328","170770","0.0-416.0","3YT88D1N09K989NCLVWJAA2RKY53KX","A1ROEDVMTO9Y3X","3UDTAB6HH6LRO17U79I9TKUGYFV09C","","571.2999999970198","img/food2.png","75","572.8999999910593","2","1","","3","1","1,0.5,0,1,0.5,0,0.5,0,1","0,1,0.5,0,1,0.5,1,0.5,0","3",""
"","html-keyboard-response","329","171073","0.0-417.0","3YT88D1N09K989NCLVWJAA2RKY53KX","A1ROEDVMTO9Y3X","3UDTAB6HH6LRO17U79I9TKUGYFV09C","","null","<img src=""img/food2.png"" style=""width:200px; border:14px solid green;"">","null","","","","","","","","","",""
"","image-keyboard-response","330","171523","0.0-418.0","3YT88D1N09K989NCLVWJAA2RKY53KX","A1ROEDVMTO9Y3X","3UDTAB6HH6LRO17U79I9TKUGYFV09C","","448.90000000596046","img/food3.png","75","450.1000000089407","2","1","","2","1","1,0.5,0,1,0.5,0,0.5,0,1","0,1,0.5,0,1,0.5,1,0.5,0","3",""
"","html-keyboard-response","331","171825","0.0-419.0","3YT88D1N09K989NCLVWJAA2RKY53KX","A1ROEDVMTO9Y3X","3UDTAB6HH6LRO17U79I9TKUGYFV09C","","null","<img src=""img/food3.png"" style=""width:200px; border:14px solid green;"">","null","","","","","","","","","",""
"","image-keyboard-response","332","172245","0.0-420.0","3YT88D1N09K989NCLVWJAA2RKY53KX","A1ROEDVMTO9Y3X","3UDTAB6HH6LRO17U79I9TKUGYFV09C","","420","img/food5.png","75","420.5","2","1","","1","1","1,0.5,0,1,0.5,0,0.5,0,1","0,1,0.5,0,1,0.5,1,0.5,0","3",""
"","html-keyboard-response","333","172546","0.0-421.0","3YT88D1N09K989NCLVWJAA2RKY53KX","A1ROEDVMTO9Y3X","3UDTAB6HH6LRO17U79I9TKUGYFV09C","","null","<img src=""img/food5.png"" style=""width:200px; border:14px solid green;"">","null","","","","","","","","","",""
"","image-keyboard-response","334","172891","0.0-422.0","3YT88D1N09K989NCLVWJAA2RKY53KX","A1ROEDVMTO9Y3X","3UDTAB6HH6LRO17U79I9TKUGYFV09C","","344.59999999403954","img/food3.png","75","345.09999999403954","2","1","","2","1","1,0.5,0,1,0.5,0,0.5,0,1","0,1,0.5,0,1,0.5,1,0.5,0","3",""
"","html-keyboard-response","335","173193","0.0-423.0","3YT88D1N09K989NCLVWJAA2RKY53KX","A1ROEDVMTO9Y3X","3UDTAB6HH6LRO17U79I9TKUGYFV09C","","null","<img src=""img/food3.png"" style=""width:200px; border:14px solid green;"">","null","","","","","","","","","",""
"","image-keyboard-response","336","173575","0.0-424.0","3YT88D1N09K989NCLVWJAA2RKY53KX","A1ROEDVMTO9Y3X","3UDTAB6HH6LRO17U79I9TKUGYFV09C","","380.6000000089407","img/food3.png","75","381.70000000298023","2","1","","2","1","1,0.5,0,1,0.5,0,0.5,0,1","0,1,0.5,0,1,0.5,1,0.5,0","3",""
"","html-keyboard-response","337","173878","0.0-425.0","3YT88D1N09K989NCLVWJAA2RKY53KX","A1ROEDVMTO9Y3X","3UDTAB6HH6LRO17U79I9TKUGYFV09C","","null","<img src=""img/food3.png"" style=""width:200px; border:14px solid green;"">","null","","","","","","","","","",""
"","image-keyboard-response","338","174349","0.0-426.0","3YT88D1N09K989NCLVWJAA2RKY53KX","A1ROEDVMTO9Y3X","3UDTAB6HH6LRO17U79I9TKUGYFV09C","","468.79999999701977","img/food5.png","75","470.40000000596046","2","1","","1","1","1,0.5,0,1,0.5,0,0.5,0,1","0,1,0.5,0,1,0.5,1,0.5,0","3",""
"","html-keyboard-response","339","174652","0.0-427.0","3YT88D1N09K989NCLVWJAA2RKY53KX","A1ROEDVMTO9Y3X","3UDTAB6HH6LRO17U79I9TKUGYFV09C","","null","<img src=""img/food5.png"" style=""width:200px; border:14px solid green;"">","null","","","","","","","","","",""
"","image-keyboard-response","340","175061","0.0-428.0","3YT88D1N09K989NCLVWJAA2RKY53KX","A1ROEDVMTO9Y3X","3UDTAB6HH6LRO17U79I9TKUGYFV09C","","407.90000000596046","img/food2.png","75","409.09999999403954","2","0","","3","1","1,0.5,0,1,0.5,0,0.5,0,1","0,1,0.5,0,1,0.5,1,0.5,0","3",""
"","html-keyboard-response","341","175363","0.0-429.0","3YT88D1N09K989NCLVWJAA2RKY53KX","A1ROEDVMTO9Y3X","3UDTAB6HH6LRO17U79I9TKUGYFV09C","","null","<img src=""img/food2.png"" style=""width:200px;border:14px solid red;"">","null","","","","","","","","","",""
"","image-keyboard-response","342","175797","0.0-430.0","3YT88D1N09K989NCLVWJAA2RKY53KX","A1ROEDVMTO9Y3X","3UDTAB6HH6LRO17U79I9TKUGYFV09C","","432.59999999403954","img/food3.png","76","433.8999999910593","3","1","","2","1","1,0.5,0,1,0.5,0,0.5,0,1","0,1,0.5,0,1,0.5,1,0.5,0","3",""
"","html-keyboard-response","343","176099","0.0-431.0","3YT88D1N09K989NCLVWJAA2RKY53KX","A1ROEDVMTO9Y3X","3UDTAB6HH6LRO17U79I9TKUGYFV09C","","null","<img src=""img/food3.png"" style=""width:200px; border:14px solid green;"">","null","","","","","","","","","",""
"","image-keyboard-response","344","176454","0.0-432.0","3YT88D1N09K989NCLVWJAA2RKY53KX","A1ROEDVMTO9Y3X","3UDTAB6HH6LRO17U79I9TKUGYFV09C","","352.6000000089407","img/food5.png","76","354","3","1","","1","1","1,0.5,0,1,0.5,0,0.5,0,1","0,1,0.5,0,1,0.5,1,0.5,0","3",""
"","html-keyboard-response","345","176756","0.0-433.0","3YT88D1N09K989NCLVWJAA2RKY53KX","A1ROEDVMTO9Y3X","3UDTAB6HH6LRO17U79I9TKUGYFV09C","","null","<img src=""img/food5.png"" style=""width:200px; border:14px solid green;"">","null","","","","","","","","","",""
"","image-keyboard-response","346","177024","0.0-434.0","3YT88D1N09K989NCLVWJAA2RKY53KX","A1ROEDVMTO9Y3X","3UDTAB6HH6LRO17U79I9TKUGYFV09C","","265.69999998807907","img/food3.png","75","266.90000000596046","2","1","","2","1","1,0.5,0,1,0.5,0,0.5,0,1","0,1,0.5,0,1,0.5,1,0.5,0","3",""
"","html-keyboard-response","347","177326","0.0-435.0","3YT88D1N09K989NCLVWJAA2RKY53KX","A1ROEDVMTO9Y3X","3UDTAB6HH6LRO17U79I9TKUGYFV09C","","null","<img src=""img/food3.png"" style=""width:200px; border:14px solid green;"">","null","","","","","","","","","",""
"","image-keyboard-response","348","177777","0.0-436.0","3YT88D1N09K989NCLVWJAA2RKY53KX","A1ROEDVMTO9Y3X","3UDTAB6HH6LRO17U79I9TKUGYFV09C","","449","img/food5.png","76","450.40000000596046","3","1","","1","1","1,0.5,0,1,0.5,0,0.5,0,1","0,1,0.5,0,1,0.5,1,0.5,0","3",""
"","html-keyboard-response","349","178080","0.0-437.0","3YT88D1N09K989NCLVWJAA2RKY53KX","A1ROEDVMTO9Y3X","3UDTAB6HH6LRO17U79I9TKUGYFV09C","","null","<img src=""img/food5.png"" style=""width:200px; border:14px solid green;"">","null","","","","","","","","","",""
"","image-keyboard-response","350","178430","0.0-438.0","3YT88D1N09K989NCLVWJAA2RKY53KX","A1ROEDVMTO9Y3X","3UDTAB6HH6LRO17U79I9TKUGYFV09C","","348.59999999403954","img/food3.png","76","349.90000000596046","3","0","","2","1","1,0.5,0,1,0.5,0,0.5,0,1","0,1,0.5,0,1,0.5,1,0.5,0","3",""
"","html-keyboard-response","351","178733","0.0-439.0","3YT88D1N09K989NCLVWJAA2RKY53KX","A1ROEDVMTO9Y3X","3UDTAB6HH6LRO17U79I9TKUGYFV09C","","null","<img src=""img/food3.png"" style=""width:200px;border:14px solid red;"">","null","","","","","","","","","",""
"","image-keyboard-response","352","179393","0.0-440.0","3YT88D1N09K989NCLVWJAA2RKY53KX","A1ROEDVMTO9Y3X","3UDTAB6HH6LRO17U79I9TKUGYFV09C","","658.3999999910593","img/food3.png","75","659.4000000059605","2","1","","2","1","1,0.5,0,1,0.5,0,0.5,0,1","0,1,0.5,0,1,0.5,1,0.5,0","3",""
"","html-keyboard-response","353","179694","0.0-441.0","3YT88D1N09K989NCLVWJAA2RKY53KX","A1ROEDVMTO9Y3X","3UDTAB6HH6LRO17U79I9TKUGYFV09C","","null","<img src=""img/food3.png"" style=""width:200px; border:14px solid green;"">","null","","","","","","","","","",""
"","image-keyboard-response","354","180099","0.0-442.0","3YT88D1N09K989NCLVWJAA2RKY53KX","A1ROEDVMTO9Y3X","3UDTAB6HH6LRO17U79I9TKUGYFV09C","","403.79999999701977","img/food3.png","75","404.70000000298023","2","1","","2","1","1,0.5,0,1,0.5,0,0.5,0,1","0,1,0.5,0,1,0.5,1,0.5,0","3",""
"","html-keyboard-response","355","180401","0.0-443.0","3YT88D1N09K989NCLVWJAA2RKY53KX","A1ROEDVMTO9Y3X","3UDTAB6HH6LRO17U79I9TKUGYFV09C","","null","<img src=""img/food3.png"" style=""width:200px; border:14px solid green;"">","null","","","","","","","","","",""
"","image-keyboard-response","356","180782","0.0-444.0","3YT88D1N09K989NCLVWJAA2RKY53KX","A1ROEDVMTO9Y3X","3UDTAB6HH6LRO17U79I9TKUGYFV09C","","379.70000000298023","img/food3.png","75","380.6000000089407","2","1","","2","1","1,0.5,0,1,0.5,0,0.5,0,1","0,1,0.5,0,1,0.5,1,0.5,0","3",""
"","html-keyboard-response","357","181085","0.0-445.0","3YT88D1N09K989NCLVWJAA2RKY53KX","A1ROEDVMTO9Y3X","3UDTAB6HH6LRO17U79I9TKUGYFV09C","","null","<img src=""img/food3.png"" style=""width:200px; border:14px solid green;"">","null","","","","","","","","","",""
"","image-keyboard-response","358","181477","0.0-446.0","3YT88D1N09K989NCLVWJAA2RKY53KX","A1ROEDVMTO9Y3X","3UDTAB6HH6LRO17U79I9TKUGYFV09C","","389.79999999701977","img/food5.png","75","391.20000000298023","2","1","","1","1","1,0.5,0,1,0.5,0,0.5,0,1","0,1,0.5,0,1,0.5,1,0.5,0","3",""
"","html-keyboard-response","359","181779","0.0-447.0","3YT88D1N09K989NCLVWJAA2RKY53KX","A1ROEDVMTO9Y3X","3UDTAB6HH6LRO17U79I9TKUGYFV09C","","null","<img src=""img/food5.png"" style=""width:200px; border:14px solid green;"">","null","","","","","","","","","",""
"","image-keyboard-response","360","182159","0.0-448.0","3YT88D1N09K989NCLVWJAA2RKY53KX","A1ROEDVMTO9Y3X","3UDTAB6HH6LRO17U79I9TKUGYFV09C","","378.8999999910593","img/food5.png","75","379.69999998807907","2","1","","1","1","1,0.5,0,1,0.5,0,0.5,0,1","0,1,0.5,0,1,0.5,1,0.5,0","3",""
"","html-keyboard-response","361","182461","0.0-449.0","3YT88D1N09K989NCLVWJAA2RKY53KX","A1ROEDVMTO9Y3X","3UDTAB6HH6LRO17U79I9TKUGYFV09C","","null","<img src=""img/food5.png"" style=""width:200px; border:14px solid green;"">","null","","","","","","","","","",""
"","image-keyboard-response","362","182770","0.0-450.0","3YT88D1N09K989NCLVWJAA2RKY53KX","A1ROEDVMTO9Y3X","3UDTAB6HH6LRO17U79I9TKUGYFV09C","","308.1000000089407","img/food5.png","75","309.29999999701977","2","1","","1","1","1,0.5,0,1,0.5,0,0.5,0,1","0,1,0.5,0,1,0.5,1,0.5,0","3",""
"","html-keyboard-response","363","183074","0.0-451.0","3YT88D1N09K989NCLVWJAA2RKY53KX","A1ROEDVMTO9Y3X","3UDTAB6HH6LRO17U79I9TKUGYFV09C","","null","<img src=""img/food5.png"" style=""width:200px; border:14px solid green;"">","null","","","","","","","","","",""
"","image-keyboard-response","364","183454","0.0-452.0","3YT88D1N09K989NCLVWJAA2RKY53KX","A1ROEDVMTO9Y3X","3UDTAB6HH6LRO17U79I9TKUGYFV09C","","378.40000000596046","img/food2.png","75","379.69999998807907","2","1","","3","1","1,0.5,0,1,0.5,0,0.5,0,1","0,1,0.5,0,1,0.5,1,0.5,0","3",""
"","html-keyboard-response","365","183755","0.0-453.0","3YT88D1N09K989NCLVWJAA2RKY53KX","A1ROEDVMTO9Y3X","3UDTAB6HH6LRO17U79I9TKUGYFV09C","","null","<img src=""img/food2.png"" style=""width:200px; border:14px solid green;"">","null","","","","","","","","","",""
"","html-keyboard-response","366","190170","0.0-454.0","3YT88D1N09K989NCLVWJAA2RKY53KX","A1ROEDVMTO9Y3X","3UDTAB6HH6LRO17U79I9TKUGYFV09C","","","","","","","","","","","","","",""
"","instructions","367","191866","0.0-455.0","3YT88D1N09K989NCLVWJAA2RKY53KX","A1ROEDVMTO9Y3X","3UDTAB6HH6LRO17U79I9TKUGYFV09C","[{""page_index"":0,""viewing_time"":1695.5999999940395}]","1695.7999999970198","","","","","","","","","","","",""
"","survey-text","368","196067","0.0-456.0","3YT88D1N09K989NCLVWJAA2RKY53KX","A1ROEDVMTO9Y3X","3UDTAB6HH6LRO17U79I9TKUGYFV09C","","4197.79999999702","","","","","","","","","","","","{""Q0"":""A1ROEDVMTO9Y3X""}"
