"success","trial_type","trial_index","time_elapsed","internal_node_id","assignmentID","mturkID","hitID","view_history","rt","stimulus","key_press","reactionTime","a","r","s","reward_cond","responses"
"true","fullscreen","0","2152","0.0-0.0","34X6J5FLPUK64QNW1L83M3VPBR8JQI","A1SPIAJZORHFT0","3WPCIUYH1AU470H2HRBLZRFBM3CTDN","","","","","","","","","",""
"","instructions","1","25771","0.0-1.0","34X6J5FLPUK64QNW1L83M3VPBR8JQI","A1SPIAJZORHFT0","3WPCIUYH1AU470H2HRBLZRFBM3CTDN","[{""page_index"":0,""viewing_time"":5522.70000000298},{""page_index"":1,""viewing_time"":3746.7999999970198},{""page_index"":2,""viewing_time"":1133.6000000014901},{""page_index"":3,""viewing_time"":832.3999999985099},{""page_index"":4,""viewing_time"":4916.10000000149},{""page_index"":5,""viewing_time"":3603.2000000029802},{""page_index"":6,""viewing_time"":2354},{""page_index"":7,""viewing_time"":1507.3999999985099}]","23617.20000000298","","","","","","","",""
"","image-keyboard-response","2","27086","0.0-2.0","34X6J5FLPUK64QNW1L83M3VPBR8JQI","A1SPIAJZORHFT0","3WPCIUYH1AU470H2HRBLZRFBM3CTDN","","1314","img/food4.png","75","1315.1000000014901","1","1","1","0.8,0.2,0.8,0.2,0.2,0.8,0.2,0.8",""
"","html-keyboard-response","3","27399","0.0-3.0","34X6J5FLPUK64QNW1L83M3VPBR8JQI","A1SPIAJZORHFT0","3WPCIUYH1AU470H2HRBLZRFBM3CTDN","","null","<img src=""img/food4.png"" style=""width:200px; border:14px solid green;"">","null","","","","","",""
"","image-keyboard-response","4","28043","0.0-4.0","34X6J5FLPUK64QNW1L83M3VPBR8JQI","A1SPIAJZORHFT0","3WPCIUYH1AU470H2HRBLZRFBM3CTDN","","642.2000000029802","img/food1.png","76","643.3999999985099","2","1","4","0.8,0.2,0.8,0.2,0.2,0.8,0.2,0.8",""
"","html-keyboard-response","5","28357","0.0-5.0","34X6J5FLPUK64QNW1L83M3VPBR8JQI","A1SPIAJZORHFT0","3WPCIUYH1AU470H2HRBLZRFBM3CTDN","","null","<img src=""img/food1.png"" style=""width:200px; border:14px solid green;"">","null","","","","","",""
"","image-keyboard-response","6","30343","0.0-6.0","34X6J5FLPUK64QNW1L83M3VPBR8JQI","A1SPIAJZORHFT0","3WPCIUYH1AU470H2HRBLZRFBM3CTDN","","1984.8000000044703","img/food3.png","76","1985.8999999985099","2","0","2","0.8,0.2,0.8,0.2,0.2,0.8,0.2,0.8",""
"","html-keyboard-response","7","30644","0.0-7.0","34X6J5FLPUK64QNW1L83M3VPBR8JQI","A1SPIAJZORHFT0","3WPCIUYH1AU470H2HRBLZRFBM3CTDN","","null","<img src=""img/food3.png"" style=""width:200px;border:14px solid red;"">","null","","","","","",""
"","image-keyboard-response","8","31859","0.0-8.0","34X6J5FLPUK64QNW1L83M3VPBR8JQI","A1SPIAJZORHFT0","3WPCIUYH1AU470H2HRBLZRFBM3CTDN","","1213.8000000044703","img/food1.png","76","1214.6000000014901","2","1","4","0.8,0.2,0.8,0.2,0.2,0.8,0.2,0.8",""
"","html-keyboard-response","9","32160","0.0-9.0","34X6J5FLPUK64QNW1L83M3VPBR8JQI","A1SPIAJZORHFT0","3WPCIUYH1AU470H2HRBLZRFBM3CTDN","","null","<img src=""img/food1.png"" style=""width:200px; border:14px solid green;"">","null","","","","","",""
"","image-keyboard-response","10","33382","0.0-10.0","34X6J5FLPUK64QNW1L83M3VPBR8JQI","A1SPIAJZORHFT0","3WPCIUYH1AU470H2HRBLZRFBM3CTDN","","1221","img/food3.png","75","1221.8000000044703","1","0","2","0.8,0.2,0.8,0.2,0.2,0.8,0.2,0.8",""
"","html-keyboard-response","11","33684","0.0-11.0","34X6J5FLPUK64QNW1L83M3VPBR8JQI","A1SPIAJZORHFT0","3WPCIUYH1AU470H2HRBLZRFBM3CTDN","","null","<img src=""img/food3.png"" style=""width:200px;border:14px solid red;"">","null","","","","","",""
"","image-keyboard-response","12","34981","0.0-12.0","34X6J5FLPUK64QNW1L83M3VPBR8JQI","A1SPIAJZORHFT0","3WPCIUYH1AU470H2HRBLZRFBM3CTDN","","1296.1000000014901","img/food6.png","75","1297","1","0","3","0.8,0.2,0.8,0.2,0.2,0.8,0.2,0.8",""
"","html-keyboard-response","13","35283","0.0-13.0","34X6J5FLPUK64QNW1L83M3VPBR8JQI","A1SPIAJZORHFT0","3WPCIUYH1AU470H2HRBLZRFBM3CTDN","","null","<img src=""img/food6.png"" style=""width:200px;border:14px solid red;"">","null","","","","","",""
"","image-keyboard-response","14","35938","0.0-14.0","34X6J5FLPUK64QNW1L83M3VPBR8JQI","A1SPIAJZORHFT0","3WPCIUYH1AU470H2HRBLZRFBM3CTDN","","653.6999999955297","img/food4.png","75","654.5","1","1","1","0.8,0.2,0.8,0.2,0.2,0.8,0.2,0.8",""
"","html-keyboard-response","15","36239","0.0-15.0","34X6J5FLPUK64QNW1L83M3VPBR8JQI","A1SPIAJZORHFT0","3WPCIUYH1AU470H2HRBLZRFBM3CTDN","","null","<img src=""img/food4.png"" style=""width:200px; border:14px solid green;"">","null","","","","","",""
"","image-keyboard-response","16","37583","0.0-16.0","34X6J5FLPUK64QNW1L83M3VPBR8JQI","A1SPIAJZORHFT0","3WPCIUYH1AU470H2HRBLZRFBM3CTDN","","1342.7000000029802","img/food1.png","76","1343.5","2","1","4","0.8,0.2,0.8,0.2,0.2,0.8,0.2,0.8",""
"","html-keyboard-response","17","37886","0.0-17.0","34X6J5FLPUK64QNW1L83M3VPBR8JQI","A1SPIAJZORHFT0","3WPCIUYH1AU470H2HRBLZRFBM3CTDN","","null","<img src=""img/food1.png"" style=""width:200px; border:14px solid green;"">","null","","","","","",""
"","image-keyboard-response","18","38703","0.0-18.0","34X6J5FLPUK64QNW1L83M3VPBR8JQI","A1SPIAJZORHFT0","3WPCIUYH1AU470H2HRBLZRFBM3CTDN","","816.6000000014901","img/food6.png","75","817.2000000029802","1","0","3","0.8,0.2,0.8,0.2,0.2,0.8,0.2,0.8",""
"","html-keyboard-response","19","39006","0.0-19.0","34X6J5FLPUK64QNW1L83M3VPBR8JQI","A1SPIAJZORHFT0","3WPCIUYH1AU470H2HRBLZRFBM3CTDN","","null","<img src=""img/food6.png"" style=""width:200px;border:14px solid red;"">","null","","","","","",""
"","image-keyboard-response","20","39462","0.0-20.0","34X6J5FLPUK64QNW1L83M3VPBR8JQI","A1SPIAJZORHFT0","3WPCIUYH1AU470H2HRBLZRFBM3CTDN","","455.19999999552965","img/food6.png","75","455.90000000596046","1","0","3","0.8,0.2,0.8,0.2,0.2,0.8,0.2,0.8",""
"","html-keyboard-response","21","39763","0.0-21.0","34X6J5FLPUK64QNW1L83M3VPBR8JQI","A1SPIAJZORHFT0","3WPCIUYH1AU470H2HRBLZRFBM3CTDN","","null","<img src=""img/food6.png"" style=""width:200px;border:14px solid red;"">","null","","","","","",""
"","image-keyboard-response","22","40288","0.0-22.0","34X6J5FLPUK64QNW1L83M3VPBR8JQI","A1SPIAJZORHFT0","3WPCIUYH1AU470H2HRBLZRFBM3CTDN","","524.2999999970198","img/food6.png","76","525.2999999970198","2","1","3","0.8,0.2,0.8,0.2,0.2,0.8,0.2,0.8",""
"","html-keyboard-response","23","40590","0.0-23.0","34X6J5FLPUK64QNW1L83M3VPBR8JQI","A1SPIAJZORHFT0","3WPCIUYH1AU470H2HRBLZRFBM3CTDN","","null","<img src=""img/food6.png"" style=""width:200px; border:14px solid green;"">","null","","","","","",""
"","image-keyboard-response","24","42516","0.0-24.0","34X6J5FLPUK64QNW1L83M3VPBR8JQI","A1SPIAJZORHFT0","3WPCIUYH1AU470H2HRBLZRFBM3CTDN","","1924.6999999955297","img/food4.png","75","1925.5","1","1","1","0.8,0.2,0.8,0.2,0.2,0.8,0.2,0.8",""
"","html-keyboard-response","25","42817","0.0-25.0","34X6J5FLPUK64QNW1L83M3VPBR8JQI","A1SPIAJZORHFT0","3WPCIUYH1AU470H2HRBLZRFBM3CTDN","","null","<img src=""img/food4.png"" style=""width:200px; border:14px solid green;"">","null","","","","","",""
"","image-keyboard-response","26","43631","0.0-26.0","34X6J5FLPUK64QNW1L83M3VPBR8JQI","A1SPIAJZORHFT0","3WPCIUYH1AU470H2HRBLZRFBM3CTDN","","812.6999999955297","img/food3.png","75","813.5","1","1","2","0.8,0.2,0.8,0.2,0.2,0.8,0.2,0.8",""
"","html-keyboard-response","27","43934","0.0-27.0","34X6J5FLPUK64QNW1L83M3VPBR8JQI","A1SPIAJZORHFT0","3WPCIUYH1AU470H2HRBLZRFBM3CTDN","","null","<img src=""img/food3.png"" style=""width:200px; border:14px solid green;"">","null","","","","","",""
"","image-keyboard-response","28","44803","0.0-28.0","34X6J5FLPUK64QNW1L83M3VPBR8JQI","A1SPIAJZORHFT0","3WPCIUYH1AU470H2HRBLZRFBM3CTDN","","868.5","img/food6.png","76","869.3999999985099","2","0","3","0.8,0.2,0.8,0.2,0.2,0.8,0.2,0.8",""
"","html-keyboard-response","29","45106","0.0-29.0","34X6J5FLPUK64QNW1L83M3VPBR8JQI","A1SPIAJZORHFT0","3WPCIUYH1AU470H2HRBLZRFBM3CTDN","","null","<img src=""img/food6.png"" style=""width:200px;border:14px solid red;"">","null","","","","","",""
"","image-keyboard-response","30","45839","0.0-30.0","34X6J5FLPUK64QNW1L83M3VPBR8JQI","A1SPIAJZORHFT0","3WPCIUYH1AU470H2HRBLZRFBM3CTDN","","732.1000000014901","img/food4.png","75","732.9000000059605","1","0","1","0.8,0.2,0.8,0.2,0.2,0.8,0.2,0.8",""
"","html-keyboard-response","31","46141","0.0-31.0","34X6J5FLPUK64QNW1L83M3VPBR8JQI","A1SPIAJZORHFT0","3WPCIUYH1AU470H2HRBLZRFBM3CTDN","","null","<img src=""img/food4.png"" style=""width:200px;border:14px solid red;"">","null","","","","","",""
"","image-keyboard-response","32","46609","0.0-32.0","34X6J5FLPUK64QNW1L83M3VPBR8JQI","A1SPIAJZORHFT0","3WPCIUYH1AU470H2HRBLZRFBM3CTDN","","467","img/food3.png","75","467.80000000447035","1","1","2","0.8,0.2,0.8,0.2,0.2,0.8,0.2,0.8",""
"","html-keyboard-response","33","46911","0.0-33.0","34X6J5FLPUK64QNW1L83M3VPBR8JQI","A1SPIAJZORHFT0","3WPCIUYH1AU470H2HRBLZRFBM3CTDN","","null","<img src=""img/food3.png"" style=""width:200px; border:14px solid green;"">","null","","","","","",""
"","image-keyboard-response","34","47400","0.0-34.0","34X6J5FLPUK64QNW1L83M3VPBR8JQI","A1SPIAJZORHFT0","3WPCIUYH1AU470H2HRBLZRFBM3CTDN","","488.79999999701977","img/food3.png","75","489.3999999985099","1","1","2","0.8,0.2,0.8,0.2,0.2,0.8,0.2,0.8",""
"","html-keyboard-response","35","47703","0.0-35.0","34X6J5FLPUK64QNW1L83M3VPBR8JQI","A1SPIAJZORHFT0","3WPCIUYH1AU470H2HRBLZRFBM3CTDN","","null","<img src=""img/food3.png"" style=""width:200px; border:14px solid green;"">","null","","","","","",""
"","image-keyboard-response","36","47963","0.0-36.0","34X6J5FLPUK64QNW1L83M3VPBR8JQI","A1SPIAJZORHFT0","3WPCIUYH1AU470H2HRBLZRFBM3CTDN","","258.8999999985099","img/food3.png","75","259.80000000447035","1","1","2","0.8,0.2,0.8,0.2,0.2,0.8,0.2,0.8",""
"","html-keyboard-response","37","48265","0.0-37.0","34X6J5FLPUK64QNW1L83M3VPBR8JQI","A1SPIAJZORHFT0","3WPCIUYH1AU470H2HRBLZRFBM3CTDN","","null","<img src=""img/food3.png"" style=""width:200px; border:14px solid green;"">","null","","","","","",""
"","image-keyboard-response","38","48855","0.0-38.0","34X6J5FLPUK64QNW1L83M3VPBR8JQI","A1SPIAJZORHFT0","3WPCIUYH1AU470H2HRBLZRFBM3CTDN","","589.7000000029802","img/food4.png","75","590.5","1","1","1","0.8,0.2,0.8,0.2,0.2,0.8,0.2,0.8",""
"","html-keyboard-response","39","49157","0.0-39.0","34X6J5FLPUK64QNW1L83M3VPBR8JQI","A1SPIAJZORHFT0","3WPCIUYH1AU470H2HRBLZRFBM3CTDN","","null","<img src=""img/food4.png"" style=""width:200px; border:14px solid green;"">","null","","","","","",""
"","image-keyboard-response","40","49912","0.0-40.0","34X6J5FLPUK64QNW1L83M3VPBR8JQI","A1SPIAJZORHFT0","3WPCIUYH1AU470H2HRBLZRFBM3CTDN","","754.6000000014901","img/food6.png","76","755.3999999985099","2","1","3","0.8,0.2,0.8,0.2,0.2,0.8,0.2,0.8",""
"","html-keyboard-response","41","50215","0.0-41.0","34X6J5FLPUK64QNW1L83M3VPBR8JQI","A1SPIAJZORHFT0","3WPCIUYH1AU470H2HRBLZRFBM3CTDN","","null","<img src=""img/food6.png"" style=""width:200px; border:14px solid green;"">","null","","","","","",""
"","image-keyboard-response","42","50691","0.0-42.0","34X6J5FLPUK64QNW1L83M3VPBR8JQI","A1SPIAJZORHFT0","3WPCIUYH1AU470H2HRBLZRFBM3CTDN","","476.1000000014901","img/food4.png","75","476.6000000014901","1","1","1","0.8,0.2,0.8,0.2,0.2,0.8,0.2,0.8",""
"","html-keyboard-response","43","50992","0.0-43.0","34X6J5FLPUK64QNW1L83M3VPBR8JQI","A1SPIAJZORHFT0","3WPCIUYH1AU470H2HRBLZRFBM3CTDN","","null","<img src=""img/food4.png"" style=""width:200px; border:14px solid green;"">","null","","","","","",""
"","image-keyboard-response","44","51222","0.0-44.0","34X6J5FLPUK64QNW1L83M3VPBR8JQI","A1SPIAJZORHFT0","3WPCIUYH1AU470H2HRBLZRFBM3CTDN","","229.10000000149012","img/food4.png","75","229.90000000596046","1","1","1","0.8,0.2,0.8,0.2,0.2,0.8,0.2,0.8",""
"","html-keyboard-response","45","51524","0.0-45.0","34X6J5FLPUK64QNW1L83M3VPBR8JQI","A1SPIAJZORHFT0","3WPCIUYH1AU470H2HRBLZRFBM3CTDN","","null","<img src=""img/food4.png"" style=""width:200px; border:14px solid green;"">","null","","","","","",""
"","image-keyboard-response","46","51771","0.0-46.0","34X6J5FLPUK64QNW1L83M3VPBR8JQI","A1SPIAJZORHFT0","3WPCIUYH1AU470H2HRBLZRFBM3CTDN","","246.20000000298023","img/food4.png","75","247.09999999403954","1","1","1","0.8,0.2,0.8,0.2,0.2,0.8,0.2,0.8",""
"","html-keyboard-response","47","52073","0.0-47.0","34X6J5FLPUK64QNW1L83M3VPBR8JQI","A1SPIAJZORHFT0","3WPCIUYH1AU470H2HRBLZRFBM3CTDN","","null","<img src=""img/food4.png"" style=""width:200px; border:14px solid green;"">","null","","","","","",""
"","image-keyboard-response","48","53193","0.0-48.0","34X6J5FLPUK64QNW1L83M3VPBR8JQI","A1SPIAJZORHFT0","3WPCIUYH1AU470H2HRBLZRFBM3CTDN","","1119.6000000014901","img/food6.png","76","1120.2000000029802","2","0","3","0.8,0.2,0.8,0.2,0.2,0.8,0.2,0.8",""
"","html-keyboard-response","49","53494","0.0-49.0","34X6J5FLPUK64QNW1L83M3VPBR8JQI","A1SPIAJZORHFT0","3WPCIUYH1AU470H2HRBLZRFBM3CTDN","","null","<img src=""img/food6.png"" style=""width:200px;border:14px solid red;"">","null","","","","","",""
"","image-keyboard-response","50","54189","0.0-50.0","34X6J5FLPUK64QNW1L83M3VPBR8JQI","A1SPIAJZORHFT0","3WPCIUYH1AU470H2HRBLZRFBM3CTDN","","694.3999999985099","img/food3.png","75","695","1","1","2","0.8,0.2,0.8,0.2,0.2,0.8,0.2,0.8",""
"","html-keyboard-response","51","54490","0.0-51.0","34X6J5FLPUK64QNW1L83M3VPBR8JQI","A1SPIAJZORHFT0","3WPCIUYH1AU470H2HRBLZRFBM3CTDN","","null","<img src=""img/food3.png"" style=""width:200px; border:14px solid green;"">","null","","","","","",""
"","image-keyboard-response","52","55258","0.0-52.0","34X6J5FLPUK64QNW1L83M3VPBR8JQI","A1SPIAJZORHFT0","3WPCIUYH1AU470H2HRBLZRFBM3CTDN","","766.8999999985099","img/food6.png","76","767.7999999970198","2","1","3","0.8,0.2,0.8,0.2,0.2,0.8,0.2,0.8",""
"","html-keyboard-response","53","55559","0.0-53.0","34X6J5FLPUK64QNW1L83M3VPBR8JQI","A1SPIAJZORHFT0","3WPCIUYH1AU470H2HRBLZRFBM3CTDN","","null","<img src=""img/food6.png"" style=""width:200px; border:14px solid green;"">","null","","","","","",""
"","image-keyboard-response","54","56173","0.0-54.0","34X6J5FLPUK64QNW1L83M3VPBR8JQI","A1SPIAJZORHFT0","3WPCIUYH1AU470H2HRBLZRFBM3CTDN","","612.5999999940395","img/food3.png","75","613.5","1","1","2","0.8,0.2,0.8,0.2,0.2,0.8,0.2,0.8",""
"","html-keyboard-response","55","56475","0.0-55.0","34X6J5FLPUK64QNW1L83M3VPBR8JQI","A1SPIAJZORHFT0","3WPCIUYH1AU470H2HRBLZRFBM3CTDN","","null","<img src=""img/food3.png"" style=""width:200px; border:14px solid green;"">","null","","","","","",""
"","image-keyboard-response","56","56826","0.0-56.0","34X6J5FLPUK64QNW1L83M3VPBR8JQI","A1SPIAJZORHFT0","3WPCIUYH1AU470H2HRBLZRFBM3CTDN","","350.3999999985099","img/food3.png","75","350.90000000596046","1","1","2","0.8,0.2,0.8,0.2,0.2,0.8,0.2,0.8",""
"","html-keyboard-response","57","57128","0.0-57.0","34X6J5FLPUK64QNW1L83M3VPBR8JQI","A1SPIAJZORHFT0","3WPCIUYH1AU470H2HRBLZRFBM3CTDN","","null","<img src=""img/food3.png"" style=""width:200px; border:14px solid green;"">","null","","","","","",""
"","image-keyboard-response","58","57902","0.0-58.0","34X6J5FLPUK64QNW1L83M3VPBR8JQI","A1SPIAJZORHFT0","3WPCIUYH1AU470H2HRBLZRFBM3CTDN","","773.8999999985099","img/food4.png","75","774.5","1","0","1","0.8,0.2,0.8,0.2,0.2,0.8,0.2,0.8",""
"","html-keyboard-response","59","58204","0.0-59.0","34X6J5FLPUK64QNW1L83M3VPBR8JQI","A1SPIAJZORHFT0","3WPCIUYH1AU470H2HRBLZRFBM3CTDN","","null","<img src=""img/food4.png"" style=""width:200px;border:14px solid red;"">","null","","","","","",""
"","image-keyboard-response","60","58730","0.0-60.0","34X6J5FLPUK64QNW1L83M3VPBR8JQI","A1SPIAJZORHFT0","3WPCIUYH1AU470H2HRBLZRFBM3CTDN","","525.0999999940395","img/food1.png","76","526","2","1","4","0.8,0.2,0.8,0.2,0.2,0.8,0.2,0.8",""
"","html-keyboard-response","61","59032","0.0-61.0","34X6J5FLPUK64QNW1L83M3VPBR8JQI","A1SPIAJZORHFT0","3WPCIUYH1AU470H2HRBLZRFBM3CTDN","","null","<img src=""img/food1.png"" style=""width:200px; border:14px solid green;"">","null","","","","","",""
"","image-keyboard-response","62","59469","0.0-62.0","34X6J5FLPUK64QNW1L83M3VPBR8JQI","A1SPIAJZORHFT0","3WPCIUYH1AU470H2HRBLZRFBM3CTDN","","436.29999999701977","img/food6.png","76","437","2","0","3","0.8,0.2,0.8,0.2,0.2,0.8,0.2,0.8",""
"","html-keyboard-response","63","59771","0.0-63.0","34X6J5FLPUK64QNW1L83M3VPBR8JQI","A1SPIAJZORHFT0","3WPCIUYH1AU470H2HRBLZRFBM3CTDN","","null","<img src=""img/food6.png"" style=""width:200px;border:14px solid red;"">","null","","","","","",""
"","image-keyboard-response","64","60803","0.0-64.0","34X6J5FLPUK64QNW1L83M3VPBR8JQI","A1SPIAJZORHFT0","3WPCIUYH1AU470H2HRBLZRFBM3CTDN","","1030.7999999970198","img/food1.png","76","1031.6000000014901","2","0","4","0.8,0.2,0.8,0.2,0.2,0.8,0.2,0.8",""
"","html-keyboard-response","65","61104","0.0-65.0","34X6J5FLPUK64QNW1L83M3VPBR8JQI","A1SPIAJZORHFT0","3WPCIUYH1AU470H2HRBLZRFBM3CTDN","","null","<img src=""img/food1.png"" style=""width:200px;border:14px solid red;"">","null","","","","","",""
"","image-keyboard-response","66","61647","0.0-66.0","34X6J5FLPUK64QNW1L83M3VPBR8JQI","A1SPIAJZORHFT0","3WPCIUYH1AU470H2HRBLZRFBM3CTDN","","542","img/food6.png","76","542.6000000014901","2","1","3","0.8,0.2,0.8,0.2,0.2,0.8,0.2,0.8",""
"","html-keyboard-response","67","61949","0.0-67.0","34X6J5FLPUK64QNW1L83M3VPBR8JQI","A1SPIAJZORHFT0","3WPCIUYH1AU470H2HRBLZRFBM3CTDN","","null","<img src=""img/food6.png"" style=""width:200px; border:14px solid green;"">","null","","","","","",""
"","image-keyboard-response","68","62498","0.0-68.0","34X6J5FLPUK64QNW1L83M3VPBR8JQI","A1SPIAJZORHFT0","3WPCIUYH1AU470H2HRBLZRFBM3CTDN","","548.0999999940395","img/food4.png","75","548.8999999985099","1","1","1","0.8,0.2,0.8,0.2,0.2,0.8,0.2,0.8",""
"","html-keyboard-response","69","62800","0.0-69.0","34X6J5FLPUK64QNW1L83M3VPBR8JQI","A1SPIAJZORHFT0","3WPCIUYH1AU470H2HRBLZRFBM3CTDN","","null","<img src=""img/food4.png"" style=""width:200px; border:14px solid green;"">","null","","","","","",""
"","image-keyboard-response","70","63102","0.0-70.0","34X6J5FLPUK64QNW1L83M3VPBR8JQI","A1SPIAJZORHFT0","3WPCIUYH1AU470H2HRBLZRFBM3CTDN","","301","img/food4.png","75","301.69999999552965","1","1","1","0.8,0.2,0.8,0.2,0.2,0.8,0.2,0.8",""
"","html-keyboard-response","71","63404","0.0-71.0","34X6J5FLPUK64QNW1L83M3VPBR8JQI","A1SPIAJZORHFT0","3WPCIUYH1AU470H2HRBLZRFBM3CTDN","","null","<img src=""img/food4.png"" style=""width:200px; border:14px solid green;"">","null","","","","","",""
"","image-keyboard-response","72","64069","0.0-72.0","34X6J5FLPUK64QNW1L83M3VPBR8JQI","A1SPIAJZORHFT0","3WPCIUYH1AU470H2HRBLZRFBM3CTDN","","664.6999999955297","img/food6.png","76","665.3999999985099","2","1","3","0.8,0.2,0.8,0.2,0.2,0.8,0.2,0.8",""
"","html-keyboard-response","73","64371","0.0-73.0","34X6J5FLPUK64QNW1L83M3VPBR8JQI","A1SPIAJZORHFT0","3WPCIUYH1AU470H2HRBLZRFBM3CTDN","","null","<img src=""img/food6.png"" style=""width:200px; border:14px solid green;"">","null","","","","","",""
"","image-keyboard-response","74","64870","0.0-74.0","34X6J5FLPUK64QNW1L83M3VPBR8JQI","A1SPIAJZORHFT0","3WPCIUYH1AU470H2HRBLZRFBM3CTDN","","497.90000000596046","img/food1.png","76","498.79999999701977","2","0","4","0.8,0.2,0.8,0.2,0.2,0.8,0.2,0.8",""
"","html-keyboard-response","75","65172","0.0-75.0","34X6J5FLPUK64QNW1L83M3VPBR8JQI","A1SPIAJZORHFT0","3WPCIUYH1AU470H2HRBLZRFBM3CTDN","","null","<img src=""img/food1.png"" style=""width:200px;border:14px solid red;"">","null","","","","","",""
"","image-keyboard-response","76","65514","0.0-76.0","34X6J5FLPUK64QNW1L83M3VPBR8JQI","A1SPIAJZORHFT0","3WPCIUYH1AU470H2HRBLZRFBM3CTDN","","341.29999999701977","img/food1.png","76","342","2","0","4","0.8,0.2,0.8,0.2,0.2,0.8,0.2,0.8",""
"","html-keyboard-response","77","65815","0.0-77.0","34X6J5FLPUK64QNW1L83M3VPBR8JQI","A1SPIAJZORHFT0","3WPCIUYH1AU470H2HRBLZRFBM3CTDN","","null","<img src=""img/food1.png"" style=""width:200px;border:14px solid red;"">","null","","","","","",""
"","image-keyboard-response","78","66848","0.0-78.0","34X6J5FLPUK64QNW1L83M3VPBR8JQI","A1SPIAJZORHFT0","3WPCIUYH1AU470H2HRBLZRFBM3CTDN","","1032","img/food3.png","75","1032.8000000044703","1","0","2","0.8,0.2,0.8,0.2,0.2,0.8,0.2,0.8",""
"","html-keyboard-response","79","67150","0.0-79.0","34X6J5FLPUK64QNW1L83M3VPBR8JQI","A1SPIAJZORHFT0","3WPCIUYH1AU470H2HRBLZRFBM3CTDN","","null","<img src=""img/food3.png"" style=""width:200px;border:14px solid red;"">","null","","","","","",""
"","image-keyboard-response","80","68056","0.0-80.0","34X6J5FLPUK64QNW1L83M3VPBR8JQI","A1SPIAJZORHFT0","3WPCIUYH1AU470H2HRBLZRFBM3CTDN","","905.2999999970198","img/food1.png","76","906","2","1","4","0.8,0.2,0.8,0.2,0.2,0.8,0.2,0.8",""
"","html-keyboard-response","81","68358","0.0-81.0","34X6J5FLPUK64QNW1L83M3VPBR8JQI","A1SPIAJZORHFT0","3WPCIUYH1AU470H2HRBLZRFBM3CTDN","","null","<img src=""img/food1.png"" style=""width:200px; border:14px solid green;"">","null","","","","","",""
"","image-keyboard-response","82","69154","0.0-82.0","34X6J5FLPUK64QNW1L83M3VPBR8JQI","A1SPIAJZORHFT0","3WPCIUYH1AU470H2HRBLZRFBM3CTDN","","794.8999999985099","img/food6.png","76","795.4000000059605","2","0","3","0.8,0.2,0.8,0.2,0.2,0.8,0.2,0.8",""
"","html-keyboard-response","83","69456","0.0-83.0","34X6J5FLPUK64QNW1L83M3VPBR8JQI","A1SPIAJZORHFT0","3WPCIUYH1AU470H2HRBLZRFBM3CTDN","","null","<img src=""img/food6.png"" style=""width:200px;border:14px solid red;"">","null","","","","","",""
"","image-keyboard-response","84","70104","0.0-84.0","34X6J5FLPUK64QNW1L83M3VPBR8JQI","A1SPIAJZORHFT0","3WPCIUYH1AU470H2HRBLZRFBM3CTDN","","646.8999999985099","img/food1.png","76","647.7999999970198","2","0","4","0.8,0.2,0.8,0.2,0.2,0.8,0.2,0.8",""
"","html-keyboard-response","85","70406","0.0-85.0","34X6J5FLPUK64QNW1L83M3VPBR8JQI","A1SPIAJZORHFT0","3WPCIUYH1AU470H2HRBLZRFBM3CTDN","","null","<img src=""img/food1.png"" style=""width:200px;border:14px solid red;"">","null","","","","","",""
"","image-keyboard-response","86","70693","0.0-86.0","34X6J5FLPUK64QNW1L83M3VPBR8JQI","A1SPIAJZORHFT0","3WPCIUYH1AU470H2HRBLZRFBM3CTDN","","286.20000000298023","img/food1.png","76","287","2","1","4","0.8,0.2,0.8,0.2,0.2,0.8,0.2,0.8",""
"","html-keyboard-response","87","70995","0.0-87.0","34X6J5FLPUK64QNW1L83M3VPBR8JQI","A1SPIAJZORHFT0","3WPCIUYH1AU470H2HRBLZRFBM3CTDN","","null","<img src=""img/food1.png"" style=""width:200px; border:14px solid green;"">","null","","","","","",""
"","image-keyboard-response","88","72467","0.0-88.0","34X6J5FLPUK64QNW1L83M3VPBR8JQI","A1SPIAJZORHFT0","3WPCIUYH1AU470H2HRBLZRFBM3CTDN","","1471.1000000014901","img/food4.png","75","1471.7000000029802","1","1","1","0.8,0.2,0.8,0.2,0.2,0.8,0.2,0.8",""
"","html-keyboard-response","89","72769","0.0-89.0","34X6J5FLPUK64QNW1L83M3VPBR8JQI","A1SPIAJZORHFT0","3WPCIUYH1AU470H2HRBLZRFBM3CTDN","","null","<img src=""img/food4.png"" style=""width:200px; border:14px solid green;"">","null","","","","","",""
"","image-keyboard-response","90","73588","0.0-90.0","34X6J5FLPUK64QNW1L83M3VPBR8JQI","A1SPIAJZORHFT0","3WPCIUYH1AU470H2HRBLZRFBM3CTDN","","817.6999999955297","img/food6.png","76","818.3000000044703","2","1","3","0.8,0.2,0.8,0.2,0.2,0.8,0.2,0.8",""
"","html-keyboard-response","91","73889","0.0-91.0","34X6J5FLPUK64QNW1L83M3VPBR8JQI","A1SPIAJZORHFT0","3WPCIUYH1AU470H2HRBLZRFBM3CTDN","","null","<img src=""img/food6.png"" style=""width:200px; border:14px solid green;"">","null","","","","","",""
"","image-keyboard-response","92","74496","0.0-92.0","34X6J5FLPUK64QNW1L83M3VPBR8JQI","A1SPIAJZORHFT0","3WPCIUYH1AU470H2HRBLZRFBM3CTDN","","605.2000000029802","img/food4.png","75","606","1","1","1","0.8,0.2,0.8,0.2,0.2,0.8,0.2,0.8",""
"","html-keyboard-response","93","74797","0.0-93.0","34X6J5FLPUK64QNW1L83M3VPBR8JQI","A1SPIAJZORHFT0","3WPCIUYH1AU470H2HRBLZRFBM3CTDN","","null","<img src=""img/food4.png"" style=""width:200px; border:14px solid green;"">","null","","","","","",""
"","image-keyboard-response","94","75073","0.0-94.0","34X6J5FLPUK64QNW1L83M3VPBR8JQI","A1SPIAJZORHFT0","3WPCIUYH1AU470H2HRBLZRFBM3CTDN","","274.59999999403954","img/food4.png","75","275.6000000014901","1","1","1","0.8,0.2,0.8,0.2,0.2,0.8,0.2,0.8",""
"","html-keyboard-response","95","75374","0.0-95.0","34X6J5FLPUK64QNW1L83M3VPBR8JQI","A1SPIAJZORHFT0","3WPCIUYH1AU470H2HRBLZRFBM3CTDN","","null","<img src=""img/food4.png"" style=""width:200px; border:14px solid green;"">","null","","","","","",""
"","image-keyboard-response","96","75675","0.0-96.0","34X6J5FLPUK64QNW1L83M3VPBR8JQI","A1SPIAJZORHFT0","3WPCIUYH1AU470H2HRBLZRFBM3CTDN","","300.3999999985099","img/food4.png","75","301.1000000014901","1","1","1","0.8,0.2,0.8,0.2,0.2,0.8,0.2,0.8",""
"","html-keyboard-response","97","75977","0.0-97.0","34X6J5FLPUK64QNW1L83M3VPBR8JQI","A1SPIAJZORHFT0","3WPCIUYH1AU470H2HRBLZRFBM3CTDN","","null","<img src=""img/food4.png"" style=""width:200px; border:14px solid green;"">","null","","","","","",""
"","image-keyboard-response","98","76617","0.0-98.0","34X6J5FLPUK64QNW1L83M3VPBR8JQI","A1SPIAJZORHFT0","3WPCIUYH1AU470H2HRBLZRFBM3CTDN","","639.6000000014901","img/food1.png","76","640.3999999985099","2","0","4","0.8,0.2,0.8,0.2,0.2,0.8,0.2,0.8",""
"","html-keyboard-response","99","76921","0.0-99.0","34X6J5FLPUK64QNW1L83M3VPBR8JQI","A1SPIAJZORHFT0","3WPCIUYH1AU470H2HRBLZRFBM3CTDN","","null","<img src=""img/food1.png"" style=""width:200px;border:14px solid red;"">","null","","","","","",""
"","image-keyboard-response","100","77077","0.0-100.0","34X6J5FLPUK64QNW1L83M3VPBR8JQI","A1SPIAJZORHFT0","3WPCIUYH1AU470H2HRBLZRFBM3CTDN","","155.10000000149012","img/food3.png","76","155.89999999850988","2","0","2","0.8,0.2,0.8,0.2,0.2,0.8,0.2,0.8",""
"","html-keyboard-response","101","77384","0.0-101.0","34X6J5FLPUK64QNW1L83M3VPBR8JQI","A1SPIAJZORHFT0","3WPCIUYH1AU470H2HRBLZRFBM3CTDN","","null","<img src=""img/food3.png"" style=""width:200px;border:14px solid red;"">","null","","","","","",""
"","image-keyboard-response","102","79089","0.0-102.0","34X6J5FLPUK64QNW1L83M3VPBR8JQI","A1SPIAJZORHFT0","3WPCIUYH1AU470H2HRBLZRFBM3CTDN","","1703.3999999985099","img/food4.png","75","1704.2000000029802","1","1","1","0.8,0.2,0.8,0.2,0.2,0.8,0.2,0.8",""
"","html-keyboard-response","103","79392","0.0-103.0","34X6J5FLPUK64QNW1L83M3VPBR8JQI","A1SPIAJZORHFT0","3WPCIUYH1AU470H2HRBLZRFBM3CTDN","","null","<img src=""img/food4.png"" style=""width:200px; border:14px solid green;"">","null","","","","","",""
"","image-keyboard-response","104","79986","0.0-104.0","34X6J5FLPUK64QNW1L83M3VPBR8JQI","A1SPIAJZORHFT0","3WPCIUYH1AU470H2HRBLZRFBM3CTDN","","593.1000000014901","img/food3.png","75","593.7999999970198","1","0","2","0.8,0.2,0.8,0.2,0.2,0.8,0.2,0.8",""
"","html-keyboard-response","105","80288","0.0-105.0","34X6J5FLPUK64QNW1L83M3VPBR8JQI","A1SPIAJZORHFT0","3WPCIUYH1AU470H2HRBLZRFBM3CTDN","","null","<img src=""img/food3.png"" style=""width:200px;border:14px solid red;"">","null","","","","","",""
"","image-keyboard-response","106","80597","0.0-106.0","34X6J5FLPUK64QNW1L83M3VPBR8JQI","A1SPIAJZORHFT0","3WPCIUYH1AU470H2HRBLZRFBM3CTDN","","309","img/food3.png","75","309.69999999552965","1","0","2","0.8,0.2,0.8,0.2,0.2,0.8,0.2,0.8",""
"","html-keyboard-response","107","80900","0.0-107.0","34X6J5FLPUK64QNW1L83M3VPBR8JQI","A1SPIAJZORHFT0","3WPCIUYH1AU470H2HRBLZRFBM3CTDN","","null","<img src=""img/food3.png"" style=""width:200px;border:14px solid red;"">","null","","","","","",""
"","image-keyboard-response","108","81297","0.0-108.0","34X6J5FLPUK64QNW1L83M3VPBR8JQI","A1SPIAJZORHFT0","3WPCIUYH1AU470H2HRBLZRFBM3CTDN","","396.5","img/food3.png","75","397.20000000298023","1","0","2","0.8,0.2,0.8,0.2,0.2,0.8,0.2,0.8",""
"","html-keyboard-response","109","81600","0.0-109.0","34X6J5FLPUK64QNW1L83M3VPBR8JQI","A1SPIAJZORHFT0","3WPCIUYH1AU470H2HRBLZRFBM3CTDN","","null","<img src=""img/food3.png"" style=""width:200px;border:14px solid red;"">","null","","","","","",""
"","image-keyboard-response","110","82281","0.0-110.0","34X6J5FLPUK64QNW1L83M3VPBR8JQI","A1SPIAJZORHFT0","3WPCIUYH1AU470H2HRBLZRFBM3CTDN","","679.8999999985099","img/food6.png","76","680.5","2","0","3","0.8,0.2,0.8,0.2,0.2,0.8,0.2,0.8",""
"","html-keyboard-response","111","82582","0.0-111.0","34X6J5FLPUK64QNW1L83M3VPBR8JQI","A1SPIAJZORHFT0","3WPCIUYH1AU470H2HRBLZRFBM3CTDN","","null","<img src=""img/food6.png"" style=""width:200px;border:14px solid red;"">","null","","","","","",""
"","image-keyboard-response","112","82952","0.0-112.0","34X6J5FLPUK64QNW1L83M3VPBR8JQI","A1SPIAJZORHFT0","3WPCIUYH1AU470H2HRBLZRFBM3CTDN","","368.70000000298023","img/food6.png","76","369.5","2","1","3","0.8,0.2,0.8,0.2,0.2,0.8,0.2,0.8",""
"","html-keyboard-response","113","83254","0.0-113.0","34X6J5FLPUK64QNW1L83M3VPBR8JQI","A1SPIAJZORHFT0","3WPCIUYH1AU470H2HRBLZRFBM3CTDN","","null","<img src=""img/food6.png"" style=""width:200px; border:14px solid green;"">","null","","","","","",""
"","image-keyboard-response","114","85076","0.0-114.0","34X6J5FLPUK64QNW1L83M3VPBR8JQI","A1SPIAJZORHFT0","3WPCIUYH1AU470H2HRBLZRFBM3CTDN","","1820.7000000029802","img/food1.png","76","1821.6999999955297","2","0","4","0.8,0.2,0.8,0.2,0.2,0.8,0.2,0.8",""
"","html-keyboard-response","115","85377","0.0-115.0","34X6J5FLPUK64QNW1L83M3VPBR8JQI","A1SPIAJZORHFT0","3WPCIUYH1AU470H2HRBLZRFBM3CTDN","","null","<img src=""img/food1.png"" style=""width:200px;border:14px solid red;"">","null","","","","","",""
"","image-keyboard-response","116","85678","0.0-116.0","34X6J5FLPUK64QNW1L83M3VPBR8JQI","A1SPIAJZORHFT0","3WPCIUYH1AU470H2HRBLZRFBM3CTDN","","300","img/food1.png","76","300.70000000298023","2","1","4","0.8,0.2,0.8,0.2,0.2,0.8,0.2,0.8",""
"","html-keyboard-response","117","85980","0.0-117.0","34X6J5FLPUK64QNW1L83M3VPBR8JQI","A1SPIAJZORHFT0","3WPCIUYH1AU470H2HRBLZRFBM3CTDN","","null","<img src=""img/food1.png"" style=""width:200px; border:14px solid green;"">","null","","","","","",""
"","image-keyboard-response","118","86877","0.0-118.0","34X6J5FLPUK64QNW1L83M3VPBR8JQI","A1SPIAJZORHFT0","3WPCIUYH1AU470H2HRBLZRFBM3CTDN","","896.6000000014901","img/food3.png","76","897.5","2","0","2","0.8,0.2,0.8,0.2,0.2,0.8,0.2,0.8",""
"","html-keyboard-response","119","87180","0.0-119.0","34X6J5FLPUK64QNW1L83M3VPBR8JQI","A1SPIAJZORHFT0","3WPCIUYH1AU470H2HRBLZRFBM3CTDN","","null","<img src=""img/food3.png"" style=""width:200px;border:14px solid red;"">","null","","","","","",""
"","image-keyboard-response","120","88295","0.0-120.0","34X6J5FLPUK64QNW1L83M3VPBR8JQI","A1SPIAJZORHFT0","3WPCIUYH1AU470H2HRBLZRFBM3CTDN","","1114.6000000014901","img/food6.png","76","1115.1999999955297","2","1","3","0.8,0.2,0.8,0.2,0.2,0.8,0.2,0.8",""
"","html-keyboard-response","121","88605","0.0-121.0","34X6J5FLPUK64QNW1L83M3VPBR8JQI","A1SPIAJZORHFT0","3WPCIUYH1AU470H2HRBLZRFBM3CTDN","","null","<img src=""img/food6.png"" style=""width:200px; border:14px solid green;"">","null","","","","","",""
"","image-keyboard-response","122","89245","0.0-122.0","34X6J5FLPUK64QNW1L83M3VPBR8JQI","A1SPIAJZORHFT0","3WPCIUYH1AU470H2HRBLZRFBM3CTDN","","639.1000000014901","img/food6.png","76","639.8999999985099","2","1","3","0.8,0.2,0.8,0.2,0.2,0.8,0.2,0.8",""
"","html-keyboard-response","123","89547","0.0-123.0","34X6J5FLPUK64QNW1L83M3VPBR8JQI","A1SPIAJZORHFT0","3WPCIUYH1AU470H2HRBLZRFBM3CTDN","","null","<img src=""img/food6.png"" style=""width:200px; border:14px solid green;"">","null","","","","","",""
"","image-keyboard-response","124","90167","0.0-124.0","34X6J5FLPUK64QNW1L83M3VPBR8JQI","A1SPIAJZORHFT0","3WPCIUYH1AU470H2HRBLZRFBM3CTDN","","619.3000000044703","img/food4.png","75","620.1999999955297","1","1","1","0.8,0.2,0.8,0.2,0.2,0.8,0.2,0.8",""
"","html-keyboard-response","125","90468","0.0-125.0","34X6J5FLPUK64QNW1L83M3VPBR8JQI","A1SPIAJZORHFT0","3WPCIUYH1AU470H2HRBLZRFBM3CTDN","","null","<img src=""img/food4.png"" style=""width:200px; border:14px solid green;"">","null","","","","","",""
"","image-keyboard-response","126","90798","0.0-126.0","34X6J5FLPUK64QNW1L83M3VPBR8JQI","A1SPIAJZORHFT0","3WPCIUYH1AU470H2HRBLZRFBM3CTDN","","329.20000000298023","img/food4.png","75","329.8999999985099","1","0","1","0.8,0.2,0.8,0.2,0.2,0.8,0.2,0.8",""
"","html-keyboard-response","127","91100","0.0-127.0","34X6J5FLPUK64QNW1L83M3VPBR8JQI","A1SPIAJZORHFT0","3WPCIUYH1AU470H2HRBLZRFBM3CTDN","","null","<img src=""img/food4.png"" style=""width:200px;border:14px solid red;"">","null","","","","","",""
"","image-keyboard-response","128","91453","0.0-128.0","34X6J5FLPUK64QNW1L83M3VPBR8JQI","A1SPIAJZORHFT0","3WPCIUYH1AU470H2HRBLZRFBM3CTDN","","352.3999999985099","img/food4.png","75","353.19999999552965","1","1","1","0.8,0.2,0.8,0.2,0.2,0.8,0.2,0.8",""
"","html-keyboard-response","129","91756","0.0-129.0","34X6J5FLPUK64QNW1L83M3VPBR8JQI","A1SPIAJZORHFT0","3WPCIUYH1AU470H2HRBLZRFBM3CTDN","","null","<img src=""img/food4.png"" style=""width:200px; border:14px solid green;"">","null","","","","","",""
"","image-keyboard-response","130","92271","0.0-130.0","34X6J5FLPUK64QNW1L83M3VPBR8JQI","A1SPIAJZORHFT0","3WPCIUYH1AU470H2HRBLZRFBM3CTDN","","515","img/food4.png","75","515.7000000029802","1","1","1","0.8,0.2,0.8,0.2,0.2,0.8,0.2,0.8",""
"","html-keyboard-response","131","92573","0.0-131.0","34X6J5FLPUK64QNW1L83M3VPBR8JQI","A1SPIAJZORHFT0","3WPCIUYH1AU470H2HRBLZRFBM3CTDN","","null","<img src=""img/food4.png"" style=""width:200px; border:14px solid green;"">","null","","","","","",""
"","image-keyboard-response","132","93502","0.0-132.0","34X6J5FLPUK64QNW1L83M3VPBR8JQI","A1SPIAJZORHFT0","3WPCIUYH1AU470H2HRBLZRFBM3CTDN","","928.6000000014901","img/food1.png","76","929.3000000044703","2","1","4","0.8,0.2,0.8,0.2,0.2,0.8,0.2,0.8",""
"","html-keyboard-response","133","93805","0.0-133.0","34X6J5FLPUK64QNW1L83M3VPBR8JQI","A1SPIAJZORHFT0","3WPCIUYH1AU470H2HRBLZRFBM3CTDN","","null","<img src=""img/food1.png"" style=""width:200px; border:14px solid green;"">","null","","","","","",""
"","image-keyboard-response","134","94473","0.0-134.0","34X6J5FLPUK64QNW1L83M3VPBR8JQI","A1SPIAJZORHFT0","3WPCIUYH1AU470H2HRBLZRFBM3CTDN","","667.2999999970198","img/food1.png","76","668.2000000029802","2","1","4","0.8,0.2,0.8,0.2,0.2,0.8,0.2,0.8",""
"","html-keyboard-response","135","94775","0.0-135.0","34X6J5FLPUK64QNW1L83M3VPBR8JQI","A1SPIAJZORHFT0","3WPCIUYH1AU470H2HRBLZRFBM3CTDN","","null","<img src=""img/food1.png"" style=""width:200px; border:14px solid green;"">","null","","","","","",""
"","image-keyboard-response","136","96036","0.0-136.0","34X6J5FLPUK64QNW1L83M3VPBR8JQI","A1SPIAJZORHFT0","3WPCIUYH1AU470H2HRBLZRFBM3CTDN","","1260.3999999985099","img/food3.png","75","1261.1000000014901","1","1","2","0.8,0.2,0.8,0.2,0.2,0.8,0.2,0.8",""
"","html-keyboard-response","137","96338","0.0-137.0","34X6J5FLPUK64QNW1L83M3VPBR8JQI","A1SPIAJZORHFT0","3WPCIUYH1AU470H2HRBLZRFBM3CTDN","","null","<img src=""img/food3.png"" style=""width:200px; border:14px solid green;"">","null","","","","","",""
"","image-keyboard-response","138","97087","0.0-138.0","34X6J5FLPUK64QNW1L83M3VPBR8JQI","A1SPIAJZORHFT0","3WPCIUYH1AU470H2HRBLZRFBM3CTDN","","748.6999999955297","img/food1.png","76","749.5","2","0","4","0.8,0.2,0.8,0.2,0.2,0.8,0.2,0.8",""
"","html-keyboard-response","139","97389","0.0-139.0","34X6J5FLPUK64QNW1L83M3VPBR8JQI","A1SPIAJZORHFT0","3WPCIUYH1AU470H2HRBLZRFBM3CTDN","","null","<img src=""img/food1.png"" style=""width:200px;border:14px solid red;"">","null","","","","","",""
"","image-keyboard-response","140","98131","0.0-140.0","34X6J5FLPUK64QNW1L83M3VPBR8JQI","A1SPIAJZORHFT0","3WPCIUYH1AU470H2HRBLZRFBM3CTDN","","741.8000000044703","img/food1.png","76","742.5","2","1","4","0.8,0.2,0.8,0.2,0.2,0.8,0.2,0.8",""
"","html-keyboard-response","141","98434","0.0-141.0","34X6J5FLPUK64QNW1L83M3VPBR8JQI","A1SPIAJZORHFT0","3WPCIUYH1AU470H2HRBLZRFBM3CTDN","","null","<img src=""img/food1.png"" style=""width:200px; border:14px solid green;"">","null","","","","","",""
"","image-keyboard-response","142","99252","0.0-142.0","34X6J5FLPUK64QNW1L83M3VPBR8JQI","A1SPIAJZORHFT0","3WPCIUYH1AU470H2HRBLZRFBM3CTDN","","817.3000000044703","img/food4.png","75","818.0999999940395","1","0","1","0.8,0.2,0.8,0.2,0.2,0.8,0.2,0.8",""
"","html-keyboard-response","143","99554","0.0-143.0","34X6J5FLPUK64QNW1L83M3VPBR8JQI","A1SPIAJZORHFT0","3WPCIUYH1AU470H2HRBLZRFBM3CTDN","","null","<img src=""img/food4.png"" style=""width:200px;border:14px solid red;"">","null","","","","","",""
"","image-keyboard-response","144","100440","0.0-144.0","34X6J5FLPUK64QNW1L83M3VPBR8JQI","A1SPIAJZORHFT0","3WPCIUYH1AU470H2HRBLZRFBM3CTDN","","885","img/food3.png","75","886.5","1","1","2","0.8,0.2,0.8,0.2,0.2,0.8,0.2,0.8",""
"","html-keyboard-response","145","100743","0.0-145.0","34X6J5FLPUK64QNW1L83M3VPBR8JQI","A1SPIAJZORHFT0","3WPCIUYH1AU470H2HRBLZRFBM3CTDN","","null","<img src=""img/food3.png"" style=""width:200px; border:14px solid green;"">","null","","","","","",""
"","image-keyboard-response","146","101452","0.0-146.0","34X6J5FLPUK64QNW1L83M3VPBR8JQI","A1SPIAJZORHFT0","3WPCIUYH1AU470H2HRBLZRFBM3CTDN","","708","img/food6.png","76","708.6000000014901","2","1","3","0.8,0.2,0.8,0.2,0.2,0.8,0.2,0.8",""
"","html-keyboard-response","147","101753","0.0-147.0","34X6J5FLPUK64QNW1L83M3VPBR8JQI","A1SPIAJZORHFT0","3WPCIUYH1AU470H2HRBLZRFBM3CTDN","","null","<img src=""img/food6.png"" style=""width:200px; border:14px solid green;"">","null","","","","","",""
"","image-keyboard-response","148","102778","0.0-148.0","34X6J5FLPUK64QNW1L83M3VPBR8JQI","A1SPIAJZORHFT0","3WPCIUYH1AU470H2HRBLZRFBM3CTDN","","1024.3000000044703","img/food3.png","75","1025.1000000014901","1","0","2","0.8,0.2,0.8,0.2,0.2,0.8,0.2,0.8",""
"","html-keyboard-response","149","103081","0.0-149.0","34X6J5FLPUK64QNW1L83M3VPBR8JQI","A1SPIAJZORHFT0","3WPCIUYH1AU470H2HRBLZRFBM3CTDN","","null","<img src=""img/food3.png"" style=""width:200px;border:14px solid red;"">","null","","","","","",""
"","image-keyboard-response","150","103628","0.0-150.0","34X6J5FLPUK64QNW1L83M3VPBR8JQI","A1SPIAJZORHFT0","3WPCIUYH1AU470H2HRBLZRFBM3CTDN","","546.3000000044703","img/food3.png","75","547.1999999955297","1","1","2","0.8,0.2,0.8,0.2,0.2,0.8,0.2,0.8",""
"","html-keyboard-response","151","103930","0.0-151.0","34X6J5FLPUK64QNW1L83M3VPBR8JQI","A1SPIAJZORHFT0","3WPCIUYH1AU470H2HRBLZRFBM3CTDN","","null","<img src=""img/food3.png"" style=""width:200px; border:14px solid green;"">","null","","","","","",""
"","image-keyboard-response","152","104732","0.0-152.0","34X6J5FLPUK64QNW1L83M3VPBR8JQI","A1SPIAJZORHFT0","3WPCIUYH1AU470H2HRBLZRFBM3CTDN","","800.5999999940395","img/food6.png","76","801.3999999985099","2","1","3","0.8,0.2,0.8,0.2,0.2,0.8,0.2,0.8",""
"","html-keyboard-response","153","105033","0.0-153.0","34X6J5FLPUK64QNW1L83M3VPBR8JQI","A1SPIAJZORHFT0","3WPCIUYH1AU470H2HRBLZRFBM3CTDN","","null","<img src=""img/food6.png"" style=""width:200px; border:14px solid green;"">","null","","","","","",""
"","image-keyboard-response","154","105837","0.0-154.0","34X6J5FLPUK64QNW1L83M3VPBR8JQI","A1SPIAJZORHFT0","3WPCIUYH1AU470H2HRBLZRFBM3CTDN","","803.1000000014901","img/food1.png","76","803.7000000029802","2","1","4","0.8,0.2,0.8,0.2,0.2,0.8,0.2,0.8",""
"","html-keyboard-response","155","106138","0.0-155.0","34X6J5FLPUK64QNW1L83M3VPBR8JQI","A1SPIAJZORHFT0","3WPCIUYH1AU470H2HRBLZRFBM3CTDN","","null","<img src=""img/food1.png"" style=""width:200px; border:14px solid green;"">","null","","","","","",""
"","image-keyboard-response","156","106936","0.0-156.0","34X6J5FLPUK64QNW1L83M3VPBR8JQI","A1SPIAJZORHFT0","3WPCIUYH1AU470H2HRBLZRFBM3CTDN","","797","img/food6.png","76","797.7000000029802","2","1","3","0.8,0.2,0.8,0.2,0.2,0.8,0.2,0.8",""
"","html-keyboard-response","157","107238","0.0-157.0","34X6J5FLPUK64QNW1L83M3VPBR8JQI","A1SPIAJZORHFT0","3WPCIUYH1AU470H2HRBLZRFBM3CTDN","","null","<img src=""img/food6.png"" style=""width:200px; border:14px solid green;"">","null","","","","","",""
"","image-keyboard-response","158","107757","0.0-158.0","34X6J5FLPUK64QNW1L83M3VPBR8JQI","A1SPIAJZORHFT0","3WPCIUYH1AU470H2HRBLZRFBM3CTDN","","517.7999999970198","img/food6.png","76","518.5","2","1","3","0.8,0.2,0.8,0.2,0.2,0.8,0.2,0.8",""
"","html-keyboard-response","159","108059","0.0-159.0","34X6J5FLPUK64QNW1L83M3VPBR8JQI","A1SPIAJZORHFT0","3WPCIUYH1AU470H2HRBLZRFBM3CTDN","","null","<img src=""img/food6.png"" style=""width:200px; border:14px solid green;"">","null","","","","","",""
"","image-keyboard-response","160","108642","0.0-160.0","34X6J5FLPUK64QNW1L83M3VPBR8JQI","A1SPIAJZORHFT0","3WPCIUYH1AU470H2HRBLZRFBM3CTDN","","581.5","img/food6.png","76","582.2999999970198","2","1","3","0.8,0.2,0.8,0.2,0.2,0.8,0.2,0.8",""
"","html-keyboard-response","161","108944","0.0-161.0","34X6J5FLPUK64QNW1L83M3VPBR8JQI","A1SPIAJZORHFT0","3WPCIUYH1AU470H2HRBLZRFBM3CTDN","","null","<img src=""img/food6.png"" style=""width:200px; border:14px solid green;"">","null","","","","","",""
"","image-keyboard-response","162","109722","0.0-162.0","34X6J5FLPUK64QNW1L83M3VPBR8JQI","A1SPIAJZORHFT0","3WPCIUYH1AU470H2HRBLZRFBM3CTDN","","777.7000000029802","img/food6.png","76","778.5","2","0","3","0.8,0.2,0.8,0.2,0.2,0.8,0.2,0.8",""
"","html-keyboard-response","163","110023","0.0-163.0","34X6J5FLPUK64QNW1L83M3VPBR8JQI","A1SPIAJZORHFT0","3WPCIUYH1AU470H2HRBLZRFBM3CTDN","","null","<img src=""img/food6.png"" style=""width:200px;border:14px solid red;"">","null","","","","","",""
"","image-keyboard-response","164","110866","0.0-164.0","34X6J5FLPUK64QNW1L83M3VPBR8JQI","A1SPIAJZORHFT0","3WPCIUYH1AU470H2HRBLZRFBM3CTDN","","841.2999999970198","img/food1.png","76","842.1000000014901","2","1","4","0.8,0.2,0.8,0.2,0.2,0.8,0.2,0.8",""
"","html-keyboard-response","165","111167","0.0-165.0","34X6J5FLPUK64QNW1L83M3VPBR8JQI","A1SPIAJZORHFT0","3WPCIUYH1AU470H2HRBLZRFBM3CTDN","","null","<img src=""img/food1.png"" style=""width:200px; border:14px solid green;"">","null","","","","","",""
"","image-keyboard-response","166","111809","0.0-166.0","34X6J5FLPUK64QNW1L83M3VPBR8JQI","A1SPIAJZORHFT0","3WPCIUYH1AU470H2HRBLZRFBM3CTDN","","641.5","img/food3.png","75","641.8999999985099","1","1","2","0.8,0.2,0.8,0.2,0.2,0.8,0.2,0.8",""
"","html-keyboard-response","167","112110","0.0-167.0","34X6J5FLPUK64QNW1L83M3VPBR8JQI","A1SPIAJZORHFT0","3WPCIUYH1AU470H2HRBLZRFBM3CTDN","","null","<img src=""img/food3.png"" style=""width:200px; border:14px solid green;"">","null","","","","","",""
"","image-keyboard-response","168","112411","0.0-168.0","34X6J5FLPUK64QNW1L83M3VPBR8JQI","A1SPIAJZORHFT0","3WPCIUYH1AU470H2HRBLZRFBM3CTDN","","300.20000000298023","img/food3.png","75","300.79999999701977","1","1","2","0.8,0.2,0.8,0.2,0.2,0.8,0.2,0.8",""
"","html-keyboard-response","169","112713","0.0-169.0","34X6J5FLPUK64QNW1L83M3VPBR8JQI","A1SPIAJZORHFT0","3WPCIUYH1AU470H2HRBLZRFBM3CTDN","","null","<img src=""img/food3.png"" style=""width:200px; border:14px solid green;"">","null","","","","","",""
"","image-keyboard-response","170","113231","0.0-170.0","34X6J5FLPUK64QNW1L83M3VPBR8JQI","A1SPIAJZORHFT0","3WPCIUYH1AU470H2HRBLZRFBM3CTDN","","517.7999999970198","img/food4.png","75","518.5","1","1","1","0.8,0.2,0.8,0.2,0.2,0.8,0.2,0.8",""
"","html-keyboard-response","171","113533","0.0-171.0","34X6J5FLPUK64QNW1L83M3VPBR8JQI","A1SPIAJZORHFT0","3WPCIUYH1AU470H2HRBLZRFBM3CTDN","","null","<img src=""img/food4.png"" style=""width:200px; border:14px solid green;"">","null","","","","","",""
"","image-keyboard-response","172","114406","0.0-172.0","34X6J5FLPUK64QNW1L83M3VPBR8JQI","A1SPIAJZORHFT0","3WPCIUYH1AU470H2HRBLZRFBM3CTDN","","872","img/food1.png","76","872.7000000029802","2","1","4","0.8,0.2,0.8,0.2,0.2,0.8,0.2,0.8",""
"","html-keyboard-response","173","114707","0.0-173.0","34X6J5FLPUK64QNW1L83M3VPBR8JQI","A1SPIAJZORHFT0","3WPCIUYH1AU470H2HRBLZRFBM3CTDN","","null","<img src=""img/food1.png"" style=""width:200px; border:14px solid green;"">","null","","","","","",""
"","image-keyboard-response","174","115049","0.0-174.0","34X6J5FLPUK64QNW1L83M3VPBR8JQI","A1SPIAJZORHFT0","3WPCIUYH1AU470H2HRBLZRFBM3CTDN","","341.20000000298023","img/food1.png","76","342.09999999403954","2","0","4","0.8,0.2,0.8,0.2,0.2,0.8,0.2,0.8",""
"","html-keyboard-response","175","115350","0.0-175.0","34X6J5FLPUK64QNW1L83M3VPBR8JQI","A1SPIAJZORHFT0","3WPCIUYH1AU470H2HRBLZRFBM3CTDN","","null","<img src=""img/food1.png"" style=""width:200px;border:14px solid red;"">","null","","","","","",""
"","image-keyboard-response","176","116006","0.0-176.0","34X6J5FLPUK64QNW1L83M3VPBR8JQI","A1SPIAJZORHFT0","3WPCIUYH1AU470H2HRBLZRFBM3CTDN","","655.1000000014901","img/food1.png","76","655.8000000044703","2","1","4","0.8,0.2,0.8,0.2,0.2,0.8,0.2,0.8",""
"","html-keyboard-response","177","116309","0.0-177.0","34X6J5FLPUK64QNW1L83M3VPBR8JQI","A1SPIAJZORHFT0","3WPCIUYH1AU470H2HRBLZRFBM3CTDN","","null","<img src=""img/food1.png"" style=""width:200px; border:14px solid green;"">","null","","","","","",""
"","image-keyboard-response","178","118420","0.0-178.0","34X6J5FLPUK64QNW1L83M3VPBR8JQI","A1SPIAJZORHFT0","3WPCIUYH1AU470H2HRBLZRFBM3CTDN","","2111","img/food6.png","76","2112","2","1","3","0.8,0.2,0.8,0.2,0.2,0.8,0.2,0.8",""
"","html-keyboard-response","179","118723","0.0-179.0","34X6J5FLPUK64QNW1L83M3VPBR8JQI","A1SPIAJZORHFT0","3WPCIUYH1AU470H2HRBLZRFBM3CTDN","","null","<img src=""img/food6.png"" style=""width:200px; border:14px solid green;"">","null","","","","","",""
"","image-keyboard-response","180","119284","0.0-180.0","34X6J5FLPUK64QNW1L83M3VPBR8JQI","A1SPIAJZORHFT0","3WPCIUYH1AU470H2HRBLZRFBM3CTDN","","560.2000000029802","img/food1.png","76","560.8999999985099","2","1","4","0.8,0.2,0.8,0.2,0.2,0.8,0.2,0.8",""
"","html-keyboard-response","181","119586","0.0-181.0","34X6J5FLPUK64QNW1L83M3VPBR8JQI","A1SPIAJZORHFT0","3WPCIUYH1AU470H2HRBLZRFBM3CTDN","","null","<img src=""img/food1.png"" style=""width:200px; border:14px solid green;"">","null","","","","","",""
"","image-keyboard-response","182","120409","0.0-182.0","34X6J5FLPUK64QNW1L83M3VPBR8JQI","A1SPIAJZORHFT0","3WPCIUYH1AU470H2HRBLZRFBM3CTDN","","822.7000000029802","img/food3.png","75","823.6000000014901","1","1","2","0.8,0.2,0.8,0.2,0.2,0.8,0.2,0.8",""
"","html-keyboard-response","183","120712","0.0-183.0","34X6J5FLPUK64QNW1L83M3VPBR8JQI","A1SPIAJZORHFT0","3WPCIUYH1AU470H2HRBLZRFBM3CTDN","","null","<img src=""img/food3.png"" style=""width:200px; border:14px solid green;"">","null","","","","","",""
"","image-keyboard-response","184","121414","0.0-184.0","34X6J5FLPUK64QNW1L83M3VPBR8JQI","A1SPIAJZORHFT0","3WPCIUYH1AU470H2HRBLZRFBM3CTDN","","700.3999999985099","img/food1.png","76","701.1000000014901","2","1","4","0.8,0.2,0.8,0.2,0.2,0.8,0.2,0.8",""
"","html-keyboard-response","185","121715","0.0-185.0","34X6J5FLPUK64QNW1L83M3VPBR8JQI","A1SPIAJZORHFT0","3WPCIUYH1AU470H2HRBLZRFBM3CTDN","","null","<img src=""img/food1.png"" style=""width:200px; border:14px solid green;"">","null","","","","","",""
"","image-keyboard-response","186","122281","0.0-186.0","34X6J5FLPUK64QNW1L83M3VPBR8JQI","A1SPIAJZORHFT0","3WPCIUYH1AU470H2HRBLZRFBM3CTDN","","564.6999999955297","img/food3.png","75","565.5","1","1","2","0.8,0.2,0.8,0.2,0.2,0.8,0.2,0.8",""
"","html-keyboard-response","187","122584","0.0-187.0","34X6J5FLPUK64QNW1L83M3VPBR8JQI","A1SPIAJZORHFT0","3WPCIUYH1AU470H2HRBLZRFBM3CTDN","","null","<img src=""img/food3.png"" style=""width:200px; border:14px solid green;"">","null","","","","","",""
"","image-keyboard-response","188","123025","0.0-188.0","34X6J5FLPUK64QNW1L83M3VPBR8JQI","A1SPIAJZORHFT0","3WPCIUYH1AU470H2HRBLZRFBM3CTDN","","440.6000000014901","img/food4.png","75","441.20000000298023","1","1","1","0.8,0.2,0.8,0.2,0.2,0.8,0.2,0.8",""
"","html-keyboard-response","189","123328","0.0-189.0","34X6J5FLPUK64QNW1L83M3VPBR8JQI","A1SPIAJZORHFT0","3WPCIUYH1AU470H2HRBLZRFBM3CTDN","","null","<img src=""img/food4.png"" style=""width:200px; border:14px solid green;"">","null","","","","","",""
"","image-keyboard-response","190","123917","0.0-190.0","34X6J5FLPUK64QNW1L83M3VPBR8JQI","A1SPIAJZORHFT0","3WPCIUYH1AU470H2HRBLZRFBM3CTDN","","588.8000000044703","img/food6.png","76","589.3999999985099","2","1","3","0.8,0.2,0.8,0.2,0.2,0.8,0.2,0.8",""
"","html-keyboard-response","191","124218","0.0-191.0","34X6J5FLPUK64QNW1L83M3VPBR8JQI","A1SPIAJZORHFT0","3WPCIUYH1AU470H2HRBLZRFBM3CTDN","","null","<img src=""img/food6.png"" style=""width:200px; border:14px solid green;"">","null","","","","","",""
"","image-keyboard-response","192","124633","0.0-192.0","34X6J5FLPUK64QNW1L83M3VPBR8JQI","A1SPIAJZORHFT0","3WPCIUYH1AU470H2HRBLZRFBM3CTDN","","414.1000000014901","img/food1.png","76","414.8999999985099","2","1","4","0.8,0.2,0.8,0.2,0.2,0.8,0.2,0.8",""
"","html-keyboard-response","193","124935","0.0-193.0","34X6J5FLPUK64QNW1L83M3VPBR8JQI","A1SPIAJZORHFT0","3WPCIUYH1AU470H2HRBLZRFBM3CTDN","","null","<img src=""img/food1.png"" style=""width:200px; border:14px solid green;"">","null","","","","","",""
"","image-keyboard-response","194","125852","0.0-194.0","34X6J5FLPUK64QNW1L83M3VPBR8JQI","A1SPIAJZORHFT0","3WPCIUYH1AU470H2HRBLZRFBM3CTDN","","915.3999999985099","img/food3.png","75","916.1000000014901","1","1","2","0.8,0.2,0.8,0.2,0.2,0.8,0.2,0.8",""
"","html-keyboard-response","195","126153","0.0-195.0","34X6J5FLPUK64QNW1L83M3VPBR8JQI","A1SPIAJZORHFT0","3WPCIUYH1AU470H2HRBLZRFBM3CTDN","","null","<img src=""img/food3.png"" style=""width:200px; border:14px solid green;"">","null","","","","","",""
"","image-keyboard-response","196","126843","0.0-196.0","34X6J5FLPUK64QNW1L83M3VPBR8JQI","A1SPIAJZORHFT0","3WPCIUYH1AU470H2HRBLZRFBM3CTDN","","688.7999999970198","img/food6.png","76","689.6000000014901","2","0","3","0.8,0.2,0.8,0.2,0.2,0.8,0.2,0.8",""
"","html-keyboard-response","197","127145","0.0-197.0","34X6J5FLPUK64QNW1L83M3VPBR8JQI","A1SPIAJZORHFT0","3WPCIUYH1AU470H2HRBLZRFBM3CTDN","","null","<img src=""img/food6.png"" style=""width:200px;border:14px solid red;"">","null","","","","","",""
"","image-keyboard-response","198","128027","0.0-198.0","34X6J5FLPUK64QNW1L83M3VPBR8JQI","A1SPIAJZORHFT0","3WPCIUYH1AU470H2HRBLZRFBM3CTDN","","881.4000000059605","img/food6.png","76","882.1000000014901","2","0","3","0.8,0.2,0.8,0.2,0.2,0.8,0.2,0.8",""
"","html-keyboard-response","199","128328","0.0-199.0","34X6J5FLPUK64QNW1L83M3VPBR8JQI","A1SPIAJZORHFT0","3WPCIUYH1AU470H2HRBLZRFBM3CTDN","","null","<img src=""img/food6.png"" style=""width:200px;border:14px solid red;"">","null","","","","","",""
"","image-keyboard-response","200","128936","0.0-200.0","34X6J5FLPUK64QNW1L83M3VPBR8JQI","A1SPIAJZORHFT0","3WPCIUYH1AU470H2HRBLZRFBM3CTDN","","606.5","img/food4.png","75","607.5","1","1","1","0.8,0.2,0.8,0.2,0.2,0.8,0.2,0.8",""
"","html-keyboard-response","201","129237","0.0-201.0","34X6J5FLPUK64QNW1L83M3VPBR8JQI","A1SPIAJZORHFT0","3WPCIUYH1AU470H2HRBLZRFBM3CTDN","","null","<img src=""img/food4.png"" style=""width:200px; border:14px solid green;"">","null","","","","","",""
"","image-keyboard-response","202","129628","0.0-202.0","34X6J5FLPUK64QNW1L83M3VPBR8JQI","A1SPIAJZORHFT0","3WPCIUYH1AU470H2HRBLZRFBM3CTDN","","390.20000000298023","img/food3.png","75","390.8999999985099","1","1","2","0.8,0.2,0.8,0.2,0.2,0.8,0.2,0.8",""
"","html-keyboard-response","203","129929","0.0-203.0","34X6J5FLPUK64QNW1L83M3VPBR8JQI","A1SPIAJZORHFT0","3WPCIUYH1AU470H2HRBLZRFBM3CTDN","","null","<img src=""img/food3.png"" style=""width:200px; border:14px solid green;"">","null","","","","","",""
"","image-keyboard-response","204","130323","0.0-204.0","34X6J5FLPUK64QNW1L83M3VPBR8JQI","A1SPIAJZORHFT0","3WPCIUYH1AU470H2HRBLZRFBM3CTDN","","392.8999999985099","img/food4.png","75","393.5","1","0","1","0.8,0.2,0.8,0.2,0.2,0.8,0.2,0.8",""
"","html-keyboard-response","205","130625","0.0-205.0","34X6J5FLPUK64QNW1L83M3VPBR8JQI","A1SPIAJZORHFT0","3WPCIUYH1AU470H2HRBLZRFBM3CTDN","","null","<img src=""img/food4.png"" style=""width:200px;border:14px solid red;"">","null","","","","","",""
"","image-keyboard-response","206","131204","0.0-206.0","34X6J5FLPUK64QNW1L83M3VPBR8JQI","A1SPIAJZORHFT0","3WPCIUYH1AU470H2HRBLZRFBM3CTDN","","578.7000000029802","img/food1.png","76","579.5999999940395","2","1","4","0.8,0.2,0.8,0.2,0.2,0.8,0.2,0.8",""
"","html-keyboard-response","207","131505","0.0-207.0","34X6J5FLPUK64QNW1L83M3VPBR8JQI","A1SPIAJZORHFT0","3WPCIUYH1AU470H2HRBLZRFBM3CTDN","","null","<img src=""img/food1.png"" style=""width:200px; border:14px solid green;"">","null","","","","","",""
"","image-keyboard-response","208","132323","0.0-208.0","34X6J5FLPUK64QNW1L83M3VPBR8JQI","A1SPIAJZORHFT0","3WPCIUYH1AU470H2HRBLZRFBM3CTDN","","817.1000000014901","img/food4.png","75","817.6000000014901","1","1","1","0.8,0.2,0.8,0.2,0.2,0.8,0.2,0.8",""
"","html-keyboard-response","209","132625","0.0-209.0","34X6J5FLPUK64QNW1L83M3VPBR8JQI","A1SPIAJZORHFT0","3WPCIUYH1AU470H2HRBLZRFBM3CTDN","","null","<img src=""img/food4.png"" style=""width:200px; border:14px solid green;"">","null","","","","","",""
"","image-keyboard-response","210","133001","0.0-210.0","34X6J5FLPUK64QNW1L83M3VPBR8JQI","A1SPIAJZORHFT0","3WPCIUYH1AU470H2HRBLZRFBM3CTDN","","375.09999999403954","img/food4.png","75","375.8999999985099","1","1","1","0.8,0.2,0.8,0.2,0.2,0.8,0.2,0.8",""
"","html-keyboard-response","211","133302","0.0-211.0","34X6J5FLPUK64QNW1L83M3VPBR8JQI","A1SPIAJZORHFT0","3WPCIUYH1AU470H2HRBLZRFBM3CTDN","","null","<img src=""img/food4.png"" style=""width:200px; border:14px solid green;"">","null","","","","","",""
"","image-keyboard-response","212","133775","0.0-212.0","34X6J5FLPUK64QNW1L83M3VPBR8JQI","A1SPIAJZORHFT0","3WPCIUYH1AU470H2HRBLZRFBM3CTDN","","471.19999999552965","img/food3.png","75","472","1","1","2","0.8,0.2,0.8,0.2,0.2,0.8,0.2,0.8",""
"","html-keyboard-response","213","134078","0.0-213.0","34X6J5FLPUK64QNW1L83M3VPBR8JQI","A1SPIAJZORHFT0","3WPCIUYH1AU470H2HRBLZRFBM3CTDN","","null","<img src=""img/food3.png"" style=""width:200px; border:14px solid green;"">","null","","","","","",""
"","image-keyboard-response","214","134737","0.0-214.0","34X6J5FLPUK64QNW1L83M3VPBR8JQI","A1SPIAJZORHFT0","3WPCIUYH1AU470H2HRBLZRFBM3CTDN","","658.5","img/food4.png","75","659","1","0","1","0.8,0.2,0.8,0.2,0.2,0.8,0.2,0.8",""
"","html-keyboard-response","215","135038","0.0-215.0","34X6J5FLPUK64QNW1L83M3VPBR8JQI","A1SPIAJZORHFT0","3WPCIUYH1AU470H2HRBLZRFBM3CTDN","","null","<img src=""img/food4.png"" style=""width:200px;border:14px solid red;"">","null","","","","","",""
"","image-keyboard-response","216","135647","0.0-216.0","34X6J5FLPUK64QNW1L83M3VPBR8JQI","A1SPIAJZORHFT0","3WPCIUYH1AU470H2HRBLZRFBM3CTDN","","608.3000000044703","img/food3.png","75","609.0999999940395","1","1","2","0.8,0.2,0.8,0.2,0.2,0.8,0.2,0.8",""
"","html-keyboard-response","217","135949","0.0-217.0","34X6J5FLPUK64QNW1L83M3VPBR8JQI","A1SPIAJZORHFT0","3WPCIUYH1AU470H2HRBLZRFBM3CTDN","","null","<img src=""img/food3.png"" style=""width:200px; border:14px solid green;"">","null","","","","","",""
"","image-keyboard-response","218","136264","0.0-218.0","34X6J5FLPUK64QNW1L83M3VPBR8JQI","A1SPIAJZORHFT0","3WPCIUYH1AU470H2HRBLZRFBM3CTDN","","313.80000000447035","img/food3.png","75","314.5","1","1","2","0.8,0.2,0.8,0.2,0.2,0.8,0.2,0.8",""
"","html-keyboard-response","219","136566","0.0-219.0","34X6J5FLPUK64QNW1L83M3VPBR8JQI","A1SPIAJZORHFT0","3WPCIUYH1AU470H2HRBLZRFBM3CTDN","","null","<img src=""img/food3.png"" style=""width:200px; border:14px solid green;"">","null","","","","","",""
"","image-keyboard-response","220","137331","0.0-220.0","34X6J5FLPUK64QNW1L83M3VPBR8JQI","A1SPIAJZORHFT0","3WPCIUYH1AU470H2HRBLZRFBM3CTDN","","764.5","img/food6.png","76","765.2999999970198","2","1","3","0.8,0.2,0.8,0.2,0.2,0.8,0.2,0.8",""
"","html-keyboard-response","221","137633","0.0-221.0","34X6J5FLPUK64QNW1L83M3VPBR8JQI","A1SPIAJZORHFT0","3WPCIUYH1AU470H2HRBLZRFBM3CTDN","","null","<img src=""img/food6.png"" style=""width:200px; border:14px solid green;"">","null","","","","","",""
"","image-keyboard-response","222","138215","0.0-222.0","34X6J5FLPUK64QNW1L83M3VPBR8JQI","A1SPIAJZORHFT0","3WPCIUYH1AU470H2HRBLZRFBM3CTDN","","580.6999999955297","img/food4.png","75","581.3999999985099","1","1","1","0.8,0.2,0.8,0.2,0.2,0.8,0.2,0.8",""
"","html-keyboard-response","223","138516","0.0-223.0","34X6J5FLPUK64QNW1L83M3VPBR8JQI","A1SPIAJZORHFT0","3WPCIUYH1AU470H2HRBLZRFBM3CTDN","","null","<img src=""img/food4.png"" style=""width:200px; border:14px solid green;"">","null","","","","","",""
"","image-keyboard-response","224","139604","0.0-224.0","34X6J5FLPUK64QNW1L83M3VPBR8JQI","A1SPIAJZORHFT0","3WPCIUYH1AU470H2HRBLZRFBM3CTDN","","1086.6000000014901","img/food3.png","75","1087.1999999955297","1","1","2","0.8,0.2,0.8,0.2,0.2,0.8,0.2,0.8",""
"","html-keyboard-response","225","139906","0.0-225.0","34X6J5FLPUK64QNW1L83M3VPBR8JQI","A1SPIAJZORHFT0","3WPCIUYH1AU470H2HRBLZRFBM3CTDN","","null","<img src=""img/food3.png"" style=""width:200px; border:14px solid green;"">","null","","","","","",""
"","image-keyboard-response","226","140454","0.0-226.0","34X6J5FLPUK64QNW1L83M3VPBR8JQI","A1SPIAJZORHFT0","3WPCIUYH1AU470H2HRBLZRFBM3CTDN","","547.1000000014901","img/food4.png","75","547.8999999985099","1","1","1","0.8,0.2,0.8,0.2,0.2,0.8,0.2,0.8",""
"","html-keyboard-response","227","140756","0.0-227.0","34X6J5FLPUK64QNW1L83M3VPBR8JQI","A1SPIAJZORHFT0","3WPCIUYH1AU470H2HRBLZRFBM3CTDN","","null","<img src=""img/food4.png"" style=""width:200px; border:14px solid green;"">","null","","","","","",""
"","image-keyboard-response","228","141247","0.0-228.0","34X6J5FLPUK64QNW1L83M3VPBR8JQI","A1SPIAJZORHFT0","3WPCIUYH1AU470H2HRBLZRFBM3CTDN","","489.69999999552965","img/food1.png","76","490.5","2","1","4","0.8,0.2,0.8,0.2,0.2,0.8,0.2,0.8",""
"","html-keyboard-response","229","141549","0.0-229.0","34X6J5FLPUK64QNW1L83M3VPBR8JQI","A1SPIAJZORHFT0","3WPCIUYH1AU470H2HRBLZRFBM3CTDN","","null","<img src=""img/food1.png"" style=""width:200px; border:14px solid green;"">","null","","","","","",""
"","image-keyboard-response","230","141923","0.0-230.0","34X6J5FLPUK64QNW1L83M3VPBR8JQI","A1SPIAJZORHFT0","3WPCIUYH1AU470H2HRBLZRFBM3CTDN","","373.6000000014901","img/food6.png","76","374.3999999985099","2","1","3","0.8,0.2,0.8,0.2,0.2,0.8,0.2,0.8",""
"","html-keyboard-response","231","142224","0.0-231.0","34X6J5FLPUK64QNW1L83M3VPBR8JQI","A1SPIAJZORHFT0","3WPCIUYH1AU470H2HRBLZRFBM3CTDN","","null","<img src=""img/food6.png"" style=""width:200px; border:14px solid green;"">","null","","","","","",""
"","image-keyboard-response","232","142905","0.0-232.0","34X6J5FLPUK64QNW1L83M3VPBR8JQI","A1SPIAJZORHFT0","3WPCIUYH1AU470H2HRBLZRFBM3CTDN","","680.4000000059605","img/food3.png","75","681.1000000014901","1","1","2","0.8,0.2,0.8,0.2,0.2,0.8,0.2,0.8",""
"","html-keyboard-response","233","143206","0.0-233.0","34X6J5FLPUK64QNW1L83M3VPBR8JQI","A1SPIAJZORHFT0","3WPCIUYH1AU470H2HRBLZRFBM3CTDN","","null","<img src=""img/food3.png"" style=""width:200px; border:14px solid green;"">","null","","","","","",""
"","image-keyboard-response","234","143865","0.0-234.0","34X6J5FLPUK64QNW1L83M3VPBR8JQI","A1SPIAJZORHFT0","3WPCIUYH1AU470H2HRBLZRFBM3CTDN","","657.5","img/food1.png","76","658.2999999970198","2","1","4","0.8,0.2,0.8,0.2,0.2,0.8,0.2,0.8",""
"","html-keyboard-response","235","144167","0.0-235.0","34X6J5FLPUK64QNW1L83M3VPBR8JQI","A1SPIAJZORHFT0","3WPCIUYH1AU470H2HRBLZRFBM3CTDN","","null","<img src=""img/food1.png"" style=""width:200px; border:14px solid green;"">","null","","","","","",""
"","image-keyboard-response","236","144542","0.0-236.0","34X6J5FLPUK64QNW1L83M3VPBR8JQI","A1SPIAJZORHFT0","3WPCIUYH1AU470H2HRBLZRFBM3CTDN","","373.3999999985099","img/food1.png","76","374.29999999701977","2","0","4","0.8,0.2,0.8,0.2,0.2,0.8,0.2,0.8",""
"","html-keyboard-response","237","144844","0.0-237.0","34X6J5FLPUK64QNW1L83M3VPBR8JQI","A1SPIAJZORHFT0","3WPCIUYH1AU470H2HRBLZRFBM3CTDN","","null","<img src=""img/food1.png"" style=""width:200px;border:14px solid red;"">","null","","","","","",""
"","image-keyboard-response","238","145233","0.0-238.0","34X6J5FLPUK64QNW1L83M3VPBR8JQI","A1SPIAJZORHFT0","3WPCIUYH1AU470H2HRBLZRFBM3CTDN","","387.79999999701977","img/food6.png","76","388.70000000298023","2","1","3","0.8,0.2,0.8,0.2,0.2,0.8,0.2,0.8",""
"","html-keyboard-response","239","145534","0.0-239.0","34X6J5FLPUK64QNW1L83M3VPBR8JQI","A1SPIAJZORHFT0","3WPCIUYH1AU470H2HRBLZRFBM3CTDN","","null","<img src=""img/food6.png"" style=""width:200px; border:14px solid green;"">","null","","","","","",""
"","image-keyboard-response","240","146391","0.0-240.0","34X6J5FLPUK64QNW1L83M3VPBR8JQI","A1SPIAJZORHFT0","3WPCIUYH1AU470H2HRBLZRFBM3CTDN","","855.6000000014901","img/food1.png","76","856.6000000014901","2","1","4","0.8,0.2,0.8,0.2,0.2,0.8,0.2,0.8",""
"","html-keyboard-response","241","146692","0.0-241.0","34X6J5FLPUK64QNW1L83M3VPBR8JQI","A1SPIAJZORHFT0","3WPCIUYH1AU470H2HRBLZRFBM3CTDN","","null","<img src=""img/food1.png"" style=""width:200px; border:14px solid green;"">","null","","","","","",""
"","html-keyboard-response","242","170194","0.0-242.0","34X6J5FLPUK64QNW1L83M3VPBR8JQI","A1SPIAJZORHFT0","3WPCIUYH1AU470H2HRBLZRFBM3CTDN","","","","","","","","","",""
"","image-keyboard-response","243","172147","0.0-243.0","34X6J5FLPUK64QNW1L83M3VPBR8JQI","A1SPIAJZORHFT0","3WPCIUYH1AU470H2HRBLZRFBM3CTDN","","1952.3000000044703","img/food8.png","76","1953.2000000029802","2","1","1","0.2,0.8,0.2,0.8,0.2,0.8,0.8,0.2",""
"","html-keyboard-response","244","172450","0.0-244.0","34X6J5FLPUK64QNW1L83M3VPBR8JQI","A1SPIAJZORHFT0","3WPCIUYH1AU470H2HRBLZRFBM3CTDN","","null","<img src=""img/food8.png"" style=""width:200px; border:14px solid green;"">","null","","","","","",""
"","image-keyboard-response","245","172989","0.0-245.0","34X6J5FLPUK64QNW1L83M3VPBR8JQI","A1SPIAJZORHFT0","3WPCIUYH1AU470H2HRBLZRFBM3CTDN","","538.3999999985099","img/food8.png","76","539.2000000029802","2","1","1","0.2,0.8,0.2,0.8,0.2,0.8,0.8,0.2",""
"","html-keyboard-response","246","173291","0.0-246.0","34X6J5FLPUK64QNW1L83M3VPBR8JQI","A1SPIAJZORHFT0","3WPCIUYH1AU470H2HRBLZRFBM3CTDN","","null","<img src=""img/food8.png"" style=""width:200px; border:14px solid green;"">","null","","","","","",""
"","image-keyboard-response","247","174450","0.0-247.0","34X6J5FLPUK64QNW1L83M3VPBR8JQI","A1SPIAJZORHFT0","3WPCIUYH1AU470H2HRBLZRFBM3CTDN","","1157.7000000029802","img/food5.png","75","1158.6000000014901","1","0","2","0.2,0.8,0.2,0.8,0.2,0.8,0.8,0.2",""
"","html-keyboard-response","248","174752","0.0-248.0","34X6J5FLPUK64QNW1L83M3VPBR8JQI","A1SPIAJZORHFT0","3WPCIUYH1AU470H2HRBLZRFBM3CTDN","","null","<img src=""img/food5.png"" style=""width:200px;border:14px solid red;"">","null","","","","","",""
"","image-keyboard-response","249","175992","0.0-249.0","34X6J5FLPUK64QNW1L83M3VPBR8JQI","A1SPIAJZORHFT0","3WPCIUYH1AU470H2HRBLZRFBM3CTDN","","1239.7000000029802","img/food2.png","75","1240.3999999985099","1","1","4","0.2,0.8,0.2,0.8,0.2,0.8,0.8,0.2",""
"","html-keyboard-response","250","176294","0.0-250.0","34X6J5FLPUK64QNW1L83M3VPBR8JQI","A1SPIAJZORHFT0","3WPCIUYH1AU470H2HRBLZRFBM3CTDN","","null","<img src=""img/food2.png"" style=""width:200px; border:14px solid green;"">","null","","","","","",""
"","image-keyboard-response","251","177201","0.0-251.0","34X6J5FLPUK64QNW1L83M3VPBR8JQI","A1SPIAJZORHFT0","3WPCIUYH1AU470H2HRBLZRFBM3CTDN","","906.1000000014901","img/food5.png","76","906.7000000029802","2","1","2","0.2,0.8,0.2,0.8,0.2,0.8,0.8,0.2",""
"","html-keyboard-response","252","177503","0.0-252.0","34X6J5FLPUK64QNW1L83M3VPBR8JQI","A1SPIAJZORHFT0","3WPCIUYH1AU470H2HRBLZRFBM3CTDN","","null","<img src=""img/food5.png"" style=""width:200px; border:14px solid green;"">","null","","","","","",""
"","image-keyboard-response","253","178722","0.0-253.0","34X6J5FLPUK64QNW1L83M3VPBR8JQI","A1SPIAJZORHFT0","3WPCIUYH1AU470H2HRBLZRFBM3CTDN","","1218.1999999955297","img/food7.png","75","1219","1","0","3","0.2,0.8,0.2,0.8,0.2,0.8,0.8,0.2",""
"","html-keyboard-response","254","179024","0.0-254.0","34X6J5FLPUK64QNW1L83M3VPBR8JQI","A1SPIAJZORHFT0","3WPCIUYH1AU470H2HRBLZRFBM3CTDN","","null","<img src=""img/food7.png"" style=""width:200px;border:14px solid red;"">","null","","","","","",""
"","image-keyboard-response","255","180267","0.0-255.0","34X6J5FLPUK64QNW1L83M3VPBR8JQI","A1SPIAJZORHFT0","3WPCIUYH1AU470H2HRBLZRFBM3CTDN","","1241.8999999985099","img/food2.png","75","1242.5","1","1","4","0.2,0.8,0.2,0.8,0.2,0.8,0.8,0.2",""
"","html-keyboard-response","256","180568","0.0-256.0","34X6J5FLPUK64QNW1L83M3VPBR8JQI","A1SPIAJZORHFT0","3WPCIUYH1AU470H2HRBLZRFBM3CTDN","","null","<img src=""img/food2.png"" style=""width:200px; border:14px solid green;"">","null","","","","","",""
"","image-keyboard-response","257","181934","0.0-257.0","34X6J5FLPUK64QNW1L83M3VPBR8JQI","A1SPIAJZORHFT0","3WPCIUYH1AU470H2HRBLZRFBM3CTDN","","1365.5","img/food5.png","76","1366.6000000014901","2","1","2","0.2,0.8,0.2,0.8,0.2,0.8,0.8,0.2",""
"","html-keyboard-response","258","182236","0.0-258.0","34X6J5FLPUK64QNW1L83M3VPBR8JQI","A1SPIAJZORHFT0","3WPCIUYH1AU470H2HRBLZRFBM3CTDN","","null","<img src=""img/food5.png"" style=""width:200px; border:14px solid green;"">","null","","","","","",""
"","image-keyboard-response","259","183252","0.0-259.0","34X6J5FLPUK64QNW1L83M3VPBR8JQI","A1SPIAJZORHFT0","3WPCIUYH1AU470H2HRBLZRFBM3CTDN","","1014.7000000029802","img/food7.png","75","1015.5","1","1","3","0.2,0.8,0.2,0.8,0.2,0.8,0.8,0.2",""
"","html-keyboard-response","260","183553","0.0-260.0","34X6J5FLPUK64QNW1L83M3VPBR8JQI","A1SPIAJZORHFT0","3WPCIUYH1AU470H2HRBLZRFBM3CTDN","","null","<img src=""img/food7.png"" style=""width:200px; border:14px solid green;"">","null","","","","","",""
"","image-keyboard-response","261","186197","0.0-261.0","34X6J5FLPUK64QNW1L83M3VPBR8JQI","A1SPIAJZORHFT0","3WPCIUYH1AU470H2HRBLZRFBM3CTDN","","2643.5999999940395","img/food2.png","76","2644.2999999970198","2","0","4","0.2,0.8,0.2,0.8,0.2,0.8,0.8,0.2",""
"","html-keyboard-response","262","186510","0.0-262.0","34X6J5FLPUK64QNW1L83M3VPBR8JQI","A1SPIAJZORHFT0","3WPCIUYH1AU470H2HRBLZRFBM3CTDN","","null","<img src=""img/food2.png"" style=""width:200px;border:14px solid red;"">","null","","","","","",""
"","image-keyboard-response","263","188009","0.0-263.0","34X6J5FLPUK64QNW1L83M3VPBR8JQI","A1SPIAJZORHFT0","3WPCIUYH1AU470H2HRBLZRFBM3CTDN","","1499","img/food7.png","76","1499.5","2","1","3","0.2,0.8,0.2,0.8,0.2,0.8,0.8,0.2",""
"","html-keyboard-response","264","188312","0.0-264.0","34X6J5FLPUK64QNW1L83M3VPBR8JQI","A1SPIAJZORHFT0","3WPCIUYH1AU470H2HRBLZRFBM3CTDN","","null","<img src=""img/food7.png"" style=""width:200px; border:14px solid green;"">","null","","","","","",""
"","image-keyboard-response","265","189611","0.0-265.0","34X6J5FLPUK64QNW1L83M3VPBR8JQI","A1SPIAJZORHFT0","3WPCIUYH1AU470H2HRBLZRFBM3CTDN","","1298.2000000029802","img/food2.png","76","1299.1000000014901","2","1","4","0.2,0.8,0.2,0.8,0.2,0.8,0.8,0.2",""
"","html-keyboard-response","266","189914","0.0-266.0","34X6J5FLPUK64QNW1L83M3VPBR8JQI","A1SPIAJZORHFT0","3WPCIUYH1AU470H2HRBLZRFBM3CTDN","","null","<img src=""img/food2.png"" style=""width:200px; border:14px solid green;"">","null","","","","","",""
"","image-keyboard-response","267","191312","0.0-267.0","34X6J5FLPUK64QNW1L83M3VPBR8JQI","A1SPIAJZORHFT0","3WPCIUYH1AU470H2HRBLZRFBM3CTDN","","1397.5","img/food5.png","75","1398.2000000029802","1","0","2","0.2,0.8,0.2,0.8,0.2,0.8,0.8,0.2",""
"","html-keyboard-response","268","191614","0.0-268.0","34X6J5FLPUK64QNW1L83M3VPBR8JQI","A1SPIAJZORHFT0","3WPCIUYH1AU470H2HRBLZRFBM3CTDN","","null","<img src=""img/food5.png"" style=""width:200px;border:14px solid red;"">","null","","","","","",""
"","image-keyboard-response","269","192564","0.0-269.0","34X6J5FLPUK64QNW1L83M3VPBR8JQI","A1SPIAJZORHFT0","3WPCIUYH1AU470H2HRBLZRFBM3CTDN","","948.8999999985099","img/food2.png","76","949.8000000044703","2","0","4","0.2,0.8,0.2,0.8,0.2,0.8,0.8,0.2",""
"","html-keyboard-response","270","192866","0.0-270.0","34X6J5FLPUK64QNW1L83M3VPBR8JQI","A1SPIAJZORHFT0","3WPCIUYH1AU470H2HRBLZRFBM3CTDN","","null","<img src=""img/food2.png"" style=""width:200px;border:14px solid red;"">","null","","","","","",""
"","image-keyboard-response","271","193803","0.0-271.0","34X6J5FLPUK64QNW1L83M3VPBR8JQI","A1SPIAJZORHFT0","3WPCIUYH1AU470H2HRBLZRFBM3CTDN","","935.8999999985099","img/food7.png","76","936.6000000014901","2","1","3","0.2,0.8,0.2,0.8,0.2,0.8,0.8,0.2",""
"","html-keyboard-response","272","194105","0.0-272.0","34X6J5FLPUK64QNW1L83M3VPBR8JQI","A1SPIAJZORHFT0","3WPCIUYH1AU470H2HRBLZRFBM3CTDN","","null","<img src=""img/food7.png"" style=""width:200px; border:14px solid green;"">","null","","","","","",""
"","image-keyboard-response","273","194593","0.0-273.0","34X6J5FLPUK64QNW1L83M3VPBR8JQI","A1SPIAJZORHFT0","3WPCIUYH1AU470H2HRBLZRFBM3CTDN","","486.8999999985099","img/food7.png","76","487.6000000014901","2","1","3","0.2,0.8,0.2,0.8,0.2,0.8,0.8,0.2",""
"","html-keyboard-response","274","194895","0.0-274.0","34X6J5FLPUK64QNW1L83M3VPBR8JQI","A1SPIAJZORHFT0","3WPCIUYH1AU470H2HRBLZRFBM3CTDN","","null","<img src=""img/food7.png"" style=""width:200px; border:14px solid green;"">","null","","","","","",""
"","image-keyboard-response","275","195836","0.0-275.0","34X6J5FLPUK64QNW1L83M3VPBR8JQI","A1SPIAJZORHFT0","3WPCIUYH1AU470H2HRBLZRFBM3CTDN","","939.7000000029802","img/food2.png","75","940.7000000029802","1","1","4","0.2,0.8,0.2,0.8,0.2,0.8,0.8,0.2",""
"","html-keyboard-response","276","196137","0.0-276.0","34X6J5FLPUK64QNW1L83M3VPBR8JQI","A1SPIAJZORHFT0","3WPCIUYH1AU470H2HRBLZRFBM3CTDN","","null","<img src=""img/food2.png"" style=""width:200px; border:14px solid green;"">","null","","","","","",""
"","image-keyboard-response","277","196496","0.0-277.0","34X6J5FLPUK64QNW1L83M3VPBR8JQI","A1SPIAJZORHFT0","3WPCIUYH1AU470H2HRBLZRFBM3CTDN","","358.30000000447035","img/food2.png","75","359","1","0","4","0.2,0.8,0.2,0.8,0.2,0.8,0.8,0.2",""
"","html-keyboard-response","278","196797","0.0-278.0","34X6J5FLPUK64QNW1L83M3VPBR8JQI","A1SPIAJZORHFT0","3WPCIUYH1AU470H2HRBLZRFBM3CTDN","","null","<img src=""img/food2.png"" style=""width:200px;border:14px solid red;"">","null","","","","","",""
"","image-keyboard-response","279","197084","0.0-279.0","34X6J5FLPUK64QNW1L83M3VPBR8JQI","A1SPIAJZORHFT0","3WPCIUYH1AU470H2HRBLZRFBM3CTDN","","285.79999999701977","img/food2.png","75","286.6000000014901","1","1","4","0.2,0.8,0.2,0.8,0.2,0.8,0.8,0.2",""
"","html-keyboard-response","280","197386","0.0-280.0","34X6J5FLPUK64QNW1L83M3VPBR8JQI","A1SPIAJZORHFT0","3WPCIUYH1AU470H2HRBLZRFBM3CTDN","","null","<img src=""img/food2.png"" style=""width:200px; border:14px solid green;"">","null","","","","","",""
"","image-keyboard-response","281","198632","0.0-281.0","34X6J5FLPUK64QNW1L83M3VPBR8JQI","A1SPIAJZORHFT0","3WPCIUYH1AU470H2HRBLZRFBM3CTDN","","1245","img/food5.png","75","1245.7000000029802","1","1","2","0.2,0.8,0.2,0.8,0.2,0.8,0.8,0.2",""
"","html-keyboard-response","282","198933","0.0-282.0","34X6J5FLPUK64QNW1L83M3VPBR8JQI","A1SPIAJZORHFT0","3WPCIUYH1AU470H2HRBLZRFBM3CTDN","","null","<img src=""img/food5.png"" style=""width:200px; border:14px solid green;"">","null","","","","","",""
"","image-keyboard-response","283","199217","0.0-283.0","34X6J5FLPUK64QNW1L83M3VPBR8JQI","A1SPIAJZORHFT0","3WPCIUYH1AU470H2HRBLZRFBM3CTDN","","282.70000000298023","img/food5.png","75","283.40000000596046","1","0","2","0.2,0.8,0.2,0.8,0.2,0.8,0.8,0.2",""
"","html-keyboard-response","284","199519","0.0-284.0","34X6J5FLPUK64QNW1L83M3VPBR8JQI","A1SPIAJZORHFT0","3WPCIUYH1AU470H2HRBLZRFBM3CTDN","","null","<img src=""img/food5.png"" style=""width:200px;border:14px solid red;"">","null","","","","","",""
"","image-keyboard-response","285","199849","0.0-285.0","34X6J5FLPUK64QNW1L83M3VPBR8JQI","A1SPIAJZORHFT0","3WPCIUYH1AU470H2HRBLZRFBM3CTDN","","329","img/food5.png","75","330","1","0","2","0.2,0.8,0.2,0.8,0.2,0.8,0.8,0.2",""
"","html-keyboard-response","286","200150","0.0-286.0","34X6J5FLPUK64QNW1L83M3VPBR8JQI","A1SPIAJZORHFT0","3WPCIUYH1AU470H2HRBLZRFBM3CTDN","","null","<img src=""img/food5.png"" style=""width:200px;border:14px solid red;"">","null","","","","","",""
"","image-keyboard-response","287","201272","0.0-287.0","34X6J5FLPUK64QNW1L83M3VPBR8JQI","A1SPIAJZORHFT0","3WPCIUYH1AU470H2HRBLZRFBM3CTDN","","1121","img/food7.png","76","1121.8999999985099","2","1","3","0.2,0.8,0.2,0.8,0.2,0.8,0.8,0.2",""
"","html-keyboard-response","288","201573","0.0-288.0","34X6J5FLPUK64QNW1L83M3VPBR8JQI","A1SPIAJZORHFT0","3WPCIUYH1AU470H2HRBLZRFBM3CTDN","","null","<img src=""img/food7.png"" style=""width:200px; border:14px solid green;"">","null","","","","","",""
"","image-keyboard-response","289","203108","0.0-289.0","34X6J5FLPUK64QNW1L83M3VPBR8JQI","A1SPIAJZORHFT0","3WPCIUYH1AU470H2HRBLZRFBM3CTDN","","1534.3999999985099","img/food8.png","76","1535.7000000029802","2","1","1","0.2,0.8,0.2,0.8,0.2,0.8,0.8,0.2",""
"","html-keyboard-response","290","203412","0.0-290.0","34X6J5FLPUK64QNW1L83M3VPBR8JQI","A1SPIAJZORHFT0","3WPCIUYH1AU470H2HRBLZRFBM3CTDN","","null","<img src=""img/food8.png"" style=""width:200px; border:14px solid green;"">","null","","","","","",""
"","image-keyboard-response","291","205389","0.0-291.0","34X6J5FLPUK64QNW1L83M3VPBR8JQI","A1SPIAJZORHFT0","3WPCIUYH1AU470H2HRBLZRFBM3CTDN","","1976.7000000029802","img/food7.png","76","1977.5","2","0","3","0.2,0.8,0.2,0.8,0.2,0.8,0.8,0.2",""
"","html-keyboard-response","292","205691","0.0-292.0","34X6J5FLPUK64QNW1L83M3VPBR8JQI","A1SPIAJZORHFT0","3WPCIUYH1AU470H2HRBLZRFBM3CTDN","","null","<img src=""img/food7.png"" style=""width:200px;border:14px solid red;"">","null","","","","","",""
"","image-keyboard-response","293","205841","0.0-293.0","34X6J5FLPUK64QNW1L83M3VPBR8JQI","A1SPIAJZORHFT0","3WPCIUYH1AU470H2HRBLZRFBM3CTDN","","149.19999999552965","img/food7.png","76","149.89999999850988","2","1","3","0.2,0.8,0.2,0.8,0.2,0.8,0.8,0.2",""
"","html-keyboard-response","294","206143","0.0-294.0","34X6J5FLPUK64QNW1L83M3VPBR8JQI","A1SPIAJZORHFT0","3WPCIUYH1AU470H2HRBLZRFBM3CTDN","","null","<img src=""img/food7.png"" style=""width:200px; border:14px solid green;"">","null","","","","","",""
"","image-keyboard-response","295","207016","0.0-295.0","34X6J5FLPUK64QNW1L83M3VPBR8JQI","A1SPIAJZORHFT0","3WPCIUYH1AU470H2HRBLZRFBM3CTDN","","871.8999999985099","img/food8.png","76","872.5999999940395","2","1","1","0.2,0.8,0.2,0.8,0.2,0.8,0.8,0.2",""
"","html-keyboard-response","296","207317","0.0-296.0","34X6J5FLPUK64QNW1L83M3VPBR8JQI","A1SPIAJZORHFT0","3WPCIUYH1AU470H2HRBLZRFBM3CTDN","","null","<img src=""img/food8.png"" style=""width:200px; border:14px solid green;"">","null","","","","","",""
"","image-keyboard-response","297","207607","0.0-297.0","34X6J5FLPUK64QNW1L83M3VPBR8JQI","A1SPIAJZORHFT0","3WPCIUYH1AU470H2HRBLZRFBM3CTDN","","289","img/food8.png","76","290","2","1","1","0.2,0.8,0.2,0.8,0.2,0.8,0.8,0.2",""
"","html-keyboard-response","298","207909","0.0-298.0","34X6J5FLPUK64QNW1L83M3VPBR8JQI","A1SPIAJZORHFT0","3WPCIUYH1AU470H2HRBLZRFBM3CTDN","","null","<img src=""img/food8.png"" style=""width:200px; border:14px solid green;"">","null","","","","","",""
"","image-keyboard-response","299","208607","0.0-299.0","34X6J5FLPUK64QNW1L83M3VPBR8JQI","A1SPIAJZORHFT0","3WPCIUYH1AU470H2HRBLZRFBM3CTDN","","696.8000000044703","img/food7.png","76","697.6999999955297","2","1","3","0.2,0.8,0.2,0.8,0.2,0.8,0.8,0.2",""
"","html-keyboard-response","300","208909","0.0-300.0","34X6J5FLPUK64QNW1L83M3VPBR8JQI","A1SPIAJZORHFT0","3WPCIUYH1AU470H2HRBLZRFBM3CTDN","","null","<img src=""img/food7.png"" style=""width:200px; border:14px solid green;"">","null","","","","","",""
"","image-keyboard-response","301","209431","0.0-301.0","34X6J5FLPUK64QNW1L83M3VPBR8JQI","A1SPIAJZORHFT0","3WPCIUYH1AU470H2HRBLZRFBM3CTDN","","521.4000000059605","img/food8.png","76","522.1000000014901","2","1","1","0.2,0.8,0.2,0.8,0.2,0.8,0.8,0.2",""
"","html-keyboard-response","302","209732","0.0-302.0","34X6J5FLPUK64QNW1L83M3VPBR8JQI","A1SPIAJZORHFT0","3WPCIUYH1AU470H2HRBLZRFBM3CTDN","","null","<img src=""img/food8.png"" style=""width:200px; border:14px solid green;"">","null","","","","","",""
"","image-keyboard-response","303","210178","0.0-303.0","34X6J5FLPUK64QNW1L83M3VPBR8JQI","A1SPIAJZORHFT0","3WPCIUYH1AU470H2HRBLZRFBM3CTDN","","444.1000000014901","img/food7.png","76","444.8999999985099","2","1","3","0.2,0.8,0.2,0.8,0.2,0.8,0.8,0.2",""
"","html-keyboard-response","304","210479","0.0-304.0","34X6J5FLPUK64QNW1L83M3VPBR8JQI","A1SPIAJZORHFT0","3WPCIUYH1AU470H2HRBLZRFBM3CTDN","","null","<img src=""img/food7.png"" style=""width:200px; border:14px solid green;"">","null","","","","","",""
"","image-keyboard-response","305","210750","0.0-305.0","34X6J5FLPUK64QNW1L83M3VPBR8JQI","A1SPIAJZORHFT0","3WPCIUYH1AU470H2HRBLZRFBM3CTDN","","270.6000000014901","img/food7.png","76","271.3999999985099","2","1","3","0.2,0.8,0.2,0.8,0.2,0.8,0.8,0.2",""
"","html-keyboard-response","306","211052","0.0-306.0","34X6J5FLPUK64QNW1L83M3VPBR8JQI","A1SPIAJZORHFT0","3WPCIUYH1AU470H2HRBLZRFBM3CTDN","","null","<img src=""img/food7.png"" style=""width:200px; border:14px solid green;"">","null","","","","","",""
"","image-keyboard-response","307","211699","0.0-307.0","34X6J5FLPUK64QNW1L83M3VPBR8JQI","A1SPIAJZORHFT0","3WPCIUYH1AU470H2HRBLZRFBM3CTDN","","645.6000000014901","img/food2.png","75","646.5","1","1","4","0.2,0.8,0.2,0.8,0.2,0.8,0.8,0.2",""
"","html-keyboard-response","308","212001","0.0-308.0","34X6J5FLPUK64QNW1L83M3VPBR8JQI","A1SPIAJZORHFT0","3WPCIUYH1AU470H2HRBLZRFBM3CTDN","","null","<img src=""img/food2.png"" style=""width:200px; border:14px solid green;"">","null","","","","","",""
"","image-keyboard-response","309","212384","0.0-309.0","34X6J5FLPUK64QNW1L83M3VPBR8JQI","A1SPIAJZORHFT0","3WPCIUYH1AU470H2HRBLZRFBM3CTDN","","382.19999999552965","img/food5.png","75","382.8999999985099","1","0","2","0.2,0.8,0.2,0.8,0.2,0.8,0.8,0.2",""
"","html-keyboard-response","310","212687","0.0-310.0","34X6J5FLPUK64QNW1L83M3VPBR8JQI","A1SPIAJZORHFT0","3WPCIUYH1AU470H2HRBLZRFBM3CTDN","","null","<img src=""img/food5.png"" style=""width:200px;border:14px solid red;"">","null","","","","","",""
"","image-keyboard-response","311","213433","0.0-311.0","34X6J5FLPUK64QNW1L83M3VPBR8JQI","A1SPIAJZORHFT0","3WPCIUYH1AU470H2HRBLZRFBM3CTDN","","745.1000000014901","img/food8.png","76","745.9000000059605","2","1","1","0.2,0.8,0.2,0.8,0.2,0.8,0.8,0.2",""
"","html-keyboard-response","312","213735","0.0-312.0","34X6J5FLPUK64QNW1L83M3VPBR8JQI","A1SPIAJZORHFT0","3WPCIUYH1AU470H2HRBLZRFBM3CTDN","","null","<img src=""img/food8.png"" style=""width:200px; border:14px solid green;"">","null","","","","","",""
"","image-keyboard-response","313","215718","0.0-313.0","34X6J5FLPUK64QNW1L83M3VPBR8JQI","A1SPIAJZORHFT0","3WPCIUYH1AU470H2HRBLZRFBM3CTDN","","1982.5","img/food5.png","75","1983.3000000044703","1","0","2","0.2,0.8,0.2,0.8,0.2,0.8,0.8,0.2",""
"","html-keyboard-response","314","216019","0.0-314.0","34X6J5FLPUK64QNW1L83M3VPBR8JQI","A1SPIAJZORHFT0","3WPCIUYH1AU470H2HRBLZRFBM3CTDN","","null","<img src=""img/food5.png"" style=""width:200px;border:14px solid red;"">","null","","","","","",""
"","image-keyboard-response","315","216557","0.0-315.0","34X6J5FLPUK64QNW1L83M3VPBR8JQI","A1SPIAJZORHFT0","3WPCIUYH1AU470H2HRBLZRFBM3CTDN","","536.7999999970198","img/food2.png","75","537.7000000029802","1","0","4","0.2,0.8,0.2,0.8,0.2,0.8,0.8,0.2",""
"","html-keyboard-response","316","216859","0.0-316.0","34X6J5FLPUK64QNW1L83M3VPBR8JQI","A1SPIAJZORHFT0","3WPCIUYH1AU470H2HRBLZRFBM3CTDN","","null","<img src=""img/food2.png"" style=""width:200px;border:14px solid red;"">","null","","","","","",""
"","image-keyboard-response","317","217183","0.0-317.0","34X6J5FLPUK64QNW1L83M3VPBR8JQI","A1SPIAJZORHFT0","3WPCIUYH1AU470H2HRBLZRFBM3CTDN","","322.5","img/food2.png","75","323.1000000014901","1","1","4","0.2,0.8,0.2,0.8,0.2,0.8,0.8,0.2",""
"","html-keyboard-response","318","217484","0.0-318.0","34X6J5FLPUK64QNW1L83M3VPBR8JQI","A1SPIAJZORHFT0","3WPCIUYH1AU470H2HRBLZRFBM3CTDN","","null","<img src=""img/food2.png"" style=""width:200px; border:14px solid green;"">","null","","","","","",""
"","image-keyboard-response","319","217769","0.0-319.0","34X6J5FLPUK64QNW1L83M3VPBR8JQI","A1SPIAJZORHFT0","3WPCIUYH1AU470H2HRBLZRFBM3CTDN","","283.6000000014901","img/food2.png","75","284.5","1","1","4","0.2,0.8,0.2,0.8,0.2,0.8,0.8,0.2",""
"","html-keyboard-response","320","218071","0.0-320.0","34X6J5FLPUK64QNW1L83M3VPBR8JQI","A1SPIAJZORHFT0","3WPCIUYH1AU470H2HRBLZRFBM3CTDN","","null","<img src=""img/food2.png"" style=""width:200px; border:14px solid green;"">","null","","","","","",""
"","image-keyboard-response","321","218669","0.0-321.0","34X6J5FLPUK64QNW1L83M3VPBR8JQI","A1SPIAJZORHFT0","3WPCIUYH1AU470H2HRBLZRFBM3CTDN","","597.6000000014901","img/food8.png","76","598.1000000014901","2","0","1","0.2,0.8,0.2,0.8,0.2,0.8,0.8,0.2",""
"","html-keyboard-response","322","218971","0.0-322.0","34X6J5FLPUK64QNW1L83M3VPBR8JQI","A1SPIAJZORHFT0","3WPCIUYH1AU470H2HRBLZRFBM3CTDN","","null","<img src=""img/food8.png"" style=""width:200px;border:14px solid red;"">","null","","","","","",""
"","image-keyboard-response","323","219817","0.0-323.0","34X6J5FLPUK64QNW1L83M3VPBR8JQI","A1SPIAJZORHFT0","3WPCIUYH1AU470H2HRBLZRFBM3CTDN","","845","img/food5.png","75","845.8000000044703","1","1","2","0.2,0.8,0.2,0.8,0.2,0.8,0.8,0.2",""
"","html-keyboard-response","324","220119","0.0-324.0","34X6J5FLPUK64QNW1L83M3VPBR8JQI","A1SPIAJZORHFT0","3WPCIUYH1AU470H2HRBLZRFBM3CTDN","","null","<img src=""img/food5.png"" style=""width:200px; border:14px solid green;"">","null","","","","","",""
"","image-keyboard-response","325","220621","0.0-325.0","34X6J5FLPUK64QNW1L83M3VPBR8JQI","A1SPIAJZORHFT0","3WPCIUYH1AU470H2HRBLZRFBM3CTDN","","501.20000000298023","img/food2.png","75","501.79999999701977","1","1","4","0.2,0.8,0.2,0.8,0.2,0.8,0.8,0.2",""
"","html-keyboard-response","326","220922","0.0-326.0","34X6J5FLPUK64QNW1L83M3VPBR8JQI","A1SPIAJZORHFT0","3WPCIUYH1AU470H2HRBLZRFBM3CTDN","","null","<img src=""img/food2.png"" style=""width:200px; border:14px solid green;"">","null","","","","","",""
"","image-keyboard-response","327","221470","0.0-327.0","34X6J5FLPUK64QNW1L83M3VPBR8JQI","A1SPIAJZORHFT0","3WPCIUYH1AU470H2HRBLZRFBM3CTDN","","547.2000000029802","img/food7.png","76","548.0999999940395","2","1","3","0.2,0.8,0.2,0.8,0.2,0.8,0.8,0.2",""
"","html-keyboard-response","328","221772","0.0-328.0","34X6J5FLPUK64QNW1L83M3VPBR8JQI","A1SPIAJZORHFT0","3WPCIUYH1AU470H2HRBLZRFBM3CTDN","","null","<img src=""img/food7.png"" style=""width:200px; border:14px solid green;"">","null","","","","","",""
"","image-keyboard-response","329","222171","0.0-329.0","34X6J5FLPUK64QNW1L83M3VPBR8JQI","A1SPIAJZORHFT0","3WPCIUYH1AU470H2HRBLZRFBM3CTDN","","398.30000000447035","img/food2.png","76","398.8999999985099","2","1","4","0.2,0.8,0.2,0.8,0.2,0.8,0.8,0.2",""
"","html-keyboard-response","330","222473","0.0-330.0","34X6J5FLPUK64QNW1L83M3VPBR8JQI","A1SPIAJZORHFT0","3WPCIUYH1AU470H2HRBLZRFBM3CTDN","","null","<img src=""img/food2.png"" style=""width:200px; border:14px solid green;"">","null","","","","","",""
"","image-keyboard-response","331","223397","0.0-331.0","34X6J5FLPUK64QNW1L83M3VPBR8JQI","A1SPIAJZORHFT0","3WPCIUYH1AU470H2HRBLZRFBM3CTDN","","923.2999999970198","img/food7.png","76","924","2","1","3","0.2,0.8,0.2,0.8,0.2,0.8,0.8,0.2",""
"","html-keyboard-response","332","223699","0.0-332.0","34X6J5FLPUK64QNW1L83M3VPBR8JQI","A1SPIAJZORHFT0","3WPCIUYH1AU470H2HRBLZRFBM3CTDN","","null","<img src=""img/food7.png"" style=""width:200px; border:14px solid green;"">","null","","","","","",""
"","image-keyboard-response","333","224645","0.0-333.0","34X6J5FLPUK64QNW1L83M3VPBR8JQI","A1SPIAJZORHFT0","3WPCIUYH1AU470H2HRBLZRFBM3CTDN","","945.7999999970198","img/food7.png","76","946.5","2","1","3","0.2,0.8,0.2,0.8,0.2,0.8,0.8,0.2",""
"","html-keyboard-response","334","224948","0.0-334.0","34X6J5FLPUK64QNW1L83M3VPBR8JQI","A1SPIAJZORHFT0","3WPCIUYH1AU470H2HRBLZRFBM3CTDN","","null","<img src=""img/food7.png"" style=""width:200px; border:14px solid green;"">","null","","","","","",""
"","image-keyboard-response","335","225738","0.0-335.0","34X6J5FLPUK64QNW1L83M3VPBR8JQI","A1SPIAJZORHFT0","3WPCIUYH1AU470H2HRBLZRFBM3CTDN","","788.7999999970198","img/food5.png","75","789.6999999955297","1","0","2","0.2,0.8,0.2,0.8,0.2,0.8,0.8,0.2",""
"","html-keyboard-response","336","226040","0.0-336.0","34X6J5FLPUK64QNW1L83M3VPBR8JQI","A1SPIAJZORHFT0","3WPCIUYH1AU470H2HRBLZRFBM3CTDN","","null","<img src=""img/food5.png"" style=""width:200px;border:14px solid red;"">","null","","","","","",""
"","image-keyboard-response","337","226329","0.0-337.0","34X6J5FLPUK64QNW1L83M3VPBR8JQI","A1SPIAJZORHFT0","3WPCIUYH1AU470H2HRBLZRFBM3CTDN","","287.79999999701977","img/food5.png","75","288.69999999552965","1","0","2","0.2,0.8,0.2,0.8,0.2,0.8,0.8,0.2",""
"","html-keyboard-response","338","226631","0.0-338.0","34X6J5FLPUK64QNW1L83M3VPBR8JQI","A1SPIAJZORHFT0","3WPCIUYH1AU470H2HRBLZRFBM3CTDN","","null","<img src=""img/food5.png"" style=""width:200px;border:14px solid red;"">","null","","","","","",""
"","image-keyboard-response","339","228384","0.0-339.0","34X6J5FLPUK64QNW1L83M3VPBR8JQI","A1SPIAJZORHFT0","3WPCIUYH1AU470H2HRBLZRFBM3CTDN","","1751.8999999985099","img/food8.png","76","1752.7000000029802","2","1","1","0.2,0.8,0.2,0.8,0.2,0.8,0.8,0.2",""
"","html-keyboard-response","340","228686","0.0-340.0","34X6J5FLPUK64QNW1L83M3VPBR8JQI","A1SPIAJZORHFT0","3WPCIUYH1AU470H2HRBLZRFBM3CTDN","","null","<img src=""img/food8.png"" style=""width:200px; border:14px solid green;"">","null","","","","","",""
"","image-keyboard-response","341","229364","0.0-341.0","34X6J5FLPUK64QNW1L83M3VPBR8JQI","A1SPIAJZORHFT0","3WPCIUYH1AU470H2HRBLZRFBM3CTDN","","677","img/food2.png","75","677.8999999985099","1","1","4","0.2,0.8,0.2,0.8,0.2,0.8,0.8,0.2",""
"","html-keyboard-response","342","229666","0.0-342.0","34X6J5FLPUK64QNW1L83M3VPBR8JQI","A1SPIAJZORHFT0","3WPCIUYH1AU470H2HRBLZRFBM3CTDN","","null","<img src=""img/food2.png"" style=""width:200px; border:14px solid green;"">","null","","","","","",""
"","image-keyboard-response","343","230440","0.0-343.0","34X6J5FLPUK64QNW1L83M3VPBR8JQI","A1SPIAJZORHFT0","3WPCIUYH1AU470H2HRBLZRFBM3CTDN","","773.2999999970198","img/food7.png","76","774.2000000029802","2","0","3","0.2,0.8,0.2,0.8,0.2,0.8,0.8,0.2",""
"","html-keyboard-response","344","230741","0.0-344.0","34X6J5FLPUK64QNW1L83M3VPBR8JQI","A1SPIAJZORHFT0","3WPCIUYH1AU470H2HRBLZRFBM3CTDN","","null","<img src=""img/food7.png"" style=""width:200px;border:14px solid red;"">","null","","","","","",""
"","image-keyboard-response","345","231484","0.0-345.0","34X6J5FLPUK64QNW1L83M3VPBR8JQI","A1SPIAJZORHFT0","3WPCIUYH1AU470H2HRBLZRFBM3CTDN","","741.7999999970198","img/food8.png","76","742.5","2","0","1","0.2,0.8,0.2,0.8,0.2,0.8,0.8,0.2",""
"","html-keyboard-response","346","231797","0.0-346.0","34X6J5FLPUK64QNW1L83M3VPBR8JQI","A1SPIAJZORHFT0","3WPCIUYH1AU470H2HRBLZRFBM3CTDN","","null","<img src=""img/food8.png"" style=""width:200px;border:14px solid red;"">","null","","","","","",""
"","image-keyboard-response","347","232325","0.0-347.0","34X6J5FLPUK64QNW1L83M3VPBR8JQI","A1SPIAJZORHFT0","3WPCIUYH1AU470H2HRBLZRFBM3CTDN","","526.2000000029802","img/food7.png","76","527.1999999955297","2","1","3","0.2,0.8,0.2,0.8,0.2,0.8,0.8,0.2",""
"","html-keyboard-response","348","232627","0.0-348.0","34X6J5FLPUK64QNW1L83M3VPBR8JQI","A1SPIAJZORHFT0","3WPCIUYH1AU470H2HRBLZRFBM3CTDN","","null","<img src=""img/food7.png"" style=""width:200px; border:14px solid green;"">","null","","","","","",""
"","image-keyboard-response","349","233247","0.0-349.0","34X6J5FLPUK64QNW1L83M3VPBR8JQI","A1SPIAJZORHFT0","3WPCIUYH1AU470H2HRBLZRFBM3CTDN","","619.2999999970198","img/food5.png","75","620","1","1","2","0.2,0.8,0.2,0.8,0.2,0.8,0.8,0.2",""
"","html-keyboard-response","350","233549","0.0-350.0","34X6J5FLPUK64QNW1L83M3VPBR8JQI","A1SPIAJZORHFT0","3WPCIUYH1AU470H2HRBLZRFBM3CTDN","","null","<img src=""img/food5.png"" style=""width:200px; border:14px solid green;"">","null","","","","","",""
"","image-keyboard-response","351","233959","0.0-351.0","34X6J5FLPUK64QNW1L83M3VPBR8JQI","A1SPIAJZORHFT0","3WPCIUYH1AU470H2HRBLZRFBM3CTDN","","409.29999999701977","img/food2.png","75","409.8999999985099","1","0","4","0.2,0.8,0.2,0.8,0.2,0.8,0.8,0.2",""
"","html-keyboard-response","352","234262","0.0-352.0","34X6J5FLPUK64QNW1L83M3VPBR8JQI","A1SPIAJZORHFT0","3WPCIUYH1AU470H2HRBLZRFBM3CTDN","","null","<img src=""img/food2.png"" style=""width:200px;border:14px solid red;"">","null","","","","","",""
"","image-keyboard-response","353","235088","0.0-353.0","34X6J5FLPUK64QNW1L83M3VPBR8JQI","A1SPIAJZORHFT0","3WPCIUYH1AU470H2HRBLZRFBM3CTDN","","825","img/food7.png","76","825.7999999970198","2","1","3","0.2,0.8,0.2,0.8,0.2,0.8,0.8,0.2",""
"","html-keyboard-response","354","235391","0.0-354.0","34X6J5FLPUK64QNW1L83M3VPBR8JQI","A1SPIAJZORHFT0","3WPCIUYH1AU470H2HRBLZRFBM3CTDN","","null","<img src=""img/food7.png"" style=""width:200px; border:14px solid green;"">","null","","","","","",""
"","image-keyboard-response","355","236754","0.0-355.0","34X6J5FLPUK64QNW1L83M3VPBR8JQI","A1SPIAJZORHFT0","3WPCIUYH1AU470H2HRBLZRFBM3CTDN","","1361.8999999985099","img/food5.png","75","1362.5","1","0","2","0.2,0.8,0.2,0.8,0.2,0.8,0.8,0.2",""
"","html-keyboard-response","356","237056","0.0-356.0","34X6J5FLPUK64QNW1L83M3VPBR8JQI","A1SPIAJZORHFT0","3WPCIUYH1AU470H2HRBLZRFBM3CTDN","","null","<img src=""img/food5.png"" style=""width:200px;border:14px solid red;"">","null","","","","","",""
"","image-keyboard-response","357","238630","0.0-357.0","34X6J5FLPUK64QNW1L83M3VPBR8JQI","A1SPIAJZORHFT0","3WPCIUYH1AU470H2HRBLZRFBM3CTDN","","1572.7999999970198","img/food8.png","76","1573.7000000029802","2","1","1","0.2,0.8,0.2,0.8,0.2,0.8,0.8,0.2",""
"","html-keyboard-response","358","238932","0.0-358.0","34X6J5FLPUK64QNW1L83M3VPBR8JQI","A1SPIAJZORHFT0","3WPCIUYH1AU470H2HRBLZRFBM3CTDN","","null","<img src=""img/food8.png"" style=""width:200px; border:14px solid green;"">","null","","","","","",""
"","image-keyboard-response","359","239733","0.0-359.0","34X6J5FLPUK64QNW1L83M3VPBR8JQI","A1SPIAJZORHFT0","3WPCIUYH1AU470H2HRBLZRFBM3CTDN","","800.8000000044703","img/food2.png","75","801.5999999940395","1","0","4","0.2,0.8,0.2,0.8,0.2,0.8,0.8,0.2",""
"","html-keyboard-response","360","240036","0.0-360.0","34X6J5FLPUK64QNW1L83M3VPBR8JQI","A1SPIAJZORHFT0","3WPCIUYH1AU470H2HRBLZRFBM3CTDN","","null","<img src=""img/food2.png"" style=""width:200px;border:14px solid red;"">","null","","","","","",""
"","image-keyboard-response","361","241531","0.0-361.0","34X6J5FLPUK64QNW1L83M3VPBR8JQI","A1SPIAJZORHFT0","3WPCIUYH1AU470H2HRBLZRFBM3CTDN","","1494.4000000059605","img/food8.png","76","1495.2999999970198","2","1","1","0.2,0.8,0.2,0.8,0.2,0.8,0.8,0.2",""
"","html-keyboard-response","362","241833","0.0-362.0","34X6J5FLPUK64QNW1L83M3VPBR8JQI","A1SPIAJZORHFT0","3WPCIUYH1AU470H2HRBLZRFBM3CTDN","","null","<img src=""img/food8.png"" style=""width:200px; border:14px solid green;"">","null","","","","","",""
"","image-keyboard-response","363","242474","0.0-363.0","34X6J5FLPUK64QNW1L83M3VPBR8JQI","A1SPIAJZORHFT0","3WPCIUYH1AU470H2HRBLZRFBM3CTDN","","640.2000000029802","img/food8.png","76","641","2","1","1","0.2,0.8,0.2,0.8,0.2,0.8,0.8,0.2",""
"","html-keyboard-response","364","242777","0.0-364.0","34X6J5FLPUK64QNW1L83M3VPBR8JQI","A1SPIAJZORHFT0","3WPCIUYH1AU470H2HRBLZRFBM3CTDN","","null","<img src=""img/food8.png"" style=""width:200px; border:14px solid green;"">","null","","","","","",""
"","image-keyboard-response","365","244143","0.0-365.0","34X6J5FLPUK64QNW1L83M3VPBR8JQI","A1SPIAJZORHFT0","3WPCIUYH1AU470H2HRBLZRFBM3CTDN","","1364.4000000059605","img/food5.png","75","1365.2000000029802","1","0","2","0.2,0.8,0.2,0.8,0.2,0.8,0.8,0.2",""
"","html-keyboard-response","366","244444","0.0-366.0","34X6J5FLPUK64QNW1L83M3VPBR8JQI","A1SPIAJZORHFT0","3WPCIUYH1AU470H2HRBLZRFBM3CTDN","","null","<img src=""img/food5.png"" style=""width:200px;border:14px solid red;"">","null","","","","","",""
"","image-keyboard-response","367","245604","0.0-367.0","34X6J5FLPUK64QNW1L83M3VPBR8JQI","A1SPIAJZORHFT0","3WPCIUYH1AU470H2HRBLZRFBM3CTDN","","1158.7999999970198","img/food2.png","75","1159.7000000029802","1","1","4","0.2,0.8,0.2,0.8,0.2,0.8,0.8,0.2",""
"","html-keyboard-response","368","245905","0.0-368.0","34X6J5FLPUK64QNW1L83M3VPBR8JQI","A1SPIAJZORHFT0","3WPCIUYH1AU470H2HRBLZRFBM3CTDN","","null","<img src=""img/food2.png"" style=""width:200px; border:14px solid green;"">","null","","","","","",""
"","image-keyboard-response","369","247143","0.0-369.0","34X6J5FLPUK64QNW1L83M3VPBR8JQI","A1SPIAJZORHFT0","3WPCIUYH1AU470H2HRBLZRFBM3CTDN","","1237.2000000029802","img/food5.png","75","1237.7999999970198","1","0","2","0.2,0.8,0.2,0.8,0.2,0.8,0.8,0.2",""
"","html-keyboard-response","370","247445","0.0-370.0","34X6J5FLPUK64QNW1L83M3VPBR8JQI","A1SPIAJZORHFT0","3WPCIUYH1AU470H2HRBLZRFBM3CTDN","","null","<img src=""img/food5.png"" style=""width:200px;border:14px solid red;"">","null","","","","","",""
"","image-keyboard-response","371","248505","0.0-371.0","34X6J5FLPUK64QNW1L83M3VPBR8JQI","A1SPIAJZORHFT0","3WPCIUYH1AU470H2HRBLZRFBM3CTDN","","1059.3999999985099","img/food5.png","75","1060.0999999940395","1","0","2","0.2,0.8,0.2,0.8,0.2,0.8,0.8,0.2",""
"","html-keyboard-response","372","248807","0.0-372.0","34X6J5FLPUK64QNW1L83M3VPBR8JQI","A1SPIAJZORHFT0","3WPCIUYH1AU470H2HRBLZRFBM3CTDN","","null","<img src=""img/food5.png"" style=""width:200px;border:14px solid red;"">","null","","","","","",""
"","image-keyboard-response","373","250025","0.0-373.0","34X6J5FLPUK64QNW1L83M3VPBR8JQI","A1SPIAJZORHFT0","3WPCIUYH1AU470H2HRBLZRFBM3CTDN","","1216.8000000044703","img/food7.png","76","1217.7000000029802","2","1","3","0.2,0.8,0.2,0.8,0.2,0.8,0.8,0.2",""
"","html-keyboard-response","374","250326","0.0-374.0","34X6J5FLPUK64QNW1L83M3VPBR8JQI","A1SPIAJZORHFT0","3WPCIUYH1AU470H2HRBLZRFBM3CTDN","","null","<img src=""img/food7.png"" style=""width:200px; border:14px solid green;"">","null","","","","","",""
"","image-keyboard-response","375","250891","0.0-375.0","34X6J5FLPUK64QNW1L83M3VPBR8JQI","A1SPIAJZORHFT0","3WPCIUYH1AU470H2HRBLZRFBM3CTDN","","564.3999999985099","img/food8.png","76","565","2","1","1","0.2,0.8,0.2,0.8,0.2,0.8,0.8,0.2",""
"","html-keyboard-response","376","251193","0.0-376.0","34X6J5FLPUK64QNW1L83M3VPBR8JQI","A1SPIAJZORHFT0","3WPCIUYH1AU470H2HRBLZRFBM3CTDN","","null","<img src=""img/food8.png"" style=""width:200px; border:14px solid green;"">","null","","","","","",""
"","image-keyboard-response","377","251612","0.0-377.0","34X6J5FLPUK64QNW1L83M3VPBR8JQI","A1SPIAJZORHFT0","3WPCIUYH1AU470H2HRBLZRFBM3CTDN","","417.6000000014901","img/food5.png","76","418.40000000596046","2","1","2","0.2,0.8,0.2,0.8,0.2,0.8,0.8,0.2",""
"","html-keyboard-response","378","251913","0.0-378.0","34X6J5FLPUK64QNW1L83M3VPBR8JQI","A1SPIAJZORHFT0","3WPCIUYH1AU470H2HRBLZRFBM3CTDN","","null","<img src=""img/food5.png"" style=""width:200px; border:14px solid green;"">","null","","","","","",""
"","image-keyboard-response","379","252309","0.0-379.0","34X6J5FLPUK64QNW1L83M3VPBR8JQI","A1SPIAJZORHFT0","3WPCIUYH1AU470H2HRBLZRFBM3CTDN","","395.20000000298023","img/food5.png","76","395.90000000596046","2","1","2","0.2,0.8,0.2,0.8,0.2,0.8,0.8,0.2",""
"","html-keyboard-response","380","252612","0.0-380.0","34X6J5FLPUK64QNW1L83M3VPBR8JQI","A1SPIAJZORHFT0","3WPCIUYH1AU470H2HRBLZRFBM3CTDN","","null","<img src=""img/food5.png"" style=""width:200px; border:14px solid green;"">","null","","","","","",""
"","image-keyboard-response","381","253150","0.0-381.0","34X6J5FLPUK64QNW1L83M3VPBR8JQI","A1SPIAJZORHFT0","3WPCIUYH1AU470H2HRBLZRFBM3CTDN","","536.8999999985099","img/food7.png","76","537.7999999970198","2","1","3","0.2,0.8,0.2,0.8,0.2,0.8,0.8,0.2",""
"","html-keyboard-response","382","253451","0.0-382.0","34X6J5FLPUK64QNW1L83M3VPBR8JQI","A1SPIAJZORHFT0","3WPCIUYH1AU470H2HRBLZRFBM3CTDN","","null","<img src=""img/food7.png"" style=""width:200px; border:14px solid green;"">","null","","","","","",""
"","image-keyboard-response","383","254468","0.0-383.0","34X6J5FLPUK64QNW1L83M3VPBR8JQI","A1SPIAJZORHFT0","3WPCIUYH1AU470H2HRBLZRFBM3CTDN","","1016.6000000014901","img/food2.png","75","1017.5","1","1","4","0.2,0.8,0.2,0.8,0.2,0.8,0.8,0.2",""
"","html-keyboard-response","384","254770","0.0-384.0","34X6J5FLPUK64QNW1L83M3VPBR8JQI","A1SPIAJZORHFT0","3WPCIUYH1AU470H2HRBLZRFBM3CTDN","","null","<img src=""img/food2.png"" style=""width:200px; border:14px solid green;"">","null","","","","","",""
"","image-keyboard-response","385","255654","0.0-385.0","34X6J5FLPUK64QNW1L83M3VPBR8JQI","A1SPIAJZORHFT0","3WPCIUYH1AU470H2HRBLZRFBM3CTDN","","883.1999999955297","img/food8.png","76","884","2","1","1","0.2,0.8,0.2,0.8,0.2,0.8,0.8,0.2",""
"","html-keyboard-response","386","255955","0.0-386.0","34X6J5FLPUK64QNW1L83M3VPBR8JQI","A1SPIAJZORHFT0","3WPCIUYH1AU470H2HRBLZRFBM3CTDN","","null","<img src=""img/food8.png"" style=""width:200px; border:14px solid green;"">","null","","","","","",""
"","image-keyboard-response","387","256292","0.0-387.0","34X6J5FLPUK64QNW1L83M3VPBR8JQI","A1SPIAJZORHFT0","3WPCIUYH1AU470H2HRBLZRFBM3CTDN","","336.59999999403954","img/food8.png","76","337.5","2","1","1","0.2,0.8,0.2,0.8,0.2,0.8,0.8,0.2",""
"","html-keyboard-response","388","256594","0.0-388.0","34X6J5FLPUK64QNW1L83M3VPBR8JQI","A1SPIAJZORHFT0","3WPCIUYH1AU470H2HRBLZRFBM3CTDN","","null","<img src=""img/food8.png"" style=""width:200px; border:14px solid green;"">","null","","","","","",""
"","image-keyboard-response","389","257243","0.0-389.0","34X6J5FLPUK64QNW1L83M3VPBR8JQI","A1SPIAJZORHFT0","3WPCIUYH1AU470H2HRBLZRFBM3CTDN","","648.5","img/food7.png","76","649.5","2","0","3","0.2,0.8,0.2,0.8,0.2,0.8,0.8,0.2",""
"","html-keyboard-response","390","257551","0.0-390.0","34X6J5FLPUK64QNW1L83M3VPBR8JQI","A1SPIAJZORHFT0","3WPCIUYH1AU470H2HRBLZRFBM3CTDN","","null","<img src=""img/food7.png"" style=""width:200px;border:14px solid red;"">","null","","","","","",""
"","image-keyboard-response","391","258265","0.0-391.0","34X6J5FLPUK64QNW1L83M3VPBR8JQI","A1SPIAJZORHFT0","3WPCIUYH1AU470H2HRBLZRFBM3CTDN","","713.1999999955297","img/food2.png","76","713.8999999985099","2","0","4","0.2,0.8,0.2,0.8,0.2,0.8,0.8,0.2",""
"","html-keyboard-response","392","258568","0.0-392.0","34X6J5FLPUK64QNW1L83M3VPBR8JQI","A1SPIAJZORHFT0","3WPCIUYH1AU470H2HRBLZRFBM3CTDN","","null","<img src=""img/food2.png"" style=""width:200px;border:14px solid red;"">","null","","","","","",""
"","image-keyboard-response","393","259658","0.0-393.0","34X6J5FLPUK64QNW1L83M3VPBR8JQI","A1SPIAJZORHFT0","3WPCIUYH1AU470H2HRBLZRFBM3CTDN","","1089.3000000044703","img/food8.png","76","1090.0999999940395","2","1","1","0.2,0.8,0.2,0.8,0.2,0.8,0.8,0.2",""
"","html-keyboard-response","394","259961","0.0-394.0","34X6J5FLPUK64QNW1L83M3VPBR8JQI","A1SPIAJZORHFT0","3WPCIUYH1AU470H2HRBLZRFBM3CTDN","","null","<img src=""img/food8.png"" style=""width:200px; border:14px solid green;"">","null","","","","","",""
"","image-keyboard-response","395","260644","0.0-395.0","34X6J5FLPUK64QNW1L83M3VPBR8JQI","A1SPIAJZORHFT0","3WPCIUYH1AU470H2HRBLZRFBM3CTDN","","681.8000000044703","img/food2.png","75","682.7000000029802","1","1","4","0.2,0.8,0.2,0.8,0.2,0.8,0.8,0.2",""
"","html-keyboard-response","396","260946","0.0-396.0","34X6J5FLPUK64QNW1L83M3VPBR8JQI","A1SPIAJZORHFT0","3WPCIUYH1AU470H2HRBLZRFBM3CTDN","","null","<img src=""img/food2.png"" style=""width:200px; border:14px solid green;"">","null","","","","","",""
"","image-keyboard-response","397","261622","0.0-397.0","34X6J5FLPUK64QNW1L83M3VPBR8JQI","A1SPIAJZORHFT0","3WPCIUYH1AU470H2HRBLZRFBM3CTDN","","674.6999999955297","img/food7.png","76","675.6000000014901","2","1","3","0.2,0.8,0.2,0.8,0.2,0.8,0.8,0.2",""
"","html-keyboard-response","398","261923","0.0-398.0","34X6J5FLPUK64QNW1L83M3VPBR8JQI","A1SPIAJZORHFT0","3WPCIUYH1AU470H2HRBLZRFBM3CTDN","","null","<img src=""img/food7.png"" style=""width:200px; border:14px solid green;"">","null","","","","","",""
"","image-keyboard-response","399","262962","0.0-399.0","34X6J5FLPUK64QNW1L83M3VPBR8JQI","A1SPIAJZORHFT0","3WPCIUYH1AU470H2HRBLZRFBM3CTDN","","1037.8999999985099","img/food8.png","76","1038.5","2","1","1","0.2,0.8,0.2,0.8,0.2,0.8,0.8,0.2",""
"","html-keyboard-response","400","263263","0.0-400.0","34X6J5FLPUK64QNW1L83M3VPBR8JQI","A1SPIAJZORHFT0","3WPCIUYH1AU470H2HRBLZRFBM3CTDN","","null","<img src=""img/food8.png"" style=""width:200px; border:14px solid green;"">","null","","","","","",""
"","image-keyboard-response","401","264380","0.0-401.0","34X6J5FLPUK64QNW1L83M3VPBR8JQI","A1SPIAJZORHFT0","3WPCIUYH1AU470H2HRBLZRFBM3CTDN","","1115.7000000029802","img/food2.png","75","1116.6000000014901","1","0","4","0.2,0.8,0.2,0.8,0.2,0.8,0.8,0.2",""
