"success","trial_type","trial_index","time_elapsed","internal_node_id","assignmentID","mturkID","hitID","view_history","rt","stimulus","key_press","reactionTime","a","r","s","cond","reward_cond","reward_cond_actual","reward_matrix_idx","warning","responses"
"true","fullscreen","0","5549","0.0-0.0","3E13VNJ1NOHMSBJ9YOXO918HUHUI1F","A1T4GVQH4P0BO","3RBI0I35XEP26UEZY8S8UZLEA1IY3E","","","","","","","","","","","","","",""
"","instructions","1","32542","0.0-1.0","3E13VNJ1NOHMSBJ9YOXO918HUHUI1F","A1T4GVQH4P0BO","3RBI0I35XEP26UEZY8S8UZLEA1IY3E","[{""page_index"":0,""viewing_time"":2270.199999988079},{""page_index"":1,""viewing_time"":2084.300000011921},{""page_index"":2,""viewing_time"":3040.699999988079},{""page_index"":3,""viewing_time"":6997.70000000298},{""page_index"":4,""viewing_time"":2807.2999999970198},{""page_index"":5,""viewing_time"":3717.300000011921},{""page_index"":6,""viewing_time"":6072}]","26990.59999999404","","","","","","","","","","","",""
"","image-keyboard-response","2","34372","0.0-2.0","3E13VNJ1NOHMSBJ9YOXO918HUHUI1F","A1T4GVQH4P0BO","3RBI0I35XEP26UEZY8S8UZLEA1IY3E","","1824.6000000089407","img/food4.png","75","1828.6000000089407","2","1","1","1","1,0.5,0,1,0.5,0,0.5,0,1","0,1,0.5,0,1,0.5,1,0.5,0","3","",""
"","html-keyboard-response","3","34680","0.0-3.0","3E13VNJ1NOHMSBJ9YOXO918HUHUI1F","A1T4GVQH4P0BO","3RBI0I35XEP26UEZY8S8UZLEA1IY3E","","null","<img src=""img/food4.png"" style=""width:200px; border:14px solid green;"">","null","","","","","","","","","",""
"","image-keyboard-response","4","36023","0.0-4.0","3E13VNJ1NOHMSBJ9YOXO918HUHUI1F","A1T4GVQH4P0BO","3RBI0I35XEP26UEZY8S8UZLEA1IY3E","","1339.699999988079","img/food6.png","74","1342","1","0","2","1","1,0.5,0,1,0.5,0,0.5,0,1","0,1,0.5,0,1,0.5,1,0.5,0","3","",""
"","html-keyboard-response","5","36329","0.0-5.0","3E13VNJ1NOHMSBJ9YOXO918HUHUI1F","A1T4GVQH4P0BO","3RBI0I35XEP26UEZY8S8UZLEA1IY3E","","null","<img src=""img/food6.png"" style=""width:200px;border:14px solid red;"">","null","","","","","","","","","",""
"","image-keyboard-response","6","38434","0.0-6.0","3E13VNJ1NOHMSBJ9YOXO918HUHUI1F","A1T4GVQH4P0BO","3RBI0I35XEP26UEZY8S8UZLEA1IY3E","","2101.7000000029802","img/food6.png","74","2104.199999988079","1","0","2","1","1,0.5,0,1,0.5,0,0.5,0,1","0,1,0.5,0,1,0.5,1,0.5,0","3","",""
"","html-keyboard-response","7","38744","0.0-7.0","3E13VNJ1NOHMSBJ9YOXO918HUHUI1F","A1T4GVQH4P0BO","3RBI0I35XEP26UEZY8S8UZLEA1IY3E","","null","<img src=""img/food6.png"" style=""width:200px;border:14px solid red;"">","null","","","","","","","","","",""
"","image-keyboard-response","8","41164","0.0-8.0","3E13VNJ1NOHMSBJ9YOXO918HUHUI1F","A1T4GVQH4P0BO","3RBI0I35XEP26UEZY8S8UZLEA1IY3E","","2418.9000000059605","img/food3.png","75","2420","2","0","3","1","1,0.5,0,1,0.5,0,0.5,0,1","0,1,0.5,0,1,0.5,1,0.5,0","3","",""
"","html-keyboard-response","9","41472","0.0-9.0","3E13VNJ1NOHMSBJ9YOXO918HUHUI1F","A1T4GVQH4P0BO","3RBI0I35XEP26UEZY8S8UZLEA1IY3E","","null","<img src=""img/food3.png"" style=""width:200px;border:14px solid red;"">","null","","","","","","","","","",""
"","image-keyboard-response","10","42414","0.0-10.0","3E13VNJ1NOHMSBJ9YOXO918HUHUI1F","A1T4GVQH4P0BO","3RBI0I35XEP26UEZY8S8UZLEA1IY3E","","938.9000000059605","img/food4.png","76","941.2999999970198","3","0","1","1","1,0.5,0,1,0.5,0,0.5,0,1","0,1,0.5,0,1,0.5,1,0.5,0","3","",""
"","html-keyboard-response","11","42732","0.0-11.0","3E13VNJ1NOHMSBJ9YOXO918HUHUI1F","A1T4GVQH4P0BO","3RBI0I35XEP26UEZY8S8UZLEA1IY3E","","null","<img src=""img/food4.png"" style=""width:200px;border:14px solid red;"">","null","","","","","","","","","",""
"","image-keyboard-response","12","43554","0.0-12.0","3E13VNJ1NOHMSBJ9YOXO918HUHUI1F","A1T4GVQH4P0BO","3RBI0I35XEP26UEZY8S8UZLEA1IY3E","","819.7000000029802","img/food4.png","76","821.2999999970198","3","1","1","1","1,0.5,0,1,0.5,0,0.5,0,1","0,1,0.5,0,1,0.5,1,0.5,0","3","",""
"","html-keyboard-response","13","43863","0.0-13.0","3E13VNJ1NOHMSBJ9YOXO918HUHUI1F","A1T4GVQH4P0BO","3RBI0I35XEP26UEZY8S8UZLEA1IY3E","","null","<img src=""img/food4.png"" style=""width:200px; border:14px solid green;"">","null","","","","","","","","","",""
"","image-keyboard-response","14","44252","0.0-14.0","3E13VNJ1NOHMSBJ9YOXO918HUHUI1F","A1T4GVQH4P0BO","3RBI0I35XEP26UEZY8S8UZLEA1IY3E","","386.1000000089407","img/food4.png","76","388.3999999910593","3","1","1","1","1,0.5,0,1,0.5,0,0.5,0,1","0,1,0.5,0,1,0.5,1,0.5,0","3","",""
"","html-keyboard-response","15","44567","0.0-15.0","3E13VNJ1NOHMSBJ9YOXO918HUHUI1F","A1T4GVQH4P0BO","3RBI0I35XEP26UEZY8S8UZLEA1IY3E","","null","<img src=""img/food4.png"" style=""width:200px; border:14px solid green;"">","null","","","","","","","","","",""
"","image-keyboard-response","16","45902","0.0-16.0","3E13VNJ1NOHMSBJ9YOXO918HUHUI1F","A1T4GVQH4P0BO","3RBI0I35XEP26UEZY8S8UZLEA1IY3E","","1333.3999999910593","img/food6.png","74","1335.2999999970198","1","0","2","1","1,0.5,0,1,0.5,0,0.5,0,1","0,1,0.5,0,1,0.5,1,0.5,0","3","",""
"","html-keyboard-response","17","46221","0.0-17.0","3E13VNJ1NOHMSBJ9YOXO918HUHUI1F","A1T4GVQH4P0BO","3RBI0I35XEP26UEZY8S8UZLEA1IY3E","","null","<img src=""img/food6.png"" style=""width:200px;border:14px solid red;"">","null","","","","","","","","","",""
"","image-keyboard-response","18","48207","0.0-18.0","3E13VNJ1NOHMSBJ9YOXO918HUHUI1F","A1T4GVQH4P0BO","3RBI0I35XEP26UEZY8S8UZLEA1IY3E","","1982.7999999970198","img/food3.png","75","1985","2","1","3","1","1,0.5,0,1,0.5,0,0.5,0,1","0,1,0.5,0,1,0.5,1,0.5,0","3","",""
"","html-keyboard-response","19","48516","0.0-19.0","3E13VNJ1NOHMSBJ9YOXO918HUHUI1F","A1T4GVQH4P0BO","3RBI0I35XEP26UEZY8S8UZLEA1IY3E","","null","<img src=""img/food3.png"" style=""width:200px; border:14px solid green;"">","null","","","","","","","","","",""
"","image-keyboard-response","20","49319","0.0-20.0","3E13VNJ1NOHMSBJ9YOXO918HUHUI1F","A1T4GVQH4P0BO","3RBI0I35XEP26UEZY8S8UZLEA1IY3E","","802.0999999940395","img/food3.png","75","803.3999999910593","2","0","3","1","1,0.5,0,1,0.5,0,0.5,0,1","0,1,0.5,0,1,0.5,1,0.5,0","3","",""
"","html-keyboard-response","21","49630","0.0-21.0","3E13VNJ1NOHMSBJ9YOXO918HUHUI1F","A1T4GVQH4P0BO","3RBI0I35XEP26UEZY8S8UZLEA1IY3E","","null","<img src=""img/food3.png"" style=""width:200px;border:14px solid red;"">","null","","","","","","","","","",""
"","image-keyboard-response","22","50334","0.0-22.0","3E13VNJ1NOHMSBJ9YOXO918HUHUI1F","A1T4GVQH4P0BO","3RBI0I35XEP26UEZY8S8UZLEA1IY3E","","702.2999999970198","img/food3.png","75","703.9000000059605","2","0","3","1","1,0.5,0,1,0.5,0,0.5,0,1","0,1,0.5,0,1,0.5,1,0.5,0","3","",""
"","html-keyboard-response","23","50644","0.0-23.0","3E13VNJ1NOHMSBJ9YOXO918HUHUI1F","A1T4GVQH4P0BO","3RBI0I35XEP26UEZY8S8UZLEA1IY3E","","null","<img src=""img/food3.png"" style=""width:200px;border:14px solid red;"">","null","","","","","","","","","",""
"","image-keyboard-response","24","51455","0.0-24.0","3E13VNJ1NOHMSBJ9YOXO918HUHUI1F","A1T4GVQH4P0BO","3RBI0I35XEP26UEZY8S8UZLEA1IY3E","","809.5999999940395","img/food3.png","75","810.9000000059605","2","0","3","1","1,0.5,0,1,0.5,0,0.5,0,1","0,1,0.5,0,1,0.5,1,0.5,0","3","",""
"","html-keyboard-response","25","51768","0.0-25.0","3E13VNJ1NOHMSBJ9YOXO918HUHUI1F","A1T4GVQH4P0BO","3RBI0I35XEP26UEZY8S8UZLEA1IY3E","","null","<img src=""img/food3.png"" style=""width:200px;border:14px solid red;"">","null","","","","","","","","","",""
"","image-keyboard-response","26","52065","0.0-26.0","3E13VNJ1NOHMSBJ9YOXO918HUHUI1F","A1T4GVQH4P0BO","3RBI0I35XEP26UEZY8S8UZLEA1IY3E","","294.59999999403954","img/food3.png","76","297.09999999403954","3","0","3","1","1,0.5,0,1,0.5,0,0.5,0,1","0,1,0.5,0,1,0.5,1,0.5,0","3","",""
"","html-keyboard-response","27","52371","0.0-27.0","3E13VNJ1NOHMSBJ9YOXO918HUHUI1F","A1T4GVQH4P0BO","3RBI0I35XEP26UEZY8S8UZLEA1IY3E","","null","<img src=""img/food3.png"" style=""width:200px;border:14px solid red;"">","null","","","","","","","","","",""
"","image-keyboard-response","28","53712","0.0-28.0","3E13VNJ1NOHMSBJ9YOXO918HUHUI1F","A1T4GVQH4P0BO","3RBI0I35XEP26UEZY8S8UZLEA1IY3E","","1339.3999999910593","img/food6.png","74","1340.8999999910593","1","0","2","1","1,0.5,0,1,0.5,0,0.5,0,1","0,1,0.5,0,1,0.5,1,0.5,0","3","",""
"","html-keyboard-response","29","54020","0.0-29.0","3E13VNJ1NOHMSBJ9YOXO918HUHUI1F","A1T4GVQH4P0BO","3RBI0I35XEP26UEZY8S8UZLEA1IY3E","","null","<img src=""img/food6.png"" style=""width:200px;border:14px solid red;"">","null","","","","","","","","","",""
"","image-keyboard-response","30","54652","0.0-30.0","3E13VNJ1NOHMSBJ9YOXO918HUHUI1F","A1T4GVQH4P0BO","3RBI0I35XEP26UEZY8S8UZLEA1IY3E","","629.6000000089407","img/food6.png","75","631.5999999940395","2","1","2","1","1,0.5,0,1,0.5,0,0.5,0,1","0,1,0.5,0,1,0.5,1,0.5,0","3","",""
"","html-keyboard-response","31","54970","0.0-31.0","3E13VNJ1NOHMSBJ9YOXO918HUHUI1F","A1T4GVQH4P0BO","3RBI0I35XEP26UEZY8S8UZLEA1IY3E","","null","<img src=""img/food6.png"" style=""width:200px; border:14px solid green;"">","null","","","","","","","","","",""
"","image-keyboard-response","32","56556","0.0-32.0","3E13VNJ1NOHMSBJ9YOXO918HUHUI1F","A1T4GVQH4P0BO","3RBI0I35XEP26UEZY8S8UZLEA1IY3E","","1584.199999988079","img/food4.png","75","1586.1000000089407","2","1","1","1","1,0.5,0,1,0.5,0,0.5,0,1","0,1,0.5,0,1,0.5,1,0.5,0","3","",""
"","html-keyboard-response","33","56870","0.0-33.0","3E13VNJ1NOHMSBJ9YOXO918HUHUI1F","A1T4GVQH4P0BO","3RBI0I35XEP26UEZY8S8UZLEA1IY3E","","null","<img src=""img/food4.png"" style=""width:200px; border:14px solid green;"">","null","","","","","","","","","",""
"","image-keyboard-response","34","58040","0.0-34.0","3E13VNJ1NOHMSBJ9YOXO918HUHUI1F","A1T4GVQH4P0BO","3RBI0I35XEP26UEZY8S8UZLEA1IY3E","","1166.7000000029802","img/food3.png","76","1168.7999999970198","3","0","3","1","1,0.5,0,1,0.5,0,0.5,0,1","0,1,0.5,0,1,0.5,1,0.5,0","3","",""
"","html-keyboard-response","35","58349","0.0-35.0","3E13VNJ1NOHMSBJ9YOXO918HUHUI1F","A1T4GVQH4P0BO","3RBI0I35XEP26UEZY8S8UZLEA1IY3E","","null","<img src=""img/food3.png"" style=""width:200px;border:14px solid red;"">","null","","","","","","","","","",""
"","image-keyboard-response","36","59615","0.0-36.0","3E13VNJ1NOHMSBJ9YOXO918HUHUI1F","A1T4GVQH4P0BO","3RBI0I35XEP26UEZY8S8UZLEA1IY3E","","1261.9000000059605","img/food4.png","75","1264.1000000089407","2","1","1","1","1,0.5,0,1,0.5,0,0.5,0,1","0,1,0.5,0,1,0.5,1,0.5,0","3","",""
"","html-keyboard-response","37","59926","0.0-37.0","3E13VNJ1NOHMSBJ9YOXO918HUHUI1F","A1T4GVQH4P0BO","3RBI0I35XEP26UEZY8S8UZLEA1IY3E","","null","<img src=""img/food4.png"" style=""width:200px; border:14px solid green;"">","null","","","","","","","","","",""
"","image-keyboard-response","38","61785","0.0-38.0","3E13VNJ1NOHMSBJ9YOXO918HUHUI1F","A1T4GVQH4P0BO","3RBI0I35XEP26UEZY8S8UZLEA1IY3E","","1855.9000000059605","img/food6.png","76","1857.9000000059605","3","0","2","1","1,0.5,0,1,0.5,0,0.5,0,1","0,1,0.5,0,1,0.5,1,0.5,0","3","",""
"","html-keyboard-response","39","62098","0.0-39.0","3E13VNJ1NOHMSBJ9YOXO918HUHUI1F","A1T4GVQH4P0BO","3RBI0I35XEP26UEZY8S8UZLEA1IY3E","","null","<img src=""img/food6.png"" style=""width:200px;border:14px solid red;"">","null","","","","","","","","","",""
"","image-keyboard-response","40","62902","0.0-40.0","3E13VNJ1NOHMSBJ9YOXO918HUHUI1F","A1T4GVQH4P0BO","3RBI0I35XEP26UEZY8S8UZLEA1IY3E","","801.8000000119209","img/food3.png","75","804","2","0","3","1","1,0.5,0,1,0.5,0,0.5,0,1","0,1,0.5,0,1,0.5,1,0.5,0","3","",""
"","html-keyboard-response","41","63214","0.0-41.0","3E13VNJ1NOHMSBJ9YOXO918HUHUI1F","A1T4GVQH4P0BO","3RBI0I35XEP26UEZY8S8UZLEA1IY3E","","null","<img src=""img/food3.png"" style=""width:200px;border:14px solid red;"">","null","","","","","","","","","",""
"","image-keyboard-response","42","63888","0.0-42.0","3E13VNJ1NOHMSBJ9YOXO918HUHUI1F","A1T4GVQH4P0BO","3RBI0I35XEP26UEZY8S8UZLEA1IY3E","","671.1000000089407","img/food4.png","75","672.7000000029802","2","1","1","1","1,0.5,0,1,0.5,0,0.5,0,1","0,1,0.5,0,1,0.5,1,0.5,0","3","",""
"","html-keyboard-response","43","64195","0.0-43.0","3E13VNJ1NOHMSBJ9YOXO918HUHUI1F","A1T4GVQH4P0BO","3RBI0I35XEP26UEZY8S8UZLEA1IY3E","","null","<img src=""img/food4.png"" style=""width:200px; border:14px solid green;"">","null","","","","","","","","","",""
"","image-keyboard-response","44","65397","0.0-44.0","3E13VNJ1NOHMSBJ9YOXO918HUHUI1F","A1T4GVQH4P0BO","3RBI0I35XEP26UEZY8S8UZLEA1IY3E","","1200.9000000059605","img/food6.png","74","1202","1","0","2","1","1,0.5,0,1,0.5,0,0.5,0,1","0,1,0.5,0,1,0.5,1,0.5,0","3","",""
"","html-keyboard-response","45","65715","0.0-45.0","3E13VNJ1NOHMSBJ9YOXO918HUHUI1F","A1T4GVQH4P0BO","3RBI0I35XEP26UEZY8S8UZLEA1IY3E","","null","<img src=""img/food6.png"" style=""width:200px;border:14px solid red;"">","null","","","","","","","","","",""
"","image-keyboard-response","46","66404","0.0-46.0","3E13VNJ1NOHMSBJ9YOXO918HUHUI1F","A1T4GVQH4P0BO","3RBI0I35XEP26UEZY8S8UZLEA1IY3E","","686.2999999970198","img/food4.png","75","688.1000000089407","2","1","1","1","1,0.5,0,1,0.5,0,0.5,0,1","0,1,0.5,0,1,0.5,1,0.5,0","3","",""
"","html-keyboard-response","47","66716","0.0-47.0","3E13VNJ1NOHMSBJ9YOXO918HUHUI1F","A1T4GVQH4P0BO","3RBI0I35XEP26UEZY8S8UZLEA1IY3E","","null","<img src=""img/food4.png"" style=""width:200px; border:14px solid green;"">","null","","","","","","","","","",""
"","image-keyboard-response","48","67218","0.0-48.0","3E13VNJ1NOHMSBJ9YOXO918HUHUI1F","A1T4GVQH4P0BO","3RBI0I35XEP26UEZY8S8UZLEA1IY3E","","498.3999999910593","img/food4.png","75","501","2","1","1","1","1,0.5,0,1,0.5,0,0.5,0,1","0,1,0.5,0,1,0.5,1,0.5,0","3","",""
"","html-keyboard-response","49","67528","0.0-49.0","3E13VNJ1NOHMSBJ9YOXO918HUHUI1F","A1T4GVQH4P0BO","3RBI0I35XEP26UEZY8S8UZLEA1IY3E","","null","<img src=""img/food4.png"" style=""width:200px; border:14px solid green;"">","null","","","","","","","","","",""
"","image-keyboard-response","50","70175","0.0-50.0","3E13VNJ1NOHMSBJ9YOXO918HUHUI1F","A1T4GVQH4P0BO","3RBI0I35XEP26UEZY8S8UZLEA1IY3E","","2644.5","img/food6.png","76","2646.5","3","0","2","1","1,0.5,0,1,0.5,0,0.5,0,1","0,1,0.5,0,1,0.5,1,0.5,0","3","",""
"","html-keyboard-response","51","70479","0.0-51.0","3E13VNJ1NOHMSBJ9YOXO918HUHUI1F","A1T4GVQH4P0BO","3RBI0I35XEP26UEZY8S8UZLEA1IY3E","","null","<img src=""img/food6.png"" style=""width:200px;border:14px solid red;"">","null","","","","","","","","","",""
"","image-keyboard-response","52","71003","0.0-52.0","3E13VNJ1NOHMSBJ9YOXO918HUHUI1F","A1T4GVQH4P0BO","3RBI0I35XEP26UEZY8S8UZLEA1IY3E","","521.5","img/food6.png","76","523.6000000089407","3","0","2","1","1,0.5,0,1,0.5,0,0.5,0,1","0,1,0.5,0,1,0.5,1,0.5,0","3","",""
"","html-keyboard-response","53","71313","0.0-53.0","3E13VNJ1NOHMSBJ9YOXO918HUHUI1F","A1T4GVQH4P0BO","3RBI0I35XEP26UEZY8S8UZLEA1IY3E","","null","<img src=""img/food6.png"" style=""width:200px;border:14px solid red;"">","null","","","","","","","","","",""
"","image-keyboard-response","54","72926","0.0-54.0","3E13VNJ1NOHMSBJ9YOXO918HUHUI1F","A1T4GVQH4P0BO","3RBI0I35XEP26UEZY8S8UZLEA1IY3E","","1611.699999988079","img/food3.png","76","1613.2000000029802","3","0","3","1","1,0.5,0,1,0.5,0,0.5,0,1","0,1,0.5,0,1,0.5,1,0.5,0","3","",""
"","html-keyboard-response","55","73242","0.0-55.0","3E13VNJ1NOHMSBJ9YOXO918HUHUI1F","A1T4GVQH4P0BO","3RBI0I35XEP26UEZY8S8UZLEA1IY3E","","null","<img src=""img/food3.png"" style=""width:200px;border:14px solid red;"">","null","","","","","","","","","",""
"","image-keyboard-response","56","73592","0.0-56.0","3E13VNJ1NOHMSBJ9YOXO918HUHUI1F","A1T4GVQH4P0BO","3RBI0I35XEP26UEZY8S8UZLEA1IY3E","","348.40000000596046","img/food3.png","76","350","3","0","3","1","1,0.5,0,1,0.5,0,0.5,0,1","0,1,0.5,0,1,0.5,1,0.5,0","3","",""
"","html-keyboard-response","57","73894","0.0-57.0","3E13VNJ1NOHMSBJ9YOXO918HUHUI1F","A1T4GVQH4P0BO","3RBI0I35XEP26UEZY8S8UZLEA1IY3E","","null","<img src=""img/food3.png"" style=""width:200px;border:14px solid red;"">","null","","","","","","","","","",""
"","image-keyboard-response","58","74246","0.0-58.0","3E13VNJ1NOHMSBJ9YOXO918HUHUI1F","A1T4GVQH4P0BO","3RBI0I35XEP26UEZY8S8UZLEA1IY3E","","349","img/food3.png","76","351","3","0","3","1","1,0.5,0,1,0.5,0,0.5,0,1","0,1,0.5,0,1,0.5,1,0.5,0","3","",""
"","html-keyboard-response","59","74556","0.0-59.0","3E13VNJ1NOHMSBJ9YOXO918HUHUI1F","A1T4GVQH4P0BO","3RBI0I35XEP26UEZY8S8UZLEA1IY3E","","null","<img src=""img/food3.png"" style=""width:200px;border:14px solid red;"">","null","","","","","","","","","",""
"","image-keyboard-response","60","75405","0.0-60.0","3E13VNJ1NOHMSBJ9YOXO918HUHUI1F","A1T4GVQH4P0BO","3RBI0I35XEP26UEZY8S8UZLEA1IY3E","","847.2999999970198","img/food4.png","75","848.7999999970198","2","1","1","1","1,0.5,0,1,0.5,0,0.5,0,1","0,1,0.5,0,1,0.5,1,0.5,0","3","",""
"","html-keyboard-response","61","75715","0.0-61.0","3E13VNJ1NOHMSBJ9YOXO918HUHUI1F","A1T4GVQH4P0BO","3RBI0I35XEP26UEZY8S8UZLEA1IY3E","","null","<img src=""img/food4.png"" style=""width:200px; border:14px solid green;"">","null","","","","","","","","","",""
"","image-keyboard-response","62","78547","0.0-62.0","3E13VNJ1NOHMSBJ9YOXO918HUHUI1F","A1T4GVQH4P0BO","3RBI0I35XEP26UEZY8S8UZLEA1IY3E","","2829.4000000059605","img/food6.png","74","2831.0999999940395","1","0","2","1","1,0.5,0,1,0.5,0,0.5,0,1","0,1,0.5,0,1,0.5,1,0.5,0","3","",""
"","html-keyboard-response","63","78865","0.0-63.0","3E13VNJ1NOHMSBJ9YOXO918HUHUI1F","A1T4GVQH4P0BO","3RBI0I35XEP26UEZY8S8UZLEA1IY3E","","null","<img src=""img/food6.png"" style=""width:200px;border:14px solid red;"">","null","","","","","","","","","",""
"","image-keyboard-response","64","80174","0.0-64.0","3E13VNJ1NOHMSBJ9YOXO918HUHUI1F","A1T4GVQH4P0BO","3RBI0I35XEP26UEZY8S8UZLEA1IY3E","","1305.7999999970198","img/food3.png","74","1307.8999999910593","1","1","3","1","1,0.5,0,1,0.5,0,0.5,0,1","0,1,0.5,0,1,0.5,1,0.5,0","3","",""
"","html-keyboard-response","65","80481","0.0-65.0","3E13VNJ1NOHMSBJ9YOXO918HUHUI1F","A1T4GVQH4P0BO","3RBI0I35XEP26UEZY8S8UZLEA1IY3E","","null","<img src=""img/food3.png"" style=""width:200px; border:14px solid green;"">","null","","","","","","","","","",""
"","image-keyboard-response","66","81326","0.0-66.0","3E13VNJ1NOHMSBJ9YOXO918HUHUI1F","A1T4GVQH4P0BO","3RBI0I35XEP26UEZY8S8UZLEA1IY3E","","842.9000000059605","img/food3.png","74","845.1000000089407","1","1","3","1","1,0.5,0,1,0.5,0,0.5,0,1","0,1,0.5,0,1,0.5,1,0.5,0","3","",""
"","html-keyboard-response","67","81631","0.0-67.0","3E13VNJ1NOHMSBJ9YOXO918HUHUI1F","A1T4GVQH4P0BO","3RBI0I35XEP26UEZY8S8UZLEA1IY3E","","null","<img src=""img/food3.png"" style=""width:200px; border:14px solid green;"">","null","","","","","","","","","",""
"","image-keyboard-response","68","82720","0.0-68.0","3E13VNJ1NOHMSBJ9YOXO918HUHUI1F","A1T4GVQH4P0BO","3RBI0I35XEP26UEZY8S8UZLEA1IY3E","","1086.6000000089407","img/food4.png","75","1088.5999999940395","2","1","1","1","1,0.5,0,1,0.5,0,0.5,0,1","0,1,0.5,0,1,0.5,1,0.5,0","3","",""
"","html-keyboard-response","69","83030","0.0-69.0","3E13VNJ1NOHMSBJ9YOXO918HUHUI1F","A1T4GVQH4P0BO","3RBI0I35XEP26UEZY8S8UZLEA1IY3E","","null","<img src=""img/food4.png"" style=""width:200px; border:14px solid green;"">","null","","","","","","","","","",""
"","image-keyboard-response","70","83792","0.0-70.0","3E13VNJ1NOHMSBJ9YOXO918HUHUI1F","A1T4GVQH4P0BO","3RBI0I35XEP26UEZY8S8UZLEA1IY3E","","759.3999999910593","img/food4.png","75","761.7000000029802","2","1","1","1","1,0.5,0,1,0.5,0,0.5,0,1","0,1,0.5,0,1,0.5,1,0.5,0","3","",""
"","html-keyboard-response","71","84098","0.0-71.0","3E13VNJ1NOHMSBJ9YOXO918HUHUI1F","A1T4GVQH4P0BO","3RBI0I35XEP26UEZY8S8UZLEA1IY3E","","null","<img src=""img/food4.png"" style=""width:200px; border:14px solid green;"">","null","","","","","","","","","",""
"","image-keyboard-response","72","84469","0.0-72.0","3E13VNJ1NOHMSBJ9YOXO918HUHUI1F","A1T4GVQH4P0BO","3RBI0I35XEP26UEZY8S8UZLEA1IY3E","","367.80000001192093","img/food4.png","75","370.29999999701977","2","1","1","1","1,0.5,0,1,0.5,0,0.5,0,1","0,1,0.5,0,1,0.5,1,0.5,0","3","",""
"","html-keyboard-response","73","84782","0.0-73.0","3E13VNJ1NOHMSBJ9YOXO918HUHUI1F","A1T4GVQH4P0BO","3RBI0I35XEP26UEZY8S8UZLEA1IY3E","","null","<img src=""img/food4.png"" style=""width:200px; border:14px solid green;"">","null","","","","","","","","","",""
"","image-keyboard-response","74","85109","0.0-74.0","3E13VNJ1NOHMSBJ9YOXO918HUHUI1F","A1T4GVQH4P0BO","3RBI0I35XEP26UEZY8S8UZLEA1IY3E","","324.79999999701977","img/food4.png","75","326.90000000596046","2","1","1","1","1,0.5,0,1,0.5,0,0.5,0,1","0,1,0.5,0,1,0.5,1,0.5,0","3","",""
"","html-keyboard-response","75","85429","0.0-75.0","3E13VNJ1NOHMSBJ9YOXO918HUHUI1F","A1T4GVQH4P0BO","3RBI0I35XEP26UEZY8S8UZLEA1IY3E","","null","<img src=""img/food4.png"" style=""width:200px; border:14px solid green;"">","null","","","","","","","","","",""
"","image-keyboard-response","76","86073","0.0-76.0","3E13VNJ1NOHMSBJ9YOXO918HUHUI1F","A1T4GVQH4P0BO","3RBI0I35XEP26UEZY8S8UZLEA1IY3E","","641.3000000119209","img/food6.png","76","643.3999999910593","3","1","2","1","1,0.5,0,1,0.5,0,0.5,0,1","0,1,0.5,0,1,0.5,1,0.5,0","3","",""
"","html-keyboard-response","77","86377","0.0-77.0","3E13VNJ1NOHMSBJ9YOXO918HUHUI1F","A1T4GVQH4P0BO","3RBI0I35XEP26UEZY8S8UZLEA1IY3E","","null","<img src=""img/food6.png"" style=""width:200px; border:14px solid green;"">","null","","","","","","","","","",""
"","image-keyboard-response","78","87055","0.0-78.0","3E13VNJ1NOHMSBJ9YOXO918HUHUI1F","A1T4GVQH4P0BO","3RBI0I35XEP26UEZY8S8UZLEA1IY3E","","675.3999999910593","img/food6.png","76","677.5999999940395","3","1","2","1","1,0.5,0,1,0.5,0,0.5,0,1","0,1,0.5,0,1,0.5,1,0.5,0","3","",""
"","html-keyboard-response","79","87361","0.0-79.0","3E13VNJ1NOHMSBJ9YOXO918HUHUI1F","A1T4GVQH4P0BO","3RBI0I35XEP26UEZY8S8UZLEA1IY3E","","null","<img src=""img/food6.png"" style=""width:200px; border:14px solid green;"">","null","","","","","","","","","",""
"","image-keyboard-response","80","88242","0.0-80.0","3E13VNJ1NOHMSBJ9YOXO918HUHUI1F","A1T4GVQH4P0BO","3RBI0I35XEP26UEZY8S8UZLEA1IY3E","","878.4000000059605","img/food3.png","74","880.6000000089407","1","1","3","1","1,0.5,0,1,0.5,0,0.5,0,1","0,1,0.5,0,1,0.5,1,0.5,0","3","",""
"","html-keyboard-response","81","88550","0.0-81.0","3E13VNJ1NOHMSBJ9YOXO918HUHUI1F","A1T4GVQH4P0BO","3RBI0I35XEP26UEZY8S8UZLEA1IY3E","","null","<img src=""img/food3.png"" style=""width:200px; border:14px solid green;"">","null","","","","","","","","","",""
"","image-keyboard-response","82","89825","0.0-82.0","3E13VNJ1NOHMSBJ9YOXO918HUHUI1F","A1T4GVQH4P0BO","3RBI0I35XEP26UEZY8S8UZLEA1IY3E","","1273.6000000089407","img/food6.png","76","1274.7999999970198","3","1","2","1","1,0.5,0,1,0.5,0,0.5,0,1","0,1,0.5,0,1,0.5,1,0.5,0","3","",""
"","html-keyboard-response","83","90136","0.0-83.0","3E13VNJ1NOHMSBJ9YOXO918HUHUI1F","A1T4GVQH4P0BO","3RBI0I35XEP26UEZY8S8UZLEA1IY3E","","null","<img src=""img/food6.png"" style=""width:200px; border:14px solid green;"">","null","","","","","","","","","",""
"","image-keyboard-response","84","90829","0.0-84.0","3E13VNJ1NOHMSBJ9YOXO918HUHUI1F","A1T4GVQH4P0BO","3RBI0I35XEP26UEZY8S8UZLEA1IY3E","","689.5","img/food6.png","76","691.8999999910593","3","0","2","1","1,0.5,0,1,0.5,0,0.5,0,1","0,1,0.5,0,1,0.5,1,0.5,0","3","",""
"","html-keyboard-response","85","91138","0.0-85.0","3E13VNJ1NOHMSBJ9YOXO918HUHUI1F","A1T4GVQH4P0BO","3RBI0I35XEP26UEZY8S8UZLEA1IY3E","","null","<img src=""img/food6.png"" style=""width:200px;border:14px solid red;"">","null","","","","","","","","","",""
"","image-keyboard-response","86","91556","0.0-86.0","3E13VNJ1NOHMSBJ9YOXO918HUHUI1F","A1T4GVQH4P0BO","3RBI0I35XEP26UEZY8S8UZLEA1IY3E","","414.59999999403954","img/food6.png","76","416.79999999701977","3","0","2","1","1,0.5,0,1,0.5,0,0.5,0,1","0,1,0.5,0,1,0.5,1,0.5,0","3","",""
"","html-keyboard-response","87","91862","0.0-87.0","3E13VNJ1NOHMSBJ9YOXO918HUHUI1F","A1T4GVQH4P0BO","3RBI0I35XEP26UEZY8S8UZLEA1IY3E","","null","<img src=""img/food6.png"" style=""width:200px;border:14px solid red;"">","null","","","","","","","","","",""
"","image-keyboard-response","88","92769","0.0-88.0","3E13VNJ1NOHMSBJ9YOXO918HUHUI1F","A1T4GVQH4P0BO","3RBI0I35XEP26UEZY8S8UZLEA1IY3E","","904.0999999940395","img/food3.png","74","906.5","1","1","3","1","1,0.5,0,1,0.5,0,0.5,0,1","0,1,0.5,0,1,0.5,1,0.5,0","3","",""
"","html-keyboard-response","89","93079","0.0-89.0","3E13VNJ1NOHMSBJ9YOXO918HUHUI1F","A1T4GVQH4P0BO","3RBI0I35XEP26UEZY8S8UZLEA1IY3E","","null","<img src=""img/food3.png"" style=""width:200px; border:14px solid green;"">","null","","","","","","","","","",""
"","image-keyboard-response","90","93490","0.0-90.0","3E13VNJ1NOHMSBJ9YOXO918HUHUI1F","A1T4GVQH4P0BO","3RBI0I35XEP26UEZY8S8UZLEA1IY3E","","408.20000000298023","img/food4.png","75","410.3999999910593","2","1","1","1","1,0.5,0,1,0.5,0,0.5,0,1","0,1,0.5,0,1,0.5,1,0.5,0","3","",""
"","html-keyboard-response","91","93804","0.0-91.0","3E13VNJ1NOHMSBJ9YOXO918HUHUI1F","A1T4GVQH4P0BO","3RBI0I35XEP26UEZY8S8UZLEA1IY3E","","null","<img src=""img/food4.png"" style=""width:200px; border:14px solid green;"">","null","","","","","","","","","",""
"","image-keyboard-response","92","95163","0.0-92.0","3E13VNJ1NOHMSBJ9YOXO918HUHUI1F","A1T4GVQH4P0BO","3RBI0I35XEP26UEZY8S8UZLEA1IY3E","","1357.300000011921","img/food3.png","74","1359.3999999910593","1","1","3","1","1,0.5,0,1,0.5,0,0.5,0,1","0,1,0.5,0,1,0.5,1,0.5,0","3","",""
"","html-keyboard-response","93","95472","0.0-93.0","3E13VNJ1NOHMSBJ9YOXO918HUHUI1F","A1T4GVQH4P0BO","3RBI0I35XEP26UEZY8S8UZLEA1IY3E","","null","<img src=""img/food3.png"" style=""width:200px; border:14px solid green;"">","null","","","","","","","","","",""
"","image-keyboard-response","94","96284","0.0-94.0","3E13VNJ1NOHMSBJ9YOXO918HUHUI1F","A1T4GVQH4P0BO","3RBI0I35XEP26UEZY8S8UZLEA1IY3E","","809.4000000059605","img/food3.png","74","811.0999999940395","1","1","3","1","1,0.5,0,1,0.5,0,0.5,0,1","0,1,0.5,0,1,0.5,1,0.5,0","3","",""
"","html-keyboard-response","95","96588","0.0-95.0","3E13VNJ1NOHMSBJ9YOXO918HUHUI1F","A1T4GVQH4P0BO","3RBI0I35XEP26UEZY8S8UZLEA1IY3E","","null","<img src=""img/food3.png"" style=""width:200px; border:14px solid green;"">","null","","","","","","","","","",""
"","image-keyboard-response","96","97066","0.0-96.0","3E13VNJ1NOHMSBJ9YOXO918HUHUI1F","A1T4GVQH4P0BO","3RBI0I35XEP26UEZY8S8UZLEA1IY3E","","475.90000000596046","img/food3.png","74","477.20000000298023","1","1","3","1","1,0.5,0,1,0.5,0,0.5,0,1","0,1,0.5,0,1,0.5,1,0.5,0","3","",""
"","html-keyboard-response","97","97377","0.0-97.0","3E13VNJ1NOHMSBJ9YOXO918HUHUI1F","A1T4GVQH4P0BO","3RBI0I35XEP26UEZY8S8UZLEA1IY3E","","null","<img src=""img/food3.png"" style=""width:200px; border:14px solid green;"">","null","","","","","","","","","",""
"","image-keyboard-response","98","98467","0.0-98.0","3E13VNJ1NOHMSBJ9YOXO918HUHUI1F","A1T4GVQH4P0BO","3RBI0I35XEP26UEZY8S8UZLEA1IY3E","","1087.5","img/food6.png","76","1089.3999999910593","3","1","2","1","1,0.5,0,1,0.5,0,0.5,0,1","0,1,0.5,0,1,0.5,1,0.5,0","3","",""
"","html-keyboard-response","99","98775","0.0-99.0","3E13VNJ1NOHMSBJ9YOXO918HUHUI1F","A1T4GVQH4P0BO","3RBI0I35XEP26UEZY8S8UZLEA1IY3E","","null","<img src=""img/food6.png"" style=""width:200px; border:14px solid green;"">","null","","","","","","","","","",""
"","image-keyboard-response","100","99197","0.0-100.0","3E13VNJ1NOHMSBJ9YOXO918HUHUI1F","A1T4GVQH4P0BO","3RBI0I35XEP26UEZY8S8UZLEA1IY3E","","419.79999999701977","img/food6.png","76","421.70000000298023","3","1","2","1","1,0.5,0,1,0.5,0,0.5,0,1","0,1,0.5,0,1,0.5,1,0.5,0","3","",""
"","html-keyboard-response","101","99512","0.0-101.0","3E13VNJ1NOHMSBJ9YOXO918HUHUI1F","A1T4GVQH4P0BO","3RBI0I35XEP26UEZY8S8UZLEA1IY3E","","null","<img src=""img/food6.png"" style=""width:200px; border:14px solid green;"">","null","","","","","","","","","",""
"","image-keyboard-response","102","99820","0.0-102.0","3E13VNJ1NOHMSBJ9YOXO918HUHUI1F","A1T4GVQH4P0BO","3RBI0I35XEP26UEZY8S8UZLEA1IY3E","","305.79999999701977","img/food6.png","76","307.59999999403954","3","0","2","1","1,0.5,0,1,0.5,0,0.5,0,1","0,1,0.5,0,1,0.5,1,0.5,0","3","",""
"","html-keyboard-response","103","100129","0.0-103.0","3E13VNJ1NOHMSBJ9YOXO918HUHUI1F","A1T4GVQH4P0BO","3RBI0I35XEP26UEZY8S8UZLEA1IY3E","","null","<img src=""img/food6.png"" style=""width:200px;border:14px solid red;"">","null","","","","","","","","","",""
"","image-keyboard-response","104","100461","0.0-104.0","3E13VNJ1NOHMSBJ9YOXO918HUHUI1F","A1T4GVQH4P0BO","3RBI0I35XEP26UEZY8S8UZLEA1IY3E","","329.59999999403954","img/food6.png","76","331.70000000298023","3","0","2","1","1,0.5,0,1,0.5,0,0.5,0,1","0,1,0.5,0,1,0.5,1,0.5,0","3","",""
"","html-keyboard-response","105","100769","0.0-105.0","3E13VNJ1NOHMSBJ9YOXO918HUHUI1F","A1T4GVQH4P0BO","3RBI0I35XEP26UEZY8S8UZLEA1IY3E","","null","<img src=""img/food6.png"" style=""width:200px;border:14px solid red;"">","null","","","","","","","","","",""
"","image-keyboard-response","106","101037","0.0-106.0","3E13VNJ1NOHMSBJ9YOXO918HUHUI1F","A1T4GVQH4P0BO","3RBI0I35XEP26UEZY8S8UZLEA1IY3E","","264.59999999403954","img/food6.png","76","266.79999999701977","3","1","2","1","1,0.5,0,1,0.5,0,0.5,0,1","0,1,0.5,0,1,0.5,1,0.5,0","3","",""
"","html-keyboard-response","107","101349","0.0-107.0","3E13VNJ1NOHMSBJ9YOXO918HUHUI1F","A1T4GVQH4P0BO","3RBI0I35XEP26UEZY8S8UZLEA1IY3E","","null","<img src=""img/food6.png"" style=""width:200px; border:14px solid green;"">","null","","","","","","","","","",""
"","image-keyboard-response","108","104108","0.0-108.0","3E13VNJ1NOHMSBJ9YOXO918HUHUI1F","A1T4GVQH4P0BO","3RBI0I35XEP26UEZY8S8UZLEA1IY3E","","2758","img/food4.png","75","2759.699999988079","2","1","1","1","1,0.5,0,1,0.5,0,0.5,0,1","0,1,0.5,0,1,0.5,1,0.5,0","3","",""
"","html-keyboard-response","109","104422","0.0-109.0","3E13VNJ1NOHMSBJ9YOXO918HUHUI1F","A1T4GVQH4P0BO","3RBI0I35XEP26UEZY8S8UZLEA1IY3E","","null","<img src=""img/food4.png"" style=""width:200px; border:14px solid green;"">","null","","","","","","","","","",""
"","image-keyboard-response","110","104915","0.0-110.0","3E13VNJ1NOHMSBJ9YOXO918HUHUI1F","A1T4GVQH4P0BO","3RBI0I35XEP26UEZY8S8UZLEA1IY3E","","490.79999999701977","img/food4.png","75","492.79999999701977","2","1","1","1","1,0.5,0,1,0.5,0,0.5,0,1","0,1,0.5,0,1,0.5,1,0.5,0","3","",""
"","html-keyboard-response","111","105227","0.0-111.0","3E13VNJ1NOHMSBJ9YOXO918HUHUI1F","A1T4GVQH4P0BO","3RBI0I35XEP26UEZY8S8UZLEA1IY3E","","null","<img src=""img/food4.png"" style=""width:200px; border:14px solid green;"">","null","","","","","","","","","",""
"","image-keyboard-response","112","106094","0.0-112.0","3E13VNJ1NOHMSBJ9YOXO918HUHUI1F","A1T4GVQH4P0BO","3RBI0I35XEP26UEZY8S8UZLEA1IY3E","","866","img/food6.png","76","867.4000000059605","3","0","2","1","1,0.5,0,1,0.5,0,0.5,0,1","0,1,0.5,0,1,0.5,1,0.5,0","3","",""
"","html-keyboard-response","113","106405","0.0-113.0","3E13VNJ1NOHMSBJ9YOXO918HUHUI1F","A1T4GVQH4P0BO","3RBI0I35XEP26UEZY8S8UZLEA1IY3E","","null","<img src=""img/food6.png"" style=""width:200px;border:14px solid red;"">","null","","","","","","","","","",""
"","image-keyboard-response","114","106800","0.0-114.0","3E13VNJ1NOHMSBJ9YOXO918HUHUI1F","A1T4GVQH4P0BO","3RBI0I35XEP26UEZY8S8UZLEA1IY3E","","392.1000000089407","img/food6.png","76","394.20000000298023","3","0","2","1","1,0.5,0,1,0.5,0,0.5,0,1","0,1,0.5,0,1,0.5,1,0.5,0","3","",""
"","html-keyboard-response","115","107112","0.0-115.0","3E13VNJ1NOHMSBJ9YOXO918HUHUI1F","A1T4GVQH4P0BO","3RBI0I35XEP26UEZY8S8UZLEA1IY3E","","null","<img src=""img/food6.png"" style=""width:200px;border:14px solid red;"">","null","","","","","","","","","",""
"","image-keyboard-response","116","107401","0.0-116.0","3E13VNJ1NOHMSBJ9YOXO918HUHUI1F","A1T4GVQH4P0BO","3RBI0I35XEP26UEZY8S8UZLEA1IY3E","","286.59999999403954","img/food6.png","76","288.79999999701977","3","0","2","1","1,0.5,0,1,0.5,0,0.5,0,1","0,1,0.5,0,1,0.5,1,0.5,0","3","",""
"","html-keyboard-response","117","107706","0.0-117.0","3E13VNJ1NOHMSBJ9YOXO918HUHUI1F","A1T4GVQH4P0BO","3RBI0I35XEP26UEZY8S8UZLEA1IY3E","","null","<img src=""img/food6.png"" style=""width:200px;border:14px solid red;"">","null","","","","","","","","","",""
"","image-keyboard-response","118","109180","0.0-118.0","3E13VNJ1NOHMSBJ9YOXO918HUHUI1F","A1T4GVQH4P0BO","3RBI0I35XEP26UEZY8S8UZLEA1IY3E","","1472.5","img/food4.png","75","1474.5999999940395","2","1","1","1","1,0.5,0,1,0.5,0,0.5,0,1","0,1,0.5,0,1,0.5,1,0.5,0","3","",""
"","html-keyboard-response","119","109489","0.0-119.0","3E13VNJ1NOHMSBJ9YOXO918HUHUI1F","A1T4GVQH4P0BO","3RBI0I35XEP26UEZY8S8UZLEA1IY3E","","null","<img src=""img/food4.png"" style=""width:200px; border:14px solid green;"">","null","","","","","","","","","",""
"","image-keyboard-response","120","110009","0.0-120.0","3E13VNJ1NOHMSBJ9YOXO918HUHUI1F","A1T4GVQH4P0BO","3RBI0I35XEP26UEZY8S8UZLEA1IY3E","","517.7999999970198","img/food3.png","74","519.5999999940395","1","1","3","1","1,0.5,0,1,0.5,0,0.5,0,1","0,1,0.5,0,1,0.5,1,0.5,0","3","",""
"","html-keyboard-response","121","110311","0.0-121.0","3E13VNJ1NOHMSBJ9YOXO918HUHUI1F","A1T4GVQH4P0BO","3RBI0I35XEP26UEZY8S8UZLEA1IY3E","","null","<img src=""img/food3.png"" style=""width:200px; border:14px solid green;"">","null","","","","","","","","","",""
"","image-keyboard-response","122","111430","0.0-122.0","3E13VNJ1NOHMSBJ9YOXO918HUHUI1F","A1T4GVQH4P0BO","3RBI0I35XEP26UEZY8S8UZLEA1IY3E","","1118.2999999970198","img/food6.png","76","1119.7000000029802","3","0","2","1","1,0.5,0,1,0.5,0,0.5,0,1","0,1,0.5,0,1,0.5,1,0.5,0","3","",""
"","html-keyboard-response","123","111748","0.0-123.0","3E13VNJ1NOHMSBJ9YOXO918HUHUI1F","A1T4GVQH4P0BO","3RBI0I35XEP26UEZY8S8UZLEA1IY3E","","null","<img src=""img/food6.png"" style=""width:200px;border:14px solid red;"">","null","","","","","","","","","",""
"","image-keyboard-response","124","112733","0.0-124.0","3E13VNJ1NOHMSBJ9YOXO918HUHUI1F","A1T4GVQH4P0BO","3RBI0I35XEP26UEZY8S8UZLEA1IY3E","","982.2000000029802","img/food4.png","75","984.2999999970198","2","1","1","1","1,0.5,0,1,0.5,0,0.5,0,1","0,1,0.5,0,1,0.5,1,0.5,0","3","",""
"","html-keyboard-response","125","113038","0.0-125.0","3E13VNJ1NOHMSBJ9YOXO918HUHUI1F","A1T4GVQH4P0BO","3RBI0I35XEP26UEZY8S8UZLEA1IY3E","","null","<img src=""img/food4.png"" style=""width:200px; border:14px solid green;"">","null","","","","","","","","","",""
"","image-keyboard-response","126","113375","0.0-126.0","3E13VNJ1NOHMSBJ9YOXO918HUHUI1F","A1T4GVQH4P0BO","3RBI0I35XEP26UEZY8S8UZLEA1IY3E","","334.70000000298023","img/food4.png","75","336.5","2","1","1","1","1,0.5,0,1,0.5,0,0.5,0,1","0,1,0.5,0,1,0.5,1,0.5,0","3","",""
"","html-keyboard-response","127","113686","0.0-127.0","3E13VNJ1NOHMSBJ9YOXO918HUHUI1F","A1T4GVQH4P0BO","3RBI0I35XEP26UEZY8S8UZLEA1IY3E","","null","<img src=""img/food4.png"" style=""width:200px; border:14px solid green;"">","null","","","","","","","","","",""
"","image-keyboard-response","128","114297","0.0-128.0","3E13VNJ1NOHMSBJ9YOXO918HUHUI1F","A1T4GVQH4P0BO","3RBI0I35XEP26UEZY8S8UZLEA1IY3E","","609.5","img/food3.png","74","610.6999999880791","1","1","3","1","1,0.5,0,1,0.5,0,0.5,0,1","0,1,0.5,0,1,0.5,1,0.5,0","3","",""
"","html-keyboard-response","129","114600","0.0-129.0","3E13VNJ1NOHMSBJ9YOXO918HUHUI1F","A1T4GVQH4P0BO","3RBI0I35XEP26UEZY8S8UZLEA1IY3E","","null","<img src=""img/food3.png"" style=""width:200px; border:14px solid green;"">","null","","","","","","","","","",""
"","image-keyboard-response","130","115475","0.0-130.0","3E13VNJ1NOHMSBJ9YOXO918HUHUI1F","A1T4GVQH4P0BO","3RBI0I35XEP26UEZY8S8UZLEA1IY3E","","872.1000000089407","img/food6.png","76","874.2000000029802","3","0","2","1","1,0.5,0,1,0.5,0,0.5,0,1","0,1,0.5,0,1,0.5,1,0.5,0","3","",""
"","html-keyboard-response","131","115780","0.0-131.0","3E13VNJ1NOHMSBJ9YOXO918HUHUI1F","A1T4GVQH4P0BO","3RBI0I35XEP26UEZY8S8UZLEA1IY3E","","null","<img src=""img/food6.png"" style=""width:200px;border:14px solid red;"">","null","","","","","","","","","",""
"","image-keyboard-response","132","116423","0.0-132.0","3E13VNJ1NOHMSBJ9YOXO918HUHUI1F","A1T4GVQH4P0BO","3RBI0I35XEP26UEZY8S8UZLEA1IY3E","","639.7999999970198","img/food6.png","76","641.8999999910593","3","1","2","1","1,0.5,0,1,0.5,0,0.5,0,1","0,1,0.5,0,1,0.5,1,0.5,0","3","",""
"","html-keyboard-response","133","116732","0.0-133.0","3E13VNJ1NOHMSBJ9YOXO918HUHUI1F","A1T4GVQH4P0BO","3RBI0I35XEP26UEZY8S8UZLEA1IY3E","","null","<img src=""img/food6.png"" style=""width:200px; border:14px solid green;"">","null","","","","","","","","","",""
"","image-keyboard-response","134","118141","0.0-134.0","3E13VNJ1NOHMSBJ9YOXO918HUHUI1F","A1T4GVQH4P0BO","3RBI0I35XEP26UEZY8S8UZLEA1IY3E","","1406","img/food3.png","74","1408.0999999940395","1","1","3","1","1,0.5,0,1,0.5,0,0.5,0,1","0,1,0.5,0,1,0.5,1,0.5,0","3","",""
"","html-keyboard-response","135","118453","0.0-135.0","3E13VNJ1NOHMSBJ9YOXO918HUHUI1F","A1T4GVQH4P0BO","3RBI0I35XEP26UEZY8S8UZLEA1IY3E","","null","<img src=""img/food3.png"" style=""width:200px; border:14px solid green;"">","null","","","","","","","","","",""
"","image-keyboard-response","136","119354","0.0-136.0","3E13VNJ1NOHMSBJ9YOXO918HUHUI1F","A1T4GVQH4P0BO","3RBI0I35XEP26UEZY8S8UZLEA1IY3E","","899.2999999970198","img/food6.png","76","901","3","1","2","1","1,0.5,0,1,0.5,0,0.5,0,1","0,1,0.5,0,1,0.5,1,0.5,0","3","",""
"","html-keyboard-response","137","119666","0.0-137.0","3E13VNJ1NOHMSBJ9YOXO918HUHUI1F","A1T4GVQH4P0BO","3RBI0I35XEP26UEZY8S8UZLEA1IY3E","","null","<img src=""img/food6.png"" style=""width:200px; border:14px solid green;"">","null","","","","","","","","","",""
"","image-keyboard-response","138","120511","0.0-138.0","3E13VNJ1NOHMSBJ9YOXO918HUHUI1F","A1T4GVQH4P0BO","3RBI0I35XEP26UEZY8S8UZLEA1IY3E","","842.1000000089407","img/food3.png","74","844.2999999970198","1","1","3","1","1,0.5,0,1,0.5,0,0.5,0,1","0,1,0.5,0,1,0.5,1,0.5,0","3","",""
"","html-keyboard-response","139","120820","0.0-139.0","3E13VNJ1NOHMSBJ9YOXO918HUHUI1F","A1T4GVQH4P0BO","3RBI0I35XEP26UEZY8S8UZLEA1IY3E","","null","<img src=""img/food3.png"" style=""width:200px; border:14px solid green;"">","null","","","","","","","","","",""
"","image-keyboard-response","140","121353","0.0-140.0","3E13VNJ1NOHMSBJ9YOXO918HUHUI1F","A1T4GVQH4P0BO","3RBI0I35XEP26UEZY8S8UZLEA1IY3E","","530.2999999970198","img/food3.png","74","532.4000000059605","1","1","3","1","1,0.5,0,1,0.5,0,0.5,0,1","0,1,0.5,0,1,0.5,1,0.5,0","3","",""
"","html-keyboard-response","141","121665","0.0-141.0","3E13VNJ1NOHMSBJ9YOXO918HUHUI1F","A1T4GVQH4P0BO","3RBI0I35XEP26UEZY8S8UZLEA1IY3E","","null","<img src=""img/food3.png"" style=""width:200px; border:14px solid green;"">","null","","","","","","","","","",""
"","image-keyboard-response","142","122308","0.0-142.0","3E13VNJ1NOHMSBJ9YOXO918HUHUI1F","A1T4GVQH4P0BO","3RBI0I35XEP26UEZY8S8UZLEA1IY3E","","641.6999999880791","img/food4.png","75","643.2000000029802","2","1","1","1","1,0.5,0,1,0.5,0,0.5,0,1","0,1,0.5,0,1,0.5,1,0.5,0","3","",""
"","html-keyboard-response","143","122617","0.0-143.0","3E13VNJ1NOHMSBJ9YOXO918HUHUI1F","A1T4GVQH4P0BO","3RBI0I35XEP26UEZY8S8UZLEA1IY3E","","null","<img src=""img/food4.png"" style=""width:200px; border:14px solid green;"">","null","","","","","","","","","",""
"","image-keyboard-response","144","123531","0.0-144.0","3E13VNJ1NOHMSBJ9YOXO918HUHUI1F","A1T4GVQH4P0BO","3RBI0I35XEP26UEZY8S8UZLEA1IY3E","","911.5","img/food3.png","74","913.2000000029802","1","1","3","1","1,0.5,0,1,0.5,0,0.5,0,1","0,1,0.5,0,1,0.5,1,0.5,0","3","",""
"","html-keyboard-response","145","123838","0.0-145.0","3E13VNJ1NOHMSBJ9YOXO918HUHUI1F","A1T4GVQH4P0BO","3RBI0I35XEP26UEZY8S8UZLEA1IY3E","","null","<img src=""img/food3.png"" style=""width:200px; border:14px solid green;"">","null","","","","","","","","","",""
"","image-keyboard-response","146","124339","0.0-146.0","3E13VNJ1NOHMSBJ9YOXO918HUHUI1F","A1T4GVQH4P0BO","3RBI0I35XEP26UEZY8S8UZLEA1IY3E","","498","img/food3.png","74","499.8999999910593","1","1","3","1","1,0.5,0,1,0.5,0,0.5,0,1","0,1,0.5,0,1,0.5,1,0.5,0","3","",""
"","html-keyboard-response","147","124652","0.0-147.0","3E13VNJ1NOHMSBJ9YOXO918HUHUI1F","A1T4GVQH4P0BO","3RBI0I35XEP26UEZY8S8UZLEA1IY3E","","null","<img src=""img/food3.png"" style=""width:200px; border:14px solid green;"">","null","","","","","","","","","",""
"","image-keyboard-response","148","125001","0.0-148.0","3E13VNJ1NOHMSBJ9YOXO918HUHUI1F","A1T4GVQH4P0BO","3RBI0I35XEP26UEZY8S8UZLEA1IY3E","","346.59999999403954","img/food3.png","74","348.69999998807907","1","1","3","1","1,0.5,0,1,0.5,0,0.5,0,1","0,1,0.5,0,1,0.5,1,0.5,0","3","",""
"","html-keyboard-response","149","125313","0.0-149.0","3E13VNJ1NOHMSBJ9YOXO918HUHUI1F","A1T4GVQH4P0BO","3RBI0I35XEP26UEZY8S8UZLEA1IY3E","","null","<img src=""img/food3.png"" style=""width:200px; border:14px solid green;"">","null","","","","","","","","","",""
"","image-keyboard-response","150","125934","0.0-150.0","3E13VNJ1NOHMSBJ9YOXO918HUHUI1F","A1T4GVQH4P0BO","3RBI0I35XEP26UEZY8S8UZLEA1IY3E","","619.2999999970198","img/food4.png","75","621.5","2","1","1","1","1,0.5,0,1,0.5,0,0.5,0,1","0,1,0.5,0,1,0.5,1,0.5,0","3","",""
"","html-keyboard-response","151","126240","0.0-151.0","3E13VNJ1NOHMSBJ9YOXO918HUHUI1F","A1T4GVQH4P0BO","3RBI0I35XEP26UEZY8S8UZLEA1IY3E","","null","<img src=""img/food4.png"" style=""width:200px; border:14px solid green;"">","null","","","","","","","","","",""
"","image-keyboard-response","152","127049","0.0-152.0","3E13VNJ1NOHMSBJ9YOXO918HUHUI1F","A1T4GVQH4P0BO","3RBI0I35XEP26UEZY8S8UZLEA1IY3E","","808.2000000029802","img/food4.png","75","809.5","2","1","1","1","1,0.5,0,1,0.5,0,0.5,0,1","0,1,0.5,0,1,0.5,1,0.5,0","3","",""
"","html-keyboard-response","153","127355","0.0-153.0","3E13VNJ1NOHMSBJ9YOXO918HUHUI1F","A1T4GVQH4P0BO","3RBI0I35XEP26UEZY8S8UZLEA1IY3E","","null","<img src=""img/food4.png"" style=""width:200px; border:14px solid green;"">","null","","","","","","","","","",""
"","image-keyboard-response","154","127963","0.0-154.0","3E13VNJ1NOHMSBJ9YOXO918HUHUI1F","A1T4GVQH4P0BO","3RBI0I35XEP26UEZY8S8UZLEA1IY3E","","604.6999999880791","img/food3.png","74","606.7000000029802","1","1","3","1","1,0.5,0,1,0.5,0,0.5,0,1","0,1,0.5,0,1,0.5,1,0.5,0","3","",""
"","html-keyboard-response","155","128269","0.0-155.0","3E13VNJ1NOHMSBJ9YOXO918HUHUI1F","A1T4GVQH4P0BO","3RBI0I35XEP26UEZY8S8UZLEA1IY3E","","null","<img src=""img/food3.png"" style=""width:200px; border:14px solid green;"">","null","","","","","","","","","",""
"","image-keyboard-response","156","129199","0.0-156.0","3E13VNJ1NOHMSBJ9YOXO918HUHUI1F","A1T4GVQH4P0BO","3RBI0I35XEP26UEZY8S8UZLEA1IY3E","","928.0999999940395","img/food6.png","76","929","3","1","2","1","1,0.5,0,1,0.5,0,0.5,0,1","0,1,0.5,0,1,0.5,1,0.5,0","3","",""
"","html-keyboard-response","157","129513","0.0-157.0","3E13VNJ1NOHMSBJ9YOXO918HUHUI1F","A1T4GVQH4P0BO","3RBI0I35XEP26UEZY8S8UZLEA1IY3E","","null","<img src=""img/food6.png"" style=""width:200px; border:14px solid green;"">","null","","","","","","","","","",""
"","image-keyboard-response","158","131928","0.0-158.0","3E13VNJ1NOHMSBJ9YOXO918HUHUI1F","A1T4GVQH4P0BO","3RBI0I35XEP26UEZY8S8UZLEA1IY3E","","2412.699999988079","img/food3.png","74","2414.8999999910593","1","1","3","1","1,0.5,0,1,0.5,0,0.5,0,1","0,1,0.5,0,1,0.5,1,0.5,0","3","",""
"","html-keyboard-response","159","132232","0.0-159.0","3E13VNJ1NOHMSBJ9YOXO918HUHUI1F","A1T4GVQH4P0BO","3RBI0I35XEP26UEZY8S8UZLEA1IY3E","","null","<img src=""img/food3.png"" style=""width:200px; border:14px solid green;"">","null","","","","","","","","","",""
"","image-keyboard-response","160","132829","0.0-160.0","3E13VNJ1NOHMSBJ9YOXO918HUHUI1F","A1T4GVQH4P0BO","3RBI0I35XEP26UEZY8S8UZLEA1IY3E","","593.9000000059605","img/food4.png","75","596","2","1","1","1","1,0.5,0,1,0.5,0,0.5,0,1","0,1,0.5,0,1,0.5,1,0.5,0","3","",""
"","html-keyboard-response","161","133142","0.0-161.0","3E13VNJ1NOHMSBJ9YOXO918HUHUI1F","A1T4GVQH4P0BO","3RBI0I35XEP26UEZY8S8UZLEA1IY3E","","null","<img src=""img/food4.png"" style=""width:200px; border:14px solid green;"">","null","","","","","","","","","",""
"","image-keyboard-response","162","133544","0.0-162.0","3E13VNJ1NOHMSBJ9YOXO918HUHUI1F","A1T4GVQH4P0BO","3RBI0I35XEP26UEZY8S8UZLEA1IY3E","","399.5","img/food4.png","75","401.20000000298023","2","1","1","1","1,0.5,0,1,0.5,0,0.5,0,1","0,1,0.5,0,1,0.5,1,0.5,0","3","",""
"","html-keyboard-response","163","133854","0.0-163.0","3E13VNJ1NOHMSBJ9YOXO918HUHUI1F","A1T4GVQH4P0BO","3RBI0I35XEP26UEZY8S8UZLEA1IY3E","","null","<img src=""img/food4.png"" style=""width:200px; border:14px solid green;"">","null","","","","","","","","","",""
"","image-keyboard-response","164","134157","0.0-164.0","3E13VNJ1NOHMSBJ9YOXO918HUHUI1F","A1T4GVQH4P0BO","3RBI0I35XEP26UEZY8S8UZLEA1IY3E","","300.5","img/food4.png","75","302.6000000089407","2","1","1","1","1,0.5,0,1,0.5,0,0.5,0,1","0,1,0.5,0,1,0.5,1,0.5,0","3","",""
"","html-keyboard-response","165","134470","0.0-165.0","3E13VNJ1NOHMSBJ9YOXO918HUHUI1F","A1T4GVQH4P0BO","3RBI0I35XEP26UEZY8S8UZLEA1IY3E","","null","<img src=""img/food4.png"" style=""width:200px; border:14px solid green;"">","null","","","","","","","","","",""
"","image-keyboard-response","166","135160","0.0-166.0","3E13VNJ1NOHMSBJ9YOXO918HUHUI1F","A1T4GVQH4P0BO","3RBI0I35XEP26UEZY8S8UZLEA1IY3E","","687","img/food6.png","76","689.1000000089407","3","1","2","1","1,0.5,0,1,0.5,0,0.5,0,1","0,1,0.5,0,1,0.5,1,0.5,0","3","",""
"","html-keyboard-response","167","135466","0.0-167.0","3E13VNJ1NOHMSBJ9YOXO918HUHUI1F","A1T4GVQH4P0BO","3RBI0I35XEP26UEZY8S8UZLEA1IY3E","","null","<img src=""img/food6.png"" style=""width:200px; border:14px solid green;"">","null","","","","","","","","","",""
"","image-keyboard-response","168","136648","0.0-168.0","3E13VNJ1NOHMSBJ9YOXO918HUHUI1F","A1T4GVQH4P0BO","3RBI0I35XEP26UEZY8S8UZLEA1IY3E","","1178.800000011921","img/food4.png","75","1181","2","1","1","1","1,0.5,0,1,0.5,0,0.5,0,1","0,1,0.5,0,1,0.5,1,0.5,0","3","",""
"","html-keyboard-response","169","136963","0.0-169.0","3E13VNJ1NOHMSBJ9YOXO918HUHUI1F","A1T4GVQH4P0BO","3RBI0I35XEP26UEZY8S8UZLEA1IY3E","","null","<img src=""img/food4.png"" style=""width:200px; border:14px solid green;"">","null","","","","","","","","","",""
"","image-keyboard-response","170","137761","0.0-170.0","3E13VNJ1NOHMSBJ9YOXO918HUHUI1F","A1T4GVQH4P0BO","3RBI0I35XEP26UEZY8S8UZLEA1IY3E","","795.4000000059605","img/food3.png","74","797.5","1","1","3","1","1,0.5,0,1,0.5,0,0.5,0,1","0,1,0.5,0,1,0.5,1,0.5,0","3","",""
"","html-keyboard-response","171","138071","0.0-171.0","3E13VNJ1NOHMSBJ9YOXO918HUHUI1F","A1T4GVQH4P0BO","3RBI0I35XEP26UEZY8S8UZLEA1IY3E","","null","<img src=""img/food3.png"" style=""width:200px; border:14px solid green;"">","null","","","","","","","","","",""
"","image-keyboard-response","172","139024","0.0-172.0","3E13VNJ1NOHMSBJ9YOXO918HUHUI1F","A1T4GVQH4P0BO","3RBI0I35XEP26UEZY8S8UZLEA1IY3E","","950.3000000119209","img/food6.png","76","952.4000000059605","3","0","2","1","1,0.5,0,1,0.5,0,0.5,0,1","0,1,0.5,0,1,0.5,1,0.5,0","3","",""
"","html-keyboard-response","173","139338","0.0-173.0","3E13VNJ1NOHMSBJ9YOXO918HUHUI1F","A1T4GVQH4P0BO","3RBI0I35XEP26UEZY8S8UZLEA1IY3E","","null","<img src=""img/food6.png"" style=""width:200px;border:14px solid red;"">","null","","","","","","","","","",""
"","image-keyboard-response","174","141179","0.0-174.0","3E13VNJ1NOHMSBJ9YOXO918HUHUI1F","A1T4GVQH4P0BO","3RBI0I35XEP26UEZY8S8UZLEA1IY3E","","1839","img/food4.png","75","1841.2000000029802","2","1","1","1","1,0.5,0,1,0.5,0,0.5,0,1","0,1,0.5,0,1,0.5,1,0.5,0","3","",""
"","html-keyboard-response","175","141487","0.0-175.0","3E13VNJ1NOHMSBJ9YOXO918HUHUI1F","A1T4GVQH4P0BO","3RBI0I35XEP26UEZY8S8UZLEA1IY3E","","null","<img src=""img/food4.png"" style=""width:200px; border:14px solid green;"">","null","","","","","","","","","",""
"","image-keyboard-response","176","142637","0.0-176.0","3E13VNJ1NOHMSBJ9YOXO918HUHUI1F","A1T4GVQH4P0BO","3RBI0I35XEP26UEZY8S8UZLEA1IY3E","","1147","img/food3.png","74","1149","1","1","3","1","1,0.5,0,1,0.5,0,0.5,0,1","0,1,0.5,0,1,0.5,1,0.5,0","3","",""
"","html-keyboard-response","177","142943","0.0-177.0","3E13VNJ1NOHMSBJ9YOXO918HUHUI1F","A1T4GVQH4P0BO","3RBI0I35XEP26UEZY8S8UZLEA1IY3E","","null","<img src=""img/food3.png"" style=""width:200px; border:14px solid green;"">","null","","","","","","","","","",""
"","image-keyboard-response","178","143697","0.0-178.0","3E13VNJ1NOHMSBJ9YOXO918HUHUI1F","A1T4GVQH4P0BO","3RBI0I35XEP26UEZY8S8UZLEA1IY3E","","751.9000000059605","img/food4.png","75","753.8000000119209","2","1","1","1","1,0.5,0,1,0.5,0,0.5,0,1","0,1,0.5,0,1,0.5,1,0.5,0","3","",""
"","html-keyboard-response","179","144015","0.0-179.0","3E13VNJ1NOHMSBJ9YOXO918HUHUI1F","A1T4GVQH4P0BO","3RBI0I35XEP26UEZY8S8UZLEA1IY3E","","null","<img src=""img/food4.png"" style=""width:200px; border:14px solid green;"">","null","","","","","","","","","",""
"","image-keyboard-response","180","144406","0.0-180.0","3E13VNJ1NOHMSBJ9YOXO918HUHUI1F","A1T4GVQH4P0BO","3RBI0I35XEP26UEZY8S8UZLEA1IY3E","","388.29999999701977","img/food4.png","75","390.40000000596046","2","1","1","1","1,0.5,0,1,0.5,0,0.5,0,1","0,1,0.5,0,1,0.5,1,0.5,0","3","",""
"","html-keyboard-response","181","144720","0.0-181.0","3E13VNJ1NOHMSBJ9YOXO918HUHUI1F","A1T4GVQH4P0BO","3RBI0I35XEP26UEZY8S8UZLEA1IY3E","","null","<img src=""img/food4.png"" style=""width:200px; border:14px solid green;"">","null","","","","","","","","","",""
"","html-keyboard-response","182","146421","0.0-182.0","3E13VNJ1NOHMSBJ9YOXO918HUHUI1F","A1T4GVQH4P0BO","3RBI0I35XEP26UEZY8S8UZLEA1IY3E","","","","","","","","","","","","","",""
"","instructions","183","152994","0.0-183.0","3E13VNJ1NOHMSBJ9YOXO918HUHUI1F","A1T4GVQH4P0BO","3RBI0I35XEP26UEZY8S8UZLEA1IY3E","[{""page_index"":0,""viewing_time"":5346.70000000298},{""page_index"":1,""viewing_time"":1223.5}]","6571","","","","","","","","","","","",""
"","image-keyboard-response","184","154001","0.0-184.0","3E13VNJ1NOHMSBJ9YOXO918HUHUI1F","A1T4GVQH4P0BO","3RBI0I35XEP26UEZY8S8UZLEA1IY3E","","","img/food5.png","","1007.0999999940395","-1","0","2","2","1,0.5,0,1,0.5,0,0.5,0,1","1,0.5,0,1,0.5,0,0.5,0,1","1","true",""
"","html-keyboard-response","185","154312","0.0-185.0","3E13VNJ1NOHMSBJ9YOXO918HUHUI1F","A1T4GVQH4P0BO","3RBI0I35XEP26UEZY8S8UZLEA1IY3E","","null","<img src=""img/food5.png"" style=""width:200px;border:14px solid red;"">","null","","","","","","","","","",""
"","html-keyboard-response","186","158454","0.0-186.0-0.0","3E13VNJ1NOHMSBJ9YOXO918HUHUI1F","A1T4GVQH4P0BO","3RBI0I35XEP26UEZY8S8UZLEA1IY3E","","","","","","","","","","","","","",""
"","image-keyboard-response","187","158722","0.0-187.0","3E13VNJ1NOHMSBJ9YOXO918HUHUI1F","A1T4GVQH4P0BO","3RBI0I35XEP26UEZY8S8UZLEA1IY3E","","266.69999998807907","img/food1.png","75","267.8999999910593","2","0","3","2","1,0.5,0,1,0.5,0,0.5,0,1","1,0.5,0,1,0.5,0,0.5,0,1","1","false",""
"","html-keyboard-response","188","159028","0.0-188.0","3E13VNJ1NOHMSBJ9YOXO918HUHUI1F","A1T4GVQH4P0BO","3RBI0I35XEP26UEZY8S8UZLEA1IY3E","","null","<img src=""img/food1.png"" style=""width:200px;border:14px solid red;"">","null","","","","","","","","","",""
"","image-keyboard-response","189","159435","0.0-190.0","3E13VNJ1NOHMSBJ9YOXO918HUHUI1F","A1T4GVQH4P0BO","3RBI0I35XEP26UEZY8S8UZLEA1IY3E","","405.90000000596046","img/food2.png","74","407.29999999701977","1","1","1","2","1,0.5,0,1,0.5,0,0.5,0,1","1,0.5,0,1,0.5,0,0.5,0,1","1","false",""
"","html-keyboard-response","190","159756","0.0-191.0","3E13VNJ1NOHMSBJ9YOXO918HUHUI1F","A1T4GVQH4P0BO","3RBI0I35XEP26UEZY8S8UZLEA1IY3E","","null","<img src=""img/food2.png"" style=""width:200px; border:14px solid green;"">","null","","","","","","","","","",""
"","image-keyboard-response","191","160207","0.0-193.0","3E13VNJ1NOHMSBJ9YOXO918HUHUI1F","A1T4GVQH4P0BO","3RBI0I35XEP26UEZY8S8UZLEA1IY3E","","447.8999999910593","img/food2.png","75","450","2","1","1","2","1,0.5,0,1,0.5,0,0.5,0,1","1,0.5,0,1,0.5,0,0.5,0,1","1","false",""
"","html-keyboard-response","192","160522","0.0-194.0","3E13VNJ1NOHMSBJ9YOXO918HUHUI1F","A1T4GVQH4P0BO","3RBI0I35XEP26UEZY8S8UZLEA1IY3E","","null","<img src=""img/food2.png"" style=""width:200px; border:14px solid green;"">","null","","","","","","","","","",""
"","image-keyboard-response","193","160867","0.0-196.0","3E13VNJ1NOHMSBJ9YOXO918HUHUI1F","A1T4GVQH4P0BO","3RBI0I35XEP26UEZY8S8UZLEA1IY3E","","341.70000000298023","img/food2.png","74","343.59999999403954","1","1","1","2","1,0.5,0,1,0.5,0,0.5,0,1","1,0.5,0,1,0.5,0,0.5,0,1","1","false",""
"","html-keyboard-response","194","161179","0.0-197.0","3E13VNJ1NOHMSBJ9YOXO918HUHUI1F","A1T4GVQH4P0BO","3RBI0I35XEP26UEZY8S8UZLEA1IY3E","","null","<img src=""img/food2.png"" style=""width:200px; border:14px solid green;"">","null","","","","","","","","","",""
"","image-keyboard-response","195","161461","0.0-199.0","3E13VNJ1NOHMSBJ9YOXO918HUHUI1F","A1T4GVQH4P0BO","3RBI0I35XEP26UEZY8S8UZLEA1IY3E","","279.59999999403954","img/food5.png","74","281.5","1","1","2","2","1,0.5,0,1,0.5,0,0.5,0,1","1,0.5,0,1,0.5,0,0.5,0,1","1","false",""
"","html-keyboard-response","196","161778","0.0-200.0","3E13VNJ1NOHMSBJ9YOXO918HUHUI1F","A1T4GVQH4P0BO","3RBI0I35XEP26UEZY8S8UZLEA1IY3E","","null","<img src=""img/food5.png"" style=""width:200px; border:14px solid green;"">","null","","","","","","","","","",""
"","image-keyboard-response","197","162167","0.0-202.0","3E13VNJ1NOHMSBJ9YOXO918HUHUI1F","A1T4GVQH4P0BO","3RBI0I35XEP26UEZY8S8UZLEA1IY3E","","385.3999999910593","img/food2.png","75","387.59999999403954","2","1","1","2","1,0.5,0,1,0.5,0,0.5,0,1","1,0.5,0,1,0.5,0,0.5,0,1","1","false",""
"","html-keyboard-response","198","162472","0.0-203.0","3E13VNJ1NOHMSBJ9YOXO918HUHUI1F","A1T4GVQH4P0BO","3RBI0I35XEP26UEZY8S8UZLEA1IY3E","","null","<img src=""img/food2.png"" style=""width:200px; border:14px solid green;"">","null","","","","","","","","","",""
"","image-keyboard-response","199","162721","0.0-205.0","3E13VNJ1NOHMSBJ9YOXO918HUHUI1F","A1T4GVQH4P0BO","3RBI0I35XEP26UEZY8S8UZLEA1IY3E","","246.20000000298023","img/food2.png","76","248","3","0","1","2","1,0.5,0,1,0.5,0,0.5,0,1","1,0.5,0,1,0.5,0,0.5,0,1","1","false",""
"","html-keyboard-response","200","163025","0.0-206.0","3E13VNJ1NOHMSBJ9YOXO918HUHUI1F","A1T4GVQH4P0BO","3RBI0I35XEP26UEZY8S8UZLEA1IY3E","","null","<img src=""img/food2.png"" style=""width:200px;border:14px solid red;"">","null","","","","","","","","","",""
"","image-keyboard-response","201","163244","0.0-208.0","3E13VNJ1NOHMSBJ9YOXO918HUHUI1F","A1T4GVQH4P0BO","3RBI0I35XEP26UEZY8S8UZLEA1IY3E","","215.8999999910593","img/food1.png","75","218","2","0","3","2","1,0.5,0,1,0.5,0,0.5,0,1","1,0.5,0,1,0.5,0,0.5,0,1","1","false",""
"","html-keyboard-response","202","163559","0.0-209.0","3E13VNJ1NOHMSBJ9YOXO918HUHUI1F","A1T4GVQH4P0BO","3RBI0I35XEP26UEZY8S8UZLEA1IY3E","","null","<img src=""img/food1.png"" style=""width:200px;border:14px solid red;"">","null","","","","","","","","","",""
"","image-keyboard-response","203","163763","0.0-211.0","3E13VNJ1NOHMSBJ9YOXO918HUHUI1F","A1T4GVQH4P0BO","3RBI0I35XEP26UEZY8S8UZLEA1IY3E","","201.09999999403954","img/food5.png","75","202.90000000596046","2","1","2","2","1,0.5,0,1,0.5,0,0.5,0,1","1,0.5,0,1,0.5,0,0.5,0,1","1","false",""
"","html-keyboard-response","204","164070","0.0-212.0","3E13VNJ1NOHMSBJ9YOXO918HUHUI1F","A1T4GVQH4P0BO","3RBI0I35XEP26UEZY8S8UZLEA1IY3E","","null","<img src=""img/food5.png"" style=""width:200px; border:14px solid green;"">","null","","","","","","","","","",""
"","image-keyboard-response","205","164387","0.0-214.0","3E13VNJ1NOHMSBJ9YOXO918HUHUI1F","A1T4GVQH4P0BO","3RBI0I35XEP26UEZY8S8UZLEA1IY3E","","313.79999999701977","img/food1.png","75","316.09999999403954","2","0","3","2","1,0.5,0,1,0.5,0,0.5,0,1","1,0.5,0,1,0.5,0,0.5,0,1","1","false",""
"","html-keyboard-response","206","164698","0.0-215.0","3E13VNJ1NOHMSBJ9YOXO918HUHUI1F","A1T4GVQH4P0BO","3RBI0I35XEP26UEZY8S8UZLEA1IY3E","","null","<img src=""img/food1.png"" style=""width:200px;border:14px solid red;"">","null","","","","","","","","","",""
"","image-keyboard-response","207","164968","0.0-217.0","3E13VNJ1NOHMSBJ9YOXO918HUHUI1F","A1T4GVQH4P0BO","3RBI0I35XEP26UEZY8S8UZLEA1IY3E","","267.30000001192093","img/food1.png","75","269.40000000596046","2","0","3","2","1,0.5,0,1,0.5,0,0.5,0,1","1,0.5,0,1,0.5,0,0.5,0,1","1","false",""
"","html-keyboard-response","208","165279","0.0-218.0","3E13VNJ1NOHMSBJ9YOXO918HUHUI1F","A1T4GVQH4P0BO","3RBI0I35XEP26UEZY8S8UZLEA1IY3E","","null","<img src=""img/food1.png"" style=""width:200px;border:14px solid red;"">","null","","","","","","","","","",""
"","image-keyboard-response","209","165349","0.0-220.0","3E13VNJ1NOHMSBJ9YOXO918HUHUI1F","A1T4GVQH4P0BO","3RBI0I35XEP26UEZY8S8UZLEA1IY3E","","67.59999999403954","img/food1.png","74","69.6000000089407","1","1","3","2","1,0.5,0,1,0.5,0,0.5,0,1","1,0.5,0,1,0.5,0,0.5,0,1","1","false",""
"","html-keyboard-response","210","165665","0.0-221.0","3E13VNJ1NOHMSBJ9YOXO918HUHUI1F","A1T4GVQH4P0BO","3RBI0I35XEP26UEZY8S8UZLEA1IY3E","","null","<img src=""img/food1.png"" style=""width:200px; border:14px solid green;"">","null","","","","","","","","","",""
"","image-keyboard-response","211","166155","0.0-223.0","3E13VNJ1NOHMSBJ9YOXO918HUHUI1F","A1T4GVQH4P0BO","3RBI0I35XEP26UEZY8S8UZLEA1IY3E","","487.5","img/food2.png","75","489.5","2","1","1","2","1,0.5,0,1,0.5,0,0.5,0,1","1,0.5,0,1,0.5,0,0.5,0,1","1","false",""
"","html-keyboard-response","212","166474","0.0-224.0","3E13VNJ1NOHMSBJ9YOXO918HUHUI1F","A1T4GVQH4P0BO","3RBI0I35XEP26UEZY8S8UZLEA1IY3E","","null","<img src=""img/food2.png"" style=""width:200px; border:14px solid green;"">","null","","","","","","","","","",""
"","image-keyboard-response","213","166728","0.0-226.0","3E13VNJ1NOHMSBJ9YOXO918HUHUI1F","A1T4GVQH4P0BO","3RBI0I35XEP26UEZY8S8UZLEA1IY3E","","250.70000000298023","img/food1.png","74","252.8999999910593","1","1","3","2","1,0.5,0,1,0.5,0,0.5,0,1","1,0.5,0,1,0.5,0,0.5,0,1","1","false",""
"","html-keyboard-response","214","167035","0.0-227.0","3E13VNJ1NOHMSBJ9YOXO918HUHUI1F","A1T4GVQH4P0BO","3RBI0I35XEP26UEZY8S8UZLEA1IY3E","","null","<img src=""img/food1.png"" style=""width:200px; border:14px solid green;"">","null","","","","","","","","","",""
"","image-keyboard-response","215","167334","0.0-229.0","3E13VNJ1NOHMSBJ9YOXO918HUHUI1F","A1T4GVQH4P0BO","3RBI0I35XEP26UEZY8S8UZLEA1IY3E","","295.90000000596046","img/food1.png","75","298.09999999403954","2","0","3","2","1,0.5,0,1,0.5,0,0.5,0,1","1,0.5,0,1,0.5,0,0.5,0,1","1","false",""
"","html-keyboard-response","216","167640","0.0-230.0","3E13VNJ1NOHMSBJ9YOXO918HUHUI1F","A1T4GVQH4P0BO","3RBI0I35XEP26UEZY8S8UZLEA1IY3E","","null","<img src=""img/food1.png"" style=""width:200px;border:14px solid red;"">","null","","","","","","","","","",""
"","image-keyboard-response","217","167859","0.0-232.0","3E13VNJ1NOHMSBJ9YOXO918HUHUI1F","A1T4GVQH4P0BO","3RBI0I35XEP26UEZY8S8UZLEA1IY3E","","213","img/food2.png","74","215.30000001192093","1","1","1","2","1,0.5,0,1,0.5,0,0.5,0,1","1,0.5,0,1,0.5,0,0.5,0,1","1","false",""
"","html-keyboard-response","218","168178","0.0-233.0","3E13VNJ1NOHMSBJ9YOXO918HUHUI1F","A1T4GVQH4P0BO","3RBI0I35XEP26UEZY8S8UZLEA1IY3E","","null","<img src=""img/food2.png"" style=""width:200px; border:14px solid green;"">","null","","","","","","","","","",""
"","image-keyboard-response","219","168536","0.0-235.0","3E13VNJ1NOHMSBJ9YOXO918HUHUI1F","A1T4GVQH4P0BO","3RBI0I35XEP26UEZY8S8UZLEA1IY3E","","355.40000000596046","img/food2.png","75","357.79999999701977","2","0","1","2","1,0.5,0,1,0.5,0,0.5,0,1","1,0.5,0,1,0.5,0,0.5,0,1","1","false",""
"","html-keyboard-response","220","168850","0.0-236.0","3E13VNJ1NOHMSBJ9YOXO918HUHUI1F","A1T4GVQH4P0BO","3RBI0I35XEP26UEZY8S8UZLEA1IY3E","","null","<img src=""img/food2.png"" style=""width:200px;border:14px solid red;"">","null","","","","","","","","","",""
"","image-keyboard-response","221","169053","0.0-238.0","3E13VNJ1NOHMSBJ9YOXO918HUHUI1F","A1T4GVQH4P0BO","3RBI0I35XEP26UEZY8S8UZLEA1IY3E","","200.09999999403954","img/food5.png","76","202.5","3","0","2","2","1,0.5,0,1,0.5,0,0.5,0,1","1,0.5,0,1,0.5,0,0.5,0,1","1","false",""
"","html-keyboard-response","222","169359","0.0-239.0","3E13VNJ1NOHMSBJ9YOXO918HUHUI1F","A1T4GVQH4P0BO","3RBI0I35XEP26UEZY8S8UZLEA1IY3E","","null","<img src=""img/food5.png"" style=""width:200px;border:14px solid red;"">","null","","","","","","","","","",""
"","image-keyboard-response","223","169603","0.0-241.0","3E13VNJ1NOHMSBJ9YOXO918HUHUI1F","A1T4GVQH4P0BO","3RBI0I35XEP26UEZY8S8UZLEA1IY3E","","241.79999999701977","img/food5.png","75","244.09999999403954","2","0","2","2","1,0.5,0,1,0.5,0,0.5,0,1","1,0.5,0,1,0.5,0,0.5,0,1","1","false",""
"","html-keyboard-response","224","169915","0.0-242.0","3E13VNJ1NOHMSBJ9YOXO918HUHUI1F","A1T4GVQH4P0BO","3RBI0I35XEP26UEZY8S8UZLEA1IY3E","","null","<img src=""img/food5.png"" style=""width:200px;border:14px solid red;"">","null","","","","","","","","","",""
"","image-keyboard-response","225","170253","0.0-244.0","3E13VNJ1NOHMSBJ9YOXO918HUHUI1F","A1T4GVQH4P0BO","3RBI0I35XEP26UEZY8S8UZLEA1IY3E","","337.20000000298023","img/food1.png","75","338","2","0","3","2","1,0.5,0,1,0.5,0,0.5,0,1","1,0.5,0,1,0.5,0,0.5,0,1","1","false",""
"","html-keyboard-response","226","170568","0.0-245.0","3E13VNJ1NOHMSBJ9YOXO918HUHUI1F","A1T4GVQH4P0BO","3RBI0I35XEP26UEZY8S8UZLEA1IY3E","","null","<img src=""img/food1.png"" style=""width:200px;border:14px solid red;"">","null","","","","","","","","","",""
"","image-keyboard-response","227","170854","0.0-247.0","3E13VNJ1NOHMSBJ9YOXO918HUHUI1F","A1T4GVQH4P0BO","3RBI0I35XEP26UEZY8S8UZLEA1IY3E","","285.29999999701977","img/food2.png","74","286.1000000089407","1","1","1","2","1,0.5,0,1,0.5,0,0.5,0,1","1,0.5,0,1,0.5,0,0.5,0,1","1","false",""
"","html-keyboard-response","228","171161","0.0-248.0","3E13VNJ1NOHMSBJ9YOXO918HUHUI1F","A1T4GVQH4P0BO","3RBI0I35XEP26UEZY8S8UZLEA1IY3E","","null","<img src=""img/food2.png"" style=""width:200px; border:14px solid green;"">","null","","","","","","","","","",""
"","image-keyboard-response","229","171544","0.0-250.0","3E13VNJ1NOHMSBJ9YOXO918HUHUI1F","A1T4GVQH4P0BO","3RBI0I35XEP26UEZY8S8UZLEA1IY3E","","380.6000000089407","img/food1.png","75","382.6000000089407","2","0","3","2","1,0.5,0,1,0.5,0,0.5,0,1","1,0.5,0,1,0.5,0,0.5,0,1","1","false",""
"","html-keyboard-response","230","171850","0.0-251.0","3E13VNJ1NOHMSBJ9YOXO918HUHUI1F","A1T4GVQH4P0BO","3RBI0I35XEP26UEZY8S8UZLEA1IY3E","","null","<img src=""img/food1.png"" style=""width:200px;border:14px solid red;"">","null","","","","","","","","","",""
"","image-keyboard-response","231","171995","0.0-253.0","3E13VNJ1NOHMSBJ9YOXO918HUHUI1F","A1T4GVQH4P0BO","3RBI0I35XEP26UEZY8S8UZLEA1IY3E","","142.1000000089407","img/food2.png","74","144.29999999701977","1","1","1","2","1,0.5,0,1,0.5,0,0.5,0,1","1,0.5,0,1,0.5,0,0.5,0,1","1","false",""
"","html-keyboard-response","232","172306","0.0-254.0","3E13VNJ1NOHMSBJ9YOXO918HUHUI1F","A1T4GVQH4P0BO","3RBI0I35XEP26UEZY8S8UZLEA1IY3E","","null","<img src=""img/food2.png"" style=""width:200px; border:14px solid green;"">","null","","","","","","","","","",""
"","image-keyboard-response","233","172602","0.0-256.0","3E13VNJ1NOHMSBJ9YOXO918HUHUI1F","A1T4GVQH4P0BO","3RBI0I35XEP26UEZY8S8UZLEA1IY3E","","292.40000000596046","img/food2.png","75","294.5","2","0","1","2","1,0.5,0,1,0.5,0,0.5,0,1","1,0.5,0,1,0.5,0,0.5,0,1","1","false",""
"","html-keyboard-response","234","172912","0.0-257.0","3E13VNJ1NOHMSBJ9YOXO918HUHUI1F","A1T4GVQH4P0BO","3RBI0I35XEP26UEZY8S8UZLEA1IY3E","","null","<img src=""img/food2.png"" style=""width:200px;border:14px solid red;"">","null","","","","","","","","","",""
"","image-keyboard-response","235","173268","0.0-259.0","3E13VNJ1NOHMSBJ9YOXO918HUHUI1F","A1T4GVQH4P0BO","3RBI0I35XEP26UEZY8S8UZLEA1IY3E","","354.09999999403954","img/food2.png","74","356.1000000089407","1","1","1","2","1,0.5,0,1,0.5,0,0.5,0,1","1,0.5,0,1,0.5,0,0.5,0,1","1","false",""
"","html-keyboard-response","236","173578","0.0-260.0","3E13VNJ1NOHMSBJ9YOXO918HUHUI1F","A1T4GVQH4P0BO","3RBI0I35XEP26UEZY8S8UZLEA1IY3E","","null","<img src=""img/food2.png"" style=""width:200px; border:14px solid green;"">","null","","","","","","","","","",""
"","image-keyboard-response","237","174114","0.0-262.0","3E13VNJ1NOHMSBJ9YOXO918HUHUI1F","A1T4GVQH4P0BO","3RBI0I35XEP26UEZY8S8UZLEA1IY3E","","534.2000000029802","img/food5.png","75","535.7999999970198","2","0","2","2","1,0.5,0,1,0.5,0,0.5,0,1","1,0.5,0,1,0.5,0,0.5,0,1","1","false",""
"","html-keyboard-response","238","174432","0.0-263.0","3E13VNJ1NOHMSBJ9YOXO918HUHUI1F","A1T4GVQH4P0BO","3RBI0I35XEP26UEZY8S8UZLEA1IY3E","","null","<img src=""img/food5.png"" style=""width:200px;border:14px solid red;"">","null","","","","","","","","","",""
"","image-keyboard-response","239","174625","0.0-265.0","3E13VNJ1NOHMSBJ9YOXO918HUHUI1F","A1T4GVQH4P0BO","3RBI0I35XEP26UEZY8S8UZLEA1IY3E","","189.90000000596046","img/food2.png","74","192.09999999403954","1","1","1","2","1,0.5,0,1,0.5,0,0.5,0,1","1,0.5,0,1,0.5,0,0.5,0,1","1","false",""
"","html-keyboard-response","240","174929","0.0-266.0","3E13VNJ1NOHMSBJ9YOXO918HUHUI1F","A1T4GVQH4P0BO","3RBI0I35XEP26UEZY8S8UZLEA1IY3E","","null","<img src=""img/food2.png"" style=""width:200px; border:14px solid green;"">","null","","","","","","","","","",""
"","image-keyboard-response","241","175256","0.0-268.0","3E13VNJ1NOHMSBJ9YOXO918HUHUI1F","A1T4GVQH4P0BO","3RBI0I35XEP26UEZY8S8UZLEA1IY3E","","324.90000000596046","img/food5.png","75","327.1000000089407","2","0","2","2","1,0.5,0,1,0.5,0,0.5,0,1","1,0.5,0,1,0.5,0,0.5,0,1","1","false",""
"","html-keyboard-response","242","175570","0.0-269.0","3E13VNJ1NOHMSBJ9YOXO918HUHUI1F","A1T4GVQH4P0BO","3RBI0I35XEP26UEZY8S8UZLEA1IY3E","","null","<img src=""img/food5.png"" style=""width:200px;border:14px solid red;"">","null","","","","","","","","","",""
"","image-keyboard-response","243","175804","0.0-271.0","3E13VNJ1NOHMSBJ9YOXO918HUHUI1F","A1T4GVQH4P0BO","3RBI0I35XEP26UEZY8S8UZLEA1IY3E","","230.79999999701977","img/food5.png","74","232.8999999910593","1","1","2","2","1,0.5,0,1,0.5,0,0.5,0,1","1,0.5,0,1,0.5,0,0.5,0,1","1","false",""
"","html-keyboard-response","244","176118","0.0-272.0","3E13VNJ1NOHMSBJ9YOXO918HUHUI1F","A1T4GVQH4P0BO","3RBI0I35XEP26UEZY8S8UZLEA1IY3E","","null","<img src=""img/food5.png"" style=""width:200px; border:14px solid green;"">","null","","","","","","","","","",""
"","image-keyboard-response","245","176471","0.0-274.0","3E13VNJ1NOHMSBJ9YOXO918HUHUI1F","A1T4GVQH4P0BO","3RBI0I35XEP26UEZY8S8UZLEA1IY3E","","351.5","img/food5.png","74","352.8999999910593","1","1","2","2","1,0.5,0,1,0.5,0,0.5,0,1","1,0.5,0,1,0.5,0,0.5,0,1","1","false",""
"","html-keyboard-response","246","176779","0.0-275.0","3E13VNJ1NOHMSBJ9YOXO918HUHUI1F","A1T4GVQH4P0BO","3RBI0I35XEP26UEZY8S8UZLEA1IY3E","","null","<img src=""img/food5.png"" style=""width:200px; border:14px solid green;"">","null","","","","","","","","","",""
"","image-keyboard-response","247","177181","0.0-277.0","3E13VNJ1NOHMSBJ9YOXO918HUHUI1F","A1T4GVQH4P0BO","3RBI0I35XEP26UEZY8S8UZLEA1IY3E","","399","img/food5.png","74","401.1000000089407","1","1","2","2","1,0.5,0,1,0.5,0,0.5,0,1","1,0.5,0,1,0.5,0,0.5,0,1","1","false",""
"","html-keyboard-response","248","177496","0.0-278.0","3E13VNJ1NOHMSBJ9YOXO918HUHUI1F","A1T4GVQH4P0BO","3RBI0I35XEP26UEZY8S8UZLEA1IY3E","","null","<img src=""img/food5.png"" style=""width:200px; border:14px solid green;"">","null","","","","","","","","","",""
"","image-keyboard-response","249","177822","0.0-280.0","3E13VNJ1NOHMSBJ9YOXO918HUHUI1F","A1T4GVQH4P0BO","3RBI0I35XEP26UEZY8S8UZLEA1IY3E","","323.40000000596046","img/food5.png","75","325.5","2","1","2","2","1,0.5,0,1,0.5,0,0.5,0,1","1,0.5,0,1,0.5,0,0.5,0,1","1","false",""
"","html-keyboard-response","250","178130","0.0-281.0","3E13VNJ1NOHMSBJ9YOXO918HUHUI1F","A1T4GVQH4P0BO","3RBI0I35XEP26UEZY8S8UZLEA1IY3E","","null","<img src=""img/food5.png"" style=""width:200px; border:14px solid green;"">","null","","","","","","","","","",""
"","image-keyboard-response","251","178745","0.0-283.0","3E13VNJ1NOHMSBJ9YOXO918HUHUI1F","A1T4GVQH4P0BO","3RBI0I35XEP26UEZY8S8UZLEA1IY3E","","611.6000000089407","img/food1.png","75","613.7999999970198","2","0","3","2","1,0.5,0,1,0.5,0,0.5,0,1","1,0.5,0,1,0.5,0,0.5,0,1","1","false",""
"","html-keyboard-response","252","179055","0.0-284.0","3E13VNJ1NOHMSBJ9YOXO918HUHUI1F","A1T4GVQH4P0BO","3RBI0I35XEP26UEZY8S8UZLEA1IY3E","","null","<img src=""img/food1.png"" style=""width:200px;border:14px solid red;"">","null","","","","","","","","","",""
"","image-keyboard-response","253","179416","0.0-286.0","3E13VNJ1NOHMSBJ9YOXO918HUHUI1F","A1T4GVQH4P0BO","3RBI0I35XEP26UEZY8S8UZLEA1IY3E","","357.70000000298023","img/food5.png","74","359.90000000596046","1","1","2","2","1,0.5,0,1,0.5,0,0.5,0,1","1,0.5,0,1,0.5,0,0.5,0,1","1","false",""
"","html-keyboard-response","254","179725","0.0-287.0","3E13VNJ1NOHMSBJ9YOXO918HUHUI1F","A1T4GVQH4P0BO","3RBI0I35XEP26UEZY8S8UZLEA1IY3E","","null","<img src=""img/food5.png"" style=""width:200px; border:14px solid green;"">","null","","","","","","","","","",""
"","image-keyboard-response","255","180122","0.0-289.0","3E13VNJ1NOHMSBJ9YOXO918HUHUI1F","A1T4GVQH4P0BO","3RBI0I35XEP26UEZY8S8UZLEA1IY3E","","394.09999999403954","img/food1.png","75","396.29999999701977","2","0","3","2","1,0.5,0,1,0.5,0,0.5,0,1","1,0.5,0,1,0.5,0,0.5,0,1","1","false",""
"","html-keyboard-response","256","180428","0.0-290.0","3E13VNJ1NOHMSBJ9YOXO918HUHUI1F","A1T4GVQH4P0BO","3RBI0I35XEP26UEZY8S8UZLEA1IY3E","","null","<img src=""img/food1.png"" style=""width:200px;border:14px solid red;"">","null","","","","","","","","","",""
"","image-keyboard-response","257","180464","0.0-292.0","3E13VNJ1NOHMSBJ9YOXO918HUHUI1F","A1T4GVQH4P0BO","3RBI0I35XEP26UEZY8S8UZLEA1IY3E","","33.29999999701977","img/food5.png","74","35.29999999701977","1","1","2","2","1,0.5,0,1,0.5,0,0.5,0,1","1,0.5,0,1,0.5,0,0.5,0,1","1","false",""
"","html-keyboard-response","258","180775","0.0-293.0","3E13VNJ1NOHMSBJ9YOXO918HUHUI1F","A1T4GVQH4P0BO","3RBI0I35XEP26UEZY8S8UZLEA1IY3E","","null","<img src=""img/food5.png"" style=""width:200px; border:14px solid green;"">","null","","","","","","","","","",""
"","image-keyboard-response","259","181245","0.0-295.0","3E13VNJ1NOHMSBJ9YOXO918HUHUI1F","A1T4GVQH4P0BO","3RBI0I35XEP26UEZY8S8UZLEA1IY3E","","467","img/food1.png","76","469.19999998807907","3","1","3","2","1,0.5,0,1,0.5,0,0.5,0,1","1,0.5,0,1,0.5,0,0.5,0,1","1","false",""
"","html-keyboard-response","260","181550","0.0-296.0","3E13VNJ1NOHMSBJ9YOXO918HUHUI1F","A1T4GVQH4P0BO","3RBI0I35XEP26UEZY8S8UZLEA1IY3E","","null","<img src=""img/food1.png"" style=""width:200px; border:14px solid green;"">","null","","","","","","","","","",""
"","image-keyboard-response","261","182018","0.0-298.0","3E13VNJ1NOHMSBJ9YOXO918HUHUI1F","A1T4GVQH4P0BO","3RBI0I35XEP26UEZY8S8UZLEA1IY3E","","464.09999999403954","img/food1.png","74","466.59999999403954","1","0","3","2","1,0.5,0,1,0.5,0,0.5,0,1","1,0.5,0,1,0.5,0,0.5,0,1","1","false",""
"","html-keyboard-response","262","182326","0.0-299.0","3E13VNJ1NOHMSBJ9YOXO918HUHUI1F","A1T4GVQH4P0BO","3RBI0I35XEP26UEZY8S8UZLEA1IY3E","","null","<img src=""img/food1.png"" style=""width:200px;border:14px solid red;"">","null","","","","","","","","","",""
"","image-keyboard-response","263","182602","0.0-301.0","3E13VNJ1NOHMSBJ9YOXO918HUHUI1F","A1T4GVQH4P0BO","3RBI0I35XEP26UEZY8S8UZLEA1IY3E","","273.09999999403954","img/food2.png","75","274.90000000596046","2","0","1","2","1,0.5,0,1,0.5,0,0.5,0,1","1,0.5,0,1,0.5,0,0.5,0,1","1","false",""
"","html-keyboard-response","264","182919","0.0-302.0","3E13VNJ1NOHMSBJ9YOXO918HUHUI1F","A1T4GVQH4P0BO","3RBI0I35XEP26UEZY8S8UZLEA1IY3E","","null","<img src=""img/food2.png"" style=""width:200px;border:14px solid red;"">","null","","","","","","","","","",""
"","image-keyboard-response","265","183200","0.0-304.0","3E13VNJ1NOHMSBJ9YOXO918HUHUI1F","A1T4GVQH4P0BO","3RBI0I35XEP26UEZY8S8UZLEA1IY3E","","278.3999999910593","img/food2.png","74","280.59999999403954","1","1","1","2","1,0.5,0,1,0.5,0,0.5,0,1","1,0.5,0,1,0.5,0,0.5,0,1","1","false",""
"","html-keyboard-response","266","183509","0.0-305.0","3E13VNJ1NOHMSBJ9YOXO918HUHUI1F","A1T4GVQH4P0BO","3RBI0I35XEP26UEZY8S8UZLEA1IY3E","","null","<img src=""img/food2.png"" style=""width:200px; border:14px solid green;"">","null","","","","","","","","","",""
"","image-keyboard-response","267","184006","0.0-307.0","3E13VNJ1NOHMSBJ9YOXO918HUHUI1F","A1T4GVQH4P0BO","3RBI0I35XEP26UEZY8S8UZLEA1IY3E","","496.19999998807907","img/food5.png","75","497.59999999403954","2","0","2","2","1,0.5,0,1,0.5,0,0.5,0,1","1,0.5,0,1,0.5,0,0.5,0,1","1","false",""
"","html-keyboard-response","268","184322","0.0-308.0","3E13VNJ1NOHMSBJ9YOXO918HUHUI1F","A1T4GVQH4P0BO","3RBI0I35XEP26UEZY8S8UZLEA1IY3E","","null","<img src=""img/food5.png"" style=""width:200px;border:14px solid red;"">","null","","","","","","","","","",""
"","image-keyboard-response","269","184357","0.0-310.0","3E13VNJ1NOHMSBJ9YOXO918HUHUI1F","A1T4GVQH4P0BO","3RBI0I35XEP26UEZY8S8UZLEA1IY3E","","32.599999994039536","img/food1.png","74","34.400000005960464","1","0","3","2","1,0.5,0,1,0.5,0,0.5,0,1","1,0.5,0,1,0.5,0,0.5,0,1","1","false",""
"","html-keyboard-response","270","184673","0.0-311.0","3E13VNJ1NOHMSBJ9YOXO918HUHUI1F","A1T4GVQH4P0BO","3RBI0I35XEP26UEZY8S8UZLEA1IY3E","","null","<img src=""img/food1.png"" style=""width:200px;border:14px solid red;"">","null","","","","","","","","","",""
"","image-keyboard-response","271","184985","0.0-313.0","3E13VNJ1NOHMSBJ9YOXO918HUHUI1F","A1T4GVQH4P0BO","3RBI0I35XEP26UEZY8S8UZLEA1IY3E","","309.6000000089407","img/food2.png","75","311.29999999701977","2","1","1","2","1,0.5,0,1,0.5,0,0.5,0,1","1,0.5,0,1,0.5,0,0.5,0,1","1","false",""
"","html-keyboard-response","272","185301","0.0-314.0","3E13VNJ1NOHMSBJ9YOXO918HUHUI1F","A1T4GVQH4P0BO","3RBI0I35XEP26UEZY8S8UZLEA1IY3E","","null","<img src=""img/food2.png"" style=""width:200px; border:14px solid green;"">","null","","","","","","","","","",""
"","image-keyboard-response","273","185625","0.0-316.0","3E13VNJ1NOHMSBJ9YOXO918HUHUI1F","A1T4GVQH4P0BO","3RBI0I35XEP26UEZY8S8UZLEA1IY3E","","320.5","img/food2.png","76","322.70000000298023","3","0","1","2","1,0.5,0,1,0.5,0,0.5,0,1","1,0.5,0,1,0.5,0,0.5,0,1","1","false",""
"","html-keyboard-response","274","185929","0.0-317.0","3E13VNJ1NOHMSBJ9YOXO918HUHUI1F","A1T4GVQH4P0BO","3RBI0I35XEP26UEZY8S8UZLEA1IY3E","","null","<img src=""img/food2.png"" style=""width:200px;border:14px solid red;"">","null","","","","","","","","","",""
"","image-keyboard-response","275","186262","0.0-319.0","3E13VNJ1NOHMSBJ9YOXO918HUHUI1F","A1T4GVQH4P0BO","3RBI0I35XEP26UEZY8S8UZLEA1IY3E","","330.20000000298023","img/food5.png","75","332.5","2","1","2","2","1,0.5,0,1,0.5,0,0.5,0,1","1,0.5,0,1,0.5,0,0.5,0,1","1","false",""
"","html-keyboard-response","276","186576","0.0-320.0","3E13VNJ1NOHMSBJ9YOXO918HUHUI1F","A1T4GVQH4P0BO","3RBI0I35XEP26UEZY8S8UZLEA1IY3E","","null","<img src=""img/food5.png"" style=""width:200px; border:14px solid green;"">","null","","","","","","","","","",""
"","image-keyboard-response","277","186672","0.0-322.0","3E13VNJ1NOHMSBJ9YOXO918HUHUI1F","A1T4GVQH4P0BO","3RBI0I35XEP26UEZY8S8UZLEA1IY3E","","93.5","img/food1.png","76","95.59999999403954","3","1","3","2","1,0.5,0,1,0.5,0,0.5,0,1","1,0.5,0,1,0.5,0,0.5,0,1","1","false",""
"","html-keyboard-response","278","186977","0.0-323.0","3E13VNJ1NOHMSBJ9YOXO918HUHUI1F","A1T4GVQH4P0BO","3RBI0I35XEP26UEZY8S8UZLEA1IY3E","","null","<img src=""img/food1.png"" style=""width:200px; border:14px solid green;"">","null","","","","","","","","","",""
"","image-keyboard-response","279","187198","0.0-325.0","3E13VNJ1NOHMSBJ9YOXO918HUHUI1F","A1T4GVQH4P0BO","3RBI0I35XEP26UEZY8S8UZLEA1IY3E","","218.5","img/food2.png","74","220.69999998807907","1","1","1","2","1,0.5,0,1,0.5,0,0.5,0,1","1,0.5,0,1,0.5,0,0.5,0,1","1","false",""
"","html-keyboard-response","280","187507","0.0-326.0","3E13VNJ1NOHMSBJ9YOXO918HUHUI1F","A1T4GVQH4P0BO","3RBI0I35XEP26UEZY8S8UZLEA1IY3E","","null","<img src=""img/food2.png"" style=""width:200px; border:14px solid green;"">","null","","","","","","","","","",""
"","image-keyboard-response","281","187994","0.0-328.0","3E13VNJ1NOHMSBJ9YOXO918HUHUI1F","A1T4GVQH4P0BO","3RBI0I35XEP26UEZY8S8UZLEA1IY3E","","483.40000000596046","img/food1.png","75","485.09999999403954","2","0","3","2","1,0.5,0,1,0.5,0,0.5,0,1","1,0.5,0,1,0.5,0,0.5,0,1","1","false",""
"","html-keyboard-response","282","188299","0.0-329.0","3E13VNJ1NOHMSBJ9YOXO918HUHUI1F","A1T4GVQH4P0BO","3RBI0I35XEP26UEZY8S8UZLEA1IY3E","","null","<img src=""img/food1.png"" style=""width:200px;border:14px solid red;"">","null","","","","","","","","","",""
"","image-keyboard-response","283","188582","0.0-331.0","3E13VNJ1NOHMSBJ9YOXO918HUHUI1F","A1T4GVQH4P0BO","3RBI0I35XEP26UEZY8S8UZLEA1IY3E","","280.70000000298023","img/food1.png","76","282.59999999403954","3","1","3","2","1,0.5,0,1,0.5,0,0.5,0,1","1,0.5,0,1,0.5,0,0.5,0,1","1","false",""
"","html-keyboard-response","284","188891","0.0-332.0","3E13VNJ1NOHMSBJ9YOXO918HUHUI1F","A1T4GVQH4P0BO","3RBI0I35XEP26UEZY8S8UZLEA1IY3E","","null","<img src=""img/food1.png"" style=""width:200px; border:14px solid green;"">","null","","","","","","","","","",""
"","image-keyboard-response","285","189148","0.0-334.0","3E13VNJ1NOHMSBJ9YOXO918HUHUI1F","A1T4GVQH4P0BO","3RBI0I35XEP26UEZY8S8UZLEA1IY3E","","253.8999999910593","img/food2.png","75","256","2","1","1","2","1,0.5,0,1,0.5,0,0.5,0,1","1,0.5,0,1,0.5,0,0.5,0,1","1","false",""
"","html-keyboard-response","286","189459","0.0-335.0","3E13VNJ1NOHMSBJ9YOXO918HUHUI1F","A1T4GVQH4P0BO","3RBI0I35XEP26UEZY8S8UZLEA1IY3E","","null","<img src=""img/food2.png"" style=""width:200px; border:14px solid green;"">","null","","","","","","","","","",""
"","image-keyboard-response","287","189667","0.0-337.0","3E13VNJ1NOHMSBJ9YOXO918HUHUI1F","A1T4GVQH4P0BO","3RBI0I35XEP26UEZY8S8UZLEA1IY3E","","207.40000000596046","img/food1.png","74","208.29999999701977","1","1","3","2","1,0.5,0,1,0.5,0,0.5,0,1","1,0.5,0,1,0.5,0,0.5,0,1","1","false",""
"","html-keyboard-response","288","189976","0.0-338.0","3E13VNJ1NOHMSBJ9YOXO918HUHUI1F","A1T4GVQH4P0BO","3RBI0I35XEP26UEZY8S8UZLEA1IY3E","","null","<img src=""img/food1.png"" style=""width:200px; border:14px solid green;"">","null","","","","","","","","","",""
"","image-keyboard-response","289","190244","0.0-340.0","3E13VNJ1NOHMSBJ9YOXO918HUHUI1F","A1T4GVQH4P0BO","3RBI0I35XEP26UEZY8S8UZLEA1IY3E","","266.09999999403954","img/food2.png","75","267.09999999403954","2","1","1","2","1,0.5,0,1,0.5,0,0.5,0,1","1,0.5,0,1,0.5,0,0.5,0,1","1","false",""
"","html-keyboard-response","290","190551","0.0-341.0","3E13VNJ1NOHMSBJ9YOXO918HUHUI1F","A1T4GVQH4P0BO","3RBI0I35XEP26UEZY8S8UZLEA1IY3E","","null","<img src=""img/food2.png"" style=""width:200px; border:14px solid green;"">","null","","","","","","","","","",""
"","image-keyboard-response","291","190892","0.0-343.0","3E13VNJ1NOHMSBJ9YOXO918HUHUI1F","A1T4GVQH4P0BO","3RBI0I35XEP26UEZY8S8UZLEA1IY3E","","339","img/food5.png","74","341","1","1","2","2","1,0.5,0,1,0.5,0,0.5,0,1","1,0.5,0,1,0.5,0,0.5,0,1","1","false",""
"","html-keyboard-response","292","191201","0.0-344.0","3E13VNJ1NOHMSBJ9YOXO918HUHUI1F","A1T4GVQH4P0BO","3RBI0I35XEP26UEZY8S8UZLEA1IY3E","","null","<img src=""img/food5.png"" style=""width:200px; border:14px solid green;"">","null","","","","","","","","","",""
"","image-keyboard-response","293","191338","0.0-346.0","3E13VNJ1NOHMSBJ9YOXO918HUHUI1F","A1T4GVQH4P0BO","3RBI0I35XEP26UEZY8S8UZLEA1IY3E","","133.80000001192093","img/food5.png","75","136.20000000298023","2","0","2","2","1,0.5,0,1,0.5,0,0.5,0,1","1,0.5,0,1,0.5,0,0.5,0,1","1","false",""
"","html-keyboard-response","294","191654","0.0-347.0","3E13VNJ1NOHMSBJ9YOXO918HUHUI1F","A1T4GVQH4P0BO","3RBI0I35XEP26UEZY8S8UZLEA1IY3E","","null","<img src=""img/food5.png"" style=""width:200px;border:14px solid red;"">","null","","","","","","","","","",""
"","image-keyboard-response","295","191893","0.0-349.0","3E13VNJ1NOHMSBJ9YOXO918HUHUI1F","A1T4GVQH4P0BO","3RBI0I35XEP26UEZY8S8UZLEA1IY3E","","236.09999999403954","img/food2.png","76","238.20000000298023","3","0","1","2","1,0.5,0,1,0.5,0,0.5,0,1","1,0.5,0,1,0.5,0,0.5,0,1","1","false",""
"","html-keyboard-response","296","192202","0.0-350.0","3E13VNJ1NOHMSBJ9YOXO918HUHUI1F","A1T4GVQH4P0BO","3RBI0I35XEP26UEZY8S8UZLEA1IY3E","","null","<img src=""img/food2.png"" style=""width:200px;border:14px solid red;"">","null","","","","","","","","","",""
"","image-keyboard-response","297","192476","0.0-352.0","3E13VNJ1NOHMSBJ9YOXO918HUHUI1F","A1T4GVQH4P0BO","3RBI0I35XEP26UEZY8S8UZLEA1IY3E","","270.09999999403954","img/food5.png","75","272.6000000089407","2","0","2","2","1,0.5,0,1,0.5,0,0.5,0,1","1,0.5,0,1,0.5,0,0.5,0,1","1","false",""
"","html-keyboard-response","298","192787","0.0-353.0","3E13VNJ1NOHMSBJ9YOXO918HUHUI1F","A1T4GVQH4P0BO","3RBI0I35XEP26UEZY8S8UZLEA1IY3E","","null","<img src=""img/food5.png"" style=""width:200px;border:14px solid red;"">","null","","","","","","","","","",""
"","image-keyboard-response","299","192912","0.0-355.0","3E13VNJ1NOHMSBJ9YOXO918HUHUI1F","A1T4GVQH4P0BO","3RBI0I35XEP26UEZY8S8UZLEA1IY3E","","121.40000000596046","img/food5.png","74","123.5","1","1","2","2","1,0.5,0,1,0.5,0,0.5,0,1","1,0.5,0,1,0.5,0,0.5,0,1","1","false",""
"","html-keyboard-response","300","193223","0.0-356.0","3E13VNJ1NOHMSBJ9YOXO918HUHUI1F","A1T4GVQH4P0BO","3RBI0I35XEP26UEZY8S8UZLEA1IY3E","","null","<img src=""img/food5.png"" style=""width:200px; border:14px solid green;"">","null","","","","","","","","","",""
"","image-keyboard-response","301","193534","0.0-358.0","3E13VNJ1NOHMSBJ9YOXO918HUHUI1F","A1T4GVQH4P0BO","3RBI0I35XEP26UEZY8S8UZLEA1IY3E","","308","img/food1.png","75","310.29999999701977","2","0","3","2","1,0.5,0,1,0.5,0,0.5,0,1","1,0.5,0,1,0.5,0,0.5,0,1","1","false",""
"","html-keyboard-response","302","193839","0.0-359.0","3E13VNJ1NOHMSBJ9YOXO918HUHUI1F","A1T4GVQH4P0BO","3RBI0I35XEP26UEZY8S8UZLEA1IY3E","","null","<img src=""img/food1.png"" style=""width:200px;border:14px solid red;"">","null","","","","","","","","","",""
"","image-keyboard-response","303","193939","0.0-361.0","3E13VNJ1NOHMSBJ9YOXO918HUHUI1F","A1T4GVQH4P0BO","3RBI0I35XEP26UEZY8S8UZLEA1IY3E","","98.3999999910593","img/food5.png","74","100","1","1","2","2","1,0.5,0,1,0.5,0,0.5,0,1","1,0.5,0,1,0.5,0,0.5,0,1","1","false",""
"","html-keyboard-response","304","194253","0.0-362.0","3E13VNJ1NOHMSBJ9YOXO918HUHUI1F","A1T4GVQH4P0BO","3RBI0I35XEP26UEZY8S8UZLEA1IY3E","","null","<img src=""img/food5.png"" style=""width:200px; border:14px solid green;"">","null","","","","","","","","","",""
"","image-keyboard-response","305","194399","0.0-364.0","3E13VNJ1NOHMSBJ9YOXO918HUHUI1F","A1T4GVQH4P0BO","3RBI0I35XEP26UEZY8S8UZLEA1IY3E","","143.59999999403954","img/food2.png","75","145.6000000089407","2","1","1","2","1,0.5,0,1,0.5,0,0.5,0,1","1,0.5,0,1,0.5,0,0.5,0,1","1","false",""
"","html-keyboard-response","306","194708","0.0-365.0","3E13VNJ1NOHMSBJ9YOXO918HUHUI1F","A1T4GVQH4P0BO","3RBI0I35XEP26UEZY8S8UZLEA1IY3E","","null","<img src=""img/food2.png"" style=""width:200px; border:14px solid green;"">","null","","","","","","","","","",""
"","image-keyboard-response","307","194716","0.0-367.0","3E13VNJ1NOHMSBJ9YOXO918HUHUI1F","A1T4GVQH4P0BO","3RBI0I35XEP26UEZY8S8UZLEA1IY3E","","4.800000011920929","img/food5.png","76","7","3","0","2","2","1,0.5,0,1,0.5,0,0.5,0,1","1,0.5,0,1,0.5,0,0.5,0,1","1","false",""
"","html-keyboard-response","308","195027","0.0-368.0","3E13VNJ1NOHMSBJ9YOXO918HUHUI1F","A1T4GVQH4P0BO","3RBI0I35XEP26UEZY8S8UZLEA1IY3E","","null","<img src=""img/food5.png"" style=""width:200px;border:14px solid red;"">","null","","","","","","","","","",""
"","image-keyboard-response","309","195205","0.0-370.0","3E13VNJ1NOHMSBJ9YOXO918HUHUI1F","A1T4GVQH4P0BO","3RBI0I35XEP26UEZY8S8UZLEA1IY3E","","176","img/food2.png","75","177.6000000089407","2","0","1","2","1,0.5,0,1,0.5,0,0.5,0,1","1,0.5,0,1,0.5,0,0.5,0,1","1","false",""
"","html-keyboard-response","310","195516","0.0-371.0","3E13VNJ1NOHMSBJ9YOXO918HUHUI1F","A1T4GVQH4P0BO","3RBI0I35XEP26UEZY8S8UZLEA1IY3E","","null","<img src=""img/food2.png"" style=""width:200px;border:14px solid red;"">","null","","","","","","","","","",""
"","image-keyboard-response","311","195518","0.0-373.0","3E13VNJ1NOHMSBJ9YOXO918HUHUI1F","A1T4GVQH4P0BO","3RBI0I35XEP26UEZY8S8UZLEA1IY3E","","0.3999999910593033","img/food5.png","74","1.2999999970197678","1","1","2","2","1,0.5,0,1,0.5,0,0.5,0,1","1,0.5,0,1,0.5,0,0.5,0,1","1","false",""
"","html-keyboard-response","312","195834","0.0-374.0","3E13VNJ1NOHMSBJ9YOXO918HUHUI1F","A1T4GVQH4P0BO","3RBI0I35XEP26UEZY8S8UZLEA1IY3E","","null","<img src=""img/food5.png"" style=""width:200px; border:14px solid green;"">","null","","","","","","","","","",""
"","image-keyboard-response","313","195942","0.0-376.0","3E13VNJ1NOHMSBJ9YOXO918HUHUI1F","A1T4GVQH4P0BO","3RBI0I35XEP26UEZY8S8UZLEA1IY3E","","106.6000000089407","img/food5.png","76","107.6000000089407","3","0","2","2","1,0.5,0,1,0.5,0,0.5,0,1","1,0.5,0,1,0.5,0,0.5,0,1","1","false",""
"","html-keyboard-response","314","196248","0.0-377.0","3E13VNJ1NOHMSBJ9YOXO918HUHUI1F","A1T4GVQH4P0BO","3RBI0I35XEP26UEZY8S8UZLEA1IY3E","","null","<img src=""img/food5.png"" style=""width:200px;border:14px solid red;"">","null","","","","","","","","","",""
"","image-keyboard-response","315","196338","0.0-379.0","3E13VNJ1NOHMSBJ9YOXO918HUHUI1F","A1T4GVQH4P0BO","3RBI0I35XEP26UEZY8S8UZLEA1IY3E","","87.8999999910593","img/food1.png","74","89.29999999701977","1","1","3","2","1,0.5,0,1,0.5,0,0.5,0,1","1,0.5,0,1,0.5,0,0.5,0,1","1","false",""
"","html-keyboard-response","316","196653","0.0-380.0","3E13VNJ1NOHMSBJ9YOXO918HUHUI1F","A1T4GVQH4P0BO","3RBI0I35XEP26UEZY8S8UZLEA1IY3E","","null","<img src=""img/food1.png"" style=""width:200px; border:14px solid green;"">","null","","","","","","","","","",""
"","image-keyboard-response","317","196657","0.0-382.0","3E13VNJ1NOHMSBJ9YOXO918HUHUI1F","A1T4GVQH4P0BO","3RBI0I35XEP26UEZY8S8UZLEA1IY3E","","1","img/food1.png","75","3","2","0","3","2","1,0.5,0,1,0.5,0,0.5,0,1","1,0.5,0,1,0.5,0,0.5,0,1","1","false",""
"","html-keyboard-response","318","196965","0.0-383.0","3E13VNJ1NOHMSBJ9YOXO918HUHUI1F","A1T4GVQH4P0BO","3RBI0I35XEP26UEZY8S8UZLEA1IY3E","","null","<img src=""img/food1.png"" style=""width:200px;border:14px solid red;"">","null","","","","","","","","","",""
"","image-keyboard-response","319","197487","0.0-385.0","3E13VNJ1NOHMSBJ9YOXO918HUHUI1F","A1T4GVQH4P0BO","3RBI0I35XEP26UEZY8S8UZLEA1IY3E","","519.9000000059605","img/food5.png","76","521.6000000089407","3","0","2","2","1,0.5,0,1,0.5,0,0.5,0,1","1,0.5,0,1,0.5,0,0.5,0,1","1","false",""
"","html-keyboard-response","320","197799","0.0-386.0","3E13VNJ1NOHMSBJ9YOXO918HUHUI1F","A1T4GVQH4P0BO","3RBI0I35XEP26UEZY8S8UZLEA1IY3E","","null","<img src=""img/food5.png"" style=""width:200px;border:14px solid red;"">","null","","","","","","","","","",""
"","image-keyboard-response","321","197958","0.0-388.0","3E13VNJ1NOHMSBJ9YOXO918HUHUI1F","A1T4GVQH4P0BO","3RBI0I35XEP26UEZY8S8UZLEA1IY3E","","156","img/food5.png","75","158.5","2","1","2","2","1,0.5,0,1,0.5,0,0.5,0,1","1,0.5,0,1,0.5,0,0.5,0,1","1","false",""
"","html-keyboard-response","322","198266","0.0-389.0","3E13VNJ1NOHMSBJ9YOXO918HUHUI1F","A1T4GVQH4P0BO","3RBI0I35XEP26UEZY8S8UZLEA1IY3E","","null","<img src=""img/food5.png"" style=""width:200px; border:14px solid green;"">","null","","","","","","","","","",""
"","image-keyboard-response","323","198618","0.0-391.0","3E13VNJ1NOHMSBJ9YOXO918HUHUI1F","A1T4GVQH4P0BO","3RBI0I35XEP26UEZY8S8UZLEA1IY3E","","349.3999999910593","img/food1.png","74","351.40000000596046","1","1","3","2","1,0.5,0,1,0.5,0,0.5,0,1","1,0.5,0,1,0.5,0,0.5,0,1","1","false",""
"","html-keyboard-response","324","198928","0.0-392.0","3E13VNJ1NOHMSBJ9YOXO918HUHUI1F","A1T4GVQH4P0BO","3RBI0I35XEP26UEZY8S8UZLEA1IY3E","","null","<img src=""img/food1.png"" style=""width:200px; border:14px solid green;"">","null","","","","","","","","","",""
"","image-keyboard-response","325","199286","0.0-394.0","3E13VNJ1NOHMSBJ9YOXO918HUHUI1F","A1T4GVQH4P0BO","3RBI0I35XEP26UEZY8S8UZLEA1IY3E","","355.5","img/food2.png","75","357.8999999910593","2","0","1","2","1,0.5,0,1,0.5,0,0.5,0,1","1,0.5,0,1,0.5,0,0.5,0,1","1","false",""
"","html-keyboard-response","326","199595","0.0-395.0","3E13VNJ1NOHMSBJ9YOXO918HUHUI1F","A1T4GVQH4P0BO","3RBI0I35XEP26UEZY8S8UZLEA1IY3E","","null","<img src=""img/food2.png"" style=""width:200px;border:14px solid red;"">","null","","","","","","","","","",""
"","image-keyboard-response","327","199788","0.0-397.0","3E13VNJ1NOHMSBJ9YOXO918HUHUI1F","A1T4GVQH4P0BO","3RBI0I35XEP26UEZY8S8UZLEA1IY3E","","189.5","img/food5.png","76","192.09999999403954","3","0","2","2","1,0.5,0,1,0.5,0,0.5,0,1","1,0.5,0,1,0.5,0,0.5,0,1","1","false",""
"","html-keyboard-response","328","200099","0.0-398.0","3E13VNJ1NOHMSBJ9YOXO918HUHUI1F","A1T4GVQH4P0BO","3RBI0I35XEP26UEZY8S8UZLEA1IY3E","","null","<img src=""img/food5.png"" style=""width:200px;border:14px solid red;"">","null","","","","","","","","","",""
"","image-keyboard-response","329","200410","0.0-400.0","3E13VNJ1NOHMSBJ9YOXO918HUHUI1F","A1T4GVQH4P0BO","3RBI0I35XEP26UEZY8S8UZLEA1IY3E","","306.1000000089407","img/food2.png","75","309.5","2","0","1","2","1,0.5,0,1,0.5,0,0.5,0,1","1,0.5,0,1,0.5,0,0.5,0,1","1","false",""
"","html-keyboard-response","330","200728","0.0-401.0","3E13VNJ1NOHMSBJ9YOXO918HUHUI1F","A1T4GVQH4P0BO","3RBI0I35XEP26UEZY8S8UZLEA1IY3E","","null","<img src=""img/food2.png"" style=""width:200px;border:14px solid red;"">","null","","","","","","","","","",""
"","image-keyboard-response","331","200981","0.0-403.0","3E13VNJ1NOHMSBJ9YOXO918HUHUI1F","A1T4GVQH4P0BO","3RBI0I35XEP26UEZY8S8UZLEA1IY3E","","250.1000000089407","img/food2.png","74","252.29999999701977","1","1","1","2","1,0.5,0,1,0.5,0,0.5,0,1","1,0.5,0,1,0.5,0,0.5,0,1","1","false",""
"","html-keyboard-response","332","201289","0.0-404.0","3E13VNJ1NOHMSBJ9YOXO918HUHUI1F","A1T4GVQH4P0BO","3RBI0I35XEP26UEZY8S8UZLEA1IY3E","","null","<img src=""img/food2.png"" style=""width:200px; border:14px solid green;"">","null","","","","","","","","","",""
"","image-keyboard-response","333","201793","0.0-406.0","3E13VNJ1NOHMSBJ9YOXO918HUHUI1F","A1T4GVQH4P0BO","3RBI0I35XEP26UEZY8S8UZLEA1IY3E","","501.1000000089407","img/food1.png","75","503.20000000298023","2","0","3","2","1,0.5,0,1,0.5,0,0.5,0,1","1,0.5,0,1,0.5,0,0.5,0,1","1","false",""
"","html-keyboard-response","334","202101","0.0-407.0","3E13VNJ1NOHMSBJ9YOXO918HUHUI1F","A1T4GVQH4P0BO","3RBI0I35XEP26UEZY8S8UZLEA1IY3E","","null","<img src=""img/food1.png"" style=""width:200px;border:14px solid red;"">","null","","","","","","","","","",""
"","image-keyboard-response","335","202399","0.0-409.0","3E13VNJ1NOHMSBJ9YOXO918HUHUI1F","A1T4GVQH4P0BO","3RBI0I35XEP26UEZY8S8UZLEA1IY3E","","294.30000001192093","img/food5.png","74","296.79999999701977","1","1","2","2","1,0.5,0,1,0.5,0,0.5,0,1","1,0.5,0,1,0.5,0,0.5,0,1","1","false",""
"","html-keyboard-response","336","202715","0.0-410.0","3E13VNJ1NOHMSBJ9YOXO918HUHUI1F","A1T4GVQH4P0BO","3RBI0I35XEP26UEZY8S8UZLEA1IY3E","","null","<img src=""img/food5.png"" style=""width:200px; border:14px solid green;"">","null","","","","","","","","","",""
"","image-keyboard-response","337","203026","0.0-412.0","3E13VNJ1NOHMSBJ9YOXO918HUHUI1F","A1T4GVQH4P0BO","3RBI0I35XEP26UEZY8S8UZLEA1IY3E","","307.6000000089407","img/food2.png","74","309.8999999910593","1","1","1","2","1,0.5,0,1,0.5,0,0.5,0,1","1,0.5,0,1,0.5,0,0.5,0,1","1","false",""
"","html-keyboard-response","338","203344","0.0-413.0","3E13VNJ1NOHMSBJ9YOXO918HUHUI1F","A1T4GVQH4P0BO","3RBI0I35XEP26UEZY8S8UZLEA1IY3E","","null","<img src=""img/food2.png"" style=""width:200px; border:14px solid green;"">","null","","","","","","","","","",""
"","image-keyboard-response","339","203705","0.0-415.0","3E13VNJ1NOHMSBJ9YOXO918HUHUI1F","A1T4GVQH4P0BO","3RBI0I35XEP26UEZY8S8UZLEA1IY3E","","358.70000000298023","img/food1.png","75","360.09999999403954","2","0","3","2","1,0.5,0,1,0.5,0,0.5,0,1","1,0.5,0,1,0.5,0,0.5,0,1","1","false",""
"","html-keyboard-response","340","204012","0.0-416.0","3E13VNJ1NOHMSBJ9YOXO918HUHUI1F","A1T4GVQH4P0BO","3RBI0I35XEP26UEZY8S8UZLEA1IY3E","","null","<img src=""img/food1.png"" style=""width:200px;border:14px solid red;"">","null","","","","","","","","","",""
"","image-keyboard-response","341","204205","0.0-418.0","3E13VNJ1NOHMSBJ9YOXO918HUHUI1F","A1T4GVQH4P0BO","3RBI0I35XEP26UEZY8S8UZLEA1IY3E","","191.1000000089407","img/food5.png","76","192.90000000596046","3","0","2","2","1,0.5,0,1,0.5,0,0.5,0,1","1,0.5,0,1,0.5,0,0.5,0,1","1","false",""
"","html-keyboard-response","342","204511","0.0-419.0","3E13VNJ1NOHMSBJ9YOXO918HUHUI1F","A1T4GVQH4P0BO","3RBI0I35XEP26UEZY8S8UZLEA1IY3E","","null","<img src=""img/food5.png"" style=""width:200px;border:14px solid red;"">","null","","","","","","","","","",""
"","image-keyboard-response","343","204669","0.0-421.0","3E13VNJ1NOHMSBJ9YOXO918HUHUI1F","A1T4GVQH4P0BO","3RBI0I35XEP26UEZY8S8UZLEA1IY3E","","155","img/food5.png","75","157.40000000596046","2","1","2","2","1,0.5,0,1,0.5,0,0.5,0,1","1,0.5,0,1,0.5,0,0.5,0,1","1","false",""
"","html-keyboard-response","344","204986","0.0-422.0","3E13VNJ1NOHMSBJ9YOXO918HUHUI1F","A1T4GVQH4P0BO","3RBI0I35XEP26UEZY8S8UZLEA1IY3E","","null","<img src=""img/food5.png"" style=""width:200px; border:14px solid green;"">","null","","","","","","","","","",""
"","image-keyboard-response","345","205165","0.0-424.0","3E13VNJ1NOHMSBJ9YOXO918HUHUI1F","A1T4GVQH4P0BO","3RBI0I35XEP26UEZY8S8UZLEA1IY3E","","175.70000000298023","img/food1.png","75","177.90000000596046","2","0","3","2","1,0.5,0,1,0.5,0,0.5,0,1","1,0.5,0,1,0.5,0,0.5,0,1","1","false",""
"","html-keyboard-response","346","205477","0.0-425.0","3E13VNJ1NOHMSBJ9YOXO918HUHUI1F","A1T4GVQH4P0BO","3RBI0I35XEP26UEZY8S8UZLEA1IY3E","","null","<img src=""img/food1.png"" style=""width:200px;border:14px solid red;"">","null","","","","","","","","","",""
"","image-keyboard-response","347","205692","0.0-427.0","3E13VNJ1NOHMSBJ9YOXO918HUHUI1F","A1T4GVQH4P0BO","3RBI0I35XEP26UEZY8S8UZLEA1IY3E","","212.09999999403954","img/food5.png","74","214.3999999910593","1","1","2","2","1,0.5,0,1,0.5,0,0.5,0,1","1,0.5,0,1,0.5,0,0.5,0,1","1","false",""
"","html-keyboard-response","348","206006","0.0-428.0","3E13VNJ1NOHMSBJ9YOXO918HUHUI1F","A1T4GVQH4P0BO","3RBI0I35XEP26UEZY8S8UZLEA1IY3E","","null","<img src=""img/food5.png"" style=""width:200px; border:14px solid green;"">","null","","","","","","","","","",""
"","image-keyboard-response","349","206387","0.0-430.0","3E13VNJ1NOHMSBJ9YOXO918HUHUI1F","A1T4GVQH4P0BO","3RBI0I35XEP26UEZY8S8UZLEA1IY3E","","378.20000000298023","img/food2.png","74","380.40000000596046","1","1","1","2","1,0.5,0,1,0.5,0,0.5,0,1","1,0.5,0,1,0.5,0,0.5,0,1","1","false",""
"","html-keyboard-response","350","206707","0.0-431.0","3E13VNJ1NOHMSBJ9YOXO918HUHUI1F","A1T4GVQH4P0BO","3RBI0I35XEP26UEZY8S8UZLEA1IY3E","","null","<img src=""img/food2.png"" style=""width:200px; border:14px solid green;"">","null","","","","","","","","","",""
"","image-keyboard-response","351","207179","0.0-433.0","3E13VNJ1NOHMSBJ9YOXO918HUHUI1F","A1T4GVQH4P0BO","3RBI0I35XEP26UEZY8S8UZLEA1IY3E","","469.5","img/food2.png","74","471.59999999403954","1","1","1","2","1,0.5,0,1,0.5,0,0.5,0,1","1,0.5,0,1,0.5,0,0.5,0,1","1","false",""
"","html-keyboard-response","352","207492","0.0-434.0","3E13VNJ1NOHMSBJ9YOXO918HUHUI1F","A1T4GVQH4P0BO","3RBI0I35XEP26UEZY8S8UZLEA1IY3E","","null","<img src=""img/food2.png"" style=""width:200px; border:14px solid green;"">","null","","","","","","","","","",""
"","image-keyboard-response","353","207951","0.0-436.0","3E13VNJ1NOHMSBJ9YOXO918HUHUI1F","A1T4GVQH4P0BO","3RBI0I35XEP26UEZY8S8UZLEA1IY3E","","456.20000000298023","img/food1.png","74","458.40000000596046","1","0","3","2","1,0.5,0,1,0.5,0,0.5,0,1","1,0.5,0,1,0.5,0,0.5,0,1","1","false",""
"","html-keyboard-response","354","208258","0.0-437.0","3E13VNJ1NOHMSBJ9YOXO918HUHUI1F","A1T4GVQH4P0BO","3RBI0I35XEP26UEZY8S8UZLEA1IY3E","","null","<img src=""img/food1.png"" style=""width:200px;border:14px solid red;"">","null","","","","","","","","","",""
"","image-keyboard-response","355","208312","0.0-439.0","3E13VNJ1NOHMSBJ9YOXO918HUHUI1F","A1T4GVQH4P0BO","3RBI0I35XEP26UEZY8S8UZLEA1IY3E","","50.3999999910593","img/food1.png","75","52.20000000298023","2","0","3","2","1,0.5,0,1,0.5,0,0.5,0,1","1,0.5,0,1,0.5,0,0.5,0,1","1","false",""
"","html-keyboard-response","356","208618","0.0-440.0","3E13VNJ1NOHMSBJ9YOXO918HUHUI1F","A1T4GVQH4P0BO","3RBI0I35XEP26UEZY8S8UZLEA1IY3E","","null","<img src=""img/food1.png"" style=""width:200px;border:14px solid red;"">","null","","","","","","","","","",""
"","image-keyboard-response","357","208999","0.0-442.0","3E13VNJ1NOHMSBJ9YOXO918HUHUI1F","A1T4GVQH4P0BO","3RBI0I35XEP26UEZY8S8UZLEA1IY3E","","378.29999999701977","img/food1.png","75","380.79999999701977","2","0","3","2","1,0.5,0,1,0.5,0,0.5,0,1","1,0.5,0,1,0.5,0,0.5,0,1","1","false",""
"","html-keyboard-response","358","209306","0.0-443.0","3E13VNJ1NOHMSBJ9YOXO918HUHUI1F","A1T4GVQH4P0BO","3RBI0I35XEP26UEZY8S8UZLEA1IY3E","","null","<img src=""img/food1.png"" style=""width:200px;border:14px solid red;"">","null","","","","","","","","","",""
"","image-keyboard-response","359","209586","0.0-445.0","3E13VNJ1NOHMSBJ9YOXO918HUHUI1F","A1T4GVQH4P0BO","3RBI0I35XEP26UEZY8S8UZLEA1IY3E","","276.30000001192093","img/food1.png","75","278.59999999403954","2","0","3","2","1,0.5,0,1,0.5,0,0.5,0,1","1,0.5,0,1,0.5,0,0.5,0,1","1","false",""
"","html-keyboard-response","360","209892","0.0-446.0","3E13VNJ1NOHMSBJ9YOXO918HUHUI1F","A1T4GVQH4P0BO","3RBI0I35XEP26UEZY8S8UZLEA1IY3E","","null","<img src=""img/food1.png"" style=""width:200px;border:14px solid red;"">","null","","","","","","","","","",""
"","image-keyboard-response","361","210508","0.0-448.0","3E13VNJ1NOHMSBJ9YOXO918HUHUI1F","A1T4GVQH4P0BO","3RBI0I35XEP26UEZY8S8UZLEA1IY3E","","612.9000000059605","img/food2.png","76","615.6000000089407","3","0","1","2","1,0.5,0,1,0.5,0,0.5,0,1","1,0.5,0,1,0.5,0,0.5,0,1","1","false",""
"","html-keyboard-response","362","210816","0.0-449.0","3E13VNJ1NOHMSBJ9YOXO918HUHUI1F","A1T4GVQH4P0BO","3RBI0I35XEP26UEZY8S8UZLEA1IY3E","","null","<img src=""img/food2.png"" style=""width:200px;border:14px solid red;"">","null","","","","","","","","","",""
"","image-keyboard-response","363","211264","0.0-451.0","3E13VNJ1NOHMSBJ9YOXO918HUHUI1F","A1T4GVQH4P0BO","3RBI0I35XEP26UEZY8S8UZLEA1IY3E","","444.90000000596046","img/food1.png","75","447","2","0","3","2","1,0.5,0,1,0.5,0,0.5,0,1","1,0.5,0,1,0.5,0,0.5,0,1","1","false",""
"","html-keyboard-response","364","211572","0.0-452.0","3E13VNJ1NOHMSBJ9YOXO918HUHUI1F","A1T4GVQH4P0BO","3RBI0I35XEP26UEZY8S8UZLEA1IY3E","","null","<img src=""img/food1.png"" style=""width:200px;border:14px solid red;"">","null","","","","","","","","","",""
"","instructions","365","213498","0.0-454.0","3E13VNJ1NOHMSBJ9YOXO918HUHUI1F","A1T4GVQH4P0BO","3RBI0I35XEP26UEZY8S8UZLEA1IY3E","[{""page_index"":0,""viewing_time"":1923.7000000029802}]","1924.5","","","","","","","","","","","",""
"","survey-text","366","218324","0.0-455.0","3E13VNJ1NOHMSBJ9YOXO918HUHUI1F","A1T4GVQH4P0BO","3RBI0I35XEP26UEZY8S8UZLEA1IY3E","","4809.9000000059605","","","","","","","","","","","","{""Q0"":""A1T4GVQH4P0BO""}"
