"success","trial_type","trial_index","time_elapsed","internal_node_id","assignmentID","mturkID","hitID","view_history","rt","stimulus","key_press","reactionTime","a","r","s","cond","reward_cond","reward_cond_actual","reward_matrix_idx","warning","responses"
"true","fullscreen","0","26331","0.0-0.0","3P4MQ7TPPYYDI1NVUBYWTQHDL1CBBP","A1UGD2VEVSML1U","36U4VBVNQOZD8NFWZXWF9CIHKRIURB","","","","","","","","","","","","","",""
"","instructions","1","52465","0.0-1.0","3P4MQ7TPPYYDI1NVUBYWTQHDL1CBBP","A1UGD2VEVSML1U","36U4VBVNQOZD8NFWZXWF9CIHKRIURB","[{""page_index"":0,""viewing_time"":3979.5999999940395},{""page_index"":1,""viewing_time"":3502.800000011921},{""page_index"":2,""viewing_time"":4538},{""page_index"":3,""viewing_time"":7355.0999999940395},{""page_index"":4,""viewing_time"":2266.9000000059605},{""page_index"":5,""viewing_time"":2805},{""page_index"":6,""viewing_time"":1685}]","26132.69999998808","","","","","","","","","","","",""
"","image-keyboard-response","2","53450","0.0-2.0","3P4MQ7TPPYYDI1NVUBYWTQHDL1CBBP","A1UGD2VEVSML1U","36U4VBVNQOZD8NFWZXWF9CIHKRIURB","","983.9000000059605","img/food6.png","75","984.7000000178814","2","1","1","1","1,0.5,0,1,0.5,0,0.5,0,1","1,0.5,0,1,0.5,0,0.5,0,1","1","",""
"","html-keyboard-response","3","53751","0.0-3.0","3P4MQ7TPPYYDI1NVUBYWTQHDL1CBBP","A1UGD2VEVSML1U","36U4VBVNQOZD8NFWZXWF9CIHKRIURB","","null","<img src=""img/food6.png"" style=""width:200px; border:14px solid green;"">","null","","","","","","","","","",""
"","image-keyboard-response","4","54273","0.0-4.0","3P4MQ7TPPYYDI1NVUBYWTQHDL1CBBP","A1UGD2VEVSML1U","36U4VBVNQOZD8NFWZXWF9CIHKRIURB","","521.5","img/food6.png","75","521.9000000059605","2","1","1","1","1,0.5,0,1,0.5,0,0.5,0,1","1,0.5,0,1,0.5,0,0.5,0,1","1","",""
"","html-keyboard-response","5","54574","0.0-5.0","3P4MQ7TPPYYDI1NVUBYWTQHDL1CBBP","A1UGD2VEVSML1U","36U4VBVNQOZD8NFWZXWF9CIHKRIURB","","null","<img src=""img/food6.png"" style=""width:200px; border:14px solid green;"">","null","","","","","","","","","",""
"","image-keyboard-response","6","55362","0.0-6.0","3P4MQ7TPPYYDI1NVUBYWTQHDL1CBBP","A1UGD2VEVSML1U","36U4VBVNQOZD8NFWZXWF9CIHKRIURB","","786.6999999880791","img/food2.png","76","787.0999999940395","3","1","3","1","1,0.5,0,1,0.5,0,0.5,0,1","1,0.5,0,1,0.5,0,0.5,0,1","1","",""
"","html-keyboard-response","7","55663","0.0-7.0","3P4MQ7TPPYYDI1NVUBYWTQHDL1CBBP","A1UGD2VEVSML1U","36U4VBVNQOZD8NFWZXWF9CIHKRIURB","","null","<img src=""img/food2.png"" style=""width:200px; border:14px solid green;"">","null","","","","","","","","","",""
"","image-keyboard-response","8","56433","0.0-8.0","3P4MQ7TPPYYDI1NVUBYWTQHDL1CBBP","A1UGD2VEVSML1U","36U4VBVNQOZD8NFWZXWF9CIHKRIURB","","769.5","img/food4.png","74","769.9000000059605","1","1","2","1","1,0.5,0,1,0.5,0,0.5,0,1","1,0.5,0,1,0.5,0,0.5,0,1","1","",""
"","html-keyboard-response","9","56735","0.0-9.0","3P4MQ7TPPYYDI1NVUBYWTQHDL1CBBP","A1UGD2VEVSML1U","36U4VBVNQOZD8NFWZXWF9CIHKRIURB","","null","<img src=""img/food4.png"" style=""width:200px; border:14px solid green;"">","null","","","","","","","","","",""
"","image-keyboard-response","10","57170","0.0-10.0","3P4MQ7TPPYYDI1NVUBYWTQHDL1CBBP","A1UGD2VEVSML1U","36U4VBVNQOZD8NFWZXWF9CIHKRIURB","","433.7999999821186","img/food6.png","75","434.40000000596046","2","1","1","1","1,0.5,0,1,0.5,0,0.5,0,1","1,0.5,0,1,0.5,0,0.5,0,1","1","",""
"","html-keyboard-response","11","57471","0.0-11.0","3P4MQ7TPPYYDI1NVUBYWTQHDL1CBBP","A1UGD2VEVSML1U","36U4VBVNQOZD8NFWZXWF9CIHKRIURB","","null","<img src=""img/food6.png"" style=""width:200px; border:14px solid green;"">","null","","","","","","","","","",""
"","image-keyboard-response","12","57762","0.0-12.0","3P4MQ7TPPYYDI1NVUBYWTQHDL1CBBP","A1UGD2VEVSML1U","36U4VBVNQOZD8NFWZXWF9CIHKRIURB","","290.40000000596046","img/food6.png","75","290.90000000596046","2","1","1","1","1,0.5,0,1,0.5,0,0.5,0,1","1,0.5,0,1,0.5,0,0.5,0,1","1","",""
"","html-keyboard-response","13","58062","0.0-13.0","3P4MQ7TPPYYDI1NVUBYWTQHDL1CBBP","A1UGD2VEVSML1U","36U4VBVNQOZD8NFWZXWF9CIHKRIURB","","null","<img src=""img/food6.png"" style=""width:200px; border:14px solid green;"">","null","","","","","","","","","",""
"","image-keyboard-response","14","58562","0.0-14.0","3P4MQ7TPPYYDI1NVUBYWTQHDL1CBBP","A1UGD2VEVSML1U","36U4VBVNQOZD8NFWZXWF9CIHKRIURB","","498.80000001192093","img/food4.png","76","499.30000001192093","3","0","2","1","1,0.5,0,1,0.5,0,0.5,0,1","1,0.5,0,1,0.5,0,0.5,0,1","1","",""
"","html-keyboard-response","15","58863","0.0-15.0","3P4MQ7TPPYYDI1NVUBYWTQHDL1CBBP","A1UGD2VEVSML1U","36U4VBVNQOZD8NFWZXWF9CIHKRIURB","","null","<img src=""img/food4.png"" style=""width:200px;border:14px solid red;"">","null","","","","","","","","","",""
"","image-keyboard-response","16","59721","0.0-16.0","3P4MQ7TPPYYDI1NVUBYWTQHDL1CBBP","A1UGD2VEVSML1U","36U4VBVNQOZD8NFWZXWF9CIHKRIURB","","857.5999999940395","img/food4.png","74","857.8999999761581","1","1","2","1","1,0.5,0,1,0.5,0,0.5,0,1","1,0.5,0,1,0.5,0,0.5,0,1","1","",""
"","html-keyboard-response","17","60022","0.0-17.0","3P4MQ7TPPYYDI1NVUBYWTQHDL1CBBP","A1UGD2VEVSML1U","36U4VBVNQOZD8NFWZXWF9CIHKRIURB","","null","<img src=""img/food4.png"" style=""width:200px; border:14px solid green;"">","null","","","","","","","","","",""
"","image-keyboard-response","18","60553","0.0-18.0","3P4MQ7TPPYYDI1NVUBYWTQHDL1CBBP","A1UGD2VEVSML1U","36U4VBVNQOZD8NFWZXWF9CIHKRIURB","","530.7000000178814","img/food2.png","76","531","3","1","3","1","1,0.5,0,1,0.5,0,0.5,0,1","1,0.5,0,1,0.5,0,0.5,0,1","1","",""
"","html-keyboard-response","19","60855","0.0-19.0","3P4MQ7TPPYYDI1NVUBYWTQHDL1CBBP","A1UGD2VEVSML1U","36U4VBVNQOZD8NFWZXWF9CIHKRIURB","","null","<img src=""img/food2.png"" style=""width:200px; border:14px solid green;"">","null","","","","","","","","","",""
"","image-keyboard-response","20","61145","0.0-20.0","3P4MQ7TPPYYDI1NVUBYWTQHDL1CBBP","A1UGD2VEVSML1U","36U4VBVNQOZD8NFWZXWF9CIHKRIURB","","289.80000001192093","img/food2.png","76","290.19999998807907","3","1","3","1","1,0.5,0,1,0.5,0,0.5,0,1","1,0.5,0,1,0.5,0,0.5,0,1","1","",""
"","html-keyboard-response","21","61456","0.0-21.0","3P4MQ7TPPYYDI1NVUBYWTQHDL1CBBP","A1UGD2VEVSML1U","36U4VBVNQOZD8NFWZXWF9CIHKRIURB","","null","<img src=""img/food2.png"" style=""width:200px; border:14px solid green;"">","null","","","","","","","","","",""
"","image-keyboard-response","22","62257","0.0-22.0","3P4MQ7TPPYYDI1NVUBYWTQHDL1CBBP","A1UGD2VEVSML1U","36U4VBVNQOZD8NFWZXWF9CIHKRIURB","","801","img/food4.png","75","801.5","2","0","2","1","1,0.5,0,1,0.5,0,0.5,0,1","1,0.5,0,1,0.5,0,0.5,0,1","1","",""
"","html-keyboard-response","23","62558","0.0-23.0","3P4MQ7TPPYYDI1NVUBYWTQHDL1CBBP","A1UGD2VEVSML1U","36U4VBVNQOZD8NFWZXWF9CIHKRIURB","","null","<img src=""img/food4.png"" style=""width:200px;border:14px solid red;"">","null","","","","","","","","","",""
"","image-keyboard-response","24","62617","0.0-24.0","3P4MQ7TPPYYDI1NVUBYWTQHDL1CBBP","A1UGD2VEVSML1U","36U4VBVNQOZD8NFWZXWF9CIHKRIURB","","58.599999994039536","img/food6.png","74","58.79999998211861","1","1","1","1","1,0.5,0,1,0.5,0,0.5,0,1","1,0.5,0,1,0.5,0,0.5,0,1","1","",""
"","html-keyboard-response","25","62930","0.0-25.0","3P4MQ7TPPYYDI1NVUBYWTQHDL1CBBP","A1UGD2VEVSML1U","36U4VBVNQOZD8NFWZXWF9CIHKRIURB","","null","<img src=""img/food6.png"" style=""width:200px; border:14px solid green;"">","null","","","","","","","","","",""
"","image-keyboard-response","26","63257","0.0-26.0","3P4MQ7TPPYYDI1NVUBYWTQHDL1CBBP","A1UGD2VEVSML1U","36U4VBVNQOZD8NFWZXWF9CIHKRIURB","","326.69999998807907","img/food6.png","74","327.19999998807907","1","1","1","1","1,0.5,0,1,0.5,0,0.5,0,1","1,0.5,0,1,0.5,0,0.5,0,1","1","",""
"","html-keyboard-response","27","63559","0.0-27.0","3P4MQ7TPPYYDI1NVUBYWTQHDL1CBBP","A1UGD2VEVSML1U","36U4VBVNQOZD8NFWZXWF9CIHKRIURB","","null","<img src=""img/food6.png"" style=""width:200px; border:14px solid green;"">","null","","","","","","","","","",""
"","image-keyboard-response","28","63961","0.0-28.0","3P4MQ7TPPYYDI1NVUBYWTQHDL1CBBP","A1UGD2VEVSML1U","36U4VBVNQOZD8NFWZXWF9CIHKRIURB","","401.59999999403954","img/food6.png","74","401.90000000596046","1","1","1","1","1,0.5,0,1,0.5,0,0.5,0,1","1,0.5,0,1,0.5,0,0.5,0,1","1","",""
"","html-keyboard-response","29","64262","0.0-29.0","3P4MQ7TPPYYDI1NVUBYWTQHDL1CBBP","A1UGD2VEVSML1U","36U4VBVNQOZD8NFWZXWF9CIHKRIURB","","null","<img src=""img/food6.png"" style=""width:200px; border:14px solid green;"">","null","","","","","","","","","",""
"","image-keyboard-response","30","65305","0.0-30.0","3P4MQ7TPPYYDI1NVUBYWTQHDL1CBBP","A1UGD2VEVSML1U","36U4VBVNQOZD8NFWZXWF9CIHKRIURB","","1042.2000000178814","img/food2.png","76","1042.5","3","1","3","1","1,0.5,0,1,0.5,0,0.5,0,1","1,0.5,0,1,0.5,0,0.5,0,1","1","",""
"","html-keyboard-response","31","65606","0.0-31.0","3P4MQ7TPPYYDI1NVUBYWTQHDL1CBBP","A1UGD2VEVSML1U","36U4VBVNQOZD8NFWZXWF9CIHKRIURB","","null","<img src=""img/food2.png"" style=""width:200px; border:14px solid green;"">","null","","","","","","","","","",""
"","image-keyboard-response","32","65921","0.0-32.0","3P4MQ7TPPYYDI1NVUBYWTQHDL1CBBP","A1UGD2VEVSML1U","36U4VBVNQOZD8NFWZXWF9CIHKRIURB","","314.60000002384186","img/food2.png","76","314.80000001192093","3","1","3","1","1,0.5,0,1,0.5,0,0.5,0,1","1,0.5,0,1,0.5,0,0.5,0,1","1","",""
"","html-keyboard-response","33","66223","0.0-33.0","3P4MQ7TPPYYDI1NVUBYWTQHDL1CBBP","A1UGD2VEVSML1U","36U4VBVNQOZD8NFWZXWF9CIHKRIURB","","null","<img src=""img/food2.png"" style=""width:200px; border:14px solid green;"">","null","","","","","","","","","",""
"","image-keyboard-response","34","66513","0.0-34.0","3P4MQ7TPPYYDI1NVUBYWTQHDL1CBBP","A1UGD2VEVSML1U","36U4VBVNQOZD8NFWZXWF9CIHKRIURB","","289.69999998807907","img/food2.png","76","290","3","1","3","1","1,0.5,0,1,0.5,0,0.5,0,1","1,0.5,0,1,0.5,0,0.5,0,1","1","",""
"","html-keyboard-response","35","66814","0.0-35.0","3P4MQ7TPPYYDI1NVUBYWTQHDL1CBBP","A1UGD2VEVSML1U","36U4VBVNQOZD8NFWZXWF9CIHKRIURB","","null","<img src=""img/food2.png"" style=""width:200px; border:14px solid green;"">","null","","","","","","","","","",""
"","image-keyboard-response","36","67449","0.0-36.0","3P4MQ7TPPYYDI1NVUBYWTQHDL1CBBP","A1UGD2VEVSML1U","36U4VBVNQOZD8NFWZXWF9CIHKRIURB","","634.3999999761581","img/food4.png","75","634.9000000059605","2","1","2","1","1,0.5,0,1,0.5,0,0.5,0,1","1,0.5,0,1,0.5,0,0.5,0,1","1","",""
"","html-keyboard-response","37","67750","0.0-37.0","3P4MQ7TPPYYDI1NVUBYWTQHDL1CBBP","A1UGD2VEVSML1U","36U4VBVNQOZD8NFWZXWF9CIHKRIURB","","null","<img src=""img/food4.png"" style=""width:200px; border:14px solid green;"">","null","","","","","","","","","",""
"","image-keyboard-response","38","68401","0.0-38.0","3P4MQ7TPPYYDI1NVUBYWTQHDL1CBBP","A1UGD2VEVSML1U","36U4VBVNQOZD8NFWZXWF9CIHKRIURB","","650.3000000119209","img/food2.png","76","650.8999999761581","3","1","3","1","1,0.5,0,1,0.5,0,0.5,0,1","1,0.5,0,1,0.5,0,0.5,0,1","1","",""
"","html-keyboard-response","39","68702","0.0-39.0","3P4MQ7TPPYYDI1NVUBYWTQHDL1CBBP","A1UGD2VEVSML1U","36U4VBVNQOZD8NFWZXWF9CIHKRIURB","","null","<img src=""img/food2.png"" style=""width:200px; border:14px solid green;"">","null","","","","","","","","","",""
"","image-keyboard-response","40","69169","0.0-40.0","3P4MQ7TPPYYDI1NVUBYWTQHDL1CBBP","A1UGD2VEVSML1U","36U4VBVNQOZD8NFWZXWF9CIHKRIURB","","466.30000001192093","img/food6.png","74","466.69999998807907","1","1","1","1","1,0.5,0,1,0.5,0,0.5,0,1","1,0.5,0,1,0.5,0,0.5,0,1","1","",""
"","html-keyboard-response","41","69471","0.0-41.0","3P4MQ7TPPYYDI1NVUBYWTQHDL1CBBP","A1UGD2VEVSML1U","36U4VBVNQOZD8NFWZXWF9CIHKRIURB","","null","<img src=""img/food6.png"" style=""width:200px; border:14px solid green;"">","null","","","","","","","","","",""
"","image-keyboard-response","42","69889","0.0-42.0","3P4MQ7TPPYYDI1NVUBYWTQHDL1CBBP","A1UGD2VEVSML1U","36U4VBVNQOZD8NFWZXWF9CIHKRIURB","","417.30000001192093","img/food6.png","74","417.90000000596046","1","1","1","1","1,0.5,0,1,0.5,0,0.5,0,1","1,0.5,0,1,0.5,0,0.5,0,1","1","",""
"","html-keyboard-response","43","70190","0.0-43.0","3P4MQ7TPPYYDI1NVUBYWTQHDL1CBBP","A1UGD2VEVSML1U","36U4VBVNQOZD8NFWZXWF9CIHKRIURB","","null","<img src=""img/food6.png"" style=""width:200px; border:14px solid green;"">","null","","","","","","","","","",""
"","image-keyboard-response","44","70473","0.0-44.0","3P4MQ7TPPYYDI1NVUBYWTQHDL1CBBP","A1UGD2VEVSML1U","36U4VBVNQOZD8NFWZXWF9CIHKRIURB","","282.30000001192093","img/food6.png","74","282.7999999821186","1","1","1","1","1,0.5,0,1,0.5,0,0.5,0,1","1,0.5,0,1,0.5,0,0.5,0,1","1","",""
"","html-keyboard-response","45","70774","0.0-45.0","3P4MQ7TPPYYDI1NVUBYWTQHDL1CBBP","A1UGD2VEVSML1U","36U4VBVNQOZD8NFWZXWF9CIHKRIURB","","null","<img src=""img/food6.png"" style=""width:200px; border:14px solid green;"">","null","","","","","","","","","",""
"","image-keyboard-response","46","71513","0.0-46.0","3P4MQ7TPPYYDI1NVUBYWTQHDL1CBBP","A1UGD2VEVSML1U","36U4VBVNQOZD8NFWZXWF9CIHKRIURB","","738.5999999940395","img/food2.png","76","739","3","1","3","1","1,0.5,0,1,0.5,0,0.5,0,1","1,0.5,0,1,0.5,0,0.5,0,1","1","",""
"","html-keyboard-response","47","71815","0.0-47.0","3P4MQ7TPPYYDI1NVUBYWTQHDL1CBBP","A1UGD2VEVSML1U","36U4VBVNQOZD8NFWZXWF9CIHKRIURB","","null","<img src=""img/food2.png"" style=""width:200px; border:14px solid green;"">","null","","","","","","","","","",""
"","image-keyboard-response","48","72313","0.0-48.0","3P4MQ7TPPYYDI1NVUBYWTQHDL1CBBP","A1UGD2VEVSML1U","36U4VBVNQOZD8NFWZXWF9CIHKRIURB","","497.90000000596046","img/food6.png","74","498.40000000596046","1","1","1","1","1,0.5,0,1,0.5,0,0.5,0,1","1,0.5,0,1,0.5,0,0.5,0,1","1","",""
"","html-keyboard-response","49","72614","0.0-49.0","3P4MQ7TPPYYDI1NVUBYWTQHDL1CBBP","A1UGD2VEVSML1U","36U4VBVNQOZD8NFWZXWF9CIHKRIURB","","null","<img src=""img/food6.png"" style=""width:200px; border:14px solid green;"">","null","","","","","","","","","",""
"","image-keyboard-response","50","73721","0.0-50.0","3P4MQ7TPPYYDI1NVUBYWTQHDL1CBBP","A1UGD2VEVSML1U","36U4VBVNQOZD8NFWZXWF9CIHKRIURB","","1106.300000011921","img/food4.png","75","1106.7999999821186","2","1","2","1","1,0.5,0,1,0.5,0,0.5,0,1","1,0.5,0,1,0.5,0,0.5,0,1","1","",""
"","html-keyboard-response","51","74022","0.0-51.0","3P4MQ7TPPYYDI1NVUBYWTQHDL1CBBP","A1UGD2VEVSML1U","36U4VBVNQOZD8NFWZXWF9CIHKRIURB","","null","<img src=""img/food4.png"" style=""width:200px; border:14px solid green;"">","null","","","","","","","","","",""
"","image-keyboard-response","52","74313","0.0-52.0","3P4MQ7TPPYYDI1NVUBYWTQHDL1CBBP","A1UGD2VEVSML1U","36U4VBVNQOZD8NFWZXWF9CIHKRIURB","","290.40000000596046","img/food4.png","75","290.90000000596046","2","0","2","1","1,0.5,0,1,0.5,0,0.5,0,1","1,0.5,0,1,0.5,0,0.5,0,1","1","",""
"","html-keyboard-response","53","74615","0.0-53.0","3P4MQ7TPPYYDI1NVUBYWTQHDL1CBBP","A1UGD2VEVSML1U","36U4VBVNQOZD8NFWZXWF9CIHKRIURB","","null","<img src=""img/food4.png"" style=""width:200px;border:14px solid red;"">","null","","","","","","","","","",""
"","image-keyboard-response","54","75305","0.0-54.0","3P4MQ7TPPYYDI1NVUBYWTQHDL1CBBP","A1UGD2VEVSML1U","36U4VBVNQOZD8NFWZXWF9CIHKRIURB","","689.9000000059605","img/food4.png","75","690.2999999821186","2","1","2","1","1,0.5,0,1,0.5,0,0.5,0,1","1,0.5,0,1,0.5,0,0.5,0,1","1","",""
"","html-keyboard-response","55","75613","0.0-55.0","3P4MQ7TPPYYDI1NVUBYWTQHDL1CBBP","A1UGD2VEVSML1U","36U4VBVNQOZD8NFWZXWF9CIHKRIURB","","null","<img src=""img/food4.png"" style=""width:200px; border:14px solid green;"">","null","","","","","","","","","",""
"","image-keyboard-response","56","76329","0.0-56.0","3P4MQ7TPPYYDI1NVUBYWTQHDL1CBBP","A1UGD2VEVSML1U","36U4VBVNQOZD8NFWZXWF9CIHKRIURB","","715.8000000119209","img/food2.png","76","716.1999999880791","3","1","3","1","1,0.5,0,1,0.5,0,0.5,0,1","1,0.5,0,1,0.5,0,0.5,0,1","1","",""
"","html-keyboard-response","57","76630","0.0-57.0","3P4MQ7TPPYYDI1NVUBYWTQHDL1CBBP","A1UGD2VEVSML1U","36U4VBVNQOZD8NFWZXWF9CIHKRIURB","","null","<img src=""img/food2.png"" style=""width:200px; border:14px solid green;"">","null","","","","","","","","","",""
"","image-keyboard-response","58","76937","0.0-58.0","3P4MQ7TPPYYDI1NVUBYWTQHDL1CBBP","A1UGD2VEVSML1U","36U4VBVNQOZD8NFWZXWF9CIHKRIURB","","306.40000000596046","img/food2.png","76","307","3","1","3","1","1,0.5,0,1,0.5,0,0.5,0,1","1,0.5,0,1,0.5,0,0.5,0,1","1","",""
"","html-keyboard-response","59","77242","0.0-59.0","3P4MQ7TPPYYDI1NVUBYWTQHDL1CBBP","A1UGD2VEVSML1U","36U4VBVNQOZD8NFWZXWF9CIHKRIURB","","null","<img src=""img/food2.png"" style=""width:200px; border:14px solid green;"">","null","","","","","","","","","",""
"","image-keyboard-response","60","77817","0.0-60.0","3P4MQ7TPPYYDI1NVUBYWTQHDL1CBBP","A1UGD2VEVSML1U","36U4VBVNQOZD8NFWZXWF9CIHKRIURB","","574.6999999880791","img/food6.png","74","575.0999999940395","1","1","1","1","1,0.5,0,1,0.5,0,0.5,0,1","1,0.5,0,1,0.5,0,0.5,0,1","1","",""
"","html-keyboard-response","61","78119","0.0-61.0","3P4MQ7TPPYYDI1NVUBYWTQHDL1CBBP","A1UGD2VEVSML1U","36U4VBVNQOZD8NFWZXWF9CIHKRIURB","","null","<img src=""img/food6.png"" style=""width:200px; border:14px solid green;"">","null","","","","","","","","","",""
"","image-keyboard-response","62","78769","0.0-62.0","3P4MQ7TPPYYDI1NVUBYWTQHDL1CBBP","A1UGD2VEVSML1U","36U4VBVNQOZD8NFWZXWF9CIHKRIURB","","649.7999999821186","img/food4.png","75","650.0999999940395","2","1","2","1","1,0.5,0,1,0.5,0,0.5,0,1","1,0.5,0,1,0.5,0,0.5,0,1","1","",""
"","html-keyboard-response","63","79071","0.0-63.0","3P4MQ7TPPYYDI1NVUBYWTQHDL1CBBP","A1UGD2VEVSML1U","36U4VBVNQOZD8NFWZXWF9CIHKRIURB","","null","<img src=""img/food4.png"" style=""width:200px; border:14px solid green;"">","null","","","","","","","","","",""
"","image-keyboard-response","64","79393","0.0-64.0","3P4MQ7TPPYYDI1NVUBYWTQHDL1CBBP","A1UGD2VEVSML1U","36U4VBVNQOZD8NFWZXWF9CIHKRIURB","","321.7999999821186","img/food4.png","75","322.30000001192093","2","0","2","1","1,0.5,0,1,0.5,0,0.5,0,1","1,0.5,0,1,0.5,0,0.5,0,1","1","",""
"","html-keyboard-response","65","79695","0.0-65.0","3P4MQ7TPPYYDI1NVUBYWTQHDL1CBBP","A1UGD2VEVSML1U","36U4VBVNQOZD8NFWZXWF9CIHKRIURB","","null","<img src=""img/food4.png"" style=""width:200px;border:14px solid red;"">","null","","","","","","","","","",""
"","image-keyboard-response","66","80513","0.0-66.0","3P4MQ7TPPYYDI1NVUBYWTQHDL1CBBP","A1UGD2VEVSML1U","36U4VBVNQOZD8NFWZXWF9CIHKRIURB","","817.7999999821186","img/food2.png","76","818.1999999880791","3","1","3","1","1,0.5,0,1,0.5,0,0.5,0,1","1,0.5,0,1,0.5,0,0.5,0,1","1","",""
"","html-keyboard-response","67","80815","0.0-67.0","3P4MQ7TPPYYDI1NVUBYWTQHDL1CBBP","A1UGD2VEVSML1U","36U4VBVNQOZD8NFWZXWF9CIHKRIURB","","null","<img src=""img/food2.png"" style=""width:200px; border:14px solid green;"">","null","","","","","","","","","",""
"","image-keyboard-response","68","81177","0.0-68.0","3P4MQ7TPPYYDI1NVUBYWTQHDL1CBBP","A1UGD2VEVSML1U","36U4VBVNQOZD8NFWZXWF9CIHKRIURB","","361.69999998807907","img/food2.png","76","362.19999998807907","3","1","3","1","1,0.5,0,1,0.5,0,0.5,0,1","1,0.5,0,1,0.5,0,0.5,0,1","1","",""
"","html-keyboard-response","69","81488","0.0-69.0","3P4MQ7TPPYYDI1NVUBYWTQHDL1CBBP","A1UGD2VEVSML1U","36U4VBVNQOZD8NFWZXWF9CIHKRIURB","","null","<img src=""img/food2.png"" style=""width:200px; border:14px solid green;"">","null","","","","","","","","","",""
"","image-keyboard-response","70","82681","0.0-70.0","3P4MQ7TPPYYDI1NVUBYWTQHDL1CBBP","A1UGD2VEVSML1U","36U4VBVNQOZD8NFWZXWF9CIHKRIURB","","1192.5999999940395","img/food2.png","76","1193","3","1","3","1","1,0.5,0,1,0.5,0,0.5,0,1","1,0.5,0,1,0.5,0,0.5,0,1","1","",""
"","html-keyboard-response","71","82983","0.0-71.0","3P4MQ7TPPYYDI1NVUBYWTQHDL1CBBP","A1UGD2VEVSML1U","36U4VBVNQOZD8NFWZXWF9CIHKRIURB","","null","<img src=""img/food2.png"" style=""width:200px; border:14px solid green;"">","null","","","","","","","","","",""
"","image-keyboard-response","72","83521","0.0-72.0","3P4MQ7TPPYYDI1NVUBYWTQHDL1CBBP","A1UGD2VEVSML1U","36U4VBVNQOZD8NFWZXWF9CIHKRIURB","","537.5999999940395","img/food6.png","74","538","1","1","1","1","1,0.5,0,1,0.5,0,0.5,0,1","1,0.5,0,1,0.5,0,0.5,0,1","1","",""
"","html-keyboard-response","73","83823","0.0-73.0","3P4MQ7TPPYYDI1NVUBYWTQHDL1CBBP","A1UGD2VEVSML1U","36U4VBVNQOZD8NFWZXWF9CIHKRIURB","","null","<img src=""img/food6.png"" style=""width:200px; border:14px solid green;"">","null","","","","","","","","","",""
"","image-keyboard-response","74","84329","0.0-74.0","3P4MQ7TPPYYDI1NVUBYWTQHDL1CBBP","A1UGD2VEVSML1U","36U4VBVNQOZD8NFWZXWF9CIHKRIURB","","505.7999999821186","img/food6.png","74","506.19999998807907","1","1","1","1","1,0.5,0,1,0.5,0,0.5,0,1","1,0.5,0,1,0.5,0,0.5,0,1","1","",""
"","html-keyboard-response","75","84631","0.0-75.0","3P4MQ7TPPYYDI1NVUBYWTQHDL1CBBP","A1UGD2VEVSML1U","36U4VBVNQOZD8NFWZXWF9CIHKRIURB","","null","<img src=""img/food6.png"" style=""width:200px; border:14px solid green;"">","null","","","","","","","","","",""
"","image-keyboard-response","76","85201","0.0-76.0","3P4MQ7TPPYYDI1NVUBYWTQHDL1CBBP","A1UGD2VEVSML1U","36U4VBVNQOZD8NFWZXWF9CIHKRIURB","","569.0999999940395","img/food2.png","76","569.5999999940395","3","1","3","1","1,0.5,0,1,0.5,0,0.5,0,1","1,0.5,0,1,0.5,0,0.5,0,1","1","",""
"","html-keyboard-response","77","85502","0.0-77.0","3P4MQ7TPPYYDI1NVUBYWTQHDL1CBBP","A1UGD2VEVSML1U","36U4VBVNQOZD8NFWZXWF9CIHKRIURB","","null","<img src=""img/food2.png"" style=""width:200px; border:14px solid green;"">","null","","","","","","","","","",""
"","image-keyboard-response","78","86281","0.0-78.0","3P4MQ7TPPYYDI1NVUBYWTQHDL1CBBP","A1UGD2VEVSML1U","36U4VBVNQOZD8NFWZXWF9CIHKRIURB","","778.7999999821186","img/food2.png","76","779.1999999880791","3","1","3","1","1,0.5,0,1,0.5,0,0.5,0,1","1,0.5,0,1,0.5,0,0.5,0,1","1","",""
"","html-keyboard-response","79","86583","0.0-79.0","3P4MQ7TPPYYDI1NVUBYWTQHDL1CBBP","A1UGD2VEVSML1U","36U4VBVNQOZD8NFWZXWF9CIHKRIURB","","null","<img src=""img/food2.png"" style=""width:200px; border:14px solid green;"">","null","","","","","","","","","",""
"","image-keyboard-response","80","86937","0.0-80.0","3P4MQ7TPPYYDI1NVUBYWTQHDL1CBBP","A1UGD2VEVSML1U","36U4VBVNQOZD8NFWZXWF9CIHKRIURB","","353.69999998807907","img/food2.png","76","354.19999998807907","3","1","3","1","1,0.5,0,1,0.5,0,0.5,0,1","1,0.5,0,1,0.5,0,0.5,0,1","1","",""
"","html-keyboard-response","81","87238","0.0-81.0","3P4MQ7TPPYYDI1NVUBYWTQHDL1CBBP","A1UGD2VEVSML1U","36U4VBVNQOZD8NFWZXWF9CIHKRIURB","","null","<img src=""img/food2.png"" style=""width:200px; border:14px solid green;"">","null","","","","","","","","","",""
"","image-keyboard-response","82","87817","0.0-82.0","3P4MQ7TPPYYDI1NVUBYWTQHDL1CBBP","A1UGD2VEVSML1U","36U4VBVNQOZD8NFWZXWF9CIHKRIURB","","578.9000000059605","img/food6.png","74","579.4000000059605","1","1","1","1","1,0.5,0,1,0.5,0,0.5,0,1","1,0.5,0,1,0.5,0,0.5,0,1","1","",""
"","html-keyboard-response","83","88133","0.0-83.0","3P4MQ7TPPYYDI1NVUBYWTQHDL1CBBP","A1UGD2VEVSML1U","36U4VBVNQOZD8NFWZXWF9CIHKRIURB","","null","<img src=""img/food6.png"" style=""width:200px; border:14px solid green;"">","null","","","","","","","","","",""
"","image-keyboard-response","84","88633","0.0-84.0","3P4MQ7TPPYYDI1NVUBYWTQHDL1CBBP","A1UGD2VEVSML1U","36U4VBVNQOZD8NFWZXWF9CIHKRIURB","","499.7000000178814","img/food4.png","75","500.2000000178814","2","0","2","1","1,0.5,0,1,0.5,0,0.5,0,1","1,0.5,0,1,0.5,0,0.5,0,1","1","",""
"","html-keyboard-response","85","88934","0.0-85.0","3P4MQ7TPPYYDI1NVUBYWTQHDL1CBBP","A1UGD2VEVSML1U","36U4VBVNQOZD8NFWZXWF9CIHKRIURB","","null","<img src=""img/food4.png"" style=""width:200px;border:14px solid red;"">","null","","","","","","","","","",""
"","image-keyboard-response","86","89721","0.0-86.0","3P4MQ7TPPYYDI1NVUBYWTQHDL1CBBP","A1UGD2VEVSML1U","36U4VBVNQOZD8NFWZXWF9CIHKRIURB","","786.4000000059605","img/food2.png","76","786.7999999821186","3","1","3","1","1,0.5,0,1,0.5,0,0.5,0,1","1,0.5,0,1,0.5,0,0.5,0,1","1","",""
"","html-keyboard-response","87","90023","0.0-87.0","3P4MQ7TPPYYDI1NVUBYWTQHDL1CBBP","A1UGD2VEVSML1U","36U4VBVNQOZD8NFWZXWF9CIHKRIURB","","null","<img src=""img/food2.png"" style=""width:200px; border:14px solid green;"">","null","","","","","","","","","",""
"","image-keyboard-response","88","90321","0.0-88.0","3P4MQ7TPPYYDI1NVUBYWTQHDL1CBBP","A1UGD2VEVSML1U","36U4VBVNQOZD8NFWZXWF9CIHKRIURB","","297.5","img/food2.png","76","298","3","1","3","1","1,0.5,0,1,0.5,0,0.5,0,1","1,0.5,0,1,0.5,0,0.5,0,1","1","",""
"","html-keyboard-response","89","90623","0.0-89.0","3P4MQ7TPPYYDI1NVUBYWTQHDL1CBBP","A1UGD2VEVSML1U","36U4VBVNQOZD8NFWZXWF9CIHKRIURB","","null","<img src=""img/food2.png"" style=""width:200px; border:14px solid green;"">","null","","","","","","","","","",""
"","image-keyboard-response","90","91217","0.0-90.0","3P4MQ7TPPYYDI1NVUBYWTQHDL1CBBP","A1UGD2VEVSML1U","36U4VBVNQOZD8NFWZXWF9CIHKRIURB","","593.5","img/food4.png","75","593.9000000059605","2","1","2","1","1,0.5,0,1,0.5,0,0.5,0,1","1,0.5,0,1,0.5,0,0.5,0,1","1","",""
"","html-keyboard-response","91","91519","0.0-91.0","3P4MQ7TPPYYDI1NVUBYWTQHDL1CBBP","A1UGD2VEVSML1U","36U4VBVNQOZD8NFWZXWF9CIHKRIURB","","null","<img src=""img/food4.png"" style=""width:200px; border:14px solid green;"">","null","","","","","","","","","",""
"","image-keyboard-response","92","92033","0.0-92.0","3P4MQ7TPPYYDI1NVUBYWTQHDL1CBBP","A1UGD2VEVSML1U","36U4VBVNQOZD8NFWZXWF9CIHKRIURB","","513.5999999940395","img/food4.png","75","514","2","1","2","1","1,0.5,0,1,0.5,0,0.5,0,1","1,0.5,0,1,0.5,0,0.5,0,1","1","",""
"","html-keyboard-response","93","92335","0.0-93.0","3P4MQ7TPPYYDI1NVUBYWTQHDL1CBBP","A1UGD2VEVSML1U","36U4VBVNQOZD8NFWZXWF9CIHKRIURB","","null","<img src=""img/food4.png"" style=""width:200px; border:14px solid green;"">","null","","","","","","","","","",""
"","image-keyboard-response","94","92633","0.0-94.0","3P4MQ7TPPYYDI1NVUBYWTQHDL1CBBP","A1UGD2VEVSML1U","36U4VBVNQOZD8NFWZXWF9CIHKRIURB","","297.59999999403954","img/food4.png","75","298.09999999403954","2","0","2","1","1,0.5,0,1,0.5,0,0.5,0,1","1,0.5,0,1,0.5,0,0.5,0,1","1","",""
"","html-keyboard-response","95","92934","0.0-95.0","3P4MQ7TPPYYDI1NVUBYWTQHDL1CBBP","A1UGD2VEVSML1U","36U4VBVNQOZD8NFWZXWF9CIHKRIURB","","null","<img src=""img/food4.png"" style=""width:200px;border:14px solid red;"">","null","","","","","","","","","",""
"","image-keyboard-response","96","93393","0.0-96.0","3P4MQ7TPPYYDI1NVUBYWTQHDL1CBBP","A1UGD2VEVSML1U","36U4VBVNQOZD8NFWZXWF9CIHKRIURB","","458.5","img/food4.png","75","459.09999999403954","2","0","2","1","1,0.5,0,1,0.5,0,0.5,0,1","1,0.5,0,1,0.5,0,0.5,0,1","1","",""
"","html-keyboard-response","97","93695","0.0-97.0","3P4MQ7TPPYYDI1NVUBYWTQHDL1CBBP","A1UGD2VEVSML1U","36U4VBVNQOZD8NFWZXWF9CIHKRIURB","","null","<img src=""img/food4.png"" style=""width:200px;border:14px solid red;"">","null","","","","","","","","","",""
"","image-keyboard-response","98","94657","0.0-98.0","3P4MQ7TPPYYDI1NVUBYWTQHDL1CBBP","A1UGD2VEVSML1U","36U4VBVNQOZD8NFWZXWF9CIHKRIURB","","961.5","img/food6.png","74","961.8999999761581","1","1","1","1","1,0.5,0,1,0.5,0,0.5,0,1","1,0.5,0,1,0.5,0,0.5,0,1","1","",""
"","html-keyboard-response","99","94958","0.0-99.0","3P4MQ7TPPYYDI1NVUBYWTQHDL1CBBP","A1UGD2VEVSML1U","36U4VBVNQOZD8NFWZXWF9CIHKRIURB","","null","<img src=""img/food6.png"" style=""width:200px; border:14px solid green;"">","null","","","","","","","","","",""
"","image-keyboard-response","100","95697","0.0-100.0","3P4MQ7TPPYYDI1NVUBYWTQHDL1CBBP","A1UGD2VEVSML1U","36U4VBVNQOZD8NFWZXWF9CIHKRIURB","","738.2999999821186","img/food2.png","76","738.8999999761581","3","1","3","1","1,0.5,0,1,0.5,0,0.5,0,1","1,0.5,0,1,0.5,0,0.5,0,1","1","",""
"","html-keyboard-response","101","95999","0.0-101.0","3P4MQ7TPPYYDI1NVUBYWTQHDL1CBBP","A1UGD2VEVSML1U","36U4VBVNQOZD8NFWZXWF9CIHKRIURB","","null","<img src=""img/food2.png"" style=""width:200px; border:14px solid green;"">","null","","","","","","","","","",""
"","image-keyboard-response","102","96545","0.0-102.0","3P4MQ7TPPYYDI1NVUBYWTQHDL1CBBP","A1UGD2VEVSML1U","36U4VBVNQOZD8NFWZXWF9CIHKRIURB","","545.7999999821186","img/food6.png","74","546.1999999880791","1","1","1","1","1,0.5,0,1,0.5,0,0.5,0,1","1,0.5,0,1,0.5,0,0.5,0,1","1","",""
"","html-keyboard-response","103","96847","0.0-103.0","3P4MQ7TPPYYDI1NVUBYWTQHDL1CBBP","A1UGD2VEVSML1U","36U4VBVNQOZD8NFWZXWF9CIHKRIURB","","null","<img src=""img/food6.png"" style=""width:200px; border:14px solid green;"">","null","","","","","","","","","",""
"","image-keyboard-response","104","97537","0.0-104.0","3P4MQ7TPPYYDI1NVUBYWTQHDL1CBBP","A1UGD2VEVSML1U","36U4VBVNQOZD8NFWZXWF9CIHKRIURB","","689.6999999880791","img/food2.png","76","690.0999999940395","3","1","3","1","1,0.5,0,1,0.5,0,0.5,0,1","1,0.5,0,1,0.5,0,0.5,0,1","1","",""
"","html-keyboard-response","105","97839","0.0-105.0","3P4MQ7TPPYYDI1NVUBYWTQHDL1CBBP","A1UGD2VEVSML1U","36U4VBVNQOZD8NFWZXWF9CIHKRIURB","","null","<img src=""img/food2.png"" style=""width:200px; border:14px solid green;"">","null","","","","","","","","","",""
"","image-keyboard-response","106","98233","0.0-106.0","3P4MQ7TPPYYDI1NVUBYWTQHDL1CBBP","A1UGD2VEVSML1U","36U4VBVNQOZD8NFWZXWF9CIHKRIURB","","393.7999999821186","img/food2.png","76","394.30000001192093","3","1","3","1","1,0.5,0,1,0.5,0,0.5,0,1","1,0.5,0,1,0.5,0,0.5,0,1","1","",""
"","html-keyboard-response","107","98534","0.0-107.0","3P4MQ7TPPYYDI1NVUBYWTQHDL1CBBP","A1UGD2VEVSML1U","36U4VBVNQOZD8NFWZXWF9CIHKRIURB","","null","<img src=""img/food2.png"" style=""width:200px; border:14px solid green;"">","null","","","","","","","","","",""
"","image-keyboard-response","108","99041","0.0-108.0","3P4MQ7TPPYYDI1NVUBYWTQHDL1CBBP","A1UGD2VEVSML1U","36U4VBVNQOZD8NFWZXWF9CIHKRIURB","","506.7000000178814","img/food6.png","74","507.09999999403954","1","1","1","1","1,0.5,0,1,0.5,0,0.5,0,1","1,0.5,0,1,0.5,0,0.5,0,1","1","",""
"","html-keyboard-response","109","99343","0.0-109.0","3P4MQ7TPPYYDI1NVUBYWTQHDL1CBBP","A1UGD2VEVSML1U","36U4VBVNQOZD8NFWZXWF9CIHKRIURB","","null","<img src=""img/food6.png"" style=""width:200px; border:14px solid green;"">","null","","","","","","","","","",""
"","image-keyboard-response","110","99889","0.0-110.0","3P4MQ7TPPYYDI1NVUBYWTQHDL1CBBP","A1UGD2VEVSML1U","36U4VBVNQOZD8NFWZXWF9CIHKRIURB","","545.5999999940395","img/food4.png","75","546.0999999940395","2","1","2","1","1,0.5,0,1,0.5,0,0.5,0,1","1,0.5,0,1,0.5,0,0.5,0,1","1","",""
"","html-keyboard-response","111","100191","0.0-111.0","3P4MQ7TPPYYDI1NVUBYWTQHDL1CBBP","A1UGD2VEVSML1U","36U4VBVNQOZD8NFWZXWF9CIHKRIURB","","null","<img src=""img/food4.png"" style=""width:200px; border:14px solid green;"">","null","","","","","","","","","",""
"","image-keyboard-response","112","100841","0.0-112.0","3P4MQ7TPPYYDI1NVUBYWTQHDL1CBBP","A1UGD2VEVSML1U","36U4VBVNQOZD8NFWZXWF9CIHKRIURB","","649.4000000059605","img/food6.png","74","649.8000000119209","1","1","1","1","1,0.5,0,1,0.5,0,0.5,0,1","1,0.5,0,1,0.5,0,0.5,0,1","1","",""
"","html-keyboard-response","113","101143","0.0-113.0","3P4MQ7TPPYYDI1NVUBYWTQHDL1CBBP","A1UGD2VEVSML1U","36U4VBVNQOZD8NFWZXWF9CIHKRIURB","","null","<img src=""img/food6.png"" style=""width:200px; border:14px solid green;"">","null","","","","","","","","","",""
"","image-keyboard-response","114","101689","0.0-114.0","3P4MQ7TPPYYDI1NVUBYWTQHDL1CBBP","A1UGD2VEVSML1U","36U4VBVNQOZD8NFWZXWF9CIHKRIURB","","545.5999999940395","img/food4.png","75","546","2","1","2","1","1,0.5,0,1,0.5,0,0.5,0,1","1,0.5,0,1,0.5,0,0.5,0,1","1","",""
"","html-keyboard-response","115","101991","0.0-115.0","3P4MQ7TPPYYDI1NVUBYWTQHDL1CBBP","A1UGD2VEVSML1U","36U4VBVNQOZD8NFWZXWF9CIHKRIURB","","null","<img src=""img/food4.png"" style=""width:200px; border:14px solid green;"">","null","","","","","","","","","",""
"","image-keyboard-response","116","102601","0.0-116.0","3P4MQ7TPPYYDI1NVUBYWTQHDL1CBBP","A1UGD2VEVSML1U","36U4VBVNQOZD8NFWZXWF9CIHKRIURB","","609.7999999821186","img/food2.png","76","610.3000000119209","3","1","3","1","1,0.5,0,1,0.5,0,0.5,0,1","1,0.5,0,1,0.5,0,0.5,0,1","1","",""
"","html-keyboard-response","117","102904","0.0-117.0","3P4MQ7TPPYYDI1NVUBYWTQHDL1CBBP","A1UGD2VEVSML1U","36U4VBVNQOZD8NFWZXWF9CIHKRIURB","","null","<img src=""img/food2.png"" style=""width:200px; border:14px solid green;"">","null","","","","","","","","","",""
"","image-keyboard-response","118","103481","0.0-118.0","3P4MQ7TPPYYDI1NVUBYWTQHDL1CBBP","A1UGD2VEVSML1U","36U4VBVNQOZD8NFWZXWF9CIHKRIURB","","576.5999999940395","img/food4.png","75","577.1000000238419","2","0","2","1","1,0.5,0,1,0.5,0,0.5,0,1","1,0.5,0,1,0.5,0,0.5,0,1","1","",""
"","html-keyboard-response","119","103782","0.0-119.0","3P4MQ7TPPYYDI1NVUBYWTQHDL1CBBP","A1UGD2VEVSML1U","36U4VBVNQOZD8NFWZXWF9CIHKRIURB","","null","<img src=""img/food4.png"" style=""width:200px;border:14px solid red;"">","null","","","","","","","","","",""
"","image-keyboard-response","120","104337","0.0-120.0","3P4MQ7TPPYYDI1NVUBYWTQHDL1CBBP","A1UGD2VEVSML1U","36U4VBVNQOZD8NFWZXWF9CIHKRIURB","","554.5999999940395","img/food6.png","74","555.1000000238419","1","1","1","1","1,0.5,0,1,0.5,0,0.5,0,1","1,0.5,0,1,0.5,0,0.5,0,1","1","",""
"","html-keyboard-response","121","104639","0.0-121.0","3P4MQ7TPPYYDI1NVUBYWTQHDL1CBBP","A1UGD2VEVSML1U","36U4VBVNQOZD8NFWZXWF9CIHKRIURB","","null","<img src=""img/food6.png"" style=""width:200px; border:14px solid green;"">","null","","","","","","","","","",""
"","image-keyboard-response","122","105601","0.0-122.0","3P4MQ7TPPYYDI1NVUBYWTQHDL1CBBP","A1UGD2VEVSML1U","36U4VBVNQOZD8NFWZXWF9CIHKRIURB","","961.6999999880791","img/food4.png","75","962.0999999940395","2","1","2","1","1,0.5,0,1,0.5,0,0.5,0,1","1,0.5,0,1,0.5,0,0.5,0,1","1","",""
"","html-keyboard-response","123","105915","0.0-123.0","3P4MQ7TPPYYDI1NVUBYWTQHDL1CBBP","A1UGD2VEVSML1U","36U4VBVNQOZD8NFWZXWF9CIHKRIURB","","null","<img src=""img/food4.png"" style=""width:200px; border:14px solid green;"">","null","","","","","","","","","",""
"","image-keyboard-response","124","106401","0.0-124.0","3P4MQ7TPPYYDI1NVUBYWTQHDL1CBBP","A1UGD2VEVSML1U","36U4VBVNQOZD8NFWZXWF9CIHKRIURB","","485.2999999821186","img/food2.png","76","485.90000000596046","3","1","3","1","1,0.5,0,1,0.5,0,0.5,0,1","1,0.5,0,1,0.5,0,0.5,0,1","1","",""
"","html-keyboard-response","125","106704","0.0-125.0","3P4MQ7TPPYYDI1NVUBYWTQHDL1CBBP","A1UGD2VEVSML1U","36U4VBVNQOZD8NFWZXWF9CIHKRIURB","","null","<img src=""img/food2.png"" style=""width:200px; border:14px solid green;"">","null","","","","","","","","","",""
"","image-keyboard-response","126","107161","0.0-126.0","3P4MQ7TPPYYDI1NVUBYWTQHDL1CBBP","A1UGD2VEVSML1U","36U4VBVNQOZD8NFWZXWF9CIHKRIURB","","456.59999999403954","img/food2.png","76","457.10000002384186","3","1","3","1","1,0.5,0,1,0.5,0,0.5,0,1","1,0.5,0,1,0.5,0,0.5,0,1","1","",""
"","html-keyboard-response","127","107462","0.0-127.0","3P4MQ7TPPYYDI1NVUBYWTQHDL1CBBP","A1UGD2VEVSML1U","36U4VBVNQOZD8NFWZXWF9CIHKRIURB","","null","<img src=""img/food2.png"" style=""width:200px; border:14px solid green;"">","null","","","","","","","","","",""
"","image-keyboard-response","128","108033","0.0-128.0","3P4MQ7TPPYYDI1NVUBYWTQHDL1CBBP","A1UGD2VEVSML1U","36U4VBVNQOZD8NFWZXWF9CIHKRIURB","","570.6999999880791","img/food4.png","75","571.0999999940395","2","0","2","1","1,0.5,0,1,0.5,0,0.5,0,1","1,0.5,0,1,0.5,0,0.5,0,1","1","",""
"","html-keyboard-response","129","108335","0.0-129.0","3P4MQ7TPPYYDI1NVUBYWTQHDL1CBBP","A1UGD2VEVSML1U","36U4VBVNQOZD8NFWZXWF9CIHKRIURB","","null","<img src=""img/food4.png"" style=""width:200px;border:14px solid red;"">","null","","","","","","","","","",""
"","image-keyboard-response","130","108769","0.0-130.0","3P4MQ7TPPYYDI1NVUBYWTQHDL1CBBP","A1UGD2VEVSML1U","36U4VBVNQOZD8NFWZXWF9CIHKRIURB","","433.40000000596046","img/food4.png","75","433.89999997615814","2","0","2","1","1,0.5,0,1,0.5,0,0.5,0,1","1,0.5,0,1,0.5,0,0.5,0,1","1","",""
"","html-keyboard-response","131","109071","0.0-131.0","3P4MQ7TPPYYDI1NVUBYWTQHDL1CBBP","A1UGD2VEVSML1U","36U4VBVNQOZD8NFWZXWF9CIHKRIURB","","null","<img src=""img/food4.png"" style=""width:200px;border:14px solid red;"">","null","","","","","","","","","",""
"","image-keyboard-response","132","109569","0.0-132.0","3P4MQ7TPPYYDI1NVUBYWTQHDL1CBBP","A1UGD2VEVSML1U","36U4VBVNQOZD8NFWZXWF9CIHKRIURB","","497.69999998807907","img/food2.png","74","498.09999999403954","1","0","3","1","1,0.5,0,1,0.5,0,0.5,0,1","1,0.5,0,1,0.5,0,0.5,0,1","1","",""
"","html-keyboard-response","133","109871","0.0-133.0","3P4MQ7TPPYYDI1NVUBYWTQHDL1CBBP","A1UGD2VEVSML1U","36U4VBVNQOZD8NFWZXWF9CIHKRIURB","","null","<img src=""img/food2.png"" style=""width:200px;border:14px solid red;"">","null","","","","","","","","","",""
"","image-keyboard-response","134","110489","0.0-134.0","3P4MQ7TPPYYDI1NVUBYWTQHDL1CBBP","A1UGD2VEVSML1U","36U4VBVNQOZD8NFWZXWF9CIHKRIURB","","617.4000000059605","img/food6.png","74","617.6999999880791","1","1","1","1","1,0.5,0,1,0.5,0,0.5,0,1","1,0.5,0,1,0.5,0,0.5,0,1","1","",""
"","html-keyboard-response","135","110801","0.0-135.0","3P4MQ7TPPYYDI1NVUBYWTQHDL1CBBP","A1UGD2VEVSML1U","36U4VBVNQOZD8NFWZXWF9CIHKRIURB","","null","<img src=""img/food6.png"" style=""width:200px; border:14px solid green;"">","null","","","","","","","","","",""
"","image-keyboard-response","136","111601","0.0-136.0","3P4MQ7TPPYYDI1NVUBYWTQHDL1CBBP","A1UGD2VEVSML1U","36U4VBVNQOZD8NFWZXWF9CIHKRIURB","","799.5999999940395","img/food2.png","76","800.0999999940395","3","1","3","1","1,0.5,0,1,0.5,0,0.5,0,1","1,0.5,0,1,0.5,0,0.5,0,1","1","",""
"","html-keyboard-response","137","111903","0.0-137.0","3P4MQ7TPPYYDI1NVUBYWTQHDL1CBBP","A1UGD2VEVSML1U","36U4VBVNQOZD8NFWZXWF9CIHKRIURB","","null","<img src=""img/food2.png"" style=""width:200px; border:14px solid green;"">","null","","","","","","","","","",""
"","image-keyboard-response","138","112529","0.0-138.0","3P4MQ7TPPYYDI1NVUBYWTQHDL1CBBP","A1UGD2VEVSML1U","36U4VBVNQOZD8NFWZXWF9CIHKRIURB","","625.4000000059605","img/food6.png","74","625.8000000119209","1","1","1","1","1,0.5,0,1,0.5,0,0.5,0,1","1,0.5,0,1,0.5,0,0.5,0,1","1","",""
"","html-keyboard-response","139","112830","0.0-139.0","3P4MQ7TPPYYDI1NVUBYWTQHDL1CBBP","A1UGD2VEVSML1U","36U4VBVNQOZD8NFWZXWF9CIHKRIURB","","null","<img src=""img/food6.png"" style=""width:200px; border:14px solid green;"">","null","","","","","","","","","",""
"","image-keyboard-response","140","113169","0.0-140.0","3P4MQ7TPPYYDI1NVUBYWTQHDL1CBBP","A1UGD2VEVSML1U","36U4VBVNQOZD8NFWZXWF9CIHKRIURB","","338.5","img/food6.png","74","339.19999998807907","1","1","1","1","1,0.5,0,1,0.5,0,0.5,0,1","1,0.5,0,1,0.5,0,0.5,0,1","1","",""
"","html-keyboard-response","141","113471","0.0-141.0","3P4MQ7TPPYYDI1NVUBYWTQHDL1CBBP","A1UGD2VEVSML1U","36U4VBVNQOZD8NFWZXWF9CIHKRIURB","","null","<img src=""img/food6.png"" style=""width:200px; border:14px solid green;"">","null","","","","","","","","","",""
"","image-keyboard-response","142","113769","0.0-142.0","3P4MQ7TPPYYDI1NVUBYWTQHDL1CBBP","A1UGD2VEVSML1U","36U4VBVNQOZD8NFWZXWF9CIHKRIURB","","297.59999999403954","img/food6.png","74","298.10000002384186","1","1","1","1","1,0.5,0,1,0.5,0,0.5,0,1","1,0.5,0,1,0.5,0,0.5,0,1","1","",""
"","html-keyboard-response","143","114071","0.0-143.0","3P4MQ7TPPYYDI1NVUBYWTQHDL1CBBP","A1UGD2VEVSML1U","36U4VBVNQOZD8NFWZXWF9CIHKRIURB","","null","<img src=""img/food6.png"" style=""width:200px; border:14px solid green;"">","null","","","","","","","","","",""
"","image-keyboard-response","144","114425","0.0-144.0","3P4MQ7TPPYYDI1NVUBYWTQHDL1CBBP","A1UGD2VEVSML1U","36U4VBVNQOZD8NFWZXWF9CIHKRIURB","","353.69999998807907","img/food6.png","74","354","1","1","1","1","1,0.5,0,1,0.5,0,0.5,0,1","1,0.5,0,1,0.5,0,0.5,0,1","1","",""
"","html-keyboard-response","145","114726","0.0-145.0","3P4MQ7TPPYYDI1NVUBYWTQHDL1CBBP","A1UGD2VEVSML1U","36U4VBVNQOZD8NFWZXWF9CIHKRIURB","","null","<img src=""img/food6.png"" style=""width:200px; border:14px solid green;"">","null","","","","","","","","","",""
"","image-keyboard-response","146","115329","0.0-146.0","3P4MQ7TPPYYDI1NVUBYWTQHDL1CBBP","A1UGD2VEVSML1U","36U4VBVNQOZD8NFWZXWF9CIHKRIURB","","602.3000000119209","img/food4.png","75","602.6999999880791","2","0","2","1","1,0.5,0,1,0.5,0,0.5,0,1","1,0.5,0,1,0.5,0,0.5,0,1","1","",""
"","html-keyboard-response","147","115630","0.0-147.0","3P4MQ7TPPYYDI1NVUBYWTQHDL1CBBP","A1UGD2VEVSML1U","36U4VBVNQOZD8NFWZXWF9CIHKRIURB","","null","<img src=""img/food4.png"" style=""width:200px;border:14px solid red;"">","null","","","","","","","","","",""
"","image-keyboard-response","148","116305","0.0-148.0","3P4MQ7TPPYYDI1NVUBYWTQHDL1CBBP","A1UGD2VEVSML1U","36U4VBVNQOZD8NFWZXWF9CIHKRIURB","","674.3000000119209","img/food4.png","75","674.5999999940395","2","1","2","1","1,0.5,0,1,0.5,0,0.5,0,1","1,0.5,0,1,0.5,0,0.5,0,1","1","",""
"","html-keyboard-response","149","116607","0.0-149.0","3P4MQ7TPPYYDI1NVUBYWTQHDL1CBBP","A1UGD2VEVSML1U","36U4VBVNQOZD8NFWZXWF9CIHKRIURB","","null","<img src=""img/food4.png"" style=""width:200px; border:14px solid green;"">","null","","","","","","","","","",""
"","image-keyboard-response","150","117233","0.0-150.0","3P4MQ7TPPYYDI1NVUBYWTQHDL1CBBP","A1UGD2VEVSML1U","36U4VBVNQOZD8NFWZXWF9CIHKRIURB","","625.7999999821186","img/food2.png","76","626.2000000178814","3","1","3","1","1,0.5,0,1,0.5,0,0.5,0,1","1,0.5,0,1,0.5,0,0.5,0,1","1","",""
"","html-keyboard-response","151","117534","0.0-151.0","3P4MQ7TPPYYDI1NVUBYWTQHDL1CBBP","A1UGD2VEVSML1U","36U4VBVNQOZD8NFWZXWF9CIHKRIURB","","null","<img src=""img/food2.png"" style=""width:200px; border:14px solid green;"">","null","","","","","","","","","",""
"","image-keyboard-response","152","117961","0.0-152.0","3P4MQ7TPPYYDI1NVUBYWTQHDL1CBBP","A1UGD2VEVSML1U","36U4VBVNQOZD8NFWZXWF9CIHKRIURB","","426.30000001192093","img/food2.png","76","426.59999999403954","3","1","3","1","1,0.5,0,1,0.5,0,0.5,0,1","1,0.5,0,1,0.5,0,0.5,0,1","1","",""
"","html-keyboard-response","153","118263","0.0-153.0","3P4MQ7TPPYYDI1NVUBYWTQHDL1CBBP","A1UGD2VEVSML1U","36U4VBVNQOZD8NFWZXWF9CIHKRIURB","","null","<img src=""img/food2.png"" style=""width:200px; border:14px solid green;"">","null","","","","","","","","","",""
"","image-keyboard-response","154","119201","0.0-154.0","3P4MQ7TPPYYDI1NVUBYWTQHDL1CBBP","A1UGD2VEVSML1U","36U4VBVNQOZD8NFWZXWF9CIHKRIURB","","937.3000000119209","img/food4.png","75","937.7999999821186","2","0","2","1","1,0.5,0,1,0.5,0,0.5,0,1","1,0.5,0,1,0.5,0,0.5,0,1","1","",""
"","html-keyboard-response","155","119502","0.0-155.0","3P4MQ7TPPYYDI1NVUBYWTQHDL1CBBP","A1UGD2VEVSML1U","36U4VBVNQOZD8NFWZXWF9CIHKRIURB","","null","<img src=""img/food4.png"" style=""width:200px;border:14px solid red;"">","null","","","","","","","","","",""
"","image-keyboard-response","156","120465","0.0-156.0","3P4MQ7TPPYYDI1NVUBYWTQHDL1CBBP","A1UGD2VEVSML1U","36U4VBVNQOZD8NFWZXWF9CIHKRIURB","","962.5999999940395","img/food4.png","75","963.1999999880791","2","1","2","1","1,0.5,0,1,0.5,0,0.5,0,1","1,0.5,0,1,0.5,0,0.5,0,1","1","",""
"","html-keyboard-response","157","120766","0.0-157.0","3P4MQ7TPPYYDI1NVUBYWTQHDL1CBBP","A1UGD2VEVSML1U","36U4VBVNQOZD8NFWZXWF9CIHKRIURB","","null","<img src=""img/food4.png"" style=""width:200px; border:14px solid green;"">","null","","","","","","","","","",""
"","image-keyboard-response","158","121393","0.0-158.0","3P4MQ7TPPYYDI1NVUBYWTQHDL1CBBP","A1UGD2VEVSML1U","36U4VBVNQOZD8NFWZXWF9CIHKRIURB","","626.0999999940395","img/food2.png","76","626.6999999880791","3","1","3","1","1,0.5,0,1,0.5,0,0.5,0,1","1,0.5,0,1,0.5,0,0.5,0,1","1","",""
"","html-keyboard-response","159","121694","0.0-159.0","3P4MQ7TPPYYDI1NVUBYWTQHDL1CBBP","A1UGD2VEVSML1U","36U4VBVNQOZD8NFWZXWF9CIHKRIURB","","null","<img src=""img/food2.png"" style=""width:200px; border:14px solid green;"">","null","","","","","","","","","",""
"","image-keyboard-response","160","122137","0.0-160.0","3P4MQ7TPPYYDI1NVUBYWTQHDL1CBBP","A1UGD2VEVSML1U","36U4VBVNQOZD8NFWZXWF9CIHKRIURB","","442.5","img/food6.png","74","443","1","1","1","1","1,0.5,0,1,0.5,0,0.5,0,1","1,0.5,0,1,0.5,0,0.5,0,1","1","",""
"","html-keyboard-response","161","122439","0.0-161.0","3P4MQ7TPPYYDI1NVUBYWTQHDL1CBBP","A1UGD2VEVSML1U","36U4VBVNQOZD8NFWZXWF9CIHKRIURB","","null","<img src=""img/food6.png"" style=""width:200px; border:14px solid green;"">","null","","","","","","","","","",""
"","image-keyboard-response","162","123025","0.0-162.0","3P4MQ7TPPYYDI1NVUBYWTQHDL1CBBP","A1UGD2VEVSML1U","36U4VBVNQOZD8NFWZXWF9CIHKRIURB","","585.5","img/food4.png","75","585.8999999761581","2","1","2","1","1,0.5,0,1,0.5,0,0.5,0,1","1,0.5,0,1,0.5,0,0.5,0,1","1","",""
"","html-keyboard-response","163","123326","0.0-163.0","3P4MQ7TPPYYDI1NVUBYWTQHDL1CBBP","A1UGD2VEVSML1U","36U4VBVNQOZD8NFWZXWF9CIHKRIURB","","null","<img src=""img/food4.png"" style=""width:200px; border:14px solid green;"">","null","","","","","","","","","",""
"","image-keyboard-response","164","124098","0.0-164.0","3P4MQ7TPPYYDI1NVUBYWTQHDL1CBBP","A1UGD2VEVSML1U","36U4VBVNQOZD8NFWZXWF9CIHKRIURB","","770.7000000178814","img/food6.png","74","771.1999999880791","1","1","1","1","1,0.5,0,1,0.5,0,0.5,0,1","1,0.5,0,1,0.5,0,0.5,0,1","1","",""
"","html-keyboard-response","165","124407","0.0-165.0","3P4MQ7TPPYYDI1NVUBYWTQHDL1CBBP","A1UGD2VEVSML1U","36U4VBVNQOZD8NFWZXWF9CIHKRIURB","","null","<img src=""img/food6.png"" style=""width:200px; border:14px solid green;"">","null","","","","","","","","","",""
"","image-keyboard-response","166","124929","0.0-166.0","3P4MQ7TPPYYDI1NVUBYWTQHDL1CBBP","A1UGD2VEVSML1U","36U4VBVNQOZD8NFWZXWF9CIHKRIURB","","521.6999999880791","img/food4.png","75","522.1999999880791","2","0","2","1","1,0.5,0,1,0.5,0,0.5,0,1","1,0.5,0,1,0.5,0,0.5,0,1","1","",""
"","html-keyboard-response","167","125230","0.0-167.0","3P4MQ7TPPYYDI1NVUBYWTQHDL1CBBP","A1UGD2VEVSML1U","36U4VBVNQOZD8NFWZXWF9CIHKRIURB","","null","<img src=""img/food4.png"" style=""width:200px;border:14px solid red;"">","null","","","","","","","","","",""
"","image-keyboard-response","168","126025","0.0-168.0","3P4MQ7TPPYYDI1NVUBYWTQHDL1CBBP","A1UGD2VEVSML1U","36U4VBVNQOZD8NFWZXWF9CIHKRIURB","","794.3000000119209","img/food2.png","76","794.7999999821186","3","1","3","1","1,0.5,0,1,0.5,0,0.5,0,1","1,0.5,0,1,0.5,0,0.5,0,1","1","",""
"","html-keyboard-response","169","126326","0.0-169.0","3P4MQ7TPPYYDI1NVUBYWTQHDL1CBBP","A1UGD2VEVSML1U","36U4VBVNQOZD8NFWZXWF9CIHKRIURB","","null","<img src=""img/food2.png"" style=""width:200px; border:14px solid green;"">","null","","","","","","","","","",""
"","image-keyboard-response","170","126945","0.0-170.0","3P4MQ7TPPYYDI1NVUBYWTQHDL1CBBP","A1UGD2VEVSML1U","36U4VBVNQOZD8NFWZXWF9CIHKRIURB","","618.5999999940395","img/food4.png","75","619","2","1","2","1","1,0.5,0,1,0.5,0,0.5,0,1","1,0.5,0,1,0.5,0,0.5,0,1","1","",""
"","html-keyboard-response","171","127246","0.0-171.0","3P4MQ7TPPYYDI1NVUBYWTQHDL1CBBP","A1UGD2VEVSML1U","36U4VBVNQOZD8NFWZXWF9CIHKRIURB","","null","<img src=""img/food4.png"" style=""width:200px; border:14px solid green;"">","null","","","","","","","","","",""
"","image-keyboard-response","172","127689","0.0-172.0","3P4MQ7TPPYYDI1NVUBYWTQHDL1CBBP","A1UGD2VEVSML1U","36U4VBVNQOZD8NFWZXWF9CIHKRIURB","","442.69999998807907","img/food4.png","75","443.19999998807907","2","0","2","1","1,0.5,0,1,0.5,0,0.5,0,1","1,0.5,0,1,0.5,0,0.5,0,1","1","",""
"","html-keyboard-response","173","127990","0.0-173.0","3P4MQ7TPPYYDI1NVUBYWTQHDL1CBBP","A1UGD2VEVSML1U","36U4VBVNQOZD8NFWZXWF9CIHKRIURB","","null","<img src=""img/food4.png"" style=""width:200px;border:14px solid red;"">","null","","","","","","","","","",""
"","image-keyboard-response","174","128457","0.0-174.0","3P4MQ7TPPYYDI1NVUBYWTQHDL1CBBP","A1UGD2VEVSML1U","36U4VBVNQOZD8NFWZXWF9CIHKRIURB","","466.5","img/food6.png","74","466.7999999821186","1","1","1","1","1,0.5,0,1,0.5,0,0.5,0,1","1,0.5,0,1,0.5,0,0.5,0,1","1","",""
"","html-keyboard-response","175","128759","0.0-175.0","3P4MQ7TPPYYDI1NVUBYWTQHDL1CBBP","A1UGD2VEVSML1U","36U4VBVNQOZD8NFWZXWF9CIHKRIURB","","null","<img src=""img/food6.png"" style=""width:200px; border:14px solid green;"">","null","","","","","","","","","",""
"","image-keyboard-response","176","129137","0.0-176.0","3P4MQ7TPPYYDI1NVUBYWTQHDL1CBBP","A1UGD2VEVSML1U","36U4VBVNQOZD8NFWZXWF9CIHKRIURB","","377.69999998807907","img/food6.png","74","378.09999999403954","1","1","1","1","1,0.5,0,1,0.5,0,0.5,0,1","1,0.5,0,1,0.5,0,0.5,0,1","1","",""
"","html-keyboard-response","177","129439","0.0-177.0","3P4MQ7TPPYYDI1NVUBYWTQHDL1CBBP","A1UGD2VEVSML1U","36U4VBVNQOZD8NFWZXWF9CIHKRIURB","","null","<img src=""img/food6.png"" style=""width:200px; border:14px solid green;"">","null","","","","","","","","","",""
"","image-keyboard-response","178","129745","0.0-178.0","3P4MQ7TPPYYDI1NVUBYWTQHDL1CBBP","A1UGD2VEVSML1U","36U4VBVNQOZD8NFWZXWF9CIHKRIURB","","305.40000000596046","img/food6.png","74","305.69999998807907","1","1","1","1","1,0.5,0,1,0.5,0,0.5,0,1","1,0.5,0,1,0.5,0,0.5,0,1","1","",""
"","html-keyboard-response","179","130047","0.0-179.0","3P4MQ7TPPYYDI1NVUBYWTQHDL1CBBP","A1UGD2VEVSML1U","36U4VBVNQOZD8NFWZXWF9CIHKRIURB","","null","<img src=""img/food6.png"" style=""width:200px; border:14px solid green;"">","null","","","","","","","","","",""
"","image-keyboard-response","180","130553","0.0-180.0","3P4MQ7TPPYYDI1NVUBYWTQHDL1CBBP","A1UGD2VEVSML1U","36U4VBVNQOZD8NFWZXWF9CIHKRIURB","","505.5","img/food4.png","75","506","2","1","2","1","1,0.5,0,1,0.5,0,0.5,0,1","1,0.5,0,1,0.5,0,0.5,0,1","1","",""
"","html-keyboard-response","181","130868","0.0-181.0","3P4MQ7TPPYYDI1NVUBYWTQHDL1CBBP","A1UGD2VEVSML1U","36U4VBVNQOZD8NFWZXWF9CIHKRIURB","","null","<img src=""img/food4.png"" style=""width:200px; border:14px solid green;"">","null","","","","","","","","","",""
"","html-keyboard-response","182","132995","0.0-182.0","3P4MQ7TPPYYDI1NVUBYWTQHDL1CBBP","A1UGD2VEVSML1U","36U4VBVNQOZD8NFWZXWF9CIHKRIURB","","","","","","","","","","","","","",""
"","instructions","183","136747","0.0-183.0","3P4MQ7TPPYYDI1NVUBYWTQHDL1CBBP","A1UGD2VEVSML1U","36U4VBVNQOZD8NFWZXWF9CIHKRIURB","[{""page_index"":0,""viewing_time"":2598.4000000059605},{""page_index"":1,""viewing_time"":1152.9000000059605}]","3751.5","","","","","","","","","","","",""
"","image-keyboard-response","184","137425","0.0-184.0","3P4MQ7TPPYYDI1NVUBYWTQHDL1CBBP","A1UGD2VEVSML1U","36U4VBVNQOZD8NFWZXWF9CIHKRIURB","","677.1999999880791","img/food5.png","76","678","3","0","2","2","1,0.5,0,1,0.5,0,0.5,0,1","1,0.5,0,1,0.5,0,0.5,0,1","1","false",""
"","html-keyboard-response","185","137727","0.0-185.0","3P4MQ7TPPYYDI1NVUBYWTQHDL1CBBP","A1UGD2VEVSML1U","36U4VBVNQOZD8NFWZXWF9CIHKRIURB","","null","<img src=""img/food5.png"" style=""width:200px;border:14px solid red;"">","null","","","","","","","","","",""
"","image-keyboard-response","186","138281","0.0-187.0","3P4MQ7TPPYYDI1NVUBYWTQHDL1CBBP","A1UGD2VEVSML1U","36U4VBVNQOZD8NFWZXWF9CIHKRIURB","","553.3999999761581","img/food1.png","74","553.8000000119209","1","0","3","2","1,0.5,0,1,0.5,0,0.5,0,1","1,0.5,0,1,0.5,0,0.5,0,1","1","false",""
"","html-keyboard-response","187","138582","0.0-188.0","3P4MQ7TPPYYDI1NVUBYWTQHDL1CBBP","A1UGD2VEVSML1U","36U4VBVNQOZD8NFWZXWF9CIHKRIURB","","null","<img src=""img/food1.png"" style=""width:200px;border:14px solid red;"">","null","","","","","","","","","",""
"","image-keyboard-response","188","139241","0.0-190.0","3P4MQ7TPPYYDI1NVUBYWTQHDL1CBBP","A1UGD2VEVSML1U","36U4VBVNQOZD8NFWZXWF9CIHKRIURB","","658.4000000059605","img/food1.png","74","658.6999999880791","1","1","3","2","1,0.5,0,1,0.5,0,0.5,0,1","1,0.5,0,1,0.5,0,0.5,0,1","1","false",""
"","html-keyboard-response","189","139543","0.0-191.0","3P4MQ7TPPYYDI1NVUBYWTQHDL1CBBP","A1UGD2VEVSML1U","36U4VBVNQOZD8NFWZXWF9CIHKRIURB","","null","<img src=""img/food1.png"" style=""width:200px; border:14px solid green;"">","null","","","","","","","","","",""
"","image-keyboard-response","190","140489","0.0-193.0","3P4MQ7TPPYYDI1NVUBYWTQHDL1CBBP","A1UGD2VEVSML1U","36U4VBVNQOZD8NFWZXWF9CIHKRIURB","","945.6999999880791","img/food3.png","75","946","2","1","1","2","1,0.5,0,1,0.5,0,0.5,0,1","1,0.5,0,1,0.5,0,0.5,0,1","1","false",""
"","html-keyboard-response","191","140790","0.0-194.0","3P4MQ7TPPYYDI1NVUBYWTQHDL1CBBP","A1UGD2VEVSML1U","36U4VBVNQOZD8NFWZXWF9CIHKRIURB","","null","<img src=""img/food3.png"" style=""width:200px; border:14px solid green;"">","null","","","","","","","","","",""
"","image-keyboard-response","192","141209","0.0-196.0","3P4MQ7TPPYYDI1NVUBYWTQHDL1CBBP","A1UGD2VEVSML1U","36U4VBVNQOZD8NFWZXWF9CIHKRIURB","","418.09999999403954","img/food1.png","74","418.59999999403954","1","1","3","2","1,0.5,0,1,0.5,0,0.5,0,1","1,0.5,0,1,0.5,0,0.5,0,1","1","false",""
"","html-keyboard-response","193","141511","0.0-197.0","3P4MQ7TPPYYDI1NVUBYWTQHDL1CBBP","A1UGD2VEVSML1U","36U4VBVNQOZD8NFWZXWF9CIHKRIURB","","null","<img src=""img/food1.png"" style=""width:200px; border:14px solid green;"">","null","","","","","","","","","",""
"","image-keyboard-response","194","142161","0.0-199.0","3P4MQ7TPPYYDI1NVUBYWTQHDL1CBBP","A1UGD2VEVSML1U","36U4VBVNQOZD8NFWZXWF9CIHKRIURB","","649.5","img/food5.png","76","650","3","0","2","2","1,0.5,0,1,0.5,0,0.5,0,1","1,0.5,0,1,0.5,0,0.5,0,1","1","false",""
"","html-keyboard-response","195","142463","0.0-200.0","3P4MQ7TPPYYDI1NVUBYWTQHDL1CBBP","A1UGD2VEVSML1U","36U4VBVNQOZD8NFWZXWF9CIHKRIURB","","null","<img src=""img/food5.png"" style=""width:200px;border:14px solid red;"">","null","","","","","","","","","",""
"","image-keyboard-response","196","143137","0.0-202.0","3P4MQ7TPPYYDI1NVUBYWTQHDL1CBBP","A1UGD2VEVSML1U","36U4VBVNQOZD8NFWZXWF9CIHKRIURB","","673.3000000119209","img/food3.png","74","673.8999999761581","1","1","1","2","1,0.5,0,1,0.5,0,0.5,0,1","1,0.5,0,1,0.5,0,0.5,0,1","1","false",""
"","html-keyboard-response","197","143439","0.0-203.0","3P4MQ7TPPYYDI1NVUBYWTQHDL1CBBP","A1UGD2VEVSML1U","36U4VBVNQOZD8NFWZXWF9CIHKRIURB","","null","<img src=""img/food3.png"" style=""width:200px; border:14px solid green;"">","null","","","","","","","","","",""
"","image-keyboard-response","198","144049","0.0-205.0","3P4MQ7TPPYYDI1NVUBYWTQHDL1CBBP","A1UGD2VEVSML1U","36U4VBVNQOZD8NFWZXWF9CIHKRIURB","","609.9000000059605","img/food1.png","75","610.1999999880791","2","0","3","2","1,0.5,0,1,0.5,0,0.5,0,1","1,0.5,0,1,0.5,0,0.5,0,1","1","false",""
"","html-keyboard-response","199","144351","0.0-206.0","3P4MQ7TPPYYDI1NVUBYWTQHDL1CBBP","A1UGD2VEVSML1U","36U4VBVNQOZD8NFWZXWF9CIHKRIURB","","null","<img src=""img/food1.png"" style=""width:200px;border:14px solid red;"">","null","","","","","","","","","",""
"","image-keyboard-response","200","144649","0.0-208.0","3P4MQ7TPPYYDI1NVUBYWTQHDL1CBBP","A1UGD2VEVSML1U","36U4VBVNQOZD8NFWZXWF9CIHKRIURB","","297.59999999403954","img/food5.png","74","298","1","1","2","2","1,0.5,0,1,0.5,0,0.5,0,1","1,0.5,0,1,0.5,0,0.5,0,1","1","false",""
"","html-keyboard-response","201","144955","0.0-209.0","3P4MQ7TPPYYDI1NVUBYWTQHDL1CBBP","A1UGD2VEVSML1U","36U4VBVNQOZD8NFWZXWF9CIHKRIURB","","null","<img src=""img/food5.png"" style=""width:200px; border:14px solid green;"">","null","","","","","","","","","",""
"","image-keyboard-response","202","145281","0.0-211.0","3P4MQ7TPPYYDI1NVUBYWTQHDL1CBBP","A1UGD2VEVSML1U","36U4VBVNQOZD8NFWZXWF9CIHKRIURB","","325.69999998807907","img/food5.png","74","326.10000002384186","1","1","2","2","1,0.5,0,1,0.5,0,0.5,0,1","1,0.5,0,1,0.5,0,0.5,0,1","1","false",""
"","html-keyboard-response","203","145582","0.0-212.0","3P4MQ7TPPYYDI1NVUBYWTQHDL1CBBP","A1UGD2VEVSML1U","36U4VBVNQOZD8NFWZXWF9CIHKRIURB","","null","<img src=""img/food5.png"" style=""width:200px; border:14px solid green;"">","null","","","","","","","","","",""
"","image-keyboard-response","204","145977","0.0-214.0","3P4MQ7TPPYYDI1NVUBYWTQHDL1CBBP","A1UGD2VEVSML1U","36U4VBVNQOZD8NFWZXWF9CIHKRIURB","","394.39999997615814","img/food1.png","76","394.90000000596046","3","1","3","2","1,0.5,0,1,0.5,0,0.5,0,1","1,0.5,0,1,0.5,0,0.5,0,1","1","false",""
"","html-keyboard-response","205","146279","0.0-215.0","3P4MQ7TPPYYDI1NVUBYWTQHDL1CBBP","A1UGD2VEVSML1U","36U4VBVNQOZD8NFWZXWF9CIHKRIURB","","null","<img src=""img/food1.png"" style=""width:200px; border:14px solid green;"">","null","","","","","","","","","",""
"","image-keyboard-response","206","146553","0.0-217.0","3P4MQ7TPPYYDI1NVUBYWTQHDL1CBBP","A1UGD2VEVSML1U","36U4VBVNQOZD8NFWZXWF9CIHKRIURB","","273.89999997615814","img/food5.png","74","274.2000000178814","1","1","2","2","1,0.5,0,1,0.5,0,0.5,0,1","1,0.5,0,1,0.5,0,0.5,0,1","1","false",""
"","html-keyboard-response","207","146860","0.0-218.0","3P4MQ7TPPYYDI1NVUBYWTQHDL1CBBP","A1UGD2VEVSML1U","36U4VBVNQOZD8NFWZXWF9CIHKRIURB","","null","<img src=""img/food5.png"" style=""width:200px; border:14px solid green;"">","null","","","","","","","","","",""
"","image-keyboard-response","208","147057","0.0-220.0","3P4MQ7TPPYYDI1NVUBYWTQHDL1CBBP","A1UGD2VEVSML1U","36U4VBVNQOZD8NFWZXWF9CIHKRIURB","","196.40000000596046","img/food5.png","76","196.90000000596046","3","0","2","2","1,0.5,0,1,0.5,0,0.5,0,1","1,0.5,0,1,0.5,0,0.5,0,1","1","false",""
"","html-keyboard-response","209","147361","0.0-221.0","3P4MQ7TPPYYDI1NVUBYWTQHDL1CBBP","A1UGD2VEVSML1U","36U4VBVNQOZD8NFWZXWF9CIHKRIURB","","null","<img src=""img/food5.png"" style=""width:200px;border:14px solid red;"">","null","","","","","","","","","",""
"","image-keyboard-response","210","147665","0.0-223.0","3P4MQ7TPPYYDI1NVUBYWTQHDL1CBBP","A1UGD2VEVSML1U","36U4VBVNQOZD8NFWZXWF9CIHKRIURB","","303.19999998807907","img/food3.png","75","303.59999999403954","2","0","1","2","1,0.5,0,1,0.5,0,0.5,0,1","1,0.5,0,1,0.5,0,0.5,0,1","1","false",""
"","html-keyboard-response","211","147966","0.0-224.0","3P4MQ7TPPYYDI1NVUBYWTQHDL1CBBP","A1UGD2VEVSML1U","36U4VBVNQOZD8NFWZXWF9CIHKRIURB","","null","<img src=""img/food3.png"" style=""width:200px;border:14px solid red;"">","null","","","","","","","","","",""
"","image-keyboard-response","212","148153","0.0-226.0","3P4MQ7TPPYYDI1NVUBYWTQHDL1CBBP","A1UGD2VEVSML1U","36U4VBVNQOZD8NFWZXWF9CIHKRIURB","","186.19999998807907","img/food3.png","74","186.90000000596046","1","1","1","2","1,0.5,0,1,0.5,0,0.5,0,1","1,0.5,0,1,0.5,0,0.5,0,1","1","false",""
"","html-keyboard-response","213","148454","0.0-227.0","3P4MQ7TPPYYDI1NVUBYWTQHDL1CBBP","A1UGD2VEVSML1U","36U4VBVNQOZD8NFWZXWF9CIHKRIURB","","null","<img src=""img/food3.png"" style=""width:200px; border:14px solid green;"">","null","","","","","","","","","",""
"","image-keyboard-response","214","148745","0.0-229.0","3P4MQ7TPPYYDI1NVUBYWTQHDL1CBBP","A1UGD2VEVSML1U","36U4VBVNQOZD8NFWZXWF9CIHKRIURB","","290.19999998807907","img/food3.png","74","290.59999999403954","1","1","1","2","1,0.5,0,1,0.5,0,0.5,0,1","1,0.5,0,1,0.5,0,0.5,0,1","1","false",""
"","html-keyboard-response","215","149047","0.0-230.0","3P4MQ7TPPYYDI1NVUBYWTQHDL1CBBP","A1UGD2VEVSML1U","36U4VBVNQOZD8NFWZXWF9CIHKRIURB","","null","<img src=""img/food3.png"" style=""width:200px; border:14px solid green;"">","null","","","","","","","","","",""
"","image-keyboard-response","216","149585","0.0-232.0","3P4MQ7TPPYYDI1NVUBYWTQHDL1CBBP","A1UGD2VEVSML1U","36U4VBVNQOZD8NFWZXWF9CIHKRIURB","","538.0999999940395","img/food5.png","75","538.5","2","1","2","2","1,0.5,0,1,0.5,0,0.5,0,1","1,0.5,0,1,0.5,0,0.5,0,1","1","false",""
"","html-keyboard-response","217","149887","0.0-233.0","3P4MQ7TPPYYDI1NVUBYWTQHDL1CBBP","A1UGD2VEVSML1U","36U4VBVNQOZD8NFWZXWF9CIHKRIURB","","null","<img src=""img/food5.png"" style=""width:200px; border:14px solid green;"">","null","","","","","","","","","",""
"","image-keyboard-response","218","150505","0.0-235.0","3P4MQ7TPPYYDI1NVUBYWTQHDL1CBBP","A1UGD2VEVSML1U","36U4VBVNQOZD8NFWZXWF9CIHKRIURB","","617.1999999880791","img/food1.png","76","617.5999999940395","3","1","3","2","1,0.5,0,1,0.5,0,0.5,0,1","1,0.5,0,1,0.5,0,0.5,0,1","1","false",""
"","html-keyboard-response","219","150813","0.0-236.0","3P4MQ7TPPYYDI1NVUBYWTQHDL1CBBP","A1UGD2VEVSML1U","36U4VBVNQOZD8NFWZXWF9CIHKRIURB","","null","<img src=""img/food1.png"" style=""width:200px; border:14px solid green;"">","null","","","","","","","","","",""
"","image-keyboard-response","220","151457","0.0-238.0","3P4MQ7TPPYYDI1NVUBYWTQHDL1CBBP","A1UGD2VEVSML1U","36U4VBVNQOZD8NFWZXWF9CIHKRIURB","","643","img/food5.png","75","643.6000000238419","2","0","2","2","1,0.5,0,1,0.5,0,0.5,0,1","1,0.5,0,1,0.5,0,0.5,0,1","1","false",""
"","html-keyboard-response","221","151760","0.0-239.0","3P4MQ7TPPYYDI1NVUBYWTQHDL1CBBP","A1UGD2VEVSML1U","36U4VBVNQOZD8NFWZXWF9CIHKRIURB","","null","<img src=""img/food5.png"" style=""width:200px;border:14px solid red;"">","null","","","","","","","","","",""
"","image-keyboard-response","222","152393","0.0-241.0","3P4MQ7TPPYYDI1NVUBYWTQHDL1CBBP","A1UGD2VEVSML1U","36U4VBVNQOZD8NFWZXWF9CIHKRIURB","","632.4000000059605","img/food3.png","74","632.8999999761581","1","1","1","2","1,0.5,0,1,0.5,0,0.5,0,1","1,0.5,0,1,0.5,0,0.5,0,1","1","false",""
"","html-keyboard-response","223","152695","0.0-242.0","3P4MQ7TPPYYDI1NVUBYWTQHDL1CBBP","A1UGD2VEVSML1U","36U4VBVNQOZD8NFWZXWF9CIHKRIURB","","null","<img src=""img/food3.png"" style=""width:200px; border:14px solid green;"">","null","","","","","","","","","",""
"","image-keyboard-response","224","153057","0.0-244.0","3P4MQ7TPPYYDI1NVUBYWTQHDL1CBBP","A1UGD2VEVSML1U","36U4VBVNQOZD8NFWZXWF9CIHKRIURB","","361.2999999821186","img/food3.png","74","361.90000000596046","1","1","1","2","1,0.5,0,1,0.5,0,0.5,0,1","1,0.5,0,1,0.5,0,0.5,0,1","1","false",""
"","html-keyboard-response","225","153359","0.0-245.0","3P4MQ7TPPYYDI1NVUBYWTQHDL1CBBP","A1UGD2VEVSML1U","36U4VBVNQOZD8NFWZXWF9CIHKRIURB","","null","<img src=""img/food3.png"" style=""width:200px; border:14px solid green;"">","null","","","","","","","","","",""
"","image-keyboard-response","226","153988","0.0-247.0","3P4MQ7TPPYYDI1NVUBYWTQHDL1CBBP","A1UGD2VEVSML1U","36U4VBVNQOZD8NFWZXWF9CIHKRIURB","","628.5999999940395","img/food5.png","76","629.0999999940395","3","0","2","2","1,0.5,0,1,0.5,0,0.5,0,1","1,0.5,0,1,0.5,0,0.5,0,1","1","false",""
"","html-keyboard-response","227","154290","0.0-248.0","3P4MQ7TPPYYDI1NVUBYWTQHDL1CBBP","A1UGD2VEVSML1U","36U4VBVNQOZD8NFWZXWF9CIHKRIURB","","null","<img src=""img/food5.png"" style=""width:200px;border:14px solid red;"">","null","","","","","","","","","",""
"","image-keyboard-response","228","154905","0.0-250.0","3P4MQ7TPPYYDI1NVUBYWTQHDL1CBBP","A1UGD2VEVSML1U","36U4VBVNQOZD8NFWZXWF9CIHKRIURB","","614.5","img/food1.png","75","614.9000000059605","2","0","3","2","1,0.5,0,1,0.5,0,0.5,0,1","1,0.5,0,1,0.5,0,0.5,0,1","1","false",""
"","html-keyboard-response","229","155206","0.0-251.0","3P4MQ7TPPYYDI1NVUBYWTQHDL1CBBP","A1UGD2VEVSML1U","36U4VBVNQOZD8NFWZXWF9CIHKRIURB","","null","<img src=""img/food1.png"" style=""width:200px;border:14px solid red;"">","null","","","","","","","","","",""
"","image-keyboard-response","230","155857","0.0-253.0","3P4MQ7TPPYYDI1NVUBYWTQHDL1CBBP","A1UGD2VEVSML1U","36U4VBVNQOZD8NFWZXWF9CIHKRIURB","","650.4000000059605","img/food3.png","74","650.8000000119209","1","1","1","2","1,0.5,0,1,0.5,0,0.5,0,1","1,0.5,0,1,0.5,0,0.5,0,1","1","false",""
"","html-keyboard-response","231","156158","0.0-254.0","3P4MQ7TPPYYDI1NVUBYWTQHDL1CBBP","A1UGD2VEVSML1U","36U4VBVNQOZD8NFWZXWF9CIHKRIURB","","null","<img src=""img/food3.png"" style=""width:200px; border:14px solid green;"">","null","","","","","","","","","",""
"","image-keyboard-response","232","156665","0.0-256.0","3P4MQ7TPPYYDI1NVUBYWTQHDL1CBBP","A1UGD2VEVSML1U","36U4VBVNQOZD8NFWZXWF9CIHKRIURB","","506.59999999403954","img/food5.png","76","507.09999999403954","3","0","2","2","1,0.5,0,1,0.5,0,0.5,0,1","1,0.5,0,1,0.5,0,0.5,0,1","1","false",""
"","html-keyboard-response","233","156966","0.0-257.0","3P4MQ7TPPYYDI1NVUBYWTQHDL1CBBP","A1UGD2VEVSML1U","36U4VBVNQOZD8NFWZXWF9CIHKRIURB","","null","<img src=""img/food5.png"" style=""width:200px;border:14px solid red;"">","null","","","","","","","","","",""
"","image-keyboard-response","234","157553","0.0-259.0","3P4MQ7TPPYYDI1NVUBYWTQHDL1CBBP","A1UGD2VEVSML1U","36U4VBVNQOZD8NFWZXWF9CIHKRIURB","","586.3999999761581","img/food1.png","74","586.7000000178814","1","0","3","2","1,0.5,0,1,0.5,0,0.5,0,1","1,0.5,0,1,0.5,0,0.5,0,1","1","false",""
"","html-keyboard-response","235","157854","0.0-260.0","3P4MQ7TPPYYDI1NVUBYWTQHDL1CBBP","A1UGD2VEVSML1U","36U4VBVNQOZD8NFWZXWF9CIHKRIURB","","null","<img src=""img/food1.png"" style=""width:200px;border:14px solid red;"">","null","","","","","","","","","",""
"","image-keyboard-response","236","158465","0.0-262.0","3P4MQ7TPPYYDI1NVUBYWTQHDL1CBBP","A1UGD2VEVSML1U","36U4VBVNQOZD8NFWZXWF9CIHKRIURB","","610.6999999880791","img/food1.png","74","611.1999999880791","1","0","3","2","1,0.5,0,1,0.5,0,0.5,0,1","1,0.5,0,1,0.5,0,0.5,0,1","1","false",""
"","html-keyboard-response","237","158767","0.0-263.0","3P4MQ7TPPYYDI1NVUBYWTQHDL1CBBP","A1UGD2VEVSML1U","36U4VBVNQOZD8NFWZXWF9CIHKRIURB","","null","<img src=""img/food1.png"" style=""width:200px;border:14px solid red;"">","null","","","","","","","","","",""
"","image-keyboard-response","238","158913","0.0-265.0","3P4MQ7TPPYYDI1NVUBYWTQHDL1CBBP","A1UGD2VEVSML1U","36U4VBVNQOZD8NFWZXWF9CIHKRIURB","","145.09999999403954","img/food3.png","75","145.59999999403954","2","1","1","2","1,0.5,0,1,0.5,0,0.5,0,1","1,0.5,0,1,0.5,0,0.5,0,1","1","false",""
"","html-keyboard-response","239","159214","0.0-266.0","3P4MQ7TPPYYDI1NVUBYWTQHDL1CBBP","A1UGD2VEVSML1U","36U4VBVNQOZD8NFWZXWF9CIHKRIURB","","null","<img src=""img/food3.png"" style=""width:200px; border:14px solid green;"">","null","","","","","","","","","",""
"","image-keyboard-response","240","160216","0.0-268.0","3P4MQ7TPPYYDI1NVUBYWTQHDL1CBBP","A1UGD2VEVSML1U","36U4VBVNQOZD8NFWZXWF9CIHKRIURB","","","img/food5.png","","1001.8999999761581","-1","0","2","2","1,0.5,0,1,0.5,0,0.5,0,1","1,0.5,0,1,0.5,0,0.5,0,1","1","true",""
"","html-keyboard-response","241","160517","0.0-269.0","3P4MQ7TPPYYDI1NVUBYWTQHDL1CBBP","A1UGD2VEVSML1U","36U4VBVNQOZD8NFWZXWF9CIHKRIURB","","null","<img src=""img/food5.png"" style=""width:200px;border:14px solid red;"">","null","","","","","","","","","",""
"","html-keyboard-response","242","168987","0.0-270.0-0.0","3P4MQ7TPPYYDI1NVUBYWTQHDL1CBBP","A1UGD2VEVSML1U","36U4VBVNQOZD8NFWZXWF9CIHKRIURB","","","","","","","","","","","","","",""
"","image-keyboard-response","243","169449","0.0-271.0","3P4MQ7TPPYYDI1NVUBYWTQHDL1CBBP","A1UGD2VEVSML1U","36U4VBVNQOZD8NFWZXWF9CIHKRIURB","","461.10000002384186","img/food3.png","74","461.7000000178814","1","1","1","2","1,0.5,0,1,0.5,0,0.5,0,1","1,0.5,0,1,0.5,0,0.5,0,1","1","false",""
"","html-keyboard-response","244","169750","0.0-272.0","3P4MQ7TPPYYDI1NVUBYWTQHDL1CBBP","A1UGD2VEVSML1U","36U4VBVNQOZD8NFWZXWF9CIHKRIURB","","null","<img src=""img/food3.png"" style=""width:200px; border:14px solid green;"">","null","","","","","","","","","",""
"","image-keyboard-response","245","170161","0.0-274.0","3P4MQ7TPPYYDI1NVUBYWTQHDL1CBBP","A1UGD2VEVSML1U","36U4VBVNQOZD8NFWZXWF9CIHKRIURB","","410.59999999403954","img/food1.png","75","411","2","0","3","2","1,0.5,0,1,0.5,0,0.5,0,1","1,0.5,0,1,0.5,0,0.5,0,1","1","false",""
"","html-keyboard-response","246","170463","0.0-275.0","3P4MQ7TPPYYDI1NVUBYWTQHDL1CBBP","A1UGD2VEVSML1U","36U4VBVNQOZD8NFWZXWF9CIHKRIURB","","null","<img src=""img/food1.png"" style=""width:200px;border:14px solid red;"">","null","","","","","","","","","",""
"","image-keyboard-response","247","170521","0.0-277.0","3P4MQ7TPPYYDI1NVUBYWTQHDL1CBBP","A1UGD2VEVSML1U","36U4VBVNQOZD8NFWZXWF9CIHKRIURB","","57.79999998211861","img/food5.png","76","58.30000001192093","3","0","2","2","1,0.5,0,1,0.5,0,0.5,0,1","1,0.5,0,1,0.5,0,0.5,0,1","1","false",""
"","html-keyboard-response","248","170823","0.0-278.0","3P4MQ7TPPYYDI1NVUBYWTQHDL1CBBP","A1UGD2VEVSML1U","36U4VBVNQOZD8NFWZXWF9CIHKRIURB","","null","<img src=""img/food5.png"" style=""width:200px;border:14px solid red;"">","null","","","","","","","","","",""
"","image-keyboard-response","249","170985","0.0-280.0","3P4MQ7TPPYYDI1NVUBYWTQHDL1CBBP","A1UGD2VEVSML1U","36U4VBVNQOZD8NFWZXWF9CIHKRIURB","","161.69999998807907","img/food1.png","74","162.30000001192093","1","0","3","2","1,0.5,0,1,0.5,0,0.5,0,1","1,0.5,0,1,0.5,0,0.5,0,1","1","false",""
"","html-keyboard-response","250","171287","0.0-281.0","3P4MQ7TPPYYDI1NVUBYWTQHDL1CBBP","A1UGD2VEVSML1U","36U4VBVNQOZD8NFWZXWF9CIHKRIURB","","null","<img src=""img/food1.png"" style=""width:200px;border:14px solid red;"">","null","","","","","","","","","",""
"","image-keyboard-response","251","171625","0.0-283.0","3P4MQ7TPPYYDI1NVUBYWTQHDL1CBBP","A1UGD2VEVSML1U","36U4VBVNQOZD8NFWZXWF9CIHKRIURB","","337.59999999403954","img/food1.png","74","338","1","1","3","2","1,0.5,0,1,0.5,0,0.5,0,1","1,0.5,0,1,0.5,0,0.5,0,1","1","false",""
"","html-keyboard-response","252","171927","0.0-284.0","3P4MQ7TPPYYDI1NVUBYWTQHDL1CBBP","A1UGD2VEVSML1U","36U4VBVNQOZD8NFWZXWF9CIHKRIURB","","null","<img src=""img/food1.png"" style=""width:200px; border:14px solid green;"">","null","","","","","","","","","",""
"","image-keyboard-response","253","172161","0.0-286.0","3P4MQ7TPPYYDI1NVUBYWTQHDL1CBBP","A1UGD2VEVSML1U","36U4VBVNQOZD8NFWZXWF9CIHKRIURB","","233.19999998807907","img/food1.png","74","233.90000000596046","1","1","3","2","1,0.5,0,1,0.5,0,0.5,0,1","1,0.5,0,1,0.5,0,0.5,0,1","1","false",""
"","html-keyboard-response","254","172463","0.0-287.0","3P4MQ7TPPYYDI1NVUBYWTQHDL1CBBP","A1UGD2VEVSML1U","36U4VBVNQOZD8NFWZXWF9CIHKRIURB","","null","<img src=""img/food1.png"" style=""width:200px; border:14px solid green;"">","null","","","","","","","","","",""
"","image-keyboard-response","255","172873","0.0-289.0","3P4MQ7TPPYYDI1NVUBYWTQHDL1CBBP","A1UGD2VEVSML1U","36U4VBVNQOZD8NFWZXWF9CIHKRIURB","","409.5","img/food3.png","75","409.7999999821186","2","1","1","2","1,0.5,0,1,0.5,0,0.5,0,1","1,0.5,0,1,0.5,0,0.5,0,1","1","false",""
"","html-keyboard-response","256","173175","0.0-290.0","3P4MQ7TPPYYDI1NVUBYWTQHDL1CBBP","A1UGD2VEVSML1U","36U4VBVNQOZD8NFWZXWF9CIHKRIURB","","null","<img src=""img/food3.png"" style=""width:200px; border:14px solid green;"">","null","","","","","","","","","",""
"","image-keyboard-response","257","173553","0.0-292.0","3P4MQ7TPPYYDI1NVUBYWTQHDL1CBBP","A1UGD2VEVSML1U","36U4VBVNQOZD8NFWZXWF9CIHKRIURB","","377.5","img/food1.png","74","378","1","0","3","2","1,0.5,0,1,0.5,0,0.5,0,1","1,0.5,0,1,0.5,0,0.5,0,1","1","false",""
"","html-keyboard-response","258","173854","0.0-293.0","3P4MQ7TPPYYDI1NVUBYWTQHDL1CBBP","A1UGD2VEVSML1U","36U4VBVNQOZD8NFWZXWF9CIHKRIURB","","null","<img src=""img/food1.png"" style=""width:200px;border:14px solid red;"">","null","","","","","","","","","",""
"","image-keyboard-response","259","173953","0.0-295.0","3P4MQ7TPPYYDI1NVUBYWTQHDL1CBBP","A1UGD2VEVSML1U","36U4VBVNQOZD8NFWZXWF9CIHKRIURB","","98.7000000178814","img/food5.png","75","99.09999999403954","2","0","2","2","1,0.5,0,1,0.5,0,0.5,0,1","1,0.5,0,1,0.5,0,0.5,0,1","1","false",""
"","html-keyboard-response","260","174255","0.0-296.0","3P4MQ7TPPYYDI1NVUBYWTQHDL1CBBP","A1UGD2VEVSML1U","36U4VBVNQOZD8NFWZXWF9CIHKRIURB","","null","<img src=""img/food5.png"" style=""width:200px;border:14px solid red;"">","null","","","","","","","","","",""
"","image-keyboard-response","261","174377","0.0-298.0","3P4MQ7TPPYYDI1NVUBYWTQHDL1CBBP","A1UGD2VEVSML1U","36U4VBVNQOZD8NFWZXWF9CIHKRIURB","","121.5","img/food5.png","76","121.90000000596046","3","0","2","2","1,0.5,0,1,0.5,0,0.5,0,1","1,0.5,0,1,0.5,0,0.5,0,1","1","false",""
"","html-keyboard-response","262","174684","0.0-299.0","3P4MQ7TPPYYDI1NVUBYWTQHDL1CBBP","A1UGD2VEVSML1U","36U4VBVNQOZD8NFWZXWF9CIHKRIURB","","null","<img src=""img/food5.png"" style=""width:200px;border:14px solid red;"">","null","","","","","","","","","",""
"","image-keyboard-response","263","174721","0.0-301.0","3P4MQ7TPPYYDI1NVUBYWTQHDL1CBBP","A1UGD2VEVSML1U","36U4VBVNQOZD8NFWZXWF9CIHKRIURB","","36.29999998211861","img/food3.png","74","36.69999998807907","1","1","1","2","1,0.5,0,1,0.5,0,0.5,0,1","1,0.5,0,1,0.5,0,0.5,0,1","1","false",""
"","html-keyboard-response","264","175023","0.0-302.0","3P4MQ7TPPYYDI1NVUBYWTQHDL1CBBP","A1UGD2VEVSML1U","36U4VBVNQOZD8NFWZXWF9CIHKRIURB","","null","<img src=""img/food3.png"" style=""width:200px; border:14px solid green;"">","null","","","","","","","","","",""
"","image-keyboard-response","265","175305","0.0-304.0","3P4MQ7TPPYYDI1NVUBYWTQHDL1CBBP","A1UGD2VEVSML1U","36U4VBVNQOZD8NFWZXWF9CIHKRIURB","","281.5","img/food3.png","74","281.90000000596046","1","1","1","2","1,0.5,0,1,0.5,0,0.5,0,1","1,0.5,0,1,0.5,0,0.5,0,1","1","false",""
"","html-keyboard-response","266","175607","0.0-305.0","3P4MQ7TPPYYDI1NVUBYWTQHDL1CBBP","A1UGD2VEVSML1U","36U4VBVNQOZD8NFWZXWF9CIHKRIURB","","null","<img src=""img/food3.png"" style=""width:200px; border:14px solid green;"">","null","","","","","","","","","",""
"","image-keyboard-response","267","176017","0.0-307.0","3P4MQ7TPPYYDI1NVUBYWTQHDL1CBBP","A1UGD2VEVSML1U","36U4VBVNQOZD8NFWZXWF9CIHKRIURB","","409.7999999821186","img/food1.png","75","410.09999999403954","2","0","3","2","1,0.5,0,1,0.5,0,0.5,0,1","1,0.5,0,1,0.5,0,0.5,0,1","1","false",""
"","html-keyboard-response","268","176318","0.0-308.0","3P4MQ7TPPYYDI1NVUBYWTQHDL1CBBP","A1UGD2VEVSML1U","36U4VBVNQOZD8NFWZXWF9CIHKRIURB","","null","<img src=""img/food1.png"" style=""width:200px;border:14px solid red;"">","null","","","","","","","","","",""
"","image-keyboard-response","269","176817","0.0-310.0","3P4MQ7TPPYYDI1NVUBYWTQHDL1CBBP","A1UGD2VEVSML1U","36U4VBVNQOZD8NFWZXWF9CIHKRIURB","","498.19999998807907","img/food5.png","74","498.69999998807907","1","1","2","2","1,0.5,0,1,0.5,0,0.5,0,1","1,0.5,0,1,0.5,0,0.5,0,1","1","false",""
"","html-keyboard-response","270","177118","0.0-311.0","3P4MQ7TPPYYDI1NVUBYWTQHDL1CBBP","A1UGD2VEVSML1U","36U4VBVNQOZD8NFWZXWF9CIHKRIURB","","null","<img src=""img/food5.png"" style=""width:200px; border:14px solid green;"">","null","","","","","","","","","",""
"","image-keyboard-response","271","177393","0.0-313.0","3P4MQ7TPPYYDI1NVUBYWTQHDL1CBBP","A1UGD2VEVSML1U","36U4VBVNQOZD8NFWZXWF9CIHKRIURB","","274.09999999403954","img/food3.png","74","274.5","1","1","1","2","1,0.5,0,1,0.5,0,0.5,0,1","1,0.5,0,1,0.5,0,0.5,0,1","1","false",""
"","html-keyboard-response","272","177695","0.0-314.0","3P4MQ7TPPYYDI1NVUBYWTQHDL1CBBP","A1UGD2VEVSML1U","36U4VBVNQOZD8NFWZXWF9CIHKRIURB","","null","<img src=""img/food3.png"" style=""width:200px; border:14px solid green;"">","null","","","","","","","","","",""
"","image-keyboard-response","273","177825","0.0-316.0","3P4MQ7TPPYYDI1NVUBYWTQHDL1CBBP","A1UGD2VEVSML1U","36U4VBVNQOZD8NFWZXWF9CIHKRIURB","","129.09999999403954","img/food1.png","75","129.7999999821186","2","0","3","2","1,0.5,0,1,0.5,0,0.5,0,1","1,0.5,0,1,0.5,0,0.5,0,1","1","false",""
"","html-keyboard-response","274","178127","0.0-317.0","3P4MQ7TPPYYDI1NVUBYWTQHDL1CBBP","A1UGD2VEVSML1U","36U4VBVNQOZD8NFWZXWF9CIHKRIURB","","null","<img src=""img/food1.png"" style=""width:200px;border:14px solid red;"">","null","","","","","","","","","",""
"","image-keyboard-response","275","178217","0.0-319.0","3P4MQ7TPPYYDI1NVUBYWTQHDL1CBBP","A1UGD2VEVSML1U","36U4VBVNQOZD8NFWZXWF9CIHKRIURB","","89.7999999821186","img/food1.png","76","90.2000000178814","3","1","3","2","1,0.5,0,1,0.5,0,0.5,0,1","1,0.5,0,1,0.5,0,0.5,0,1","1","false",""
"","html-keyboard-response","276","178518","0.0-320.0","3P4MQ7TPPYYDI1NVUBYWTQHDL1CBBP","A1UGD2VEVSML1U","36U4VBVNQOZD8NFWZXWF9CIHKRIURB","","null","<img src=""img/food1.png"" style=""width:200px; border:14px solid green;"">","null","","","","","","","","","",""
"","image-keyboard-response","277","178545","0.0-322.0","3P4MQ7TPPYYDI1NVUBYWTQHDL1CBBP","A1UGD2VEVSML1U","36U4VBVNQOZD8NFWZXWF9CIHKRIURB","","26","img/food1.png","74","26.600000023841858","1","1","3","2","1,0.5,0,1,0.5,0,0.5,0,1","1,0.5,0,1,0.5,0,0.5,0,1","1","false",""
"","html-keyboard-response","278","178846","0.0-323.0","3P4MQ7TPPYYDI1NVUBYWTQHDL1CBBP","A1UGD2VEVSML1U","36U4VBVNQOZD8NFWZXWF9CIHKRIURB","","null","<img src=""img/food1.png"" style=""width:200px; border:14px solid green;"">","null","","","","","","","","","",""
"","image-keyboard-response","279","178921","0.0-325.0","3P4MQ7TPPYYDI1NVUBYWTQHDL1CBBP","A1UGD2VEVSML1U","36U4VBVNQOZD8NFWZXWF9CIHKRIURB","","74.09999999403954","img/food1.png","76","74.5","3","1","3","2","1,0.5,0,1,0.5,0,0.5,0,1","1,0.5,0,1,0.5,0,0.5,0,1","1","false",""
"","html-keyboard-response","280","179222","0.0-326.0","3P4MQ7TPPYYDI1NVUBYWTQHDL1CBBP","A1UGD2VEVSML1U","36U4VBVNQOZD8NFWZXWF9CIHKRIURB","","null","<img src=""img/food1.png"" style=""width:200px; border:14px solid green;"">","null","","","","","","","","","",""
"","image-keyboard-response","281","179553","0.0-328.0","3P4MQ7TPPYYDI1NVUBYWTQHDL1CBBP","A1UGD2VEVSML1U","36U4VBVNQOZD8NFWZXWF9CIHKRIURB","","330.5","img/food5.png","76","330.90000000596046","3","0","2","2","1,0.5,0,1,0.5,0,0.5,0,1","1,0.5,0,1,0.5,0,0.5,0,1","1","false",""
"","html-keyboard-response","282","179856","0.0-329.0","3P4MQ7TPPYYDI1NVUBYWTQHDL1CBBP","A1UGD2VEVSML1U","36U4VBVNQOZD8NFWZXWF9CIHKRIURB","","null","<img src=""img/food5.png"" style=""width:200px;border:14px solid red;"">","null","","","","","","","","","",""
"","image-keyboard-response","283","180009","0.0-331.0","3P4MQ7TPPYYDI1NVUBYWTQHDL1CBBP","A1UGD2VEVSML1U","36U4VBVNQOZD8NFWZXWF9CIHKRIURB","","153","img/food1.png","75","153.39999997615814","2","0","3","2","1,0.5,0,1,0.5,0,0.5,0,1","1,0.5,0,1,0.5,0,0.5,0,1","1","false",""
"","html-keyboard-response","284","180311","0.0-332.0","3P4MQ7TPPYYDI1NVUBYWTQHDL1CBBP","A1UGD2VEVSML1U","36U4VBVNQOZD8NFWZXWF9CIHKRIURB","","null","<img src=""img/food1.png"" style=""width:200px;border:14px solid red;"">","null","","","","","","","","","",""
"","image-keyboard-response","285","180353","0.0-334.0","3P4MQ7TPPYYDI1NVUBYWTQHDL1CBBP","A1UGD2VEVSML1U","36U4VBVNQOZD8NFWZXWF9CIHKRIURB","","41.5","img/food3.png","76","41.900000005960464","3","0","1","2","1,0.5,0,1,0.5,0,0.5,0,1","1,0.5,0,1,0.5,0,0.5,0,1","1","false",""
"","html-keyboard-response","286","180660","0.0-335.0","3P4MQ7TPPYYDI1NVUBYWTQHDL1CBBP","A1UGD2VEVSML1U","36U4VBVNQOZD8NFWZXWF9CIHKRIURB","","null","<img src=""img/food3.png"" style=""width:200px;border:14px solid red;"">","null","","","","","","","","","",""
"","image-keyboard-response","287","180745","0.0-337.0","3P4MQ7TPPYYDI1NVUBYWTQHDL1CBBP","A1UGD2VEVSML1U","36U4VBVNQOZD8NFWZXWF9CIHKRIURB","","84.5","img/food5.png","74","85","1","1","2","2","1,0.5,0,1,0.5,0,0.5,0,1","1,0.5,0,1,0.5,0,0.5,0,1","1","false",""
"","html-keyboard-response","288","181047","0.0-338.0","3P4MQ7TPPYYDI1NVUBYWTQHDL1CBBP","A1UGD2VEVSML1U","36U4VBVNQOZD8NFWZXWF9CIHKRIURB","","null","<img src=""img/food5.png"" style=""width:200px; border:14px solid green;"">","null","","","","","","","","","",""
"","image-keyboard-response","289","181249","0.0-340.0","3P4MQ7TPPYYDI1NVUBYWTQHDL1CBBP","A1UGD2VEVSML1U","36U4VBVNQOZD8NFWZXWF9CIHKRIURB","","201.40000000596046","img/food5.png","74","202","1","1","2","2","1,0.5,0,1,0.5,0,0.5,0,1","1,0.5,0,1,0.5,0,0.5,0,1","1","false",""
"","html-keyboard-response","290","181551","0.0-341.0","3P4MQ7TPPYYDI1NVUBYWTQHDL1CBBP","A1UGD2VEVSML1U","36U4VBVNQOZD8NFWZXWF9CIHKRIURB","","null","<img src=""img/food5.png"" style=""width:200px; border:14px solid green;"">","null","","","","","","","","","",""
"","image-keyboard-response","291","181601","0.0-343.0","3P4MQ7TPPYYDI1NVUBYWTQHDL1CBBP","A1UGD2VEVSML1U","36U4VBVNQOZD8NFWZXWF9CIHKRIURB","","49.69999998807907","img/food1.png","74","50.19999998807907","1","1","3","2","1,0.5,0,1,0.5,0,0.5,0,1","1,0.5,0,1,0.5,0,0.5,0,1","1","false",""
"","html-keyboard-response","292","181903","0.0-344.0","3P4MQ7TPPYYDI1NVUBYWTQHDL1CBBP","A1UGD2VEVSML1U","36U4VBVNQOZD8NFWZXWF9CIHKRIURB","","null","<img src=""img/food1.png"" style=""width:200px; border:14px solid green;"">","null","","","","","","","","","",""
"","image-keyboard-response","293","182233","0.0-346.0","3P4MQ7TPPYYDI1NVUBYWTQHDL1CBBP","A1UGD2VEVSML1U","36U4VBVNQOZD8NFWZXWF9CIHKRIURB","","329.69999998807907","img/food3.png","75","330.10000002384186","2","0","1","2","1,0.5,0,1,0.5,0,0.5,0,1","1,0.5,0,1,0.5,0,0.5,0,1","1","false",""
"","html-keyboard-response","294","182536","0.0-347.0","3P4MQ7TPPYYDI1NVUBYWTQHDL1CBBP","A1UGD2VEVSML1U","36U4VBVNQOZD8NFWZXWF9CIHKRIURB","","null","<img src=""img/food3.png"" style=""width:200px;border:14px solid red;"">","null","","","","","","","","","",""
"","image-keyboard-response","295","182553","0.0-349.0","3P4MQ7TPPYYDI1NVUBYWTQHDL1CBBP","A1UGD2VEVSML1U","36U4VBVNQOZD8NFWZXWF9CIHKRIURB","","17","img/food3.png","76","17.599999994039536","3","0","1","2","1,0.5,0,1,0.5,0,0.5,0,1","1,0.5,0,1,0.5,0,0.5,0,1","1","false",""
"","html-keyboard-response","296","182854","0.0-350.0","3P4MQ7TPPYYDI1NVUBYWTQHDL1CBBP","A1UGD2VEVSML1U","36U4VBVNQOZD8NFWZXWF9CIHKRIURB","","null","<img src=""img/food3.png"" style=""width:200px;border:14px solid red;"">","null","","","","","","","","","",""
"","image-keyboard-response","297","182921","0.0-352.0","3P4MQ7TPPYYDI1NVUBYWTQHDL1CBBP","A1UGD2VEVSML1U","36U4VBVNQOZD8NFWZXWF9CIHKRIURB","","66.40000000596046","img/food3.png","74","66.89999997615814","1","1","1","2","1,0.5,0,1,0.5,0,0.5,0,1","1,0.5,0,1,0.5,0,0.5,0,1","1","false",""
"","html-keyboard-response","298","183223","0.0-353.0","3P4MQ7TPPYYDI1NVUBYWTQHDL1CBBP","A1UGD2VEVSML1U","36U4VBVNQOZD8NFWZXWF9CIHKRIURB","","null","<img src=""img/food3.png"" style=""width:200px; border:14px solid green;"">","null","","","","","","","","","",""
"","image-keyboard-response","299","183369","0.0-355.0","3P4MQ7TPPYYDI1NVUBYWTQHDL1CBBP","A1UGD2VEVSML1U","36U4VBVNQOZD8NFWZXWF9CIHKRIURB","","145.2999999821186","img/food3.png","74","145.80000001192093","1","1","1","2","1,0.5,0,1,0.5,0,0.5,0,1","1,0.5,0,1,0.5,0,0.5,0,1","1","false",""
"","html-keyboard-response","300","183670","0.0-356.0","3P4MQ7TPPYYDI1NVUBYWTQHDL1CBBP","A1UGD2VEVSML1U","36U4VBVNQOZD8NFWZXWF9CIHKRIURB","","null","<img src=""img/food3.png"" style=""width:200px; border:14px solid green;"">","null","","","","","","","","","",""
"","image-keyboard-response","301","183745","0.0-358.0","3P4MQ7TPPYYDI1NVUBYWTQHDL1CBBP","A1UGD2VEVSML1U","36U4VBVNQOZD8NFWZXWF9CIHKRIURB","","74.40000000596046","img/food1.png","74","74.89999997615814","1","1","3","2","1,0.5,0,1,0.5,0,0.5,0,1","1,0.5,0,1,0.5,0,0.5,0,1","1","false",""
"","html-keyboard-response","302","184047","0.0-359.0","3P4MQ7TPPYYDI1NVUBYWTQHDL1CBBP","A1UGD2VEVSML1U","36U4VBVNQOZD8NFWZXWF9CIHKRIURB","","null","<img src=""img/food1.png"" style=""width:200px; border:14px solid green;"">","null","","","","","","","","","",""
"","image-keyboard-response","303","184265","0.0-361.0","3P4MQ7TPPYYDI1NVUBYWTQHDL1CBBP","A1UGD2VEVSML1U","36U4VBVNQOZD8NFWZXWF9CIHKRIURB","","217.69999998807907","img/food5.png","75","218.2000000178814","2","1","2","2","1,0.5,0,1,0.5,0,0.5,0,1","1,0.5,0,1,0.5,0,0.5,0,1","1","false",""
"","html-keyboard-response","304","184567","0.0-362.0","3P4MQ7TPPYYDI1NVUBYWTQHDL1CBBP","A1UGD2VEVSML1U","36U4VBVNQOZD8NFWZXWF9CIHKRIURB","","null","<img src=""img/food5.png"" style=""width:200px; border:14px solid green;"">","null","","","","","","","","","",""
"","image-keyboard-response","305","184961","0.0-364.0","3P4MQ7TPPYYDI1NVUBYWTQHDL1CBBP","A1UGD2VEVSML1U","36U4VBVNQOZD8NFWZXWF9CIHKRIURB","","393.59999999403954","img/food1.png","74","394.19999998807907","1","1","3","2","1,0.5,0,1,0.5,0,0.5,0,1","1,0.5,0,1,0.5,0,0.5,0,1","1","false",""
"","html-keyboard-response","306","185263","0.0-365.0","3P4MQ7TPPYYDI1NVUBYWTQHDL1CBBP","A1UGD2VEVSML1U","36U4VBVNQOZD8NFWZXWF9CIHKRIURB","","null","<img src=""img/food1.png"" style=""width:200px; border:14px solid green;"">","null","","","","","","","","","",""
"","image-keyboard-response","307","185321","0.0-367.0","3P4MQ7TPPYYDI1NVUBYWTQHDL1CBBP","A1UGD2VEVSML1U","36U4VBVNQOZD8NFWZXWF9CIHKRIURB","","57.400000005960464","img/food1.png","76","57.89999997615814","3","1","3","2","1,0.5,0,1,0.5,0,0.5,0,1","1,0.5,0,1,0.5,0,0.5,0,1","1","false",""
"","html-keyboard-response","308","185625","0.0-368.0","3P4MQ7TPPYYDI1NVUBYWTQHDL1CBBP","A1UGD2VEVSML1U","36U4VBVNQOZD8NFWZXWF9CIHKRIURB","","null","<img src=""img/food1.png"" style=""width:200px; border:14px solid green;"">","null","","","","","","","","","",""
"","image-keyboard-response","309","185777","0.0-370.0","3P4MQ7TPPYYDI1NVUBYWTQHDL1CBBP","A1UGD2VEVSML1U","36U4VBVNQOZD8NFWZXWF9CIHKRIURB","","151.5","img/food5.png","75","151.89999997615814","2","1","2","2","1,0.5,0,1,0.5,0,0.5,0,1","1,0.5,0,1,0.5,0,0.5,0,1","1","false",""
"","html-keyboard-response","310","186079","0.0-371.0","3P4MQ7TPPYYDI1NVUBYWTQHDL1CBBP","A1UGD2VEVSML1U","36U4VBVNQOZD8NFWZXWF9CIHKRIURB","","null","<img src=""img/food5.png"" style=""width:200px; border:14px solid green;"">","null","","","","","","","","","",""
"","image-keyboard-response","311","186089","0.0-373.0","3P4MQ7TPPYYDI1NVUBYWTQHDL1CBBP","A1UGD2VEVSML1U","36U4VBVNQOZD8NFWZXWF9CIHKRIURB","","9.200000017881393","img/food3.png","76","9.699999988079071","3","0","1","2","1,0.5,0,1,0.5,0,0.5,0,1","1,0.5,0,1,0.5,0,0.5,0,1","1","false",""
"","html-keyboard-response","312","186390","0.0-374.0","3P4MQ7TPPYYDI1NVUBYWTQHDL1CBBP","A1UGD2VEVSML1U","36U4VBVNQOZD8NFWZXWF9CIHKRIURB","","null","<img src=""img/food3.png"" style=""width:200px;border:14px solid red;"">","null","","","","","","","","","",""
"","image-keyboard-response","313","186553","0.0-376.0","3P4MQ7TPPYYDI1NVUBYWTQHDL1CBBP","A1UGD2VEVSML1U","36U4VBVNQOZD8NFWZXWF9CIHKRIURB","","162.30000001192093","img/food1.png","74","162.69999998807907","1","0","3","2","1,0.5,0,1,0.5,0,0.5,0,1","1,0.5,0,1,0.5,0,0.5,0,1","1","false",""
"","html-keyboard-response","314","186865","0.0-377.0","3P4MQ7TPPYYDI1NVUBYWTQHDL1CBBP","A1UGD2VEVSML1U","36U4VBVNQOZD8NFWZXWF9CIHKRIURB","","null","<img src=""img/food1.png"" style=""width:200px;border:14px solid red;"">","null","","","","","","","","","",""
"","image-keyboard-response","315","186961","0.0-379.0","3P4MQ7TPPYYDI1NVUBYWTQHDL1CBBP","A1UGD2VEVSML1U","36U4VBVNQOZD8NFWZXWF9CIHKRIURB","","95.40000000596046","img/food1.png","76","95.90000000596046","3","1","3","2","1,0.5,0,1,0.5,0,0.5,0,1","1,0.5,0,1,0.5,0,0.5,0,1","1","false",""
"","html-keyboard-response","316","187262","0.0-380.0","3P4MQ7TPPYYDI1NVUBYWTQHDL1CBBP","A1UGD2VEVSML1U","36U4VBVNQOZD8NFWZXWF9CIHKRIURB","","null","<img src=""img/food1.png"" style=""width:200px; border:14px solid green;"">","null","","","","","","","","","",""
"","image-keyboard-response","317","187377","0.0-382.0","3P4MQ7TPPYYDI1NVUBYWTQHDL1CBBP","A1UGD2VEVSML1U","36U4VBVNQOZD8NFWZXWF9CIHKRIURB","","114.19999998807907","img/food1.png","75","114.7999999821186","2","0","3","2","1,0.5,0,1,0.5,0,0.5,0,1","1,0.5,0,1,0.5,0,0.5,0,1","1","false",""
"","html-keyboard-response","318","187678","0.0-383.0","3P4MQ7TPPYYDI1NVUBYWTQHDL1CBBP","A1UGD2VEVSML1U","36U4VBVNQOZD8NFWZXWF9CIHKRIURB","","null","<img src=""img/food1.png"" style=""width:200px;border:14px solid red;"">","null","","","","","","","","","",""
"","image-keyboard-response","319","187737","0.0-385.0","3P4MQ7TPPYYDI1NVUBYWTQHDL1CBBP","A1UGD2VEVSML1U","36U4VBVNQOZD8NFWZXWF9CIHKRIURB","","58.400000005960464","img/food3.png","76","58.89999997615814","3","0","1","2","1,0.5,0,1,0.5,0,0.5,0,1","1,0.5,0,1,0.5,0,0.5,0,1","1","false",""
"","html-keyboard-response","320","188039","0.0-386.0","3P4MQ7TPPYYDI1NVUBYWTQHDL1CBBP","A1UGD2VEVSML1U","36U4VBVNQOZD8NFWZXWF9CIHKRIURB","","null","<img src=""img/food3.png"" style=""width:200px;border:14px solid red;"">","null","","","","","","","","","",""
"","image-keyboard-response","321","188145","0.0-388.0","3P4MQ7TPPYYDI1NVUBYWTQHDL1CBBP","A1UGD2VEVSML1U","36U4VBVNQOZD8NFWZXWF9CIHKRIURB","","105.7000000178814","img/food3.png","74","106.09999999403954","1","1","1","2","1,0.5,0,1,0.5,0,0.5,0,1","1,0.5,0,1,0.5,0,0.5,0,1","1","false",""
"","html-keyboard-response","322","188446","0.0-389.0","3P4MQ7TPPYYDI1NVUBYWTQHDL1CBBP","A1UGD2VEVSML1U","36U4VBVNQOZD8NFWZXWF9CIHKRIURB","","null","<img src=""img/food3.png"" style=""width:200px; border:14px solid green;"">","null","","","","","","","","","",""
"","image-keyboard-response","323","188569","0.0-391.0","3P4MQ7TPPYYDI1NVUBYWTQHDL1CBBP","A1UGD2VEVSML1U","36U4VBVNQOZD8NFWZXWF9CIHKRIURB","","122.09999999403954","img/food3.png","74","122.69999998807907","1","1","1","2","1,0.5,0,1,0.5,0,0.5,0,1","1,0.5,0,1,0.5,0,0.5,0,1","1","false",""
"","html-keyboard-response","324","188870","0.0-392.0","3P4MQ7TPPYYDI1NVUBYWTQHDL1CBBP","A1UGD2VEVSML1U","36U4VBVNQOZD8NFWZXWF9CIHKRIURB","","null","<img src=""img/food3.png"" style=""width:200px; border:14px solid green;"">","null","","","","","","","","","",""
"","image-keyboard-response","325","188897","0.0-394.0","3P4MQ7TPPYYDI1NVUBYWTQHDL1CBBP","A1UGD2VEVSML1U","36U4VBVNQOZD8NFWZXWF9CIHKRIURB","","26.30000001192093","img/food3.png","76","27","3","0","1","2","1,0.5,0,1,0.5,0,0.5,0,1","1,0.5,0,1,0.5,0,0.5,0,1","1","false",""
"","html-keyboard-response","326","189200","0.0-395.0","3P4MQ7TPPYYDI1NVUBYWTQHDL1CBBP","A1UGD2VEVSML1U","36U4VBVNQOZD8NFWZXWF9CIHKRIURB","","null","<img src=""img/food3.png"" style=""width:200px;border:14px solid red;"">","null","","","","","","","","","",""
"","image-keyboard-response","327","189281","0.0-397.0","3P4MQ7TPPYYDI1NVUBYWTQHDL1CBBP","A1UGD2VEVSML1U","36U4VBVNQOZD8NFWZXWF9CIHKRIURB","","80.19999998807907","img/food3.png","75","80.7999999821186","2","1","1","2","1,0.5,0,1,0.5,0,0.5,0,1","1,0.5,0,1,0.5,0,0.5,0,1","1","false",""
"","html-keyboard-response","328","189582","0.0-398.0","3P4MQ7TPPYYDI1NVUBYWTQHDL1CBBP","A1UGD2VEVSML1U","36U4VBVNQOZD8NFWZXWF9CIHKRIURB","","null","<img src=""img/food3.png"" style=""width:200px; border:14px solid green;"">","null","","","","","","","","","",""
"","image-keyboard-response","329","189738","0.0-400.0","3P4MQ7TPPYYDI1NVUBYWTQHDL1CBBP","A1UGD2VEVSML1U","36U4VBVNQOZD8NFWZXWF9CIHKRIURB","","154.90000000596046","img/food5.png","74","155.19999998807907","1","1","2","2","1,0.5,0,1,0.5,0,0.5,0,1","1,0.5,0,1,0.5,0,0.5,0,1","1","false",""
"","html-keyboard-response","330","190039","0.0-401.0","3P4MQ7TPPYYDI1NVUBYWTQHDL1CBBP","A1UGD2VEVSML1U","36U4VBVNQOZD8NFWZXWF9CIHKRIURB","","null","<img src=""img/food5.png"" style=""width:200px; border:14px solid green;"">","null","","","","","","","","","",""
"","image-keyboard-response","331","190074","0.0-403.0","3P4MQ7TPPYYDI1NVUBYWTQHDL1CBBP","A1UGD2VEVSML1U","36U4VBVNQOZD8NFWZXWF9CIHKRIURB","","34.19999998807907","img/food1.png","76","34.60000002384186","3","1","3","2","1,0.5,0,1,0.5,0,0.5,0,1","1,0.5,0,1,0.5,0,0.5,0,1","1","false",""
"","html-keyboard-response","332","190376","0.0-404.0","3P4MQ7TPPYYDI1NVUBYWTQHDL1CBBP","A1UGD2VEVSML1U","36U4VBVNQOZD8NFWZXWF9CIHKRIURB","","null","<img src=""img/food1.png"" style=""width:200px; border:14px solid green;"">","null","","","","","","","","","",""
"","image-keyboard-response","333","190689","0.0-406.0","3P4MQ7TPPYYDI1NVUBYWTQHDL1CBBP","A1UGD2VEVSML1U","36U4VBVNQOZD8NFWZXWF9CIHKRIURB","","312.69999998807907","img/food5.png","76","313.2000000178814","3","0","2","2","1,0.5,0,1,0.5,0,0.5,0,1","1,0.5,0,1,0.5,0,0.5,0,1","1","false",""
"","html-keyboard-response","334","190995","0.0-407.0","3P4MQ7TPPYYDI1NVUBYWTQHDL1CBBP","A1UGD2VEVSML1U","36U4VBVNQOZD8NFWZXWF9CIHKRIURB","","null","<img src=""img/food5.png"" style=""width:200px;border:14px solid red;"">","null","","","","","","","","","",""
"","image-keyboard-response","335","191305","0.0-409.0","3P4MQ7TPPYYDI1NVUBYWTQHDL1CBBP","A1UGD2VEVSML1U","36U4VBVNQOZD8NFWZXWF9CIHKRIURB","","309.40000000596046","img/food5.png","74","309.89999997615814","1","1","2","2","1,0.5,0,1,0.5,0,0.5,0,1","1,0.5,0,1,0.5,0,0.5,0,1","1","false",""
"","html-keyboard-response","336","191617","0.0-410.0","3P4MQ7TPPYYDI1NVUBYWTQHDL1CBBP","A1UGD2VEVSML1U","36U4VBVNQOZD8NFWZXWF9CIHKRIURB","","null","<img src=""img/food5.png"" style=""width:200px; border:14px solid green;"">","null","","","","","","","","","",""
"","image-keyboard-response","337","191753","0.0-412.0","3P4MQ7TPPYYDI1NVUBYWTQHDL1CBBP","A1UGD2VEVSML1U","36U4VBVNQOZD8NFWZXWF9CIHKRIURB","","135.2999999821186","img/food5.png","75","135.90000000596046","2","1","2","2","1,0.5,0,1,0.5,0,0.5,0,1","1,0.5,0,1,0.5,0,0.5,0,1","1","false",""
"","html-keyboard-response","338","192054","0.0-413.0","3P4MQ7TPPYYDI1NVUBYWTQHDL1CBBP","A1UGD2VEVSML1U","36U4VBVNQOZD8NFWZXWF9CIHKRIURB","","null","<img src=""img/food5.png"" style=""width:200px; border:14px solid green;"">","null","","","","","","","","","",""
"","image-keyboard-response","339","192097","0.0-415.0","3P4MQ7TPPYYDI1NVUBYWTQHDL1CBBP","A1UGD2VEVSML1U","36U4VBVNQOZD8NFWZXWF9CIHKRIURB","","42.400000005960464","img/food3.png","74","42.79999998211861","1","1","1","2","1,0.5,0,1,0.5,0,0.5,0,1","1,0.5,0,1,0.5,0,0.5,0,1","1","false",""
"","html-keyboard-response","340","192399","0.0-416.0","3P4MQ7TPPYYDI1NVUBYWTQHDL1CBBP","A1UGD2VEVSML1U","36U4VBVNQOZD8NFWZXWF9CIHKRIURB","","null","<img src=""img/food3.png"" style=""width:200px; border:14px solid green;"">","null","","","","","","","","","",""
"","image-keyboard-response","341","192561","0.0-418.0","3P4MQ7TPPYYDI1NVUBYWTQHDL1CBBP","A1UGD2VEVSML1U","36U4VBVNQOZD8NFWZXWF9CIHKRIURB","","162.30000001192093","img/food5.png","75","162.80000001192093","2","1","2","2","1,0.5,0,1,0.5,0,0.5,0,1","1,0.5,0,1,0.5,0,0.5,0,1","1","false",""
"","html-keyboard-response","342","192863","0.0-419.0","3P4MQ7TPPYYDI1NVUBYWTQHDL1CBBP","A1UGD2VEVSML1U","36U4VBVNQOZD8NFWZXWF9CIHKRIURB","","null","<img src=""img/food5.png"" style=""width:200px; border:14px solid green;"">","null","","","","","","","","","",""
"","image-keyboard-response","343","193001","0.0-421.0","3P4MQ7TPPYYDI1NVUBYWTQHDL1CBBP","A1UGD2VEVSML1U","36U4VBVNQOZD8NFWZXWF9CIHKRIURB","","137.5","img/food5.png","74","138","1","1","2","2","1,0.5,0,1,0.5,0,0.5,0,1","1,0.5,0,1,0.5,0,0.5,0,1","1","false",""
"","html-keyboard-response","344","193303","0.0-422.0","3P4MQ7TPPYYDI1NVUBYWTQHDL1CBBP","A1UGD2VEVSML1U","36U4VBVNQOZD8NFWZXWF9CIHKRIURB","","null","<img src=""img/food5.png"" style=""width:200px; border:14px solid green;"">","null","","","","","","","","","",""
"","image-keyboard-response","345","193385","0.0-424.0","3P4MQ7TPPYYDI1NVUBYWTQHDL1CBBP","A1UGD2VEVSML1U","36U4VBVNQOZD8NFWZXWF9CIHKRIURB","","81.5","img/food3.png","74","82","1","1","1","2","1,0.5,0,1,0.5,0,0.5,0,1","1,0.5,0,1,0.5,0,0.5,0,1","1","false",""
"","html-keyboard-response","346","193687","0.0-425.0","3P4MQ7TPPYYDI1NVUBYWTQHDL1CBBP","A1UGD2VEVSML1U","36U4VBVNQOZD8NFWZXWF9CIHKRIURB","","null","<img src=""img/food3.png"" style=""width:200px; border:14px solid green;"">","null","","","","","","","","","",""
"","image-keyboard-response","347","193961","0.0-427.0","3P4MQ7TPPYYDI1NVUBYWTQHDL1CBBP","A1UGD2VEVSML1U","36U4VBVNQOZD8NFWZXWF9CIHKRIURB","","273.59999999403954","img/food5.png","74","274.10000002384186","1","1","2","2","1,0.5,0,1,0.5,0,0.5,0,1","1,0.5,0,1,0.5,0,0.5,0,1","1","false",""
"","html-keyboard-response","348","194263","0.0-428.0","3P4MQ7TPPYYDI1NVUBYWTQHDL1CBBP","A1UGD2VEVSML1U","36U4VBVNQOZD8NFWZXWF9CIHKRIURB","","null","<img src=""img/food5.png"" style=""width:200px; border:14px solid green;"">","null","","","","","","","","","",""
"","image-keyboard-response","349","194362","0.0-430.0","3P4MQ7TPPYYDI1NVUBYWTQHDL1CBBP","A1UGD2VEVSML1U","36U4VBVNQOZD8NFWZXWF9CIHKRIURB","","97.90000000596046","img/food1.png","74","98.5","1","0","3","2","1,0.5,0,1,0.5,0,0.5,0,1","1,0.5,0,1,0.5,0,0.5,0,1","1","false",""
"","html-keyboard-response","350","194663","0.0-431.0","3P4MQ7TPPYYDI1NVUBYWTQHDL1CBBP","A1UGD2VEVSML1U","36U4VBVNQOZD8NFWZXWF9CIHKRIURB","","null","<img src=""img/food1.png"" style=""width:200px;border:14px solid red;"">","null","","","","","","","","","",""
"","image-keyboard-response","351","194817","0.0-433.0","3P4MQ7TPPYYDI1NVUBYWTQHDL1CBBP","A1UGD2VEVSML1U","36U4VBVNQOZD8NFWZXWF9CIHKRIURB","","153.59999999403954","img/food3.png","74","154","1","1","1","2","1,0.5,0,1,0.5,0,0.5,0,1","1,0.5,0,1,0.5,0,0.5,0,1","1","false",""
"","html-keyboard-response","352","195120","0.0-434.0","3P4MQ7TPPYYDI1NVUBYWTQHDL1CBBP","A1UGD2VEVSML1U","36U4VBVNQOZD8NFWZXWF9CIHKRIURB","","null","<img src=""img/food3.png"" style=""width:200px; border:14px solid green;"">","null","","","","","","","","","",""
"","image-keyboard-response","353","195201","0.0-436.0","3P4MQ7TPPYYDI1NVUBYWTQHDL1CBBP","A1UGD2VEVSML1U","36U4VBVNQOZD8NFWZXWF9CIHKRIURB","","80.59999999403954","img/food5.png","75","81.2000000178814","2","1","2","2","1,0.5,0,1,0.5,0,0.5,0,1","1,0.5,0,1,0.5,0,0.5,0,1","1","false",""
"","html-keyboard-response","354","195503","0.0-437.0","3P4MQ7TPPYYDI1NVUBYWTQHDL1CBBP","A1UGD2VEVSML1U","36U4VBVNQOZD8NFWZXWF9CIHKRIURB","","null","<img src=""img/food5.png"" style=""width:200px; border:14px solid green;"">","null","","","","","","","","","",""
"","image-keyboard-response","355","195777","0.0-439.0","3P4MQ7TPPYYDI1NVUBYWTQHDL1CBBP","A1UGD2VEVSML1U","36U4VBVNQOZD8NFWZXWF9CIHKRIURB","","273.59999999403954","img/food5.png","74","274","1","1","2","2","1,0.5,0,1,0.5,0,0.5,0,1","1,0.5,0,1,0.5,0,0.5,0,1","1","false",""
"","html-keyboard-response","356","196079","0.0-440.0","3P4MQ7TPPYYDI1NVUBYWTQHDL1CBBP","A1UGD2VEVSML1U","36U4VBVNQOZD8NFWZXWF9CIHKRIURB","","null","<img src=""img/food5.png"" style=""width:200px; border:14px solid green;"">","null","","","","","","","","","",""
"","image-keyboard-response","357","196281","0.0-442.0","3P4MQ7TPPYYDI1NVUBYWTQHDL1CBBP","A1UGD2VEVSML1U","36U4VBVNQOZD8NFWZXWF9CIHKRIURB","","202","img/food3.png","74","202.5","1","1","1","2","1,0.5,0,1,0.5,0,0.5,0,1","1,0.5,0,1,0.5,0,0.5,0,1","1","false",""
"","html-keyboard-response","358","196583","0.0-443.0","3P4MQ7TPPYYDI1NVUBYWTQHDL1CBBP","A1UGD2VEVSML1U","36U4VBVNQOZD8NFWZXWF9CIHKRIURB","","null","<img src=""img/food3.png"" style=""width:200px; border:14px solid green;"">","null","","","","","","","","","",""
"","image-keyboard-response","359","196761","0.0-445.0","3P4MQ7TPPYYDI1NVUBYWTQHDL1CBBP","A1UGD2VEVSML1U","36U4VBVNQOZD8NFWZXWF9CIHKRIURB","","177.40000000596046","img/food5.png","74","177.90000000596046","1","1","2","2","1,0.5,0,1,0.5,0,0.5,0,1","1,0.5,0,1,0.5,0,0.5,0,1","1","false",""
"","html-keyboard-response","360","197074","0.0-446.0","3P4MQ7TPPYYDI1NVUBYWTQHDL1CBBP","A1UGD2VEVSML1U","36U4VBVNQOZD8NFWZXWF9CIHKRIURB","","null","<img src=""img/food5.png"" style=""width:200px; border:14px solid green;"">","null","","","","","","","","","",""
"","image-keyboard-response","361","197169","0.0-448.0","3P4MQ7TPPYYDI1NVUBYWTQHDL1CBBP","A1UGD2VEVSML1U","36U4VBVNQOZD8NFWZXWF9CIHKRIURB","","94.19999998807907","img/food1.png","75","94.69999998807907","2","0","3","2","1,0.5,0,1,0.5,0,0.5,0,1","1,0.5,0,1,0.5,0,0.5,0,1","1","false",""
"","html-keyboard-response","362","197470","0.0-449.0","3P4MQ7TPPYYDI1NVUBYWTQHDL1CBBP","A1UGD2VEVSML1U","36U4VBVNQOZD8NFWZXWF9CIHKRIURB","","null","<img src=""img/food1.png"" style=""width:200px;border:14px solid red;"">","null","","","","","","","","","",""
"","image-keyboard-response","363","197489","0.0-451.0","3P4MQ7TPPYYDI1NVUBYWTQHDL1CBBP","A1UGD2VEVSML1U","36U4VBVNQOZD8NFWZXWF9CIHKRIURB","","18.5","img/food3.png","74","18.899999976158142","1","1","1","2","1,0.5,0,1,0.5,0,0.5,0,1","1,0.5,0,1,0.5,0,0.5,0,1","1","false",""
"","html-keyboard-response","364","197791","0.0-452.0","3P4MQ7TPPYYDI1NVUBYWTQHDL1CBBP","A1UGD2VEVSML1U","36U4VBVNQOZD8NFWZXWF9CIHKRIURB","","null","<img src=""img/food3.png"" style=""width:200px; border:14px solid green;"">","null","","","","","","","","","",""
"","instructions","365","200866","0.0-454.0","3P4MQ7TPPYYDI1NVUBYWTQHDL1CBBP","A1UGD2VEVSML1U","36U4VBVNQOZD8NFWZXWF9CIHKRIURB","[{""page_index"":0,""viewing_time"":3074.9000000059605}]","3075.100000023842","","","","","","","","","","","",""
"","survey-text","366","207163","0.0-455.0","3P4MQ7TPPYYDI1NVUBYWTQHDL1CBBP","A1UGD2VEVSML1U","36U4VBVNQOZD8NFWZXWF9CIHKRIURB","","6294.5","","","","","","","","","","","","{""Q0"":""A1UGD2VEVSML1U""}"
