"success","trial_type","trial_index","time_elapsed","internal_node_id","assignmentID","mturkID","hitID","view_history","rt","stimulus","key_press","reactionTime","a","r","s","reward_cond","responses"
"true","fullscreen","0","3248","0.0-0.0","3FIUS151DWO50Z3HQJIOVCZ7DCIGGG","A1XQOZV8LQDM22","3TZDZ3Y0JSSRVQSC3SM97PDQ3Z7196","","","","","","","","","",""
"","instructions","1","55099","0.0-1.0","3FIUS151DWO50Z3HQJIOVCZ7DCIGGG","A1XQOZV8LQDM22","3TZDZ3Y0JSSRVQSC3SM97PDQ3Z7196","[{""page_index"":0,""viewing_time"":13079.800000000745},{""page_index"":1,""viewing_time"":647.2999999998137},{""page_index"":2,""viewing_time"":848.7000000001863},{""page_index"":3,""viewing_time"":1470.699999999255},{""page_index"":4,""viewing_time"":7690.300000000745},{""page_index"":5,""viewing_time"":11862},{""page_index"":6,""viewing_time"":8177.199999999255},{""page_index"":7,""viewing_time"":8054.5}]","51834.300000000745","","","","","","","",""
"","image-keyboard-response","2","58588","0.0-2.0","3FIUS151DWO50Z3HQJIOVCZ7DCIGGG","A1XQOZV8LQDM22","3TZDZ3Y0JSSRVQSC3SM97PDQ3Z7196","","3478.0999999996275","img/food4.png","76","3486.2000000001863","2","0","2","0.2,0.8,0.2,0.8,0.2,0.8,0.8,0.2",""
"","html-keyboard-response","3","58901","0.0-3.0","3FIUS151DWO50Z3HQJIOVCZ7DCIGGG","A1XQOZV8LQDM22","3TZDZ3Y0JSSRVQSC3SM97PDQ3Z7196","","null","<img src=""img/food4.png"" style=""width:200px;border:14px solid red;"">","null","","","","","",""
"","image-keyboard-response","4","59764","0.0-4.0","3FIUS151DWO50Z3HQJIOVCZ7DCIGGG","A1XQOZV8LQDM22","3TZDZ3Y0JSSRVQSC3SM97PDQ3Z7196","","855.6000000005588","img/food4.png","75","860.4000000003725","1","1","2","0.2,0.8,0.2,0.8,0.2,0.8,0.8,0.2",""
"","html-keyboard-response","5","60077","0.0-5.0","3FIUS151DWO50Z3HQJIOVCZ7DCIGGG","A1XQOZV8LQDM22","3TZDZ3Y0JSSRVQSC3SM97PDQ3Z7196","","null","<img src=""img/food4.png"" style=""width:200px; border:14px solid green;"">","null","","","","","",""
"","image-keyboard-response","6","60611","0.0-6.0","3FIUS151DWO50Z3HQJIOVCZ7DCIGGG","A1XQOZV8LQDM22","3TZDZ3Y0JSSRVQSC3SM97PDQ3Z7196","","526.5999999996275","img/food4.png","75","531.8000000007451","1","0","2","0.2,0.8,0.2,0.8,0.2,0.8,0.8,0.2",""
"","html-keyboard-response","7","60940","0.0-7.0","3FIUS151DWO50Z3HQJIOVCZ7DCIGGG","A1XQOZV8LQDM22","3TZDZ3Y0JSSRVQSC3SM97PDQ3Z7196","","null","<img src=""img/food4.png"" style=""width:200px;border:14px solid red;"">","null","","","","","",""
"","image-keyboard-response","8","61610","0.0-8.0","3FIUS151DWO50Z3HQJIOVCZ7DCIGGG","A1XQOZV8LQDM22","3TZDZ3Y0JSSRVQSC3SM97PDQ3Z7196","","665.2000000001863","img/food3.png","76","669.1000000005588","2","1","3","0.2,0.8,0.2,0.8,0.2,0.8,0.8,0.2",""
"","html-keyboard-response","9","61917","0.0-9.0","3FIUS151DWO50Z3HQJIOVCZ7DCIGGG","A1XQOZV8LQDM22","3TZDZ3Y0JSSRVQSC3SM97PDQ3Z7196","","null","<img src=""img/food3.png"" style=""width:200px; border:14px solid green;"">","null","","","","","",""
"","image-keyboard-response","10","62215","0.0-10.0","3FIUS151DWO50Z3HQJIOVCZ7DCIGGG","A1XQOZV8LQDM22","3TZDZ3Y0JSSRVQSC3SM97PDQ3Z7196","","290.59999999962747","img/food3.png","76","295.79999999981374","2","1","3","0.2,0.8,0.2,0.8,0.2,0.8,0.8,0.2",""
"","html-keyboard-response","11","62524","0.0-11.0","3FIUS151DWO50Z3HQJIOVCZ7DCIGGG","A1XQOZV8LQDM22","3TZDZ3Y0JSSRVQSC3SM97PDQ3Z7196","","null","<img src=""img/food3.png"" style=""width:200px; border:14px solid green;"">","null","","","","","",""
"","image-keyboard-response","12","63038","0.0-12.0","3FIUS151DWO50Z3HQJIOVCZ7DCIGGG","A1XQOZV8LQDM22","3TZDZ3Y0JSSRVQSC3SM97PDQ3Z7196","","507.5","img/food5.png","75","512.4000000003725","1","0","1","0.2,0.8,0.2,0.8,0.2,0.8,0.8,0.2",""
"","html-keyboard-response","13","63483","0.0-13.0","3FIUS151DWO50Z3HQJIOVCZ7DCIGGG","A1XQOZV8LQDM22","3TZDZ3Y0JSSRVQSC3SM97PDQ3Z7196","","null","<img src=""img/food5.png"" style=""width:200px;border:14px solid red;"">","null","","","","","",""
"","image-keyboard-response","14","63797","0.0-14.0","3FIUS151DWO50Z3HQJIOVCZ7DCIGGG","A1XQOZV8LQDM22","3TZDZ3Y0JSSRVQSC3SM97PDQ3Z7196","","307.40000000037253","img/food5.png","76","312.90000000037253","2","1","1","0.2,0.8,0.2,0.8,0.2,0.8,0.8,0.2",""
"","html-keyboard-response","15","64109","0.0-15.0","3FIUS151DWO50Z3HQJIOVCZ7DCIGGG","A1XQOZV8LQDM22","3TZDZ3Y0JSSRVQSC3SM97PDQ3Z7196","","null","<img src=""img/food5.png"" style=""width:200px; border:14px solid green;"">","null","","","","","",""
"","image-keyboard-response","16","64621","0.0-16.0","3FIUS151DWO50Z3HQJIOVCZ7DCIGGG","A1XQOZV8LQDM22","3TZDZ3Y0JSSRVQSC3SM97PDQ3Z7196","","508.3999999994412","img/food5.png","75","511.09999999962747","1","0","1","0.2,0.8,0.2,0.8,0.2,0.8,0.8,0.2",""
"","html-keyboard-response","17","64926","0.0-17.0","3FIUS151DWO50Z3HQJIOVCZ7DCIGGG","A1XQOZV8LQDM22","3TZDZ3Y0JSSRVQSC3SM97PDQ3Z7196","","null","<img src=""img/food5.png"" style=""width:200px;border:14px solid red;"">","null","","","","","",""
"","image-keyboard-response","18","65362","0.0-18.0","3FIUS151DWO50Z3HQJIOVCZ7DCIGGG","A1XQOZV8LQDM22","3TZDZ3Y0JSSRVQSC3SM97PDQ3Z7196","","434","img/food3.png","76","436.20000000018626","2","1","3","0.2,0.8,0.2,0.8,0.2,0.8,0.8,0.2",""
"","html-keyboard-response","19","65673","0.0-19.0","3FIUS151DWO50Z3HQJIOVCZ7DCIGGG","A1XQOZV8LQDM22","3TZDZ3Y0JSSRVQSC3SM97PDQ3Z7196","","null","<img src=""img/food3.png"" style=""width:200px; border:14px solid green;"">","null","","","","","",""
"","image-keyboard-response","20","66253","0.0-20.0","3FIUS151DWO50Z3HQJIOVCZ7DCIGGG","A1XQOZV8LQDM22","3TZDZ3Y0JSSRVQSC3SM97PDQ3Z7196","","577.6000000005588","img/food5.png","75","579.2999999998137","1","0","1","0.2,0.8,0.2,0.8,0.2,0.8,0.8,0.2",""
"","html-keyboard-response","21","66558","0.0-21.0","3FIUS151DWO50Z3HQJIOVCZ7DCIGGG","A1XQOZV8LQDM22","3TZDZ3Y0JSSRVQSC3SM97PDQ3Z7196","","null","<img src=""img/food5.png"" style=""width:200px;border:14px solid red;"">","null","","","","","",""
"","image-keyboard-response","22","66982","0.0-22.0","3FIUS151DWO50Z3HQJIOVCZ7DCIGGG","A1XQOZV8LQDM22","3TZDZ3Y0JSSRVQSC3SM97PDQ3Z7196","","419.30000000074506","img/food4.png","76","423.3999999994412","2","1","2","0.2,0.8,0.2,0.8,0.2,0.8,0.8,0.2",""
"","html-keyboard-response","23","67292","0.0-23.0","3FIUS151DWO50Z3HQJIOVCZ7DCIGGG","A1XQOZV8LQDM22","3TZDZ3Y0JSSRVQSC3SM97PDQ3Z7196","","null","<img src=""img/food4.png"" style=""width:200px; border:14px solid green;"">","null","","","","","",""
"","image-keyboard-response","24","67714","0.0-24.0","3FIUS151DWO50Z3HQJIOVCZ7DCIGGG","A1XQOZV8LQDM22","3TZDZ3Y0JSSRVQSC3SM97PDQ3Z7196","","417.5","img/food5.png","76","421","2","1","1","0.2,0.8,0.2,0.8,0.2,0.8,0.8,0.2",""
"","html-keyboard-response","25","68021","0.0-25.0","3FIUS151DWO50Z3HQJIOVCZ7DCIGGG","A1XQOZV8LQDM22","3TZDZ3Y0JSSRVQSC3SM97PDQ3Z7196","","null","<img src=""img/food5.png"" style=""width:200px; border:14px solid green;"">","null","","","","","",""
"","image-keyboard-response","26","68706","0.0-26.0","3FIUS151DWO50Z3HQJIOVCZ7DCIGGG","A1XQOZV8LQDM22","3TZDZ3Y0JSSRVQSC3SM97PDQ3Z7196","","678.7999999998137","img/food6.png","75","683.7999999998137","1","1","4","0.2,0.8,0.2,0.8,0.2,0.8,0.8,0.2",""
"","html-keyboard-response","27","69012","0.0-27.0","3FIUS151DWO50Z3HQJIOVCZ7DCIGGG","A1XQOZV8LQDM22","3TZDZ3Y0JSSRVQSC3SM97PDQ3Z7196","","null","<img src=""img/food6.png"" style=""width:200px; border:14px solid green;"">","null","","","","","",""
"","image-keyboard-response","28","69423","0.0-28.0","3FIUS151DWO50Z3HQJIOVCZ7DCIGGG","A1XQOZV8LQDM22","3TZDZ3Y0JSSRVQSC3SM97PDQ3Z7196","","398.29999999981374","img/food5.png","75","410.09999999962747","1","1","1","0.2,0.8,0.2,0.8,0.2,0.8,0.8,0.2",""
"","html-keyboard-response","29","69733","0.0-29.0","3FIUS151DWO50Z3HQJIOVCZ7DCIGGG","A1XQOZV8LQDM22","3TZDZ3Y0JSSRVQSC3SM97PDQ3Z7196","","null","<img src=""img/food5.png"" style=""width:200px; border:14px solid green;"">","null","","","","","",""
"","image-keyboard-response","30","70137","0.0-30.0","3FIUS151DWO50Z3HQJIOVCZ7DCIGGG","A1XQOZV8LQDM22","3TZDZ3Y0JSSRVQSC3SM97PDQ3Z7196","","395.90000000037253","img/food3.png","76","402.59999999962747","2","1","3","0.2,0.8,0.2,0.8,0.2,0.8,0.8,0.2",""
"","html-keyboard-response","31","70445","0.0-31.0","3FIUS151DWO50Z3HQJIOVCZ7DCIGGG","A1XQOZV8LQDM22","3TZDZ3Y0JSSRVQSC3SM97PDQ3Z7196","","null","<img src=""img/food3.png"" style=""width:200px; border:14px solid green;"">","null","","","","","",""
"","image-keyboard-response","32","70973","0.0-32.0","3FIUS151DWO50Z3HQJIOVCZ7DCIGGG","A1XQOZV8LQDM22","3TZDZ3Y0JSSRVQSC3SM97PDQ3Z7196","","523.0999999996275","img/food6.png","76","526.7999999998137","2","0","4","0.2,0.8,0.2,0.8,0.2,0.8,0.8,0.2",""
"","html-keyboard-response","33","71285","0.0-33.0","3FIUS151DWO50Z3HQJIOVCZ7DCIGGG","A1XQOZV8LQDM22","3TZDZ3Y0JSSRVQSC3SM97PDQ3Z7196","","null","<img src=""img/food6.png"" style=""width:200px;border:14px solid red;"">","null","","","","","",""
"","image-keyboard-response","34","71995","0.0-34.0","3FIUS151DWO50Z3HQJIOVCZ7DCIGGG","A1XQOZV8LQDM22","3TZDZ3Y0JSSRVQSC3SM97PDQ3Z7196","","704.7000000001863","img/food4.png","75","708.5","1","0","2","0.2,0.8,0.2,0.8,0.2,0.8,0.8,0.2",""
"","html-keyboard-response","35","72308","0.0-35.0","3FIUS151DWO50Z3HQJIOVCZ7DCIGGG","A1XQOZV8LQDM22","3TZDZ3Y0JSSRVQSC3SM97PDQ3Z7196","","null","<img src=""img/food4.png"" style=""width:200px;border:14px solid red;"">","null","","","","","",""
"","image-keyboard-response","36","72973","0.0-36.0","3FIUS151DWO50Z3HQJIOVCZ7DCIGGG","A1XQOZV8LQDM22","3TZDZ3Y0JSSRVQSC3SM97PDQ3Z7196","","660.5999999996275","img/food6.png","75","664.2999999998137","1","1","4","0.2,0.8,0.2,0.8,0.2,0.8,0.8,0.2",""
"","html-keyboard-response","37","73348","0.0-37.0","3FIUS151DWO50Z3HQJIOVCZ7DCIGGG","A1XQOZV8LQDM22","3TZDZ3Y0JSSRVQSC3SM97PDQ3Z7196","","null","<img src=""img/food6.png"" style=""width:200px; border:14px solid green;"">","null","","","","","",""
"","image-keyboard-response","38","73883","0.0-38.0","3FIUS151DWO50Z3HQJIOVCZ7DCIGGG","A1XQOZV8LQDM22","3TZDZ3Y0JSSRVQSC3SM97PDQ3Z7196","","529.4000000003725","img/food3.png","76","534","2","1","3","0.2,0.8,0.2,0.8,0.2,0.8,0.8,0.2",""
"","html-keyboard-response","39","74189","0.0-39.0","3FIUS151DWO50Z3HQJIOVCZ7DCIGGG","A1XQOZV8LQDM22","3TZDZ3Y0JSSRVQSC3SM97PDQ3Z7196","","null","<img src=""img/food3.png"" style=""width:200px; border:14px solid green;"">","null","","","","","",""
"","image-keyboard-response","40","74813","0.0-40.0","3FIUS151DWO50Z3HQJIOVCZ7DCIGGG","A1XQOZV8LQDM22","3TZDZ3Y0JSSRVQSC3SM97PDQ3Z7196","","619","img/food6.png","75","622.7999999998137","1","1","4","0.2,0.8,0.2,0.8,0.2,0.8,0.8,0.2",""
"","html-keyboard-response","41","75125","0.0-41.0","3FIUS151DWO50Z3HQJIOVCZ7DCIGGG","A1XQOZV8LQDM22","3TZDZ3Y0JSSRVQSC3SM97PDQ3Z7196","","null","<img src=""img/food6.png"" style=""width:200px; border:14px solid green;"">","null","","","","","",""
"","image-keyboard-response","42","75689","0.0-42.0","3FIUS151DWO50Z3HQJIOVCZ7DCIGGG","A1XQOZV8LQDM22","3TZDZ3Y0JSSRVQSC3SM97PDQ3Z7196","","557.7000000001863","img/food4.png","75","562.2999999998137","1","1","2","0.2,0.8,0.2,0.8,0.2,0.8,0.8,0.2",""
"","html-keyboard-response","43","75996","0.0-43.0","3FIUS151DWO50Z3HQJIOVCZ7DCIGGG","A1XQOZV8LQDM22","3TZDZ3Y0JSSRVQSC3SM97PDQ3Z7196","","null","<img src=""img/food4.png"" style=""width:200px; border:14px solid green;"">","null","","","","","",""
"","image-keyboard-response","44","76583","0.0-44.0","3FIUS151DWO50Z3HQJIOVCZ7DCIGGG","A1XQOZV8LQDM22","3TZDZ3Y0JSSRVQSC3SM97PDQ3Z7196","","582.2000000001863","img/food5.png","75","586.2000000001863","1","0","1","0.2,0.8,0.2,0.8,0.2,0.8,0.8,0.2",""
"","html-keyboard-response","45","76893","0.0-45.0","3FIUS151DWO50Z3HQJIOVCZ7DCIGGG","A1XQOZV8LQDM22","3TZDZ3Y0JSSRVQSC3SM97PDQ3Z7196","","null","<img src=""img/food5.png"" style=""width:200px;border:14px solid red;"">","null","","","","","",""
"","image-keyboard-response","46","77332","0.0-46.0","3FIUS151DWO50Z3HQJIOVCZ7DCIGGG","A1XQOZV8LQDM22","3TZDZ3Y0JSSRVQSC3SM97PDQ3Z7196","","434.5","img/food3.png","76","438.40000000037253","2","1","3","0.2,0.8,0.2,0.8,0.2,0.8,0.8,0.2",""
"","html-keyboard-response","47","77645","0.0-47.0","3FIUS151DWO50Z3HQJIOVCZ7DCIGGG","A1XQOZV8LQDM22","3TZDZ3Y0JSSRVQSC3SM97PDQ3Z7196","","null","<img src=""img/food3.png"" style=""width:200px; border:14px solid green;"">","null","","","","","",""
"","image-keyboard-response","48","78254","0.0-48.0","3FIUS151DWO50Z3HQJIOVCZ7DCIGGG","A1XQOZV8LQDM22","3TZDZ3Y0JSSRVQSC3SM97PDQ3Z7196","","602.3999999994412","img/food6.png","76","607.8999999994412","2","0","4","0.2,0.8,0.2,0.8,0.2,0.8,0.8,0.2",""
"","html-keyboard-response","49","78564","0.0-49.0","3FIUS151DWO50Z3HQJIOVCZ7DCIGGG","A1XQOZV8LQDM22","3TZDZ3Y0JSSRVQSC3SM97PDQ3Z7196","","null","<img src=""img/food6.png"" style=""width:200px;border:14px solid red;"">","null","","","","","",""
"","image-keyboard-response","50","79033","0.0-50.0","3FIUS151DWO50Z3HQJIOVCZ7DCIGGG","A1XQOZV8LQDM22","3TZDZ3Y0JSSRVQSC3SM97PDQ3Z7196","","465","img/food4.png","75","468.40000000037253","1","0","2","0.2,0.8,0.2,0.8,0.2,0.8,0.8,0.2",""
"","html-keyboard-response","51","79340","0.0-51.0","3FIUS151DWO50Z3HQJIOVCZ7DCIGGG","A1XQOZV8LQDM22","3TZDZ3Y0JSSRVQSC3SM97PDQ3Z7196","","null","<img src=""img/food4.png"" style=""width:200px;border:14px solid red;"">","null","","","","","",""
"","image-keyboard-response","52","79799","0.0-52.0","3FIUS151DWO50Z3HQJIOVCZ7DCIGGG","A1XQOZV8LQDM22","3TZDZ3Y0JSSRVQSC3SM97PDQ3Z7196","","453.40000000037253","img/food3.png","76","457.5","2","1","3","0.2,0.8,0.2,0.8,0.2,0.8,0.8,0.2",""
"","html-keyboard-response","53","80109","0.0-53.0","3FIUS151DWO50Z3HQJIOVCZ7DCIGGG","A1XQOZV8LQDM22","3TZDZ3Y0JSSRVQSC3SM97PDQ3Z7196","","null","<img src=""img/food3.png"" style=""width:200px; border:14px solid green;"">","null","","","","","",""
"","image-keyboard-response","54","80573","0.0-54.0","3FIUS151DWO50Z3HQJIOVCZ7DCIGGG","A1XQOZV8LQDM22","3TZDZ3Y0JSSRVQSC3SM97PDQ3Z7196","","458.40000000037253","img/food3.png","76","463.09999999962747","2","1","3","0.2,0.8,0.2,0.8,0.2,0.8,0.8,0.2",""
"","html-keyboard-response","55","80973","0.0-55.0","3FIUS151DWO50Z3HQJIOVCZ7DCIGGG","A1XQOZV8LQDM22","3TZDZ3Y0JSSRVQSC3SM97PDQ3Z7196","","null","<img src=""img/food3.png"" style=""width:200px; border:14px solid green;"">","null","","","","","",""
"","image-keyboard-response","56","81345","0.0-56.0","3FIUS151DWO50Z3HQJIOVCZ7DCIGGG","A1XQOZV8LQDM22","3TZDZ3Y0JSSRVQSC3SM97PDQ3Z7196","","368.09999999962747","img/food3.png","76","372.29999999981374","2","1","3","0.2,0.8,0.2,0.8,0.2,0.8,0.8,0.2",""
"","html-keyboard-response","57","81653","0.0-57.0","3FIUS151DWO50Z3HQJIOVCZ7DCIGGG","A1XQOZV8LQDM22","3TZDZ3Y0JSSRVQSC3SM97PDQ3Z7196","","null","<img src=""img/food3.png"" style=""width:200px; border:14px solid green;"">","null","","","","","",""
"","image-keyboard-response","58","82141","0.0-58.0","3FIUS151DWO50Z3HQJIOVCZ7DCIGGG","A1XQOZV8LQDM22","3TZDZ3Y0JSSRVQSC3SM97PDQ3Z7196","","483.6000000005588","img/food4.png","75","487.59999999962747","1","0","2","0.2,0.8,0.2,0.8,0.2,0.8,0.8,0.2",""
"","html-keyboard-response","59","82452","0.0-59.0","3FIUS151DWO50Z3HQJIOVCZ7DCIGGG","A1XQOZV8LQDM22","3TZDZ3Y0JSSRVQSC3SM97PDQ3Z7196","","null","<img src=""img/food4.png"" style=""width:200px;border:14px solid red;"">","null","","","","","",""
"","image-keyboard-response","60","82808","0.0-60.0","3FIUS151DWO50Z3HQJIOVCZ7DCIGGG","A1XQOZV8LQDM22","3TZDZ3Y0JSSRVQSC3SM97PDQ3Z7196","","352","img/food5.png","76","355.40000000037253","2","1","1","0.2,0.8,0.2,0.8,0.2,0.8,0.8,0.2",""
"","html-keyboard-response","61","83116","0.0-61.0","3FIUS151DWO50Z3HQJIOVCZ7DCIGGG","A1XQOZV8LQDM22","3TZDZ3Y0JSSRVQSC3SM97PDQ3Z7196","","null","<img src=""img/food5.png"" style=""width:200px; border:14px solid green;"">","null","","","","","",""
"","image-keyboard-response","62","83448","0.0-62.0","3FIUS151DWO50Z3HQJIOVCZ7DCIGGG","A1XQOZV8LQDM22","3TZDZ3Y0JSSRVQSC3SM97PDQ3Z7196","","326.1000000005588","img/food3.png","75","330.79999999981374","1","0","3","0.2,0.8,0.2,0.8,0.2,0.8,0.8,0.2",""
"","html-keyboard-response","63","83757","0.0-63.0","3FIUS151DWO50Z3HQJIOVCZ7DCIGGG","A1XQOZV8LQDM22","3TZDZ3Y0JSSRVQSC3SM97PDQ3Z7196","","null","<img src=""img/food3.png"" style=""width:200px;border:14px solid red;"">","null","","","","","",""
"","image-keyboard-response","64","84225","0.0-64.0","3FIUS151DWO50Z3HQJIOVCZ7DCIGGG","A1XQOZV8LQDM22","3TZDZ3Y0JSSRVQSC3SM97PDQ3Z7196","","462.1000000005588","img/food5.png","75","466.29999999981374","1","0","1","0.2,0.8,0.2,0.8,0.2,0.8,0.8,0.2",""
"","html-keyboard-response","65","84594","0.0-65.0","3FIUS151DWO50Z3HQJIOVCZ7DCIGGG","A1XQOZV8LQDM22","3TZDZ3Y0JSSRVQSC3SM97PDQ3Z7196","","null","<img src=""img/food5.png"" style=""width:200px;border:14px solid red;"">","null","","","","","",""
"","image-keyboard-response","66","84906","0.0-66.0","3FIUS151DWO50Z3HQJIOVCZ7DCIGGG","A1XQOZV8LQDM22","3TZDZ3Y0JSSRVQSC3SM97PDQ3Z7196","","229.29999999981374","img/food3.png","76","233.59999999962747","2","1","3","0.2,0.8,0.2,0.8,0.2,0.8,0.8,0.2",""
"","html-keyboard-response","67","85217","0.0-67.0","3FIUS151DWO50Z3HQJIOVCZ7DCIGGG","A1XQOZV8LQDM22","3TZDZ3Y0JSSRVQSC3SM97PDQ3Z7196","","null","<img src=""img/food3.png"" style=""width:200px; border:14px solid green;"">","null","","","","","",""
"","image-keyboard-response","68","85686","0.0-68.0","3FIUS151DWO50Z3HQJIOVCZ7DCIGGG","A1XQOZV8LQDM22","3TZDZ3Y0JSSRVQSC3SM97PDQ3Z7196","","461.40000000037253","img/food6.png","76","466.70000000018626","2","0","4","0.2,0.8,0.2,0.8,0.2,0.8,0.8,0.2",""
"","html-keyboard-response","69","85997","0.0-69.0","3FIUS151DWO50Z3HQJIOVCZ7DCIGGG","A1XQOZV8LQDM22","3TZDZ3Y0JSSRVQSC3SM97PDQ3Z7196","","null","<img src=""img/food6.png"" style=""width:200px;border:14px solid red;"">","null","","","","","",""
"","image-keyboard-response","70","86622","0.0-70.0","3FIUS151DWO50Z3HQJIOVCZ7DCIGGG","A1XQOZV8LQDM22","3TZDZ3Y0JSSRVQSC3SM97PDQ3Z7196","","621.5","img/food5.png","75","624.8999999994412","1","0","1","0.2,0.8,0.2,0.8,0.2,0.8,0.8,0.2",""
"","html-keyboard-response","71","86934","0.0-71.0","3FIUS151DWO50Z3HQJIOVCZ7DCIGGG","A1XQOZV8LQDM22","3TZDZ3Y0JSSRVQSC3SM97PDQ3Z7196","","null","<img src=""img/food5.png"" style=""width:200px;border:14px solid red;"">","null","","","","","",""
"","image-keyboard-response","72","87439","0.0-72.0","3FIUS151DWO50Z3HQJIOVCZ7DCIGGG","A1XQOZV8LQDM22","3TZDZ3Y0JSSRVQSC3SM97PDQ3Z7196","","500.30000000074506","img/food6.png","76","504.40000000037253","2","0","4","0.2,0.8,0.2,0.8,0.2,0.8,0.8,0.2",""
"","html-keyboard-response","73","87749","0.0-73.0","3FIUS151DWO50Z3HQJIOVCZ7DCIGGG","A1XQOZV8LQDM22","3TZDZ3Y0JSSRVQSC3SM97PDQ3Z7196","","null","<img src=""img/food6.png"" style=""width:200px;border:14px solid red;"">","null","","","","","",""
"","image-keyboard-response","74","88107","0.0-74.0","3FIUS151DWO50Z3HQJIOVCZ7DCIGGG","A1XQOZV8LQDM22","3TZDZ3Y0JSSRVQSC3SM97PDQ3Z7196","","352.30000000074506","img/food3.png","75","357","1","0","3","0.2,0.8,0.2,0.8,0.2,0.8,0.8,0.2",""
"","html-keyboard-response","75","88476","0.0-75.0","3FIUS151DWO50Z3HQJIOVCZ7DCIGGG","A1XQOZV8LQDM22","3TZDZ3Y0JSSRVQSC3SM97PDQ3Z7196","","null","<img src=""img/food3.png"" style=""width:200px;border:14px solid red;"">","null","","","","","",""
"","image-keyboard-response","76","89088","0.0-76.0","3FIUS151DWO50Z3HQJIOVCZ7DCIGGG","A1XQOZV8LQDM22","3TZDZ3Y0JSSRVQSC3SM97PDQ3Z7196","","606.2999999998137","img/food4.png","75","610.7999999998137","1","0","2","0.2,0.8,0.2,0.8,0.2,0.8,0.8,0.2",""
"","html-keyboard-response","77","89396","0.0-77.0","3FIUS151DWO50Z3HQJIOVCZ7DCIGGG","A1XQOZV8LQDM22","3TZDZ3Y0JSSRVQSC3SM97PDQ3Z7196","","null","<img src=""img/food4.png"" style=""width:200px;border:14px solid red;"">","null","","","","","",""
"","image-keyboard-response","78","89830","0.0-78.0","3FIUS151DWO50Z3HQJIOVCZ7DCIGGG","A1XQOZV8LQDM22","3TZDZ3Y0JSSRVQSC3SM97PDQ3Z7196","","429.20000000018626","img/food4.png","76","432.70000000018626","2","1","2","0.2,0.8,0.2,0.8,0.2,0.8,0.8,0.2",""
"","html-keyboard-response","79","90140","0.0-79.0","3FIUS151DWO50Z3HQJIOVCZ7DCIGGG","A1XQOZV8LQDM22","3TZDZ3Y0JSSRVQSC3SM97PDQ3Z7196","","null","<img src=""img/food4.png"" style=""width:200px; border:14px solid green;"">","null","","","","","",""
"","image-keyboard-response","80","90703","0.0-80.0","3FIUS151DWO50Z3HQJIOVCZ7DCIGGG","A1XQOZV8LQDM22","3TZDZ3Y0JSSRVQSC3SM97PDQ3Z7196","","557.3000000007451","img/food3.png","76","560.9000000003725","2","1","3","0.2,0.8,0.2,0.8,0.2,0.8,0.8,0.2",""
"","html-keyboard-response","81","91012","0.0-81.0","3FIUS151DWO50Z3HQJIOVCZ7DCIGGG","A1XQOZV8LQDM22","3TZDZ3Y0JSSRVQSC3SM97PDQ3Z7196","","null","<img src=""img/food3.png"" style=""width:200px; border:14px solid green;"">","null","","","","","",""
"","image-keyboard-response","82","91950","0.0-82.0","3FIUS151DWO50Z3HQJIOVCZ7DCIGGG","A1XQOZV8LQDM22","3TZDZ3Y0JSSRVQSC3SM97PDQ3Z7196","","933.6999999992549","img/food6.png","76","937.3999999994412","2","0","4","0.2,0.8,0.2,0.8,0.2,0.8,0.8,0.2",""
"","html-keyboard-response","83","92261","0.0-83.0","3FIUS151DWO50Z3HQJIOVCZ7DCIGGG","A1XQOZV8LQDM22","3TZDZ3Y0JSSRVQSC3SM97PDQ3Z7196","","null","<img src=""img/food6.png"" style=""width:200px;border:14px solid red;"">","null","","","","","",""
"","image-keyboard-response","84","92717","0.0-84.0","3FIUS151DWO50Z3HQJIOVCZ7DCIGGG","A1XQOZV8LQDM22","3TZDZ3Y0JSSRVQSC3SM97PDQ3Z7196","","452.59999999962747","img/food6.png","76","455.59999999962747","2","1","4","0.2,0.8,0.2,0.8,0.2,0.8,0.8,0.2",""
"","html-keyboard-response","85","93028","0.0-85.0","3FIUS151DWO50Z3HQJIOVCZ7DCIGGG","A1XQOZV8LQDM22","3TZDZ3Y0JSSRVQSC3SM97PDQ3Z7196","","null","<img src=""img/food6.png"" style=""width:200px; border:14px solid green;"">","null","","","","","",""
"","image-keyboard-response","86","94652","0.0-86.0","3FIUS151DWO50Z3HQJIOVCZ7DCIGGG","A1XQOZV8LQDM22","3TZDZ3Y0JSSRVQSC3SM97PDQ3Z7196","","1620.199999999255","img/food4.png","76","1622.8999999994412","2","1","2","0.2,0.8,0.2,0.8,0.2,0.8,0.8,0.2",""
"","html-keyboard-response","87","94958","0.0-87.0","3FIUS151DWO50Z3HQJIOVCZ7DCIGGG","A1XQOZV8LQDM22","3TZDZ3Y0JSSRVQSC3SM97PDQ3Z7196","","null","<img src=""img/food4.png"" style=""width:200px; border:14px solid green;"">","null","","","","","",""
"","image-keyboard-response","88","95895","0.0-88.0","3FIUS151DWO50Z3HQJIOVCZ7DCIGGG","A1XQOZV8LQDM22","3TZDZ3Y0JSSRVQSC3SM97PDQ3Z7196","","932.2000000001863","img/food3.png","76","936.1999999992549","2","1","3","0.2,0.8,0.2,0.8,0.2,0.8,0.8,0.2",""
"","html-keyboard-response","89","96205","0.0-89.0","3FIUS151DWO50Z3HQJIOVCZ7DCIGGG","A1XQOZV8LQDM22","3TZDZ3Y0JSSRVQSC3SM97PDQ3Z7196","","null","<img src=""img/food3.png"" style=""width:200px; border:14px solid green;"">","null","","","","","",""
"","image-keyboard-response","90","96687","0.0-90.0","3FIUS151DWO50Z3HQJIOVCZ7DCIGGG","A1XQOZV8LQDM22","3TZDZ3Y0JSSRVQSC3SM97PDQ3Z7196","","476.20000000018626","img/food4.png","76","480.3999999994412","2","1","2","0.2,0.8,0.2,0.8,0.2,0.8,0.8,0.2",""
"","html-keyboard-response","91","97006","0.0-91.0","3FIUS151DWO50Z3HQJIOVCZ7DCIGGG","A1XQOZV8LQDM22","3TZDZ3Y0JSSRVQSC3SM97PDQ3Z7196","","null","<img src=""img/food4.png"" style=""width:200px; border:14px solid green;"">","null","","","","","",""
"","image-keyboard-response","92","97634","0.0-92.0","3FIUS151DWO50Z3HQJIOVCZ7DCIGGG","A1XQOZV8LQDM22","3TZDZ3Y0JSSRVQSC3SM97PDQ3Z7196","","623.3999999994412","img/food4.png","76","627","2","1","2","0.2,0.8,0.2,0.8,0.2,0.8,0.8,0.2",""
"","html-keyboard-response","93","97948","0.0-93.0","3FIUS151DWO50Z3HQJIOVCZ7DCIGGG","A1XQOZV8LQDM22","3TZDZ3Y0JSSRVQSC3SM97PDQ3Z7196","","null","<img src=""img/food4.png"" style=""width:200px; border:14px solid green;"">","null","","","","","",""
"","image-keyboard-response","94","98460","0.0-94.0","3FIUS151DWO50Z3HQJIOVCZ7DCIGGG","A1XQOZV8LQDM22","3TZDZ3Y0JSSRVQSC3SM97PDQ3Z7196","","506.09999999962747","img/food3.png","76","510.20000000018626","2","0","3","0.2,0.8,0.2,0.8,0.2,0.8,0.8,0.2",""
"","html-keyboard-response","95","98764","0.0-95.0","3FIUS151DWO50Z3HQJIOVCZ7DCIGGG","A1XQOZV8LQDM22","3TZDZ3Y0JSSRVQSC3SM97PDQ3Z7196","","null","<img src=""img/food3.png"" style=""width:200px;border:14px solid red;"">","null","","","","","",""
"","image-keyboard-response","96","99451","0.0-96.0","3FIUS151DWO50Z3HQJIOVCZ7DCIGGG","A1XQOZV8LQDM22","3TZDZ3Y0JSSRVQSC3SM97PDQ3Z7196","","680.7000000001863","img/food3.png","76","685.7999999998137","2","1","3","0.2,0.8,0.2,0.8,0.2,0.8,0.8,0.2",""
"","html-keyboard-response","97","99764","0.0-97.0","3FIUS151DWO50Z3HQJIOVCZ7DCIGGG","A1XQOZV8LQDM22","3TZDZ3Y0JSSRVQSC3SM97PDQ3Z7196","","null","<img src=""img/food3.png"" style=""width:200px; border:14px solid green;"">","null","","","","","",""
"","image-keyboard-response","98","100392","0.0-98.0","3FIUS151DWO50Z3HQJIOVCZ7DCIGGG","A1XQOZV8LQDM22","3TZDZ3Y0JSSRVQSC3SM97PDQ3Z7196","","623.0999999996275","img/food5.png","75","627.4000000003725","1","0","1","0.2,0.8,0.2,0.8,0.2,0.8,0.8,0.2",""
"","html-keyboard-response","99","100705","0.0-99.0","3FIUS151DWO50Z3HQJIOVCZ7DCIGGG","A1XQOZV8LQDM22","3TZDZ3Y0JSSRVQSC3SM97PDQ3Z7196","","null","<img src=""img/food5.png"" style=""width:200px;border:14px solid red;"">","null","","","","","",""
"","image-keyboard-response","100","101251","0.0-100.0","3FIUS151DWO50Z3HQJIOVCZ7DCIGGG","A1XQOZV8LQDM22","3TZDZ3Y0JSSRVQSC3SM97PDQ3Z7196","","531.9000000003725","img/food6.png","75","536.9000000003725","1","1","4","0.2,0.8,0.2,0.8,0.2,0.8,0.8,0.2",""
"","html-keyboard-response","101","101566","0.0-101.0","3FIUS151DWO50Z3HQJIOVCZ7DCIGGG","A1XQOZV8LQDM22","3TZDZ3Y0JSSRVQSC3SM97PDQ3Z7196","","null","<img src=""img/food6.png"" style=""width:200px; border:14px solid green;"">","null","","","","","",""
"","image-keyboard-response","102","102350","0.0-102.0","3FIUS151DWO50Z3HQJIOVCZ7DCIGGG","A1XQOZV8LQDM22","3TZDZ3Y0JSSRVQSC3SM97PDQ3Z7196","","776.7999999998137","img/food6.png","75","781.8999999994412","1","1","4","0.2,0.8,0.2,0.8,0.2,0.8,0.8,0.2",""
"","html-keyboard-response","103","102662","0.0-103.0","3FIUS151DWO50Z3HQJIOVCZ7DCIGGG","A1XQOZV8LQDM22","3TZDZ3Y0JSSRVQSC3SM97PDQ3Z7196","","null","<img src=""img/food6.png"" style=""width:200px; border:14px solid green;"">","null","","","","","",""
"","image-keyboard-response","104","103251","0.0-104.0","3FIUS151DWO50Z3HQJIOVCZ7DCIGGG","A1XQOZV8LQDM22","3TZDZ3Y0JSSRVQSC3SM97PDQ3Z7196","","583.2999999998137","img/food6.png","75","588.3999999994412","1","1","4","0.2,0.8,0.2,0.8,0.2,0.8,0.8,0.2",""
"","html-keyboard-response","105","103564","0.0-105.0","3FIUS151DWO50Z3HQJIOVCZ7DCIGGG","A1XQOZV8LQDM22","3TZDZ3Y0JSSRVQSC3SM97PDQ3Z7196","","null","<img src=""img/food6.png"" style=""width:200px; border:14px solid green;"">","null","","","","","",""
"","image-keyboard-response","106","104269","0.0-106.0","3FIUS151DWO50Z3HQJIOVCZ7DCIGGG","A1XQOZV8LQDM22","3TZDZ3Y0JSSRVQSC3SM97PDQ3Z7196","","698.7999999998137","img/food3.png","76","703.3999999994412","2","1","3","0.2,0.8,0.2,0.8,0.2,0.8,0.8,0.2",""
"","html-keyboard-response","107","104575","0.0-107.0","3FIUS151DWO50Z3HQJIOVCZ7DCIGGG","A1XQOZV8LQDM22","3TZDZ3Y0JSSRVQSC3SM97PDQ3Z7196","","null","<img src=""img/food3.png"" style=""width:200px; border:14px solid green;"">","null","","","","","",""
"","image-keyboard-response","108","105524","0.0-108.0","3FIUS151DWO50Z3HQJIOVCZ7DCIGGG","A1XQOZV8LQDM22","3TZDZ3Y0JSSRVQSC3SM97PDQ3Z7196","","945","img/food5.png","75","947.6999999992549","1","0","1","0.2,0.8,0.2,0.8,0.2,0.8,0.8,0.2",""
"","html-keyboard-response","109","105828","0.0-109.0","3FIUS151DWO50Z3HQJIOVCZ7DCIGGG","A1XQOZV8LQDM22","3TZDZ3Y0JSSRVQSC3SM97PDQ3Z7196","","null","<img src=""img/food5.png"" style=""width:200px;border:14px solid red;"">","null","","","","","",""
"","image-keyboard-response","110","106653","0.0-110.0","3FIUS151DWO50Z3HQJIOVCZ7DCIGGG","A1XQOZV8LQDM22","3TZDZ3Y0JSSRVQSC3SM97PDQ3Z7196","","822.5","img/food6.png","76","824.1999999992549","2","0","4","0.2,0.8,0.2,0.8,0.2,0.8,0.8,0.2",""
"","html-keyboard-response","111","106957","0.0-111.0","3FIUS151DWO50Z3HQJIOVCZ7DCIGGG","A1XQOZV8LQDM22","3TZDZ3Y0JSSRVQSC3SM97PDQ3Z7196","","null","<img src=""img/food6.png"" style=""width:200px;border:14px solid red;"">","null","","","","","",""
"","image-keyboard-response","112","107649","0.0-112.0","3FIUS151DWO50Z3HQJIOVCZ7DCIGGG","A1XQOZV8LQDM22","3TZDZ3Y0JSSRVQSC3SM97PDQ3Z7196","","685.7000000001863","img/food4.png","76","690.8999999994412","2","1","2","0.2,0.8,0.2,0.8,0.2,0.8,0.8,0.2",""
"","html-keyboard-response","113","107968","0.0-113.0","3FIUS151DWO50Z3HQJIOVCZ7DCIGGG","A1XQOZV8LQDM22","3TZDZ3Y0JSSRVQSC3SM97PDQ3Z7196","","null","<img src=""img/food4.png"" style=""width:200px; border:14px solid green;"">","null","","","","","",""
"","image-keyboard-response","114","108642","0.0-114.0","3FIUS151DWO50Z3HQJIOVCZ7DCIGGG","A1XQOZV8LQDM22","3TZDZ3Y0JSSRVQSC3SM97PDQ3Z7196","","667","img/food6.png","75","671.6000000005588","1","1","4","0.2,0.8,0.2,0.8,0.2,0.8,0.8,0.2",""
"","html-keyboard-response","115","108949","0.0-115.0","3FIUS151DWO50Z3HQJIOVCZ7DCIGGG","A1XQOZV8LQDM22","3TZDZ3Y0JSSRVQSC3SM97PDQ3Z7196","","null","<img src=""img/food6.png"" style=""width:200px; border:14px solid green;"">","null","","","","","",""
"","image-keyboard-response","116","109480","0.0-116.0","3FIUS151DWO50Z3HQJIOVCZ7DCIGGG","A1XQOZV8LQDM22","3TZDZ3Y0JSSRVQSC3SM97PDQ3Z7196","","526","img/food6.png","75","530.2000000001863","1","1","4","0.2,0.8,0.2,0.8,0.2,0.8,0.8,0.2",""
"","html-keyboard-response","117","109788","0.0-117.0","3FIUS151DWO50Z3HQJIOVCZ7DCIGGG","A1XQOZV8LQDM22","3TZDZ3Y0JSSRVQSC3SM97PDQ3Z7196","","null","<img src=""img/food6.png"" style=""width:200px; border:14px solid green;"">","null","","","","","",""
"","image-keyboard-response","118","110226","0.0-118.0","3FIUS151DWO50Z3HQJIOVCZ7DCIGGG","A1XQOZV8LQDM22","3TZDZ3Y0JSSRVQSC3SM97PDQ3Z7196","","432","img/food6.png","75","436.5","1","1","4","0.2,0.8,0.2,0.8,0.2,0.8,0.8,0.2",""
"","html-keyboard-response","119","110599","0.0-119.0","3FIUS151DWO50Z3HQJIOVCZ7DCIGGG","A1XQOZV8LQDM22","3TZDZ3Y0JSSRVQSC3SM97PDQ3Z7196","","null","<img src=""img/food6.png"" style=""width:200px; border:14px solid green;"">","null","","","","","",""
"","image-keyboard-response","120","111329","0.0-120.0","3FIUS151DWO50Z3HQJIOVCZ7DCIGGG","A1XQOZV8LQDM22","3TZDZ3Y0JSSRVQSC3SM97PDQ3Z7196","","717.6000000005588","img/food5.png","75","721.2000000001863","1","0","1","0.2,0.8,0.2,0.8,0.2,0.8,0.8,0.2",""
"","html-keyboard-response","121","111638","0.0-121.0","3FIUS151DWO50Z3HQJIOVCZ7DCIGGG","A1XQOZV8LQDM22","3TZDZ3Y0JSSRVQSC3SM97PDQ3Z7196","","null","<img src=""img/food5.png"" style=""width:200px;border:14px solid red;"">","null","","","","","",""
"","image-keyboard-response","122","112190","0.0-122.0","3FIUS151DWO50Z3HQJIOVCZ7DCIGGG","A1XQOZV8LQDM22","3TZDZ3Y0JSSRVQSC3SM97PDQ3Z7196","","546","img/food6.png","75","550.5","1","0","4","0.2,0.8,0.2,0.8,0.2,0.8,0.8,0.2",""
"","html-keyboard-response","123","112502","0.0-123.0","3FIUS151DWO50Z3HQJIOVCZ7DCIGGG","A1XQOZV8LQDM22","3TZDZ3Y0JSSRVQSC3SM97PDQ3Z7196","","null","<img src=""img/food6.png"" style=""width:200px;border:14px solid red;"">","null","","","","","",""
"","image-keyboard-response","124","113071","0.0-124.0","3FIUS151DWO50Z3HQJIOVCZ7DCIGGG","A1XQOZV8LQDM22","3TZDZ3Y0JSSRVQSC3SM97PDQ3Z7196","","563.5","img/food5.png","75","568","1","0","1","0.2,0.8,0.2,0.8,0.2,0.8,0.8,0.2",""
"","html-keyboard-response","125","113381","0.0-125.0","3FIUS151DWO50Z3HQJIOVCZ7DCIGGG","A1XQOZV8LQDM22","3TZDZ3Y0JSSRVQSC3SM97PDQ3Z7196","","null","<img src=""img/food5.png"" style=""width:200px;border:14px solid red;"">","null","","","","","",""
"","image-keyboard-response","126","113956","0.0-126.0","3FIUS151DWO50Z3HQJIOVCZ7DCIGGG","A1XQOZV8LQDM22","3TZDZ3Y0JSSRVQSC3SM97PDQ3Z7196","","568.9000000003725","img/food3.png","76","574.1000000005588","2","1","3","0.2,0.8,0.2,0.8,0.2,0.8,0.8,0.2",""
"","html-keyboard-response","127","114351","0.0-127.0","3FIUS151DWO50Z3HQJIOVCZ7DCIGGG","A1XQOZV8LQDM22","3TZDZ3Y0JSSRVQSC3SM97PDQ3Z7196","","null","<img src=""img/food3.png"" style=""width:200px; border:14px solid green;"">","null","","","","","",""
"","image-keyboard-response","128","115069","0.0-128.0","3FIUS151DWO50Z3HQJIOVCZ7DCIGGG","A1XQOZV8LQDM22","3TZDZ3Y0JSSRVQSC3SM97PDQ3Z7196","","713.2999999998137","img/food4.png","76","716.8999999994412","2","1","2","0.2,0.8,0.2,0.8,0.2,0.8,0.8,0.2",""
"","html-keyboard-response","129","115382","0.0-129.0","3FIUS151DWO50Z3HQJIOVCZ7DCIGGG","A1XQOZV8LQDM22","3TZDZ3Y0JSSRVQSC3SM97PDQ3Z7196","","null","<img src=""img/food4.png"" style=""width:200px; border:14px solid green;"">","null","","","","","",""
"","image-keyboard-response","130","115965","0.0-130.0","3FIUS151DWO50Z3HQJIOVCZ7DCIGGG","A1XQOZV8LQDM22","3TZDZ3Y0JSSRVQSC3SM97PDQ3Z7196","","576.2000000001863","img/food4.png","76","581.3000000007451","2","1","2","0.2,0.8,0.2,0.8,0.2,0.8,0.8,0.2",""
"","html-keyboard-response","131","116269","0.0-131.0","3FIUS151DWO50Z3HQJIOVCZ7DCIGGG","A1XQOZV8LQDM22","3TZDZ3Y0JSSRVQSC3SM97PDQ3Z7196","","null","<img src=""img/food4.png"" style=""width:200px; border:14px solid green;"">","null","","","","","",""
"","image-keyboard-response","132","116833","0.0-132.0","3FIUS151DWO50Z3HQJIOVCZ7DCIGGG","A1XQOZV8LQDM22","3TZDZ3Y0JSSRVQSC3SM97PDQ3Z7196","","558.6000000005588","img/food3.png","75","563","1","0","3","0.2,0.8,0.2,0.8,0.2,0.8,0.8,0.2",""
"","html-keyboard-response","133","117143","0.0-133.0","3FIUS151DWO50Z3HQJIOVCZ7DCIGGG","A1XQOZV8LQDM22","3TZDZ3Y0JSSRVQSC3SM97PDQ3Z7196","","null","<img src=""img/food3.png"" style=""width:200px;border:14px solid red;"">","null","","","","","",""
"","image-keyboard-response","134","117751","0.0-134.0","3FIUS151DWO50Z3HQJIOVCZ7DCIGGG","A1XQOZV8LQDM22","3TZDZ3Y0JSSRVQSC3SM97PDQ3Z7196","","602.5","img/food4.png","76","607.3999999994412","2","1","2","0.2,0.8,0.2,0.8,0.2,0.8,0.8,0.2",""
"","html-keyboard-response","135","118107","0.0-135.0","3FIUS151DWO50Z3HQJIOVCZ7DCIGGG","A1XQOZV8LQDM22","3TZDZ3Y0JSSRVQSC3SM97PDQ3Z7196","","null","<img src=""img/food4.png"" style=""width:200px; border:14px solid green;"">","null","","","","","",""
"","image-keyboard-response","136","118631","0.0-136.0","3FIUS151DWO50Z3HQJIOVCZ7DCIGGG","A1XQOZV8LQDM22","3TZDZ3Y0JSSRVQSC3SM97PDQ3Z7196","","519.2999999998137","img/food3.png","76","522.9000000003725","2","1","3","0.2,0.8,0.2,0.8,0.2,0.8,0.8,0.2",""
"","html-keyboard-response","137","118940","0.0-137.0","3FIUS151DWO50Z3HQJIOVCZ7DCIGGG","A1XQOZV8LQDM22","3TZDZ3Y0JSSRVQSC3SM97PDQ3Z7196","","null","<img src=""img/food3.png"" style=""width:200px; border:14px solid green;"">","null","","","","","",""
"","image-keyboard-response","138","119378","0.0-138.0","3FIUS151DWO50Z3HQJIOVCZ7DCIGGG","A1XQOZV8LQDM22","3TZDZ3Y0JSSRVQSC3SM97PDQ3Z7196","","432.8999999994412","img/food3.png","76","436.6000000005588","2","0","3","0.2,0.8,0.2,0.8,0.2,0.8,0.8,0.2",""
"","html-keyboard-response","139","119684","0.0-139.0","3FIUS151DWO50Z3HQJIOVCZ7DCIGGG","A1XQOZV8LQDM22","3TZDZ3Y0JSSRVQSC3SM97PDQ3Z7196","","null","<img src=""img/food3.png"" style=""width:200px;border:14px solid red;"">","null","","","","","",""
"","image-keyboard-response","140","120342","0.0-140.0","3FIUS151DWO50Z3HQJIOVCZ7DCIGGG","A1XQOZV8LQDM22","3TZDZ3Y0JSSRVQSC3SM97PDQ3Z7196","","652.8999999994412","img/food5.png","75","656.5","1","0","1","0.2,0.8,0.2,0.8,0.2,0.8,0.8,0.2",""
"","html-keyboard-response","141","120652","0.0-141.0","3FIUS151DWO50Z3HQJIOVCZ7DCIGGG","A1XQOZV8LQDM22","3TZDZ3Y0JSSRVQSC3SM97PDQ3Z7196","","null","<img src=""img/food5.png"" style=""width:200px;border:14px solid red;"">","null","","","","","",""
"","image-keyboard-response","142","121138","0.0-142.0","3FIUS151DWO50Z3HQJIOVCZ7DCIGGG","A1XQOZV8LQDM22","3TZDZ3Y0JSSRVQSC3SM97PDQ3Z7196","","481.40000000037253","img/food6.png","75","484.8999999994412","1","1","4","0.2,0.8,0.2,0.8,0.2,0.8,0.8,0.2",""
"","html-keyboard-response","143","121444","0.0-143.0","3FIUS151DWO50Z3HQJIOVCZ7DCIGGG","A1XQOZV8LQDM22","3TZDZ3Y0JSSRVQSC3SM97PDQ3Z7196","","null","<img src=""img/food6.png"" style=""width:200px; border:14px solid green;"">","null","","","","","",""
"","image-keyboard-response","144","122090","0.0-144.0","3FIUS151DWO50Z3HQJIOVCZ7DCIGGG","A1XQOZV8LQDM22","3TZDZ3Y0JSSRVQSC3SM97PDQ3Z7196","","640.7999999998137","img/food5.png","75","644.2999999998137","1","0","1","0.2,0.8,0.2,0.8,0.2,0.8,0.8,0.2",""
"","html-keyboard-response","145","122397","0.0-145.0","3FIUS151DWO50Z3HQJIOVCZ7DCIGGG","A1XQOZV8LQDM22","3TZDZ3Y0JSSRVQSC3SM97PDQ3Z7196","","null","<img src=""img/food5.png"" style=""width:200px;border:14px solid red;"">","null","","","","","",""
"","image-keyboard-response","146","122922","0.0-146.0","3FIUS151DWO50Z3HQJIOVCZ7DCIGGG","A1XQOZV8LQDM22","3TZDZ3Y0JSSRVQSC3SM97PDQ3Z7196","","518.5999999996275","img/food6.png","75","523.6999999992549","1","1","4","0.2,0.8,0.2,0.8,0.2,0.8,0.8,0.2",""
"","html-keyboard-response","147","123228","0.0-147.0","3FIUS151DWO50Z3HQJIOVCZ7DCIGGG","A1XQOZV8LQDM22","3TZDZ3Y0JSSRVQSC3SM97PDQ3Z7196","","null","<img src=""img/food6.png"" style=""width:200px; border:14px solid green;"">","null","","","","","",""
"","image-keyboard-response","148","123812","0.0-148.0","3FIUS151DWO50Z3HQJIOVCZ7DCIGGG","A1XQOZV8LQDM22","3TZDZ3Y0JSSRVQSC3SM97PDQ3Z7196","","579.5999999996275","img/food3.png","76","583","2","1","3","0.2,0.8,0.2,0.8,0.2,0.8,0.8,0.2",""
"","html-keyboard-response","149","124125","0.0-149.0","3FIUS151DWO50Z3HQJIOVCZ7DCIGGG","A1XQOZV8LQDM22","3TZDZ3Y0JSSRVQSC3SM97PDQ3Z7196","","null","<img src=""img/food3.png"" style=""width:200px; border:14px solid green;"">","null","","","","","",""
"","image-keyboard-response","150","124904","0.0-150.0","3FIUS151DWO50Z3HQJIOVCZ7DCIGGG","A1XQOZV8LQDM22","3TZDZ3Y0JSSRVQSC3SM97PDQ3Z7196","","773.7000000001863","img/food4.png","76","778","2","0","2","0.2,0.8,0.2,0.8,0.2,0.8,0.8,0.2",""
"","html-keyboard-response","151","125214","0.0-151.0","3FIUS151DWO50Z3HQJIOVCZ7DCIGGG","A1XQOZV8LQDM22","3TZDZ3Y0JSSRVQSC3SM97PDQ3Z7196","","null","<img src=""img/food4.png"" style=""width:200px;border:14px solid red;"">","null","","","","","",""
"","image-keyboard-response","152","125668","0.0-152.0","3FIUS151DWO50Z3HQJIOVCZ7DCIGGG","A1XQOZV8LQDM22","3TZDZ3Y0JSSRVQSC3SM97PDQ3Z7196","","446.29999999981374","img/food4.png","76","452.59999999962747","2","0","2","0.2,0.8,0.2,0.8,0.2,0.8,0.8,0.2",""
"","html-keyboard-response","153","125980","0.0-153.0","3FIUS151DWO50Z3HQJIOVCZ7DCIGGG","A1XQOZV8LQDM22","3TZDZ3Y0JSSRVQSC3SM97PDQ3Z7196","","null","<img src=""img/food4.png"" style=""width:200px;border:14px solid red;"">","null","","","","","",""
"","image-keyboard-response","154","126675","0.0-154.0","3FIUS151DWO50Z3HQJIOVCZ7DCIGGG","A1XQOZV8LQDM22","3TZDZ3Y0JSSRVQSC3SM97PDQ3Z7196","","690.5","img/food5.png","75","694.5999999996275","1","0","1","0.2,0.8,0.2,0.8,0.2,0.8,0.8,0.2",""
"","html-keyboard-response","155","126988","0.0-155.0","3FIUS151DWO50Z3HQJIOVCZ7DCIGGG","A1XQOZV8LQDM22","3TZDZ3Y0JSSRVQSC3SM97PDQ3Z7196","","null","<img src=""img/food5.png"" style=""width:200px;border:14px solid red;"">","null","","","","","",""
"","image-keyboard-response","156","127656","0.0-156.0","3FIUS151DWO50Z3HQJIOVCZ7DCIGGG","A1XQOZV8LQDM22","3TZDZ3Y0JSSRVQSC3SM97PDQ3Z7196","","664.3999999994412","img/food4.png","75","667.6000000005588","1","0","2","0.2,0.8,0.2,0.8,0.2,0.8,0.8,0.2",""
"","html-keyboard-response","157","127966","0.0-157.0","3FIUS151DWO50Z3HQJIOVCZ7DCIGGG","A1XQOZV8LQDM22","3TZDZ3Y0JSSRVQSC3SM97PDQ3Z7196","","null","<img src=""img/food4.png"" style=""width:200px;border:14px solid red;"">","null","","","","","",""
"","image-keyboard-response","158","128692","0.0-158.0","3FIUS151DWO50Z3HQJIOVCZ7DCIGGG","A1XQOZV8LQDM22","3TZDZ3Y0JSSRVQSC3SM97PDQ3Z7196","","719.5","img/food5.png","75","724.0999999996275","1","1","1","0.2,0.8,0.2,0.8,0.2,0.8,0.8,0.2",""
"","html-keyboard-response","159","129005","0.0-159.0","3FIUS151DWO50Z3HQJIOVCZ7DCIGGG","A1XQOZV8LQDM22","3TZDZ3Y0JSSRVQSC3SM97PDQ3Z7196","","null","<img src=""img/food5.png"" style=""width:200px; border:14px solid green;"">","null","","","","","",""
"","image-keyboard-response","160","129702","0.0-160.0","3FIUS151DWO50Z3HQJIOVCZ7DCIGGG","A1XQOZV8LQDM22","3TZDZ3Y0JSSRVQSC3SM97PDQ3Z7196","","692","img/food5.png","75","696.6000000005588","1","0","1","0.2,0.8,0.2,0.8,0.2,0.8,0.8,0.2",""
"","html-keyboard-response","161","130013","0.0-161.0","3FIUS151DWO50Z3HQJIOVCZ7DCIGGG","A1XQOZV8LQDM22","3TZDZ3Y0JSSRVQSC3SM97PDQ3Z7196","","null","<img src=""img/food5.png"" style=""width:200px;border:14px solid red;"">","null","","","","","",""
"","image-keyboard-response","162","130506","0.0-162.0","3FIUS151DWO50Z3HQJIOVCZ7DCIGGG","A1XQOZV8LQDM22","3TZDZ3Y0JSSRVQSC3SM97PDQ3Z7196","","487.6000000005588","img/food5.png","75","492.6000000005588","1","0","1","0.2,0.8,0.2,0.8,0.2,0.8,0.8,0.2",""
"","html-keyboard-response","163","130812","0.0-163.0","3FIUS151DWO50Z3HQJIOVCZ7DCIGGG","A1XQOZV8LQDM22","3TZDZ3Y0JSSRVQSC3SM97PDQ3Z7196","","null","<img src=""img/food5.png"" style=""width:200px;border:14px solid red;"">","null","","","","","",""
"","image-keyboard-response","164","131555","0.0-164.0","3FIUS151DWO50Z3HQJIOVCZ7DCIGGG","A1XQOZV8LQDM22","3TZDZ3Y0JSSRVQSC3SM97PDQ3Z7196","","739.2000000001863","img/food5.png","75","742.7000000001863","1","0","1","0.2,0.8,0.2,0.8,0.2,0.8,0.8,0.2",""
"","html-keyboard-response","165","131871","0.0-165.0","3FIUS151DWO50Z3HQJIOVCZ7DCIGGG","A1XQOZV8LQDM22","3TZDZ3Y0JSSRVQSC3SM97PDQ3Z7196","","null","<img src=""img/food5.png"" style=""width:200px;border:14px solid red;"">","null","","","","","",""
"","image-keyboard-response","166","132639","0.0-166.0","3FIUS151DWO50Z3HQJIOVCZ7DCIGGG","A1XQOZV8LQDM22","3TZDZ3Y0JSSRVQSC3SM97PDQ3Z7196","","673.2000000001863","img/food6.png","76","766.7999999998137","2","0","4","0.2,0.8,0.2,0.8,0.2,0.8,0.8,0.2",""
"","html-keyboard-response","167","132954","0.0-167.0","3FIUS151DWO50Z3HQJIOVCZ7DCIGGG","A1XQOZV8LQDM22","3TZDZ3Y0JSSRVQSC3SM97PDQ3Z7196","","null","<img src=""img/food6.png"" style=""width:200px;border:14px solid red;"">","null","","","","","",""
"","image-keyboard-response","168","133651","0.0-168.0","3FIUS151DWO50Z3HQJIOVCZ7DCIGGG","A1XQOZV8LQDM22","3TZDZ3Y0JSSRVQSC3SM97PDQ3Z7196","","691.2000000001863","img/food5.png","75","696.5","1","0","1","0.2,0.8,0.2,0.8,0.2,0.8,0.8,0.2",""
"","html-keyboard-response","169","133965","0.0-169.0","3FIUS151DWO50Z3HQJIOVCZ7DCIGGG","A1XQOZV8LQDM22","3TZDZ3Y0JSSRVQSC3SM97PDQ3Z7196","","null","<img src=""img/food5.png"" style=""width:200px;border:14px solid red;"">","null","","","","","",""
"","image-keyboard-response","170","134432","0.0-170.0","3FIUS151DWO50Z3HQJIOVCZ7DCIGGG","A1XQOZV8LQDM22","3TZDZ3Y0JSSRVQSC3SM97PDQ3Z7196","","460.70000000018626","img/food4.png","75","465.80000000074506","1","1","2","0.2,0.8,0.2,0.8,0.2,0.8,0.8,0.2",""
"","html-keyboard-response","171","134741","0.0-171.0","3FIUS151DWO50Z3HQJIOVCZ7DCIGGG","A1XQOZV8LQDM22","3TZDZ3Y0JSSRVQSC3SM97PDQ3Z7196","","null","<img src=""img/food4.png"" style=""width:200px; border:14px solid green;"">","null","","","","","",""
"","image-keyboard-response","172","135249","0.0-172.0","3FIUS151DWO50Z3HQJIOVCZ7DCIGGG","A1XQOZV8LQDM22","3TZDZ3Y0JSSRVQSC3SM97PDQ3Z7196","","502.09999999962747","img/food3.png","76","506.3999999994412","2","1","3","0.2,0.8,0.2,0.8,0.2,0.8,0.8,0.2",""
"","html-keyboard-response","173","135618","0.0-173.0","3FIUS151DWO50Z3HQJIOVCZ7DCIGGG","A1XQOZV8LQDM22","3TZDZ3Y0JSSRVQSC3SM97PDQ3Z7196","","null","<img src=""img/food3.png"" style=""width:200px; border:14px solid green;"">","null","","","","","",""
"","image-keyboard-response","174","136316","0.0-174.0","3FIUS151DWO50Z3HQJIOVCZ7DCIGGG","A1XQOZV8LQDM22","3TZDZ3Y0JSSRVQSC3SM97PDQ3Z7196","","691.5","img/food6.png","75","696.5","1","0","4","0.2,0.8,0.2,0.8,0.2,0.8,0.8,0.2",""
"","html-keyboard-response","175","136629","0.0-175.0","3FIUS151DWO50Z3HQJIOVCZ7DCIGGG","A1XQOZV8LQDM22","3TZDZ3Y0JSSRVQSC3SM97PDQ3Z7196","","null","<img src=""img/food6.png"" style=""width:200px;border:14px solid red;"">","null","","","","","",""
"","image-keyboard-response","176","137696","0.0-176.0","3FIUS151DWO50Z3HQJIOVCZ7DCIGGG","A1XQOZV8LQDM22","3TZDZ3Y0JSSRVQSC3SM97PDQ3Z7196","","1061.1000000005588","img/food5.png","75","1066","1","0","1","0.2,0.8,0.2,0.8,0.2,0.8,0.8,0.2",""
"","html-keyboard-response","177","138118","0.0-177.0","3FIUS151DWO50Z3HQJIOVCZ7DCIGGG","A1XQOZV8LQDM22","3TZDZ3Y0JSSRVQSC3SM97PDQ3Z7196","","null","<img src=""img/food5.png"" style=""width:200px;border:14px solid red;"">","null","","","","","",""
"","image-keyboard-response","178","138809","0.0-178.0","3FIUS151DWO50Z3HQJIOVCZ7DCIGGG","A1XQOZV8LQDM22","3TZDZ3Y0JSSRVQSC3SM97PDQ3Z7196","","686.2000000001863","img/food4.png","76","690.0999999996275","2","1","2","0.2,0.8,0.2,0.8,0.2,0.8,0.8,0.2",""
"","html-keyboard-response","179","139117","0.0-179.0","3FIUS151DWO50Z3HQJIOVCZ7DCIGGG","A1XQOZV8LQDM22","3TZDZ3Y0JSSRVQSC3SM97PDQ3Z7196","","null","<img src=""img/food4.png"" style=""width:200px; border:14px solid green;"">","null","","","","","",""
"","image-keyboard-response","180","139795","0.0-180.0","3FIUS151DWO50Z3HQJIOVCZ7DCIGGG","A1XQOZV8LQDM22","3TZDZ3Y0JSSRVQSC3SM97PDQ3Z7196","","671.8999999994412","img/food5.png","75","676.2999999998137","1","1","1","0.2,0.8,0.2,0.8,0.2,0.8,0.8,0.2",""
"","html-keyboard-response","181","140109","0.0-181.0","3FIUS151DWO50Z3HQJIOVCZ7DCIGGG","A1XQOZV8LQDM22","3TZDZ3Y0JSSRVQSC3SM97PDQ3Z7196","","null","<img src=""img/food5.png"" style=""width:200px; border:14px solid green;"">","null","","","","","",""
"","image-keyboard-response","182","140975","0.0-182.0","3FIUS151DWO50Z3HQJIOVCZ7DCIGGG","A1XQOZV8LQDM22","3TZDZ3Y0JSSRVQSC3SM97PDQ3Z7196","","860.4000000003725","img/food4.png","76","864.6999999992549","2","0","2","0.2,0.8,0.2,0.8,0.2,0.8,0.8,0.2",""
"","html-keyboard-response","183","141301","0.0-183.0","3FIUS151DWO50Z3HQJIOVCZ7DCIGGG","A1XQOZV8LQDM22","3TZDZ3Y0JSSRVQSC3SM97PDQ3Z7196","","null","<img src=""img/food4.png"" style=""width:200px;border:14px solid red;"">","null","","","","","",""
"","image-keyboard-response","184","141875","0.0-184.0","3FIUS151DWO50Z3HQJIOVCZ7DCIGGG","A1XQOZV8LQDM22","3TZDZ3Y0JSSRVQSC3SM97PDQ3Z7196","","567.7999999998137","img/food3.png","76","572.7000000001863","2","1","3","0.2,0.8,0.2,0.8,0.2,0.8,0.8,0.2",""
"","html-keyboard-response","185","142188","0.0-185.0","3FIUS151DWO50Z3HQJIOVCZ7DCIGGG","A1XQOZV8LQDM22","3TZDZ3Y0JSSRVQSC3SM97PDQ3Z7196","","null","<img src=""img/food3.png"" style=""width:200px; border:14px solid green;"">","null","","","","","",""
"","image-keyboard-response","186","142922","0.0-186.0","3FIUS151DWO50Z3HQJIOVCZ7DCIGGG","A1XQOZV8LQDM22","3TZDZ3Y0JSSRVQSC3SM97PDQ3Z7196","","730.8999999994412","img/food4.png","76","733.7000000001863","2","1","2","0.2,0.8,0.2,0.8,0.2,0.8,0.8,0.2",""
"","html-keyboard-response","187","143228","0.0-187.0","3FIUS151DWO50Z3HQJIOVCZ7DCIGGG","A1XQOZV8LQDM22","3TZDZ3Y0JSSRVQSC3SM97PDQ3Z7196","","null","<img src=""img/food4.png"" style=""width:200px; border:14px solid green;"">","null","","","","","",""
"","image-keyboard-response","188","143873","0.0-188.0","3FIUS151DWO50Z3HQJIOVCZ7DCIGGG","A1XQOZV8LQDM22","3TZDZ3Y0JSSRVQSC3SM97PDQ3Z7196","","640.5999999996275","img/food5.png","75","644","1","0","1","0.2,0.8,0.2,0.8,0.2,0.8,0.8,0.2",""
"","html-keyboard-response","189","144287","0.0-189.0","3FIUS151DWO50Z3HQJIOVCZ7DCIGGG","A1XQOZV8LQDM22","3TZDZ3Y0JSSRVQSC3SM97PDQ3Z7196","","null","<img src=""img/food5.png"" style=""width:200px;border:14px solid red;"">","null","","","","","",""
"","image-keyboard-response","190","144829","0.0-190.0","3FIUS151DWO50Z3HQJIOVCZ7DCIGGG","A1XQOZV8LQDM22","3TZDZ3Y0JSSRVQSC3SM97PDQ3Z7196","","523.2000000001863","img/food4.png","75","526.2999999998137","1","0","2","0.2,0.8,0.2,0.8,0.2,0.8,0.8,0.2",""
"","html-keyboard-response","191","145141","0.0-191.0","3FIUS151DWO50Z3HQJIOVCZ7DCIGGG","A1XQOZV8LQDM22","3TZDZ3Y0JSSRVQSC3SM97PDQ3Z7196","","null","<img src=""img/food4.png"" style=""width:200px;border:14px solid red;"">","null","","","","","",""
"","image-keyboard-response","192","145798","0.0-192.0","3FIUS151DWO50Z3HQJIOVCZ7DCIGGG","A1XQOZV8LQDM22","3TZDZ3Y0JSSRVQSC3SM97PDQ3Z7196","","652.2000000001863","img/food6.png","75","656.5","1","1","4","0.2,0.8,0.2,0.8,0.2,0.8,0.8,0.2",""
"","html-keyboard-response","193","146109","0.0-193.0","3FIUS151DWO50Z3HQJIOVCZ7DCIGGG","A1XQOZV8LQDM22","3TZDZ3Y0JSSRVQSC3SM97PDQ3Z7196","","null","<img src=""img/food6.png"" style=""width:200px; border:14px solid green;"">","null","","","","","",""
"","image-keyboard-response","194","146793","0.0-194.0","3FIUS151DWO50Z3HQJIOVCZ7DCIGGG","A1XQOZV8LQDM22","3TZDZ3Y0JSSRVQSC3SM97PDQ3Z7196","","680.0999999996275","img/food6.png","75","683.5","1","1","4","0.2,0.8,0.2,0.8,0.2,0.8,0.8,0.2",""
"","html-keyboard-response","195","147101","0.0-195.0","3FIUS151DWO50Z3HQJIOVCZ7DCIGGG","A1XQOZV8LQDM22","3TZDZ3Y0JSSRVQSC3SM97PDQ3Z7196","","null","<img src=""img/food6.png"" style=""width:200px; border:14px solid green;"">","null","","","","","",""
"","image-keyboard-response","196","147877","0.0-196.0","3FIUS151DWO50Z3HQJIOVCZ7DCIGGG","A1XQOZV8LQDM22","3TZDZ3Y0JSSRVQSC3SM97PDQ3Z7196","","769.8999999994412","img/food4.png","76","774.2000000001863","2","1","2","0.2,0.8,0.2,0.8,0.2,0.8,0.8,0.2",""
"","html-keyboard-response","197","148190","0.0-197.0","3FIUS151DWO50Z3HQJIOVCZ7DCIGGG","A1XQOZV8LQDM22","3TZDZ3Y0JSSRVQSC3SM97PDQ3Z7196","","null","<img src=""img/food4.png"" style=""width:200px; border:14px solid green;"">","null","","","","","",""
"","image-keyboard-response","198","148913","0.0-198.0","3FIUS151DWO50Z3HQJIOVCZ7DCIGGG","A1XQOZV8LQDM22","3TZDZ3Y0JSSRVQSC3SM97PDQ3Z7196","","717.0999999996275","img/food6.png","75","722","1","1","4","0.2,0.8,0.2,0.8,0.2,0.8,0.8,0.2",""
"","html-keyboard-response","199","149220","0.0-199.0","3FIUS151DWO50Z3HQJIOVCZ7DCIGGG","A1XQOZV8LQDM22","3TZDZ3Y0JSSRVQSC3SM97PDQ3Z7196","","null","<img src=""img/food6.png"" style=""width:200px; border:14px solid green;"">","null","","","","","",""
"","image-keyboard-response","200","149836","0.0-200.0","3FIUS151DWO50Z3HQJIOVCZ7DCIGGG","A1XQOZV8LQDM22","3TZDZ3Y0JSSRVQSC3SM97PDQ3Z7196","","611.6000000005588","img/food4.png","76","614.7999999998137","2","1","2","0.2,0.8,0.2,0.8,0.2,0.8,0.8,0.2",""
"","html-keyboard-response","201","150148","0.0-201.0","3FIUS151DWO50Z3HQJIOVCZ7DCIGGG","A1XQOZV8LQDM22","3TZDZ3Y0JSSRVQSC3SM97PDQ3Z7196","","null","<img src=""img/food4.png"" style=""width:200px; border:14px solid green;"">","null","","","","","",""
"","image-keyboard-response","202","150859","0.0-202.0","3FIUS151DWO50Z3HQJIOVCZ7DCIGGG","A1XQOZV8LQDM22","3TZDZ3Y0JSSRVQSC3SM97PDQ3Z7196","","704.5999999996275","img/food3.png","76","709.2000000001863","2","1","3","0.2,0.8,0.2,0.8,0.2,0.8,0.8,0.2",""
"","html-keyboard-response","203","151173","0.0-203.0","3FIUS151DWO50Z3HQJIOVCZ7DCIGGG","A1XQOZV8LQDM22","3TZDZ3Y0JSSRVQSC3SM97PDQ3Z7196","","null","<img src=""img/food3.png"" style=""width:200px; border:14px solid green;"">","null","","","","","",""
"","image-keyboard-response","204","151740","0.0-204.0","3FIUS151DWO50Z3HQJIOVCZ7DCIGGG","A1XQOZV8LQDM22","3TZDZ3Y0JSSRVQSC3SM97PDQ3Z7196","","561.5","img/food5.png","75","565.4000000003725","1","0","1","0.2,0.8,0.2,0.8,0.2,0.8,0.8,0.2",""
"","html-keyboard-response","205","152044","0.0-205.0","3FIUS151DWO50Z3HQJIOVCZ7DCIGGG","A1XQOZV8LQDM22","3TZDZ3Y0JSSRVQSC3SM97PDQ3Z7196","","null","<img src=""img/food5.png"" style=""width:200px;border:14px solid red;"">","null","","","","","",""
"","image-keyboard-response","206","152627","0.0-206.0","3FIUS151DWO50Z3HQJIOVCZ7DCIGGG","A1XQOZV8LQDM22","3TZDZ3Y0JSSRVQSC3SM97PDQ3Z7196","","577.4000000003725","img/food5.png","75","582.3000000007451","1","1","1","0.2,0.8,0.2,0.8,0.2,0.8,0.8,0.2",""
"","html-keyboard-response","207","152940","0.0-207.0","3FIUS151DWO50Z3HQJIOVCZ7DCIGGG","A1XQOZV8LQDM22","3TZDZ3Y0JSSRVQSC3SM97PDQ3Z7196","","null","<img src=""img/food5.png"" style=""width:200px; border:14px solid green;"">","null","","","","","",""
"","image-keyboard-response","208","153630","0.0-208.0","3FIUS151DWO50Z3HQJIOVCZ7DCIGGG","A1XQOZV8LQDM22","3TZDZ3Y0JSSRVQSC3SM97PDQ3Z7196","","684","img/food5.png","75","689.2000000001863","1","0","1","0.2,0.8,0.2,0.8,0.2,0.8,0.8,0.2",""
"","html-keyboard-response","209","154019","0.0-209.0","3FIUS151DWO50Z3HQJIOVCZ7DCIGGG","A1XQOZV8LQDM22","3TZDZ3Y0JSSRVQSC3SM97PDQ3Z7196","","null","<img src=""img/food5.png"" style=""width:200px;border:14px solid red;"">","null","","","","","",""
"","image-keyboard-response","210","155538","0.0-210.0","3FIUS151DWO50Z3HQJIOVCZ7DCIGGG","A1XQOZV8LQDM22","3TZDZ3Y0JSSRVQSC3SM97PDQ3Z7196","","1408.1000000005588","img/food6.png","75","1410.9000000003725","1","1","4","0.2,0.8,0.2,0.8,0.2,0.8,0.8,0.2",""
"","html-keyboard-response","211","155845","0.0-211.0","3FIUS151DWO50Z3HQJIOVCZ7DCIGGG","A1XQOZV8LQDM22","3TZDZ3Y0JSSRVQSC3SM97PDQ3Z7196","","null","<img src=""img/food6.png"" style=""width:200px; border:14px solid green;"">","null","","","","","",""
"","image-keyboard-response","212","156563","0.0-212.0","3FIUS151DWO50Z3HQJIOVCZ7DCIGGG","A1XQOZV8LQDM22","3TZDZ3Y0JSSRVQSC3SM97PDQ3Z7196","","712.8999999994412","img/food4.png","76","717.5","2","0","2","0.2,0.8,0.2,0.8,0.2,0.8,0.8,0.2",""
"","html-keyboard-response","213","156876","0.0-213.0","3FIUS151DWO50Z3HQJIOVCZ7DCIGGG","A1XQOZV8LQDM22","3TZDZ3Y0JSSRVQSC3SM97PDQ3Z7196","","null","<img src=""img/food4.png"" style=""width:200px;border:14px solid red;"">","null","","","","","",""
"","image-keyboard-response","214","157572","0.0-214.0","3FIUS151DWO50Z3HQJIOVCZ7DCIGGG","A1XQOZV8LQDM22","3TZDZ3Y0JSSRVQSC3SM97PDQ3Z7196","","691.8000000007451","img/food5.png","75","695.1000000005588","1","0","1","0.2,0.8,0.2,0.8,0.2,0.8,0.8,0.2",""
"","html-keyboard-response","215","157943","0.0-215.0","3FIUS151DWO50Z3HQJIOVCZ7DCIGGG","A1XQOZV8LQDM22","3TZDZ3Y0JSSRVQSC3SM97PDQ3Z7196","","null","<img src=""img/food5.png"" style=""width:200px;border:14px solid red;"">","null","","","","","",""
"","image-keyboard-response","216","158609","0.0-216.0","3FIUS151DWO50Z3HQJIOVCZ7DCIGGG","A1XQOZV8LQDM22","3TZDZ3Y0JSSRVQSC3SM97PDQ3Z7196","","661.7999999998137","img/food6.png","76","665.2999999998137","2","0","4","0.2,0.8,0.2,0.8,0.2,0.8,0.8,0.2",""
"","html-keyboard-response","217","158918","0.0-217.0","3FIUS151DWO50Z3HQJIOVCZ7DCIGGG","A1XQOZV8LQDM22","3TZDZ3Y0JSSRVQSC3SM97PDQ3Z7196","","null","<img src=""img/food6.png"" style=""width:200px;border:14px solid red;"">","null","","","","","",""
"","image-keyboard-response","218","159555","0.0-218.0","3FIUS151DWO50Z3HQJIOVCZ7DCIGGG","A1XQOZV8LQDM22","3TZDZ3Y0JSSRVQSC3SM97PDQ3Z7196","","631.5","img/food3.png","76","636.0999999996275","2","1","3","0.2,0.8,0.2,0.8,0.2,0.8,0.8,0.2",""
"","html-keyboard-response","219","159872","0.0-219.0","3FIUS151DWO50Z3HQJIOVCZ7DCIGGG","A1XQOZV8LQDM22","3TZDZ3Y0JSSRVQSC3SM97PDQ3Z7196","","null","<img src=""img/food3.png"" style=""width:200px; border:14px solid green;"">","null","","","","","",""
"","image-keyboard-response","220","160373","0.0-220.0","3FIUS151DWO50Z3HQJIOVCZ7DCIGGG","A1XQOZV8LQDM22","3TZDZ3Y0JSSRVQSC3SM97PDQ3Z7196","","495","img/food3.png","76","500","2","1","3","0.2,0.8,0.2,0.8,0.2,0.8,0.8,0.2",""
"","html-keyboard-response","221","160685","0.0-221.0","3FIUS151DWO50Z3HQJIOVCZ7DCIGGG","A1XQOZV8LQDM22","3TZDZ3Y0JSSRVQSC3SM97PDQ3Z7196","","null","<img src=""img/food3.png"" style=""width:200px; border:14px solid green;"">","null","","","","","",""
"","image-keyboard-response","222","161192","0.0-222.0","3FIUS151DWO50Z3HQJIOVCZ7DCIGGG","A1XQOZV8LQDM22","3TZDZ3Y0JSSRVQSC3SM97PDQ3Z7196","","503.79999999981374","img/food3.png","76","507.09999999962747","2","1","3","0.2,0.8,0.2,0.8,0.2,0.8,0.8,0.2",""
"","html-keyboard-response","223","161510","0.0-223.0","3FIUS151DWO50Z3HQJIOVCZ7DCIGGG","A1XQOZV8LQDM22","3TZDZ3Y0JSSRVQSC3SM97PDQ3Z7196","","null","<img src=""img/food3.png"" style=""width:200px; border:14px solid green;"">","null","","","","","",""
"","image-keyboard-response","224","161909","0.0-224.0","3FIUS151DWO50Z3HQJIOVCZ7DCIGGG","A1XQOZV8LQDM22","3TZDZ3Y0JSSRVQSC3SM97PDQ3Z7196","","393.69999999925494","img/food3.png","76","397.29999999981374","2","1","3","0.2,0.8,0.2,0.8,0.2,0.8,0.8,0.2",""
"","html-keyboard-response","225","162221","0.0-225.0","3FIUS151DWO50Z3HQJIOVCZ7DCIGGG","A1XQOZV8LQDM22","3TZDZ3Y0JSSRVQSC3SM97PDQ3Z7196","","null","<img src=""img/food3.png"" style=""width:200px; border:14px solid green;"">","null","","","","","",""
"","image-keyboard-response","226","163568","0.0-226.0","3FIUS151DWO50Z3HQJIOVCZ7DCIGGG","A1XQOZV8LQDM22","3TZDZ3Y0JSSRVQSC3SM97PDQ3Z7196","","1341.6000000005588","img/food6.png","75","1346.0999999996275","1","1","4","0.2,0.8,0.2,0.8,0.2,0.8,0.8,0.2",""
"","html-keyboard-response","227","163877","0.0-227.0","3FIUS151DWO50Z3HQJIOVCZ7DCIGGG","A1XQOZV8LQDM22","3TZDZ3Y0JSSRVQSC3SM97PDQ3Z7196","","null","<img src=""img/food6.png"" style=""width:200px; border:14px solid green;"">","null","","","","","",""
"","image-keyboard-response","228","164515","0.0-228.0","3FIUS151DWO50Z3HQJIOVCZ7DCIGGG","A1XQOZV8LQDM22","3TZDZ3Y0JSSRVQSC3SM97PDQ3Z7196","","632.7000000001863","img/food5.png","75","637.7000000001863","1","0","1","0.2,0.8,0.2,0.8,0.2,0.8,0.8,0.2",""
"","html-keyboard-response","229","164828","0.0-229.0","3FIUS151DWO50Z3HQJIOVCZ7DCIGGG","A1XQOZV8LQDM22","3TZDZ3Y0JSSRVQSC3SM97PDQ3Z7196","","null","<img src=""img/food5.png"" style=""width:200px;border:14px solid red;"">","null","","","","","",""
"","image-keyboard-response","230","165484","0.0-230.0","3FIUS151DWO50Z3HQJIOVCZ7DCIGGG","A1XQOZV8LQDM22","3TZDZ3Y0JSSRVQSC3SM97PDQ3Z7196","","650.8999999994412","img/food3.png","76","654.9000000003725","2","1","3","0.2,0.8,0.2,0.8,0.2,0.8,0.8,0.2",""
"","html-keyboard-response","231","165789","0.0-231.0","3FIUS151DWO50Z3HQJIOVCZ7DCIGGG","A1XQOZV8LQDM22","3TZDZ3Y0JSSRVQSC3SM97PDQ3Z7196","","null","<img src=""img/food3.png"" style=""width:200px; border:14px solid green;"">","null","","","","","",""
"","image-keyboard-response","232","166484","0.0-232.0","3FIUS151DWO50Z3HQJIOVCZ7DCIGGG","A1XQOZV8LQDM22","3TZDZ3Y0JSSRVQSC3SM97PDQ3Z7196","","688.7999999998137","img/food6.png","75","693.9000000003725","1","0","4","0.2,0.8,0.2,0.8,0.2,0.8,0.8,0.2",""
"","html-keyboard-response","233","166796","0.0-233.0","3FIUS151DWO50Z3HQJIOVCZ7DCIGGG","A1XQOZV8LQDM22","3TZDZ3Y0JSSRVQSC3SM97PDQ3Z7196","","null","<img src=""img/food6.png"" style=""width:200px;border:14px solid red;"">","null","","","","","",""
"","image-keyboard-response","234","167329","0.0-234.0","3FIUS151DWO50Z3HQJIOVCZ7DCIGGG","A1XQOZV8LQDM22","3TZDZ3Y0JSSRVQSC3SM97PDQ3Z7196","","527.8999999994412","img/food6.png","75","531.7999999998137","1","1","4","0.2,0.8,0.2,0.8,0.2,0.8,0.8,0.2",""
"","html-keyboard-response","235","167767","0.0-235.0","3FIUS151DWO50Z3HQJIOVCZ7DCIGGG","A1XQOZV8LQDM22","3TZDZ3Y0JSSRVQSC3SM97PDQ3Z7196","","null","<img src=""img/food6.png"" style=""width:200px; border:14px solid green;"">","null","","","","","",""
"","image-keyboard-response","236","168197","0.0-236.0","3FIUS151DWO50Z3HQJIOVCZ7DCIGGG","A1XQOZV8LQDM22","3TZDZ3Y0JSSRVQSC3SM97PDQ3Z7196","","424.79999999981374","img/food6.png","75","429.29999999981374","1","1","4","0.2,0.8,0.2,0.8,0.2,0.8,0.8,0.2",""
"","html-keyboard-response","237","168509","0.0-237.0","3FIUS151DWO50Z3HQJIOVCZ7DCIGGG","A1XQOZV8LQDM22","3TZDZ3Y0JSSRVQSC3SM97PDQ3Z7196","","null","<img src=""img/food6.png"" style=""width:200px; border:14px solid green;"">","null","","","","","",""
"","image-keyboard-response","238","169270","0.0-238.0","3FIUS151DWO50Z3HQJIOVCZ7DCIGGG","A1XQOZV8LQDM22","3TZDZ3Y0JSSRVQSC3SM97PDQ3Z7196","","756.2999999998137","img/food4.png","76","760","2","1","2","0.2,0.8,0.2,0.8,0.2,0.8,0.8,0.2",""
"","html-keyboard-response","239","169581","0.0-239.0","3FIUS151DWO50Z3HQJIOVCZ7DCIGGG","A1XQOZV8LQDM22","3TZDZ3Y0JSSRVQSC3SM97PDQ3Z7196","","null","<img src=""img/food4.png"" style=""width:200px; border:14px solid green;"">","null","","","","","",""
"","image-keyboard-response","240","170227","0.0-240.0","3FIUS151DWO50Z3HQJIOVCZ7DCIGGG","A1XQOZV8LQDM22","3TZDZ3Y0JSSRVQSC3SM97PDQ3Z7196","","638.2999999998137","img/food4.png","76","645.0999999996275","2","0","2","0.2,0.8,0.2,0.8,0.2,0.8,0.8,0.2",""
"","html-keyboard-response","241","170539","0.0-241.0","3FIUS151DWO50Z3HQJIOVCZ7DCIGGG","A1XQOZV8LQDM22","3TZDZ3Y0JSSRVQSC3SM97PDQ3Z7196","","null","<img src=""img/food4.png"" style=""width:200px;border:14px solid red;"">","null","","","","","",""
"","html-keyboard-response","242","173795","0.0-242.0","3FIUS151DWO50Z3HQJIOVCZ7DCIGGG","A1XQOZV8LQDM22","3TZDZ3Y0JSSRVQSC3SM97PDQ3Z7196","","","","","","","","","",""
"","image-keyboard-response","243","178336","0.0-243.0","3FIUS151DWO50Z3HQJIOVCZ7DCIGGG","A1XQOZV8LQDM22","3TZDZ3Y0JSSRVQSC3SM97PDQ3Z7196","","4531.299999999814","img/food7.png","75","4539.200000000186","1","1","2","0.8,0.2,0.8,0.2,0.2,0.8,0.2,0.8",""
"","html-keyboard-response","244","178644","0.0-244.0","3FIUS151DWO50Z3HQJIOVCZ7DCIGGG","A1XQOZV8LQDM22","3TZDZ3Y0JSSRVQSC3SM97PDQ3Z7196","","null","<img src=""img/food7.png"" style=""width:200px; border:14px solid green;"">","null","","","","","",""
"","image-keyboard-response","245","179421","0.0-245.0","3FIUS151DWO50Z3HQJIOVCZ7DCIGGG","A1XQOZV8LQDM22","3TZDZ3Y0JSSRVQSC3SM97PDQ3Z7196","","774.0999999996275","img/food8.png","75","777.7999999998137","1","1","3","0.8,0.2,0.8,0.2,0.2,0.8,0.2,0.8",""
"","html-keyboard-response","246","179733","0.0-246.0","3FIUS151DWO50Z3HQJIOVCZ7DCIGGG","A1XQOZV8LQDM22","3TZDZ3Y0JSSRVQSC3SM97PDQ3Z7196","","null","<img src=""img/food8.png"" style=""width:200px; border:14px solid green;"">","null","","","","","",""
"","image-keyboard-response","247","180337","0.0-247.0","3FIUS151DWO50Z3HQJIOVCZ7DCIGGG","A1XQOZV8LQDM22","3TZDZ3Y0JSSRVQSC3SM97PDQ3Z7196","","596.6999999992549","img/food7.png","75","602.7000000001863","1","1","2","0.8,0.2,0.8,0.2,0.2,0.8,0.2,0.8",""
"","html-keyboard-response","248","180645","0.0-248.0","3FIUS151DWO50Z3HQJIOVCZ7DCIGGG","A1XQOZV8LQDM22","3TZDZ3Y0JSSRVQSC3SM97PDQ3Z7196","","null","<img src=""img/food7.png"" style=""width:200px; border:14px solid green;"">","null","","","","","",""
"","image-keyboard-response","249","181214","0.0-249.0","3FIUS151DWO50Z3HQJIOVCZ7DCIGGG","A1XQOZV8LQDM22","3TZDZ3Y0JSSRVQSC3SM97PDQ3Z7196","","552.2000000001863","img/food7.png","75","569.2000000001863","1","0","2","0.8,0.2,0.8,0.2,0.2,0.8,0.2,0.8",""
"","html-keyboard-response","250","181525","0.0-250.0","3FIUS151DWO50Z3HQJIOVCZ7DCIGGG","A1XQOZV8LQDM22","3TZDZ3Y0JSSRVQSC3SM97PDQ3Z7196","","null","<img src=""img/food7.png"" style=""width:200px;border:14px solid red;"">","null","","","","","",""
"","image-keyboard-response","251","182628","0.0-251.0","3FIUS151DWO50Z3HQJIOVCZ7DCIGGG","A1XQOZV8LQDM22","3TZDZ3Y0JSSRVQSC3SM97PDQ3Z7196","","1097.0999999996275","img/food1.png","76","1101.7999999998137","2","1","4","0.8,0.2,0.8,0.2,0.2,0.8,0.2,0.8",""
"","html-keyboard-response","252","182932","0.0-252.0","3FIUS151DWO50Z3HQJIOVCZ7DCIGGG","A1XQOZV8LQDM22","3TZDZ3Y0JSSRVQSC3SM97PDQ3Z7196","","null","<img src=""img/food1.png"" style=""width:200px; border:14px solid green;"">","null","","","","","",""
"","image-keyboard-response","253","183604","0.0-253.0","3FIUS151DWO50Z3HQJIOVCZ7DCIGGG","A1XQOZV8LQDM22","3TZDZ3Y0JSSRVQSC3SM97PDQ3Z7196","","665.8999999994412","img/food8.png","76","670.5999999996275","2","1","3","0.8,0.2,0.8,0.2,0.2,0.8,0.2,0.8",""
"","html-keyboard-response","254","183917","0.0-254.0","3FIUS151DWO50Z3HQJIOVCZ7DCIGGG","A1XQOZV8LQDM22","3TZDZ3Y0JSSRVQSC3SM97PDQ3Z7196","","null","<img src=""img/food8.png"" style=""width:200px; border:14px solid green;"">","null","","","","","",""
"","image-keyboard-response","255","184579","0.0-255.0","3FIUS151DWO50Z3HQJIOVCZ7DCIGGG","A1XQOZV8LQDM22","3TZDZ3Y0JSSRVQSC3SM97PDQ3Z7196","","658.5","img/food1.png","76","661.9000000003725","2","1","4","0.8,0.2,0.8,0.2,0.2,0.8,0.2,0.8",""
"","html-keyboard-response","256","184907","0.0-256.0","3FIUS151DWO50Z3HQJIOVCZ7DCIGGG","A1XQOZV8LQDM22","3TZDZ3Y0JSSRVQSC3SM97PDQ3Z7196","","null","<img src=""img/food1.png"" style=""width:200px; border:14px solid green;"">","null","","","","","",""
"","image-keyboard-response","257","185744","0.0-257.0","3FIUS151DWO50Z3HQJIOVCZ7DCIGGG","A1XQOZV8LQDM22","3TZDZ3Y0JSSRVQSC3SM97PDQ3Z7196","","833.2000000001863","img/food8.png","76","836.9000000003725","2","1","3","0.8,0.2,0.8,0.2,0.2,0.8,0.2,0.8",""
"","html-keyboard-response","258","186174","0.0-258.0","3FIUS151DWO50Z3HQJIOVCZ7DCIGGG","A1XQOZV8LQDM22","3TZDZ3Y0JSSRVQSC3SM97PDQ3Z7196","","null","<img src=""img/food8.png"" style=""width:200px; border:14px solid green;"">","null","","","","","",""
"","image-keyboard-response","259","187013","0.0-259.0","3FIUS151DWO50Z3HQJIOVCZ7DCIGGG","A1XQOZV8LQDM22","3TZDZ3Y0JSSRVQSC3SM97PDQ3Z7196","","750.9000000003725","img/food2.png","75","756.5999999996275","1","1","1","0.8,0.2,0.8,0.2,0.2,0.8,0.2,0.8",""
"","html-keyboard-response","260","187340","0.0-260.0","3FIUS151DWO50Z3HQJIOVCZ7DCIGGG","A1XQOZV8LQDM22","3TZDZ3Y0JSSRVQSC3SM97PDQ3Z7196","","null","<img src=""img/food2.png"" style=""width:200px; border:14px solid green;"">","null","","","","","",""
"","image-keyboard-response","261","187811","0.0-261.0","3FIUS151DWO50Z3HQJIOVCZ7DCIGGG","A1XQOZV8LQDM22","3TZDZ3Y0JSSRVQSC3SM97PDQ3Z7196","","464.70000000018626","img/food2.png","75","469.30000000074506","1","1","1","0.8,0.2,0.8,0.2,0.2,0.8,0.2,0.8",""
"","html-keyboard-response","262","188125","0.0-262.0","3FIUS151DWO50Z3HQJIOVCZ7DCIGGG","A1XQOZV8LQDM22","3TZDZ3Y0JSSRVQSC3SM97PDQ3Z7196","","null","<img src=""img/food2.png"" style=""width:200px; border:14px solid green;"">","null","","","","","",""
"","image-keyboard-response","263","188643","0.0-263.0","3FIUS151DWO50Z3HQJIOVCZ7DCIGGG","A1XQOZV8LQDM22","3TZDZ3Y0JSSRVQSC3SM97PDQ3Z7196","","512","img/food7.png","75","516.8999999994412","1","0","2","0.8,0.2,0.8,0.2,0.2,0.8,0.2,0.8",""
"","html-keyboard-response","264","188956","0.0-264.0","3FIUS151DWO50Z3HQJIOVCZ7DCIGGG","A1XQOZV8LQDM22","3TZDZ3Y0JSSRVQSC3SM97PDQ3Z7196","","null","<img src=""img/food7.png"" style=""width:200px;border:14px solid red;"">","null","","","","","",""
"","image-keyboard-response","265","189457","0.0-265.0","3FIUS151DWO50Z3HQJIOVCZ7DCIGGG","A1XQOZV8LQDM22","3TZDZ3Y0JSSRVQSC3SM97PDQ3Z7196","","497.09999999962747","img/food7.png","75","500.5","1","1","2","0.8,0.2,0.8,0.2,0.2,0.8,0.2,0.8",""
"","html-keyboard-response","266","189764","0.0-266.0","3FIUS151DWO50Z3HQJIOVCZ7DCIGGG","A1XQOZV8LQDM22","3TZDZ3Y0JSSRVQSC3SM97PDQ3Z7196","","null","<img src=""img/food7.png"" style=""width:200px; border:14px solid green;"">","null","","","","","",""
"","image-keyboard-response","267","190341","0.0-267.0","3FIUS151DWO50Z3HQJIOVCZ7DCIGGG","A1XQOZV8LQDM22","3TZDZ3Y0JSSRVQSC3SM97PDQ3Z7196","","572.8000000007451","img/food8.png","76","576.5","2","1","3","0.8,0.2,0.8,0.2,0.2,0.8,0.2,0.8",""
"","html-keyboard-response","268","190652","0.0-268.0","3FIUS151DWO50Z3HQJIOVCZ7DCIGGG","A1XQOZV8LQDM22","3TZDZ3Y0JSSRVQSC3SM97PDQ3Z7196","","null","<img src=""img/food8.png"" style=""width:200px; border:14px solid green;"">","null","","","","","",""
"","image-keyboard-response","269","191238","0.0-269.0","3FIUS151DWO50Z3HQJIOVCZ7DCIGGG","A1XQOZV8LQDM22","3TZDZ3Y0JSSRVQSC3SM97PDQ3Z7196","","579.9000000003725","img/food1.png","76","584.5999999996275","2","0","4","0.8,0.2,0.8,0.2,0.2,0.8,0.2,0.8",""
"","html-keyboard-response","270","191550","0.0-270.0","3FIUS151DWO50Z3HQJIOVCZ7DCIGGG","A1XQOZV8LQDM22","3TZDZ3Y0JSSRVQSC3SM97PDQ3Z7196","","null","<img src=""img/food1.png"" style=""width:200px;border:14px solid red;"">","null","","","","","",""
"","image-keyboard-response","271","192613","0.0-271.0","3FIUS151DWO50Z3HQJIOVCZ7DCIGGG","A1XQOZV8LQDM22","3TZDZ3Y0JSSRVQSC3SM97PDQ3Z7196","","1057.6000000005588","img/food8.png","75","1061.4000000003725","1","0","3","0.8,0.2,0.8,0.2,0.2,0.8,0.2,0.8",""
"","html-keyboard-response","272","192926","0.0-272.0","3FIUS151DWO50Z3HQJIOVCZ7DCIGGG","A1XQOZV8LQDM22","3TZDZ3Y0JSSRVQSC3SM97PDQ3Z7196","","null","<img src=""img/food8.png"" style=""width:200px;border:14px solid red;"">","null","","","","","",""
"","image-keyboard-response","273","193998","0.0-273.0","3FIUS151DWO50Z3HQJIOVCZ7DCIGGG","A1XQOZV8LQDM22","3TZDZ3Y0JSSRVQSC3SM97PDQ3Z7196","","1065.800000000745","img/food1.png","76","1070.7000000001863","2","0","4","0.8,0.2,0.8,0.2,0.2,0.8,0.2,0.8",""
"","html-keyboard-response","274","194308","0.0-274.0","3FIUS151DWO50Z3HQJIOVCZ7DCIGGG","A1XQOZV8LQDM22","3TZDZ3Y0JSSRVQSC3SM97PDQ3Z7196","","null","<img src=""img/food1.png"" style=""width:200px;border:14px solid red;"">","null","","","","","",""
"","image-keyboard-response","275","194715","0.0-275.0","3FIUS151DWO50Z3HQJIOVCZ7DCIGGG","A1XQOZV8LQDM22","3TZDZ3Y0JSSRVQSC3SM97PDQ3Z7196","","401","img/food2.png","75","405.80000000074506","1","1","1","0.8,0.2,0.8,0.2,0.2,0.8,0.2,0.8",""
"","html-keyboard-response","276","195033","0.0-276.0","3FIUS151DWO50Z3HQJIOVCZ7DCIGGG","A1XQOZV8LQDM22","3TZDZ3Y0JSSRVQSC3SM97PDQ3Z7196","","null","<img src=""img/food2.png"" style=""width:200px; border:14px solid green;"">","null","","","","","",""
"","image-keyboard-response","277","195442","0.0-277.0","3FIUS151DWO50Z3HQJIOVCZ7DCIGGG","A1XQOZV8LQDM22","3TZDZ3Y0JSSRVQSC3SM97PDQ3Z7196","","405.09999999962747","img/food1.png","75","409","1","0","4","0.8,0.2,0.8,0.2,0.2,0.8,0.2,0.8",""
"","html-keyboard-response","278","195750","0.0-278.0","3FIUS151DWO50Z3HQJIOVCZ7DCIGGG","A1XQOZV8LQDM22","3TZDZ3Y0JSSRVQSC3SM97PDQ3Z7196","","null","<img src=""img/food1.png"" style=""width:200px;border:14px solid red;"">","null","","","","","",""
"","image-keyboard-response","279","196460","0.0-279.0","3FIUS151DWO50Z3HQJIOVCZ7DCIGGG","A1XQOZV8LQDM22","3TZDZ3Y0JSSRVQSC3SM97PDQ3Z7196","","704.2999999998137","img/food1.png","76","708.6999999992549","2","1","4","0.8,0.2,0.8,0.2,0.2,0.8,0.2,0.8",""
"","html-keyboard-response","280","196767","0.0-280.0","3FIUS151DWO50Z3HQJIOVCZ7DCIGGG","A1XQOZV8LQDM22","3TZDZ3Y0JSSRVQSC3SM97PDQ3Z7196","","null","<img src=""img/food1.png"" style=""width:200px; border:14px solid green;"">","null","","","","","",""
"","image-keyboard-response","281","198386","0.0-281.0","3FIUS151DWO50Z3HQJIOVCZ7DCIGGG","A1XQOZV8LQDM22","3TZDZ3Y0JSSRVQSC3SM97PDQ3Z7196","","1613","img/food2.png","76","1617.7000000001863","2","0","1","0.8,0.2,0.8,0.2,0.2,0.8,0.2,0.8",""
"","html-keyboard-response","282","198748","0.0-282.0","3FIUS151DWO50Z3HQJIOVCZ7DCIGGG","A1XQOZV8LQDM22","3TZDZ3Y0JSSRVQSC3SM97PDQ3Z7196","","null","<img src=""img/food2.png"" style=""width:200px;border:14px solid red;"">","null","","","","","",""
"","image-keyboard-response","283","199445","0.0-283.0","3FIUS151DWO50Z3HQJIOVCZ7DCIGGG","A1XQOZV8LQDM22","3TZDZ3Y0JSSRVQSC3SM97PDQ3Z7196","","692.5","img/food2.png","75","696.2000000001863","1","1","1","0.8,0.2,0.8,0.2,0.2,0.8,0.2,0.8",""
"","html-keyboard-response","284","199767","0.0-284.0","3FIUS151DWO50Z3HQJIOVCZ7DCIGGG","A1XQOZV8LQDM22","3TZDZ3Y0JSSRVQSC3SM97PDQ3Z7196","","null","<img src=""img/food2.png"" style=""width:200px; border:14px solid green;"">","null","","","","","",""
"","image-keyboard-response","285","200665","0.0-285.0","3FIUS151DWO50Z3HQJIOVCZ7DCIGGG","A1XQOZV8LQDM22","3TZDZ3Y0JSSRVQSC3SM97PDQ3Z7196","","891.5999999996275","img/food8.png","75","896.5","1","0","3","0.8,0.2,0.8,0.2,0.2,0.8,0.2,0.8",""
"","html-keyboard-response","286","200973","0.0-286.0","3FIUS151DWO50Z3HQJIOVCZ7DCIGGG","A1XQOZV8LQDM22","3TZDZ3Y0JSSRVQSC3SM97PDQ3Z7196","","null","<img src=""img/food8.png"" style=""width:200px;border:14px solid red;"">","null","","","","","",""
"","image-keyboard-response","287","201570","0.0-287.0","3FIUS151DWO50Z3HQJIOVCZ7DCIGGG","A1XQOZV8LQDM22","3TZDZ3Y0JSSRVQSC3SM97PDQ3Z7196","","591.2000000001863","img/food1.png","75","595.7000000001863","1","1","4","0.8,0.2,0.8,0.2,0.2,0.8,0.2,0.8",""
"","html-keyboard-response","288","201877","0.0-288.0","3FIUS151DWO50Z3HQJIOVCZ7DCIGGG","A1XQOZV8LQDM22","3TZDZ3Y0JSSRVQSC3SM97PDQ3Z7196","","null","<img src=""img/food1.png"" style=""width:200px; border:14px solid green;"">","null","","","","","",""
"","image-keyboard-response","289","202850","0.0-289.0","3FIUS151DWO50Z3HQJIOVCZ7DCIGGG","A1XQOZV8LQDM22","3TZDZ3Y0JSSRVQSC3SM97PDQ3Z7196","","967.5999999996275","img/food7.png","76","971.6999999992549","2","0","2","0.8,0.2,0.8,0.2,0.2,0.8,0.2,0.8",""
"","html-keyboard-response","290","203157","0.0-290.0","3FIUS151DWO50Z3HQJIOVCZ7DCIGGG","A1XQOZV8LQDM22","3TZDZ3Y0JSSRVQSC3SM97PDQ3Z7196","","null","<img src=""img/food7.png"" style=""width:200px;border:14px solid red;"">","null","","","","","",""
"","image-keyboard-response","291","204008","0.0-291.0","3FIUS151DWO50Z3HQJIOVCZ7DCIGGG","A1XQOZV8LQDM22","3TZDZ3Y0JSSRVQSC3SM97PDQ3Z7196","","845.5","img/food7.png","75","850.1000000005588","1","1","2","0.8,0.2,0.8,0.2,0.2,0.8,0.2,0.8",""
"","html-keyboard-response","292","204317","0.0-292.0","3FIUS151DWO50Z3HQJIOVCZ7DCIGGG","A1XQOZV8LQDM22","3TZDZ3Y0JSSRVQSC3SM97PDQ3Z7196","","null","<img src=""img/food7.png"" style=""width:200px; border:14px solid green;"">","null","","","","","",""
"","image-keyboard-response","293","207883","0.0-293.0","3FIUS151DWO50Z3HQJIOVCZ7DCIGGG","A1XQOZV8LQDM22","3TZDZ3Y0JSSRVQSC3SM97PDQ3Z7196","","3559.199999999255","img/food1.png","76","3565.600000000559","2","0","4","0.8,0.2,0.8,0.2,0.2,0.8,0.2,0.8",""
"","html-keyboard-response","294","208197","0.0-294.0","3FIUS151DWO50Z3HQJIOVCZ7DCIGGG","A1XQOZV8LQDM22","3TZDZ3Y0JSSRVQSC3SM97PDQ3Z7196","","null","<img src=""img/food1.png"" style=""width:200px;border:14px solid red;"">","null","","","","","",""
"","image-keyboard-response","295","208509","0.0-295.0","3FIUS151DWO50Z3HQJIOVCZ7DCIGGG","A1XQOZV8LQDM22","3TZDZ3Y0JSSRVQSC3SM97PDQ3Z7196","","306.6000000005588","img/food7.png","76","311.80000000074506","2","0","2","0.8,0.2,0.8,0.2,0.2,0.8,0.2,0.8",""
"","html-keyboard-response","296","208819","0.0-296.0","3FIUS151DWO50Z3HQJIOVCZ7DCIGGG","A1XQOZV8LQDM22","3TZDZ3Y0JSSRVQSC3SM97PDQ3Z7196","","null","<img src=""img/food7.png"" style=""width:200px;border:14px solid red;"">","null","","","","","",""
"","image-keyboard-response","297","210128","0.0-297.0","3FIUS151DWO50Z3HQJIOVCZ7DCIGGG","A1XQOZV8LQDM22","3TZDZ3Y0JSSRVQSC3SM97PDQ3Z7196","","1305.7999999998137","img/food2.png","75","1308.6000000005588","1","1","1","0.8,0.2,0.8,0.2,0.2,0.8,0.2,0.8",""
"","html-keyboard-response","298","210437","0.0-298.0","3FIUS151DWO50Z3HQJIOVCZ7DCIGGG","A1XQOZV8LQDM22","3TZDZ3Y0JSSRVQSC3SM97PDQ3Z7196","","null","<img src=""img/food2.png"" style=""width:200px; border:14px solid green;"">","null","","","","","",""
"","image-keyboard-response","299","211165","0.0-299.0","3FIUS151DWO50Z3HQJIOVCZ7DCIGGG","A1XQOZV8LQDM22","3TZDZ3Y0JSSRVQSC3SM97PDQ3Z7196","","721.7000000001863","img/food1.png","75","726.6999999992549","1","0","4","0.8,0.2,0.8,0.2,0.2,0.8,0.2,0.8",""
"","html-keyboard-response","300","211476","0.0-300.0","3FIUS151DWO50Z3HQJIOVCZ7DCIGGG","A1XQOZV8LQDM22","3TZDZ3Y0JSSRVQSC3SM97PDQ3Z7196","","null","<img src=""img/food1.png"" style=""width:200px;border:14px solid red;"">","null","","","","","",""
"","image-keyboard-response","301","212101","0.0-301.0","3FIUS151DWO50Z3HQJIOVCZ7DCIGGG","A1XQOZV8LQDM22","3TZDZ3Y0JSSRVQSC3SM97PDQ3Z7196","","621.9000000003725","img/food2.png","75","625.4000000003725","1","1","1","0.8,0.2,0.8,0.2,0.2,0.8,0.2,0.8",""
"","html-keyboard-response","302","212419","0.0-302.0","3FIUS151DWO50Z3HQJIOVCZ7DCIGGG","A1XQOZV8LQDM22","3TZDZ3Y0JSSRVQSC3SM97PDQ3Z7196","","null","<img src=""img/food2.png"" style=""width:200px; border:14px solid green;"">","null","","","","","",""
"","image-keyboard-response","303","212945","0.0-303.0","3FIUS151DWO50Z3HQJIOVCZ7DCIGGG","A1XQOZV8LQDM22","3TZDZ3Y0JSSRVQSC3SM97PDQ3Z7196","","521.8999999994412","img/food2.png","75","526.1999999992549","1","1","1","0.8,0.2,0.8,0.2,0.2,0.8,0.2,0.8",""
"","html-keyboard-response","304","213253","0.0-304.0","3FIUS151DWO50Z3HQJIOVCZ7DCIGGG","A1XQOZV8LQDM22","3TZDZ3Y0JSSRVQSC3SM97PDQ3Z7196","","null","<img src=""img/food2.png"" style=""width:200px; border:14px solid green;"">","null","","","","","",""
"","image-keyboard-response","305","214012","0.0-305.0","3FIUS151DWO50Z3HQJIOVCZ7DCIGGG","A1XQOZV8LQDM22","3TZDZ3Y0JSSRVQSC3SM97PDQ3Z7196","","753.7000000001863","img/food1.png","76","758.5","2","1","4","0.8,0.2,0.8,0.2,0.2,0.8,0.2,0.8",""
"","html-keyboard-response","306","214325","0.0-306.0","3FIUS151DWO50Z3HQJIOVCZ7DCIGGG","A1XQOZV8LQDM22","3TZDZ3Y0JSSRVQSC3SM97PDQ3Z7196","","null","<img src=""img/food1.png"" style=""width:200px; border:14px solid green;"">","null","","","","","",""
"","image-keyboard-response","307","214896","0.0-307.0","3FIUS151DWO50Z3HQJIOVCZ7DCIGGG","A1XQOZV8LQDM22","3TZDZ3Y0JSSRVQSC3SM97PDQ3Z7196","","563.7999999998137","img/food7.png","75","568.9000000003725","1","0","2","0.8,0.2,0.8,0.2,0.2,0.8,0.2,0.8",""
"","html-keyboard-response","308","215205","0.0-308.0","3FIUS151DWO50Z3HQJIOVCZ7DCIGGG","A1XQOZV8LQDM22","3TZDZ3Y0JSSRVQSC3SM97PDQ3Z7196","","null","<img src=""img/food7.png"" style=""width:200px;border:14px solid red;"">","null","","","","","",""
"","image-keyboard-response","309","216301","0.0-309.0","3FIUS151DWO50Z3HQJIOVCZ7DCIGGG","A1XQOZV8LQDM22","3TZDZ3Y0JSSRVQSC3SM97PDQ3Z7196","","1087.7999999998137","img/food1.png","76","1094.3999999994412","2","1","4","0.8,0.2,0.8,0.2,0.2,0.8,0.2,0.8",""
"","html-keyboard-response","310","216614","0.0-310.0","3FIUS151DWO50Z3HQJIOVCZ7DCIGGG","A1XQOZV8LQDM22","3TZDZ3Y0JSSRVQSC3SM97PDQ3Z7196","","null","<img src=""img/food1.png"" style=""width:200px; border:14px solid green;"">","null","","","","","",""
"","image-keyboard-response","311","217211","0.0-311.0","3FIUS151DWO50Z3HQJIOVCZ7DCIGGG","A1XQOZV8LQDM22","3TZDZ3Y0JSSRVQSC3SM97PDQ3Z7196","","586.0999999996275","img/food1.png","76","595.5","2","1","4","0.8,0.2,0.8,0.2,0.2,0.8,0.2,0.8",""
"","html-keyboard-response","312","217524","0.0-312.0","3FIUS151DWO50Z3HQJIOVCZ7DCIGGG","A1XQOZV8LQDM22","3TZDZ3Y0JSSRVQSC3SM97PDQ3Z7196","","null","<img src=""img/food1.png"" style=""width:200px; border:14px solid green;"">","null","","","","","",""
"","image-keyboard-response","313","217948","0.0-313.0","3FIUS151DWO50Z3HQJIOVCZ7DCIGGG","A1XQOZV8LQDM22","3TZDZ3Y0JSSRVQSC3SM97PDQ3Z7196","","420","img/food1.png","76","423.69999999925494","2","0","4","0.8,0.2,0.8,0.2,0.2,0.8,0.2,0.8",""
"","html-keyboard-response","314","218260","0.0-314.0","3FIUS151DWO50Z3HQJIOVCZ7DCIGGG","A1XQOZV8LQDM22","3TZDZ3Y0JSSRVQSC3SM97PDQ3Z7196","","null","<img src=""img/food1.png"" style=""width:200px;border:14px solid red;"">","null","","","","","",""
"","image-keyboard-response","315","218954","0.0-315.0","3FIUS151DWO50Z3HQJIOVCZ7DCIGGG","A1XQOZV8LQDM22","3TZDZ3Y0JSSRVQSC3SM97PDQ3Z7196","","688.7000000001863","img/food8.png","76","693.4000000003725","2","1","3","0.8,0.2,0.8,0.2,0.2,0.8,0.2,0.8",""
"","html-keyboard-response","316","219268","0.0-316.0","3FIUS151DWO50Z3HQJIOVCZ7DCIGGG","A1XQOZV8LQDM22","3TZDZ3Y0JSSRVQSC3SM97PDQ3Z7196","","null","<img src=""img/food8.png"" style=""width:200px; border:14px solid green;"">","null","","","","","",""
"","image-keyboard-response","317","219994","0.0-317.0","3FIUS151DWO50Z3HQJIOVCZ7DCIGGG","A1XQOZV8LQDM22","3TZDZ3Y0JSSRVQSC3SM97PDQ3Z7196","","720.4000000003725","img/food2.png","75","724.0999999996275","1","1","1","0.8,0.2,0.8,0.2,0.2,0.8,0.2,0.8",""
"","html-keyboard-response","318","220300","0.0-318.0","3FIUS151DWO50Z3HQJIOVCZ7DCIGGG","A1XQOZV8LQDM22","3TZDZ3Y0JSSRVQSC3SM97PDQ3Z7196","","null","<img src=""img/food2.png"" style=""width:200px; border:14px solid green;"">","null","","","","","",""
"","image-keyboard-response","319","221010","0.0-319.0","3FIUS151DWO50Z3HQJIOVCZ7DCIGGG","A1XQOZV8LQDM22","3TZDZ3Y0JSSRVQSC3SM97PDQ3Z7196","","703","img/food1.png","76","708.1999999992549","2","1","4","0.8,0.2,0.8,0.2,0.2,0.8,0.2,0.8",""
"","html-keyboard-response","320","221316","0.0-320.0","3FIUS151DWO50Z3HQJIOVCZ7DCIGGG","A1XQOZV8LQDM22","3TZDZ3Y0JSSRVQSC3SM97PDQ3Z7196","","null","<img src=""img/food1.png"" style=""width:200px; border:14px solid green;"">","null","","","","","",""
"","image-keyboard-response","321","222080","0.0-321.0","3FIUS151DWO50Z3HQJIOVCZ7DCIGGG","A1XQOZV8LQDM22","3TZDZ3Y0JSSRVQSC3SM97PDQ3Z7196","","759.7999999998137","img/food7.png","75","763.2999999998137","1","1","2","0.8,0.2,0.8,0.2,0.2,0.8,0.2,0.8",""
"","html-keyboard-response","322","222472","0.0-322.0","3FIUS151DWO50Z3HQJIOVCZ7DCIGGG","A1XQOZV8LQDM22","3TZDZ3Y0JSSRVQSC3SM97PDQ3Z7196","","null","<img src=""img/food7.png"" style=""width:200px; border:14px solid green;"">","null","","","","","",""
"","image-keyboard-response","323","223916","0.0-323.0","3FIUS151DWO50Z3HQJIOVCZ7DCIGGG","A1XQOZV8LQDM22","3TZDZ3Y0JSSRVQSC3SM97PDQ3Z7196","","1434.5","img/food8.png","76","1438.9000000003725","2","1","3","0.8,0.2,0.8,0.2,0.2,0.8,0.2,0.8",""
"","html-keyboard-response","324","224229","0.0-324.0","3FIUS151DWO50Z3HQJIOVCZ7DCIGGG","A1XQOZV8LQDM22","3TZDZ3Y0JSSRVQSC3SM97PDQ3Z7196","","null","<img src=""img/food8.png"" style=""width:200px; border:14px solid green;"">","null","","","","","",""
"","image-keyboard-response","325","224722","0.0-325.0","3FIUS151DWO50Z3HQJIOVCZ7DCIGGG","A1XQOZV8LQDM22","3TZDZ3Y0JSSRVQSC3SM97PDQ3Z7196","","486.70000000018626","img/food8.png","76","491.29999999981374","2","1","3","0.8,0.2,0.8,0.2,0.2,0.8,0.2,0.8",""
"","html-keyboard-response","326","225047","0.0-326.0","3FIUS151DWO50Z3HQJIOVCZ7DCIGGG","A1XQOZV8LQDM22","3TZDZ3Y0JSSRVQSC3SM97PDQ3Z7196","","null","<img src=""img/food8.png"" style=""width:200px; border:14px solid green;"">","null","","","","","",""
"","image-keyboard-response","327","225844","0.0-327.0","3FIUS151DWO50Z3HQJIOVCZ7DCIGGG","A1XQOZV8LQDM22","3TZDZ3Y0JSSRVQSC3SM97PDQ3Z7196","","790.5","img/food2.png","75","795.1000000005588","1","1","1","0.8,0.2,0.8,0.2,0.2,0.8,0.2,0.8",""
"","html-keyboard-response","328","226254","0.0-328.0","3FIUS151DWO50Z3HQJIOVCZ7DCIGGG","A1XQOZV8LQDM22","3TZDZ3Y0JSSRVQSC3SM97PDQ3Z7196","","null","<img src=""img/food2.png"" style=""width:200px; border:14px solid green;"">","null","","","","","",""
"","image-keyboard-response","329","227252","0.0-329.0","3FIUS151DWO50Z3HQJIOVCZ7DCIGGG","A1XQOZV8LQDM22","3TZDZ3Y0JSSRVQSC3SM97PDQ3Z7196","","955.5","img/food7.png","75","960.2000000001863","1","1","2","0.8,0.2,0.8,0.2,0.2,0.8,0.2,0.8",""
"","html-keyboard-response","330","227568","0.0-330.0","3FIUS151DWO50Z3HQJIOVCZ7DCIGGG","A1XQOZV8LQDM22","3TZDZ3Y0JSSRVQSC3SM97PDQ3Z7196","","null","<img src=""img/food7.png"" style=""width:200px; border:14px solid green;"">","null","","","","","",""
"","image-keyboard-response","331","228297","0.0-331.0","3FIUS151DWO50Z3HQJIOVCZ7DCIGGG","A1XQOZV8LQDM22","3TZDZ3Y0JSSRVQSC3SM97PDQ3Z7196","","723.7000000001863","img/food8.png","76","727.5","2","1","3","0.8,0.2,0.8,0.2,0.2,0.8,0.2,0.8",""
"","html-keyboard-response","332","228619","0.0-332.0","3FIUS151DWO50Z3HQJIOVCZ7DCIGGG","A1XQOZV8LQDM22","3TZDZ3Y0JSSRVQSC3SM97PDQ3Z7196","","null","<img src=""img/food8.png"" style=""width:200px; border:14px solid green;"">","null","","","","","",""
"","image-keyboard-response","333","229176","0.0-333.0","3FIUS151DWO50Z3HQJIOVCZ7DCIGGG","A1XQOZV8LQDM22","3TZDZ3Y0JSSRVQSC3SM97PDQ3Z7196","","550.2000000001863","img/food8.png","76","556","2","0","3","0.8,0.2,0.8,0.2,0.2,0.8,0.2,0.8",""
"","html-keyboard-response","334","229485","0.0-334.0","3FIUS151DWO50Z3HQJIOVCZ7DCIGGG","A1XQOZV8LQDM22","3TZDZ3Y0JSSRVQSC3SM97PDQ3Z7196","","null","<img src=""img/food8.png"" style=""width:200px;border:14px solid red;"">","null","","","","","",""
"","image-keyboard-response","335","230496","0.0-335.0","3FIUS151DWO50Z3HQJIOVCZ7DCIGGG","A1XQOZV8LQDM22","3TZDZ3Y0JSSRVQSC3SM97PDQ3Z7196","","1005.3000000007451","img/food7.png","75","1010.2000000001863","1","1","2","0.8,0.2,0.8,0.2,0.2,0.8,0.2,0.8",""
"","html-keyboard-response","336","230805","0.0-336.0","3FIUS151DWO50Z3HQJIOVCZ7DCIGGG","A1XQOZV8LQDM22","3TZDZ3Y0JSSRVQSC3SM97PDQ3Z7196","","null","<img src=""img/food7.png"" style=""width:200px; border:14px solid green;"">","null","","","","","",""
"","image-keyboard-response","337","231611","0.0-337.0","3FIUS151DWO50Z3HQJIOVCZ7DCIGGG","A1XQOZV8LQDM22","3TZDZ3Y0JSSRVQSC3SM97PDQ3Z7196","","800.2000000001863","img/food2.png","75","805.2000000001863","1","1","1","0.8,0.2,0.8,0.2,0.2,0.8,0.2,0.8",""
"","html-keyboard-response","338","231925","0.0-338.0","3FIUS151DWO50Z3HQJIOVCZ7DCIGGG","A1XQOZV8LQDM22","3TZDZ3Y0JSSRVQSC3SM97PDQ3Z7196","","null","<img src=""img/food2.png"" style=""width:200px; border:14px solid green;"">","null","","","","","",""
"","image-keyboard-response","339","232506","0.0-339.0","3FIUS151DWO50Z3HQJIOVCZ7DCIGGG","A1XQOZV8LQDM22","3TZDZ3Y0JSSRVQSC3SM97PDQ3Z7196","","575.8999999994412","img/food2.png","75","580.2000000001863","1","1","1","0.8,0.2,0.8,0.2,0.2,0.8,0.2,0.8",""
"","html-keyboard-response","340","232811","0.0-340.0","3FIUS151DWO50Z3HQJIOVCZ7DCIGGG","A1XQOZV8LQDM22","3TZDZ3Y0JSSRVQSC3SM97PDQ3Z7196","","null","<img src=""img/food2.png"" style=""width:200px; border:14px solid green;"">","null","","","","","",""
"","image-keyboard-response","341","233317","0.0-341.0","3FIUS151DWO50Z3HQJIOVCZ7DCIGGG","A1XQOZV8LQDM22","3TZDZ3Y0JSSRVQSC3SM97PDQ3Z7196","","502.40000000037253","img/food7.png","76","505.59999999962747","2","0","2","0.8,0.2,0.8,0.2,0.2,0.8,0.2,0.8",""
"","html-keyboard-response","342","233765","0.0-342.0","3FIUS151DWO50Z3HQJIOVCZ7DCIGGG","A1XQOZV8LQDM22","3TZDZ3Y0JSSRVQSC3SM97PDQ3Z7196","","null","<img src=""img/food7.png"" style=""width:200px;border:14px solid red;"">","null","","","","","",""
"","image-keyboard-response","343","234493","0.0-343.0","3FIUS151DWO50Z3HQJIOVCZ7DCIGGG","A1XQOZV8LQDM22","3TZDZ3Y0JSSRVQSC3SM97PDQ3Z7196","","724.1999999992549","img/food1.png","75","727.5999999996275","1","0","4","0.8,0.2,0.8,0.2,0.2,0.8,0.2,0.8",""
"","html-keyboard-response","344","234857","0.0-344.0","3FIUS151DWO50Z3HQJIOVCZ7DCIGGG","A1XQOZV8LQDM22","3TZDZ3Y0JSSRVQSC3SM97PDQ3Z7196","","null","<img src=""img/food1.png"" style=""width:200px;border:14px solid red;"">","null","","","","","",""
"","image-keyboard-response","345","235569","0.0-345.0","3FIUS151DWO50Z3HQJIOVCZ7DCIGGG","A1XQOZV8LQDM22","3TZDZ3Y0JSSRVQSC3SM97PDQ3Z7196","","705.1000000005588","img/food7.png","75","710.2999999998137","1","1","2","0.8,0.2,0.8,0.2,0.2,0.8,0.2,0.8",""
"","html-keyboard-response","346","235876","0.0-346.0","3FIUS151DWO50Z3HQJIOVCZ7DCIGGG","A1XQOZV8LQDM22","3TZDZ3Y0JSSRVQSC3SM97PDQ3Z7196","","null","<img src=""img/food7.png"" style=""width:200px; border:14px solid green;"">","null","","","","","",""
"","image-keyboard-response","347","236613","0.0-347.0","3FIUS151DWO50Z3HQJIOVCZ7DCIGGG","A1XQOZV8LQDM22","3TZDZ3Y0JSSRVQSC3SM97PDQ3Z7196","","730.7999999998137","img/food8.png","76","735","2","1","3","0.8,0.2,0.8,0.2,0.2,0.8,0.2,0.8",""
"","html-keyboard-response","348","236925","0.0-348.0","3FIUS151DWO50Z3HQJIOVCZ7DCIGGG","A1XQOZV8LQDM22","3TZDZ3Y0JSSRVQSC3SM97PDQ3Z7196","","null","<img src=""img/food8.png"" style=""width:200px; border:14px solid green;"">","null","","","","","",""
"","image-keyboard-response","349","237761","0.0-349.0","3FIUS151DWO50Z3HQJIOVCZ7DCIGGG","A1XQOZV8LQDM22","3TZDZ3Y0JSSRVQSC3SM97PDQ3Z7196","","830.7999999998137","img/food7.png","75","835.3999999994412","1","1","2","0.8,0.2,0.8,0.2,0.2,0.8,0.2,0.8",""
"","html-keyboard-response","350","238069","0.0-350.0","3FIUS151DWO50Z3HQJIOVCZ7DCIGGG","A1XQOZV8LQDM22","3TZDZ3Y0JSSRVQSC3SM97PDQ3Z7196","","null","<img src=""img/food7.png"" style=""width:200px; border:14px solid green;"">","null","","","","","",""
"","image-keyboard-response","351","238872","0.0-351.0","3FIUS151DWO50Z3HQJIOVCZ7DCIGGG","A1XQOZV8LQDM22","3TZDZ3Y0JSSRVQSC3SM97PDQ3Z7196","","797.8000000007451","img/food8.png","76","801.5999999996275","2","0","3","0.8,0.2,0.8,0.2,0.2,0.8,0.2,0.8",""
"","html-keyboard-response","352","239180","0.0-352.0","3FIUS151DWO50Z3HQJIOVCZ7DCIGGG","A1XQOZV8LQDM22","3TZDZ3Y0JSSRVQSC3SM97PDQ3Z7196","","null","<img src=""img/food8.png"" style=""width:200px;border:14px solid red;"">","null","","","","","",""
"","image-keyboard-response","353","239696","0.0-353.0","3FIUS151DWO50Z3HQJIOVCZ7DCIGGG","A1XQOZV8LQDM22","3TZDZ3Y0JSSRVQSC3SM97PDQ3Z7196","","509.70000000018626","img/food8.png","76","514.5999999996275","2","0","3","0.8,0.2,0.8,0.2,0.2,0.8,0.2,0.8",""
"","html-keyboard-response","354","240004","0.0-354.0","3FIUS151DWO50Z3HQJIOVCZ7DCIGGG","A1XQOZV8LQDM22","3TZDZ3Y0JSSRVQSC3SM97PDQ3Z7196","","null","<img src=""img/food8.png"" style=""width:200px;border:14px solid red;"">","null","","","","","",""
"","image-keyboard-response","355","240524","0.0-355.0","3FIUS151DWO50Z3HQJIOVCZ7DCIGGG","A1XQOZV8LQDM22","3TZDZ3Y0JSSRVQSC3SM97PDQ3Z7196","","515.5999999996275","img/food8.png","76","519.6000000005588","2","0","3","0.8,0.2,0.8,0.2,0.2,0.8,0.2,0.8",""
"","html-keyboard-response","356","240836","0.0-356.0","3FIUS151DWO50Z3HQJIOVCZ7DCIGGG","A1XQOZV8LQDM22","3TZDZ3Y0JSSRVQSC3SM97PDQ3Z7196","","null","<img src=""img/food8.png"" style=""width:200px;border:14px solid red;"">","null","","","","","",""
"","image-keyboard-response","357","241868","0.0-357.0","3FIUS151DWO50Z3HQJIOVCZ7DCIGGG","A1XQOZV8LQDM22","3TZDZ3Y0JSSRVQSC3SM97PDQ3Z7196","","1026.4000000003725","img/food7.png","75","1031.0999999996275","1","1","2","0.8,0.2,0.8,0.2,0.2,0.8,0.2,0.8",""
"","html-keyboard-response","358","242181","0.0-358.0","3FIUS151DWO50Z3HQJIOVCZ7DCIGGG","A1XQOZV8LQDM22","3TZDZ3Y0JSSRVQSC3SM97PDQ3Z7196","","null","<img src=""img/food7.png"" style=""width:200px; border:14px solid green;"">","null","","","","","",""
"","image-keyboard-response","359","245506","0.0-359.0","3FIUS151DWO50Z3HQJIOVCZ7DCIGGG","A1XQOZV8LQDM22","3TZDZ3Y0JSSRVQSC3SM97PDQ3Z7196","","3318.9000000003725","img/food1.png","76","3323.5","2","1","4","0.8,0.2,0.8,0.2,0.2,0.8,0.2,0.8",""
"","html-keyboard-response","360","245821","0.0-360.0","3FIUS151DWO50Z3HQJIOVCZ7DCIGGG","A1XQOZV8LQDM22","3TZDZ3Y0JSSRVQSC3SM97PDQ3Z7196","","null","<img src=""img/food1.png"" style=""width:200px; border:14px solid green;"">","null","","","","","",""
"","image-keyboard-response","361","246679","0.0-361.0","3FIUS151DWO50Z3HQJIOVCZ7DCIGGG","A1XQOZV8LQDM22","3TZDZ3Y0JSSRVQSC3SM97PDQ3Z7196","","851.7999999998137","img/food8.png","76","857.3000000007451","2","1","3","0.8,0.2,0.8,0.2,0.2,0.8,0.2,0.8",""
"","html-keyboard-response","362","246989","0.0-362.0","3FIUS151DWO50Z3HQJIOVCZ7DCIGGG","A1XQOZV8LQDM22","3TZDZ3Y0JSSRVQSC3SM97PDQ3Z7196","","null","<img src=""img/food8.png"" style=""width:200px; border:14px solid green;"">","null","","","","","",""
"","image-keyboard-response","363","247702","0.0-363.0","3FIUS151DWO50Z3HQJIOVCZ7DCIGGG","A1XQOZV8LQDM22","3TZDZ3Y0JSSRVQSC3SM97PDQ3Z7196","","706","img/food2.png","75","710.5","1","1","1","0.8,0.2,0.8,0.2,0.2,0.8,0.2,0.8",""
"","html-keyboard-response","364","248013","0.0-364.0","3FIUS151DWO50Z3HQJIOVCZ7DCIGGG","A1XQOZV8LQDM22","3TZDZ3Y0JSSRVQSC3SM97PDQ3Z7196","","null","<img src=""img/food2.png"" style=""width:200px; border:14px solid green;"">","null","","","","","",""
"","image-keyboard-response","365","248556","0.0-365.0","3FIUS151DWO50Z3HQJIOVCZ7DCIGGG","A1XQOZV8LQDM22","3TZDZ3Y0JSSRVQSC3SM97PDQ3Z7196","","537.3999999994412","img/food2.png","75","542.3999999994412","1","1","1","0.8,0.2,0.8,0.2,0.2,0.8,0.2,0.8",""
"","html-keyboard-response","366","248869","0.0-366.0","3FIUS151DWO50Z3HQJIOVCZ7DCIGGG","A1XQOZV8LQDM22","3TZDZ3Y0JSSRVQSC3SM97PDQ3Z7196","","null","<img src=""img/food2.png"" style=""width:200px; border:14px solid green;"">","null","","","","","",""
"","image-keyboard-response","367","249683","0.0-367.0","3FIUS151DWO50Z3HQJIOVCZ7DCIGGG","A1XQOZV8LQDM22","3TZDZ3Y0JSSRVQSC3SM97PDQ3Z7196","","810.7999999998137","img/food8.png","76","813.3999999994412","2","1","3","0.8,0.2,0.8,0.2,0.2,0.8,0.2,0.8",""
"","html-keyboard-response","368","250035","0.0-368.0","3FIUS151DWO50Z3HQJIOVCZ7DCIGGG","A1XQOZV8LQDM22","3TZDZ3Y0JSSRVQSC3SM97PDQ3Z7196","","null","<img src=""img/food8.png"" style=""width:200px; border:14px solid green;"">","null","","","","","",""
"","image-keyboard-response","369","250681","0.0-369.0","3FIUS151DWO50Z3HQJIOVCZ7DCIGGG","A1XQOZV8LQDM22","3TZDZ3Y0JSSRVQSC3SM97PDQ3Z7196","","636.7000000001863","img/food7.png","76","645","2","0","2","0.8,0.2,0.8,0.2,0.2,0.8,0.2,0.8",""
"","html-keyboard-response","370","250989","0.0-370.0","3FIUS151DWO50Z3HQJIOVCZ7DCIGGG","A1XQOZV8LQDM22","3TZDZ3Y0JSSRVQSC3SM97PDQ3Z7196","","null","<img src=""img/food7.png"" style=""width:200px;border:14px solid red;"">","null","","","","","",""
"","image-keyboard-response","371","252211","0.0-371.0","3FIUS151DWO50Z3HQJIOVCZ7DCIGGG","A1XQOZV8LQDM22","3TZDZ3Y0JSSRVQSC3SM97PDQ3Z7196","","1215.2999999998137","img/food8.png","76","1220.4000000003725","2","1","3","0.8,0.2,0.8,0.2,0.2,0.8,0.2,0.8",""
"","html-keyboard-response","372","252562","0.0-372.0","3FIUS151DWO50Z3HQJIOVCZ7DCIGGG","A1XQOZV8LQDM22","3TZDZ3Y0JSSRVQSC3SM97PDQ3Z7196","","null","<img src=""img/food8.png"" style=""width:200px; border:14px solid green;"">","null","","","","","",""
"","image-keyboard-response","373","253364","0.0-373.0","3FIUS151DWO50Z3HQJIOVCZ7DCIGGG","A1XQOZV8LQDM22","3TZDZ3Y0JSSRVQSC3SM97PDQ3Z7196","","797.6999999992549","img/food7.png","75","801.7000000001863","1","1","2","0.8,0.2,0.8,0.2,0.2,0.8,0.2,0.8",""
"","html-keyboard-response","374","253680","0.0-374.0","3FIUS151DWO50Z3HQJIOVCZ7DCIGGG","A1XQOZV8LQDM22","3TZDZ3Y0JSSRVQSC3SM97PDQ3Z7196","","null","<img src=""img/food7.png"" style=""width:200px; border:14px solid green;"">","null","","","","","",""
"","image-keyboard-response","375","256281","0.0-375.0","3FIUS151DWO50Z3HQJIOVCZ7DCIGGG","A1XQOZV8LQDM22","3TZDZ3Y0JSSRVQSC3SM97PDQ3Z7196","","2594.2999999998137","img/food8.png","76","2599.5999999996275","2","1","3","0.8,0.2,0.8,0.2,0.2,0.8,0.2,0.8",""
"","html-keyboard-response","376","256589","0.0-376.0","3FIUS151DWO50Z3HQJIOVCZ7DCIGGG","A1XQOZV8LQDM22","3TZDZ3Y0JSSRVQSC3SM97PDQ3Z7196","","null","<img src=""img/food8.png"" style=""width:200px; border:14px solid green;"">","null","","","","","",""
"","image-keyboard-response","377","257418","0.0-377.0","3FIUS151DWO50Z3HQJIOVCZ7DCIGGG","A1XQOZV8LQDM22","3TZDZ3Y0JSSRVQSC3SM97PDQ3Z7196","","822.3999999994412","img/food1.png","76","827.6999999992549","2","1","4","0.8,0.2,0.8,0.2,0.2,0.8,0.2,0.8",""
"","html-keyboard-response","378","257732","0.0-378.0","3FIUS151DWO50Z3HQJIOVCZ7DCIGGG","A1XQOZV8LQDM22","3TZDZ3Y0JSSRVQSC3SM97PDQ3Z7196","","null","<img src=""img/food1.png"" style=""width:200px; border:14px solid green;"">","null","","","","","",""
"","image-keyboard-response","379","258316","0.0-379.0","3FIUS151DWO50Z3HQJIOVCZ7DCIGGG","A1XQOZV8LQDM22","3TZDZ3Y0JSSRVQSC3SM97PDQ3Z7196","","580.2000000001863","img/food7.png","75","584","1","1","2","0.8,0.2,0.8,0.2,0.2,0.8,0.2,0.8",""
"","html-keyboard-response","380","258644","0.0-380.0","3FIUS151DWO50Z3HQJIOVCZ7DCIGGG","A1XQOZV8LQDM22","3TZDZ3Y0JSSRVQSC3SM97PDQ3Z7196","","null","<img src=""img/food7.png"" style=""width:200px; border:14px solid green;"">","null","","","","","",""
"","image-keyboard-response","381","259119","0.0-381.0","3FIUS151DWO50Z3HQJIOVCZ7DCIGGG","A1XQOZV8LQDM22","3TZDZ3Y0JSSRVQSC3SM97PDQ3Z7196","","468.5","img/food2.png","75","473.1000000005588","1","1","1","0.8,0.2,0.8,0.2,0.2,0.8,0.2,0.8",""
"","html-keyboard-response","382","259429","0.0-382.0","3FIUS151DWO50Z3HQJIOVCZ7DCIGGG","A1XQOZV8LQDM22","3TZDZ3Y0JSSRVQSC3SM97PDQ3Z7196","","null","<img src=""img/food2.png"" style=""width:200px; border:14px solid green;"">","null","","","","","",""
"","image-keyboard-response","383","260458","0.0-383.0","3FIUS151DWO50Z3HQJIOVCZ7DCIGGG","A1XQOZV8LQDM22","3TZDZ3Y0JSSRVQSC3SM97PDQ3Z7196","","1023.3000000007451","img/food1.png","76","1028","2","1","4","0.8,0.2,0.8,0.2,0.2,0.8,0.2,0.8",""
"","html-keyboard-response","384","260765","0.0-384.0","3FIUS151DWO50Z3HQJIOVCZ7DCIGGG","A1XQOZV8LQDM22","3TZDZ3Y0JSSRVQSC3SM97PDQ3Z7196","","null","<img src=""img/food1.png"" style=""width:200px; border:14px solid green;"">","null","","","","","",""
"","image-keyboard-response","385","261542","0.0-385.0","3FIUS151DWO50Z3HQJIOVCZ7DCIGGG","A1XQOZV8LQDM22","3TZDZ3Y0JSSRVQSC3SM97PDQ3Z7196","","771.7999999998137","img/food1.png","76","775.7999999998137","2","1","4","0.8,0.2,0.8,0.2,0.2,0.8,0.2,0.8",""
"","html-keyboard-response","386","261854","0.0-386.0","3FIUS151DWO50Z3HQJIOVCZ7DCIGGG","A1XQOZV8LQDM22","3TZDZ3Y0JSSRVQSC3SM97PDQ3Z7196","","null","<img src=""img/food1.png"" style=""width:200px; border:14px solid green;"">","null","","","","","",""
"","image-keyboard-response","387","262542","0.0-387.0","3FIUS151DWO50Z3HQJIOVCZ7DCIGGG","A1XQOZV8LQDM22","3TZDZ3Y0JSSRVQSC3SM97PDQ3Z7196","","682","img/food8.png","76","687.2999999998137","2","1","3","0.8,0.2,0.8,0.2,0.2,0.8,0.2,0.8",""
"","html-keyboard-response","388","262852","0.0-388.0","3FIUS151DWO50Z3HQJIOVCZ7DCIGGG","A1XQOZV8LQDM22","3TZDZ3Y0JSSRVQSC3SM97PDQ3Z7196","","null","<img src=""img/food8.png"" style=""width:200px; border:14px solid green;"">","null","","","","","",""
"","image-keyboard-response","389","263462","0.0-389.0","3FIUS151DWO50Z3HQJIOVCZ7DCIGGG","A1XQOZV8LQDM22","3TZDZ3Y0JSSRVQSC3SM97PDQ3Z7196","","606.2999999998137","img/food8.png","76","609.9000000003725","2","1","3","0.8,0.2,0.8,0.2,0.2,0.8,0.2,0.8",""
"","html-keyboard-response","390","263881","0.0-390.0","3FIUS151DWO50Z3HQJIOVCZ7DCIGGG","A1XQOZV8LQDM22","3TZDZ3Y0JSSRVQSC3SM97PDQ3Z7196","","null","<img src=""img/food8.png"" style=""width:200px; border:14px solid green;"">","null","","","","","",""
"","image-keyboard-response","391","264822","0.0-391.0","3FIUS151DWO50Z3HQJIOVCZ7DCIGGG","A1XQOZV8LQDM22","3TZDZ3Y0JSSRVQSC3SM97PDQ3Z7196","","901","img/food1.png","76","904.6999999992549","2","1","4","0.8,0.2,0.8,0.2,0.2,0.8,0.2,0.8",""
"","html-keyboard-response","392","265151","0.0-392.0","3FIUS151DWO50Z3HQJIOVCZ7DCIGGG","A1XQOZV8LQDM22","3TZDZ3Y0JSSRVQSC3SM97PDQ3Z7196","","null","<img src=""img/food1.png"" style=""width:200px; border:14px solid green;"">","null","","","","","",""
"","image-keyboard-response","393","265980","0.0-393.0","3FIUS151DWO50Z3HQJIOVCZ7DCIGGG","A1XQOZV8LQDM22","3TZDZ3Y0JSSRVQSC3SM97PDQ3Z7196","","825.2999999998137","img/food7.png","75","829.1000000005588","1","1","2","0.8,0.2,0.8,0.2,0.2,0.8,0.2,0.8",""
"","html-keyboard-response","394","266312","0.0-394.0","3FIUS151DWO50Z3HQJIOVCZ7DCIGGG","A1XQOZV8LQDM22","3TZDZ3Y0JSSRVQSC3SM97PDQ3Z7196","","null","<img src=""img/food7.png"" style=""width:200px; border:14px solid green;"">","null","","","","","",""
"","image-keyboard-response","395","267092","0.0-395.0","3FIUS151DWO50Z3HQJIOVCZ7DCIGGG","A1XQOZV8LQDM22","3TZDZ3Y0JSSRVQSC3SM97PDQ3Z7196","","775","img/food1.png","76","778.9000000003725","2","1","4","0.8,0.2,0.8,0.2,0.2,0.8,0.2,0.8",""
"","html-keyboard-response","396","267411","0.0-396.0","3FIUS151DWO50Z3HQJIOVCZ7DCIGGG","A1XQOZV8LQDM22","3TZDZ3Y0JSSRVQSC3SM97PDQ3Z7196","","null","<img src=""img/food1.png"" style=""width:200px; border:14px solid green;"">","null","","","","","",""
"","image-keyboard-response","397","268297","0.0-397.0","3FIUS151DWO50Z3HQJIOVCZ7DCIGGG","A1XQOZV8LQDM22","3TZDZ3Y0JSSRVQSC3SM97PDQ3Z7196","","875.5","img/food2.png","75","880.8999999994412","1","1","1","0.8,0.2,0.8,0.2,0.2,0.8,0.2,0.8",""
"","html-keyboard-response","398","268605","0.0-398.0","3FIUS151DWO50Z3HQJIOVCZ7DCIGGG","A1XQOZV8LQDM22","3TZDZ3Y0JSSRVQSC3SM97PDQ3Z7196","","null","<img src=""img/food2.png"" style=""width:200px; border:14px solid green;"">","null","","","","","",""
"","image-keyboard-response","399","269663","0.0-399.0","3FIUS151DWO50Z3HQJIOVCZ7DCIGGG","A1XQOZV8LQDM22","3TZDZ3Y0JSSRVQSC3SM97PDQ3Z7196","","1052.3999999994412","img/food1.png","76","1057.6000000005588","2","0","4","0.8,0.2,0.8,0.2,0.2,0.8,0.2,0.8",""
"","html-keyboard-response","400","269990","0.0-400.0","3FIUS151DWO50Z3HQJIOVCZ7DCIGGG","A1XQOZV8LQDM22","3TZDZ3Y0JSSRVQSC3SM97PDQ3Z7196","","null","<img src=""img/food1.png"" style=""width:200px;border:14px solid red;"">","null","","","","","",""
