"success","trial_type","trial_index","time_elapsed","internal_node_id","assignmentID","mturkID","hitID","view_history","rt","stimulus","key_press","reactionTime","a","r","s","cond","reward_cond","reward_cond_actual","reward_matrix_idx","warning","responses"
"true","fullscreen","0","2246","0.0-0.0","3RUIQRXJBCA18JVJC1CKLW9N9PFLLK","A1YDQJXMEUVSY7","3P7RGTLO6EZ76AO3386R8ZK9IWWKAW","","","","","","","","","","","","","",""
"","instructions","1","29105","0.0-1.0","3RUIQRXJBCA18JVJC1CKLW9N9PFLLK","A1YDQJXMEUVSY7","3P7RGTLO6EZ76AO3386R8ZK9IWWKAW","[{""page_index"":0,""viewing_time"":1349.2999999970198},{""page_index"":1,""viewing_time"":2376.7999999970198},{""page_index"":2,""viewing_time"":3267},{""page_index"":3,""viewing_time"":4339},{""page_index"":4,""viewing_time"":2379},{""page_index"":5,""viewing_time"":12149.90000000596},{""page_index"":6,""viewing_time"":993.1999999880791}]","26854.59999999404","","","","","","","","","","","",""
"","image-keyboard-response","2","29751","0.0-2.0","3RUIQRXJBCA18JVJC1CKLW9N9PFLLK","A1YDQJXMEUVSY7","3P7RGTLO6EZ76AO3386R8ZK9IWWKAW","","644.4000000059605","img/food5.png","76","646.5","3","0","2","1","1,0.5,0,1,0.5,0,0.5,0,1","1,0.5,0,1,0.5,0,0.5,0,1","1","",""
"","html-keyboard-response","3","30057","0.0-3.0","3RUIQRXJBCA18JVJC1CKLW9N9PFLLK","A1YDQJXMEUVSY7","3P7RGTLO6EZ76AO3386R8ZK9IWWKAW","","null","<img src=""img/food5.png"" style=""width:200px;border:14px solid red;"">","null","","","","","","","","","",""
"","image-keyboard-response","4","30966","0.0-4.0","3RUIQRXJBCA18JVJC1CKLW9N9PFLLK","A1YDQJXMEUVSY7","3P7RGTLO6EZ76AO3386R8ZK9IWWKAW","","907","img/food1.png","76","908.9000000059605","3","1","3","1","1,0.5,0,1,0.5,0,0.5,0,1","1,0.5,0,1,0.5,0,0.5,0,1","1","",""
"","html-keyboard-response","5","31269","0.0-5.0","3RUIQRXJBCA18JVJC1CKLW9N9PFLLK","A1YDQJXMEUVSY7","3P7RGTLO6EZ76AO3386R8ZK9IWWKAW","","null","<img src=""img/food1.png"" style=""width:200px; border:14px solid green;"">","null","","","","","","","","","",""
"","image-keyboard-response","6","32078","0.0-6.0","3RUIQRXJBCA18JVJC1CKLW9N9PFLLK","A1YDQJXMEUVSY7","3P7RGTLO6EZ76AO3386R8ZK9IWWKAW","","807","img/food3.png","75","808.8000000119209","2","0","1","1","1,0.5,0,1,0.5,0,0.5,0,1","1,0.5,0,1,0.5,0,0.5,0,1","1","",""
"","html-keyboard-response","7","32381","0.0-7.0","3RUIQRXJBCA18JVJC1CKLW9N9PFLLK","A1YDQJXMEUVSY7","3P7RGTLO6EZ76AO3386R8ZK9IWWKAW","","null","<img src=""img/food3.png"" style=""width:200px;border:14px solid red;"">","null","","","","","","","","","",""
"","image-keyboard-response","8","32998","0.0-8.0","3RUIQRXJBCA18JVJC1CKLW9N9PFLLK","A1YDQJXMEUVSY7","3P7RGTLO6EZ76AO3386R8ZK9IWWKAW","","614.4000000059605","img/food5.png","76","616.1000000089407","3","0","2","1","1,0.5,0,1,0.5,0,0.5,0,1","1,0.5,0,1,0.5,0,0.5,0,1","1","",""
"","html-keyboard-response","9","33301","0.0-9.0","3RUIQRXJBCA18JVJC1CKLW9N9PFLLK","A1YDQJXMEUVSY7","3P7RGTLO6EZ76AO3386R8ZK9IWWKAW","","null","<img src=""img/food5.png"" style=""width:200px;border:14px solid red;"">","null","","","","","","","","","",""
"","image-keyboard-response","10","34126","0.0-10.0","3RUIQRXJBCA18JVJC1CKLW9N9PFLLK","A1YDQJXMEUVSY7","3P7RGTLO6EZ76AO3386R8ZK9IWWKAW","","822.7999999970198","img/food5.png","75","824.5999999940395","2","1","2","1","1,0.5,0,1,0.5,0,0.5,0,1","1,0.5,0,1,0.5,0,0.5,0,1","1","",""
"","html-keyboard-response","11","34429","0.0-11.0","3RUIQRXJBCA18JVJC1CKLW9N9PFLLK","A1YDQJXMEUVSY7","3P7RGTLO6EZ76AO3386R8ZK9IWWKAW","","null","<img src=""img/food5.png"" style=""width:200px; border:14px solid green;"">","null","","","","","","","","","",""
"","image-keyboard-response","12","35422","0.0-12.0","3RUIQRXJBCA18JVJC1CKLW9N9PFLLK","A1YDQJXMEUVSY7","3P7RGTLO6EZ76AO3386R8ZK9IWWKAW","","991.2999999970198","img/food3.png","74","992.9000000059605","1","1","1","1","1,0.5,0,1,0.5,0,0.5,0,1","1,0.5,0,1,0.5,0,0.5,0,1","1","",""
"","html-keyboard-response","13","35725","0.0-13.0","3RUIQRXJBCA18JVJC1CKLW9N9PFLLK","A1YDQJXMEUVSY7","3P7RGTLO6EZ76AO3386R8ZK9IWWKAW","","null","<img src=""img/food3.png"" style=""width:200px; border:14px solid green;"">","null","","","","","","","","","",""
"","image-keyboard-response","14","36446","0.0-14.0","3RUIQRXJBCA18JVJC1CKLW9N9PFLLK","A1YDQJXMEUVSY7","3P7RGTLO6EZ76AO3386R8ZK9IWWKAW","","719.2999999970198","img/food1.png","75","720.9000000059605","2","0","3","1","1,0.5,0,1,0.5,0,0.5,0,1","1,0.5,0,1,0.5,0,0.5,0,1","1","",""
"","html-keyboard-response","15","36749","0.0-15.0","3RUIQRXJBCA18JVJC1CKLW9N9PFLLK","A1YDQJXMEUVSY7","3P7RGTLO6EZ76AO3386R8ZK9IWWKAW","","null","<img src=""img/food1.png"" style=""width:200px;border:14px solid red;"">","null","","","","","","","","","",""
"","image-keyboard-response","16","37462","0.0-16.0","3RUIQRXJBCA18JVJC1CKLW9N9PFLLK","A1YDQJXMEUVSY7","3P7RGTLO6EZ76AO3386R8ZK9IWWKAW","","710","img/food3.png","74","712","1","1","1","1","1,0.5,0,1,0.5,0,0.5,0,1","1,0.5,0,1,0.5,0,0.5,0,1","1","",""
"","html-keyboard-response","17","37764","0.0-17.0","3RUIQRXJBCA18JVJC1CKLW9N9PFLLK","A1YDQJXMEUVSY7","3P7RGTLO6EZ76AO3386R8ZK9IWWKAW","","null","<img src=""img/food3.png"" style=""width:200px; border:14px solid green;"">","null","","","","","","","","","",""
"","image-keyboard-response","18","38286","0.0-18.0","3RUIQRXJBCA18JVJC1CKLW9N9PFLLK","A1YDQJXMEUVSY7","3P7RGTLO6EZ76AO3386R8ZK9IWWKAW","","519.7000000029802","img/food5.png","76","521.3999999910593","3","0","2","1","1,0.5,0,1,0.5,0,0.5,0,1","1,0.5,0,1,0.5,0,0.5,0,1","1","",""
"","html-keyboard-response","19","38588","0.0-19.0","3RUIQRXJBCA18JVJC1CKLW9N9PFLLK","A1YDQJXMEUVSY7","3P7RGTLO6EZ76AO3386R8ZK9IWWKAW","","null","<img src=""img/food5.png"" style=""width:200px;border:14px solid red;"">","null","","","","","","","","","",""
"","image-keyboard-response","20","39262","0.0-20.0","3RUIQRXJBCA18JVJC1CKLW9N9PFLLK","A1YDQJXMEUVSY7","3P7RGTLO6EZ76AO3386R8ZK9IWWKAW","","671.2000000029802","img/food3.png","74","672.9000000059605","1","1","1","1","1,0.5,0,1,0.5,0,0.5,0,1","1,0.5,0,1,0.5,0,0.5,0,1","1","",""
"","html-keyboard-response","21","39565","0.0-21.0","3RUIQRXJBCA18JVJC1CKLW9N9PFLLK","A1YDQJXMEUVSY7","3P7RGTLO6EZ76AO3386R8ZK9IWWKAW","","null","<img src=""img/food3.png"" style=""width:200px; border:14px solid green;"">","null","","","","","","","","","",""
"","image-keyboard-response","22","40054","0.0-22.0","3RUIQRXJBCA18JVJC1CKLW9N9PFLLK","A1YDQJXMEUVSY7","3P7RGTLO6EZ76AO3386R8ZK9IWWKAW","","486.90000000596046","img/food3.png","74","488.6000000089407","1","1","1","1","1,0.5,0,1,0.5,0,0.5,0,1","1,0.5,0,1,0.5,0,0.5,0,1","1","",""
"","html-keyboard-response","23","40356","0.0-23.0","3RUIQRXJBCA18JVJC1CKLW9N9PFLLK","A1YDQJXMEUVSY7","3P7RGTLO6EZ76AO3386R8ZK9IWWKAW","","null","<img src=""img/food3.png"" style=""width:200px; border:14px solid green;"">","null","","","","","","","","","",""
"","image-keyboard-response","24","40982","0.0-24.0","3RUIQRXJBCA18JVJC1CKLW9N9PFLLK","A1YDQJXMEUVSY7","3P7RGTLO6EZ76AO3386R8ZK9IWWKAW","","623.5","img/food1.png","75","625.1000000089407","2","0","3","1","1,0.5,0,1,0.5,0,0.5,0,1","1,0.5,0,1,0.5,0,0.5,0,1","1","",""
"","html-keyboard-response","25","41285","0.0-25.0","3RUIQRXJBCA18JVJC1CKLW9N9PFLLK","A1YDQJXMEUVSY7","3P7RGTLO6EZ76AO3386R8ZK9IWWKAW","","null","<img src=""img/food1.png"" style=""width:200px;border:14px solid red;"">","null","","","","","","","","","",""
"","image-keyboard-response","26","41790","0.0-26.0","3RUIQRXJBCA18JVJC1CKLW9N9PFLLK","A1YDQJXMEUVSY7","3P7RGTLO6EZ76AO3386R8ZK9IWWKAW","","503","img/food3.png","74","504.79999999701977","1","1","1","1","1,0.5,0,1,0.5,0,0.5,0,1","1,0.5,0,1,0.5,0,0.5,0,1","1","",""
"","html-keyboard-response","27","42093","0.0-27.0","3RUIQRXJBCA18JVJC1CKLW9N9PFLLK","A1YDQJXMEUVSY7","3P7RGTLO6EZ76AO3386R8ZK9IWWKAW","","null","<img src=""img/food3.png"" style=""width:200px; border:14px solid green;"">","null","","","","","","","","","",""
"","image-keyboard-response","28","42646","0.0-28.0","3RUIQRXJBCA18JVJC1CKLW9N9PFLLK","A1YDQJXMEUVSY7","3P7RGTLO6EZ76AO3386R8ZK9IWWKAW","","551.5","img/food1.png","76","552.7999999970198","3","1","3","1","1,0.5,0,1,0.5,0,0.5,0,1","1,0.5,0,1,0.5,0,0.5,0,1","1","",""
"","html-keyboard-response","29","42948","0.0-29.0","3RUIQRXJBCA18JVJC1CKLW9N9PFLLK","A1YDQJXMEUVSY7","3P7RGTLO6EZ76AO3386R8ZK9IWWKAW","","null","<img src=""img/food1.png"" style=""width:200px; border:14px solid green;"">","null","","","","","","","","","",""
"","image-keyboard-response","30","43878","0.0-30.0","3RUIQRXJBCA18JVJC1CKLW9N9PFLLK","A1YDQJXMEUVSY7","3P7RGTLO6EZ76AO3386R8ZK9IWWKAW","","928.5","img/food5.png","75","929.6000000089407","2","0","2","1","1,0.5,0,1,0.5,0,0.5,0,1","1,0.5,0,1,0.5,0,0.5,0,1","1","",""
"","html-keyboard-response","31","44180","0.0-31.0","3RUIQRXJBCA18JVJC1CKLW9N9PFLLK","A1YDQJXMEUVSY7","3P7RGTLO6EZ76AO3386R8ZK9IWWKAW","","null","<img src=""img/food5.png"" style=""width:200px;border:14px solid red;"">","null","","","","","","","","","",""
"","image-keyboard-response","32","44765","0.0-32.0","3RUIQRXJBCA18JVJC1CKLW9N9PFLLK","A1YDQJXMEUVSY7","3P7RGTLO6EZ76AO3386R8ZK9IWWKAW","","582.9000000059605","img/food5.png","76","584.2000000029802","3","0","2","1","1,0.5,0,1,0.5,0,0.5,0,1","1,0.5,0,1,0.5,0,0.5,0,1","1","",""
"","html-keyboard-response","33","45066","0.0-33.0","3RUIQRXJBCA18JVJC1CKLW9N9PFLLK","A1YDQJXMEUVSY7","3P7RGTLO6EZ76AO3386R8ZK9IWWKAW","","null","<img src=""img/food5.png"" style=""width:200px;border:14px solid red;"">","null","","","","","","","","","",""
"","image-keyboard-response","34","45462","0.0-34.0","3RUIQRXJBCA18JVJC1CKLW9N9PFLLK","A1YDQJXMEUVSY7","3P7RGTLO6EZ76AO3386R8ZK9IWWKAW","","394.09999999403954","img/food5.png","75","395.09999999403954","2","0","2","1","1,0.5,0,1,0.5,0,0.5,0,1","1,0.5,0,1,0.5,0,0.5,0,1","1","",""
"","html-keyboard-response","35","45765","0.0-35.0","3RUIQRXJBCA18JVJC1CKLW9N9PFLLK","A1YDQJXMEUVSY7","3P7RGTLO6EZ76AO3386R8ZK9IWWKAW","","null","<img src=""img/food5.png"" style=""width:200px;border:14px solid red;"">","null","","","","","","","","","",""
"","image-keyboard-response","36","46661","0.0-36.0","3RUIQRXJBCA18JVJC1CKLW9N9PFLLK","A1YDQJXMEUVSY7","3P7RGTLO6EZ76AO3386R8ZK9IWWKAW","","895.2999999970198","img/food1.png","76","896.2000000029802","3","1","3","1","1,0.5,0,1,0.5,0,0.5,0,1","1,0.5,0,1,0.5,0,0.5,0,1","1","",""
"","html-keyboard-response","37","46962","0.0-37.0","3RUIQRXJBCA18JVJC1CKLW9N9PFLLK","A1YDQJXMEUVSY7","3P7RGTLO6EZ76AO3386R8ZK9IWWKAW","","null","<img src=""img/food1.png"" style=""width:200px; border:14px solid green;"">","null","","","","","","","","","",""
"","image-keyboard-response","38","47342","0.0-38.0","3RUIQRXJBCA18JVJC1CKLW9N9PFLLK","A1YDQJXMEUVSY7","3P7RGTLO6EZ76AO3386R8ZK9IWWKAW","","377.40000000596046","img/food1.png","76","379","3","1","3","1","1,0.5,0,1,0.5,0,0.5,0,1","1,0.5,0,1,0.5,0,0.5,0,1","1","",""
"","html-keyboard-response","39","47645","0.0-39.0","3RUIQRXJBCA18JVJC1CKLW9N9PFLLK","A1YDQJXMEUVSY7","3P7RGTLO6EZ76AO3386R8ZK9IWWKAW","","null","<img src=""img/food1.png"" style=""width:200px; border:14px solid green;"">","null","","","","","","","","","",""
"","image-keyboard-response","40","48567","0.0-40.0","3RUIQRXJBCA18JVJC1CKLW9N9PFLLK","A1YDQJXMEUVSY7","3P7RGTLO6EZ76AO3386R8ZK9IWWKAW","","919.7999999970198","img/food5.png","74","921.4000000059605","1","1","2","1","1,0.5,0,1,0.5,0,0.5,0,1","1,0.5,0,1,0.5,0,0.5,0,1","1","",""
"","html-keyboard-response","41","48870","0.0-41.0","3RUIQRXJBCA18JVJC1CKLW9N9PFLLK","A1YDQJXMEUVSY7","3P7RGTLO6EZ76AO3386R8ZK9IWWKAW","","null","<img src=""img/food5.png"" style=""width:200px; border:14px solid green;"">","null","","","","","","","","","",""
"","image-keyboard-response","42","49405","0.0-42.0","3RUIQRXJBCA18JVJC1CKLW9N9PFLLK","A1YDQJXMEUVSY7","3P7RGTLO6EZ76AO3386R8ZK9IWWKAW","","533.8000000119209","img/food1.png","76","534.5","3","1","3","1","1,0.5,0,1,0.5,0,0.5,0,1","1,0.5,0,1,0.5,0,0.5,0,1","1","",""
"","html-keyboard-response","43","49708","0.0-43.0","3RUIQRXJBCA18JVJC1CKLW9N9PFLLK","A1YDQJXMEUVSY7","3P7RGTLO6EZ76AO3386R8ZK9IWWKAW","","null","<img src=""img/food1.png"" style=""width:200px; border:14px solid green;"">","null","","","","","","","","","",""
"","image-keyboard-response","44","50965","0.0-44.0","3RUIQRXJBCA18JVJC1CKLW9N9PFLLK","A1YDQJXMEUVSY7","3P7RGTLO6EZ76AO3386R8ZK9IWWKAW","","1256.8999999910593","img/food3.png","74","1257.9000000059605","1","1","1","1","1,0.5,0,1,0.5,0,0.5,0,1","1,0.5,0,1,0.5,0,0.5,0,1","1","",""
"","html-keyboard-response","45","51267","0.0-45.0","3RUIQRXJBCA18JVJC1CKLW9N9PFLLK","A1YDQJXMEUVSY7","3P7RGTLO6EZ76AO3386R8ZK9IWWKAW","","null","<img src=""img/food3.png"" style=""width:200px; border:14px solid green;"">","null","","","","","","","","","",""
"","image-keyboard-response","46","51781","0.0-46.0","3RUIQRXJBCA18JVJC1CKLW9N9PFLLK","A1YDQJXMEUVSY7","3P7RGTLO6EZ76AO3386R8ZK9IWWKAW","","512.7999999970198","img/food5.png","76","513.7000000029802","3","0","2","1","1,0.5,0,1,0.5,0,0.5,0,1","1,0.5,0,1,0.5,0,0.5,0,1","1","",""
"","html-keyboard-response","47","52083","0.0-47.0","3RUIQRXJBCA18JVJC1CKLW9N9PFLLK","A1YDQJXMEUVSY7","3P7RGTLO6EZ76AO3386R8ZK9IWWKAW","","null","<img src=""img/food5.png"" style=""width:200px;border:14px solid red;"">","null","","","","","","","","","",""
"","image-keyboard-response","48","52365","0.0-48.0","3RUIQRXJBCA18JVJC1CKLW9N9PFLLK","A1YDQJXMEUVSY7","3P7RGTLO6EZ76AO3386R8ZK9IWWKAW","","281.19999998807907","img/food5.png","74","282","1","1","2","1","1,0.5,0,1,0.5,0,0.5,0,1","1,0.5,0,1,0.5,0,0.5,0,1","1","",""
"","html-keyboard-response","49","52666","0.0-49.0","3RUIQRXJBCA18JVJC1CKLW9N9PFLLK","A1YDQJXMEUVSY7","3P7RGTLO6EZ76AO3386R8ZK9IWWKAW","","null","<img src=""img/food5.png"" style=""width:200px; border:14px solid green;"">","null","","","","","","","","","",""
"","image-keyboard-response","50","53246","0.0-50.0","3RUIQRXJBCA18JVJC1CKLW9N9PFLLK","A1YDQJXMEUVSY7","3P7RGTLO6EZ76AO3386R8ZK9IWWKAW","","577.3999999910593","img/food1.png","76","579","3","1","3","1","1,0.5,0,1,0.5,0,0.5,0,1","1,0.5,0,1,0.5,0,0.5,0,1","1","",""
"","html-keyboard-response","51","53549","0.0-51.0","3RUIQRXJBCA18JVJC1CKLW9N9PFLLK","A1YDQJXMEUVSY7","3P7RGTLO6EZ76AO3386R8ZK9IWWKAW","","null","<img src=""img/food1.png"" style=""width:200px; border:14px solid green;"">","null","","","","","","","","","",""
"","image-keyboard-response","52","53885","0.0-52.0","3RUIQRXJBCA18JVJC1CKLW9N9PFLLK","A1YDQJXMEUVSY7","3P7RGTLO6EZ76AO3386R8ZK9IWWKAW","","334.5","img/food1.png","76","335.90000000596046","3","1","3","1","1,0.5,0,1,0.5,0,0.5,0,1","1,0.5,0,1,0.5,0,0.5,0,1","1","",""
"","html-keyboard-response","53","54188","0.0-53.0","3RUIQRXJBCA18JVJC1CKLW9N9PFLLK","A1YDQJXMEUVSY7","3P7RGTLO6EZ76AO3386R8ZK9IWWKAW","","null","<img src=""img/food1.png"" style=""width:200px; border:14px solid green;"">","null","","","","","","","","","",""
"","image-keyboard-response","54","54590","0.0-54.0","3RUIQRXJBCA18JVJC1CKLW9N9PFLLK","A1YDQJXMEUVSY7","3P7RGTLO6EZ76AO3386R8ZK9IWWKAW","","399.5","img/food3.png","74","401","1","1","1","1","1,0.5,0,1,0.5,0,0.5,0,1","1,0.5,0,1,0.5,0,0.5,0,1","1","",""
"","html-keyboard-response","55","54893","0.0-55.0","3RUIQRXJBCA18JVJC1CKLW9N9PFLLK","A1YDQJXMEUVSY7","3P7RGTLO6EZ76AO3386R8ZK9IWWKAW","","null","<img src=""img/food3.png"" style=""width:200px; border:14px solid green;"">","null","","","","","","","","","",""
"","image-keyboard-response","56","55550","0.0-56.0","3RUIQRXJBCA18JVJC1CKLW9N9PFLLK","A1YDQJXMEUVSY7","3P7RGTLO6EZ76AO3386R8ZK9IWWKAW","","655.2999999970198","img/food1.png","76","656.9000000059605","3","1","3","1","1,0.5,0,1,0.5,0,0.5,0,1","1,0.5,0,1,0.5,0,0.5,0,1","1","",""
"","html-keyboard-response","57","55852","0.0-57.0","3RUIQRXJBCA18JVJC1CKLW9N9PFLLK","A1YDQJXMEUVSY7","3P7RGTLO6EZ76AO3386R8ZK9IWWKAW","","null","<img src=""img/food1.png"" style=""width:200px; border:14px solid green;"">","null","","","","","","","","","",""
"","image-keyboard-response","58","56190","0.0-58.0","3RUIQRXJBCA18JVJC1CKLW9N9PFLLK","A1YDQJXMEUVSY7","3P7RGTLO6EZ76AO3386R8ZK9IWWKAW","","335.59999999403954","img/food1.png","76","337.20000000298023","3","1","3","1","1,0.5,0,1,0.5,0,0.5,0,1","1,0.5,0,1,0.5,0,0.5,0,1","1","",""
"","html-keyboard-response","59","56493","0.0-59.0","3RUIQRXJBCA18JVJC1CKLW9N9PFLLK","A1YDQJXMEUVSY7","3P7RGTLO6EZ76AO3386R8ZK9IWWKAW","","null","<img src=""img/food1.png"" style=""width:200px; border:14px solid green;"">","null","","","","","","","","","",""
"","image-keyboard-response","60","56942","0.0-60.0","3RUIQRXJBCA18JVJC1CKLW9N9PFLLK","A1YDQJXMEUVSY7","3P7RGTLO6EZ76AO3386R8ZK9IWWKAW","","446.40000000596046","img/food5.png","74","448","1","1","2","1","1,0.5,0,1,0.5,0,0.5,0,1","1,0.5,0,1,0.5,0,0.5,0,1","1","",""
"","html-keyboard-response","61","57244","0.0-61.0","3RUIQRXJBCA18JVJC1CKLW9N9PFLLK","A1YDQJXMEUVSY7","3P7RGTLO6EZ76AO3386R8ZK9IWWKAW","","null","<img src=""img/food5.png"" style=""width:200px; border:14px solid green;"">","null","","","","","","","","","",""
"","image-keyboard-response","62","57710","0.0-62.0","3RUIQRXJBCA18JVJC1CKLW9N9PFLLK","A1YDQJXMEUVSY7","3P7RGTLO6EZ76AO3386R8ZK9IWWKAW","","463.5","img/food1.png","74","465.1000000089407","1","0","3","1","1,0.5,0,1,0.5,0,0.5,0,1","1,0.5,0,1,0.5,0,0.5,0,1","1","",""
"","html-keyboard-response","63","58012","0.0-63.0","3RUIQRXJBCA18JVJC1CKLW9N9PFLLK","A1YDQJXMEUVSY7","3P7RGTLO6EZ76AO3386R8ZK9IWWKAW","","null","<img src=""img/food1.png"" style=""width:200px;border:14px solid red;"">","null","","","","","","","","","",""
"","image-keyboard-response","64","58150","0.0-64.0","3RUIQRXJBCA18JVJC1CKLW9N9PFLLK","A1YDQJXMEUVSY7","3P7RGTLO6EZ76AO3386R8ZK9IWWKAW","","135.3999999910593","img/food1.png","76","137","3","1","3","1","1,0.5,0,1,0.5,0,0.5,0,1","1,0.5,0,1,0.5,0,0.5,0,1","1","",""
"","html-keyboard-response","65","58453","0.0-65.0","3RUIQRXJBCA18JVJC1CKLW9N9PFLLK","A1YDQJXMEUVSY7","3P7RGTLO6EZ76AO3386R8ZK9IWWKAW","","null","<img src=""img/food1.png"" style=""width:200px; border:14px solid green;"">","null","","","","","","","","","",""
"","image-keyboard-response","66","58734","0.0-66.0","3RUIQRXJBCA18JVJC1CKLW9N9PFLLK","A1YDQJXMEUVSY7","3P7RGTLO6EZ76AO3386R8ZK9IWWKAW","","279.70000000298023","img/food5.png","76","281.3999999910593","3","0","2","1","1,0.5,0,1,0.5,0,0.5,0,1","1,0.5,0,1,0.5,0,0.5,0,1","1","",""
"","html-keyboard-response","67","59037","0.0-67.0","3RUIQRXJBCA18JVJC1CKLW9N9PFLLK","A1YDQJXMEUVSY7","3P7RGTLO6EZ76AO3386R8ZK9IWWKAW","","null","<img src=""img/food5.png"" style=""width:200px;border:14px solid red;"">","null","","","","","","","","","",""
"","image-keyboard-response","68","59190","0.0-68.0","3RUIQRXJBCA18JVJC1CKLW9N9PFLLK","A1YDQJXMEUVSY7","3P7RGTLO6EZ76AO3386R8ZK9IWWKAW","","150.29999999701977","img/food1.png","74","152","1","0","3","1","1,0.5,0,1,0.5,0,0.5,0,1","1,0.5,0,1,0.5,0,0.5,0,1","1","",""
"","html-keyboard-response","69","59494","0.0-69.0","3RUIQRXJBCA18JVJC1CKLW9N9PFLLK","A1YDQJXMEUVSY7","3P7RGTLO6EZ76AO3386R8ZK9IWWKAW","","null","<img src=""img/food1.png"" style=""width:200px;border:14px solid red;"">","null","","","","","","","","","",""
"","image-keyboard-response","70","60078","0.0-70.0","3RUIQRXJBCA18JVJC1CKLW9N9PFLLK","A1YDQJXMEUVSY7","3P7RGTLO6EZ76AO3386R8ZK9IWWKAW","","582.0999999940395","img/food5.png","76","583.8999999910593","3","0","2","1","1,0.5,0,1,0.5,0,0.5,0,1","1,0.5,0,1,0.5,0,0.5,0,1","1","",""
"","html-keyboard-response","71","60380","0.0-71.0","3RUIQRXJBCA18JVJC1CKLW9N9PFLLK","A1YDQJXMEUVSY7","3P7RGTLO6EZ76AO3386R8ZK9IWWKAW","","null","<img src=""img/food5.png"" style=""width:200px;border:14px solid red;"">","null","","","","","","","","","",""
"","image-keyboard-response","72","60758","0.0-72.0","3RUIQRXJBCA18JVJC1CKLW9N9PFLLK","A1YDQJXMEUVSY7","3P7RGTLO6EZ76AO3386R8ZK9IWWKAW","","375.3999999910593","img/food5.png","74","377","1","1","2","1","1,0.5,0,1,0.5,0,0.5,0,1","1,0.5,0,1,0.5,0,0.5,0,1","1","",""
"","html-keyboard-response","73","61060","0.0-73.0","3RUIQRXJBCA18JVJC1CKLW9N9PFLLK","A1YDQJXMEUVSY7","3P7RGTLO6EZ76AO3386R8ZK9IWWKAW","","null","<img src=""img/food5.png"" style=""width:200px; border:14px solid green;"">","null","","","","","","","","","",""
"","image-keyboard-response","74","61862","0.0-74.0","3RUIQRXJBCA18JVJC1CKLW9N9PFLLK","A1YDQJXMEUVSY7","3P7RGTLO6EZ76AO3386R8ZK9IWWKAW","","799.5","img/food3.png","74","801","1","1","1","1","1,0.5,0,1,0.5,0,0.5,0,1","1,0.5,0,1,0.5,0,0.5,0,1","1","",""
"","html-keyboard-response","75","62165","0.0-75.0","3RUIQRXJBCA18JVJC1CKLW9N9PFLLK","A1YDQJXMEUVSY7","3P7RGTLO6EZ76AO3386R8ZK9IWWKAW","","null","<img src=""img/food3.png"" style=""width:200px; border:14px solid green;"">","null","","","","","","","","","",""
"","image-keyboard-response","76","62494","0.0-76.0","3RUIQRXJBCA18JVJC1CKLW9N9PFLLK","A1YDQJXMEUVSY7","3P7RGTLO6EZ76AO3386R8ZK9IWWKAW","","327.09999999403954","img/food3.png","74","328.79999999701977","1","1","1","1","1,0.5,0,1,0.5,0,0.5,0,1","1,0.5,0,1,0.5,0,0.5,0,1","1","",""
"","html-keyboard-response","77","62796","0.0-77.0","3RUIQRXJBCA18JVJC1CKLW9N9PFLLK","A1YDQJXMEUVSY7","3P7RGTLO6EZ76AO3386R8ZK9IWWKAW","","null","<img src=""img/food3.png"" style=""width:200px; border:14px solid green;"">","null","","","","","","","","","",""
"","image-keyboard-response","78","63614","0.0-78.0","3RUIQRXJBCA18JVJC1CKLW9N9PFLLK","A1YDQJXMEUVSY7","3P7RGTLO6EZ76AO3386R8ZK9IWWKAW","","816","img/food1.png","76","817.5999999940395","3","1","3","1","1,0.5,0,1,0.5,0,0.5,0,1","1,0.5,0,1,0.5,0,0.5,0,1","1","",""
"","html-keyboard-response","79","63917","0.0-79.0","3RUIQRXJBCA18JVJC1CKLW9N9PFLLK","A1YDQJXMEUVSY7","3P7RGTLO6EZ76AO3386R8ZK9IWWKAW","","null","<img src=""img/food1.png"" style=""width:200px; border:14px solid green;"">","null","","","","","","","","","",""
"","image-keyboard-response","80","64398","0.0-80.0","3RUIQRXJBCA18JVJC1CKLW9N9PFLLK","A1YDQJXMEUVSY7","3P7RGTLO6EZ76AO3386R8ZK9IWWKAW","","479.29999999701977","img/food5.png","74","480.90000000596046","1","1","2","1","1,0.5,0,1,0.5,0,0.5,0,1","1,0.5,0,1,0.5,0,0.5,0,1","1","",""
"","html-keyboard-response","81","64700","0.0-81.0","3RUIQRXJBCA18JVJC1CKLW9N9PFLLK","A1YDQJXMEUVSY7","3P7RGTLO6EZ76AO3386R8ZK9IWWKAW","","null","<img src=""img/food5.png"" style=""width:200px; border:14px solid green;"">","null","","","","","","","","","",""
"","image-keyboard-response","82","65037","0.0-82.0","3RUIQRXJBCA18JVJC1CKLW9N9PFLLK","A1YDQJXMEUVSY7","3P7RGTLO6EZ76AO3386R8ZK9IWWKAW","","335","img/food5.png","74","336.5","1","1","2","1","1,0.5,0,1,0.5,0,0.5,0,1","1,0.5,0,1,0.5,0,0.5,0,1","1","",""
"","html-keyboard-response","83","65339","0.0-83.0","3RUIQRXJBCA18JVJC1CKLW9N9PFLLK","A1YDQJXMEUVSY7","3P7RGTLO6EZ76AO3386R8ZK9IWWKAW","","null","<img src=""img/food5.png"" style=""width:200px; border:14px solid green;"">","null","","","","","","","","","",""
"","image-keyboard-response","84","65934","0.0-84.0","3RUIQRXJBCA18JVJC1CKLW9N9PFLLK","A1YDQJXMEUVSY7","3P7RGTLO6EZ76AO3386R8ZK9IWWKAW","","592.1999999880791","img/food3.png","76","593.9000000059605","3","0","1","1","1,0.5,0,1,0.5,0,0.5,0,1","1,0.5,0,1,0.5,0,0.5,0,1","1","",""
"","html-keyboard-response","85","66236","0.0-85.0","3RUIQRXJBCA18JVJC1CKLW9N9PFLLK","A1YDQJXMEUVSY7","3P7RGTLO6EZ76AO3386R8ZK9IWWKAW","","null","<img src=""img/food3.png"" style=""width:200px;border:14px solid red;"">","null","","","","","","","","","",""
"","image-keyboard-response","86","66830","0.0-86.0","3RUIQRXJBCA18JVJC1CKLW9N9PFLLK","A1YDQJXMEUVSY7","3P7RGTLO6EZ76AO3386R8ZK9IWWKAW","","591.7999999970198","img/food3.png","74","593.5","1","1","1","1","1,0.5,0,1,0.5,0,0.5,0,1","1,0.5,0,1,0.5,0,0.5,0,1","1","",""
"","html-keyboard-response","87","67133","0.0-87.0","3RUIQRXJBCA18JVJC1CKLW9N9PFLLK","A1YDQJXMEUVSY7","3P7RGTLO6EZ76AO3386R8ZK9IWWKAW","","null","<img src=""img/food3.png"" style=""width:200px; border:14px solid green;"">","null","","","","","","","","","",""
"","image-keyboard-response","88","67878","0.0-88.0","3RUIQRXJBCA18JVJC1CKLW9N9PFLLK","A1YDQJXMEUVSY7","3P7RGTLO6EZ76AO3386R8ZK9IWWKAW","","742.1999999880791","img/food1.png","76","744.1000000089407","3","1","3","1","1,0.5,0,1,0.5,0,0.5,0,1","1,0.5,0,1,0.5,0,0.5,0,1","1","",""
"","html-keyboard-response","89","68190","0.0-89.0","3RUIQRXJBCA18JVJC1CKLW9N9PFLLK","A1YDQJXMEUVSY7","3P7RGTLO6EZ76AO3386R8ZK9IWWKAW","","null","<img src=""img/food1.png"" style=""width:200px; border:14px solid green;"">","null","","","","","","","","","",""
"","image-keyboard-response","90","68510","0.0-90.0","3RUIQRXJBCA18JVJC1CKLW9N9PFLLK","A1YDQJXMEUVSY7","3P7RGTLO6EZ76AO3386R8ZK9IWWKAW","","317.79999999701977","img/food1.png","76","319.70000000298023","3","1","3","1","1,0.5,0,1,0.5,0,0.5,0,1","1,0.5,0,1,0.5,0,0.5,0,1","1","",""
"","html-keyboard-response","91","68814","0.0-91.0","3RUIQRXJBCA18JVJC1CKLW9N9PFLLK","A1YDQJXMEUVSY7","3P7RGTLO6EZ76AO3386R8ZK9IWWKAW","","null","<img src=""img/food1.png"" style=""width:200px; border:14px solid green;"">","null","","","","","","","","","",""
"","image-keyboard-response","92","69166","0.0-92.0","3RUIQRXJBCA18JVJC1CKLW9N9PFLLK","A1YDQJXMEUVSY7","3P7RGTLO6EZ76AO3386R8ZK9IWWKAW","","350.20000000298023","img/food1.png","76","351.79999999701977","3","1","3","1","1,0.5,0,1,0.5,0,0.5,0,1","1,0.5,0,1,0.5,0,0.5,0,1","1","",""
"","html-keyboard-response","93","69468","0.0-93.0","3RUIQRXJBCA18JVJC1CKLW9N9PFLLK","A1YDQJXMEUVSY7","3P7RGTLO6EZ76AO3386R8ZK9IWWKAW","","null","<img src=""img/food1.png"" style=""width:200px; border:14px solid green;"">","null","","","","","","","","","",""
"","image-keyboard-response","94","69824","0.0-94.0","3RUIQRXJBCA18JVJC1CKLW9N9PFLLK","A1YDQJXMEUVSY7","3P7RGTLO6EZ76AO3386R8ZK9IWWKAW","","353.5","img/food1.png","76","355.20000000298023","3","1","3","1","1,0.5,0,1,0.5,0,0.5,0,1","1,0.5,0,1,0.5,0,0.5,0,1","1","",""
"","html-keyboard-response","95","70127","0.0-95.0","3RUIQRXJBCA18JVJC1CKLW9N9PFLLK","A1YDQJXMEUVSY7","3P7RGTLO6EZ76AO3386R8ZK9IWWKAW","","null","<img src=""img/food1.png"" style=""width:200px; border:14px solid green;"">","null","","","","","","","","","",""
"","image-keyboard-response","96","70526","0.0-96.0","3RUIQRXJBCA18JVJC1CKLW9N9PFLLK","A1YDQJXMEUVSY7","3P7RGTLO6EZ76AO3386R8ZK9IWWKAW","","397","img/food5.png","74","398.70000000298023","1","1","2","1","1,0.5,0,1,0.5,0,0.5,0,1","1,0.5,0,1,0.5,0,0.5,0,1","1","",""
"","html-keyboard-response","97","70829","0.0-97.0","3RUIQRXJBCA18JVJC1CKLW9N9PFLLK","A1YDQJXMEUVSY7","3P7RGTLO6EZ76AO3386R8ZK9IWWKAW","","null","<img src=""img/food5.png"" style=""width:200px; border:14px solid green;"">","null","","","","","","","","","",""
"","image-keyboard-response","98","71134","0.0-98.0","3RUIQRXJBCA18JVJC1CKLW9N9PFLLK","A1YDQJXMEUVSY7","3P7RGTLO6EZ76AO3386R8ZK9IWWKAW","","301.90000000596046","img/food5.png","74","303.6000000089407","1","1","2","1","1,0.5,0,1,0.5,0,0.5,0,1","1,0.5,0,1,0.5,0,0.5,0,1","1","",""
"","html-keyboard-response","99","71436","0.0-99.0","3RUIQRXJBCA18JVJC1CKLW9N9PFLLK","A1YDQJXMEUVSY7","3P7RGTLO6EZ76AO3386R8ZK9IWWKAW","","null","<img src=""img/food5.png"" style=""width:200px; border:14px solid green;"">","null","","","","","","","","","",""
"","image-keyboard-response","100","71678","0.0-100.0","3RUIQRXJBCA18JVJC1CKLW9N9PFLLK","A1YDQJXMEUVSY7","3P7RGTLO6EZ76AO3386R8ZK9IWWKAW","","239.29999999701977","img/food1.png","74","241","1","1","3","1","1,0.5,0,1,0.5,0,0.5,0,1","1,0.5,0,1,0.5,0,0.5,0,1","1","",""
"","html-keyboard-response","101","71980","0.0-101.0","3RUIQRXJBCA18JVJC1CKLW9N9PFLLK","A1YDQJXMEUVSY7","3P7RGTLO6EZ76AO3386R8ZK9IWWKAW","","null","<img src=""img/food1.png"" style=""width:200px; border:14px solid green;"">","null","","","","","","","","","",""
"","image-keyboard-response","102","72181","0.0-102.0","3RUIQRXJBCA18JVJC1CKLW9N9PFLLK","A1YDQJXMEUVSY7","3P7RGTLO6EZ76AO3386R8ZK9IWWKAW","","199.70000000298023","img/food3.png","76","201","3","0","1","1","1,0.5,0,1,0.5,0,0.5,0,1","1,0.5,0,1,0.5,0,0.5,0,1","1","",""
"","html-keyboard-response","103","72483","0.0-103.0","3RUIQRXJBCA18JVJC1CKLW9N9PFLLK","A1YDQJXMEUVSY7","3P7RGTLO6EZ76AO3386R8ZK9IWWKAW","","null","<img src=""img/food3.png"" style=""width:200px;border:14px solid red;"">","null","","","","","","","","","",""
"","image-keyboard-response","104","73230","0.0-104.0","3RUIQRXJBCA18JVJC1CKLW9N9PFLLK","A1YDQJXMEUVSY7","3P7RGTLO6EZ76AO3386R8ZK9IWWKAW","","744.9000000059605","img/food5.png","74","746","1","1","2","1","1,0.5,0,1,0.5,0,0.5,0,1","1,0.5,0,1,0.5,0,0.5,0,1","1","",""
"","html-keyboard-response","105","73533","0.0-105.0","3RUIQRXJBCA18JVJC1CKLW9N9PFLLK","A1YDQJXMEUVSY7","3P7RGTLO6EZ76AO3386R8ZK9IWWKAW","","null","<img src=""img/food5.png"" style=""width:200px; border:14px solid green;"">","null","","","","","","","","","",""
"","image-keyboard-response","106","74239","0.0-106.0","3RUIQRXJBCA18JVJC1CKLW9N9PFLLK","A1YDQJXMEUVSY7","3P7RGTLO6EZ76AO3386R8ZK9IWWKAW","","705.1999999880791","img/food1.png","76","706","3","1","3","1","1,0.5,0,1,0.5,0,0.5,0,1","1,0.5,0,1,0.5,0,0.5,0,1","1","",""
"","html-keyboard-response","107","74542","0.0-107.0","3RUIQRXJBCA18JVJC1CKLW9N9PFLLK","A1YDQJXMEUVSY7","3P7RGTLO6EZ76AO3386R8ZK9IWWKAW","","null","<img src=""img/food1.png"" style=""width:200px; border:14px solid green;"">","null","","","","","","","","","",""
"","image-keyboard-response","108","74821","0.0-108.0","3RUIQRXJBCA18JVJC1CKLW9N9PFLLK","A1YDQJXMEUVSY7","3P7RGTLO6EZ76AO3386R8ZK9IWWKAW","","278.5","img/food1.png","76","279.29999999701977","3","1","3","1","1,0.5,0,1,0.5,0,0.5,0,1","1,0.5,0,1,0.5,0,0.5,0,1","1","",""
"","html-keyboard-response","109","75123","0.0-109.0","3RUIQRXJBCA18JVJC1CKLW9N9PFLLK","A1YDQJXMEUVSY7","3P7RGTLO6EZ76AO3386R8ZK9IWWKAW","","null","<img src=""img/food1.png"" style=""width:200px; border:14px solid green;"">","null","","","","","","","","","",""
"","image-keyboard-response","110","75406","0.0-110.0","3RUIQRXJBCA18JVJC1CKLW9N9PFLLK","A1YDQJXMEUVSY7","3P7RGTLO6EZ76AO3386R8ZK9IWWKAW","","280.5","img/food1.png","76","282","3","1","3","1","1,0.5,0,1,0.5,0,0.5,0,1","1,0.5,0,1,0.5,0,0.5,0,1","1","",""
"","html-keyboard-response","111","75708","0.0-111.0","3RUIQRXJBCA18JVJC1CKLW9N9PFLLK","A1YDQJXMEUVSY7","3P7RGTLO6EZ76AO3386R8ZK9IWWKAW","","null","<img src=""img/food1.png"" style=""width:200px; border:14px solid green;"">","null","","","","","","","","","",""
"","image-keyboard-response","112","76334","0.0-112.0","3RUIQRXJBCA18JVJC1CKLW9N9PFLLK","A1YDQJXMEUVSY7","3P7RGTLO6EZ76AO3386R8ZK9IWWKAW","","624.5999999940395","img/food5.png","74","625.6000000089407","1","1","2","1","1,0.5,0,1,0.5,0,0.5,0,1","1,0.5,0,1,0.5,0,0.5,0,1","1","",""
"","html-keyboard-response","113","76638","0.0-113.0","3RUIQRXJBCA18JVJC1CKLW9N9PFLLK","A1YDQJXMEUVSY7","3P7RGTLO6EZ76AO3386R8ZK9IWWKAW","","null","<img src=""img/food5.png"" style=""width:200px; border:14px solid green;"">","null","","","","","","","","","",""
"","image-keyboard-response","114","76918","0.0-114.0","3RUIQRXJBCA18JVJC1CKLW9N9PFLLK","A1YDQJXMEUVSY7","3P7RGTLO6EZ76AO3386R8ZK9IWWKAW","","279.20000000298023","img/food3.png","74","280.40000000596046","1","1","1","1","1,0.5,0,1,0.5,0,0.5,0,1","1,0.5,0,1,0.5,0,0.5,0,1","1","",""
"","html-keyboard-response","115","77220","0.0-115.0","3RUIQRXJBCA18JVJC1CKLW9N9PFLLK","A1YDQJXMEUVSY7","3P7RGTLO6EZ76AO3386R8ZK9IWWKAW","","null","<img src=""img/food3.png"" style=""width:200px; border:14px solid green;"">","null","","","","","","","","","",""
"","image-keyboard-response","116","77726","0.0-116.0","3RUIQRXJBCA18JVJC1CKLW9N9PFLLK","A1YDQJXMEUVSY7","3P7RGTLO6EZ76AO3386R8ZK9IWWKAW","","504","img/food5.png","74","505.29999999701977","1","1","2","1","1,0.5,0,1,0.5,0,0.5,0,1","1,0.5,0,1,0.5,0,0.5,0,1","1","",""
"","html-keyboard-response","117","78028","0.0-117.0","3RUIQRXJBCA18JVJC1CKLW9N9PFLLK","A1YDQJXMEUVSY7","3P7RGTLO6EZ76AO3386R8ZK9IWWKAW","","null","<img src=""img/food5.png"" style=""width:200px; border:14px solid green;"">","null","","","","","","","","","",""
"","image-keyboard-response","118","78334","0.0-118.0","3RUIQRXJBCA18JVJC1CKLW9N9PFLLK","A1YDQJXMEUVSY7","3P7RGTLO6EZ76AO3386R8ZK9IWWKAW","","303.29999999701977","img/food5.png","74","305.1000000089407","1","1","2","1","1,0.5,0,1,0.5,0,0.5,0,1","1,0.5,0,1,0.5,0,0.5,0,1","1","",""
"","html-keyboard-response","119","78637","0.0-119.0","3RUIQRXJBCA18JVJC1CKLW9N9PFLLK","A1YDQJXMEUVSY7","3P7RGTLO6EZ76AO3386R8ZK9IWWKAW","","null","<img src=""img/food5.png"" style=""width:200px; border:14px solid green;"">","null","","","","","","","","","",""
"","image-keyboard-response","120","79125","0.0-120.0","3RUIQRXJBCA18JVJC1CKLW9N9PFLLK","A1YDQJXMEUVSY7","3P7RGTLO6EZ76AO3386R8ZK9IWWKAW","","486.09999999403954","img/food1.png","76","487.3999999910593","3","1","3","1","1,0.5,0,1,0.5,0,0.5,0,1","1,0.5,0,1,0.5,0,0.5,0,1","1","",""
"","html-keyboard-response","121","79427","0.0-121.0","3RUIQRXJBCA18JVJC1CKLW9N9PFLLK","A1YDQJXMEUVSY7","3P7RGTLO6EZ76AO3386R8ZK9IWWKAW","","null","<img src=""img/food1.png"" style=""width:200px; border:14px solid green;"">","null","","","","","","","","","",""
"","image-keyboard-response","122","79806","0.0-122.0","3RUIQRXJBCA18JVJC1CKLW9N9PFLLK","A1YDQJXMEUVSY7","3P7RGTLO6EZ76AO3386R8ZK9IWWKAW","","377.19999998807907","img/food1.png","76","378","3","1","3","1","1,0.5,0,1,0.5,0,0.5,0,1","1,0.5,0,1,0.5,0,0.5,0,1","1","",""
"","html-keyboard-response","123","80108","0.0-123.0","3RUIQRXJBCA18JVJC1CKLW9N9PFLLK","A1YDQJXMEUVSY7","3P7RGTLO6EZ76AO3386R8ZK9IWWKAW","","null","<img src=""img/food1.png"" style=""width:200px; border:14px solid green;"">","null","","","","","","","","","",""
"","image-keyboard-response","124","80573","0.0-124.0","3RUIQRXJBCA18JVJC1CKLW9N9PFLLK","A1YDQJXMEUVSY7","3P7RGTLO6EZ76AO3386R8ZK9IWWKAW","","464.5","img/food3.png","74","465.20000000298023","1","1","1","1","1,0.5,0,1,0.5,0,0.5,0,1","1,0.5,0,1,0.5,0,0.5,0,1","1","",""
"","html-keyboard-response","125","80876","0.0-125.0","3RUIQRXJBCA18JVJC1CKLW9N9PFLLK","A1YDQJXMEUVSY7","3P7RGTLO6EZ76AO3386R8ZK9IWWKAW","","null","<img src=""img/food3.png"" style=""width:200px; border:14px solid green;"">","null","","","","","","","","","",""
"","image-keyboard-response","126","81198","0.0-126.0","3RUIQRXJBCA18JVJC1CKLW9N9PFLLK","A1YDQJXMEUVSY7","3P7RGTLO6EZ76AO3386R8ZK9IWWKAW","","321.19999998807907","img/food3.png","74","322.3999999910593","1","1","1","1","1,0.5,0,1,0.5,0,0.5,0,1","1,0.5,0,1,0.5,0,0.5,0,1","1","",""
"","html-keyboard-response","127","81501","0.0-127.0","3RUIQRXJBCA18JVJC1CKLW9N9PFLLK","A1YDQJXMEUVSY7","3P7RGTLO6EZ76AO3386R8ZK9IWWKAW","","null","<img src=""img/food3.png"" style=""width:200px; border:14px solid green;"">","null","","","","","","","","","",""
"","image-keyboard-response","128","81814","0.0-128.0","3RUIQRXJBCA18JVJC1CKLW9N9PFLLK","A1YDQJXMEUVSY7","3P7RGTLO6EZ76AO3386R8ZK9IWWKAW","","311.19999998807907","img/food3.png","74","312","1","1","1","1","1,0.5,0,1,0.5,0,0.5,0,1","1,0.5,0,1,0.5,0,0.5,0,1","1","",""
"","html-keyboard-response","129","82116","0.0-129.0","3RUIQRXJBCA18JVJC1CKLW9N9PFLLK","A1YDQJXMEUVSY7","3P7RGTLO6EZ76AO3386R8ZK9IWWKAW","","null","<img src=""img/food3.png"" style=""width:200px; border:14px solid green;"">","null","","","","","","","","","",""
"","image-keyboard-response","130","83134","0.0-130.0","3RUIQRXJBCA18JVJC1CKLW9N9PFLLK","A1YDQJXMEUVSY7","3P7RGTLO6EZ76AO3386R8ZK9IWWKAW","","1017.2999999970198","img/food5.png","74","1018.2999999970198","1","1","2","1","1,0.5,0,1,0.5,0,0.5,0,1","1,0.5,0,1,0.5,0,0.5,0,1","1","",""
"","html-keyboard-response","131","83437","0.0-131.0","3RUIQRXJBCA18JVJC1CKLW9N9PFLLK","A1YDQJXMEUVSY7","3P7RGTLO6EZ76AO3386R8ZK9IWWKAW","","null","<img src=""img/food5.png"" style=""width:200px; border:14px solid green;"">","null","","","","","","","","","",""
"","image-keyboard-response","132","83702","0.0-132.0","3RUIQRXJBCA18JVJC1CKLW9N9PFLLK","A1YDQJXMEUVSY7","3P7RGTLO6EZ76AO3386R8ZK9IWWKAW","","262.79999999701977","img/food3.png","74","264.40000000596046","1","1","1","1","1,0.5,0,1,0.5,0,0.5,0,1","1,0.5,0,1,0.5,0,0.5,0,1","1","",""
"","html-keyboard-response","133","84004","0.0-133.0","3RUIQRXJBCA18JVJC1CKLW9N9PFLLK","A1YDQJXMEUVSY7","3P7RGTLO6EZ76AO3386R8ZK9IWWKAW","","null","<img src=""img/food3.png"" style=""width:200px; border:14px solid green;"">","null","","","","","","","","","",""
"","image-keyboard-response","134","84414","0.0-134.0","3RUIQRXJBCA18JVJC1CKLW9N9PFLLK","A1YDQJXMEUVSY7","3P7RGTLO6EZ76AO3386R8ZK9IWWKAW","","408.3999999910593","img/food1.png","76","409.90000000596046","3","1","3","1","1,0.5,0,1,0.5,0,0.5,0,1","1,0.5,0,1,0.5,0,0.5,0,1","1","",""
"","html-keyboard-response","135","84717","0.0-135.0","3RUIQRXJBCA18JVJC1CKLW9N9PFLLK","A1YDQJXMEUVSY7","3P7RGTLO6EZ76AO3386R8ZK9IWWKAW","","null","<img src=""img/food1.png"" style=""width:200px; border:14px solid green;"">","null","","","","","","","","","",""
"","image-keyboard-response","136","85102","0.0-136.0","3RUIQRXJBCA18JVJC1CKLW9N9PFLLK","A1YDQJXMEUVSY7","3P7RGTLO6EZ76AO3386R8ZK9IWWKAW","","383","img/food3.png","74","384.29999999701977","1","1","1","1","1,0.5,0,1,0.5,0,0.5,0,1","1,0.5,0,1,0.5,0,0.5,0,1","1","",""
"","html-keyboard-response","137","85403","0.0-137.0","3RUIQRXJBCA18JVJC1CKLW9N9PFLLK","A1YDQJXMEUVSY7","3P7RGTLO6EZ76AO3386R8ZK9IWWKAW","","null","<img src=""img/food3.png"" style=""width:200px; border:14px solid green;"">","null","","","","","","","","","",""
"","image-keyboard-response","138","85678","0.0-138.0","3RUIQRXJBCA18JVJC1CKLW9N9PFLLK","A1YDQJXMEUVSY7","3P7RGTLO6EZ76AO3386R8ZK9IWWKAW","","272.79999999701977","img/food3.png","74","274.6000000089407","1","1","1","1","1,0.5,0,1,0.5,0,0.5,0,1","1,0.5,0,1,0.5,0,0.5,0,1","1","",""
"","html-keyboard-response","139","85981","0.0-139.0","3RUIQRXJBCA18JVJC1CKLW9N9PFLLK","A1YDQJXMEUVSY7","3P7RGTLO6EZ76AO3386R8ZK9IWWKAW","","null","<img src=""img/food3.png"" style=""width:200px; border:14px solid green;"">","null","","","","","","","","","",""
"","image-keyboard-response","140","86382","0.0-140.0","3RUIQRXJBCA18JVJC1CKLW9N9PFLLK","A1YDQJXMEUVSY7","3P7RGTLO6EZ76AO3386R8ZK9IWWKAW","","399.79999999701977","img/food5.png","74","401.29999999701977","1","1","2","1","1,0.5,0,1,0.5,0,0.5,0,1","1,0.5,0,1,0.5,0,0.5,0,1","1","",""
"","html-keyboard-response","141","86685","0.0-141.0","3RUIQRXJBCA18JVJC1CKLW9N9PFLLK","A1YDQJXMEUVSY7","3P7RGTLO6EZ76AO3386R8ZK9IWWKAW","","null","<img src=""img/food5.png"" style=""width:200px; border:14px solid green;"">","null","","","","","","","","","",""
"","image-keyboard-response","142","86974","0.0-142.0","3RUIQRXJBCA18JVJC1CKLW9N9PFLLK","A1YDQJXMEUVSY7","3P7RGTLO6EZ76AO3386R8ZK9IWWKAW","","287.29999999701977","img/food5.png","74","288.90000000596046","1","1","2","1","1,0.5,0,1,0.5,0,0.5,0,1","1,0.5,0,1,0.5,0,0.5,0,1","1","",""
"","html-keyboard-response","143","87277","0.0-143.0","3RUIQRXJBCA18JVJC1CKLW9N9PFLLK","A1YDQJXMEUVSY7","3P7RGTLO6EZ76AO3386R8ZK9IWWKAW","","null","<img src=""img/food5.png"" style=""width:200px; border:14px solid green;"">","null","","","","","","","","","",""
"","image-keyboard-response","144","87654","0.0-144.0","3RUIQRXJBCA18JVJC1CKLW9N9PFLLK","A1YDQJXMEUVSY7","3P7RGTLO6EZ76AO3386R8ZK9IWWKAW","","374.8999999910593","img/food3.png","74","376.59999999403954","1","1","1","1","1,0.5,0,1,0.5,0,0.5,0,1","1,0.5,0,1,0.5,0,0.5,0,1","1","",""
"","html-keyboard-response","145","87957","0.0-145.0","3RUIQRXJBCA18JVJC1CKLW9N9PFLLK","A1YDQJXMEUVSY7","3P7RGTLO6EZ76AO3386R8ZK9IWWKAW","","null","<img src=""img/food3.png"" style=""width:200px; border:14px solid green;"">","null","","","","","","","","","",""
"","image-keyboard-response","146","88230","0.0-146.0","3RUIQRXJBCA18JVJC1CKLW9N9PFLLK","A1YDQJXMEUVSY7","3P7RGTLO6EZ76AO3386R8ZK9IWWKAW","","271.29999999701977","img/food3.png","74","273","1","1","1","1","1,0.5,0,1,0.5,0,0.5,0,1","1,0.5,0,1,0.5,0,0.5,0,1","1","",""
"","html-keyboard-response","147","88533","0.0-147.0","3RUIQRXJBCA18JVJC1CKLW9N9PFLLK","A1YDQJXMEUVSY7","3P7RGTLO6EZ76AO3386R8ZK9IWWKAW","","null","<img src=""img/food3.png"" style=""width:200px; border:14px solid green;"">","null","","","","","","","","","",""
"","image-keyboard-response","148","88822","0.0-148.0","3RUIQRXJBCA18JVJC1CKLW9N9PFLLK","A1YDQJXMEUVSY7","3P7RGTLO6EZ76AO3386R8ZK9IWWKAW","","287.3999999910593","img/food3.png","74","289.5","1","1","1","1","1,0.5,0,1,0.5,0,0.5,0,1","1,0.5,0,1,0.5,0,0.5,0,1","1","",""
"","html-keyboard-response","149","89126","0.0-149.0","3RUIQRXJBCA18JVJC1CKLW9N9PFLLK","A1YDQJXMEUVSY7","3P7RGTLO6EZ76AO3386R8ZK9IWWKAW","","null","<img src=""img/food3.png"" style=""width:200px; border:14px solid green;"">","null","","","","","","","","","",""
"","image-keyboard-response","150","89438","0.0-150.0","3RUIQRXJBCA18JVJC1CKLW9N9PFLLK","A1YDQJXMEUVSY7","3P7RGTLO6EZ76AO3386R8ZK9IWWKAW","","310.59999999403954","img/food3.png","74","312","1","1","1","1","1,0.5,0,1,0.5,0,0.5,0,1","1,0.5,0,1,0.5,0,0.5,0,1","1","",""
"","html-keyboard-response","151","89742","0.0-151.0","3RUIQRXJBCA18JVJC1CKLW9N9PFLLK","A1YDQJXMEUVSY7","3P7RGTLO6EZ76AO3386R8ZK9IWWKAW","","null","<img src=""img/food3.png"" style=""width:200px; border:14px solid green;"">","null","","","","","","","","","",""
"","image-keyboard-response","152","90255","0.0-152.0","3RUIQRXJBCA18JVJC1CKLW9N9PFLLK","A1YDQJXMEUVSY7","3P7RGTLO6EZ76AO3386R8ZK9IWWKAW","","510.70000000298023","img/food1.png","76","512.3999999910593","3","1","3","1","1,0.5,0,1,0.5,0,0.5,0,1","1,0.5,0,1,0.5,0,0.5,0,1","1","",""
"","html-keyboard-response","153","90558","0.0-153.0","3RUIQRXJBCA18JVJC1CKLW9N9PFLLK","A1YDQJXMEUVSY7","3P7RGTLO6EZ76AO3386R8ZK9IWWKAW","","null","<img src=""img/food1.png"" style=""width:200px; border:14px solid green;"">","null","","","","","","","","","",""
"","image-keyboard-response","154","90902","0.0-154.0","3RUIQRXJBCA18JVJC1CKLW9N9PFLLK","A1YDQJXMEUVSY7","3P7RGTLO6EZ76AO3386R8ZK9IWWKAW","","343.29999999701977","img/food5.png","74","344.5","1","1","2","1","1,0.5,0,1,0.5,0,0.5,0,1","1,0.5,0,1,0.5,0,0.5,0,1","1","",""
"","html-keyboard-response","155","91205","0.0-155.0","3RUIQRXJBCA18JVJC1CKLW9N9PFLLK","A1YDQJXMEUVSY7","3P7RGTLO6EZ76AO3386R8ZK9IWWKAW","","null","<img src=""img/food5.png"" style=""width:200px; border:14px solid green;"">","null","","","","","","","","","",""
"","image-keyboard-response","156","91470","0.0-156.0","3RUIQRXJBCA18JVJC1CKLW9N9PFLLK","A1YDQJXMEUVSY7","3P7RGTLO6EZ76AO3386R8ZK9IWWKAW","","263.3999999910593","img/food3.png","74","265","1","1","1","1","1,0.5,0,1,0.5,0,0.5,0,1","1,0.5,0,1,0.5,0,0.5,0,1","1","",""
"","html-keyboard-response","157","91773","0.0-157.0","3RUIQRXJBCA18JVJC1CKLW9N9PFLLK","A1YDQJXMEUVSY7","3P7RGTLO6EZ76AO3386R8ZK9IWWKAW","","null","<img src=""img/food3.png"" style=""width:200px; border:14px solid green;"">","null","","","","","","","","","",""
"","image-keyboard-response","158","92102","0.0-158.0","3RUIQRXJBCA18JVJC1CKLW9N9PFLLK","A1YDQJXMEUVSY7","3P7RGTLO6EZ76AO3386R8ZK9IWWKAW","","327.69999998807907","img/food5.png","74","329.29999999701977","1","1","2","1","1,0.5,0,1,0.5,0,0.5,0,1","1,0.5,0,1,0.5,0,0.5,0,1","1","",""
"","html-keyboard-response","159","92405","0.0-159.0","3RUIQRXJBCA18JVJC1CKLW9N9PFLLK","A1YDQJXMEUVSY7","3P7RGTLO6EZ76AO3386R8ZK9IWWKAW","","null","<img src=""img/food5.png"" style=""width:200px; border:14px solid green;"">","null","","","","","","","","","",""
"","image-keyboard-response","160","92814","0.0-160.0","3RUIQRXJBCA18JVJC1CKLW9N9PFLLK","A1YDQJXMEUVSY7","3P7RGTLO6EZ76AO3386R8ZK9IWWKAW","","407.3999999910593","img/food1.png","76","408.79999999701977","3","1","3","1","1,0.5,0,1,0.5,0,0.5,0,1","1,0.5,0,1,0.5,0,0.5,0,1","1","",""
"","html-keyboard-response","161","93117","0.0-161.0","3RUIQRXJBCA18JVJC1CKLW9N9PFLLK","A1YDQJXMEUVSY7","3P7RGTLO6EZ76AO3386R8ZK9IWWKAW","","null","<img src=""img/food1.png"" style=""width:200px; border:14px solid green;"">","null","","","","","","","","","",""
"","image-keyboard-response","162","93255","0.0-162.0","3RUIQRXJBCA18JVJC1CKLW9N9PFLLK","A1YDQJXMEUVSY7","3P7RGTLO6EZ76AO3386R8ZK9IWWKAW","","136.09999999403954","img/food3.png","74","137.79999999701977","1","1","1","1","1,0.5,0,1,0.5,0,0.5,0,1","1,0.5,0,1,0.5,0,0.5,0,1","1","",""
"","html-keyboard-response","163","93557","0.0-163.0","3RUIQRXJBCA18JVJC1CKLW9N9PFLLK","A1YDQJXMEUVSY7","3P7RGTLO6EZ76AO3386R8ZK9IWWKAW","","null","<img src=""img/food3.png"" style=""width:200px; border:14px solid green;"">","null","","","","","","","","","",""
"","image-keyboard-response","164","93782","0.0-164.0","3RUIQRXJBCA18JVJC1CKLW9N9PFLLK","A1YDQJXMEUVSY7","3P7RGTLO6EZ76AO3386R8ZK9IWWKAW","","223.20000000298023","img/food5.png","74","224.69999998807907","1","1","2","1","1,0.5,0,1,0.5,0,0.5,0,1","1,0.5,0,1,0.5,0,0.5,0,1","1","",""
"","html-keyboard-response","165","94085","0.0-165.0","3RUIQRXJBCA18JVJC1CKLW9N9PFLLK","A1YDQJXMEUVSY7","3P7RGTLO6EZ76AO3386R8ZK9IWWKAW","","null","<img src=""img/food5.png"" style=""width:200px; border:14px solid green;"">","null","","","","","","","","","",""
"","image-keyboard-response","166","94366","0.0-166.0","3RUIQRXJBCA18JVJC1CKLW9N9PFLLK","A1YDQJXMEUVSY7","3P7RGTLO6EZ76AO3386R8ZK9IWWKAW","","279.29999999701977","img/food1.png","74","281","1","1","3","1","1,0.5,0,1,0.5,0,0.5,0,1","1,0.5,0,1,0.5,0,0.5,0,1","1","",""
"","html-keyboard-response","167","94669","0.0-167.0","3RUIQRXJBCA18JVJC1CKLW9N9PFLLK","A1YDQJXMEUVSY7","3P7RGTLO6EZ76AO3386R8ZK9IWWKAW","","null","<img src=""img/food1.png"" style=""width:200px; border:14px solid green;"">","null","","","","","","","","","",""
"","image-keyboard-response","168","95182","0.0-168.0","3RUIQRXJBCA18JVJC1CKLW9N9PFLLK","A1YDQJXMEUVSY7","3P7RGTLO6EZ76AO3386R8ZK9IWWKAW","","511.29999999701977","img/food5.png","74","513","1","1","2","1","1,0.5,0,1,0.5,0,0.5,0,1","1,0.5,0,1,0.5,0,0.5,0,1","1","",""
"","html-keyboard-response","169","95485","0.0-169.0","3RUIQRXJBCA18JVJC1CKLW9N9PFLLK","A1YDQJXMEUVSY7","3P7RGTLO6EZ76AO3386R8ZK9IWWKAW","","null","<img src=""img/food5.png"" style=""width:200px; border:14px solid green;"">","null","","","","","","","","","",""
"","image-keyboard-response","170","95790","0.0-170.0","3RUIQRXJBCA18JVJC1CKLW9N9PFLLK","A1YDQJXMEUVSY7","3P7RGTLO6EZ76AO3386R8ZK9IWWKAW","","303.40000000596046","img/food3.png","74","305.20000000298023","1","1","1","1","1,0.5,0,1,0.5,0,0.5,0,1","1,0.5,0,1,0.5,0,0.5,0,1","1","",""
"","html-keyboard-response","171","96093","0.0-171.0","3RUIQRXJBCA18JVJC1CKLW9N9PFLLK","A1YDQJXMEUVSY7","3P7RGTLO6EZ76AO3386R8ZK9IWWKAW","","null","<img src=""img/food3.png"" style=""width:200px; border:14px solid green;"">","null","","","","","","","","","",""
"","image-keyboard-response","172","96358","0.0-172.0","3RUIQRXJBCA18JVJC1CKLW9N9PFLLK","A1YDQJXMEUVSY7","3P7RGTLO6EZ76AO3386R8ZK9IWWKAW","","262.79999999701977","img/food3.png","74","264.29999999701977","1","1","1","1","1,0.5,0,1,0.5,0,0.5,0,1","1,0.5,0,1,0.5,0,0.5,0,1","1","",""
"","html-keyboard-response","173","96661","0.0-173.0","3RUIQRXJBCA18JVJC1CKLW9N9PFLLK","A1YDQJXMEUVSY7","3P7RGTLO6EZ76AO3386R8ZK9IWWKAW","","null","<img src=""img/food3.png"" style=""width:200px; border:14px solid green;"">","null","","","","","","","","","",""
"","image-keyboard-response","174","97134","0.0-174.0","3RUIQRXJBCA18JVJC1CKLW9N9PFLLK","A1YDQJXMEUVSY7","3P7RGTLO6EZ76AO3386R8ZK9IWWKAW","","471.29999999701977","img/food1.png","76","472.69999998807907","3","1","3","1","1,0.5,0,1,0.5,0,0.5,0,1","1,0.5,0,1,0.5,0,0.5,0,1","1","",""
"","html-keyboard-response","175","97436","0.0-175.0","3RUIQRXJBCA18JVJC1CKLW9N9PFLLK","A1YDQJXMEUVSY7","3P7RGTLO6EZ76AO3386R8ZK9IWWKAW","","null","<img src=""img/food1.png"" style=""width:200px; border:14px solid green;"">","null","","","","","","","","","",""
"","image-keyboard-response","176","97582","0.0-176.0","3RUIQRXJBCA18JVJC1CKLW9N9PFLLK","A1YDQJXMEUVSY7","3P7RGTLO6EZ76AO3386R8ZK9IWWKAW","","144.1000000089407","img/food5.png","74","145.69999998807907","1","1","2","1","1,0.5,0,1,0.5,0,0.5,0,1","1,0.5,0,1,0.5,0,0.5,0,1","1","",""
"","html-keyboard-response","177","97885","0.0-177.0","3RUIQRXJBCA18JVJC1CKLW9N9PFLLK","A1YDQJXMEUVSY7","3P7RGTLO6EZ76AO3386R8ZK9IWWKAW","","null","<img src=""img/food5.png"" style=""width:200px; border:14px solid green;"">","null","","","","","","","","","",""
"","image-keyboard-response","178","98158","0.0-178.0","3RUIQRXJBCA18JVJC1CKLW9N9PFLLK","A1YDQJXMEUVSY7","3P7RGTLO6EZ76AO3386R8ZK9IWWKAW","","271.59999999403954","img/food3.png","74","273.29999999701977","1","1","1","1","1,0.5,0,1,0.5,0,0.5,0,1","1,0.5,0,1,0.5,0,0.5,0,1","1","",""
"","html-keyboard-response","179","98461","0.0-179.0","3RUIQRXJBCA18JVJC1CKLW9N9PFLLK","A1YDQJXMEUVSY7","3P7RGTLO6EZ76AO3386R8ZK9IWWKAW","","null","<img src=""img/food3.png"" style=""width:200px; border:14px solid green;"">","null","","","","","","","","","",""
"","image-keyboard-response","180","98742","0.0-180.0","3RUIQRXJBCA18JVJC1CKLW9N9PFLLK","A1YDQJXMEUVSY7","3P7RGTLO6EZ76AO3386R8ZK9IWWKAW","","279.3999999910593","img/food3.png","74","281.29999999701977","1","1","1","1","1,0.5,0,1,0.5,0,0.5,0,1","1,0.5,0,1,0.5,0,0.5,0,1","1","",""
"","html-keyboard-response","181","99046","0.0-181.0","3RUIQRXJBCA18JVJC1CKLW9N9PFLLK","A1YDQJXMEUVSY7","3P7RGTLO6EZ76AO3386R8ZK9IWWKAW","","null","<img src=""img/food3.png"" style=""width:200px; border:14px solid green;"">","null","","","","","","","","","",""
"","html-keyboard-response","182","101392","0.0-182.0","3RUIQRXJBCA18JVJC1CKLW9N9PFLLK","A1YDQJXMEUVSY7","3P7RGTLO6EZ76AO3386R8ZK9IWWKAW","","","","","","","","","","","","","",""
"","instructions","183","106629","0.0-183.0","3RUIQRXJBCA18JVJC1CKLW9N9PFLLK","A1YDQJXMEUVSY7","3P7RGTLO6EZ76AO3386R8ZK9IWWKAW","[{""page_index"":0,""viewing_time"":4308.100000008941},{""page_index"":1,""viewing_time"":927.1999999880791}]","5235.5","","","","","","","","","","","",""
"","image-keyboard-response","184","107031","0.0-184.0","3RUIQRXJBCA18JVJC1CKLW9N9PFLLK","A1YDQJXMEUVSY7","3P7RGTLO6EZ76AO3386R8ZK9IWWKAW","","400.79999999701977","img/food6.png","76","402.5","3","0","1","2","1,0.5,0,1,0.5,0,0.5,0,1","1,0.5,0,1,0.5,0,0.5,0,1","1","false",""
"","html-keyboard-response","185","107335","0.0-185.0","3RUIQRXJBCA18JVJC1CKLW9N9PFLLK","A1YDQJXMEUVSY7","3P7RGTLO6EZ76AO3386R8ZK9IWWKAW","","null","<img src=""img/food6.png"" style=""width:200px;border:14px solid red;"">","null","","","","","","","","","",""
"","image-keyboard-response","186","107742","0.0-187.0","3RUIQRXJBCA18JVJC1CKLW9N9PFLLK","A1YDQJXMEUVSY7","3P7RGTLO6EZ76AO3386R8ZK9IWWKAW","","405.20000000298023","img/food4.png","75","406.90000000596046","2","0","3","2","1,0.5,0,1,0.5,0,0.5,0,1","1,0.5,0,1,0.5,0,0.5,0,1","1","false",""
"","html-keyboard-response","187","108045","0.0-188.0","3RUIQRXJBCA18JVJC1CKLW9N9PFLLK","A1YDQJXMEUVSY7","3P7RGTLO6EZ76AO3386R8ZK9IWWKAW","","null","<img src=""img/food4.png"" style=""width:200px;border:14px solid red;"">","null","","","","","","","","","",""
"","image-keyboard-response","188","108422","0.0-190.0","3RUIQRXJBCA18JVJC1CKLW9N9PFLLK","A1YDQJXMEUVSY7","3P7RGTLO6EZ76AO3386R8ZK9IWWKAW","","374.79999999701977","img/food4.png","74","376.5","1","0","3","2","1,0.5,0,1,0.5,0,0.5,0,1","1,0.5,0,1,0.5,0,0.5,0,1","1","false",""
"","html-keyboard-response","189","108725","0.0-191.0","3RUIQRXJBCA18JVJC1CKLW9N9PFLLK","A1YDQJXMEUVSY7","3P7RGTLO6EZ76AO3386R8ZK9IWWKAW","","null","<img src=""img/food4.png"" style=""width:200px;border:14px solid red;"">","null","","","","","","","","","",""
"","image-keyboard-response","190","109221","0.0-193.0","3RUIQRXJBCA18JVJC1CKLW9N9PFLLK","A1YDQJXMEUVSY7","3P7RGTLO6EZ76AO3386R8ZK9IWWKAW","","494.20000000298023","img/food6.png","74","495.6000000089407","1","1","1","2","1,0.5,0,1,0.5,0,0.5,0,1","1,0.5,0,1,0.5,0,0.5,0,1","1","false",""
"","html-keyboard-response","191","109523","0.0-194.0","3RUIQRXJBCA18JVJC1CKLW9N9PFLLK","A1YDQJXMEUVSY7","3P7RGTLO6EZ76AO3386R8ZK9IWWKAW","","null","<img src=""img/food6.png"" style=""width:200px; border:14px solid green;"">","null","","","","","","","","","",""
"","image-keyboard-response","192","110221","0.0-196.0","3RUIQRXJBCA18JVJC1CKLW9N9PFLLK","A1YDQJXMEUVSY7","3P7RGTLO6EZ76AO3386R8ZK9IWWKAW","","697","img/food2.png","75","697.7000000029802","2","1","2","2","1,0.5,0,1,0.5,0,0.5,0,1","1,0.5,0,1,0.5,0,0.5,0,1","1","false",""
"","html-keyboard-response","193","110523","0.0-197.0","3RUIQRXJBCA18JVJC1CKLW9N9PFLLK","A1YDQJXMEUVSY7","3P7RGTLO6EZ76AO3386R8ZK9IWWKAW","","null","<img src=""img/food2.png"" style=""width:200px; border:14px solid green;"">","null","","","","","","","","","",""
"","image-keyboard-response","194","110974","0.0-199.0","3RUIQRXJBCA18JVJC1CKLW9N9PFLLK","A1YDQJXMEUVSY7","3P7RGTLO6EZ76AO3386R8ZK9IWWKAW","","449.8999999910593","img/food4.png","74","451","1","1","3","2","1,0.5,0,1,0.5,0,0.5,0,1","1,0.5,0,1,0.5,0,0.5,0,1","1","false",""
"","html-keyboard-response","195","111278","0.0-200.0","3RUIQRXJBCA18JVJC1CKLW9N9PFLLK","A1YDQJXMEUVSY7","3P7RGTLO6EZ76AO3386R8ZK9IWWKAW","","null","<img src=""img/food4.png"" style=""width:200px; border:14px solid green;"">","null","","","","","","","","","",""
"","image-keyboard-response","196","111701","0.0-202.0","3RUIQRXJBCA18JVJC1CKLW9N9PFLLK","A1YDQJXMEUVSY7","3P7RGTLO6EZ76AO3386R8ZK9IWWKAW","","422.5","img/food2.png","74","423.30000001192093","1","1","2","2","1,0.5,0,1,0.5,0,0.5,0,1","1,0.5,0,1,0.5,0,0.5,0,1","1","false",""
"","html-keyboard-response","197","112004","0.0-203.0","3RUIQRXJBCA18JVJC1CKLW9N9PFLLK","A1YDQJXMEUVSY7","3P7RGTLO6EZ76AO3386R8ZK9IWWKAW","","null","<img src=""img/food2.png"" style=""width:200px; border:14px solid green;"">","null","","","","","","","","","",""
"","image-keyboard-response","198","112381","0.0-205.0","3RUIQRXJBCA18JVJC1CKLW9N9PFLLK","A1YDQJXMEUVSY7","3P7RGTLO6EZ76AO3386R8ZK9IWWKAW","","376.59999999403954","img/food2.png","75","377.5","2","0","2","2","1,0.5,0,1,0.5,0,0.5,0,1","1,0.5,0,1,0.5,0,0.5,0,1","1","false",""
"","html-keyboard-response","199","112694","0.0-206.0","3RUIQRXJBCA18JVJC1CKLW9N9PFLLK","A1YDQJXMEUVSY7","3P7RGTLO6EZ76AO3386R8ZK9IWWKAW","","null","<img src=""img/food2.png"" style=""width:200px;border:14px solid red;"">","null","","","","","","","","","",""
"","image-keyboard-response","200","112941","0.0-208.0","3RUIQRXJBCA18JVJC1CKLW9N9PFLLK","A1YDQJXMEUVSY7","3P7RGTLO6EZ76AO3386R8ZK9IWWKAW","","245.79999999701977","img/food6.png","74","246.6000000089407","1","1","1","2","1,0.5,0,1,0.5,0,0.5,0,1","1,0.5,0,1,0.5,0,0.5,0,1","1","false",""
"","html-keyboard-response","201","113243","0.0-209.0","3RUIQRXJBCA18JVJC1CKLW9N9PFLLK","A1YDQJXMEUVSY7","3P7RGTLO6EZ76AO3386R8ZK9IWWKAW","","null","<img src=""img/food6.png"" style=""width:200px; border:14px solid green;"">","null","","","","","","","","","",""
"","image-keyboard-response","202","113566","0.0-211.0","3RUIQRXJBCA18JVJC1CKLW9N9PFLLK","A1YDQJXMEUVSY7","3P7RGTLO6EZ76AO3386R8ZK9IWWKAW","","320.8999999910593","img/food2.png","74","322.59999999403954","1","1","2","2","1,0.5,0,1,0.5,0,0.5,0,1","1,0.5,0,1,0.5,0,0.5,0,1","1","false",""
"","html-keyboard-response","203","113869","0.0-212.0","3RUIQRXJBCA18JVJC1CKLW9N9PFLLK","A1YDQJXMEUVSY7","3P7RGTLO6EZ76AO3386R8ZK9IWWKAW","","null","<img src=""img/food2.png"" style=""width:200px; border:14px solid green;"">","null","","","","","","","","","",""
"","image-keyboard-response","204","114158","0.0-214.0","3RUIQRXJBCA18JVJC1CKLW9N9PFLLK","A1YDQJXMEUVSY7","3P7RGTLO6EZ76AO3386R8ZK9IWWKAW","","287.09999999403954","img/food2.png","74","289","1","1","2","2","1,0.5,0,1,0.5,0,0.5,0,1","1,0.5,0,1,0.5,0,0.5,0,1","1","false",""
"","html-keyboard-response","205","114461","0.0-215.0","3RUIQRXJBCA18JVJC1CKLW9N9PFLLK","A1YDQJXMEUVSY7","3P7RGTLO6EZ76AO3386R8ZK9IWWKAW","","null","<img src=""img/food2.png"" style=""width:200px; border:14px solid green;"">","null","","","","","","","","","",""
"","image-keyboard-response","206","114726","0.0-217.0","3RUIQRXJBCA18JVJC1CKLW9N9PFLLK","A1YDQJXMEUVSY7","3P7RGTLO6EZ76AO3386R8ZK9IWWKAW","","262.90000000596046","img/food4.png","74","264.5","1","1","3","2","1,0.5,0,1,0.5,0,0.5,0,1","1,0.5,0,1,0.5,0,0.5,0,1","1","false",""
"","html-keyboard-response","207","115029","0.0-218.0","3RUIQRXJBCA18JVJC1CKLW9N9PFLLK","A1YDQJXMEUVSY7","3P7RGTLO6EZ76AO3386R8ZK9IWWKAW","","null","<img src=""img/food4.png"" style=""width:200px; border:14px solid green;"">","null","","","","","","","","","",""
"","image-keyboard-response","208","115278","0.0-220.0","3RUIQRXJBCA18JVJC1CKLW9N9PFLLK","A1YDQJXMEUVSY7","3P7RGTLO6EZ76AO3386R8ZK9IWWKAW","","247.09999999403954","img/food2.png","74","248.79999999701977","1","1","2","2","1,0.5,0,1,0.5,0,0.5,0,1","1,0.5,0,1,0.5,0,0.5,0,1","1","false",""
"","html-keyboard-response","209","115581","0.0-221.0","3RUIQRXJBCA18JVJC1CKLW9N9PFLLK","A1YDQJXMEUVSY7","3P7RGTLO6EZ76AO3386R8ZK9IWWKAW","","null","<img src=""img/food2.png"" style=""width:200px; border:14px solid green;"">","null","","","","","","","","","",""
"","image-keyboard-response","210","115782","0.0-223.0","3RUIQRXJBCA18JVJC1CKLW9N9PFLLK","A1YDQJXMEUVSY7","3P7RGTLO6EZ76AO3386R8ZK9IWWKAW","","198.70000000298023","img/food2.png","74","200.5","1","1","2","2","1,0.5,0,1,0.5,0,0.5,0,1","1,0.5,0,1,0.5,0,0.5,0,1","1","false",""
"","html-keyboard-response","211","116085","0.0-224.0","3RUIQRXJBCA18JVJC1CKLW9N9PFLLK","A1YDQJXMEUVSY7","3P7RGTLO6EZ76AO3386R8ZK9IWWKAW","","null","<img src=""img/food2.png"" style=""width:200px; border:14px solid green;"">","null","","","","","","","","","",""
"","image-keyboard-response","212","116150","0.0-226.0","3RUIQRXJBCA18JVJC1CKLW9N9PFLLK","A1YDQJXMEUVSY7","3P7RGTLO6EZ76AO3386R8ZK9IWWKAW","","60.8999999910593","img/food2.png","74","62.400000005960464","1","1","2","2","1,0.5,0,1,0.5,0,0.5,0,1","1,0.5,0,1,0.5,0,0.5,0,1","1","false",""
"","html-keyboard-response","213","116454","0.0-227.0","3RUIQRXJBCA18JVJC1CKLW9N9PFLLK","A1YDQJXMEUVSY7","3P7RGTLO6EZ76AO3386R8ZK9IWWKAW","","null","<img src=""img/food2.png"" style=""width:200px; border:14px solid green;"">","null","","","","","","","","","",""
"","image-keyboard-response","214","116494","0.0-229.0","3RUIQRXJBCA18JVJC1CKLW9N9PFLLK","A1YDQJXMEUVSY7","3P7RGTLO6EZ76AO3386R8ZK9IWWKAW","","38.20000000298023","img/food4.png","74","39.79999999701977","1","1","3","2","1,0.5,0,1,0.5,0,0.5,0,1","1,0.5,0,1,0.5,0,0.5,0,1","1","false",""
"","html-keyboard-response","215","116809","0.0-230.0","3RUIQRXJBCA18JVJC1CKLW9N9PFLLK","A1YDQJXMEUVSY7","3P7RGTLO6EZ76AO3386R8ZK9IWWKAW","","null","<img src=""img/food4.png"" style=""width:200px; border:14px solid green;"">","null","","","","","","","","","",""
"","image-keyboard-response","216","116926","0.0-232.0","3RUIQRXJBCA18JVJC1CKLW9N9PFLLK","A1YDQJXMEUVSY7","3P7RGTLO6EZ76AO3386R8ZK9IWWKAW","","115.09999999403954","img/food4.png","74","116.79999999701977","1","0","3","2","1,0.5,0,1,0.5,0,0.5,0,1","1,0.5,0,1,0.5,0,0.5,0,1","1","false",""
"","html-keyboard-response","217","117229","0.0-233.0","3RUIQRXJBCA18JVJC1CKLW9N9PFLLK","A1YDQJXMEUVSY7","3P7RGTLO6EZ76AO3386R8ZK9IWWKAW","","null","<img src=""img/food4.png"" style=""width:200px;border:14px solid red;"">","null","","","","","","","","","",""
"","image-keyboard-response","218","117734","0.0-235.0","3RUIQRXJBCA18JVJC1CKLW9N9PFLLK","A1YDQJXMEUVSY7","3P7RGTLO6EZ76AO3386R8ZK9IWWKAW","","503","img/food4.png","74","504.59999999403954","1","1","3","2","1,0.5,0,1,0.5,0,0.5,0,1","1,0.5,0,1,0.5,0,0.5,0,1","1","false",""
"","html-keyboard-response","219","118038","0.0-236.0","3RUIQRXJBCA18JVJC1CKLW9N9PFLLK","A1YDQJXMEUVSY7","3P7RGTLO6EZ76AO3386R8ZK9IWWKAW","","null","<img src=""img/food4.png"" style=""width:200px; border:14px solid green;"">","null","","","","","","","","","",""
"","image-keyboard-response","220","118142","0.0-238.0","3RUIQRXJBCA18JVJC1CKLW9N9PFLLK","A1YDQJXMEUVSY7","3P7RGTLO6EZ76AO3386R8ZK9IWWKAW","","101.8999999910593","img/food6.png","74","103.40000000596046","1","1","1","2","1,0.5,0,1,0.5,0,0.5,0,1","1,0.5,0,1,0.5,0,0.5,0,1","1","false",""
"","html-keyboard-response","221","118445","0.0-239.0","3RUIQRXJBCA18JVJC1CKLW9N9PFLLK","A1YDQJXMEUVSY7","3P7RGTLO6EZ76AO3386R8ZK9IWWKAW","","null","<img src=""img/food6.png"" style=""width:200px; border:14px solid green;"">","null","","","","","","","","","",""
"","image-keyboard-response","222","118590","0.0-241.0","3RUIQRXJBCA18JVJC1CKLW9N9PFLLK","A1YDQJXMEUVSY7","3P7RGTLO6EZ76AO3386R8ZK9IWWKAW","","143","img/food4.png","74","144.6000000089407","1","0","3","2","1,0.5,0,1,0.5,0,0.5,0,1","1,0.5,0,1,0.5,0,0.5,0,1","1","false",""
"","html-keyboard-response","223","118893","0.0-242.0","3RUIQRXJBCA18JVJC1CKLW9N9PFLLK","A1YDQJXMEUVSY7","3P7RGTLO6EZ76AO3386R8ZK9IWWKAW","","null","<img src=""img/food4.png"" style=""width:200px;border:14px solid red;"">","null","","","","","","","","","",""
"","image-keyboard-response","224","118926","0.0-244.0","3RUIQRXJBCA18JVJC1CKLW9N9PFLLK","A1YDQJXMEUVSY7","3P7RGTLO6EZ76AO3386R8ZK9IWWKAW","","31.099999994039536","img/food4.png","74","32.5","1","0","3","2","1,0.5,0,1,0.5,0,0.5,0,1","1,0.5,0,1,0.5,0,0.5,0,1","1","false",""
"","html-keyboard-response","225","119229","0.0-245.0","3RUIQRXJBCA18JVJC1CKLW9N9PFLLK","A1YDQJXMEUVSY7","3P7RGTLO6EZ76AO3386R8ZK9IWWKAW","","null","<img src=""img/food4.png"" style=""width:200px;border:14px solid red;"">","null","","","","","","","","","",""
"","image-keyboard-response","226","119566","0.0-247.0","3RUIQRXJBCA18JVJC1CKLW9N9PFLLK","A1YDQJXMEUVSY7","3P7RGTLO6EZ76AO3386R8ZK9IWWKAW","","335","img/food6.png","74","336.59999999403954","1","1","1","2","1,0.5,0,1,0.5,0,0.5,0,1","1,0.5,0,1,0.5,0,0.5,0,1","1","false",""
"","html-keyboard-response","227","119869","0.0-248.0","3RUIQRXJBCA18JVJC1CKLW9N9PFLLK","A1YDQJXMEUVSY7","3P7RGTLO6EZ76AO3386R8ZK9IWWKAW","","null","<img src=""img/food6.png"" style=""width:200px; border:14px solid green;"">","null","","","","","","","","","",""
"","image-keyboard-response","228","119982","0.0-250.0","3RUIQRXJBCA18JVJC1CKLW9N9PFLLK","A1YDQJXMEUVSY7","3P7RGTLO6EZ76AO3386R8ZK9IWWKAW","","111.20000000298023","img/food2.png","74","112.79999999701977","1","1","2","2","1,0.5,0,1,0.5,0,0.5,0,1","1,0.5,0,1,0.5,0,0.5,0,1","1","false",""
"","html-keyboard-response","229","120284","0.0-251.0","3RUIQRXJBCA18JVJC1CKLW9N9PFLLK","A1YDQJXMEUVSY7","3P7RGTLO6EZ76AO3386R8ZK9IWWKAW","","null","<img src=""img/food2.png"" style=""width:200px; border:14px solid green;"">","null","","","","","","","","","",""
"","image-keyboard-response","230","120558","0.0-253.0","3RUIQRXJBCA18JVJC1CKLW9N9PFLLK","A1YDQJXMEUVSY7","3P7RGTLO6EZ76AO3386R8ZK9IWWKAW","","271.5","img/food6.png","74","273.20000000298023","1","1","1","2","1,0.5,0,1,0.5,0,0.5,0,1","1,0.5,0,1,0.5,0,0.5,0,1","1","false",""
"","html-keyboard-response","231","120861","0.0-254.0","3RUIQRXJBCA18JVJC1CKLW9N9PFLLK","A1YDQJXMEUVSY7","3P7RGTLO6EZ76AO3386R8ZK9IWWKAW","","null","<img src=""img/food6.png"" style=""width:200px; border:14px solid green;"">","null","","","","","","","","","",""
"","image-keyboard-response","232","121134","0.0-256.0","3RUIQRXJBCA18JVJC1CKLW9N9PFLLK","A1YDQJXMEUVSY7","3P7RGTLO6EZ76AO3386R8ZK9IWWKAW","","271.40000000596046","img/food6.png","74","273","1","1","1","2","1,0.5,0,1,0.5,0,0.5,0,1","1,0.5,0,1,0.5,0,0.5,0,1","1","false",""
"","html-keyboard-response","233","121437","0.0-257.0","3RUIQRXJBCA18JVJC1CKLW9N9PFLLK","A1YDQJXMEUVSY7","3P7RGTLO6EZ76AO3386R8ZK9IWWKAW","","null","<img src=""img/food6.png"" style=""width:200px; border:14px solid green;"">","null","","","","","","","","","",""
"","image-keyboard-response","234","121526","0.0-259.0","3RUIQRXJBCA18JVJC1CKLW9N9PFLLK","A1YDQJXMEUVSY7","3P7RGTLO6EZ76AO3386R8ZK9IWWKAW","","87.09999999403954","img/food2.png","74","88.70000000298023","1","1","2","2","1,0.5,0,1,0.5,0,0.5,0,1","1,0.5,0,1,0.5,0,0.5,0,1","1","false",""
"","html-keyboard-response","235","121829","0.0-260.0","3RUIQRXJBCA18JVJC1CKLW9N9PFLLK","A1YDQJXMEUVSY7","3P7RGTLO6EZ76AO3386R8ZK9IWWKAW","","null","<img src=""img/food2.png"" style=""width:200px; border:14px solid green;"">","null","","","","","","","","","",""
"","image-keyboard-response","236","121983","0.0-262.0","3RUIQRXJBCA18JVJC1CKLW9N9PFLLK","A1YDQJXMEUVSY7","3P7RGTLO6EZ76AO3386R8ZK9IWWKAW","","149.6000000089407","img/food4.png","74","152.79999999701977","1","1","3","2","1,0.5,0,1,0.5,0,0.5,0,1","1,0.5,0,1,0.5,0,0.5,0,1","1","false",""
"","html-keyboard-response","237","122285","0.0-263.0","3RUIQRXJBCA18JVJC1CKLW9N9PFLLK","A1YDQJXMEUVSY7","3P7RGTLO6EZ76AO3386R8ZK9IWWKAW","","null","<img src=""img/food4.png"" style=""width:200px; border:14px solid green;"">","null","","","","","","","","","",""
"","image-keyboard-response","238","122550","0.0-265.0","3RUIQRXJBCA18JVJC1CKLW9N9PFLLK","A1YDQJXMEUVSY7","3P7RGTLO6EZ76AO3386R8ZK9IWWKAW","","263.5","img/food2.png","74","265.09999999403954","1","1","2","2","1,0.5,0,1,0.5,0,0.5,0,1","1,0.5,0,1,0.5,0,0.5,0,1","1","false",""
"","html-keyboard-response","239","122853","0.0-266.0","3RUIQRXJBCA18JVJC1CKLW9N9PFLLK","A1YDQJXMEUVSY7","3P7RGTLO6EZ76AO3386R8ZK9IWWKAW","","null","<img src=""img/food2.png"" style=""width:200px; border:14px solid green;"">","null","","","","","","","","","",""
"","image-keyboard-response","240","123077","0.0-268.0","3RUIQRXJBCA18JVJC1CKLW9N9PFLLK","A1YDQJXMEUVSY7","3P7RGTLO6EZ76AO3386R8ZK9IWWKAW","","222.70000000298023","img/food2.png","74","224.1000000089407","1","1","2","2","1,0.5,0,1,0.5,0,0.5,0,1","1,0.5,0,1,0.5,0,0.5,0,1","1","false",""
"","html-keyboard-response","241","123379","0.0-269.0","3RUIQRXJBCA18JVJC1CKLW9N9PFLLK","A1YDQJXMEUVSY7","3P7RGTLO6EZ76AO3386R8ZK9IWWKAW","","null","<img src=""img/food2.png"" style=""width:200px; border:14px solid green;"">","null","","","","","","","","","",""
"","image-keyboard-response","242","123486","0.0-271.0","3RUIQRXJBCA18JVJC1CKLW9N9PFLLK","A1YDQJXMEUVSY7","3P7RGTLO6EZ76AO3386R8ZK9IWWKAW","","104.90000000596046","img/food2.png","74","106.6000000089407","1","1","2","2","1,0.5,0,1,0.5,0,0.5,0,1","1,0.5,0,1,0.5,0,0.5,0,1","1","false",""
"","html-keyboard-response","243","123789","0.0-272.0","3RUIQRXJBCA18JVJC1CKLW9N9PFLLK","A1YDQJXMEUVSY7","3P7RGTLO6EZ76AO3386R8ZK9IWWKAW","","null","<img src=""img/food2.png"" style=""width:200px; border:14px solid green;"">","null","","","","","","","","","",""
"","image-keyboard-response","244","124046","0.0-274.0","3RUIQRXJBCA18JVJC1CKLW9N9PFLLK","A1YDQJXMEUVSY7","3P7RGTLO6EZ76AO3386R8ZK9IWWKAW","","255.29999999701977","img/food4.png","74","256.90000000596046","1","1","3","2","1,0.5,0,1,0.5,0,0.5,0,1","1,0.5,0,1,0.5,0,0.5,0,1","1","false",""
"","html-keyboard-response","245","124349","0.0-275.0","3RUIQRXJBCA18JVJC1CKLW9N9PFLLK","A1YDQJXMEUVSY7","3P7RGTLO6EZ76AO3386R8ZK9IWWKAW","","null","<img src=""img/food4.png"" style=""width:200px; border:14px solid green;"">","null","","","","","","","","","",""
"","image-keyboard-response","246","124830","0.0-277.0","3RUIQRXJBCA18JVJC1CKLW9N9PFLLK","A1YDQJXMEUVSY7","3P7RGTLO6EZ76AO3386R8ZK9IWWKAW","","478.8999999910593","img/food6.png","74","480.5","1","1","1","2","1,0.5,0,1,0.5,0,0.5,0,1","1,0.5,0,1,0.5,0,0.5,0,1","1","false",""
"","html-keyboard-response","247","125133","0.0-278.0","3RUIQRXJBCA18JVJC1CKLW9N9PFLLK","A1YDQJXMEUVSY7","3P7RGTLO6EZ76AO3386R8ZK9IWWKAW","","null","<img src=""img/food6.png"" style=""width:200px; border:14px solid green;"">","null","","","","","","","","","",""
"","image-keyboard-response","248","125334","0.0-280.0","3RUIQRXJBCA18JVJC1CKLW9N9PFLLK","A1YDQJXMEUVSY7","3P7RGTLO6EZ76AO3386R8ZK9IWWKAW","","199.59999999403954","img/food6.png","74","201.1000000089407","1","1","1","2","1,0.5,0,1,0.5,0,0.5,0,1","1,0.5,0,1,0.5,0,0.5,0,1","1","false",""
"","html-keyboard-response","249","125637","0.0-281.0","3RUIQRXJBCA18JVJC1CKLW9N9PFLLK","A1YDQJXMEUVSY7","3P7RGTLO6EZ76AO3386R8ZK9IWWKAW","","null","<img src=""img/food6.png"" style=""width:200px; border:14px solid green;"">","null","","","","","","","","","",""
"","image-keyboard-response","250","125871","0.0-283.0","3RUIQRXJBCA18JVJC1CKLW9N9PFLLK","A1YDQJXMEUVSY7","3P7RGTLO6EZ76AO3386R8ZK9IWWKAW","","231.09999999403954","img/food4.png","74","232.79999999701977","1","0","3","2","1,0.5,0,1,0.5,0,0.5,0,1","1,0.5,0,1,0.5,0,0.5,0,1","1","false",""
"","html-keyboard-response","251","126173","0.0-284.0","3RUIQRXJBCA18JVJC1CKLW9N9PFLLK","A1YDQJXMEUVSY7","3P7RGTLO6EZ76AO3386R8ZK9IWWKAW","","null","<img src=""img/food4.png"" style=""width:200px;border:14px solid red;"">","null","","","","","","","","","",""
"","image-keyboard-response","252","126590","0.0-286.0","3RUIQRXJBCA18JVJC1CKLW9N9PFLLK","A1YDQJXMEUVSY7","3P7RGTLO6EZ76AO3386R8ZK9IWWKAW","","414.79999999701977","img/food4.png","75","416.59999999403954","2","0","3","2","1,0.5,0,1,0.5,0,0.5,0,1","1,0.5,0,1,0.5,0,0.5,0,1","1","false",""
"","html-keyboard-response","253","126893","0.0-287.0","3RUIQRXJBCA18JVJC1CKLW9N9PFLLK","A1YDQJXMEUVSY7","3P7RGTLO6EZ76AO3386R8ZK9IWWKAW","","null","<img src=""img/food4.png"" style=""width:200px;border:14px solid red;"">","null","","","","","","","","","",""
"","image-keyboard-response","254","127174","0.0-289.0","3RUIQRXJBCA18JVJC1CKLW9N9PFLLK","A1YDQJXMEUVSY7","3P7RGTLO6EZ76AO3386R8ZK9IWWKAW","","278.79999999701977","img/food4.png","74","280.5","1","1","3","2","1,0.5,0,1,0.5,0,0.5,0,1","1,0.5,0,1,0.5,0,0.5,0,1","1","false",""
"","html-keyboard-response","255","127478","0.0-290.0","3RUIQRXJBCA18JVJC1CKLW9N9PFLLK","A1YDQJXMEUVSY7","3P7RGTLO6EZ76AO3386R8ZK9IWWKAW","","null","<img src=""img/food4.png"" style=""width:200px; border:14px solid green;"">","null","","","","","","","","","",""
"","image-keyboard-response","256","127870","0.0-292.0","3RUIQRXJBCA18JVJC1CKLW9N9PFLLK","A1YDQJXMEUVSY7","3P7RGTLO6EZ76AO3386R8ZK9IWWKAW","","390.20000000298023","img/food6.png","75","391.8999999910593","2","0","1","2","1,0.5,0,1,0.5,0,0.5,0,1","1,0.5,0,1,0.5,0,0.5,0,1","1","false",""
"","html-keyboard-response","257","128174","0.0-293.0","3RUIQRXJBCA18JVJC1CKLW9N9PFLLK","A1YDQJXMEUVSY7","3P7RGTLO6EZ76AO3386R8ZK9IWWKAW","","null","<img src=""img/food6.png"" style=""width:200px;border:14px solid red;"">","null","","","","","","","","","",""
"","image-keyboard-response","258","128390","0.0-295.0","3RUIQRXJBCA18JVJC1CKLW9N9PFLLK","A1YDQJXMEUVSY7","3P7RGTLO6EZ76AO3386R8ZK9IWWKAW","","214.29999999701977","img/food6.png","74","216.09999999403954","1","1","1","2","1,0.5,0,1,0.5,0,0.5,0,1","1,0.5,0,1,0.5,0,0.5,0,1","1","false",""
"","html-keyboard-response","259","128693","0.0-296.0","3RUIQRXJBCA18JVJC1CKLW9N9PFLLK","A1YDQJXMEUVSY7","3P7RGTLO6EZ76AO3386R8ZK9IWWKAW","","null","<img src=""img/food6.png"" style=""width:200px; border:14px solid green;"">","null","","","","","","","","","",""
"","image-keyboard-response","260","128735","0.0-298.0","3RUIQRXJBCA18JVJC1CKLW9N9PFLLK","A1YDQJXMEUVSY7","3P7RGTLO6EZ76AO3386R8ZK9IWWKAW","","39.70000000298023","img/food4.png","74","41.5","1","0","3","2","1,0.5,0,1,0.5,0,0.5,0,1","1,0.5,0,1,0.5,0,0.5,0,1","1","false",""
"","html-keyboard-response","261","129038","0.0-299.0","3RUIQRXJBCA18JVJC1CKLW9N9PFLLK","A1YDQJXMEUVSY7","3P7RGTLO6EZ76AO3386R8ZK9IWWKAW","","null","<img src=""img/food4.png"" style=""width:200px;border:14px solid red;"">","null","","","","","","","","","",""
"","image-keyboard-response","262","129646","0.0-301.0","3RUIQRXJBCA18JVJC1CKLW9N9PFLLK","A1YDQJXMEUVSY7","3P7RGTLO6EZ76AO3386R8ZK9IWWKAW","","605.7000000029802","img/food2.png","74","607.3999999910593","1","1","2","2","1,0.5,0,1,0.5,0,0.5,0,1","1,0.5,0,1,0.5,0,0.5,0,1","1","false",""
"","html-keyboard-response","263","129949","0.0-302.0","3RUIQRXJBCA18JVJC1CKLW9N9PFLLK","A1YDQJXMEUVSY7","3P7RGTLO6EZ76AO3386R8ZK9IWWKAW","","null","<img src=""img/food2.png"" style=""width:200px; border:14px solid green;"">","null","","","","","","","","","",""
"","image-keyboard-response","264","129982","0.0-304.0","3RUIQRXJBCA18JVJC1CKLW9N9PFLLK","A1YDQJXMEUVSY7","3P7RGTLO6EZ76AO3386R8ZK9IWWKAW","","30.599999994039536","img/food4.png","74","32","1","1","3","2","1,0.5,0,1,0.5,0,0.5,0,1","1,0.5,0,1,0.5,0,0.5,0,1","1","false",""
"","html-keyboard-response","265","130285","0.0-305.0","3RUIQRXJBCA18JVJC1CKLW9N9PFLLK","A1YDQJXMEUVSY7","3P7RGTLO6EZ76AO3386R8ZK9IWWKAW","","null","<img src=""img/food4.png"" style=""width:200px; border:14px solid green;"">","null","","","","","","","","","",""
"","image-keyboard-response","266","130414","0.0-307.0","3RUIQRXJBCA18JVJC1CKLW9N9PFLLK","A1YDQJXMEUVSY7","3P7RGTLO6EZ76AO3386R8ZK9IWWKAW","","126.90000000596046","img/food2.png","74","128.6000000089407","1","1","2","2","1,0.5,0,1,0.5,0,0.5,0,1","1,0.5,0,1,0.5,0,0.5,0,1","1","false",""
"","html-keyboard-response","267","130716","0.0-308.0","3RUIQRXJBCA18JVJC1CKLW9N9PFLLK","A1YDQJXMEUVSY7","3P7RGTLO6EZ76AO3386R8ZK9IWWKAW","","null","<img src=""img/food2.png"" style=""width:200px; border:14px solid green;"">","null","","","","","","","","","",""
"","image-keyboard-response","268","130854","0.0-310.0","3RUIQRXJBCA18JVJC1CKLW9N9PFLLK","A1YDQJXMEUVSY7","3P7RGTLO6EZ76AO3386R8ZK9IWWKAW","","135.59999999403954","img/food4.png","74","137.20000000298023","1","0","3","2","1,0.5,0,1,0.5,0,0.5,0,1","1,0.5,0,1,0.5,0,0.5,0,1","1","false",""
"","html-keyboard-response","269","131157","0.0-311.0","3RUIQRXJBCA18JVJC1CKLW9N9PFLLK","A1YDQJXMEUVSY7","3P7RGTLO6EZ76AO3386R8ZK9IWWKAW","","null","<img src=""img/food4.png"" style=""width:200px;border:14px solid red;"">","null","","","","","","","","","",""
"","image-keyboard-response","270","131574","0.0-313.0","3RUIQRXJBCA18JVJC1CKLW9N9PFLLK","A1YDQJXMEUVSY7","3P7RGTLO6EZ76AO3386R8ZK9IWWKAW","","415","img/food6.png","74","416.70000000298023","1","1","1","2","1,0.5,0,1,0.5,0,0.5,0,1","1,0.5,0,1,0.5,0,0.5,0,1","1","false",""
"","html-keyboard-response","271","131882","0.0-314.0","3RUIQRXJBCA18JVJC1CKLW9N9PFLLK","A1YDQJXMEUVSY7","3P7RGTLO6EZ76AO3386R8ZK9IWWKAW","","null","<img src=""img/food6.png"" style=""width:200px; border:14px solid green;"">","null","","","","","","","","","",""
"","image-keyboard-response","272","132150","0.0-316.0","3RUIQRXJBCA18JVJC1CKLW9N9PFLLK","A1YDQJXMEUVSY7","3P7RGTLO6EZ76AO3386R8ZK9IWWKAW","","265.79999999701977","img/food4.png","74","266.8999999910593","1","1","3","2","1,0.5,0,1,0.5,0,0.5,0,1","1,0.5,0,1,0.5,0,0.5,0,1","1","false",""
"","html-keyboard-response","273","132451","0.0-317.0","3RUIQRXJBCA18JVJC1CKLW9N9PFLLK","A1YDQJXMEUVSY7","3P7RGTLO6EZ76AO3386R8ZK9IWWKAW","","null","<img src=""img/food4.png"" style=""width:200px; border:14px solid green;"">","null","","","","","","","","","",""
"","image-keyboard-response","274","133025","0.0-319.0","3RUIQRXJBCA18JVJC1CKLW9N9PFLLK","A1YDQJXMEUVSY7","3P7RGTLO6EZ76AO3386R8ZK9IWWKAW","","573","img/food2.png","75","573.5999999940395","2","1","2","2","1,0.5,0,1,0.5,0,0.5,0,1","1,0.5,0,1,0.5,0,0.5,0,1","1","false",""
"","html-keyboard-response","275","133328","0.0-320.0","3RUIQRXJBCA18JVJC1CKLW9N9PFLLK","A1YDQJXMEUVSY7","3P7RGTLO6EZ76AO3386R8ZK9IWWKAW","","null","<img src=""img/food2.png"" style=""width:200px; border:14px solid green;"">","null","","","","","","","","","",""
"","image-keyboard-response","276","133589","0.0-322.0","3RUIQRXJBCA18JVJC1CKLW9N9PFLLK","A1YDQJXMEUVSY7","3P7RGTLO6EZ76AO3386R8ZK9IWWKAW","","260.5","img/food6.png","75","261.30000001192093","2","0","1","2","1,0.5,0,1,0.5,0,0.5,0,1","1,0.5,0,1,0.5,0,0.5,0,1","1","false",""
"","html-keyboard-response","277","133892","0.0-323.0","3RUIQRXJBCA18JVJC1CKLW9N9PFLLK","A1YDQJXMEUVSY7","3P7RGTLO6EZ76AO3386R8ZK9IWWKAW","","null","<img src=""img/food6.png"" style=""width:200px;border:14px solid red;"">","null","","","","","","","","","",""
"","image-keyboard-response","278","134174","0.0-325.0","3RUIQRXJBCA18JVJC1CKLW9N9PFLLK","A1YDQJXMEUVSY7","3P7RGTLO6EZ76AO3386R8ZK9IWWKAW","","281.09999999403954","img/food4.png","74","282.29999999701977","1","1","3","2","1,0.5,0,1,0.5,0,0.5,0,1","1,0.5,0,1,0.5,0,0.5,0,1","1","false",""
"","html-keyboard-response","279","134477","0.0-326.0","3RUIQRXJBCA18JVJC1CKLW9N9PFLLK","A1YDQJXMEUVSY7","3P7RGTLO6EZ76AO3386R8ZK9IWWKAW","","null","<img src=""img/food4.png"" style=""width:200px; border:14px solid green;"">","null","","","","","","","","","",""
"","image-keyboard-response","280","134877","0.0-328.0","3RUIQRXJBCA18JVJC1CKLW9N9PFLLK","A1YDQJXMEUVSY7","3P7RGTLO6EZ76AO3386R8ZK9IWWKAW","","398.20000000298023","img/food2.png","76","399.5","3","0","2","2","1,0.5,0,1,0.5,0,0.5,0,1","1,0.5,0,1,0.5,0,0.5,0,1","1","false",""
"","html-keyboard-response","281","135180","0.0-329.0","3RUIQRXJBCA18JVJC1CKLW9N9PFLLK","A1YDQJXMEUVSY7","3P7RGTLO6EZ76AO3386R8ZK9IWWKAW","","null","<img src=""img/food2.png"" style=""width:200px;border:14px solid red;"">","null","","","","","","","","","",""
"","image-keyboard-response","282","135358","0.0-331.0","3RUIQRXJBCA18JVJC1CKLW9N9PFLLK","A1YDQJXMEUVSY7","3P7RGTLO6EZ76AO3386R8ZK9IWWKAW","","176.70000000298023","img/food6.png","74","178","1","1","1","2","1,0.5,0,1,0.5,0,0.5,0,1","1,0.5,0,1,0.5,0,0.5,0,1","1","false",""
"","html-keyboard-response","283","135662","0.0-332.0","3RUIQRXJBCA18JVJC1CKLW9N9PFLLK","A1YDQJXMEUVSY7","3P7RGTLO6EZ76AO3386R8ZK9IWWKAW","","null","<img src=""img/food6.png"" style=""width:200px; border:14px solid green;"">","null","","","","","","","","","",""
"","image-keyboard-response","284","136038","0.0-334.0","3RUIQRXJBCA18JVJC1CKLW9N9PFLLK","A1YDQJXMEUVSY7","3P7RGTLO6EZ76AO3386R8ZK9IWWKAW","","374.20000000298023","img/food4.png","74","375.8999999910593","1","0","3","2","1,0.5,0,1,0.5,0,0.5,0,1","1,0.5,0,1,0.5,0,0.5,0,1","1","false",""
"","html-keyboard-response","285","136341","0.0-335.0","3RUIQRXJBCA18JVJC1CKLW9N9PFLLK","A1YDQJXMEUVSY7","3P7RGTLO6EZ76AO3386R8ZK9IWWKAW","","null","<img src=""img/food4.png"" style=""width:200px;border:14px solid red;"">","null","","","","","","","","","",""
"","image-keyboard-response","286","136629","0.0-337.0","3RUIQRXJBCA18JVJC1CKLW9N9PFLLK","A1YDQJXMEUVSY7","3P7RGTLO6EZ76AO3386R8ZK9IWWKAW","","286.70000000298023","img/food2.png","74","287.90000000596046","1","1","2","2","1,0.5,0,1,0.5,0,0.5,0,1","1,0.5,0,1,0.5,0,0.5,0,1","1","false",""
"","html-keyboard-response","287","136931","0.0-338.0","3RUIQRXJBCA18JVJC1CKLW9N9PFLLK","A1YDQJXMEUVSY7","3P7RGTLO6EZ76AO3386R8ZK9IWWKAW","","null","<img src=""img/food2.png"" style=""width:200px; border:14px solid green;"">","null","","","","","","","","","",""
"","image-keyboard-response","288","137310","0.0-340.0","3RUIQRXJBCA18JVJC1CKLW9N9PFLLK","A1YDQJXMEUVSY7","3P7RGTLO6EZ76AO3386R8ZK9IWWKAW","","377.29999999701977","img/food4.png","74","378.79999999701977","1","1","3","2","1,0.5,0,1,0.5,0,0.5,0,1","1,0.5,0,1,0.5,0,0.5,0,1","1","false",""
"","html-keyboard-response","289","137613","0.0-341.0","3RUIQRXJBCA18JVJC1CKLW9N9PFLLK","A1YDQJXMEUVSY7","3P7RGTLO6EZ76AO3386R8ZK9IWWKAW","","null","<img src=""img/food4.png"" style=""width:200px; border:14px solid green;"">","null","","","","","","","","","",""
"","image-keyboard-response","290","137934","0.0-343.0","3RUIQRXJBCA18JVJC1CKLW9N9PFLLK","A1YDQJXMEUVSY7","3P7RGTLO6EZ76AO3386R8ZK9IWWKAW","","319.09999999403954","img/food4.png","74","320.90000000596046","1","1","3","2","1,0.5,0,1,0.5,0,0.5,0,1","1,0.5,0,1,0.5,0,0.5,0,1","1","false",""
"","html-keyboard-response","291","138237","0.0-344.0","3RUIQRXJBCA18JVJC1CKLW9N9PFLLK","A1YDQJXMEUVSY7","3P7RGTLO6EZ76AO3386R8ZK9IWWKAW","","null","<img src=""img/food4.png"" style=""width:200px; border:14px solid green;"">","null","","","","","","","","","",""
"","image-keyboard-response","292","138382","0.0-346.0","3RUIQRXJBCA18JVJC1CKLW9N9PFLLK","A1YDQJXMEUVSY7","3P7RGTLO6EZ76AO3386R8ZK9IWWKAW","","142.5","img/food4.png","74","144.40000000596046","1","0","3","2","1,0.5,0,1,0.5,0,0.5,0,1","1,0.5,0,1,0.5,0,0.5,0,1","1","false",""
"","html-keyboard-response","293","138685","0.0-347.0","3RUIQRXJBCA18JVJC1CKLW9N9PFLLK","A1YDQJXMEUVSY7","3P7RGTLO6EZ76AO3386R8ZK9IWWKAW","","null","<img src=""img/food4.png"" style=""width:200px;border:14px solid red;"">","null","","","","","","","","","",""
"","image-keyboard-response","294","139053","0.0-349.0","3RUIQRXJBCA18JVJC1CKLW9N9PFLLK","A1YDQJXMEUVSY7","3P7RGTLO6EZ76AO3386R8ZK9IWWKAW","","366.59999999403954","img/food2.png","74","367.90000000596046","1","1","2","2","1,0.5,0,1,0.5,0,0.5,0,1","1,0.5,0,1,0.5,0,0.5,0,1","1","false",""
"","html-keyboard-response","295","139359","0.0-350.0","3RUIQRXJBCA18JVJC1CKLW9N9PFLLK","A1YDQJXMEUVSY7","3P7RGTLO6EZ76AO3386R8ZK9IWWKAW","","null","<img src=""img/food2.png"" style=""width:200px; border:14px solid green;"">","null","","","","","","","","","",""
"","image-keyboard-response","296","139533","0.0-352.0","3RUIQRXJBCA18JVJC1CKLW9N9PFLLK","A1YDQJXMEUVSY7","3P7RGTLO6EZ76AO3386R8ZK9IWWKAW","","172.80000001192093","img/food6.png","74","173.59999999403954","1","1","1","2","1,0.5,0,1,0.5,0,0.5,0,1","1,0.5,0,1,0.5,0,0.5,0,1","1","false",""
"","html-keyboard-response","297","139836","0.0-353.0","3RUIQRXJBCA18JVJC1CKLW9N9PFLLK","A1YDQJXMEUVSY7","3P7RGTLO6EZ76AO3386R8ZK9IWWKAW","","null","<img src=""img/food6.png"" style=""width:200px; border:14px solid green;"">","null","","","","","","","","","",""
"","image-keyboard-response","298","140005","0.0-355.0","3RUIQRXJBCA18JVJC1CKLW9N9PFLLK","A1YDQJXMEUVSY7","3P7RGTLO6EZ76AO3386R8ZK9IWWKAW","","167.79999999701977","img/food6.png","74","168.6000000089407","1","1","1","2","1,0.5,0,1,0.5,0,0.5,0,1","1,0.5,0,1,0.5,0,0.5,0,1","1","false",""
"","html-keyboard-response","299","140308","0.0-356.0","3RUIQRXJBCA18JVJC1CKLW9N9PFLLK","A1YDQJXMEUVSY7","3P7RGTLO6EZ76AO3386R8ZK9IWWKAW","","null","<img src=""img/food6.png"" style=""width:200px; border:14px solid green;"">","null","","","","","","","","","",""
"","image-keyboard-response","300","140573","0.0-358.0","3RUIQRXJBCA18JVJC1CKLW9N9PFLLK","A1YDQJXMEUVSY7","3P7RGTLO6EZ76AO3386R8ZK9IWWKAW","","264.5","img/food4.png","74","265.29999999701977","1","0","3","2","1,0.5,0,1,0.5,0,0.5,0,1","1,0.5,0,1,0.5,0,0.5,0,1","1","false",""
"","html-keyboard-response","301","140875","0.0-359.0","3RUIQRXJBCA18JVJC1CKLW9N9PFLLK","A1YDQJXMEUVSY7","3P7RGTLO6EZ76AO3386R8ZK9IWWKAW","","null","<img src=""img/food4.png"" style=""width:200px;border:14px solid red;"">","null","","","","","","","","","",""
"","image-keyboard-response","302","141173","0.0-361.0","3RUIQRXJBCA18JVJC1CKLW9N9PFLLK","A1YDQJXMEUVSY7","3P7RGTLO6EZ76AO3386R8ZK9IWWKAW","","297.6000000089407","img/food6.png","74","298.5","1","1","1","2","1,0.5,0,1,0.5,0,0.5,0,1","1,0.5,0,1,0.5,0,0.5,0,1","1","false",""
"","html-keyboard-response","303","141475","0.0-362.0","3RUIQRXJBCA18JVJC1CKLW9N9PFLLK","A1YDQJXMEUVSY7","3P7RGTLO6EZ76AO3386R8ZK9IWWKAW","","null","<img src=""img/food6.png"" style=""width:200px; border:14px solid green;"">","null","","","","","","","","","",""
"","image-keyboard-response","304","141678","0.0-364.0","3RUIQRXJBCA18JVJC1CKLW9N9PFLLK","A1YDQJXMEUVSY7","3P7RGTLO6EZ76AO3386R8ZK9IWWKAW","","201.79999999701977","img/food6.png","74","203","1","1","1","2","1,0.5,0,1,0.5,0,0.5,0,1","1,0.5,0,1,0.5,0,0.5,0,1","1","false",""
"","html-keyboard-response","305","141982","0.0-365.0","3RUIQRXJBCA18JVJC1CKLW9N9PFLLK","A1YDQJXMEUVSY7","3P7RGTLO6EZ76AO3386R8ZK9IWWKAW","","null","<img src=""img/food6.png"" style=""width:200px; border:14px solid green;"">","null","","","","","","","","","",""
"","image-keyboard-response","306","142197","0.0-367.0","3RUIQRXJBCA18JVJC1CKLW9N9PFLLK","A1YDQJXMEUVSY7","3P7RGTLO6EZ76AO3386R8ZK9IWWKAW","","214.09999999403954","img/food2.png","74","215.1000000089407","1","1","2","2","1,0.5,0,1,0.5,0,0.5,0,1","1,0.5,0,1,0.5,0,0.5,0,1","1","false",""
"","html-keyboard-response","307","142500","0.0-368.0","3RUIQRXJBCA18JVJC1CKLW9N9PFLLK","A1YDQJXMEUVSY7","3P7RGTLO6EZ76AO3386R8ZK9IWWKAW","","null","<img src=""img/food2.png"" style=""width:200px; border:14px solid green;"">","null","","","","","","","","","",""
"","image-keyboard-response","308","143030","0.0-370.0","3RUIQRXJBCA18JVJC1CKLW9N9PFLLK","A1YDQJXMEUVSY7","3P7RGTLO6EZ76AO3386R8ZK9IWWKAW","","528.7999999970198","img/food4.png","75","530","2","0","3","2","1,0.5,0,1,0.5,0,0.5,0,1","1,0.5,0,1,0.5,0,0.5,0,1","1","false",""
"","html-keyboard-response","309","143333","0.0-371.0","3RUIQRXJBCA18JVJC1CKLW9N9PFLLK","A1YDQJXMEUVSY7","3P7RGTLO6EZ76AO3386R8ZK9IWWKAW","","null","<img src=""img/food4.png"" style=""width:200px;border:14px solid red;"">","null","","","","","","","","","",""
"","image-keyboard-response","310","143614","0.0-373.0","3RUIQRXJBCA18JVJC1CKLW9N9PFLLK","A1YDQJXMEUVSY7","3P7RGTLO6EZ76AO3386R8ZK9IWWKAW","","279.09999999403954","img/food2.png","74","280.79999999701977","1","1","2","2","1,0.5,0,1,0.5,0,0.5,0,1","1,0.5,0,1,0.5,0,0.5,0,1","1","false",""
"","html-keyboard-response","311","143917","0.0-374.0","3RUIQRXJBCA18JVJC1CKLW9N9PFLLK","A1YDQJXMEUVSY7","3P7RGTLO6EZ76AO3386R8ZK9IWWKAW","","null","<img src=""img/food2.png"" style=""width:200px; border:14px solid green;"">","null","","","","","","","","","",""
"","image-keyboard-response","312","144014","0.0-376.0","3RUIQRXJBCA18JVJC1CKLW9N9PFLLK","A1YDQJXMEUVSY7","3P7RGTLO6EZ76AO3386R8ZK9IWWKAW","","95.09999999403954","img/food4.png","74","96.79999999701977","1","1","3","2","1,0.5,0,1,0.5,0,0.5,0,1","1,0.5,0,1,0.5,0,0.5,0,1","1","false",""
"","html-keyboard-response","313","144317","0.0-377.0","3RUIQRXJBCA18JVJC1CKLW9N9PFLLK","A1YDQJXMEUVSY7","3P7RGTLO6EZ76AO3386R8ZK9IWWKAW","","null","<img src=""img/food4.png"" style=""width:200px; border:14px solid green;"">","null","","","","","","","","","",""
"","image-keyboard-response","314","144590","0.0-379.0","3RUIQRXJBCA18JVJC1CKLW9N9PFLLK","A1YDQJXMEUVSY7","3P7RGTLO6EZ76AO3386R8ZK9IWWKAW","","269.69999998807907","img/food6.png","74","272.59999999403954","1","1","1","2","1,0.5,0,1,0.5,0,0.5,0,1","1,0.5,0,1,0.5,0,0.5,0,1","1","false",""
"","html-keyboard-response","315","144893","0.0-380.0","3RUIQRXJBCA18JVJC1CKLW9N9PFLLK","A1YDQJXMEUVSY7","3P7RGTLO6EZ76AO3386R8ZK9IWWKAW","","null","<img src=""img/food6.png"" style=""width:200px; border:14px solid green;"">","null","","","","","","","","","",""
"","image-keyboard-response","316","145005","0.0-382.0","3RUIQRXJBCA18JVJC1CKLW9N9PFLLK","A1YDQJXMEUVSY7","3P7RGTLO6EZ76AO3386R8ZK9IWWKAW","","110.70000000298023","img/food6.png","74","112","1","1","1","2","1,0.5,0,1,0.5,0,0.5,0,1","1,0.5,0,1,0.5,0,0.5,0,1","1","false",""
"","html-keyboard-response","317","145308","0.0-383.0","3RUIQRXJBCA18JVJC1CKLW9N9PFLLK","A1YDQJXMEUVSY7","3P7RGTLO6EZ76AO3386R8ZK9IWWKAW","","null","<img src=""img/food6.png"" style=""width:200px; border:14px solid green;"">","null","","","","","","","","","",""
"","image-keyboard-response","318","145430","0.0-385.0","3RUIQRXJBCA18JVJC1CKLW9N9PFLLK","A1YDQJXMEUVSY7","3P7RGTLO6EZ76AO3386R8ZK9IWWKAW","","120.40000000596046","img/food2.png","74","122.20000000298023","1","1","2","2","1,0.5,0,1,0.5,0,0.5,0,1","1,0.5,0,1,0.5,0,0.5,0,1","1","false",""
"","html-keyboard-response","319","145733","0.0-386.0","3RUIQRXJBCA18JVJC1CKLW9N9PFLLK","A1YDQJXMEUVSY7","3P7RGTLO6EZ76AO3386R8ZK9IWWKAW","","null","<img src=""img/food2.png"" style=""width:200px; border:14px solid green;"">","null","","","","","","","","","",""
"","image-keyboard-response","320","145846","0.0-388.0","3RUIQRXJBCA18JVJC1CKLW9N9PFLLK","A1YDQJXMEUVSY7","3P7RGTLO6EZ76AO3386R8ZK9IWWKAW","","111.20000000298023","img/food6.png","74","112.8999999910593","1","1","1","2","1,0.5,0,1,0.5,0,0.5,0,1","1,0.5,0,1,0.5,0,0.5,0,1","1","false",""
"","html-keyboard-response","321","146149","0.0-389.0","3RUIQRXJBCA18JVJC1CKLW9N9PFLLK","A1YDQJXMEUVSY7","3P7RGTLO6EZ76AO3386R8ZK9IWWKAW","","null","<img src=""img/food6.png"" style=""width:200px; border:14px solid green;"">","null","","","","","","","","","",""
"","image-keyboard-response","322","146246","0.0-391.0","3RUIQRXJBCA18JVJC1CKLW9N9PFLLK","A1YDQJXMEUVSY7","3P7RGTLO6EZ76AO3386R8ZK9IWWKAW","","95.20000000298023","img/food6.png","74","96.8999999910593","1","1","1","2","1,0.5,0,1,0.5,0,0.5,0,1","1,0.5,0,1,0.5,0,0.5,0,1","1","false",""
"","html-keyboard-response","323","146549","0.0-392.0","3RUIQRXJBCA18JVJC1CKLW9N9PFLLK","A1YDQJXMEUVSY7","3P7RGTLO6EZ76AO3386R8ZK9IWWKAW","","null","<img src=""img/food6.png"" style=""width:200px; border:14px solid green;"">","null","","","","","","","","","",""
"","image-keyboard-response","324","146742","0.0-394.0","3RUIQRXJBCA18JVJC1CKLW9N9PFLLK","A1YDQJXMEUVSY7","3P7RGTLO6EZ76AO3386R8ZK9IWWKAW","","191","img/food6.png","74","192.90000000596046","1","1","1","2","1,0.5,0,1,0.5,0,0.5,0,1","1,0.5,0,1,0.5,0,0.5,0,1","1","false",""
"","html-keyboard-response","325","147047","0.0-395.0","3RUIQRXJBCA18JVJC1CKLW9N9PFLLK","A1YDQJXMEUVSY7","3P7RGTLO6EZ76AO3386R8ZK9IWWKAW","","null","<img src=""img/food6.png"" style=""width:200px; border:14px solid green;"">","null","","","","","","","","","",""
"","image-keyboard-response","326","147158","0.0-397.0","3RUIQRXJBCA18JVJC1CKLW9N9PFLLK","A1YDQJXMEUVSY7","3P7RGTLO6EZ76AO3386R8ZK9IWWKAW","","109.19999998807907","img/food4.png","74","110.8999999910593","1","0","3","2","1,0.5,0,1,0.5,0,0.5,0,1","1,0.5,0,1,0.5,0,0.5,0,1","1","false",""
"","html-keyboard-response","327","147461","0.0-398.0","3RUIQRXJBCA18JVJC1CKLW9N9PFLLK","A1YDQJXMEUVSY7","3P7RGTLO6EZ76AO3386R8ZK9IWWKAW","","null","<img src=""img/food4.png"" style=""width:200px;border:14px solid red;"">","null","","","","","","","","","",""
"","image-keyboard-response","328","147478","0.0-400.0","3RUIQRXJBCA18JVJC1CKLW9N9PFLLK","A1YDQJXMEUVSY7","3P7RGTLO6EZ76AO3386R8ZK9IWWKAW","","14.799999997019768","img/food4.png","74","16.700000002980232","1","1","3","2","1,0.5,0,1,0.5,0,0.5,0,1","1,0.5,0,1,0.5,0,0.5,0,1","1","false",""
"","html-keyboard-response","329","147781","0.0-401.0","3RUIQRXJBCA18JVJC1CKLW9N9PFLLK","A1YDQJXMEUVSY7","3P7RGTLO6EZ76AO3386R8ZK9IWWKAW","","null","<img src=""img/food4.png"" style=""width:200px; border:14px solid green;"">","null","","","","","","","","","",""
"","image-keyboard-response","330","147926","0.0-403.0","3RUIQRXJBCA18JVJC1CKLW9N9PFLLK","A1YDQJXMEUVSY7","3P7RGTLO6EZ76AO3386R8ZK9IWWKAW","","143.09999999403954","img/food2.png","74","144.6000000089407","1","1","2","2","1,0.5,0,1,0.5,0,0.5,0,1","1,0.5,0,1,0.5,0,0.5,0,1","1","false",""
"","html-keyboard-response","331","148229","0.0-404.0","3RUIQRXJBCA18JVJC1CKLW9N9PFLLK","A1YDQJXMEUVSY7","3P7RGTLO6EZ76AO3386R8ZK9IWWKAW","","null","<img src=""img/food2.png"" style=""width:200px; border:14px solid green;"">","null","","","","","","","","","",""
"","image-keyboard-response","332","148254","0.0-406.0","3RUIQRXJBCA18JVJC1CKLW9N9PFLLK","A1YDQJXMEUVSY7","3P7RGTLO6EZ76AO3386R8ZK9IWWKAW","","23.099999994039536","img/food6.png","74","24.899999991059303","1","1","1","2","1,0.5,0,1,0.5,0,0.5,0,1","1,0.5,0,1,0.5,0,0.5,0,1","1","false",""
"","html-keyboard-response","333","148557","0.0-407.0","3RUIQRXJBCA18JVJC1CKLW9N9PFLLK","A1YDQJXMEUVSY7","3P7RGTLO6EZ76AO3386R8ZK9IWWKAW","","null","<img src=""img/food6.png"" style=""width:200px; border:14px solid green;"">","null","","","","","","","","","",""
"","image-keyboard-response","334","148886","0.0-409.0","3RUIQRXJBCA18JVJC1CKLW9N9PFLLK","A1YDQJXMEUVSY7","3P7RGTLO6EZ76AO3386R8ZK9IWWKAW","","326.90000000596046","img/food4.png","74","328.70000000298023","1","1","3","2","1,0.5,0,1,0.5,0,0.5,0,1","1,0.5,0,1,0.5,0,0.5,0,1","1","false",""
"","html-keyboard-response","335","149190","0.0-410.0","3RUIQRXJBCA18JVJC1CKLW9N9PFLLK","A1YDQJXMEUVSY7","3P7RGTLO6EZ76AO3386R8ZK9IWWKAW","","null","<img src=""img/food4.png"" style=""width:200px; border:14px solid green;"">","null","","","","","","","","","",""
"","image-keyboard-response","336","149214","0.0-412.0","3RUIQRXJBCA18JVJC1CKLW9N9PFLLK","A1YDQJXMEUVSY7","3P7RGTLO6EZ76AO3386R8ZK9IWWKAW","","22.299999997019768","img/food2.png","74","24","1","1","2","2","1,0.5,0,1,0.5,0,0.5,0,1","1,0.5,0,1,0.5,0,0.5,0,1","1","false",""
"","html-keyboard-response","337","149518","0.0-413.0","3RUIQRXJBCA18JVJC1CKLW9N9PFLLK","A1YDQJXMEUVSY7","3P7RGTLO6EZ76AO3386R8ZK9IWWKAW","","null","<img src=""img/food2.png"" style=""width:200px; border:14px solid green;"">","null","","","","","","","","","",""
"","image-keyboard-response","338","149790","0.0-415.0","3RUIQRXJBCA18JVJC1CKLW9N9PFLLK","A1YDQJXMEUVSY7","3P7RGTLO6EZ76AO3386R8ZK9IWWKAW","","269.90000000596046","img/food6.png","74","271.3999999910593","1","1","1","2","1,0.5,0,1,0.5,0,0.5,0,1","1,0.5,0,1,0.5,0,0.5,0,1","1","false",""
"","html-keyboard-response","339","150092","0.0-416.0","3RUIQRXJBCA18JVJC1CKLW9N9PFLLK","A1YDQJXMEUVSY7","3P7RGTLO6EZ76AO3386R8ZK9IWWKAW","","null","<img src=""img/food6.png"" style=""width:200px; border:14px solid green;"">","null","","","","","","","","","",""
"","image-keyboard-response","340","150262","0.0-418.0","3RUIQRXJBCA18JVJC1CKLW9N9PFLLK","A1YDQJXMEUVSY7","3P7RGTLO6EZ76AO3386R8ZK9IWWKAW","","167.70000000298023","img/food6.png","74","169.5","1","1","1","2","1,0.5,0,1,0.5,0,0.5,0,1","1,0.5,0,1,0.5,0,0.5,0,1","1","false",""
"","html-keyboard-response","341","150566","0.0-419.0","3RUIQRXJBCA18JVJC1CKLW9N9PFLLK","A1YDQJXMEUVSY7","3P7RGTLO6EZ76AO3386R8ZK9IWWKAW","","null","<img src=""img/food6.png"" style=""width:200px; border:14px solid green;"">","null","","","","","","","","","",""
"","image-keyboard-response","342","150838","0.0-421.0","3RUIQRXJBCA18JVJC1CKLW9N9PFLLK","A1YDQJXMEUVSY7","3P7RGTLO6EZ76AO3386R8ZK9IWWKAW","","270","img/food2.png","74","271.80000001192093","1","1","2","2","1,0.5,0,1,0.5,0,0.5,0,1","1,0.5,0,1,0.5,0,0.5,0,1","1","false",""
"","html-keyboard-response","343","151141","0.0-422.0","3RUIQRXJBCA18JVJC1CKLW9N9PFLLK","A1YDQJXMEUVSY7","3P7RGTLO6EZ76AO3386R8ZK9IWWKAW","","null","<img src=""img/food2.png"" style=""width:200px; border:14px solid green;"">","null","","","","","","","","","",""
"","image-keyboard-response","344","151144","0.0-424.0","3RUIQRXJBCA18JVJC1CKLW9N9PFLLK","A1YDQJXMEUVSY7","3P7RGTLO6EZ76AO3386R8ZK9IWWKAW","","0.20000000298023224","img/food2.png","74","1.800000011920929","1","1","2","2","1,0.5,0,1,0.5,0,0.5,0,1","1,0.5,0,1,0.5,0,0.5,0,1","1","false",""
"","html-keyboard-response","345","151448","0.0-425.0","3RUIQRXJBCA18JVJC1CKLW9N9PFLLK","A1YDQJXMEUVSY7","3P7RGTLO6EZ76AO3386R8ZK9IWWKAW","","null","<img src=""img/food2.png"" style=""width:200px; border:14px solid green;"">","null","","","","","","","","","",""
"","image-keyboard-response","346","151462","0.0-427.0","3RUIQRXJBCA18JVJC1CKLW9N9PFLLK","A1YDQJXMEUVSY7","3P7RGTLO6EZ76AO3386R8ZK9IWWKAW","","12.199999988079071","img/food6.png","74","13.899999991059303","1","1","1","2","1,0.5,0,1,0.5,0,0.5,0,1","1,0.5,0,1,0.5,0,0.5,0,1","1","false",""
"","html-keyboard-response","347","151765","0.0-428.0","3RUIQRXJBCA18JVJC1CKLW9N9PFLLK","A1YDQJXMEUVSY7","3P7RGTLO6EZ76AO3386R8ZK9IWWKAW","","null","<img src=""img/food6.png"" style=""width:200px; border:14px solid green;"">","null","","","","","","","","","",""
"","image-keyboard-response","348","151974","0.0-430.0","3RUIQRXJBCA18JVJC1CKLW9N9PFLLK","A1YDQJXMEUVSY7","3P7RGTLO6EZ76AO3386R8ZK9IWWKAW","","207.20000000298023","img/food4.png","74","208.90000000596046","1","0","3","2","1,0.5,0,1,0.5,0,0.5,0,1","1,0.5,0,1,0.5,0,0.5,0,1","1","false",""
"","html-keyboard-response","349","152278","0.0-431.0","3RUIQRXJBCA18JVJC1CKLW9N9PFLLK","A1YDQJXMEUVSY7","3P7RGTLO6EZ76AO3386R8ZK9IWWKAW","","null","<img src=""img/food4.png"" style=""width:200px;border:14px solid red;"">","null","","","","","","","","","",""
"","image-keyboard-response","350","152486","0.0-433.0","3RUIQRXJBCA18JVJC1CKLW9N9PFLLK","A1YDQJXMEUVSY7","3P7RGTLO6EZ76AO3386R8ZK9IWWKAW","","206.29999999701977","img/food2.png","74","208.20000000298023","1","1","2","2","1,0.5,0,1,0.5,0,0.5,0,1","1,0.5,0,1,0.5,0,0.5,0,1","1","false",""
"","html-keyboard-response","351","152795","0.0-434.0","3RUIQRXJBCA18JVJC1CKLW9N9PFLLK","A1YDQJXMEUVSY7","3P7RGTLO6EZ76AO3386R8ZK9IWWKAW","","null","<img src=""img/food2.png"" style=""width:200px; border:14px solid green;"">","null","","","","","","","","","",""
"","image-keyboard-response","352","153054","0.0-436.0","3RUIQRXJBCA18JVJC1CKLW9N9PFLLK","A1YDQJXMEUVSY7","3P7RGTLO6EZ76AO3386R8ZK9IWWKAW","","256.79999999701977","img/food2.png","74","258.80000001192093","1","1","2","2","1,0.5,0,1,0.5,0,0.5,0,1","1,0.5,0,1,0.5,0,0.5,0,1","1","false",""
"","html-keyboard-response","353","153357","0.0-437.0","3RUIQRXJBCA18JVJC1CKLW9N9PFLLK","A1YDQJXMEUVSY7","3P7RGTLO6EZ76AO3386R8ZK9IWWKAW","","null","<img src=""img/food2.png"" style=""width:200px; border:14px solid green;"">","null","","","","","","","","","",""
"","image-keyboard-response","354","153382","0.0-439.0","3RUIQRXJBCA18JVJC1CKLW9N9PFLLK","A1YDQJXMEUVSY7","3P7RGTLO6EZ76AO3386R8ZK9IWWKAW","","23.400000005960464","img/food2.png","74","25","1","1","2","2","1,0.5,0,1,0.5,0,0.5,0,1","1,0.5,0,1,0.5,0,0.5,0,1","1","false",""
"","html-keyboard-response","355","153685","0.0-440.0","3RUIQRXJBCA18JVJC1CKLW9N9PFLLK","A1YDQJXMEUVSY7","3P7RGTLO6EZ76AO3386R8ZK9IWWKAW","","null","<img src=""img/food2.png"" style=""width:200px; border:14px solid green;"">","null","","","","","","","","","",""
"","image-keyboard-response","356","153847","0.0-442.0","3RUIQRXJBCA18JVJC1CKLW9N9PFLLK","A1YDQJXMEUVSY7","3P7RGTLO6EZ76AO3386R8ZK9IWWKAW","","159.20000000298023","img/food6.png","74","161.69999998807907","1","1","1","2","1,0.5,0,1,0.5,0,0.5,0,1","1,0.5,0,1,0.5,0,0.5,0,1","1","false",""
"","html-keyboard-response","357","154150","0.0-443.0","3RUIQRXJBCA18JVJC1CKLW9N9PFLLK","A1YDQJXMEUVSY7","3P7RGTLO6EZ76AO3386R8ZK9IWWKAW","","null","<img src=""img/food6.png"" style=""width:200px; border:14px solid green;"">","null","","","","","","","","","",""
"","image-keyboard-response","358","154414","0.0-445.0","3RUIQRXJBCA18JVJC1CKLW9N9PFLLK","A1YDQJXMEUVSY7","3P7RGTLO6EZ76AO3386R8ZK9IWWKAW","","261.80000001192093","img/food2.png","74","263.5","1","1","2","2","1,0.5,0,1,0.5,0,0.5,0,1","1,0.5,0,1,0.5,0,0.5,0,1","1","false",""
"","html-keyboard-response","359","154717","0.0-446.0","3RUIQRXJBCA18JVJC1CKLW9N9PFLLK","A1YDQJXMEUVSY7","3P7RGTLO6EZ76AO3386R8ZK9IWWKAW","","null","<img src=""img/food2.png"" style=""width:200px; border:14px solid green;"">","null","","","","","","","","","",""
"","image-keyboard-response","360","154894","0.0-448.0","3RUIQRXJBCA18JVJC1CKLW9N9PFLLK","A1YDQJXMEUVSY7","3P7RGTLO6EZ76AO3386R8ZK9IWWKAW","","175.20000000298023","img/food6.png","74","176.8999999910593","1","1","1","2","1,0.5,0,1,0.5,0,0.5,0,1","1,0.5,0,1,0.5,0,0.5,0,1","1","false",""
"","html-keyboard-response","361","155198","0.0-449.0","3RUIQRXJBCA18JVJC1CKLW9N9PFLLK","A1YDQJXMEUVSY7","3P7RGTLO6EZ76AO3386R8ZK9IWWKAW","","null","<img src=""img/food6.png"" style=""width:200px; border:14px solid green;"">","null","","","","","","","","","",""
"","image-keyboard-response","362","155422","0.0-451.0","3RUIQRXJBCA18JVJC1CKLW9N9PFLLK","A1YDQJXMEUVSY7","3P7RGTLO6EZ76AO3386R8ZK9IWWKAW","","221.70000000298023","img/food6.png","74","223.5","1","1","1","2","1,0.5,0,1,0.5,0,0.5,0,1","1,0.5,0,1,0.5,0,0.5,0,1","1","false",""
"","html-keyboard-response","363","155725","0.0-452.0","3RUIQRXJBCA18JVJC1CKLW9N9PFLLK","A1YDQJXMEUVSY7","3P7RGTLO6EZ76AO3386R8ZK9IWWKAW","","null","<img src=""img/food6.png"" style=""width:200px; border:14px solid green;"">","null","","","","","","","","","",""
"","instructions","364","159114","0.0-454.0","3RUIQRXJBCA18JVJC1CKLW9N9PFLLK","A1YDQJXMEUVSY7","3P7RGTLO6EZ76AO3386R8ZK9IWWKAW","[{""page_index"":0,""viewing_time"":3388}]","3388.0999999940395","","","","","","","","","","","",""
"","survey-text","365","168425","0.0-455.0","3RUIQRXJBCA18JVJC1CKLW9N9PFLLK","A1YDQJXMEUVSY7","3P7RGTLO6EZ76AO3386R8ZK9IWWKAW","","9307.29999999702","","","","","","","","","","","","{""Q0"":""A1YDQJXMEUVSY7""}"
