"success","trial_type","trial_index","time_elapsed","internal_node_id","assignmentID","mturkID","hitID","view_history","rt","stimulus","key_press","reactionTime","a","r","s","cond","reward_cond","reward_cond_actual","reward_matrix_idx","warning","responses"
"true","fullscreen","0","4300","0.0-0.0","","","","","","","","","","","","","","","","",""
"","instructions","1","13613","0.0-1.0","","","","[{""page_index"":0,""viewing_time"":2335.100000023842},{""page_index"":1,""viewing_time"":879.7000000476837},{""page_index"":2,""viewing_time"":816.0999999046326},{""page_index"":3,""viewing_time"":1511.9000000953674},{""page_index"":4,""viewing_time"":1784.0999999046326},{""page_index"":5,""viewing_time"":1000},{""page_index"":6,""viewing_time"":984}]","9311.100000023842","","","","","","","","","","","",""
"","image-keyboard-response","2","14598","0.0-2.0","","","","","983.7000000476837","img/food5.png","74","985.1000000238419","1","0","2","1","1,0.7,0,1,0.7,0,0.7,0,1","0,1,0.7,0,1,0.7,1,0.7,0","3","",""
"","html-keyboard-response","3","14913","0.0-3.0","","","","","null","<img src=""img/food5.png"" style=""width:200px;border:14px solid red;"">","null","","","","","","","","","",""
"","image-keyboard-response","4","15030","0.0-4.0","","","","","115.5","img/food2.png","76","116.70000004768372","3","1","1","1","1,0.7,0,1,0.7,0,0.7,0,1","0,1,0.7,0,1,0.7,1,0.7,0","3","",""
"","html-keyboard-response","5","15333","0.0-5.0","","","","","null","<img src=""img/food2.png"" style=""width:200px; border:14px solid green;"">","null","","","","","","","","","",""
"","image-keyboard-response","6","15814","0.0-6.0","","","","","479.39999997615814","img/food5.png","75","480.7000000476837","2","1","2","1","1,0.7,0,1,0.7,0,0.7,0,1","0,1,0.7,0,1,0.7,1,0.7,0","3","",""
"","html-keyboard-response","7","16133","0.0-7.0","","","","","null","<img src=""img/food5.png"" style=""width:200px; border:14px solid green;"">","null","","","","","","","","","",""
"","image-keyboard-response","8","16646","0.0-8.0","","","","","512","img/food2.png","75","513.2000000476837","2","1","1","1","1,0.7,0,1,0.7,0,0.7,0,1","0,1,0.7,0,1,0.7,1,0.7,0","3","",""
"","html-keyboard-response","9","16963","0.0-9.0","","","","","null","<img src=""img/food2.png"" style=""width:200px; border:14px solid green;"">","null","","","","","","","","","",""
"","image-keyboard-response","10","17454","0.0-10.0","","","","","489.39999997615814","img/food2.png","76","490.8000000715256","3","1","1","1","1,0.7,0,1,0.7,0,0.7,0,1","0,1,0.7,0,1,0.7,1,0.7,0","3","",""
"","html-keyboard-response","11","17763","0.0-11.0","","","","","null","<img src=""img/food2.png"" style=""width:200px; border:14px solid green;"">","null","","","","","","","","","",""
"","image-keyboard-response","12","18206","0.0-12.0","","","","","441.8000000715256","img/food2.png","75","442.6999999284744","2","1","1","1","1,0.7,0,1,0.7,0,0.7,0,1","0,1,0.7,0,1,0.7,1,0.7,0","3","",""
"","html-keyboard-response","13","18512","0.0-13.0","","","","","null","<img src=""img/food2.png"" style=""width:200px; border:14px solid green;"">","null","","","","","","","","","",""
"","image-keyboard-response","14","18854","0.0-14.0","","","","","339.7999999523163","img/food4.png","75","340.89999997615814","2","1","3","1","1,0.7,0,1,0.7,0,0.7,0,1","0,1,0.7,0,1,0.7,1,0.7,0","3","",""
"","html-keyboard-response","15","19163","0.0-15.0","","","","","null","<img src=""img/food4.png"" style=""width:200px; border:14px solid green;"">","null","","","","","","","","","",""
"","image-keyboard-response","16","19678","0.0-16.0","","","","","513.7999999523163","img/food2.png","75","514.7999999523163","2","1","1","1","1,0.7,0,1,0.7,0,0.7,0,1","0,1,0.7,0,1,0.7,1,0.7,0","3","",""
"","html-keyboard-response","17","19983","0.0-17.0","","","","","null","<img src=""img/food2.png"" style=""width:200px; border:14px solid green;"">","null","","","","","","","","","",""
"","image-keyboard-response","18","20398","0.0-18.0","","","","","413.5","img/food4.png","75","414.59999990463257","2","1","3","1","1,0.7,0,1,0.7,0,0.7,0,1","0,1,0.7,0,1,0.7,1,0.7,0","3","",""
"","html-keyboard-response","19","20712","0.0-19.0","","","","","null","<img src=""img/food4.png"" style=""width:200px; border:14px solid green;"">","null","","","","","","","","","",""
"","image-keyboard-response","20","20990","0.0-20.0","","","","","275.8000000715256","img/food2.png","75","277","2","1","1","1","1,0.7,0,1,0.7,0,0.7,0,1","0,1,0.7,0,1,0.7,1,0.7,0","3","",""
"","html-keyboard-response","21","21300","0.0-21.0","","","","","null","<img src=""img/food2.png"" style=""width:200px; border:14px solid green;"">","null","","","","","","","","","",""
"","image-keyboard-response","22","21582","0.0-22.0","","","","","280.60000002384186","img/food5.png","76","281.6999999284744","3","1","2","1","1,0.7,0,1,0.7,0,0.7,0,1","0,1,0.7,0,1,0.7,1,0.7,0","3","",""
"","html-keyboard-response","23","21893","0.0-23.0","","","","","null","<img src=""img/food5.png"" style=""width:200px; border:14px solid green;"">","null","","","","","","","","","",""
"","image-keyboard-response","24","22230","0.0-24.0","","","","","335.7000000476837","img/food2.png","76","336.89999997615814","3","1","1","1","1,0.7,0,1,0.7,0,0.7,0,1","0,1,0.7,0,1,0.7,1,0.7,0","3","",""
"","html-keyboard-response","25","22543","0.0-25.0","","","","","null","<img src=""img/food2.png"" style=""width:200px; border:14px solid green;"">","null","","","","","","","","","",""
"","image-keyboard-response","26","22798","0.0-26.0","","","","","253.60000002384186","img/food5.png","76","254.79999995231628","3","1","2","1","1,0.7,0,1,0.7,0,0.7,0,1","0,1,0.7,0,1,0.7,1,0.7,0","3","",""
"","html-keyboard-response","27","23113","0.0-27.0","","","","","null","<img src=""img/food5.png"" style=""width:200px; border:14px solid green;"">","null","","","","","","","","","",""
"","image-keyboard-response","28","23845","0.0-28.0","","","","","731.3999999761581","img/food5.png","75","732.3999999761581","2","1","2","1","1,0.7,0,1,0.7,0,0.7,0,1","0,1,0.7,0,1,0.7,1,0.7,0","3","",""
"","html-keyboard-response","29","24147","0.0-29.0","","","","","null","<img src=""img/food5.png"" style=""width:200px; border:14px solid green;"">","null","","","","","","","","","",""
"","image-keyboard-response","30","24454","0.0-30.0","","","","","305.39999997615814","img/food4.png","75","306.39999997615814","2","1","3","1","1,0.7,0,1,0.7,0,0.7,0,1","0,1,0.7,0,1,0.7,1,0.7,0","3","",""
"","html-keyboard-response","31","24757","0.0-31.0","","","","","null","<img src=""img/food4.png"" style=""width:200px; border:14px solid green;"">","null","","","","","","","","","",""
"","image-keyboard-response","32","24925","0.0-32.0","","","","","167.39999997615814","img/food2.png","76","168.40000009536743","3","1","1","1","1,0.7,0,1,0.7,0,0.7,0,1","0,1,0.7,0,1,0.7,1,0.7,0","3","",""
"","html-keyboard-response","33","25227","0.0-33.0","","","","","null","<img src=""img/food2.png"" style=""width:200px; border:14px solid green;"">","null","","","","","","","","","",""
"","image-keyboard-response","34","25374","0.0-34.0","","","","","144.79999995231628","img/food5.png","75","145.89999997615814","2","1","2","1","1,0.7,0,1,0.7,0,0.7,0,1","0,1,0.7,0,1,0.7,1,0.7,0","3","",""
"","html-keyboard-response","35","25675","0.0-35.0","","","","","null","<img src=""img/food5.png"" style=""width:200px; border:14px solid green;"">","null","","","","","","","","","",""
"","image-keyboard-response","36","25821","0.0-36.0","","","","","144.79999995231628","img/food2.png","76","145.89999997615814","3","1","1","1","1,0.7,0,1,0.7,0,0.7,0,1","0,1,0.7,0,1,0.7,1,0.7,0","3","",""
"","html-keyboard-response","37","26123","0.0-37.0","","","","","null","<img src=""img/food2.png"" style=""width:200px; border:14px solid green;"">","null","","","","","","","","","",""
"","image-keyboard-response","38","26318","0.0-38.0","","","","","193.39999997615814","img/food4.png","75","194.5","2","0","3","1","1,0.7,0,1,0.7,0,0.7,0,1","0,1,0.7,0,1,0.7,1,0.7,0","3","",""
"","html-keyboard-response","39","26619","0.0-39.0","","","","","null","<img src=""img/food4.png"" style=""width:200px;border:14px solid red;"">","null","","","","","","","","","",""
"","image-keyboard-response","40","27085","0.0-40.0","","","","","464.89999997615814","img/food2.png","74","466","1","0","1","1","1,0.7,0,1,0.7,0,0.7,0,1","0,1,0.7,0,1,0.7,1,0.7,0","3","",""
"","html-keyboard-response","41","27387","0.0-41.0","","","","","null","<img src=""img/food2.png"" style=""width:200px;border:14px solid red;"">","null","","","","","","","","","",""
"","image-keyboard-response","42","27574","0.0-42.0","","","","","184.89999997615814","img/food5.png","76","186","3","0","2","1","1,0.7,0,1,0.7,0,0.7,0,1","0,1,0.7,0,1,0.7,1,0.7,0","3","",""
"","html-keyboard-response","43","27875","0.0-43.0","","","","","null","<img src=""img/food5.png"" style=""width:200px;border:14px solid red;"">","null","","","","","","","","","",""
"","image-keyboard-response","44","27966","0.0-44.0","","","","","89.10000002384186","img/food5.png","75","90.09999990463257","2","1","2","1","1,0.7,0,1,0.7,0,0.7,0,1","0,1,0.7,0,1,0.7,1,0.7,0","3","",""
"","html-keyboard-response","45","28268","0.0-45.0","","","","","null","<img src=""img/food5.png"" style=""width:200px; border:14px solid green;"">","null","","","","","","","","","",""
"","image-keyboard-response","46","28550","0.0-46.0","","","","","280.7000000476837","img/food4.png","76","281.7999999523163","3","0","3","1","1,0.7,0,1,0.7,0,0.7,0,1","0,1,0.7,0,1,0.7,1,0.7,0","3","",""
"","html-keyboard-response","47","28851","0.0-47.0","","","","","null","<img src=""img/food4.png"" style=""width:200px;border:14px solid red;"">","null","","","","","","","","","",""
"","image-keyboard-response","48","29125","0.0-48.0","","","","","273","img/food4.png","75","273.89999997615814","2","0","3","1","1,0.7,0,1,0.7,0,0.7,0,1","0,1,0.7,0,1,0.7,1,0.7,0","3","",""
"","html-keyboard-response","49","29427","0.0-49.0","","","","","null","<img src=""img/food4.png"" style=""width:200px;border:14px solid red;"">","null","","","","","","","","","",""
"","image-keyboard-response","50","29557","0.0-50.0","","","","","129.29999995231628","img/food5.png","75","130.30000007152557","2","1","2","1","1,0.7,0,1,0.7,0,0.7,0,1","0,1,0.7,0,1,0.7,1,0.7,0","3","",""
"","html-keyboard-response","51","29859","0.0-51.0","","","","","null","<img src=""img/food5.png"" style=""width:200px; border:14px solid green;"">","null","","","","","","","","","",""
"","image-keyboard-response","52","30261","0.0-52.0","","","","","400.7000000476837","img/food2.png","76","401.8000000715256","3","0","1","1","1,0.7,0,1,0.7,0,0.7,0,1","0,1,0.7,0,1,0.7,1,0.7,0","3","",""
"","html-keyboard-response","53","30563","0.0-53.0","","","","","null","<img src=""img/food2.png"" style=""width:200px;border:14px solid red;"">","null","","","","","","","","","",""
"","image-keyboard-response","54","30877","0.0-54.0","","","","","312.89999997615814","img/food5.png","75","314","2","1","2","1","1,0.7,0,1,0.7,0,0.7,0,1","0,1,0.7,0,1,0.7,1,0.7,0","3","",""
"","html-keyboard-response","55","31180","0.0-55.0","","","","","null","<img src=""img/food5.png"" style=""width:200px; border:14px solid green;"">","null","","","","","","","","","",""
"","image-keyboard-response","56","31541","0.0-56.0","","","","","360","img/food2.png","75","361.10000002384186","2","1","1","1","1,0.7,0,1,0.7,0,0.7,0,1","0,1,0.7,0,1,0.7,1,0.7,0","3","",""
"","html-keyboard-response","57","31844","0.0-57.0","","","","","null","<img src=""img/food2.png"" style=""width:200px; border:14px solid green;"">","null","","","","","","","","","",""
"","image-keyboard-response","58","32293","0.0-58.0","","","","","448.5","img/food4.png","75","449.7000000476837","2","0","3","1","1,0.7,0,1,0.7,0,0.7,0,1","0,1,0.7,0,1,0.7,1,0.7,0","3","",""
"","html-keyboard-response","59","32595","0.0-59.0","","","","","null","<img src=""img/food4.png"" style=""width:200px;border:14px solid red;"">","null","","","","","","","","","",""
"","image-keyboard-response","60","32901","0.0-60.0","","","","","304.89999997615814","img/food2.png","74","305.89999997615814","1","0","1","1","1,0.7,0,1,0.7,0,0.7,0,1","0,1,0.7,0,1,0.7,1,0.7,0","3","",""
"","html-keyboard-response","61","33203","0.0-61.0","","","","","null","<img src=""img/food2.png"" style=""width:200px;border:14px solid red;"">","null","","","","","","","","","",""
"","image-keyboard-response","62","33662","0.0-62.0","","","","","457.3000000715256","img/food5.png","76","458.2999999523163","3","0","2","1","1,0.7,0,1,0.7,0,0.7,0,1","0,1,0.7,0,1,0.7,1,0.7,0","3","",""
"","html-keyboard-response","63","33965","0.0-63.0","","","","","null","<img src=""img/food5.png"" style=""width:200px;border:14px solid red;"">","null","","","","","","","","","",""
"","image-keyboard-response","64","34397","0.0-64.0","","","","","431.5","img/food5.png","76","432.5","3","1","2","1","1,0.7,0,1,0.7,0,0.7,0,1","0,1,0.7,0,1,0.7,1,0.7,0","3","",""
"","html-keyboard-response","65","34699","0.0-65.0","","","","","null","<img src=""img/food5.png"" style=""width:200px; border:14px solid green;"">","null","","","","","","","","","",""
"","image-keyboard-response","66","35221","0.0-66.0","","","","","520.7000000476837","img/food5.png","75","521.8000000715256","2","1","2","1","1,0.7,0,1,0.7,0,0.7,0,1","0,1,0.7,0,1,0.7,1,0.7,0","3","",""
"","html-keyboard-response","67","35523","0.0-67.0","","","","","null","<img src=""img/food5.png"" style=""width:200px; border:14px solid green;"">","null","","","","","","","","","",""
"","image-keyboard-response","68","35677","0.0-68.0","","","","","153","img/food2.png","75","154.10000002384186","2","1","1","1","1,0.7,0,1,0.7,0,0.7,0,1","0,1,0.7,0,1,0.7,1,0.7,0","3","",""
"","html-keyboard-response","69","35980","0.0-69.0","","","","","null","<img src=""img/food2.png"" style=""width:200px; border:14px solid green;"">","null","","","","","","","","","",""
"","image-keyboard-response","70","36517","0.0-70.0","","","","","536.2000000476837","img/food5.png","75","537.2999999523163","2","1","2","1","1,0.7,0,1,0.7,0,0.7,0,1","0,1,0.7,0,1,0.7,1,0.7,0","3","",""
"","html-keyboard-response","71","36819","0.0-71.0","","","","","null","<img src=""img/food5.png"" style=""width:200px; border:14px solid green;"">","null","","","","","","","","","",""
"","image-keyboard-response","72","37277","0.0-72.0","","","","","456.7000000476837","img/food4.png","75","457.7000000476837","2","1","3","1","1,0.7,0,1,0.7,0,0.7,0,1","0,1,0.7,0,1,0.7,1,0.7,0","3","",""
"","html-keyboard-response","73","37579","0.0-73.0","","","","","null","<img src=""img/food4.png"" style=""width:200px; border:14px solid green;"">","null","","","","","","","","","",""
"","image-keyboard-response","74","38445","0.0-74.0","","","","","865","img/food5.png","76","866","3","1","2","1","1,0.7,0,1,0.7,0,0.7,0,1","0,1,0.7,0,1,0.7,1,0.7,0","3","",""
"","html-keyboard-response","75","38748","0.0-75.0","","","","","null","<img src=""img/food5.png"" style=""width:200px; border:14px solid green;"">","null","","","","","","","","","",""
"","image-keyboard-response","76","39525","0.0-76.0","","","","","776.3000000715256","img/food4.png","74","777.5","1","1","3","1","1,0.7,0,1,0.7,0,0.7,0,1","0,1,0.7,0,1,0.7,1,0.7,0","3","",""
"","html-keyboard-response","77","39828","0.0-77.0","","","","","null","<img src=""img/food4.png"" style=""width:200px; border:14px solid green;"">","null","","","","","","","","","",""
"","image-keyboard-response","78","40341","0.0-78.0","","","","","512.4000000953674","img/food4.png","74","513.6000000238419","1","1","3","1","1,0.7,0,1,0.7,0,0.7,0,1","0,1,0.7,0,1,0.7,1,0.7,0","3","",""
"","html-keyboard-response","79","40643","0.0-79.0","","","","","null","<img src=""img/food4.png"" style=""width:200px; border:14px solid green;"">","null","","","","","","","","","",""
"","image-keyboard-response","80","41725","0.0-80.0","","","","","1080.8000000715256","img/food2.png","74","1081.8999999761581","1","0","1","1","1,0.7,0,1,0.7,0,0.7,0,1","0,1,0.7,0,1,0.7,1,0.7,0","3","",""
"","html-keyboard-response","81","42027","0.0-81.0","","","","","null","<img src=""img/food2.png"" style=""width:200px;border:14px solid red;"">","null","","","","","","","","","",""
"","image-keyboard-response","82","42277","0.0-82.0","","","","","248.89999997615814","img/food4.png","75","250","2","0","3","1","1,0.7,0,1,0.7,0,0.7,0,1","0,1,0.7,0,1,0.7,1,0.7,0","3","",""
"","html-keyboard-response","83","42579","0.0-83.0","","","","","null","<img src=""img/food4.png"" style=""width:200px;border:14px solid red;"">","null","","","","","","","","","",""
"","image-keyboard-response","84","42837","0.0-84.0","","","","","256.7000000476837","img/food2.png","74","257.8000000715256","1","0","1","1","1,0.7,0,1,0.7,0,0.7,0,1","0,1,0.7,0,1,0.7,1,0.7,0","3","",""
"","html-keyboard-response","85","43139","0.0-85.0","","","","","null","<img src=""img/food2.png"" style=""width:200px;border:14px solid red;"">","null","","","","","","","","","",""
"","image-keyboard-response","86","43533","0.0-86.0","","","","","392.8000000715256","img/food4.png","76","393.89999997615814","3","0","3","1","1,0.7,0,1,0.7,0,0.7,0,1","0,1,0.7,0,1,0.7,1,0.7,0","3","",""
"","html-keyboard-response","87","43835","0.0-87.0","","","","","null","<img src=""img/food4.png"" style=""width:200px;border:14px solid red;"">","null","","","","","","","","","",""
"","image-keyboard-response","88","44237","0.0-88.0","","","","","400.89999997615814","img/food4.png","74","402.1999999284744","1","1","3","1","1,0.7,0,1,0.7,0,0.7,0,1","0,1,0.7,0,1,0.7,1,0.7,0","3","",""
"","html-keyboard-response","89","44539","0.0-89.0","","","","","null","<img src=""img/food4.png"" style=""width:200px; border:14px solid green;"">","null","","","","","","","","","",""
"","image-keyboard-response","90","45125","0.0-90.0","","","","","584.5","img/food2.png","76","585.7000000476837","3","1","1","1","1,0.7,0,1,0.7,0,0.7,0,1","0,1,0.7,0,1,0.7,1,0.7,0","3","",""
"","html-keyboard-response","91","45427","0.0-91.0","","","","","null","<img src=""img/food2.png"" style=""width:200px; border:14px solid green;"">","null","","","","","","","","","",""
"","image-keyboard-response","92","45997","0.0-92.0","","","","","568.7000000476837","img/food4.png","74","569.7000000476837","1","1","3","1","1,0.7,0,1,0.7,0,0.7,0,1","0,1,0.7,0,1,0.7,1,0.7,0","3","",""
"","html-keyboard-response","93","46299","0.0-93.0","","","","","null","<img src=""img/food4.png"" style=""width:200px; border:14px solid green;"">","null","","","","","","","","","",""
"","image-keyboard-response","94","46909","0.0-94.0","","","","","608.7000000476837","img/food4.png","74","609.7999999523163","1","1","3","1","1,0.7,0,1,0.7,0,0.7,0,1","0,1,0.7,0,1,0.7,1,0.7,0","3","",""
"","html-keyboard-response","95","47211","0.0-95.0","","","","","null","<img src=""img/food4.png"" style=""width:200px; border:14px solid green;"">","null","","","","","","","","","",""
"","image-keyboard-response","96","47885","0.0-96.0","","","","","672.5","img/food5.png","75","673.5","2","1","2","1","1,0.7,0,1,0.7,0,0.7,0,1","0,1,0.7,0,1,0.7,1,0.7,0","3","",""
"","html-keyboard-response","97","48187","0.0-97.0","","","","","null","<img src=""img/food5.png"" style=""width:200px; border:14px solid green;"">","null","","","","","","","","","",""
"","image-keyboard-response","98","49437","0.0-98.0","","","","","1248.8999999761581","img/food2.png","76","1250","3","1","1","1","1,0.7,0,1,0.7,0,0.7,0,1","0,1,0.7,0,1,0.7,1,0.7,0","3","",""
"","html-keyboard-response","99","49740","0.0-99.0","","","","","null","<img src=""img/food2.png"" style=""width:200px; border:14px solid green;"">","null","","","","","","","","","",""
"","image-keyboard-response","100","50325","0.0-100.0","","","","","583.8000000715256","img/food4.png","74","585","1","1","3","1","1,0.7,0,1,0.7,0,0.7,0,1","0,1,0.7,0,1,0.7,1,0.7,0","3","",""
"","html-keyboard-response","101","50627","0.0-101.0","","","","","null","<img src=""img/food4.png"" style=""width:200px; border:14px solid green;"">","null","","","","","","","","","",""
"","image-keyboard-response","102","51701","0.0-102.0","","","","","1072.8000000715256","img/food2.png","76","1073.7999999523163","3","1","1","1","1,0.7,0,1,0.7,0,0.7,0,1","0,1,0.7,0,1,0.7,1,0.7,0","3","",""
"","html-keyboard-response","103","52003","0.0-103.0","","","","","null","<img src=""img/food2.png"" style=""width:200px; border:14px solid green;"">","null","","","","","","","","","",""
"","image-keyboard-response","104","52725","0.0-104.0","","","","","720.8000000715256","img/food4.png","74","721.8999999761581","1","1","3","1","1,0.7,0,1,0.7,0,0.7,0,1","0,1,0.7,0,1,0.7,1,0.7,0","3","",""
"","html-keyboard-response","105","53027","0.0-105.0","","","","","null","<img src=""img/food4.png"" style=""width:200px; border:14px solid green;"">","null","","","","","","","","","",""
"","image-keyboard-response","106","53781","0.0-106.0","","","","","752.8000000715256","img/food2.png","76","753.7999999523163","3","0","1","1","1,0.7,0,1,0.7,0,0.7,0,1","0,1,0.7,0,1,0.7,1,0.7,0","3","",""
"","html-keyboard-response","107","54083","0.0-107.0","","","","","null","<img src=""img/food2.png"" style=""width:200px;border:14px solid red;"">","null","","","","","","","","","",""
"","image-keyboard-response","108","54814","0.0-108.0","","","","","729.2999999523163","img/food4.png","74","730.4000000953674","1","1","3","1","1,0.7,0,1,0.7,0,0.7,0,1","0,1,0.7,0,1,0.7,1,0.7,0","3","",""
"","html-keyboard-response","109","55116","0.0-109.0","","","","","null","<img src=""img/food4.png"" style=""width:200px; border:14px solid green;"">","null","","","","","","","","","",""
"","image-keyboard-response","110","55958","0.0-110.0","","","","","840.7999999523163","img/food4.png","74","841.8000000715256","1","1","3","1","1,0.7,0,1,0.7,0,0.7,0,1","0,1,0.7,0,1,0.7,1,0.7,0","3","",""
"","html-keyboard-response","111","56260","0.0-111.0","","","","","null","<img src=""img/food4.png"" style=""width:200px; border:14px solid green;"">","null","","","","","","","","","",""
"","image-keyboard-response","112","56902","0.0-112.0","","","","","641.1999999284744","img/food5.png","75","642.3999999761581","2","1","2","1","1,0.7,0,1,0.7,0,0.7,0,1","0,1,0.7,0,1,0.7,1,0.7,0","3","",""
"","html-keyboard-response","113","57205","0.0-113.0","","","","","null","<img src=""img/food5.png"" style=""width:200px; border:14px solid green;"">","null","","","","","","","","","",""
"","image-keyboard-response","114","57973","0.0-114.0","","","","","767.3999999761581","img/food2.png","76","768.3999999761581","3","1","1","1","1,0.7,0,1,0.7,0,0.7,0,1","0,1,0.7,0,1,0.7,1,0.7,0","3","",""
"","html-keyboard-response","115","58275","0.0-115.0","","","","","null","<img src=""img/food2.png"" style=""width:200px; border:14px solid green;"">","null","","","","","","","","","",""
"","image-keyboard-response","116","59029","0.0-116.0","","","","","752.7000000476837","img/food4.png","74","753.7999999523163","1","1","3","1","1,0.7,0,1,0.7,0,0.7,0,1","0,1,0.7,0,1,0.7,1,0.7,0","3","",""
"","html-keyboard-response","117","59331","0.0-117.0","","","","","null","<img src=""img/food4.png"" style=""width:200px; border:14px solid green;"">","null","","","","","","","","","",""
"","image-keyboard-response","118","60141","0.0-118.0","","","","","808.6000000238419","img/food5.png","75","809.8000000715256","2","1","2","1","1,0.7,0,1,0.7,0,0.7,0,1","0,1,0.7,0,1,0.7,1,0.7,0","3","",""
"","html-keyboard-response","119","60444","0.0-119.0","","","","","null","<img src=""img/food5.png"" style=""width:200px; border:14px solid green;"">","null","","","","","","","","","",""
"","image-keyboard-response","120","60853","0.0-120.0","","","","","408.3000000715256","img/food2.png","76","409.60000002384186","3","0","1","1","1,0.7,0,1,0.7,0,0.7,0,1","0,1,0.7,0,1,0.7,1,0.7,0","3","",""
"","html-keyboard-response","121","61156","0.0-121.0","","","","","null","<img src=""img/food2.png"" style=""width:200px;border:14px solid red;"">","null","","","","","","","","","",""
"","image-keyboard-response","122","61661","0.0-122.0","","","","","504.3000000715256","img/food2.png","74","505.5","1","0","1","1","1,0.7,0,1,0.7,0,0.7,0,1","0,1,0.7,0,1,0.7,1,0.7,0","3","",""
"","html-keyboard-response","123","61963","0.0-123.0","","","","","null","<img src=""img/food2.png"" style=""width:200px;border:14px solid red;"">","null","","","","","","","","","",""
"","image-keyboard-response","124","62213","0.0-124.0","","","","","248.89999997615814","img/food5.png","76","250","3","1","2","1","1,0.7,0,1,0.7,0,0.7,0,1","0,1,0.7,0,1,0.7,1,0.7,0","3","",""
"","html-keyboard-response","125","62515","0.0-125.0","","","","","null","<img src=""img/food5.png"" style=""width:200px; border:14px solid green;"">","null","","","","","","","","","",""
"","image-keyboard-response","126","63325","0.0-126.0","","","","","808.6000000238419","img/food4.png","74","809.6000000238419","1","1","3","1","1,0.7,0,1,0.7,0,0.7,0,1","0,1,0.7,0,1,0.7,1,0.7,0","3","",""
"","html-keyboard-response","127","63628","0.0-127.0","","","","","null","<img src=""img/food4.png"" style=""width:200px; border:14px solid green;"">","null","","","","","","","","","",""
"","image-keyboard-response","128","64205","0.0-128.0","","","","","576.3999999761581","img/food5.png","75","577.5","2","1","2","1","1,0.7,0,1,0.7,0,0.7,0,1","0,1,0.7,0,1,0.7,1,0.7,0","3","",""
"","html-keyboard-response","129","64507","0.0-129.0","","","","","null","<img src=""img/food5.png"" style=""width:200px; border:14px solid green;"">","null","","","","","","","","","",""
"","image-keyboard-response","130","64910","0.0-130.0","","","","","401.1999999284744","img/food5.png","75","402.2000000476837","2","1","2","1","1,0.7,0,1,0.7,0,0.7,0,1","0,1,0.7,0,1,0.7,1,0.7,0","3","",""
"","html-keyboard-response","131","65212","0.0-131.0","","","","","null","<img src=""img/food5.png"" style=""width:200px; border:14px solid green;"">","null","","","","","","","","","",""
"","image-keyboard-response","132","65765","0.0-132.0","","","","","552.0999999046326","img/food4.png","74","553.1000000238419","1","1","3","1","1,0.7,0,1,0.7,0,0.7,0,1","0,1,0.7,0,1,0.7,1,0.7,0","3","",""
"","html-keyboard-response","133","66067","0.0-133.0","","","","","null","<img src=""img/food4.png"" style=""width:200px; border:14px solid green;"">","null","","","","","","","","","",""
"","image-keyboard-response","134","66565","0.0-134.0","","","","","496.60000002384186","img/food5.png","75","497.59999990463257","2","1","2","1","1,0.7,0,1,0.7,0,0.7,0,1","0,1,0.7,0,1,0.7,1,0.7,0","3","",""
"","html-keyboard-response","135","66868","0.0-135.0","","","","","null","<img src=""img/food5.png"" style=""width:200px; border:14px solid green;"">","null","","","","","","","","","",""
"","image-keyboard-response","136","67421","0.0-136.0","","","","","552.2999999523163","img/food5.png","75","553.5","2","1","2","1","1,0.7,0,1,0.7,0,0.7,0,1","0,1,0.7,0,1,0.7,1,0.7,0","3","",""
"","html-keyboard-response","137","67723","0.0-137.0","","","","","null","<img src=""img/food5.png"" style=""width:200px; border:14px solid green;"">","null","","","","","","","","","",""
"","image-keyboard-response","138","68261","0.0-138.0","","","","","537.2000000476837","img/food5.png","75","538.3000000715256","2","1","2","1","1,0.7,0,1,0.7,0,0.7,0,1","0,1,0.7,0,1,0.7,1,0.7,0","3","",""
"","html-keyboard-response","139","68563","0.0-139.0","","","","","null","<img src=""img/food5.png"" style=""width:200px; border:14px solid green;"">","null","","","","","","","","","",""
"","image-keyboard-response","140","69405","0.0-140.0","","","","","840.3999999761581","img/food2.png","76","841.6000000238419","3","1","1","1","1,0.7,0,1,0.7,0,0.7,0,1","0,1,0.7,0,1,0.7,1,0.7,0","3","",""
"","html-keyboard-response","141","69707","0.0-141.0","","","","","null","<img src=""img/food2.png"" style=""width:200px; border:14px solid green;"">","null","","","","","","","","","",""
"","image-keyboard-response","142","70277","0.0-142.0","","","","","569.2000000476837","img/food4.png","74","570.0999999046326","1","1","3","1","1,0.7,0,1,0.7,0,0.7,0,1","0,1,0.7,0,1,0.7,1,0.7,0","3","",""
"","html-keyboard-response","143","70579","0.0-143.0","","","","","null","<img src=""img/food4.png"" style=""width:200px; border:14px solid green;"">","null","","","","","","","","","",""
"","image-keyboard-response","144","71221","0.0-144.0","","","","","641.1000000238419","img/food2.png","76","642.1000000238419","3","0","1","1","1,0.7,0,1,0.7,0,0.7,0,1","0,1,0.7,0,1,0.7,1,0.7,0","3","",""
"","html-keyboard-response","145","71523","0.0-145.0","","","","","null","<img src=""img/food2.png"" style=""width:200px;border:14px solid red;"">","null","","","","","","","","","",""
"","image-keyboard-response","146","72293","0.0-146.0","","","","","768.8999999761581","img/food4.png","74","770","1","1","3","1","1,0.7,0,1,0.7,0,0.7,0,1","0,1,0.7,0,1,0.7,1,0.7,0","3","",""
"","html-keyboard-response","147","72596","0.0-147.0","","","","","null","<img src=""img/food4.png"" style=""width:200px; border:14px solid green;"">","null","","","","","","","","","",""
"","image-keyboard-response","148","73285","0.0-148.0","","","","","688.2000000476837","img/food2.png","75","689.2999999523163","2","1","1","1","1,0.7,0,1,0.7,0,0.7,0,1","0,1,0.7,0,1,0.7,1,0.7,0","3","",""
"","html-keyboard-response","149","73587","0.0-149.0","","","","","null","<img src=""img/food2.png"" style=""width:200px; border:14px solid green;"">","null","","","","","","","","","",""
"","image-keyboard-response","150","74213","0.0-150.0","","","","","625.1000000238419","img/food2.png","75","626.2999999523163","2","1","1","1","1,0.7,0,1,0.7,0,0.7,0,1","0,1,0.7,0,1,0.7,1,0.7,0","3","",""
"","html-keyboard-response","151","74516","0.0-151.0","","","","","null","<img src=""img/food2.png"" style=""width:200px; border:14px solid green;"">","null","","","","","","","","","",""
"","image-keyboard-response","152","75229","0.0-152.0","","","","","711.5","img/food2.png","75","712.6000000238419","2","1","1","1","1,0.7,0,1,0.7,0,0.7,0,1","0,1,0.7,0,1,0.7,1,0.7,0","3","",""
"","html-keyboard-response","153","75532","0.0-153.0","","","","","null","<img src=""img/food2.png"" style=""width:200px; border:14px solid green;"">","null","","","","","","","","","",""
"","image-keyboard-response","154","77165","0.0-154.0","","","","","1631.7999999523163","img/food5.png","75","1632.8999999761581","2","1","2","1","1,0.7,0,1,0.7,0,0.7,0,1","0,1,0.7,0,1,0.7,1,0.7,0","3","",""
"","html-keyboard-response","155","77468","0.0-155.0","","","","","null","<img src=""img/food5.png"" style=""width:200px; border:14px solid green;"">","null","","","","","","","","","",""
"","image-keyboard-response","156","77845","0.0-156.0","","","","","376.2999999523163","img/food5.png","75","377.39999997615814","2","1","2","1","1,0.7,0,1,0.7,0,0.7,0,1","0,1,0.7,0,1,0.7,1,0.7,0","3","",""
"","html-keyboard-response","157","78147","0.0-157.0","","","","","null","<img src=""img/food5.png"" style=""width:200px; border:14px solid green;"">","null","","","","","","","","","",""
"","image-keyboard-response","158","79013","0.0-158.0","","","","","865.2999999523163","img/food2.png","76","866.3999999761581","3","0","1","1","1,0.7,0,1,0.7,0,0.7,0,1","0,1,0.7,0,1,0.7,1,0.7,0","3","",""
"","html-keyboard-response","159","79316","0.0-159.0","","","","","null","<img src=""img/food2.png"" style=""width:200px;border:14px solid red;"">","null","","","","","","","","","",""
"","image-keyboard-response","160","79541","0.0-160.0","","","","","224.09999990463257","img/food4.png","75","225.30000007152557","2","1","3","1","1,0.7,0,1,0.7,0,0.7,0,1","0,1,0.7,0,1,0.7,1,0.7,0","3","",""
"","html-keyboard-response","161","79843","0.0-161.0","","","","","null","<img src=""img/food4.png"" style=""width:200px; border:14px solid green;"">","null","","","","","","","","","",""
"","image-keyboard-response","162","80373","0.0-162.0","","","","","529.1000000238419","img/food4.png","74","530.0999999046326","1","1","3","1","1,0.7,0,1,0.7,0,0.7,0,1","0,1,0.7,0,1,0.7,1,0.7,0","3","",""
"","html-keyboard-response","163","80675","0.0-163.0","","","","","null","<img src=""img/food4.png"" style=""width:200px; border:14px solid green;"">","null","","","","","","","","","",""
"","image-keyboard-response","164","81341","0.0-164.0","","","","","665","img/food5.png","76","666","3","1","2","1","1,0.7,0,1,0.7,0,0.7,0,1","0,1,0.7,0,1,0.7,1,0.7,0","3","",""
"","html-keyboard-response","165","81645","0.0-165.0","","","","","null","<img src=""img/food5.png"" style=""width:200px; border:14px solid green;"">","null","","","","","","","","","",""
"","image-keyboard-response","166","82301","0.0-166.0","","","","","654.8999999761581","img/food4.png","74","656","1","1","3","1","1,0.7,0,1,0.7,0,0.7,0,1","0,1,0.7,0,1,0.7,1,0.7,0","3","",""
"","html-keyboard-response","167","82615","0.0-167.0","","","","","null","<img src=""img/food4.png"" style=""width:200px; border:14px solid green;"">","null","","","","","","","","","",""
"","image-keyboard-response","168","83149","0.0-168.0","","","","","532.7000000476837","img/food4.png","74","533.6000000238419","1","1","3","1","1,0.7,0,1,0.7,0,0.7,0,1","0,1,0.7,0,1,0.7,1,0.7,0","3","",""
"","html-keyboard-response","169","83451","0.0-169.0","","","","","null","<img src=""img/food4.png"" style=""width:200px; border:14px solid green;"">","null","","","","","","","","","",""
"","image-keyboard-response","170","83941","0.0-170.0","","","","","488.89999997615814","img/food4.png","74","489.89999997615814","1","1","3","1","1,0.7,0,1,0.7,0,0.7,0,1","0,1,0.7,0,1,0.7,1,0.7,0","3","",""
"","html-keyboard-response","171","84243","0.0-171.0","","","","","null","<img src=""img/food4.png"" style=""width:200px; border:14px solid green;"">","null","","","","","","","","","",""
"","image-keyboard-response","172","85597","0.0-172.0","","","","","1353.5","img/food2.png","75","1354.5","2","1","1","1","1,0.7,0,1,0.7,0,0.7,0,1","0,1,0.7,0,1,0.7,1,0.7,0","3","",""
"","html-keyboard-response","173","85899","0.0-173.0","","","","","null","<img src=""img/food2.png"" style=""width:200px; border:14px solid green;"">","null","","","","","","","","","",""
"","image-keyboard-response","174","86885","0.0-174.0","","","","","984.6999999284744","img/food5.png","75","985.8000000715256","2","1","2","1","1,0.7,0,1,0.7,0,0.7,0,1","0,1,0.7,0,1,0.7,1,0.7,0","3","",""
"","html-keyboard-response","175","87188","0.0-175.0","","","","","null","<img src=""img/food5.png"" style=""width:200px; border:14px solid green;"">","null","","","","","","","","","",""
"","image-keyboard-response","176","87733","0.0-176.0","","","","","544.2999999523163","img/food4.png","74","545.3000000715256","1","1","3","1","1,0.7,0,1,0.7,0,0.7,0,1","0,1,0.7,0,1,0.7,1,0.7,0","3","",""
"","html-keyboard-response","177","88036","0.0-177.0","","","","","null","<img src=""img/food4.png"" style=""width:200px; border:14px solid green;"">","null","","","","","","","","","",""
"","image-keyboard-response","178","88741","0.0-178.0","","","","","704.3999999761581","img/food5.png","75","705.5","2","1","2","1","1,0.7,0,1,0.7,0,0.7,0,1","0,1,0.7,0,1,0.7,1,0.7,0","3","",""
"","html-keyboard-response","179","89053","0.0-179.0","","","","","null","<img src=""img/food5.png"" style=""width:200px; border:14px solid green;"">","null","","","","","","","","","",""
"","image-keyboard-response","180","89437","0.0-180.0","","","","","382.60000002384186","img/food5.png","75","383.59999990463257","2","1","2","1","1,0.7,0,1,0.7,0,0.7,0,1","0,1,0.7,0,1,0.7,1,0.7,0","3","",""
"","html-keyboard-response","181","89740","0.0-181.0","","","","","null","<img src=""img/food5.png"" style=""width:200px; border:14px solid green;"">","null","","","","","","","","","",""
"","html-keyboard-response","182","92340","0.0-182.0","","","","","","","","","","","","","","","","",""
"","instructions","183","98396","0.0-183.0","","","","[{""page_index"":0,""viewing_time"":4751.400000095367},{""page_index"":1,""viewing_time"":1304}]","6055.5","","","","","","","","","","","",""
"","image-keyboard-response","184","99341","0.0-184.0","","","","","943.7000000476837","img/food6.png","74","944.7999999523163","1","1","3","2","1,0.7,0,1,0.7,0,0.7,0,1","1,0.7,0,1,0.7,0,0.7,0,1","1","false",""
"","html-keyboard-response","185","99650","0.0-185.0","","","","","null","<img src=""img/food6.png"" style=""width:200px; border:14px solid green;"">","null","","","","","","","","","",""
"","image-keyboard-response","186","100189","0.0-187.0","","","","","536.8999999761581","img/food6.png","74","537.8999999761581","1","1","3","2","1,0.7,0,1,0.7,0,0.7,0,1","1,0.7,0,1,0.7,0,0.7,0,1","1","false",""
"","html-keyboard-response","187","100491","0.0-188.0","","","","","null","<img src=""img/food6.png"" style=""width:200px; border:14px solid green;"">","null","","","","","","","","","",""
"","image-keyboard-response","188","101045","0.0-190.0","","","","","552.5","img/food6.png","74","553.6000000238419","1","1","3","2","1,0.7,0,1,0.7,0,0.7,0,1","1,0.7,0,1,0.7,0,0.7,0,1","1","false",""
"","html-keyboard-response","189","101347","0.0-191.0","","","","","null","<img src=""img/food6.png"" style=""width:200px; border:14px solid green;"">","null","","","","","","","","","",""
"","image-keyboard-response","190","102021","0.0-193.0","","","","","672.6999999284744","img/food3.png","75","673.8000000715256","2","1","2","2","1,0.7,0,1,0.7,0,0.7,0,1","1,0.7,0,1,0.7,0,0.7,0,1","1","false",""
"","html-keyboard-response","191","102324","0.0-194.0","","","","","null","<img src=""img/food3.png"" style=""width:200px; border:14px solid green;"">","null","","","","","","","","","",""
"","image-keyboard-response","192","103021","0.0-196.0","","","","","695.7999999523163","img/food1.png","76","697","3","0","1","2","1,0.7,0,1,0.7,0,0.7,0,1","1,0.7,0,1,0.7,0,0.7,0,1","1","false",""
"","html-keyboard-response","193","103323","0.0-197.0","","","","","null","<img src=""img/food1.png"" style=""width:200px;border:14px solid red;"">","null","","","","","","","","","",""
"","image-keyboard-response","194","103653","0.0-199.0","","","","","328.2000000476837","img/food6.png","75","329.39999997615814","2","0","3","2","1,0.7,0,1,0.7,0,0.7,0,1","1,0.7,0,1,0.7,0,0.7,0,1","1","false",""
"","html-keyboard-response","195","103955","0.0-200.0","","","","","null","<img src=""img/food6.png"" style=""width:200px;border:14px solid red;"">","null","","","","","","","","","",""
"","image-keyboard-response","196","104429","0.0-202.0","","","","","472.1999999284744","img/food1.png","74","473.3000000715256","1","1","1","2","1,0.7,0,1,0.7,0,0.7,0,1","1,0.7,0,1,0.7,0,0.7,0,1","1","false",""
"","html-keyboard-response","197","104731","0.0-203.0","","","","","null","<img src=""img/food1.png"" style=""width:200px; border:14px solid green;"">","null","","","","","","","","","",""
"","image-keyboard-response","198","105437","0.0-205.0","","","","","704.7999999523163","img/food3.png","74","705.9000000953674","1","1","2","2","1,0.7,0,1,0.7,0,0.7,0,1","1,0.7,0,1,0.7,0,0.7,0,1","1","false",""
"","html-keyboard-response","199","105739","0.0-206.0","","","","","null","<img src=""img/food3.png"" style=""width:200px; border:14px solid green;"">","null","","","","","","","","","",""
"","image-keyboard-response","200","106269","0.0-208.0","","","","","528.7999999523163","img/food6.png","75","529.9000000953674","2","0","3","2","1,0.7,0,1,0.7,0,0.7,0,1","1,0.7,0,1,0.7,0,0.7,0,1","1","false",""
"","html-keyboard-response","201","106571","0.0-209.0","","","","","null","<img src=""img/food6.png"" style=""width:200px;border:14px solid red;"">","null","","","","","","","","","",""
"","image-keyboard-response","202","106917","0.0-211.0","","","","","344.40000009536743","img/food6.png","76","345.7000000476837","3","1","3","2","1,0.7,0,1,0.7,0,0.7,0,1","1,0.7,0,1,0.7,0,0.7,0,1","1","false",""
"","html-keyboard-response","203","107219","0.0-212.0","","","","","null","<img src=""img/food6.png"" style=""width:200px; border:14px solid green;"">","null","","","","","","","","","",""
"","image-keyboard-response","204","107957","0.0-214.0","","","","","737","img/food1.png","74","738.2999999523163","1","1","1","2","1,0.7,0,1,0.7,0,0.7,0,1","1,0.7,0,1,0.7,0,0.7,0,1","1","false",""
"","html-keyboard-response","205","108260","0.0-215.0","","","","","null","<img src=""img/food1.png"" style=""width:200px; border:14px solid green;"">","null","","","","","","","","","",""
"","image-keyboard-response","206","108661","0.0-217.0","","","","","399.89999997615814","img/food1.png","74","400.89999997615814","1","1","1","2","1,0.7,0,1,0.7,0,0.7,0,1","1,0.7,0,1,0.7,0,0.7,0,1","1","false",""
"","html-keyboard-response","207","108970","0.0-218.0","","","","","null","<img src=""img/food1.png"" style=""width:200px; border:14px solid green;"">","null","","","","","","","","","",""
"","image-keyboard-response","208","109549","0.0-220.0","","","","","577.0999999046326","img/food6.png","74","578.2000000476837","1","0","3","2","1,0.7,0,1,0.7,0,0.7,0,1","1,0.7,0,1,0.7,0,0.7,0,1","1","false",""
"","html-keyboard-response","209","109851","0.0-221.0","","","","","null","<img src=""img/food6.png"" style=""width:200px;border:14px solid red;"">","null","","","","","","","","","",""
"","image-keyboard-response","210","110285","0.0-223.0","","","","","431.7999999523163","img/food6.png","76","432.89999997615814","3","1","3","2","1,0.7,0,1,0.7,0,0.7,0,1","1,0.7,0,1,0.7,0,0.7,0,1","1","false",""
"","html-keyboard-response","211","110587","0.0-224.0","","","","","null","<img src=""img/food6.png"" style=""width:200px; border:14px solid green;"">","null","","","","","","","","","",""
"","image-keyboard-response","212","111173","0.0-226.0","","","","","584.5","img/food6.png","76","585.7000000476837","3","1","3","2","1,0.7,0,1,0.7,0,0.7,0,1","1,0.7,0,1,0.7,0,0.7,0,1","1","false",""
"","html-keyboard-response","213","111476","0.0-227.0","","","","","null","<img src=""img/food6.png"" style=""width:200px; border:14px solid green;"">","null","","","","","","","","","",""
"","image-keyboard-response","214","111997","0.0-229.0","","","","","519.8000000715256","img/food1.png","75","520.8999999761581","2","1","1","2","1,0.7,0,1,0.7,0,0.7,0,1","1,0.7,0,1,0.7,0,0.7,0,1","1","false",""
"","html-keyboard-response","215","112298","0.0-230.0","","","","","null","<img src=""img/food1.png"" style=""width:200px; border:14px solid green;"">","null","","","","","","","","","",""
"","image-keyboard-response","216","112925","0.0-232.0","","","","","624.7000000476837","img/food3.png","74","625.7999999523163","1","1","2","2","1,0.7,0,1,0.7,0,0.7,0,1","1,0.7,0,1,0.7,0,0.7,0,1","1","false",""
"","html-keyboard-response","217","113227","0.0-233.0","","","","","null","<img src=""img/food3.png"" style=""width:200px; border:14px solid green;"">","null","","","","","","","","","",""
"","image-keyboard-response","218","113525","0.0-235.0","","","","","296.2000000476837","img/food3.png","74","297.39999997615814","1","1","2","2","1,0.7,0,1,0.7,0,0.7,0,1","1,0.7,0,1,0.7,0,0.7,0,1","1","false",""
"","html-keyboard-response","219","113826","0.0-236.0","","","","","null","<img src=""img/food3.png"" style=""width:200px; border:14px solid green;"">","null","","","","","","","","","",""
"","image-keyboard-response","220","114501","0.0-238.0","","","","","672.8000000715256","img/food3.png","74","674.1000000238419","1","1","2","2","1,0.7,0,1,0.7,0,0.7,0,1","1,0.7,0,1,0.7,0,0.7,0,1","1","false",""
"","html-keyboard-response","221","114803","0.0-239.0","","","","","null","<img src=""img/food3.png"" style=""width:200px; border:14px solid green;"">","null","","","","","","","","","",""
"","image-keyboard-response","222","115669","0.0-241.0","","","","","864","img/food6.png","74","865.2000000476837","1","0","3","2","1,0.7,0,1,0.7,0,0.7,0,1","1,0.7,0,1,0.7,0,0.7,0,1","1","false",""
"","html-keyboard-response","223","115971","0.0-242.0","","","","","null","<img src=""img/food6.png"" style=""width:200px;border:14px solid red;"">","null","","","","","","","","","",""
"","image-keyboard-response","224","116173","0.0-244.0","","","","","200.70000004768372","img/food6.png","76","201.89999997615814","3","1","3","2","1,0.7,0,1,0.7,0,0.7,0,1","1,0.7,0,1,0.7,0,0.7,0,1","1","false",""
"","html-keyboard-response","225","116475","0.0-245.0","","","","","null","<img src=""img/food6.png"" style=""width:200px; border:14px solid green;"">","null","","","","","","","","","",""
"","image-keyboard-response","226","116933","0.0-247.0","","","","","456.2000000476837","img/food6.png","76","458.5","3","1","3","2","1,0.7,0,1,0.7,0,0.7,0,1","1,0.7,0,1,0.7,0,0.7,0,1","1","false",""
"","html-keyboard-response","227","117236","0.0-248.0","","","","","null","<img src=""img/food6.png"" style=""width:200px; border:14px solid green;"">","null","","","","","","","","","",""
"","image-keyboard-response","228","118061","0.0-250.0","","","","","823.7999999523163","img/food1.png","75","825","2","1","1","2","1,0.7,0,1,0.7,0,0.7,0,1","1,0.7,0,1,0.7,0,0.7,0,1","1","false",""
"","html-keyboard-response","229","118364","0.0-251.0","","","","","null","<img src=""img/food1.png"" style=""width:200px; border:14px solid green;"">","null","","","","","","","","","",""
"","image-keyboard-response","230","118885","0.0-253.0","","","","","519.8000000715256","img/food1.png","75","520.8999999761581","2","1","1","2","1,0.7,0,1,0.7,0,0.7,0,1","1,0.7,0,1,0.7,0,0.7,0,1","1","false",""
"","html-keyboard-response","231","119187","0.0-254.0","","","","","null","<img src=""img/food1.png"" style=""width:200px; border:14px solid green;"">","null","","","","","","","","","",""
"","image-keyboard-response","232","119741","0.0-256.0","","","","","552.8000000715256","img/food6.png","74","553.8999999761581","1","1","3","2","1,0.7,0,1,0.7,0,0.7,0,1","1,0.7,0,1,0.7,0,0.7,0,1","1","false",""
"","html-keyboard-response","233","120043","0.0-257.0","","","","","null","<img src=""img/food6.png"" style=""width:200px; border:14px solid green;"">","null","","","","","","","","","",""
"","image-keyboard-response","234","120461","0.0-259.0","","","","","416.8000000715256","img/food6.png","74","417.7999999523163","1","1","3","2","1,0.7,0,1,0.7,0,0.7,0,1","1,0.7,0,1,0.7,0,0.7,0,1","1","false",""
"","html-keyboard-response","235","120763","0.0-260.0","","","","","null","<img src=""img/food6.png"" style=""width:200px; border:14px solid green;"">","null","","","","","","","","","",""
"","image-keyboard-response","236","121221","0.0-262.0","","","","","456.40000009536743","img/food6.png","74","457.5","1","0","3","2","1,0.7,0,1,0.7,0,0.7,0,1","1,0.7,0,1,0.7,0,0.7,0,1","1","false",""
"","html-keyboard-response","237","121523","0.0-263.0","","","","","null","<img src=""img/food6.png"" style=""width:200px;border:14px solid red;"">","null","","","","","","","","","",""
"","image-keyboard-response","238","122189","0.0-265.0","","","","","664.3000000715256","img/food1.png","75","665.3999999761581","2","1","1","2","1,0.7,0,1,0.7,0,0.7,0,1","1,0.7,0,1,0.7,0,0.7,0,1","1","false",""
"","html-keyboard-response","239","122491","0.0-266.0","","","","","null","<img src=""img/food1.png"" style=""width:200px; border:14px solid green;"">","null","","","","","","","","","",""
"","image-keyboard-response","240","122781","0.0-268.0","","","","","288.7000000476837","img/food6.png","75","289.7000000476837","2","0","3","2","1,0.7,0,1,0.7,0,0.7,0,1","1,0.7,0,1,0.7,0,0.7,0,1","1","false",""
"","html-keyboard-response","241","123083","0.0-269.0","","","","","null","<img src=""img/food6.png"" style=""width:200px;border:14px solid red;"">","null","","","","","","","","","",""
"","image-keyboard-response","242","123301","0.0-271.0","","","","","216.69999992847443","img/food6.png","74","217.80000007152557","1","1","3","2","1,0.7,0,1,0.7,0,0.7,0,1","1,0.7,0,1,0.7,0,0.7,0,1","1","false",""
"","html-keyboard-response","243","123603","0.0-272.0","","","","","null","<img src=""img/food6.png"" style=""width:200px; border:14px solid green;"">","null","","","","","","","","","",""
"","image-keyboard-response","244","124181","0.0-274.0","","","","","576.5","img/food3.png","76","577.5","3","0","2","2","1,0.7,0,1,0.7,0,0.7,0,1","1,0.7,0,1,0.7,0,0.7,0,1","1","false",""
"","html-keyboard-response","245","124483","0.0-275.0","","","","","null","<img src=""img/food3.png"" style=""width:200px;border:14px solid red;"">","null","","","","","","","","","",""
"","image-keyboard-response","246","124805","0.0-277.0","","","","","320.8000000715256","img/food6.png","75","321.7999999523163","2","0","3","2","1,0.7,0,1,0.7,0,0.7,0,1","1,0.7,0,1,0.7,0,0.7,0,1","1","false",""
"","html-keyboard-response","247","125110","0.0-278.0","","","","","null","<img src=""img/food6.png"" style=""width:200px;border:14px solid red;"">","null","","","","","","","","","",""
"","image-keyboard-response","248","125509","0.0-280.0","","","","","396.8000000715256","img/food6.png","74","398","1","0","3","2","1,0.7,0,1,0.7,0,0.7,0,1","1,0.7,0,1,0.7,0,0.7,0,1","1","false",""
"","html-keyboard-response","249","125811","0.0-281.0","","","","","null","<img src=""img/food6.png"" style=""width:200px;border:14px solid red;"">","null","","","","","","","","","",""
"","image-keyboard-response","250","126501","0.0-283.0","","","","","688.9000000953674","img/food1.png","75","690.2999999523163","2","1","1","2","1,0.7,0,1,0.7,0,0.7,0,1","1,0.7,0,1,0.7,0,0.7,0,1","1","false",""
"","html-keyboard-response","251","126803","0.0-284.0","","","","","null","<img src=""img/food1.png"" style=""width:200px; border:14px solid green;"">","null","","","","","","","","","",""
"","image-keyboard-response","252","127517","0.0-286.0","","","","","711.7999999523163","img/food3.png","76","712.7999999523163","3","0","2","2","1,0.7,0,1,0.7,0,0.7,0,1","1,0.7,0,1,0.7,0,0.7,0,1","1","false",""
"","html-keyboard-response","253","127818","0.0-287.0","","","","","null","<img src=""img/food3.png"" style=""width:200px;border:14px solid red;"">","null","","","","","","","","","",""
"","image-keyboard-response","254","128261","0.0-289.0","","","","","441.09999990463257","img/food6.png","75","442.3000000715256","2","0","3","2","1,0.7,0,1,0.7,0,0.7,0,1","1,0.7,0,1,0.7,0,0.7,0,1","1","false",""
"","html-keyboard-response","255","128563","0.0-290.0","","","","","null","<img src=""img/food6.png"" style=""width:200px;border:14px solid red;"">","null","","","","","","","","","",""
"","image-keyboard-response","256","129045","0.0-292.0","","","","","480.60000002384186","img/food3.png","74","481.60000002384186","1","1","2","2","1,0.7,0,1,0.7,0,0.7,0,1","1,0.7,0,1,0.7,0,0.7,0,1","1","false",""
"","html-keyboard-response","257","129347","0.0-293.0","","","","","null","<img src=""img/food3.png"" style=""width:200px; border:14px solid green;"">","null","","","","","","","","","",""
"","image-keyboard-response","258","129789","0.0-295.0","","","","","440.3000000715256","img/food3.png","74","441.2999999523163","1","1","2","2","1,0.7,0,1,0.7,0,0.7,0,1","1,0.7,0,1,0.7,0,0.7,0,1","1","false",""
"","html-keyboard-response","259","130091","0.0-296.0","","","","","null","<img src=""img/food3.png"" style=""width:200px; border:14px solid green;"">","null","","","","","","","","","",""
"","image-keyboard-response","260","130573","0.0-298.0","","","","","480.8000000715256","img/food3.png","74","481.7999999523163","1","1","2","2","1,0.7,0,1,0.7,0,0.7,0,1","1,0.7,0,1,0.7,0,0.7,0,1","1","false",""
"","html-keyboard-response","261","130875","0.0-299.0","","","","","null","<img src=""img/food3.png"" style=""width:200px; border:14px solid green;"">","null","","","","","","","","","",""
"","image-keyboard-response","262","131373","0.0-301.0","","","","","496","img/food3.png","74","497.2999999523163","1","1","2","2","1,0.7,0,1,0.7,0,0.7,0,1","1,0.7,0,1,0.7,0,0.7,0,1","1","false",""
"","html-keyboard-response","263","131675","0.0-302.0","","","","","null","<img src=""img/food3.png"" style=""width:200px; border:14px solid green;"">","null","","","","","","","","","",""
"","image-keyboard-response","264","132293","0.0-304.0","","","","","615.8000000715256","img/food1.png","75","617","2","1","1","2","1,0.7,0,1,0.7,0,0.7,0,1","1,0.7,0,1,0.7,0,0.7,0,1","1","false",""
"","html-keyboard-response","265","132595","0.0-305.0","","","","","null","<img src=""img/food1.png"" style=""width:200px; border:14px solid green;"">","null","","","","","","","","","",""
"","image-keyboard-response","266","133349","0.0-307.0","","","","","752.5","img/food6.png","74","753.6000000238419","1","1","3","2","1,0.7,0,1,0.7,0,0.7,0,1","1,0.7,0,1,0.7,0,0.7,0,1","1","false",""
"","html-keyboard-response","267","133651","0.0-308.0","","","","","null","<img src=""img/food6.png"" style=""width:200px; border:14px solid green;"">","null","","","","","","","","","",""
"","image-keyboard-response","268","134373","0.0-310.0","","","","","720.6000000238419","img/food1.png","75","721.6000000238419","2","1","1","2","1,0.7,0,1,0.7,0,0.7,0,1","1,0.7,0,1,0.7,0,0.7,0,1","1","false",""
"","html-keyboard-response","269","134675","0.0-311.0","","","","","null","<img src=""img/food1.png"" style=""width:200px; border:14px solid green;"">","null","","","","","","","","","",""
"","image-keyboard-response","270","135477","0.0-313.0","","","","","800.3000000715256","img/food6.png","74","801.5","1","1","3","2","1,0.7,0,1,0.7,0,0.7,0,1","1,0.7,0,1,0.7,0,0.7,0,1","1","false",""
"","html-keyboard-response","271","135780","0.0-314.0","","","","","null","<img src=""img/food6.png"" style=""width:200px; border:14px solid green;"">","null","","","","","","","","","",""
"","image-keyboard-response","272","136429","0.0-316.0","","","","","647.7000000476837","img/food1.png","75","648.7999999523163","2","0","1","2","1,0.7,0,1,0.7,0,0.7,0,1","1,0.7,0,1,0.7,0,0.7,0,1","1","false",""
"","html-keyboard-response","273","136731","0.0-317.0","","","","","null","<img src=""img/food1.png"" style=""width:200px;border:14px solid red;"">","null","","","","","","","","","",""
"","image-keyboard-response","274","137581","0.0-319.0","","","","","848.3000000715256","img/food6.png","74","849.5","1","1","3","2","1,0.7,0,1,0.7,0,0.7,0,1","1,0.7,0,1,0.7,0,0.7,0,1","1","false",""
"","html-keyboard-response","275","137882","0.0-320.0","","","","","null","<img src=""img/food6.png"" style=""width:200px; border:14px solid green;"">","null","","","","","","","","","",""
"","image-keyboard-response","276","138885","0.0-322.0","","","","","","img/food3.png","","1002.3999999761581","-1","0","2","2","1,0.7,0,1,0.7,0,0.7,0,1","1,0.7,0,1,0.7,0,0.7,0,1","1","true",""
"","html-keyboard-response","277","139188","0.0-323.0","","","","","null","<img src=""img/food3.png"" style=""width:200px;border:14px solid red;"">","null","","","","","","","","","",""
"","html-keyboard-response","278","143820","0.0-324.0-0.0","","","","","","","","","","","","","","","","",""
"","image-keyboard-response","279","144589","0.0-325.0","","","","","768","img/food3.png","74","768.8999999761581","1","1","2","2","1,0.7,0,1,0.7,0,0.7,0,1","1,0.7,0,1,0.7,0,0.7,0,1","1","false",""
"","html-keyboard-response","280","144891","0.0-326.0","","","","","null","<img src=""img/food3.png"" style=""width:200px; border:14px solid green;"">","null","","","","","","","","","",""
"","image-keyboard-response","281","145437","0.0-328.0","","","","","544.5","img/food1.png","75","545.6999999284744","2","1","1","2","1,0.7,0,1,0.7,0,0.7,0,1","1,0.7,0,1,0.7,0,0.7,0,1","1","false",""
"","html-keyboard-response","282","145744","0.0-329.0","","","","","null","<img src=""img/food1.png"" style=""width:200px; border:14px solid green;"">","null","","","","","","","","","",""
"","image-keyboard-response","283","146197","0.0-331.0","","","","","451.2000000476837","img/food1.png","76","452.60000002384186","3","0","1","2","1,0.7,0,1,0.7,0,0.7,0,1","1,0.7,0,1,0.7,0,0.7,0,1","1","false",""
"","html-keyboard-response","284","146500","0.0-332.0","","","","","null","<img src=""img/food1.png"" style=""width:200px;border:14px solid red;"">","null","","","","","","","","","",""
"","image-keyboard-response","285","146629","0.0-334.0","","","","","127.90000009536743","img/food3.png","75","129.10000002384186","2","1","2","2","1,0.7,0,1,0.7,0,0.7,0,1","1,0.7,0,1,0.7,0,0.7,0,1","1","false",""
"","html-keyboard-response","286","146931","0.0-335.0","","","","","null","<img src=""img/food3.png"" style=""width:200px; border:14px solid green;"">","null","","","","","","","","","",""
"","image-keyboard-response","287","147365","0.0-337.0","","","","","432.60000002384186","img/food3.png","74","433.6999999284744","1","1","2","2","1,0.7,0,1,0.7,0,0.7,0,1","1,0.7,0,1,0.7,0,0.7,0,1","1","false",""
"","html-keyboard-response","288","147667","0.0-338.0","","","","","null","<img src=""img/food3.png"" style=""width:200px; border:14px solid green;"">","null","","","","","","","","","",""
"","image-keyboard-response","289","148013","0.0-340.0","","","","","343.5","img/food3.png","74","344.7000000476837","1","1","2","2","1,0.7,0,1,0.7,0,0.7,0,1","1,0.7,0,1,0.7,0,0.7,0,1","1","false",""
"","html-keyboard-response","290","148315","0.0-341.0","","","","","null","<img src=""img/food3.png"" style=""width:200px; border:14px solid green;"">","null","","","","","","","","","",""
"","image-keyboard-response","291","149061","0.0-343.0","","","","","744.3999999761581","img/food6.png","74","745.6000000238419","1","1","3","2","1,0.7,0,1,0.7,0,0.7,0,1","1,0.7,0,1,0.7,0,0.7,0,1","1","false",""
"","html-keyboard-response","292","149363","0.0-344.0","","","","","null","<img src=""img/food6.png"" style=""width:200px; border:14px solid green;"">","null","","","","","","","","","",""
"","image-keyboard-response","293","149917","0.0-346.0","","","","","552.6000000238419","img/food1.png","75","553.7000000476837","2","1","1","2","1,0.7,0,1,0.7,0,0.7,0,1","1,0.7,0,1,0.7,0,0.7,0,1","1","false",""
"","html-keyboard-response","294","150218","0.0-347.0","","","","","null","<img src=""img/food1.png"" style=""width:200px; border:14px solid green;"">","null","","","","","","","","","",""
"","image-keyboard-response","295","150629","0.0-349.0","","","","","408.89999997615814","img/food1.png","75","410","2","1","1","2","1,0.7,0,1,0.7,0,0.7,0,1","1,0.7,0,1,0.7,0,0.7,0,1","1","false",""
"","html-keyboard-response","296","150931","0.0-350.0","","","","","null","<img src=""img/food1.png"" style=""width:200px; border:14px solid green;"">","null","","","","","","","","","",""
"","image-keyboard-response","297","151573","0.0-352.0","","","","","640.6000000238419","img/food6.png","74","641.7999999523163","1","0","3","2","1,0.7,0,1,0.7,0,0.7,0,1","1,0.7,0,1,0.7,0,0.7,0,1","1","false",""
"","html-keyboard-response","298","151876","0.0-353.0","","","","","null","<img src=""img/food6.png"" style=""width:200px;border:14px solid red;"">","null","","","","","","","","","",""
"","image-keyboard-response","299","152197","0.0-355.0","","","","","319.5","img/food1.png","76","320.7000000476837","3","0","1","2","1,0.7,0,1,0.7,0,0.7,0,1","1,0.7,0,1,0.7,0,0.7,0,1","1","false",""
"","html-keyboard-response","300","152499","0.0-356.0","","","","","null","<img src=""img/food1.png"" style=""width:200px;border:14px solid red;"">","null","","","","","","","","","",""
"","image-keyboard-response","301","152645","0.0-358.0","","","","","144.5","img/food1.png","75","145.69999992847443","2","1","1","2","1,0.7,0,1,0.7,0,0.7,0,1","1,0.7,0,1,0.7,0,0.7,0,1","1","false",""
"","html-keyboard-response","302","152946","0.0-359.0","","","","","null","<img src=""img/food1.png"" style=""width:200px; border:14px solid green;"">","null","","","","","","","","","",""
"","image-keyboard-response","303","153637","0.0-361.0","","","","","688.6000000238419","img/food3.png","76","689.8999999761581","3","0","2","2","1,0.7,0,1,0.7,0,0.7,0,1","1,0.7,0,1,0.7,0,0.7,0,1","1","false",""
"","html-keyboard-response","304","153939","0.0-362.0","","","","","null","<img src=""img/food3.png"" style=""width:200px;border:14px solid red;"">","null","","","","","","","","","",""
"","image-keyboard-response","305","154149","0.0-364.0","","","","","208.39999997615814","img/food6.png","74","209.60000002384186","1","0","3","2","1,0.7,0,1,0.7,0,0.7,0,1","1,0.7,0,1,0.7,0,0.7,0,1","1","false",""
"","html-keyboard-response","306","154451","0.0-365.0","","","","","null","<img src=""img/food6.png"" style=""width:200px;border:14px solid red;"">","null","","","","","","","","","",""
"","image-keyboard-response","307","154613","0.0-367.0","","","","","160.70000004768372","img/food1.png","75","161.79999995231628","2","1","1","2","1,0.7,0,1,0.7,0,0.7,0,1","1,0.7,0,1,0.7,0,0.7,0,1","1","false",""
"","html-keyboard-response","308","154916","0.0-368.0","","","","","null","<img src=""img/food1.png"" style=""width:200px; border:14px solid green;"">","null","","","","","","","","","",""
"","image-keyboard-response","309","155197","0.0-370.0","","","","","279.60000002384186","img/food1.png","75","280.6999999284744","2","1","1","2","1,0.7,0,1,0.7,0,0.7,0,1","1,0.7,0,1,0.7,0,0.7,0,1","1","false",""
"","html-keyboard-response","310","155499","0.0-371.0","","","","","null","<img src=""img/food1.png"" style=""width:200px; border:14px solid green;"">","null","","","","","","","","","",""
"","image-keyboard-response","311","155853","0.0-373.0","","","","","351.7999999523163","img/food1.png","75","353","2","0","1","2","1,0.7,0,1,0.7,0,0.7,0,1","1,0.7,0,1,0.7,0,0.7,0,1","1","false",""
"","html-keyboard-response","312","156155","0.0-374.0","","","","","null","<img src=""img/food1.png"" style=""width:200px;border:14px solid red;"">","null","","","","","","","","","",""
"","image-keyboard-response","313","156925","0.0-376.0","","","","","768.1999999284744","img/food1.png","74","769.3999999761581","1","1","1","2","1,0.7,0,1,0.7,0,0.7,0,1","1,0.7,0,1,0.7,0,0.7,0,1","1","false",""
"","html-keyboard-response","314","157227","0.0-377.0","","","","","null","<img src=""img/food1.png"" style=""width:200px; border:14px solid green;"">","null","","","","","","","","","",""
"","image-keyboard-response","315","157853","0.0-379.0","","","","","624.5","img/food3.png","75","625.6999999284744","2","1","2","2","1,0.7,0,1,0.7,0,0.7,0,1","1,0.7,0,1,0.7,0,0.7,0,1","1","false",""
"","html-keyboard-response","316","158155","0.0-380.0","","","","","null","<img src=""img/food3.png"" style=""width:200px; border:14px solid green;"">","null","","","","","","","","","",""
"","image-keyboard-response","317","158645","0.0-382.0","","","","","488.10000002384186","img/food3.png","75","489.1999999284744","2","0","2","2","1,0.7,0,1,0.7,0,0.7,0,1","1,0.7,0,1,0.7,0,0.7,0,1","1","false",""
"","html-keyboard-response","318","158946","0.0-383.0","","","","","null","<img src=""img/food3.png"" style=""width:200px;border:14px solid red;"">","null","","","","","","","","","",""
"","image-keyboard-response","319","159549","0.0-385.0","","","","","600.7999999523163","img/food1.png","75","601.8999999761581","2","1","1","2","1,0.7,0,1,0.7,0,0.7,0,1","1,0.7,0,1,0.7,0,0.7,0,1","1","false",""
"","html-keyboard-response","320","159851","0.0-386.0","","","","","null","<img src=""img/food1.png"" style=""width:200px; border:14px solid green;"">","null","","","","","","","","","",""
"","image-keyboard-response","321","160389","0.0-388.0","","","","","536.5","img/food3.png","75","537.5","2","1","2","2","1,0.7,0,1,0.7,0,0.7,0,1","1,0.7,0,1,0.7,0,0.7,0,1","1","false",""
"","html-keyboard-response","322","160691","0.0-389.0","","","","","null","<img src=""img/food3.png"" style=""width:200px; border:14px solid green;"">","null","","","","","","","","","",""
"","image-keyboard-response","323","161061","0.0-391.0","","","","","368","img/food3.png","75","369.09999990463257","2","1","2","2","1,0.7,0,1,0.7,0,0.7,0,1","1,0.7,0,1,0.7,0,0.7,0,1","1","false",""
"","html-keyboard-response","324","161374","0.0-392.0","","","","","null","<img src=""img/food3.png"" style=""width:200px; border:14px solid green;"">","null","","","","","","","","","",""
"","image-keyboard-response","325","162021","0.0-394.0","","","","","645.3999999761581","img/food1.png","75","646.3999999761581","2","1","1","2","1,0.7,0,1,0.7,0,0.7,0,1","1,0.7,0,1,0.7,0,0.7,0,1","1","false",""
"","html-keyboard-response","326","162322","0.0-395.0","","","","","null","<img src=""img/food1.png"" style=""width:200px; border:14px solid green;"">","null","","","","","","","","","",""
"","image-keyboard-response","327","162756","0.0-397.0","","","","","432.60000002384186","img/food3.png","75","433.7000000476837","2","0","2","2","1,0.7,0,1,0.7,0,0.7,0,1","1,0.7,0,1,0.7,0,0.7,0,1","1","false",""
"","html-keyboard-response","328","163058","0.0-398.0","","","","","null","<img src=""img/food3.png"" style=""width:200px;border:14px solid red;"">","null","","","","","","","","","",""
"","image-keyboard-response","329","163549","0.0-400.0","","","","","488.7000000476837","img/food3.png","74","489.7999999523163","1","1","2","2","1,0.7,0,1,0.7,0,0.7,0,1","1,0.7,0,1,0.7,0,0.7,0,1","1","false",""
"","html-keyboard-response","330","163850","0.0-401.0","","","","","null","<img src=""img/food3.png"" style=""width:200px; border:14px solid green;"">","null","","","","","","","","","",""
"","image-keyboard-response","331","164429","0.0-403.0","","","","","576.5","img/food6.png","74","577.6999999284744","1","1","3","2","1,0.7,0,1,0.7,0,0.7,0,1","1,0.7,0,1,0.7,0,0.7,0,1","1","false",""
"","html-keyboard-response","332","164730","0.0-404.0","","","","","null","<img src=""img/food6.png"" style=""width:200px; border:14px solid green;"">","null","","","","","","","","","",""
"","image-keyboard-response","333","165277","0.0-406.0","","","","","545","img/food1.png","75","546","2","1","1","2","1,0.7,0,1,0.7,0,0.7,0,1","1,0.7,0,1,0.7,0,0.7,0,1","1","false",""
"","html-keyboard-response","334","165579","0.0-407.0","","","","","null","<img src=""img/food1.png"" style=""width:200px; border:14px solid green;"">","null","","","","","","","","","",""
"","image-keyboard-response","335","166141","0.0-409.0","","","","","560.6000000238419","img/food6.png","74","561.6999999284744","1","1","3","2","1,0.7,0,1,0.7,0,0.7,0,1","1,0.7,0,1,0.7,0,0.7,0,1","1","false",""
"","html-keyboard-response","336","166443","0.0-410.0","","","","","null","<img src=""img/food6.png"" style=""width:200px; border:14px solid green;"">","null","","","","","","","","","",""
"","image-keyboard-response","337","167053","0.0-412.0","","","","","608.3999999761581","img/food1.png","75","609.5","2","0","1","2","1,0.7,0,1,0.7,0,0.7,0,1","1,0.7,0,1,0.7,0,0.7,0,1","1","false",""
"","html-keyboard-response","338","167355","0.0-413.0","","","","","null","<img src=""img/food1.png"" style=""width:200px;border:14px solid red;"">","null","","","","","","","","","",""
"","image-keyboard-response","339","167925","0.0-415.0","","","","","568","img/food3.png","74","569.1999999284744","1","1","2","2","1,0.7,0,1,0.7,0,0.7,0,1","1,0.7,0,1,0.7,0,0.7,0,1","1","false",""
"","html-keyboard-response","340","168226","0.0-416.0","","","","","null","<img src=""img/food3.png"" style=""width:200px; border:14px solid green;"">","null","","","","","","","","","",""
"","image-keyboard-response","341","168941","0.0-418.0","","","","","712.8999999761581","img/food6.png","74","714","1","1","3","2","1,0.7,0,1,0.7,0,0.7,0,1","1,0.7,0,1,0.7,0,0.7,0,1","1","false",""
"","html-keyboard-response","342","169243","0.0-419.0","","","","","null","<img src=""img/food6.png"" style=""width:200px; border:14px solid green;"">","null","","","","","","","","","",""
"","image-keyboard-response","343","169981","0.0-421.0","","","","","736.1999999284744","img/food3.png","74","737.3999999761581","1","1","2","2","1,0.7,0,1,0.7,0,0.7,0,1","1,0.7,0,1,0.7,0,0.7,0,1","1","false",""
"","html-keyboard-response","344","170282","0.0-422.0","","","","","null","<img src=""img/food3.png"" style=""width:200px; border:14px solid green;"">","null","","","","","","","","","",""
"","image-keyboard-response","345","171077","0.0-424.0","","","","","793.2000000476837","img/food1.png","75","794.3999999761581","2","1","1","2","1,0.7,0,1,0.7,0,0.7,0,1","1,0.7,0,1,0.7,0,0.7,0,1","1","false",""
"","html-keyboard-response","346","171379","0.0-425.0","","","","","null","<img src=""img/food1.png"" style=""width:200px; border:14px solid green;"">","null","","","","","","","","","",""
"","image-keyboard-response","347","171989","0.0-427.0","","","","","608.2999999523163","img/food3.png","74","609.4000000953674","1","1","2","2","1,0.7,0,1,0.7,0,0.7,0,1","1,0.7,0,1,0.7,0,0.7,0,1","1","false",""
"","html-keyboard-response","348","172291","0.0-428.0","","","","","null","<img src=""img/food3.png"" style=""width:200px; border:14px solid green;"">","null","","","","","","","","","",""
"","image-keyboard-response","349","172820","0.0-430.0","","","","","528.3999999761581","img/food1.png","75","529.4000000953674","2","1","1","2","1,0.7,0,1,0.7,0,0.7,0,1","1,0.7,0,1,0.7,0,0.7,0,1","1","false",""
"","html-keyboard-response","350","173122","0.0-431.0","","","","","null","<img src=""img/food1.png"" style=""width:200px; border:14px solid green;"">","null","","","","","","","","","",""
"","image-keyboard-response","351","173836","0.0-433.0","","","","","712.8999999761581","img/food3.png","74","714","1","1","2","2","1,0.7,0,1,0.7,0,0.7,0,1","1,0.7,0,1,0.7,0,0.7,0,1","1","false",""
"","html-keyboard-response","352","174139","0.0-434.0","","","","","null","<img src=""img/food3.png"" style=""width:200px; border:14px solid green;"">","null","","","","","","","","","",""
"","image-keyboard-response","353","174692","0.0-436.0","","","","","552.2999999523163","img/food3.png","74","553.3000000715256","1","1","2","2","1,0.7,0,1,0.7,0,0.7,0,1","1,0.7,0,1,0.7,0,0.7,0,1","1","false",""
"","html-keyboard-response","354","174995","0.0-437.0","","","","","null","<img src=""img/food3.png"" style=""width:200px; border:14px solid green;"">","null","","","","","","","","","",""
"","image-keyboard-response","355","175476","0.0-439.0","","","","","480.09999990463257","img/food1.png","75","481.2999999523163","2","1","1","2","1,0.7,0,1,0.7,0,0.7,0,1","1,0.7,0,1,0.7,0,0.7,0,1","1","false",""
"","html-keyboard-response","356","175778","0.0-440.0","","","","","null","<img src=""img/food1.png"" style=""width:200px; border:14px solid green;"">","null","","","","","","","","","",""
"","image-keyboard-response","357","176196","0.0-442.0","","","","","417","img/food1.png","75","418.1999999284744","2","1","1","2","1,0.7,0,1,0.7,0,0.7,0,1","1,0.7,0,1,0.7,0,0.7,0,1","1","false",""
"","html-keyboard-response","358","176498","0.0-443.0","","","","","null","<img src=""img/food1.png"" style=""width:200px; border:14px solid green;"">","null","","","","","","","","","",""
"","image-keyboard-response","359","177076","0.0-445.0","","","","","576.5","img/food6.png","74","577.7000000476837","1","1","3","2","1,0.7,0,1,0.7,0,0.7,0,1","1,0.7,0,1,0.7,0,0.7,0,1","1","false",""
"","html-keyboard-response","360","177379","0.0-446.0","","","","","null","<img src=""img/food6.png"" style=""width:200px; border:14px solid green;"">","null","","","","","","","","","",""
"","image-keyboard-response","361","177820","0.0-448.0","","","","","439.40000009536743","img/food3.png","75","440.5","2","0","2","2","1,0.7,0,1,0.7,0,0.7,0,1","1,0.7,0,1,0.7,0,0.7,0,1","1","false",""
"","html-keyboard-response","362","178124","0.0-449.0","","","","","null","<img src=""img/food3.png"" style=""width:200px;border:14px solid red;"">","null","","","","","","","","","",""
"","image-keyboard-response","363","178308","0.0-451.0","","","","","183.29999995231628","img/food3.png","74","184.30000007152557","1","1","2","2","1,0.7,0,1,0.7,0,0.7,0,1","1,0.7,0,1,0.7,0,0.7,0,1","1","false",""
"","html-keyboard-response","364","178610","0.0-452.0","","","","","null","<img src=""img/food3.png"" style=""width:200px; border:14px solid green;"">","null","","","","","","","","","",""
"","instructions","365","180964","0.0-454.0","","","","[{""page_index"":0,""viewing_time"":2352.100000023842}]","2352.2000000476837","","","","","","","","","","","",""
"","survey-text","366","188484","0.0-455.0","","","","","7517.5","","","","","","","","","","","","{""Q0"":""A1YFVXP4A1CXSF""}"
