"success","trial_type","trial_index","time_elapsed","internal_node_id","assignmentID","mturkID","hitID","view_history","rt","stimulus","key_press","reactionTime","a","r","s","cond","reward_cond","reward_cond_actual","reward_matrix_idx","warning","responses"
"true","fullscreen","0","7012","0.0-0.0","34Z02EIMITZCU0E2WHSS93RG05S0TX","A1Z6RO9XS6SQDD","3UUIU9GZC5R93N292LT21FRJ9VS5TN","","","","","","","","","","","","","",""
"","instructions","1","70469","0.0-1.0","34Z02EIMITZCU0E2WHSS93RG05S0TX","A1Z6RO9XS6SQDD","3UUIU9GZC5R93N292LT21FRJ9VS5TN","[{""page_index"":0,""viewing_time"":7602.70000000298},{""page_index"":1,""viewing_time"":8546.09999999404},{""page_index"":2,""viewing_time"":13974.20000000298},{""page_index"":3,""viewing_time"":19703.60000000149},{""page_index"":4,""viewing_time"":3485.89999999851},{""page_index"":5,""viewing_time"":5457.39999999851},{""page_index"":6,""viewing_time"":4680.20000000298}]","63452.20000000298","","","","","","","","","","","",""
"","image-keyboard-response","2","72212","0.0-2.0","34Z02EIMITZCU0E2WHSS93RG05S0TX","A1Z6RO9XS6SQDD","3UUIU9GZC5R93N292LT21FRJ9VS5TN","","1739.1000000014901","img/food1.png","74","1741.5","1","1","2","1","1,0.5,0,1,0.5,0,0.5,0,1","1,0.5,0,1,0.5,0,0.5,0,1","1","",""
"","html-keyboard-response","3","72515","0.0-3.0","34Z02EIMITZCU0E2WHSS93RG05S0TX","A1Z6RO9XS6SQDD","3UUIU9GZC5R93N292LT21FRJ9VS5TN","","null","<img src=""img/food1.png"" style=""width:200px; border:14px solid green;"">","null","","","","","","","","","",""
"","image-keyboard-response","4","73785","0.0-4.0","34Z02EIMITZCU0E2WHSS93RG05S0TX","A1Z6RO9XS6SQDD","3UUIU9GZC5R93N292LT21FRJ9VS5TN","","1266.1999999955297","img/food6.png","75","1268.8999999985099","2","0","3","1","1,0.5,0,1,0.5,0,0.5,0,1","1,0.5,0,1,0.5,0,0.5,0,1","1","",""
"","html-keyboard-response","5","74090","0.0-5.0","34Z02EIMITZCU0E2WHSS93RG05S0TX","A1Z6RO9XS6SQDD","3UUIU9GZC5R93N292LT21FRJ9VS5TN","","null","<img src=""img/food6.png"" style=""width:200px;border:14px solid red;"">","null","","","","","","","","","",""
"","image-keyboard-response","6","74894","0.0-6.0","34Z02EIMITZCU0E2WHSS93RG05S0TX","A1Z6RO9XS6SQDD","3UUIU9GZC5R93N292LT21FRJ9VS5TN","","801.6000000014901","img/food1.png","76","803.5","3","0","2","1","1,0.5,0,1,0.5,0,0.5,0,1","1,0.5,0,1,0.5,0,0.5,0,1","1","",""
"","html-keyboard-response","7","75196","0.0-7.0","34Z02EIMITZCU0E2WHSS93RG05S0TX","A1Z6RO9XS6SQDD","3UUIU9GZC5R93N292LT21FRJ9VS5TN","","null","<img src=""img/food1.png"" style=""width:200px;border:14px solid red;"">","null","","","","","","","","","",""
"","image-keyboard-response","8","77434","0.0-8.0","34Z02EIMITZCU0E2WHSS93RG05S0TX","A1Z6RO9XS6SQDD","3UUIU9GZC5R93N292LT21FRJ9VS5TN","","2236.60000000149","img/food6.png","75","2237.89999999851","2","0","3","1","1,0.5,0,1,0.5,0,0.5,0,1","1,0.5,0,1,0.5,0,0.5,0,1","1","",""
"","html-keyboard-response","9","77738","0.0-9.0","34Z02EIMITZCU0E2WHSS93RG05S0TX","A1Z6RO9XS6SQDD","3UUIU9GZC5R93N292LT21FRJ9VS5TN","","null","<img src=""img/food6.png"" style=""width:200px;border:14px solid red;"">","null","","","","","","","","","",""
"","image-keyboard-response","10","78303","0.0-10.0","34Z02EIMITZCU0E2WHSS93RG05S0TX","A1Z6RO9XS6SQDD","3UUIU9GZC5R93N292LT21FRJ9VS5TN","","561.3999999985099","img/food6.png","76","563.7999999970198","3","1","3","1","1,0.5,0,1,0.5,0,0.5,0,1","1,0.5,0,1,0.5,0,0.5,0,1","1","",""
"","html-keyboard-response","11","78606","0.0-11.0","34Z02EIMITZCU0E2WHSS93RG05S0TX","A1Z6RO9XS6SQDD","3UUIU9GZC5R93N292LT21FRJ9VS5TN","","null","<img src=""img/food6.png"" style=""width:200px; border:14px solid green;"">","null","","","","","","","","","",""
"","image-keyboard-response","12","80507","0.0-12.0","34Z02EIMITZCU0E2WHSS93RG05S0TX","A1Z6RO9XS6SQDD","3UUIU9GZC5R93N292LT21FRJ9VS5TN","","1899.2000000029802","img/food6.png","76","1900.5","3","1","3","1","1,0.5,0,1,0.5,0,0.5,0,1","1,0.5,0,1,0.5,0,0.5,0,1","1","",""
"","html-keyboard-response","13","80821","0.0-13.0","34Z02EIMITZCU0E2WHSS93RG05S0TX","A1Z6RO9XS6SQDD","3UUIU9GZC5R93N292LT21FRJ9VS5TN","","null","<img src=""img/food6.png"" style=""width:200px; border:14px solid green;"">","null","","","","","","","","","",""
"","image-keyboard-response","14","82175","0.0-14.0","34Z02EIMITZCU0E2WHSS93RG05S0TX","A1Z6RO9XS6SQDD","3UUIU9GZC5R93N292LT21FRJ9VS5TN","","1353.3000000044703","img/food1.png","75","1354.5","2","0","2","1","1,0.5,0,1,0.5,0,0.5,0,1","1,0.5,0,1,0.5,0,0.5,0,1","1","",""
"","html-keyboard-response","15","82477","0.0-15.0","34Z02EIMITZCU0E2WHSS93RG05S0TX","A1Z6RO9XS6SQDD","3UUIU9GZC5R93N292LT21FRJ9VS5TN","","null","<img src=""img/food1.png"" style=""width:200px;border:14px solid red;"">","null","","","","","","","","","",""
"","image-keyboard-response","16","83268","0.0-16.0","34Z02EIMITZCU0E2WHSS93RG05S0TX","A1Z6RO9XS6SQDD","3UUIU9GZC5R93N292LT21FRJ9VS5TN","","788.3000000044703","img/food1.png","74","790.3000000044703","1","1","2","1","1,0.5,0,1,0.5,0,0.5,0,1","1,0.5,0,1,0.5,0,0.5,0,1","1","",""
"","html-keyboard-response","17","83571","0.0-17.0","34Z02EIMITZCU0E2WHSS93RG05S0TX","A1Z6RO9XS6SQDD","3UUIU9GZC5R93N292LT21FRJ9VS5TN","","null","<img src=""img/food1.png"" style=""width:200px; border:14px solid green;"">","null","","","","","","","","","",""
"","image-keyboard-response","18","84731","0.0-18.0","34Z02EIMITZCU0E2WHSS93RG05S0TX","A1Z6RO9XS6SQDD","3UUIU9GZC5R93N292LT21FRJ9VS5TN","","1158.1000000014901","img/food3.png","75","1159.2999999970198","2","1","1","1","1,0.5,0,1,0.5,0,0.5,0,1","1,0.5,0,1,0.5,0,0.5,0,1","1","",""
"","html-keyboard-response","19","85034","0.0-19.0","34Z02EIMITZCU0E2WHSS93RG05S0TX","A1Z6RO9XS6SQDD","3UUIU9GZC5R93N292LT21FRJ9VS5TN","","null","<img src=""img/food3.png"" style=""width:200px; border:14px solid green;"">","null","","","","","","","","","",""
"","image-keyboard-response","20","85795","0.0-20.0","34Z02EIMITZCU0E2WHSS93RG05S0TX","A1Z6RO9XS6SQDD","3UUIU9GZC5R93N292LT21FRJ9VS5TN","","760","img/food3.png","75","760.7999999970198","2","0","1","1","1,0.5,0,1,0.5,0,0.5,0,1","1,0.5,0,1,0.5,0,0.5,0,1","1","",""
"","html-keyboard-response","21","86097","0.0-21.0","34Z02EIMITZCU0E2WHSS93RG05S0TX","A1Z6RO9XS6SQDD","3UUIU9GZC5R93N292LT21FRJ9VS5TN","","null","<img src=""img/food3.png"" style=""width:200px;border:14px solid red;"">","null","","","","","","","","","",""
"","image-keyboard-response","22","86975","0.0-22.0","34Z02EIMITZCU0E2WHSS93RG05S0TX","A1Z6RO9XS6SQDD","3UUIU9GZC5R93N292LT21FRJ9VS5TN","","877.3999999985099","img/food6.png","76","878.5","3","1","3","1","1,0.5,0,1,0.5,0,0.5,0,1","1,0.5,0,1,0.5,0,0.5,0,1","1","",""
"","html-keyboard-response","23","87281","0.0-23.0","34Z02EIMITZCU0E2WHSS93RG05S0TX","A1Z6RO9XS6SQDD","3UUIU9GZC5R93N292LT21FRJ9VS5TN","","null","<img src=""img/food6.png"" style=""width:200px; border:14px solid green;"">","null","","","","","","","","","",""
"","image-keyboard-response","24","88778","0.0-24.0","34Z02EIMITZCU0E2WHSS93RG05S0TX","A1Z6RO9XS6SQDD","3UUIU9GZC5R93N292LT21FRJ9VS5TN","","1496.8999999985099","img/food1.png","74","1497.5","1","1","2","1","1,0.5,0,1,0.5,0,0.5,0,1","1,0.5,0,1,0.5,0,0.5,0,1","1","",""
"","html-keyboard-response","25","89080","0.0-25.0","34Z02EIMITZCU0E2WHSS93RG05S0TX","A1Z6RO9XS6SQDD","3UUIU9GZC5R93N292LT21FRJ9VS5TN","","null","<img src=""img/food1.png"" style=""width:200px; border:14px solid green;"">","null","","","","","","","","","",""
"","image-keyboard-response","26","89897","0.0-26.0","34Z02EIMITZCU0E2WHSS93RG05S0TX","A1Z6RO9XS6SQDD","3UUIU9GZC5R93N292LT21FRJ9VS5TN","","814.0999999940395","img/food6.png","76","816","3","1","3","1","1,0.5,0,1,0.5,0,0.5,0,1","1,0.5,0,1,0.5,0,0.5,0,1","1","",""
"","html-keyboard-response","27","90199","0.0-27.0","34Z02EIMITZCU0E2WHSS93RG05S0TX","A1Z6RO9XS6SQDD","3UUIU9GZC5R93N292LT21FRJ9VS5TN","","null","<img src=""img/food6.png"" style=""width:200px; border:14px solid green;"">","null","","","","","","","","","",""
"","image-keyboard-response","28","91195","0.0-28.0","34Z02EIMITZCU0E2WHSS93RG05S0TX","A1Z6RO9XS6SQDD","3UUIU9GZC5R93N292LT21FRJ9VS5TN","","993.6000000014901","img/food3.png","75","995.2000000029802","2","0","1","1","1,0.5,0,1,0.5,0,0.5,0,1","1,0.5,0,1,0.5,0,0.5,0,1","1","",""
"","html-keyboard-response","29","91497","0.0-29.0","34Z02EIMITZCU0E2WHSS93RG05S0TX","A1Z6RO9XS6SQDD","3UUIU9GZC5R93N292LT21FRJ9VS5TN","","null","<img src=""img/food3.png"" style=""width:200px;border:14px solid red;"">","null","","","","","","","","","",""
"","image-keyboard-response","30","92257","0.0-30.0","34Z02EIMITZCU0E2WHSS93RG05S0TX","A1Z6RO9XS6SQDD","3UUIU9GZC5R93N292LT21FRJ9VS5TN","","757.8999999985099","img/food3.png","75","759.5","2","1","1","1","1,0.5,0,1,0.5,0,0.5,0,1","1,0.5,0,1,0.5,0,0.5,0,1","1","",""
"","html-keyboard-response","31","92561","0.0-31.0","34Z02EIMITZCU0E2WHSS93RG05S0TX","A1Z6RO9XS6SQDD","3UUIU9GZC5R93N292LT21FRJ9VS5TN","","null","<img src=""img/food3.png"" style=""width:200px; border:14px solid green;"">","null","","","","","","","","","",""
"","image-keyboard-response","32","93201","0.0-32.0","34Z02EIMITZCU0E2WHSS93RG05S0TX","A1Z6RO9XS6SQDD","3UUIU9GZC5R93N292LT21FRJ9VS5TN","","639.3999999985099","img/food3.png","75","640.3999999985099","2","1","1","1","1,0.5,0,1,0.5,0,0.5,0,1","1,0.5,0,1,0.5,0,0.5,0,1","1","",""
"","html-keyboard-response","33","93504","0.0-33.0","34Z02EIMITZCU0E2WHSS93RG05S0TX","A1Z6RO9XS6SQDD","3UUIU9GZC5R93N292LT21FRJ9VS5TN","","null","<img src=""img/food3.png"" style=""width:200px; border:14px solid green;"">","null","","","","","","","","","",""
"","image-keyboard-response","34","94356","0.0-34.0","34Z02EIMITZCU0E2WHSS93RG05S0TX","A1Z6RO9XS6SQDD","3UUIU9GZC5R93N292LT21FRJ9VS5TN","","850.5","img/food6.png","76","852","3","1","3","1","1,0.5,0,1,0.5,0,0.5,0,1","1,0.5,0,1,0.5,0,0.5,0,1","1","",""
"","html-keyboard-response","35","94659","0.0-35.0","34Z02EIMITZCU0E2WHSS93RG05S0TX","A1Z6RO9XS6SQDD","3UUIU9GZC5R93N292LT21FRJ9VS5TN","","null","<img src=""img/food6.png"" style=""width:200px; border:14px solid green;"">","null","","","","","","","","","",""
"","image-keyboard-response","36","96037","0.0-36.0","34Z02EIMITZCU0E2WHSS93RG05S0TX","A1Z6RO9XS6SQDD","3UUIU9GZC5R93N292LT21FRJ9VS5TN","","1376","img/food3.png","75","1377.7999999970198","2","0","1","1","1,0.5,0,1,0.5,0,0.5,0,1","1,0.5,0,1,0.5,0,0.5,0,1","1","",""
"","html-keyboard-response","37","96340","0.0-37.0","34Z02EIMITZCU0E2WHSS93RG05S0TX","A1Z6RO9XS6SQDD","3UUIU9GZC5R93N292LT21FRJ9VS5TN","","null","<img src=""img/food3.png"" style=""width:200px;border:14px solid red;"">","null","","","","","","","","","",""
"","image-keyboard-response","38","97107","0.0-38.0","34Z02EIMITZCU0E2WHSS93RG05S0TX","A1Z6RO9XS6SQDD","3UUIU9GZC5R93N292LT21FRJ9VS5TN","","765.4000000059605","img/food6.png","76","767.1000000014901","3","1","3","1","1,0.5,0,1,0.5,0,0.5,0,1","1,0.5,0,1,0.5,0,0.5,0,1","1","",""
"","html-keyboard-response","39","97409","0.0-39.0","34Z02EIMITZCU0E2WHSS93RG05S0TX","A1Z6RO9XS6SQDD","3UUIU9GZC5R93N292LT21FRJ9VS5TN","","null","<img src=""img/food6.png"" style=""width:200px; border:14px solid green;"">","null","","","","","","","","","",""
"","image-keyboard-response","40","97991","0.0-40.0","34Z02EIMITZCU0E2WHSS93RG05S0TX","A1Z6RO9XS6SQDD","3UUIU9GZC5R93N292LT21FRJ9VS5TN","","581.2000000029802","img/food6.png","76","582.1000000014901","3","1","3","1","1,0.5,0,1,0.5,0,0.5,0,1","1,0.5,0,1,0.5,0,0.5,0,1","1","",""
"","html-keyboard-response","41","98294","0.0-41.0","34Z02EIMITZCU0E2WHSS93RG05S0TX","A1Z6RO9XS6SQDD","3UUIU9GZC5R93N292LT21FRJ9VS5TN","","null","<img src=""img/food6.png"" style=""width:200px; border:14px solid green;"">","null","","","","","","","","","",""
"","image-keyboard-response","42","99166","0.0-42.0","34Z02EIMITZCU0E2WHSS93RG05S0TX","A1Z6RO9XS6SQDD","3UUIU9GZC5R93N292LT21FRJ9VS5TN","","870.1000000014901","img/food1.png","74","871.6000000014901","1","1","2","1","1,0.5,0,1,0.5,0,0.5,0,1","1,0.5,0,1,0.5,0,0.5,0,1","1","",""
"","html-keyboard-response","43","99468","0.0-43.0","34Z02EIMITZCU0E2WHSS93RG05S0TX","A1Z6RO9XS6SQDD","3UUIU9GZC5R93N292LT21FRJ9VS5TN","","null","<img src=""img/food1.png"" style=""width:200px; border:14px solid green;"">","null","","","","","","","","","",""
"","image-keyboard-response","44","100295","0.0-44.0","34Z02EIMITZCU0E2WHSS93RG05S0TX","A1Z6RO9XS6SQDD","3UUIU9GZC5R93N292LT21FRJ9VS5TN","","824.5999999940395","img/food3.png","75","826","2","0","1","1","1,0.5,0,1,0.5,0,0.5,0,1","1,0.5,0,1,0.5,0,0.5,0,1","1","",""
"","html-keyboard-response","45","100596","0.0-45.0","34Z02EIMITZCU0E2WHSS93RG05S0TX","A1Z6RO9XS6SQDD","3UUIU9GZC5R93N292LT21FRJ9VS5TN","","null","<img src=""img/food3.png"" style=""width:200px;border:14px solid red;"">","null","","","","","","","","","",""
"","image-keyboard-response","46","101300","0.0-46.0","34Z02EIMITZCU0E2WHSS93RG05S0TX","A1Z6RO9XS6SQDD","3UUIU9GZC5R93N292LT21FRJ9VS5TN","","701.6000000014901","img/food6.png","76","702.8000000044703","3","1","3","1","1,0.5,0,1,0.5,0,0.5,0,1","1,0.5,0,1,0.5,0,0.5,0,1","1","",""
"","html-keyboard-response","47","101602","0.0-47.0","34Z02EIMITZCU0E2WHSS93RG05S0TX","A1Z6RO9XS6SQDD","3UUIU9GZC5R93N292LT21FRJ9VS5TN","","null","<img src=""img/food6.png"" style=""width:200px; border:14px solid green;"">","null","","","","","","","","","",""
"","image-keyboard-response","48","102165","0.0-48.0","34Z02EIMITZCU0E2WHSS93RG05S0TX","A1Z6RO9XS6SQDD","3UUIU9GZC5R93N292LT21FRJ9VS5TN","","560.3999999985099","img/food6.png","76","562.1999999955297","3","1","3","1","1,0.5,0,1,0.5,0,0.5,0,1","1,0.5,0,1,0.5,0,0.5,0,1","1","",""
"","html-keyboard-response","49","102468","0.0-49.0","34Z02EIMITZCU0E2WHSS93RG05S0TX","A1Z6RO9XS6SQDD","3UUIU9GZC5R93N292LT21FRJ9VS5TN","","null","<img src=""img/food6.png"" style=""width:200px; border:14px solid green;"">","null","","","","","","","","","",""
"","image-keyboard-response","50","103128","0.0-50.0","34Z02EIMITZCU0E2WHSS93RG05S0TX","A1Z6RO9XS6SQDD","3UUIU9GZC5R93N292LT21FRJ9VS5TN","","658","img/food3.png","75","659.2000000029802","2","0","1","1","1,0.5,0,1,0.5,0,0.5,0,1","1,0.5,0,1,0.5,0,0.5,0,1","1","",""
"","html-keyboard-response","51","103431","0.0-51.0","34Z02EIMITZCU0E2WHSS93RG05S0TX","A1Z6RO9XS6SQDD","3UUIU9GZC5R93N292LT21FRJ9VS5TN","","null","<img src=""img/food3.png"" style=""width:200px;border:14px solid red;"">","null","","","","","","","","","",""
"","image-keyboard-response","52","104246","0.0-52.0","34Z02EIMITZCU0E2WHSS93RG05S0TX","A1Z6RO9XS6SQDD","3UUIU9GZC5R93N292LT21FRJ9VS5TN","","813.1999999955297","img/food1.png","74","815","1","1","2","1","1,0.5,0,1,0.5,0,0.5,0,1","1,0.5,0,1,0.5,0,0.5,0,1","1","",""
"","html-keyboard-response","53","104550","0.0-53.0","34Z02EIMITZCU0E2WHSS93RG05S0TX","A1Z6RO9XS6SQDD","3UUIU9GZC5R93N292LT21FRJ9VS5TN","","null","<img src=""img/food1.png"" style=""width:200px; border:14px solid green;"">","null","","","","","","","","","",""
"","image-keyboard-response","54","105073","0.0-54.0","34Z02EIMITZCU0E2WHSS93RG05S0TX","A1Z6RO9XS6SQDD","3UUIU9GZC5R93N292LT21FRJ9VS5TN","","521.7000000029802","img/food1.png","74","522.6999999955297","1","1","2","1","1,0.5,0,1,0.5,0,0.5,0,1","1,0.5,0,1,0.5,0,0.5,0,1","1","",""
"","html-keyboard-response","55","105377","0.0-55.0","34Z02EIMITZCU0E2WHSS93RG05S0TX","A1Z6RO9XS6SQDD","3UUIU9GZC5R93N292LT21FRJ9VS5TN","","null","<img src=""img/food1.png"" style=""width:200px; border:14px solid green;"">","null","","","","","","","","","",""
"","image-keyboard-response","56","106113","0.0-56.0","34Z02EIMITZCU0E2WHSS93RG05S0TX","A1Z6RO9XS6SQDD","3UUIU9GZC5R93N292LT21FRJ9VS5TN","","735.3999999985099","img/food3.png","75","736","2","0","1","1","1,0.5,0,1,0.5,0,0.5,0,1","1,0.5,0,1,0.5,0,0.5,0,1","1","",""
"","html-keyboard-response","57","106415","0.0-57.0","34Z02EIMITZCU0E2WHSS93RG05S0TX","A1Z6RO9XS6SQDD","3UUIU9GZC5R93N292LT21FRJ9VS5TN","","null","<img src=""img/food3.png"" style=""width:200px;border:14px solid red;"">","null","","","","","","","","","",""
"","image-keyboard-response","58","106925","0.0-58.0","34Z02EIMITZCU0E2WHSS93RG05S0TX","A1Z6RO9XS6SQDD","3UUIU9GZC5R93N292LT21FRJ9VS5TN","","507.5","img/food3.png","75","508.79999999701977","2","1","1","1","1,0.5,0,1,0.5,0,0.5,0,1","1,0.5,0,1,0.5,0,0.5,0,1","1","",""
"","html-keyboard-response","59","107227","0.0-59.0","34Z02EIMITZCU0E2WHSS93RG05S0TX","A1Z6RO9XS6SQDD","3UUIU9GZC5R93N292LT21FRJ9VS5TN","","null","<img src=""img/food3.png"" style=""width:200px; border:14px solid green;"">","null","","","","","","","","","",""
"","image-keyboard-response","60","107876","0.0-60.0","34Z02EIMITZCU0E2WHSS93RG05S0TX","A1Z6RO9XS6SQDD","3UUIU9GZC5R93N292LT21FRJ9VS5TN","","647.2999999970198","img/food6.png","76","648.6000000014901","3","1","3","1","1,0.5,0,1,0.5,0,0.5,0,1","1,0.5,0,1,0.5,0,0.5,0,1","1","",""
"","html-keyboard-response","61","108178","0.0-61.0","34Z02EIMITZCU0E2WHSS93RG05S0TX","A1Z6RO9XS6SQDD","3UUIU9GZC5R93N292LT21FRJ9VS5TN","","null","<img src=""img/food6.png"" style=""width:200px; border:14px solid green;"">","null","","","","","","","","","",""
"","image-keyboard-response","62","108476","0.0-62.0","34Z02EIMITZCU0E2WHSS93RG05S0TX","A1Z6RO9XS6SQDD","3UUIU9GZC5R93N292LT21FRJ9VS5TN","","295.40000000596046","img/food6.png","76","297.29999999701977","3","1","3","1","1,0.5,0,1,0.5,0,0.5,0,1","1,0.5,0,1,0.5,0,0.5,0,1","1","",""
"","html-keyboard-response","63","108778","0.0-63.0","34Z02EIMITZCU0E2WHSS93RG05S0TX","A1Z6RO9XS6SQDD","3UUIU9GZC5R93N292LT21FRJ9VS5TN","","null","<img src=""img/food6.png"" style=""width:200px; border:14px solid green;"">","null","","","","","","","","","",""
"","image-keyboard-response","64","109477","0.0-64.0","34Z02EIMITZCU0E2WHSS93RG05S0TX","A1Z6RO9XS6SQDD","3UUIU9GZC5R93N292LT21FRJ9VS5TN","","696.8999999985099","img/food3.png","75","698.4000000059605","2","0","1","1","1,0.5,0,1,0.5,0,0.5,0,1","1,0.5,0,1,0.5,0,0.5,0,1","1","",""
"","html-keyboard-response","65","109781","0.0-65.0","34Z02EIMITZCU0E2WHSS93RG05S0TX","A1Z6RO9XS6SQDD","3UUIU9GZC5R93N292LT21FRJ9VS5TN","","null","<img src=""img/food3.png"" style=""width:200px;border:14px solid red;"">","null","","","","","","","","","",""
"","image-keyboard-response","66","110112","0.0-66.0","34Z02EIMITZCU0E2WHSS93RG05S0TX","A1Z6RO9XS6SQDD","3UUIU9GZC5R93N292LT21FRJ9VS5TN","","328.5","img/food3.png","75","330.5","2","1","1","1","1,0.5,0,1,0.5,0,0.5,0,1","1,0.5,0,1,0.5,0,0.5,0,1","1","",""
"","html-keyboard-response","67","110415","0.0-67.0","34Z02EIMITZCU0E2WHSS93RG05S0TX","A1Z6RO9XS6SQDD","3UUIU9GZC5R93N292LT21FRJ9VS5TN","","null","<img src=""img/food3.png"" style=""width:200px; border:14px solid green;"">","null","","","","","","","","","",""
"","image-keyboard-response","68","111124","0.0-68.0","34Z02EIMITZCU0E2WHSS93RG05S0TX","A1Z6RO9XS6SQDD","3UUIU9GZC5R93N292LT21FRJ9VS5TN","","707.2000000029802","img/food1.png","74","709.1000000014901","1","1","2","1","1,0.5,0,1,0.5,0,0.5,0,1","1,0.5,0,1,0.5,0,0.5,0,1","1","",""
"","html-keyboard-response","69","111428","0.0-69.0","34Z02EIMITZCU0E2WHSS93RG05S0TX","A1Z6RO9XS6SQDD","3UUIU9GZC5R93N292LT21FRJ9VS5TN","","null","<img src=""img/food1.png"" style=""width:200px; border:14px solid green;"">","null","","","","","","","","","",""
"","image-keyboard-response","70","111863","0.0-70.0","34Z02EIMITZCU0E2WHSS93RG05S0TX","A1Z6RO9XS6SQDD","3UUIU9GZC5R93N292LT21FRJ9VS5TN","","433.8999999985099","img/food1.png","74","435","1","1","2","1","1,0.5,0,1,0.5,0,0.5,0,1","1,0.5,0,1,0.5,0,0.5,0,1","1","",""
"","html-keyboard-response","71","112166","0.0-71.0","34Z02EIMITZCU0E2WHSS93RG05S0TX","A1Z6RO9XS6SQDD","3UUIU9GZC5R93N292LT21FRJ9VS5TN","","null","<img src=""img/food1.png"" style=""width:200px; border:14px solid green;"">","null","","","","","","","","","",""
"","image-keyboard-response","72","112920","0.0-72.0","34Z02EIMITZCU0E2WHSS93RG05S0TX","A1Z6RO9XS6SQDD","3UUIU9GZC5R93N292LT21FRJ9VS5TN","","752.3999999985099","img/food3.png","75","753.7000000029802","2","1","1","1","1,0.5,0,1,0.5,0,0.5,0,1","1,0.5,0,1,0.5,0,0.5,0,1","1","",""
"","html-keyboard-response","73","113222","0.0-73.0","34Z02EIMITZCU0E2WHSS93RG05S0TX","A1Z6RO9XS6SQDD","3UUIU9GZC5R93N292LT21FRJ9VS5TN","","null","<img src=""img/food3.png"" style=""width:200px; border:14px solid green;"">","null","","","","","","","","","",""
"","image-keyboard-response","74","113499","0.0-74.0","34Z02EIMITZCU0E2WHSS93RG05S0TX","A1Z6RO9XS6SQDD","3UUIU9GZC5R93N292LT21FRJ9VS5TN","","275.3999999985099","img/food3.png","75","276.6000000014901","2","0","1","1","1,0.5,0,1,0.5,0,0.5,0,1","1,0.5,0,1,0.5,0,0.5,0,1","1","",""
"","html-keyboard-response","75","113801","0.0-75.0","34Z02EIMITZCU0E2WHSS93RG05S0TX","A1Z6RO9XS6SQDD","3UUIU9GZC5R93N292LT21FRJ9VS5TN","","null","<img src=""img/food3.png"" style=""width:200px;border:14px solid red;"">","null","","","","","","","","","",""
"","image-keyboard-response","76","114520","0.0-76.0","34Z02EIMITZCU0E2WHSS93RG05S0TX","A1Z6RO9XS6SQDD","3UUIU9GZC5R93N292LT21FRJ9VS5TN","","718","img/food1.png","75","718.6000000014901","2","1","2","1","1,0.5,0,1,0.5,0,0.5,0,1","1,0.5,0,1,0.5,0,0.5,0,1","1","",""
"","html-keyboard-response","77","114821","0.0-77.0","34Z02EIMITZCU0E2WHSS93RG05S0TX","A1Z6RO9XS6SQDD","3UUIU9GZC5R93N292LT21FRJ9VS5TN","","null","<img src=""img/food1.png"" style=""width:200px; border:14px solid green;"">","null","","","","","","","","","",""
"","image-keyboard-response","78","116549","0.0-78.0","34Z02EIMITZCU0E2WHSS93RG05S0TX","A1Z6RO9XS6SQDD","3UUIU9GZC5R93N292LT21FRJ9VS5TN","","1726.8999999985099","img/food3.png","75","1727.6999999955297","2","1","1","1","1,0.5,0,1,0.5,0,0.5,0,1","1,0.5,0,1,0.5,0,0.5,0,1","1","",""
"","html-keyboard-response","79","116850","0.0-79.0","34Z02EIMITZCU0E2WHSS93RG05S0TX","A1Z6RO9XS6SQDD","3UUIU9GZC5R93N292LT21FRJ9VS5TN","","null","<img src=""img/food3.png"" style=""width:200px; border:14px solid green;"">","null","","","","","","","","","",""
"","image-keyboard-response","80","117119","0.0-80.0","34Z02EIMITZCU0E2WHSS93RG05S0TX","A1Z6RO9XS6SQDD","3UUIU9GZC5R93N292LT21FRJ9VS5TN","","267.80000000447035","img/food6.png","75","269","2","0","3","1","1,0.5,0,1,0.5,0,0.5,0,1","1,0.5,0,1,0.5,0,0.5,0,1","1","",""
"","html-keyboard-response","81","117422","0.0-81.0","34Z02EIMITZCU0E2WHSS93RG05S0TX","A1Z6RO9XS6SQDD","3UUIU9GZC5R93N292LT21FRJ9VS5TN","","null","<img src=""img/food6.png"" style=""width:200px;border:14px solid red;"">","null","","","","","","","","","",""
"","image-keyboard-response","82","118252","0.0-82.0","34Z02EIMITZCU0E2WHSS93RG05S0TX","A1Z6RO9XS6SQDD","3UUIU9GZC5R93N292LT21FRJ9VS5TN","","828.8000000044703","img/food3.png","75","829.7999999970198","2","0","1","1","1,0.5,0,1,0.5,0,0.5,0,1","1,0.5,0,1,0.5,0,0.5,0,1","1","",""
"","html-keyboard-response","83","118554","0.0-83.0","34Z02EIMITZCU0E2WHSS93RG05S0TX","A1Z6RO9XS6SQDD","3UUIU9GZC5R93N292LT21FRJ9VS5TN","","null","<img src=""img/food3.png"" style=""width:200px;border:14px solid red;"">","null","","","","","","","","","",""
"","image-keyboard-response","84","119120","0.0-84.0","34Z02EIMITZCU0E2WHSS93RG05S0TX","A1Z6RO9XS6SQDD","3UUIU9GZC5R93N292LT21FRJ9VS5TN","","564.6999999955297","img/food6.png","76","565.4000000059605","3","1","3","1","1,0.5,0,1,0.5,0,0.5,0,1","1,0.5,0,1,0.5,0,0.5,0,1","1","",""
"","html-keyboard-response","85","119422","0.0-85.0","34Z02EIMITZCU0E2WHSS93RG05S0TX","A1Z6RO9XS6SQDD","3UUIU9GZC5R93N292LT21FRJ9VS5TN","","null","<img src=""img/food6.png"" style=""width:200px; border:14px solid green;"">","null","","","","","","","","","",""
"","image-keyboard-response","86","120202","0.0-86.0","34Z02EIMITZCU0E2WHSS93RG05S0TX","A1Z6RO9XS6SQDD","3UUIU9GZC5R93N292LT21FRJ9VS5TN","","777.1000000014901","img/food1.png","74","779.1000000014901","1","1","2","1","1,0.5,0,1,0.5,0,0.5,0,1","1,0.5,0,1,0.5,0,0.5,0,1","1","",""
"","html-keyboard-response","87","120505","0.0-87.0","34Z02EIMITZCU0E2WHSS93RG05S0TX","A1Z6RO9XS6SQDD","3UUIU9GZC5R93N292LT21FRJ9VS5TN","","null","<img src=""img/food1.png"" style=""width:200px; border:14px solid green;"">","null","","","","","","","","","",""
"","image-keyboard-response","88","121430","0.0-88.0","34Z02EIMITZCU0E2WHSS93RG05S0TX","A1Z6RO9XS6SQDD","3UUIU9GZC5R93N292LT21FRJ9VS5TN","","923.5","img/food3.png","75","925.6000000014901","2","1","1","1","1,0.5,0,1,0.5,0,0.5,0,1","1,0.5,0,1,0.5,0,0.5,0,1","1","",""
"","html-keyboard-response","89","121734","0.0-89.0","34Z02EIMITZCU0E2WHSS93RG05S0TX","A1Z6RO9XS6SQDD","3UUIU9GZC5R93N292LT21FRJ9VS5TN","","null","<img src=""img/food3.png"" style=""width:200px; border:14px solid green;"">","null","","","","","","","","","",""
"","image-keyboard-response","90","122491","0.0-90.0","34Z02EIMITZCU0E2WHSS93RG05S0TX","A1Z6RO9XS6SQDD","3UUIU9GZC5R93N292LT21FRJ9VS5TN","","754.3999999985099","img/food1.png","74","756.1000000014901","1","1","2","1","1,0.5,0,1,0.5,0,0.5,0,1","1,0.5,0,1,0.5,0,0.5,0,1","1","",""
"","html-keyboard-response","91","122793","0.0-91.0","34Z02EIMITZCU0E2WHSS93RG05S0TX","A1Z6RO9XS6SQDD","3UUIU9GZC5R93N292LT21FRJ9VS5TN","","null","<img src=""img/food1.png"" style=""width:200px; border:14px solid green;"">","null","","","","","","","","","",""
"","image-keyboard-response","92","123400","0.0-92.0","34Z02EIMITZCU0E2WHSS93RG05S0TX","A1Z6RO9XS6SQDD","3UUIU9GZC5R93N292LT21FRJ9VS5TN","","605.6000000014901","img/food6.png","76","606.3999999985099","3","1","3","1","1,0.5,0,1,0.5,0,0.5,0,1","1,0.5,0,1,0.5,0,0.5,0,1","1","",""
"","html-keyboard-response","93","123702","0.0-93.0","34Z02EIMITZCU0E2WHSS93RG05S0TX","A1Z6RO9XS6SQDD","3UUIU9GZC5R93N292LT21FRJ9VS5TN","","null","<img src=""img/food6.png"" style=""width:200px; border:14px solid green;"">","null","","","","","","","","","",""
"","image-keyboard-response","94","124219","0.0-94.0","34Z02EIMITZCU0E2WHSS93RG05S0TX","A1Z6RO9XS6SQDD","3UUIU9GZC5R93N292LT21FRJ9VS5TN","","514.2000000029802","img/food6.png","76","515.8000000044703","3","1","3","1","1,0.5,0,1,0.5,0,0.5,0,1","1,0.5,0,1,0.5,0,0.5,0,1","1","",""
"","html-keyboard-response","95","124521","0.0-95.0","34Z02EIMITZCU0E2WHSS93RG05S0TX","A1Z6RO9XS6SQDD","3UUIU9GZC5R93N292LT21FRJ9VS5TN","","null","<img src=""img/food6.png"" style=""width:200px; border:14px solid green;"">","null","","","","","","","","","",""
"","image-keyboard-response","96","125351","0.0-96.0","34Z02EIMITZCU0E2WHSS93RG05S0TX","A1Z6RO9XS6SQDD","3UUIU9GZC5R93N292LT21FRJ9VS5TN","","829.2999999970198","img/food1.png","74","830.6000000014901","1","1","2","1","1,0.5,0,1,0.5,0,0.5,0,1","1,0.5,0,1,0.5,0,0.5,0,1","1","",""
"","html-keyboard-response","97","125654","0.0-97.0","34Z02EIMITZCU0E2WHSS93RG05S0TX","A1Z6RO9XS6SQDD","3UUIU9GZC5R93N292LT21FRJ9VS5TN","","null","<img src=""img/food1.png"" style=""width:200px; border:14px solid green;"">","null","","","","","","","","","",""
"","image-keyboard-response","98","126803","0.0-98.0","34Z02EIMITZCU0E2WHSS93RG05S0TX","A1Z6RO9XS6SQDD","3UUIU9GZC5R93N292LT21FRJ9VS5TN","","1145.8999999985099","img/food3.png","75","1147.6999999955297","2","0","1","1","1,0.5,0,1,0.5,0,0.5,0,1","1,0.5,0,1,0.5,0,0.5,0,1","1","",""
"","html-keyboard-response","99","127106","0.0-99.0","34Z02EIMITZCU0E2WHSS93RG05S0TX","A1Z6RO9XS6SQDD","3UUIU9GZC5R93N292LT21FRJ9VS5TN","","null","<img src=""img/food3.png"" style=""width:200px;border:14px solid red;"">","null","","","","","","","","","",""
"","image-keyboard-response","100","127434","0.0-100.0","34Z02EIMITZCU0E2WHSS93RG05S0TX","A1Z6RO9XS6SQDD","3UUIU9GZC5R93N292LT21FRJ9VS5TN","","326.5","img/food3.png","75","327.70000000298023","2","1","1","1","1,0.5,0,1,0.5,0,0.5,0,1","1,0.5,0,1,0.5,0,0.5,0,1","1","",""
"","html-keyboard-response","101","127736","0.0-101.0","34Z02EIMITZCU0E2WHSS93RG05S0TX","A1Z6RO9XS6SQDD","3UUIU9GZC5R93N292LT21FRJ9VS5TN","","null","<img src=""img/food3.png"" style=""width:200px; border:14px solid green;"">","null","","","","","","","","","",""
"","image-keyboard-response","102","128173","0.0-102.0","34Z02EIMITZCU0E2WHSS93RG05S0TX","A1Z6RO9XS6SQDD","3UUIU9GZC5R93N292LT21FRJ9VS5TN","","435.30000000447035","img/food3.png","75","436.59999999403954","2","1","1","1","1,0.5,0,1,0.5,0,0.5,0,1","1,0.5,0,1,0.5,0,0.5,0,1","1","",""
"","html-keyboard-response","103","128477","0.0-103.0","34Z02EIMITZCU0E2WHSS93RG05S0TX","A1Z6RO9XS6SQDD","3UUIU9GZC5R93N292LT21FRJ9VS5TN","","null","<img src=""img/food3.png"" style=""width:200px; border:14px solid green;"">","null","","","","","","","","","",""
"","image-keyboard-response","104","129239","0.0-104.0","34Z02EIMITZCU0E2WHSS93RG05S0TX","A1Z6RO9XS6SQDD","3UUIU9GZC5R93N292LT21FRJ9VS5TN","","760.1999999955297","img/food1.png","74","762","1","1","2","1","1,0.5,0,1,0.5,0,0.5,0,1","1,0.5,0,1,0.5,0,0.5,0,1","1","",""
"","html-keyboard-response","105","129542","0.0-105.0","34Z02EIMITZCU0E2WHSS93RG05S0TX","A1Z6RO9XS6SQDD","3UUIU9GZC5R93N292LT21FRJ9VS5TN","","null","<img src=""img/food1.png"" style=""width:200px; border:14px solid green;"">","null","","","","","","","","","",""
"","image-keyboard-response","106","129816","0.0-106.0","34Z02EIMITZCU0E2WHSS93RG05S0TX","A1Z6RO9XS6SQDD","3UUIU9GZC5R93N292LT21FRJ9VS5TN","","272.1000000014901","img/food1.png","74","273.40000000596046","1","1","2","1","1,0.5,0,1,0.5,0,0.5,0,1","1,0.5,0,1,0.5,0,0.5,0,1","1","",""
"","html-keyboard-response","107","130118","0.0-107.0","34Z02EIMITZCU0E2WHSS93RG05S0TX","A1Z6RO9XS6SQDD","3UUIU9GZC5R93N292LT21FRJ9VS5TN","","null","<img src=""img/food1.png"" style=""width:200px; border:14px solid green;"">","null","","","","","","","","","",""
"","image-keyboard-response","108","130825","0.0-108.0","34Z02EIMITZCU0E2WHSS93RG05S0TX","A1Z6RO9XS6SQDD","3UUIU9GZC5R93N292LT21FRJ9VS5TN","","705.2000000029802","img/food3.png","75","706.3999999985099","2","1","1","1","1,0.5,0,1,0.5,0,0.5,0,1","1,0.5,0,1,0.5,0,0.5,0,1","1","",""
"","html-keyboard-response","109","131128","0.0-109.0","34Z02EIMITZCU0E2WHSS93RG05S0TX","A1Z6RO9XS6SQDD","3UUIU9GZC5R93N292LT21FRJ9VS5TN","","null","<img src=""img/food3.png"" style=""width:200px; border:14px solid green;"">","null","","","","","","","","","",""
"","image-keyboard-response","110","132029","0.0-110.0","34Z02EIMITZCU0E2WHSS93RG05S0TX","A1Z6RO9XS6SQDD","3UUIU9GZC5R93N292LT21FRJ9VS5TN","","899.6000000014901","img/food1.png","74","901.2999999970198","1","1","2","1","1,0.5,0,1,0.5,0,0.5,0,1","1,0.5,0,1,0.5,0,0.5,0,1","1","",""
"","html-keyboard-response","111","132331","0.0-111.0","34Z02EIMITZCU0E2WHSS93RG05S0TX","A1Z6RO9XS6SQDD","3UUIU9GZC5R93N292LT21FRJ9VS5TN","","null","<img src=""img/food1.png"" style=""width:200px; border:14px solid green;"">","null","","","","","","","","","",""
"","image-keyboard-response","112","132772","0.0-112.0","34Z02EIMITZCU0E2WHSS93RG05S0TX","A1Z6RO9XS6SQDD","3UUIU9GZC5R93N292LT21FRJ9VS5TN","","439.8999999985099","img/food1.png","74","441.20000000298023","1","1","2","1","1,0.5,0,1,0.5,0,0.5,0,1","1,0.5,0,1,0.5,0,0.5,0,1","1","",""
"","html-keyboard-response","113","133075","0.0-113.0","34Z02EIMITZCU0E2WHSS93RG05S0TX","A1Z6RO9XS6SQDD","3UUIU9GZC5R93N292LT21FRJ9VS5TN","","null","<img src=""img/food1.png"" style=""width:200px; border:14px solid green;"">","null","","","","","","","","","",""
"","image-keyboard-response","114","133587","0.0-114.0","34Z02EIMITZCU0E2WHSS93RG05S0TX","A1Z6RO9XS6SQDD","3UUIU9GZC5R93N292LT21FRJ9VS5TN","","511","img/food3.png","75","512.2999999970198","2","0","1","1","1,0.5,0,1,0.5,0,0.5,0,1","1,0.5,0,1,0.5,0,0.5,0,1","1","",""
"","html-keyboard-response","115","133889","0.0-115.0","34Z02EIMITZCU0E2WHSS93RG05S0TX","A1Z6RO9XS6SQDD","3UUIU9GZC5R93N292LT21FRJ9VS5TN","","null","<img src=""img/food3.png"" style=""width:200px;border:14px solid red;"">","null","","","","","","","","","",""
"","image-keyboard-response","116","134470","0.0-116.0","34Z02EIMITZCU0E2WHSS93RG05S0TX","A1Z6RO9XS6SQDD","3UUIU9GZC5R93N292LT21FRJ9VS5TN","","579.7000000029802","img/food6.png","76","580.5","3","1","3","1","1,0.5,0,1,0.5,0,0.5,0,1","1,0.5,0,1,0.5,0,0.5,0,1","1","",""
"","html-keyboard-response","117","134776","0.0-117.0","34Z02EIMITZCU0E2WHSS93RG05S0TX","A1Z6RO9XS6SQDD","3UUIU9GZC5R93N292LT21FRJ9VS5TN","","null","<img src=""img/food6.png"" style=""width:200px; border:14px solid green;"">","null","","","","","","","","","",""
"","image-keyboard-response","118","135509","0.0-118.0","34Z02EIMITZCU0E2WHSS93RG05S0TX","A1Z6RO9XS6SQDD","3UUIU9GZC5R93N292LT21FRJ9VS5TN","","731.6999999955297","img/food1.png","74","732.6000000014901","1","1","2","1","1,0.5,0,1,0.5,0,0.5,0,1","1,0.5,0,1,0.5,0,0.5,0,1","1","",""
"","html-keyboard-response","119","135810","0.0-119.0","34Z02EIMITZCU0E2WHSS93RG05S0TX","A1Z6RO9XS6SQDD","3UUIU9GZC5R93N292LT21FRJ9VS5TN","","null","<img src=""img/food1.png"" style=""width:200px; border:14px solid green;"">","null","","","","","","","","","",""
"","image-keyboard-response","120","136548","0.0-120.0","34Z02EIMITZCU0E2WHSS93RG05S0TX","A1Z6RO9XS6SQDD","3UUIU9GZC5R93N292LT21FRJ9VS5TN","","736.6000000014901","img/food6.png","76","737.6000000014901","3","1","3","1","1,0.5,0,1,0.5,0,0.5,0,1","1,0.5,0,1,0.5,0,0.5,0,1","1","",""
"","html-keyboard-response","121","136850","0.0-121.0","34Z02EIMITZCU0E2WHSS93RG05S0TX","A1Z6RO9XS6SQDD","3UUIU9GZC5R93N292LT21FRJ9VS5TN","","null","<img src=""img/food6.png"" style=""width:200px; border:14px solid green;"">","null","","","","","","","","","",""
"","image-keyboard-response","122","137633","0.0-122.0","34Z02EIMITZCU0E2WHSS93RG05S0TX","A1Z6RO9XS6SQDD","3UUIU9GZC5R93N292LT21FRJ9VS5TN","","780.1000000014901","img/food3.png","75","781.6000000014901","2","0","1","1","1,0.5,0,1,0.5,0,0.5,0,1","1,0.5,0,1,0.5,0,0.5,0,1","1","",""
"","html-keyboard-response","123","137936","0.0-123.0","34Z02EIMITZCU0E2WHSS93RG05S0TX","A1Z6RO9XS6SQDD","3UUIU9GZC5R93N292LT21FRJ9VS5TN","","null","<img src=""img/food3.png"" style=""width:200px;border:14px solid red;"">","null","","","","","","","","","",""
"","image-keyboard-response","124","138475","0.0-124.0","34Z02EIMITZCU0E2WHSS93RG05S0TX","A1Z6RO9XS6SQDD","3UUIU9GZC5R93N292LT21FRJ9VS5TN","","537.1000000014901","img/food3.png","75","538.2999999970198","2","1","1","1","1,0.5,0,1,0.5,0,0.5,0,1","1,0.5,0,1,0.5,0,0.5,0,1","1","",""
"","html-keyboard-response","125","138778","0.0-125.0","34Z02EIMITZCU0E2WHSS93RG05S0TX","A1Z6RO9XS6SQDD","3UUIU9GZC5R93N292LT21FRJ9VS5TN","","null","<img src=""img/food3.png"" style=""width:200px; border:14px solid green;"">","null","","","","","","","","","",""
"","image-keyboard-response","126","139484","0.0-126.0","34Z02EIMITZCU0E2WHSS93RG05S0TX","A1Z6RO9XS6SQDD","3UUIU9GZC5R93N292LT21FRJ9VS5TN","","703.7000000029802","img/food6.png","76","705.7999999970198","3","1","3","1","1,0.5,0,1,0.5,0,0.5,0,1","1,0.5,0,1,0.5,0,0.5,0,1","1","",""
"","html-keyboard-response","127","139787","0.0-127.0","34Z02EIMITZCU0E2WHSS93RG05S0TX","A1Z6RO9XS6SQDD","3UUIU9GZC5R93N292LT21FRJ9VS5TN","","null","<img src=""img/food6.png"" style=""width:200px; border:14px solid green;"">","null","","","","","","","","","",""
"","image-keyboard-response","128","140452","0.0-128.0","34Z02EIMITZCU0E2WHSS93RG05S0TX","A1Z6RO9XS6SQDD","3UUIU9GZC5R93N292LT21FRJ9VS5TN","","662.3999999985099","img/food1.png","74","664.4000000059605","1","1","2","1","1,0.5,0,1,0.5,0,0.5,0,1","1,0.5,0,1,0.5,0,0.5,0,1","1","",""
"","html-keyboard-response","129","140756","0.0-129.0","34Z02EIMITZCU0E2WHSS93RG05S0TX","A1Z6RO9XS6SQDD","3UUIU9GZC5R93N292LT21FRJ9VS5TN","","null","<img src=""img/food1.png"" style=""width:200px; border:14px solid green;"">","null","","","","","","","","","",""
"","image-keyboard-response","130","141998","0.0-130.0","34Z02EIMITZCU0E2WHSS93RG05S0TX","A1Z6RO9XS6SQDD","3UUIU9GZC5R93N292LT21FRJ9VS5TN","","1239.9000000059605","img/food3.png","75","1241.3000000044703","2","1","1","1","1,0.5,0,1,0.5,0,0.5,0,1","1,0.5,0,1,0.5,0,0.5,0,1","1","",""
"","html-keyboard-response","131","142300","0.0-131.0","34Z02EIMITZCU0E2WHSS93RG05S0TX","A1Z6RO9XS6SQDD","3UUIU9GZC5R93N292LT21FRJ9VS5TN","","null","<img src=""img/food3.png"" style=""width:200px; border:14px solid green;"">","null","","","","","","","","","",""
"","image-keyboard-response","132","142720","0.0-132.0","34Z02EIMITZCU0E2WHSS93RG05S0TX","A1Z6RO9XS6SQDD","3UUIU9GZC5R93N292LT21FRJ9VS5TN","","417","img/food3.png","75","418.8999999985099","2","0","1","1","1,0.5,0,1,0.5,0,0.5,0,1","1,0.5,0,1,0.5,0,0.5,0,1","1","",""
"","html-keyboard-response","133","143024","0.0-133.0","34Z02EIMITZCU0E2WHSS93RG05S0TX","A1Z6RO9XS6SQDD","3UUIU9GZC5R93N292LT21FRJ9VS5TN","","null","<img src=""img/food3.png"" style=""width:200px;border:14px solid red;"">","null","","","","","","","","","",""
"","image-keyboard-response","134","143693","0.0-134.0","34Z02EIMITZCU0E2WHSS93RG05S0TX","A1Z6RO9XS6SQDD","3UUIU9GZC5R93N292LT21FRJ9VS5TN","","666.2999999970198","img/food1.png","74","668.8999999985099","1","1","2","1","1,0.5,0,1,0.5,0,0.5,0,1","1,0.5,0,1,0.5,0,0.5,0,1","1","",""
"","html-keyboard-response","135","143996","0.0-135.0","34Z02EIMITZCU0E2WHSS93RG05S0TX","A1Z6RO9XS6SQDD","3UUIU9GZC5R93N292LT21FRJ9VS5TN","","null","<img src=""img/food1.png"" style=""width:200px; border:14px solid green;"">","null","","","","","","","","","",""
"","image-keyboard-response","136","144365","0.0-136.0","34Z02EIMITZCU0E2WHSS93RG05S0TX","A1Z6RO9XS6SQDD","3UUIU9GZC5R93N292LT21FRJ9VS5TN","","367.69999999552965","img/food1.png","74","368.8999999985099","1","1","2","1","1,0.5,0,1,0.5,0,0.5,0,1","1,0.5,0,1,0.5,0,0.5,0,1","1","",""
"","html-keyboard-response","137","144676","0.0-137.0","34Z02EIMITZCU0E2WHSS93RG05S0TX","A1Z6RO9XS6SQDD","3UUIU9GZC5R93N292LT21FRJ9VS5TN","","null","<img src=""img/food1.png"" style=""width:200px; border:14px solid green;"">","null","","","","","","","","","",""
"","image-keyboard-response","138","145024","0.0-138.0","34Z02EIMITZCU0E2WHSS93RG05S0TX","A1Z6RO9XS6SQDD","3UUIU9GZC5R93N292LT21FRJ9VS5TN","","346.1000000014901","img/food1.png","74","347.19999999552965","1","1","2","1","1,0.5,0,1,0.5,0,0.5,0,1","1,0.5,0,1,0.5,0,0.5,0,1","1","",""
"","html-keyboard-response","139","145334","0.0-139.0","34Z02EIMITZCU0E2WHSS93RG05S0TX","A1Z6RO9XS6SQDD","3UUIU9GZC5R93N292LT21FRJ9VS5TN","","null","<img src=""img/food1.png"" style=""width:200px; border:14px solid green;"">","null","","","","","","","","","",""
"","image-keyboard-response","140","145695","0.0-140.0","34Z02EIMITZCU0E2WHSS93RG05S0TX","A1Z6RO9XS6SQDD","3UUIU9GZC5R93N292LT21FRJ9VS5TN","","358.29999999701977","img/food1.png","74","360.19999999552965","1","1","2","1","1,0.5,0,1,0.5,0,0.5,0,1","1,0.5,0,1,0.5,0,0.5,0,1","1","",""
"","html-keyboard-response","141","145997","0.0-141.0","34Z02EIMITZCU0E2WHSS93RG05S0TX","A1Z6RO9XS6SQDD","3UUIU9GZC5R93N292LT21FRJ9VS5TN","","null","<img src=""img/food1.png"" style=""width:200px; border:14px solid green;"">","null","","","","","","","","","",""
"","image-keyboard-response","142","146666","0.0-142.0","34Z02EIMITZCU0E2WHSS93RG05S0TX","A1Z6RO9XS6SQDD","3UUIU9GZC5R93N292LT21FRJ9VS5TN","","667","img/food6.png","76","668.2999999970198","3","1","3","1","1,0.5,0,1,0.5,0,0.5,0,1","1,0.5,0,1,0.5,0,0.5,0,1","1","",""
"","html-keyboard-response","143","146969","0.0-143.0","34Z02EIMITZCU0E2WHSS93RG05S0TX","A1Z6RO9XS6SQDD","3UUIU9GZC5R93N292LT21FRJ9VS5TN","","null","<img src=""img/food6.png"" style=""width:200px; border:14px solid green;"">","null","","","","","","","","","",""
"","image-keyboard-response","144","147506","0.0-144.0","34Z02EIMITZCU0E2WHSS93RG05S0TX","A1Z6RO9XS6SQDD","3UUIU9GZC5R93N292LT21FRJ9VS5TN","","535.6000000014901","img/food6.png","76","536.2999999970198","3","1","3","1","1,0.5,0,1,0.5,0,0.5,0,1","1,0.5,0,1,0.5,0,0.5,0,1","1","",""
"","html-keyboard-response","145","147807","0.0-145.0","34Z02EIMITZCU0E2WHSS93RG05S0TX","A1Z6RO9XS6SQDD","3UUIU9GZC5R93N292LT21FRJ9VS5TN","","null","<img src=""img/food6.png"" style=""width:200px; border:14px solid green;"">","null","","","","","","","","","",""
"","image-keyboard-response","146","148167","0.0-146.0","34Z02EIMITZCU0E2WHSS93RG05S0TX","A1Z6RO9XS6SQDD","3UUIU9GZC5R93N292LT21FRJ9VS5TN","","358.70000000298023","img/food6.png","76","359.29999999701977","3","1","3","1","1,0.5,0,1,0.5,0,0.5,0,1","1,0.5,0,1,0.5,0,0.5,0,1","1","",""
"","html-keyboard-response","147","148468","0.0-147.0","34Z02EIMITZCU0E2WHSS93RG05S0TX","A1Z6RO9XS6SQDD","3UUIU9GZC5R93N292LT21FRJ9VS5TN","","null","<img src=""img/food6.png"" style=""width:200px; border:14px solid green;"">","null","","","","","","","","","",""
"","image-keyboard-response","148","148854","0.0-148.0","34Z02EIMITZCU0E2WHSS93RG05S0TX","A1Z6RO9XS6SQDD","3UUIU9GZC5R93N292LT21FRJ9VS5TN","","382.30000000447035","img/food6.png","76","385.20000000298023","3","1","3","1","1,0.5,0,1,0.5,0,0.5,0,1","1,0.5,0,1,0.5,0,0.5,0,1","1","",""
"","html-keyboard-response","149","149158","0.0-149.0","34Z02EIMITZCU0E2WHSS93RG05S0TX","A1Z6RO9XS6SQDD","3UUIU9GZC5R93N292LT21FRJ9VS5TN","","null","<img src=""img/food6.png"" style=""width:200px; border:14px solid green;"">","null","","","","","","","","","",""
"","image-keyboard-response","150","149571","0.0-150.0","34Z02EIMITZCU0E2WHSS93RG05S0TX","A1Z6RO9XS6SQDD","3UUIU9GZC5R93N292LT21FRJ9VS5TN","","411.29999999701977","img/food6.png","76","413.20000000298023","3","1","3","1","1,0.5,0,1,0.5,0,0.5,0,1","1,0.5,0,1,0.5,0,0.5,0,1","1","",""
"","html-keyboard-response","151","149874","0.0-151.0","34Z02EIMITZCU0E2WHSS93RG05S0TX","A1Z6RO9XS6SQDD","3UUIU9GZC5R93N292LT21FRJ9VS5TN","","null","<img src=""img/food6.png"" style=""width:200px; border:14px solid green;"">","null","","","","","","","","","",""
"","image-keyboard-response","152","150516","0.0-152.0","34Z02EIMITZCU0E2WHSS93RG05S0TX","A1Z6RO9XS6SQDD","3UUIU9GZC5R93N292LT21FRJ9VS5TN","","641","img/food3.png","75","641.7000000029802","2","1","1","1","1,0.5,0,1,0.5,0,0.5,0,1","1,0.5,0,1,0.5,0,0.5,0,1","1","",""
"","html-keyboard-response","153","150818","0.0-153.0","34Z02EIMITZCU0E2WHSS93RG05S0TX","A1Z6RO9XS6SQDD","3UUIU9GZC5R93N292LT21FRJ9VS5TN","","null","<img src=""img/food3.png"" style=""width:200px; border:14px solid green;"">","null","","","","","","","","","",""
"","image-keyboard-response","154","151675","0.0-154.0","34Z02EIMITZCU0E2WHSS93RG05S0TX","A1Z6RO9XS6SQDD","3UUIU9GZC5R93N292LT21FRJ9VS5TN","","856.0999999940395","img/food6.png","76","857","3","1","3","1","1,0.5,0,1,0.5,0,0.5,0,1","1,0.5,0,1,0.5,0,0.5,0,1","1","",""
"","html-keyboard-response","155","151976","0.0-155.0","34Z02EIMITZCU0E2WHSS93RG05S0TX","A1Z6RO9XS6SQDD","3UUIU9GZC5R93N292LT21FRJ9VS5TN","","null","<img src=""img/food6.png"" style=""width:200px; border:14px solid green;"">","null","","","","","","","","","",""
"","image-keyboard-response","156","152685","0.0-156.0","34Z02EIMITZCU0E2WHSS93RG05S0TX","A1Z6RO9XS6SQDD","3UUIU9GZC5R93N292LT21FRJ9VS5TN","","706.1000000014901","img/food3.png","75","708.1000000014901","2","1","1","1","1,0.5,0,1,0.5,0,0.5,0,1","1,0.5,0,1,0.5,0,0.5,0,1","1","",""
"","html-keyboard-response","157","152988","0.0-157.0","34Z02EIMITZCU0E2WHSS93RG05S0TX","A1Z6RO9XS6SQDD","3UUIU9GZC5R93N292LT21FRJ9VS5TN","","null","<img src=""img/food3.png"" style=""width:200px; border:14px solid green;"">","null","","","","","","","","","",""
"","image-keyboard-response","158","153642","0.0-158.0","34Z02EIMITZCU0E2WHSS93RG05S0TX","A1Z6RO9XS6SQDD","3UUIU9GZC5R93N292LT21FRJ9VS5TN","","651.8000000044703","img/food6.png","76","653.3999999985099","3","1","3","1","1,0.5,0,1,0.5,0,0.5,0,1","1,0.5,0,1,0.5,0,0.5,0,1","1","",""
"","html-keyboard-response","159","153953","0.0-159.0","34Z02EIMITZCU0E2WHSS93RG05S0TX","A1Z6RO9XS6SQDD","3UUIU9GZC5R93N292LT21FRJ9VS5TN","","null","<img src=""img/food6.png"" style=""width:200px; border:14px solid green;"">","null","","","","","","","","","",""
"","image-keyboard-response","160","154709","0.0-160.0","34Z02EIMITZCU0E2WHSS93RG05S0TX","A1Z6RO9XS6SQDD","3UUIU9GZC5R93N292LT21FRJ9VS5TN","","755.5","img/food1.png","74","756.8000000044703","1","1","2","1","1,0.5,0,1,0.5,0,0.5,0,1","1,0.5,0,1,0.5,0,0.5,0,1","1","",""
"","html-keyboard-response","161","155013","0.0-161.0","34Z02EIMITZCU0E2WHSS93RG05S0TX","A1Z6RO9XS6SQDD","3UUIU9GZC5R93N292LT21FRJ9VS5TN","","null","<img src=""img/food1.png"" style=""width:200px; border:14px solid green;"">","null","","","","","","","","","",""
"","image-keyboard-response","162","155628","0.0-162.0","34Z02EIMITZCU0E2WHSS93RG05S0TX","A1Z6RO9XS6SQDD","3UUIU9GZC5R93N292LT21FRJ9VS5TN","","612.8999999985099","img/food3.png","75","614.5","2","0","1","1","1,0.5,0,1,0.5,0,0.5,0,1","1,0.5,0,1,0.5,0,0.5,0,1","1","",""
"","html-keyboard-response","163","155931","0.0-163.0","34Z02EIMITZCU0E2WHSS93RG05S0TX","A1Z6RO9XS6SQDD","3UUIU9GZC5R93N292LT21FRJ9VS5TN","","null","<img src=""img/food3.png"" style=""width:200px;border:14px solid red;"">","null","","","","","","","","","",""
"","image-keyboard-response","164","156806","0.0-164.0","34Z02EIMITZCU0E2WHSS93RG05S0TX","A1Z6RO9XS6SQDD","3UUIU9GZC5R93N292LT21FRJ9VS5TN","","874.1000000014901","img/food1.png","74","875.1000000014901","1","1","2","1","1,0.5,0,1,0.5,0,0.5,0,1","1,0.5,0,1,0.5,0,0.5,0,1","1","",""
"","html-keyboard-response","165","157120","0.0-165.0","34Z02EIMITZCU0E2WHSS93RG05S0TX","A1Z6RO9XS6SQDD","3UUIU9GZC5R93N292LT21FRJ9VS5TN","","null","<img src=""img/food1.png"" style=""width:200px; border:14px solid green;"">","null","","","","","","","","","",""
"","image-keyboard-response","166","157519","0.0-166.0","34Z02EIMITZCU0E2WHSS93RG05S0TX","A1Z6RO9XS6SQDD","3UUIU9GZC5R93N292LT21FRJ9VS5TN","","396.6000000014901","img/food1.png","74","398.6000000014901","1","1","2","1","1,0.5,0,1,0.5,0,0.5,0,1","1,0.5,0,1,0.5,0,0.5,0,1","1","",""
"","html-keyboard-response","167","157821","0.0-167.0","34Z02EIMITZCU0E2WHSS93RG05S0TX","A1Z6RO9XS6SQDD","3UUIU9GZC5R93N292LT21FRJ9VS5TN","","null","<img src=""img/food1.png"" style=""width:200px; border:14px solid green;"">","null","","","","","","","","","",""
"","image-keyboard-response","168","158577","0.0-168.0","34Z02EIMITZCU0E2WHSS93RG05S0TX","A1Z6RO9XS6SQDD","3UUIU9GZC5R93N292LT21FRJ9VS5TN","","754.2000000029802","img/food6.png","76","755.6000000014901","3","1","3","1","1,0.5,0,1,0.5,0,0.5,0,1","1,0.5,0,1,0.5,0,0.5,0,1","1","",""
"","html-keyboard-response","169","158879","0.0-169.0","34Z02EIMITZCU0E2WHSS93RG05S0TX","A1Z6RO9XS6SQDD","3UUIU9GZC5R93N292LT21FRJ9VS5TN","","null","<img src=""img/food6.png"" style=""width:200px; border:14px solid green;"">","null","","","","","","","","","",""
"","image-keyboard-response","170","159586","0.0-170.0","34Z02EIMITZCU0E2WHSS93RG05S0TX","A1Z6RO9XS6SQDD","3UUIU9GZC5R93N292LT21FRJ9VS5TN","","705.2000000029802","img/food1.png","74","706.6000000014901","1","1","2","1","1,0.5,0,1,0.5,0,0.5,0,1","1,0.5,0,1,0.5,0,0.5,0,1","1","",""
"","html-keyboard-response","171","159888","0.0-171.0","34Z02EIMITZCU0E2WHSS93RG05S0TX","A1Z6RO9XS6SQDD","3UUIU9GZC5R93N292LT21FRJ9VS5TN","","null","<img src=""img/food1.png"" style=""width:200px; border:14px solid green;"">","null","","","","","","","","","",""
"","image-keyboard-response","172","160507","0.0-172.0","34Z02EIMITZCU0E2WHSS93RG05S0TX","A1Z6RO9XS6SQDD","3UUIU9GZC5R93N292LT21FRJ9VS5TN","","617.5","img/food6.png","76","618.8000000044703","3","1","3","1","1,0.5,0,1,0.5,0,0.5,0,1","1,0.5,0,1,0.5,0,0.5,0,1","1","",""
"","html-keyboard-response","173","160810","0.0-173.0","34Z02EIMITZCU0E2WHSS93RG05S0TX","A1Z6RO9XS6SQDD","3UUIU9GZC5R93N292LT21FRJ9VS5TN","","null","<img src=""img/food6.png"" style=""width:200px; border:14px solid green;"">","null","","","","","","","","","",""
"","image-keyboard-response","174","161417","0.0-174.0","34Z02EIMITZCU0E2WHSS93RG05S0TX","A1Z6RO9XS6SQDD","3UUIU9GZC5R93N292LT21FRJ9VS5TN","","605.7999999970198","img/food3.png","75","606.5","2","1","1","1","1,0.5,0,1,0.5,0,0.5,0,1","1,0.5,0,1,0.5,0,0.5,0,1","1","",""
"","html-keyboard-response","175","161719","0.0-175.0","34Z02EIMITZCU0E2WHSS93RG05S0TX","A1Z6RO9XS6SQDD","3UUIU9GZC5R93N292LT21FRJ9VS5TN","","null","<img src=""img/food3.png"" style=""width:200px; border:14px solid green;"">","null","","","","","","","","","",""
"","image-keyboard-response","176","162374","0.0-176.0","34Z02EIMITZCU0E2WHSS93RG05S0TX","A1Z6RO9XS6SQDD","3UUIU9GZC5R93N292LT21FRJ9VS5TN","","652.7000000029802","img/food1.png","74","654.5","1","1","2","1","1,0.5,0,1,0.5,0,0.5,0,1","1,0.5,0,1,0.5,0,0.5,0,1","1","",""
"","html-keyboard-response","177","162677","0.0-177.0","34Z02EIMITZCU0E2WHSS93RG05S0TX","A1Z6RO9XS6SQDD","3UUIU9GZC5R93N292LT21FRJ9VS5TN","","null","<img src=""img/food1.png"" style=""width:200px; border:14px solid green;"">","null","","","","","","","","","",""
"","image-keyboard-response","178","163117","0.0-178.0","34Z02EIMITZCU0E2WHSS93RG05S0TX","A1Z6RO9XS6SQDD","3UUIU9GZC5R93N292LT21FRJ9VS5TN","","438.29999999701977","img/food1.png","74","439.79999999701977","1","1","2","1","1,0.5,0,1,0.5,0,0.5,0,1","1,0.5,0,1,0.5,0,0.5,0,1","1","",""
"","html-keyboard-response","179","163420","0.0-179.0","34Z02EIMITZCU0E2WHSS93RG05S0TX","A1Z6RO9XS6SQDD","3UUIU9GZC5R93N292LT21FRJ9VS5TN","","null","<img src=""img/food1.png"" style=""width:200px; border:14px solid green;"">","null","","","","","","","","","",""
"","image-keyboard-response","180","164186","0.0-180.0","34Z02EIMITZCU0E2WHSS93RG05S0TX","A1Z6RO9XS6SQDD","3UUIU9GZC5R93N292LT21FRJ9VS5TN","","763.6000000014901","img/food6.png","76","765.5","3","1","3","1","1,0.5,0,1,0.5,0,0.5,0,1","1,0.5,0,1,0.5,0,0.5,0,1","1","",""
"","html-keyboard-response","181","164489","0.0-181.0","34Z02EIMITZCU0E2WHSS93RG05S0TX","A1Z6RO9XS6SQDD","3UUIU9GZC5R93N292LT21FRJ9VS5TN","","null","<img src=""img/food6.png"" style=""width:200px; border:14px solid green;"">","null","","","","","","","","","",""
"","html-keyboard-response","182","166555","0.0-182.0","34Z02EIMITZCU0E2WHSS93RG05S0TX","A1Z6RO9XS6SQDD","3UUIU9GZC5R93N292LT21FRJ9VS5TN","","","","","","","","","","","","","",""
"","instructions","183","179382","0.0-183.0","34Z02EIMITZCU0E2WHSS93RG05S0TX","A1Z6RO9XS6SQDD","3UUIU9GZC5R93N292LT21FRJ9VS5TN","[{""page_index"":0,""viewing_time"":10370.5},{""page_index"":1,""viewing_time"":2454.1999999955297}]","12825.5","","","","","","","","","","","",""
"","image-keyboard-response","184","180379","0.0-184.0","34Z02EIMITZCU0E2WHSS93RG05S0TX","A1Z6RO9XS6SQDD","3UUIU9GZC5R93N292LT21FRJ9VS5TN","","994.3999999985099","img/food4.png","74","996.2999999970198","1","0","1","2","1,0.5,0,1,0.5,0,0.5,0,1","0.5,0,1,0.5,0,1,0,1,0.5","2","false",""
"","html-keyboard-response","185","180681","0.0-185.0","34Z02EIMITZCU0E2WHSS93RG05S0TX","A1Z6RO9XS6SQDD","3UUIU9GZC5R93N292LT21FRJ9VS5TN","","null","<img src=""img/food4.png"" style=""width:200px;border:14px solid red;"">","null","","","","","","","","","",""
"","image-keyboard-response","186","181297","0.0-187.0","34Z02EIMITZCU0E2WHSS93RG05S0TX","A1Z6RO9XS6SQDD","3UUIU9GZC5R93N292LT21FRJ9VS5TN","","613.1000000014901","img/food2.png","75","615.1000000014901","2","1","3","2","1,0.5,0,1,0.5,0,0.5,0,1","0.5,0,1,0.5,0,1,0,1,0.5","2","false",""
"","html-keyboard-response","187","181600","0.0-188.0","34Z02EIMITZCU0E2WHSS93RG05S0TX","A1Z6RO9XS6SQDD","3UUIU9GZC5R93N292LT21FRJ9VS5TN","","null","<img src=""img/food2.png"" style=""width:200px; border:14px solid green;"">","null","","","","","","","","","",""
"","image-keyboard-response","188","182306","0.0-190.0","34Z02EIMITZCU0E2WHSS93RG05S0TX","A1Z6RO9XS6SQDD","3UUIU9GZC5R93N292LT21FRJ9VS5TN","","704","img/food4.png","74","705.2000000029802","1","0","1","2","1,0.5,0,1,0.5,0,0.5,0,1","0.5,0,1,0.5,0,1,0,1,0.5","2","false",""
"","html-keyboard-response","189","182609","0.0-191.0","34Z02EIMITZCU0E2WHSS93RG05S0TX","A1Z6RO9XS6SQDD","3UUIU9GZC5R93N292LT21FRJ9VS5TN","","null","<img src=""img/food4.png"" style=""width:200px;border:14px solid red;"">","null","","","","","","","","","",""
"","image-keyboard-response","190","183505","0.0-193.0","34Z02EIMITZCU0E2WHSS93RG05S0TX","A1Z6RO9XS6SQDD","3UUIU9GZC5R93N292LT21FRJ9VS5TN","","893.5","img/food2.png","75","895.2000000029802","2","1","3","2","1,0.5,0,1,0.5,0,0.5,0,1","0.5,0,1,0.5,0,1,0,1,0.5","2","false",""
"","html-keyboard-response","191","183821","0.0-194.0","34Z02EIMITZCU0E2WHSS93RG05S0TX","A1Z6RO9XS6SQDD","3UUIU9GZC5R93N292LT21FRJ9VS5TN","","null","<img src=""img/food2.png"" style=""width:200px; border:14px solid green;"">","null","","","","","","","","","",""
"","image-keyboard-response","192","184724","0.0-196.0","34Z02EIMITZCU0E2WHSS93RG05S0TX","A1Z6RO9XS6SQDD","3UUIU9GZC5R93N292LT21FRJ9VS5TN","","901.2999999970198","img/food5.png","74","902.6999999955297","1","0","2","2","1,0.5,0,1,0.5,0,0.5,0,1","0.5,0,1,0.5,0,1,0,1,0.5","2","false",""
"","html-keyboard-response","193","185027","0.0-197.0","34Z02EIMITZCU0E2WHSS93RG05S0TX","A1Z6RO9XS6SQDD","3UUIU9GZC5R93N292LT21FRJ9VS5TN","","null","<img src=""img/food5.png"" style=""width:200px;border:14px solid red;"">","null","","","","","","","","","",""
"","image-keyboard-response","194","185682","0.0-199.0","34Z02EIMITZCU0E2WHSS93RG05S0TX","A1Z6RO9XS6SQDD","3UUIU9GZC5R93N292LT21FRJ9VS5TN","","651.7000000029802","img/food4.png","76","654","3","1","1","2","1,0.5,0,1,0.5,0,0.5,0,1","0.5,0,1,0.5,0,1,0,1,0.5","2","false",""
"","html-keyboard-response","195","185984","0.0-200.0","34Z02EIMITZCU0E2WHSS93RG05S0TX","A1Z6RO9XS6SQDD","3UUIU9GZC5R93N292LT21FRJ9VS5TN","","null","<img src=""img/food4.png"" style=""width:200px; border:14px solid green;"">","null","","","","","","","","","",""
"","image-keyboard-response","196","186792","0.0-202.0","34Z02EIMITZCU0E2WHSS93RG05S0TX","A1Z6RO9XS6SQDD","3UUIU9GZC5R93N292LT21FRJ9VS5TN","","807.1000000014901","img/food2.png","74","807.6000000014901","1","0","3","2","1,0.5,0,1,0.5,0,0.5,0,1","0.5,0,1,0.5,0,1,0,1,0.5","2","false",""
"","html-keyboard-response","197","187094","0.0-203.0","34Z02EIMITZCU0E2WHSS93RG05S0TX","A1Z6RO9XS6SQDD","3UUIU9GZC5R93N292LT21FRJ9VS5TN","","null","<img src=""img/food2.png"" style=""width:200px;border:14px solid red;"">","null","","","","","","","","","",""
"","image-keyboard-response","198","187697","0.0-205.0","34Z02EIMITZCU0E2WHSS93RG05S0TX","A1Z6RO9XS6SQDD","3UUIU9GZC5R93N292LT21FRJ9VS5TN","","601.5999999940395","img/food2.png","75","603.2000000029802","2","1","3","2","1,0.5,0,1,0.5,0,0.5,0,1","0.5,0,1,0.5,0,1,0,1,0.5","2","false",""
"","html-keyboard-response","199","188000","0.0-206.0","34Z02EIMITZCU0E2WHSS93RG05S0TX","A1Z6RO9XS6SQDD","3UUIU9GZC5R93N292LT21FRJ9VS5TN","","null","<img src=""img/food2.png"" style=""width:200px; border:14px solid green;"">","null","","","","","","","","","",""
"","image-keyboard-response","200","189002","0.0-208.0","34Z02EIMITZCU0E2WHSS93RG05S0TX","A1Z6RO9XS6SQDD","3UUIU9GZC5R93N292LT21FRJ9VS5TN","","","img/food5.png","","1002.1000000014901","-1","0","2","2","1,0.5,0,1,0.5,0,0.5,0,1","0.5,0,1,0.5,0,1,0,1,0.5","2","true",""
"","html-keyboard-response","201","189306","0.0-209.0","34Z02EIMITZCU0E2WHSS93RG05S0TX","A1Z6RO9XS6SQDD","3UUIU9GZC5R93N292LT21FRJ9VS5TN","","null","<img src=""img/food5.png"" style=""width:200px;border:14px solid red;"">","null","","","","","","","","","",""
"","html-keyboard-response","202","200857","0.0-210.0-0.0","34Z02EIMITZCU0E2WHSS93RG05S0TX","A1Z6RO9XS6SQDD","3UUIU9GZC5R93N292LT21FRJ9VS5TN","","","","","","","","","","","","","",""
"","image-keyboard-response","203","201632","0.0-211.0","34Z02EIMITZCU0E2WHSS93RG05S0TX","A1Z6RO9XS6SQDD","3UUIU9GZC5R93N292LT21FRJ9VS5TN","","771.6000000014901","img/food4.png","75","774","2","0","1","2","1,0.5,0,1,0.5,0,0.5,0,1","0.5,0,1,0.5,0,1,0,1,0.5","2","false",""
"","html-keyboard-response","204","201936","0.0-212.0","34Z02EIMITZCU0E2WHSS93RG05S0TX","A1Z6RO9XS6SQDD","3UUIU9GZC5R93N292LT21FRJ9VS5TN","","null","<img src=""img/food4.png"" style=""width:200px;border:14px solid red;"">","null","","","","","","","","","",""
"","image-keyboard-response","205","202070","0.0-214.0","34Z02EIMITZCU0E2WHSS93RG05S0TX","A1Z6RO9XS6SQDD","3UUIU9GZC5R93N292LT21FRJ9VS5TN","","133.29999999701977","img/food2.png","76","134.09999999403954","3","0","3","2","1,0.5,0,1,0.5,0,0.5,0,1","0.5,0,1,0.5,0,1,0,1,0.5","2","false",""
"","html-keyboard-response","206","202372","0.0-215.0","34Z02EIMITZCU0E2WHSS93RG05S0TX","A1Z6RO9XS6SQDD","3UUIU9GZC5R93N292LT21FRJ9VS5TN","","null","<img src=""img/food2.png"" style=""width:200px;border:14px solid red;"">","null","","","","","","","","","",""
"","image-keyboard-response","207","202774","0.0-217.0","34Z02EIMITZCU0E2WHSS93RG05S0TX","A1Z6RO9XS6SQDD","3UUIU9GZC5R93N292LT21FRJ9VS5TN","","399.8999999985099","img/food4.png","74","401.79999999701977","1","1","1","2","1,0.5,0,1,0.5,0,0.5,0,1","0.5,0,1,0.5,0,1,0,1,0.5","2","false",""
"","html-keyboard-response","208","203076","0.0-218.0","34Z02EIMITZCU0E2WHSS93RG05S0TX","A1Z6RO9XS6SQDD","3UUIU9GZC5R93N292LT21FRJ9VS5TN","","null","<img src=""img/food4.png"" style=""width:200px; border:14px solid green;"">","null","","","","","","","","","",""
"","image-keyboard-response","209","203211","0.0-220.0","34Z02EIMITZCU0E2WHSS93RG05S0TX","A1Z6RO9XS6SQDD","3UUIU9GZC5R93N292LT21FRJ9VS5TN","","133.39999999850988","img/food2.png","75","134.69999999552965","2","1","3","2","1,0.5,0,1,0.5,0,0.5,0,1","0.5,0,1,0.5,0,1,0,1,0.5","2","false",""
"","html-keyboard-response","210","203514","0.0-221.0","34Z02EIMITZCU0E2WHSS93RG05S0TX","A1Z6RO9XS6SQDD","3UUIU9GZC5R93N292LT21FRJ9VS5TN","","null","<img src=""img/food2.png"" style=""width:200px; border:14px solid green;"">","null","","","","","","","","","",""
"","image-keyboard-response","211","203666","0.0-223.0","34Z02EIMITZCU0E2WHSS93RG05S0TX","A1Z6RO9XS6SQDD","3UUIU9GZC5R93N292LT21FRJ9VS5TN","","150.60000000149012","img/food4.png","76","151.19999999552965","3","1","1","2","1,0.5,0,1,0.5,0,0.5,0,1","0.5,0,1,0.5,0,1,0,1,0.5","2","false",""
"","html-keyboard-response","212","203968","0.0-224.0","34Z02EIMITZCU0E2WHSS93RG05S0TX","A1Z6RO9XS6SQDD","3UUIU9GZC5R93N292LT21FRJ9VS5TN","","null","<img src=""img/food4.png"" style=""width:200px; border:14px solid green;"">","null","","","","","","","","","",""
"","image-keyboard-response","213","204366","0.0-226.0","34Z02EIMITZCU0E2WHSS93RG05S0TX","A1Z6RO9XS6SQDD","3UUIU9GZC5R93N292LT21FRJ9VS5TN","","394.6000000014901","img/food5.png","74","396.69999999552965","1","1","2","2","1,0.5,0,1,0.5,0,0.5,0,1","0.5,0,1,0.5,0,1,0,1,0.5","2","false",""
"","html-keyboard-response","214","204669","0.0-227.0","34Z02EIMITZCU0E2WHSS93RG05S0TX","A1Z6RO9XS6SQDD","3UUIU9GZC5R93N292LT21FRJ9VS5TN","","null","<img src=""img/food5.png"" style=""width:200px; border:14px solid green;"">","null","","","","","","","","","",""
"","image-keyboard-response","215","205147","0.0-229.0","34Z02EIMITZCU0E2WHSS93RG05S0TX","A1Z6RO9XS6SQDD","3UUIU9GZC5R93N292LT21FRJ9VS5TN","","476.5","img/food5.png","76","477.79999999701977","3","1","2","2","1,0.5,0,1,0.5,0,0.5,0,1","0.5,0,1,0.5,0,1,0,1,0.5","2","false",""
"","html-keyboard-response","216","205449","0.0-230.0","34Z02EIMITZCU0E2WHSS93RG05S0TX","A1Z6RO9XS6SQDD","3UUIU9GZC5R93N292LT21FRJ9VS5TN","","null","<img src=""img/food5.png"" style=""width:200px; border:14px solid green;"">","null","","","","","","","","","",""
"","image-keyboard-response","217","205608","0.0-232.0","34Z02EIMITZCU0E2WHSS93RG05S0TX","A1Z6RO9XS6SQDD","3UUIU9GZC5R93N292LT21FRJ9VS5TN","","157","img/food4.png","76","158.19999999552965","3","1","1","2","1,0.5,0,1,0.5,0,0.5,0,1","0.5,0,1,0.5,0,1,0,1,0.5","2","false",""
"","html-keyboard-response","218","205911","0.0-233.0","34Z02EIMITZCU0E2WHSS93RG05S0TX","A1Z6RO9XS6SQDD","3UUIU9GZC5R93N292LT21FRJ9VS5TN","","null","<img src=""img/food4.png"" style=""width:200px; border:14px solid green;"">","null","","","","","","","","","",""
"","image-keyboard-response","219","206152","0.0-235.0","34Z02EIMITZCU0E2WHSS93RG05S0TX","A1Z6RO9XS6SQDD","3UUIU9GZC5R93N292LT21FRJ9VS5TN","","239.5","img/food4.png","76","241","3","1","1","2","1,0.5,0,1,0.5,0,0.5,0,1","0.5,0,1,0.5,0,1,0,1,0.5","2","false",""
"","html-keyboard-response","220","206455","0.0-236.0","34Z02EIMITZCU0E2WHSS93RG05S0TX","A1Z6RO9XS6SQDD","3UUIU9GZC5R93N292LT21FRJ9VS5TN","","null","<img src=""img/food4.png"" style=""width:200px; border:14px solid green;"">","null","","","","","","","","","",""
"","image-keyboard-response","221","207116","0.0-238.0","34Z02EIMITZCU0E2WHSS93RG05S0TX","A1Z6RO9XS6SQDD","3UUIU9GZC5R93N292LT21FRJ9VS5TN","","657.7999999970198","img/food5.png","75","659.7000000029802","2","0","2","2","1,0.5,0,1,0.5,0,0.5,0,1","0.5,0,1,0.5,0,1,0,1,0.5","2","false",""
"","html-keyboard-response","222","207419","0.0-239.0","34Z02EIMITZCU0E2WHSS93RG05S0TX","A1Z6RO9XS6SQDD","3UUIU9GZC5R93N292LT21FRJ9VS5TN","","null","<img src=""img/food5.png"" style=""width:200px;border:14px solid red;"">","null","","","","","","","","","",""
"","image-keyboard-response","223","207505","0.0-241.0","34Z02EIMITZCU0E2WHSS93RG05S0TX","A1Z6RO9XS6SQDD","3UUIU9GZC5R93N292LT21FRJ9VS5TN","","84.89999999850988","img/food4.png","74","86.09999999403954","1","1","1","2","1,0.5,0,1,0.5,0,0.5,0,1","0.5,0,1,0.5,0,1,0,1,0.5","2","false",""
"","html-keyboard-response","224","207808","0.0-242.0","34Z02EIMITZCU0E2WHSS93RG05S0TX","A1Z6RO9XS6SQDD","3UUIU9GZC5R93N292LT21FRJ9VS5TN","","null","<img src=""img/food4.png"" style=""width:200px; border:14px solid green;"">","null","","","","","","","","","",""
"","image-keyboard-response","225","208080","0.0-244.0","34Z02EIMITZCU0E2WHSS93RG05S0TX","A1Z6RO9XS6SQDD","3UUIU9GZC5R93N292LT21FRJ9VS5TN","","270.30000000447035","img/food5.png","76","271.5","3","1","2","2","1,0.5,0,1,0.5,0,0.5,0,1","0.5,0,1,0.5,0,1,0,1,0.5","2","false",""
"","html-keyboard-response","226","208382","0.0-245.0","34Z02EIMITZCU0E2WHSS93RG05S0TX","A1Z6RO9XS6SQDD","3UUIU9GZC5R93N292LT21FRJ9VS5TN","","null","<img src=""img/food5.png"" style=""width:200px; border:14px solid green;"">","null","","","","","","","","","",""
"","image-keyboard-response","227","208873","0.0-247.0","34Z02EIMITZCU0E2WHSS93RG05S0TX","A1Z6RO9XS6SQDD","3UUIU9GZC5R93N292LT21FRJ9VS5TN","","489.09999999403954","img/food4.png","74","490.30000000447035","1","1","1","2","1,0.5,0,1,0.5,0,0.5,0,1","0.5,0,1,0.5,0,1,0,1,0.5","2","false",""
"","html-keyboard-response","228","209177","0.0-248.0","34Z02EIMITZCU0E2WHSS93RG05S0TX","A1Z6RO9XS6SQDD","3UUIU9GZC5R93N292LT21FRJ9VS5TN","","null","<img src=""img/food4.png"" style=""width:200px; border:14px solid green;"">","null","","","","","","","","","",""
"","image-keyboard-response","229","209571","0.0-250.0","34Z02EIMITZCU0E2WHSS93RG05S0TX","A1Z6RO9XS6SQDD","3UUIU9GZC5R93N292LT21FRJ9VS5TN","","391.5","img/food2.png","75","393.29999999701977","2","1","3","2","1,0.5,0,1,0.5,0,0.5,0,1","0.5,0,1,0.5,0,1,0,1,0.5","2","false",""
"","html-keyboard-response","230","209873","0.0-251.0","34Z02EIMITZCU0E2WHSS93RG05S0TX","A1Z6RO9XS6SQDD","3UUIU9GZC5R93N292LT21FRJ9VS5TN","","null","<img src=""img/food2.png"" style=""width:200px; border:14px solid green;"">","null","","","","","","","","","",""
"","image-keyboard-response","231","210041","0.0-253.0","34Z02EIMITZCU0E2WHSS93RG05S0TX","A1Z6RO9XS6SQDD","3UUIU9GZC5R93N292LT21FRJ9VS5TN","","165.90000000596046","img/food5.png","76","167","3","1","2","2","1,0.5,0,1,0.5,0,0.5,0,1","0.5,0,1,0.5,0,1,0,1,0.5","2","false",""
"","html-keyboard-response","232","210344","0.0-254.0","34Z02EIMITZCU0E2WHSS93RG05S0TX","A1Z6RO9XS6SQDD","3UUIU9GZC5R93N292LT21FRJ9VS5TN","","null","<img src=""img/food5.png"" style=""width:200px; border:14px solid green;"">","null","","","","","","","","","",""
"","image-keyboard-response","233","210492","0.0-256.0","34Z02EIMITZCU0E2WHSS93RG05S0TX","A1Z6RO9XS6SQDD","3UUIU9GZC5R93N292LT21FRJ9VS5TN","","144.80000000447035","img/food4.png","74","146.79999999701977","1","1","1","2","1,0.5,0,1,0.5,0,0.5,0,1","0.5,0,1,0.5,0,1,0,1,0.5","2","false",""
"","html-keyboard-response","234","210795","0.0-257.0","34Z02EIMITZCU0E2WHSS93RG05S0TX","A1Z6RO9XS6SQDD","3UUIU9GZC5R93N292LT21FRJ9VS5TN","","null","<img src=""img/food4.png"" style=""width:200px; border:14px solid green;"">","null","","","","","","","","","",""
"","image-keyboard-response","235","211201","0.0-259.0","34Z02EIMITZCU0E2WHSS93RG05S0TX","A1Z6RO9XS6SQDD","3UUIU9GZC5R93N292LT21FRJ9VS5TN","","403.6000000014901","img/food5.png","75","405.5","2","0","2","2","1,0.5,0,1,0.5,0,0.5,0,1","0.5,0,1,0.5,0,1,0,1,0.5","2","false",""
"","html-keyboard-response","236","211505","0.0-260.0","34Z02EIMITZCU0E2WHSS93RG05S0TX","A1Z6RO9XS6SQDD","3UUIU9GZC5R93N292LT21FRJ9VS5TN","","null","<img src=""img/food5.png"" style=""width:200px;border:14px solid red;"">","null","","","","","","","","","",""
"","image-keyboard-response","237","211613","0.0-262.0","34Z02EIMITZCU0E2WHSS93RG05S0TX","A1Z6RO9XS6SQDD","3UUIU9GZC5R93N292LT21FRJ9VS5TN","","106.10000000149012","img/food2.png","76","106.79999999701977","3","0","3","2","1,0.5,0,1,0.5,0,0.5,0,1","0.5,0,1,0.5,0,1,0,1,0.5","2","false",""
"","html-keyboard-response","238","211915","0.0-263.0","34Z02EIMITZCU0E2WHSS93RG05S0TX","A1Z6RO9XS6SQDD","3UUIU9GZC5R93N292LT21FRJ9VS5TN","","null","<img src=""img/food2.png"" style=""width:200px;border:14px solid red;"">","null","","","","","","","","","",""
"","image-keyboard-response","239","212219","0.0-265.0","34Z02EIMITZCU0E2WHSS93RG05S0TX","A1Z6RO9XS6SQDD","3UUIU9GZC5R93N292LT21FRJ9VS5TN","","304","img/food5.png","75","304.5","2","0","2","2","1,0.5,0,1,0.5,0,0.5,0,1","0.5,0,1,0.5,0,1,0,1,0.5","2","false",""
"","html-keyboard-response","240","212521","0.0-266.0","34Z02EIMITZCU0E2WHSS93RG05S0TX","A1Z6RO9XS6SQDD","3UUIU9GZC5R93N292LT21FRJ9VS5TN","","null","<img src=""img/food5.png"" style=""width:200px;border:14px solid red;"">","null","","","","","","","","","",""
"","image-keyboard-response","241","212686","0.0-268.0","34Z02EIMITZCU0E2WHSS93RG05S0TX","A1Z6RO9XS6SQDD","3UUIU9GZC5R93N292LT21FRJ9VS5TN","","162.09999999403954","img/food2.png","74","163.89999999850988","1","0","3","2","1,0.5,0,1,0.5,0,0.5,0,1","0.5,0,1,0.5,0,1,0,1,0.5","2","false",""
"","html-keyboard-response","242","212990","0.0-269.0","34Z02EIMITZCU0E2WHSS93RG05S0TX","A1Z6RO9XS6SQDD","3UUIU9GZC5R93N292LT21FRJ9VS5TN","","null","<img src=""img/food2.png"" style=""width:200px;border:14px solid red;"">","null","","","","","","","","","",""
"","image-keyboard-response","243","213431","0.0-271.0","34Z02EIMITZCU0E2WHSS93RG05S0TX","A1Z6RO9XS6SQDD","3UUIU9GZC5R93N292LT21FRJ9VS5TN","","439","img/food4.png","75","441","2","0","1","2","1,0.5,0,1,0.5,0,0.5,0,1","0.5,0,1,0.5,0,1,0,1,0.5","2","false",""
"","html-keyboard-response","244","213735","0.0-272.0","34Z02EIMITZCU0E2WHSS93RG05S0TX","A1Z6RO9XS6SQDD","3UUIU9GZC5R93N292LT21FRJ9VS5TN","","null","<img src=""img/food4.png"" style=""width:200px;border:14px solid red;"">","null","","","","","","","","","",""
"","image-keyboard-response","245","213820","0.0-274.0","34Z02EIMITZCU0E2WHSS93RG05S0TX","A1Z6RO9XS6SQDD","3UUIU9GZC5R93N292LT21FRJ9VS5TN","","82.60000000149012","img/food2.png","76","84.20000000298023","3","1","3","2","1,0.5,0,1,0.5,0,0.5,0,1","0.5,0,1,0.5,0,1,0,1,0.5","2","false",""
"","html-keyboard-response","246","214135","0.0-275.0","34Z02EIMITZCU0E2WHSS93RG05S0TX","A1Z6RO9XS6SQDD","3UUIU9GZC5R93N292LT21FRJ9VS5TN","","null","<img src=""img/food2.png"" style=""width:200px; border:14px solid green;"">","null","","","","","","","","","",""
"","image-keyboard-response","247","214378","0.0-277.0","34Z02EIMITZCU0E2WHSS93RG05S0TX","A1Z6RO9XS6SQDD","3UUIU9GZC5R93N292LT21FRJ9VS5TN","","241","img/food4.png","74","242.30000000447035","1","0","1","2","1,0.5,0,1,0.5,0,0.5,0,1","0.5,0,1,0.5,0,1,0,1,0.5","2","false",""
"","html-keyboard-response","248","214680","0.0-278.0","34Z02EIMITZCU0E2WHSS93RG05S0TX","A1Z6RO9XS6SQDD","3UUIU9GZC5R93N292LT21FRJ9VS5TN","","null","<img src=""img/food4.png"" style=""width:200px;border:14px solid red;"">","null","","","","","","","","","",""
"","image-keyboard-response","249","214842","0.0-280.0","34Z02EIMITZCU0E2WHSS93RG05S0TX","A1Z6RO9XS6SQDD","3UUIU9GZC5R93N292LT21FRJ9VS5TN","","158","img/food5.png","75","160.5","2","0","2","2","1,0.5,0,1,0.5,0,0.5,0,1","0.5,0,1,0.5,0,1,0,1,0.5","2","false",""
"","html-keyboard-response","250","215144","0.0-281.0","34Z02EIMITZCU0E2WHSS93RG05S0TX","A1Z6RO9XS6SQDD","3UUIU9GZC5R93N292LT21FRJ9VS5TN","","null","<img src=""img/food5.png"" style=""width:200px;border:14px solid red;"">","null","","","","","","","","","",""
"","image-keyboard-response","251","215335","0.0-283.0","34Z02EIMITZCU0E2WHSS93RG05S0TX","A1Z6RO9XS6SQDD","3UUIU9GZC5R93N292LT21FRJ9VS5TN","","187.80000000447035","img/food4.png","76","189.80000000447035","3","1","1","2","1,0.5,0,1,0.5,0,0.5,0,1","0.5,0,1,0.5,0,1,0,1,0.5","2","false",""
"","html-keyboard-response","252","215638","0.0-284.0","34Z02EIMITZCU0E2WHSS93RG05S0TX","A1Z6RO9XS6SQDD","3UUIU9GZC5R93N292LT21FRJ9VS5TN","","null","<img src=""img/food4.png"" style=""width:200px; border:14px solid green;"">","null","","","","","","","","","",""
"","image-keyboard-response","253","215833","0.0-286.0","34Z02EIMITZCU0E2WHSS93RG05S0TX","A1Z6RO9XS6SQDD","3UUIU9GZC5R93N292LT21FRJ9VS5TN","","192.80000000447035","img/food5.png","75","193.60000000149012","2","0","2","2","1,0.5,0,1,0.5,0,0.5,0,1","0.5,0,1,0.5,0,1,0,1,0.5","2","false",""
"","html-keyboard-response","254","216134","0.0-287.0","34Z02EIMITZCU0E2WHSS93RG05S0TX","A1Z6RO9XS6SQDD","3UUIU9GZC5R93N292LT21FRJ9VS5TN","","null","<img src=""img/food5.png"" style=""width:200px;border:14px solid red;"">","null","","","","","","","","","",""
"","image-keyboard-response","255","216448","0.0-289.0","34Z02EIMITZCU0E2WHSS93RG05S0TX","A1Z6RO9XS6SQDD","3UUIU9GZC5R93N292LT21FRJ9VS5TN","","313","img/food4.png","74","314.1000000014901","1","0","1","2","1,0.5,0,1,0.5,0,0.5,0,1","0.5,0,1,0.5,0,1,0,1,0.5","2","false",""
"","html-keyboard-response","256","216765","0.0-290.0","34Z02EIMITZCU0E2WHSS93RG05S0TX","A1Z6RO9XS6SQDD","3UUIU9GZC5R93N292LT21FRJ9VS5TN","","null","<img src=""img/food4.png"" style=""width:200px;border:14px solid red;"">","null","","","","","","","","","",""
"","image-keyboard-response","257","217040","0.0-292.0","34Z02EIMITZCU0E2WHSS93RG05S0TX","A1Z6RO9XS6SQDD","3UUIU9GZC5R93N292LT21FRJ9VS5TN","","271.70000000298023","img/food5.png","76","273.80000000447035","3","1","2","2","1,0.5,0,1,0.5,0,0.5,0,1","0.5,0,1,0.5,0,1,0,1,0.5","2","false",""
"","html-keyboard-response","258","217344","0.0-293.0","34Z02EIMITZCU0E2WHSS93RG05S0TX","A1Z6RO9XS6SQDD","3UUIU9GZC5R93N292LT21FRJ9VS5TN","","null","<img src=""img/food5.png"" style=""width:200px; border:14px solid green;"">","null","","","","","","","","","",""
"","image-keyboard-response","259","217747","0.0-295.0","34Z02EIMITZCU0E2WHSS93RG05S0TX","A1Z6RO9XS6SQDD","3UUIU9GZC5R93N292LT21FRJ9VS5TN","","401.3999999985099","img/food2.png","76","403.1000000014901","3","0","3","2","1,0.5,0,1,0.5,0,0.5,0,1","0.5,0,1,0.5,0,1,0,1,0.5","2","false",""
"","html-keyboard-response","260","218050","0.0-296.0","34Z02EIMITZCU0E2WHSS93RG05S0TX","A1Z6RO9XS6SQDD","3UUIU9GZC5R93N292LT21FRJ9VS5TN","","null","<img src=""img/food2.png"" style=""width:200px;border:14px solid red;"">","null","","","","","","","","","",""
"","image-keyboard-response","261","218051","0.0-298.0","34Z02EIMITZCU0E2WHSS93RG05S0TX","A1Z6RO9XS6SQDD","3UUIU9GZC5R93N292LT21FRJ9VS5TN","","0.10000000149011612","img/food4.png","75","0.6000000014901161","2","0","1","2","1,0.5,0,1,0.5,0,0.5,0,1","0.5,0,1,0.5,0,1,0,1,0.5","2","false",""
"","html-keyboard-response","262","218352","0.0-299.0","34Z02EIMITZCU0E2WHSS93RG05S0TX","A1Z6RO9XS6SQDD","3UUIU9GZC5R93N292LT21FRJ9VS5TN","","null","<img src=""img/food4.png"" style=""width:200px;border:14px solid red;"">","null","","","","","","","","","",""
"","image-keyboard-response","263","218757","0.0-301.0","34Z02EIMITZCU0E2WHSS93RG05S0TX","A1Z6RO9XS6SQDD","3UUIU9GZC5R93N292LT21FRJ9VS5TN","","403","img/food2.png","75","407.29999999701977","2","1","3","2","1,0.5,0,1,0.5,0,0.5,0,1","0.5,0,1,0.5,0,1,0,1,0.5","2","false",""
"","html-keyboard-response","264","219063","0.0-302.0","34Z02EIMITZCU0E2WHSS93RG05S0TX","A1Z6RO9XS6SQDD","3UUIU9GZC5R93N292LT21FRJ9VS5TN","","null","<img src=""img/food2.png"" style=""width:200px; border:14px solid green;"">","null","","","","","","","","","",""
"","image-keyboard-response","265","219393","0.0-304.0","34Z02EIMITZCU0E2WHSS93RG05S0TX","A1Z6RO9XS6SQDD","3UUIU9GZC5R93N292LT21FRJ9VS5TN","","327.5","img/food2.png","75","328.8999999985099","2","1","3","2","1,0.5,0,1,0.5,0,0.5,0,1","0.5,0,1,0.5,0,1,0,1,0.5","2","false",""
"","html-keyboard-response","266","219695","0.0-305.0","34Z02EIMITZCU0E2WHSS93RG05S0TX","A1Z6RO9XS6SQDD","3UUIU9GZC5R93N292LT21FRJ9VS5TN","","null","<img src=""img/food2.png"" style=""width:200px; border:14px solid green;"">","null","","","","","","","","","",""
"","image-keyboard-response","267","219844","0.0-307.0","34Z02EIMITZCU0E2WHSS93RG05S0TX","A1Z6RO9XS6SQDD","3UUIU9GZC5R93N292LT21FRJ9VS5TN","","147.30000000447035","img/food5.png","75","148","2","0","2","2","1,0.5,0,1,0.5,0,0.5,0,1","0.5,0,1,0.5,0,1,0,1,0.5","2","false",""
"","html-keyboard-response","268","220146","0.0-308.0","34Z02EIMITZCU0E2WHSS93RG05S0TX","A1Z6RO9XS6SQDD","3UUIU9GZC5R93N292LT21FRJ9VS5TN","","null","<img src=""img/food5.png"" style=""width:200px;border:14px solid red;"">","null","","","","","","","","","",""
"","image-keyboard-response","269","220181","0.0-310.0","34Z02EIMITZCU0E2WHSS93RG05S0TX","A1Z6RO9XS6SQDD","3UUIU9GZC5R93N292LT21FRJ9VS5TN","","32.70000000298023","img/food5.png","76","34","3","1","2","2","1,0.5,0,1,0.5,0,0.5,0,1","0.5,0,1,0.5,0,1,0,1,0.5","2","false",""
"","html-keyboard-response","270","220482","0.0-311.0","34Z02EIMITZCU0E2WHSS93RG05S0TX","A1Z6RO9XS6SQDD","3UUIU9GZC5R93N292LT21FRJ9VS5TN","","null","<img src=""img/food5.png"" style=""width:200px; border:14px solid green;"">","null","","","","","","","","","",""
"","image-keyboard-response","271","220735","0.0-313.0","34Z02EIMITZCU0E2WHSS93RG05S0TX","A1Z6RO9XS6SQDD","3UUIU9GZC5R93N292LT21FRJ9VS5TN","","250.89999999850988","img/food5.png","74","252.29999999701977","1","0","2","2","1,0.5,0,1,0.5,0,0.5,0,1","0.5,0,1,0.5,0,1,0,1,0.5","2","false",""
"","html-keyboard-response","272","221038","0.0-314.0","34Z02EIMITZCU0E2WHSS93RG05S0TX","A1Z6RO9XS6SQDD","3UUIU9GZC5R93N292LT21FRJ9VS5TN","","null","<img src=""img/food5.png"" style=""width:200px;border:14px solid red;"">","null","","","","","","","","","",""
"","image-keyboard-response","273","221113","0.0-316.0","34Z02EIMITZCU0E2WHSS93RG05S0TX","A1Z6RO9XS6SQDD","3UUIU9GZC5R93N292LT21FRJ9VS5TN","","73.60000000149012","img/food2.png","75","74.40000000596046","2","1","3","2","1,0.5,0,1,0.5,0,0.5,0,1","0.5,0,1,0.5,0,1,0,1,0.5","2","false",""
"","html-keyboard-response","274","221415","0.0-317.0","34Z02EIMITZCU0E2WHSS93RG05S0TX","A1Z6RO9XS6SQDD","3UUIU9GZC5R93N292LT21FRJ9VS5TN","","null","<img src=""img/food2.png"" style=""width:200px; border:14px solid green;"">","null","","","","","","","","","",""
"","image-keyboard-response","275","221785","0.0-319.0","34Z02EIMITZCU0E2WHSS93RG05S0TX","A1Z6RO9XS6SQDD","3UUIU9GZC5R93N292LT21FRJ9VS5TN","","368.40000000596046","img/food2.png","74","369.5","1","0","3","2","1,0.5,0,1,0.5,0,0.5,0,1","0.5,0,1,0.5,0,1,0,1,0.5","2","false",""
"","html-keyboard-response","276","222089","0.0-320.0","34Z02EIMITZCU0E2WHSS93RG05S0TX","A1Z6RO9XS6SQDD","3UUIU9GZC5R93N292LT21FRJ9VS5TN","","null","<img src=""img/food2.png"" style=""width:200px;border:14px solid red;"">","null","","","","","","","","","",""
"","image-keyboard-response","277","222533","0.0-322.0","34Z02EIMITZCU0E2WHSS93RG05S0TX","A1Z6RO9XS6SQDD","3UUIU9GZC5R93N292LT21FRJ9VS5TN","","441.69999999552965","img/food5.png","76","443.09999999403954","3","1","2","2","1,0.5,0,1,0.5,0,0.5,0,1","0.5,0,1,0.5,0,1,0,1,0.5","2","false",""
"","html-keyboard-response","278","222835","0.0-323.0","34Z02EIMITZCU0E2WHSS93RG05S0TX","A1Z6RO9XS6SQDD","3UUIU9GZC5R93N292LT21FRJ9VS5TN","","null","<img src=""img/food5.png"" style=""width:200px; border:14px solid green;"">","null","","","","","","","","","",""
"","image-keyboard-response","279","223249","0.0-325.0","34Z02EIMITZCU0E2WHSS93RG05S0TX","A1Z6RO9XS6SQDD","3UUIU9GZC5R93N292LT21FRJ9VS5TN","","413","img/food4.png","76","414","3","1","1","2","1,0.5,0,1,0.5,0,0.5,0,1","0.5,0,1,0.5,0,1,0,1,0.5","2","false",""
"","html-keyboard-response","280","223551","0.0-326.0","34Z02EIMITZCU0E2WHSS93RG05S0TX","A1Z6RO9XS6SQDD","3UUIU9GZC5R93N292LT21FRJ9VS5TN","","null","<img src=""img/food4.png"" style=""width:200px; border:14px solid green;"">","null","","","","","","","","","",""
"","image-keyboard-response","281","223941","0.0-328.0","34Z02EIMITZCU0E2WHSS93RG05S0TX","A1Z6RO9XS6SQDD","3UUIU9GZC5R93N292LT21FRJ9VS5TN","","388.70000000298023","img/food5.png","76","389.3999999985099","3","1","2","2","1,0.5,0,1,0.5,0,0.5,0,1","0.5,0,1,0.5,0,1,0,1,0.5","2","false",""
"","html-keyboard-response","282","224242","0.0-329.0","34Z02EIMITZCU0E2WHSS93RG05S0TX","A1Z6RO9XS6SQDD","3UUIU9GZC5R93N292LT21FRJ9VS5TN","","null","<img src=""img/food5.png"" style=""width:200px; border:14px solid green;"">","null","","","","","","","","","",""
"","image-keyboard-response","283","224532","0.0-331.0","34Z02EIMITZCU0E2WHSS93RG05S0TX","A1Z6RO9XS6SQDD","3UUIU9GZC5R93N292LT21FRJ9VS5TN","","289.1000000014901","img/food2.png","74","289.80000000447035","1","0","3","2","1,0.5,0,1,0.5,0,0.5,0,1","0.5,0,1,0.5,0,1,0,1,0.5","2","false",""
"","html-keyboard-response","284","224833","0.0-332.0","34Z02EIMITZCU0E2WHSS93RG05S0TX","A1Z6RO9XS6SQDD","3UUIU9GZC5R93N292LT21FRJ9VS5TN","","null","<img src=""img/food2.png"" style=""width:200px;border:14px solid red;"">","null","","","","","","","","","",""
"","image-keyboard-response","285","224948","0.0-334.0","34Z02EIMITZCU0E2WHSS93RG05S0TX","A1Z6RO9XS6SQDD","3UUIU9GZC5R93N292LT21FRJ9VS5TN","","113","img/food2.png","76","114","3","0","3","2","1,0.5,0,1,0.5,0,0.5,0,1","0.5,0,1,0.5,0,1,0,1,0.5","2","false",""
"","html-keyboard-response","286","225258","0.0-335.0","34Z02EIMITZCU0E2WHSS93RG05S0TX","A1Z6RO9XS6SQDD","3UUIU9GZC5R93N292LT21FRJ9VS5TN","","null","<img src=""img/food2.png"" style=""width:200px;border:14px solid red;"">","null","","","","","","","","","",""
"","image-keyboard-response","287","225362","0.0-337.0","34Z02EIMITZCU0E2WHSS93RG05S0TX","A1Z6RO9XS6SQDD","3UUIU9GZC5R93N292LT21FRJ9VS5TN","","102.89999999850988","img/food5.png","75","103.89999999850988","2","0","2","2","1,0.5,0,1,0.5,0,0.5,0,1","0.5,0,1,0.5,0,1,0,1,0.5","2","false",""
"","html-keyboard-response","288","225664","0.0-338.0","34Z02EIMITZCU0E2WHSS93RG05S0TX","A1Z6RO9XS6SQDD","3UUIU9GZC5R93N292LT21FRJ9VS5TN","","null","<img src=""img/food5.png"" style=""width:200px;border:14px solid red;"">","null","","","","","","","","","",""
"","image-keyboard-response","289","226138","0.0-340.0","34Z02EIMITZCU0E2WHSS93RG05S0TX","A1Z6RO9XS6SQDD","3UUIU9GZC5R93N292LT21FRJ9VS5TN","","471.8999999985099","img/food4.png","76","473.6000000014901","3","1","1","2","1,0.5,0,1,0.5,0,0.5,0,1","0.5,0,1,0.5,0,1,0,1,0.5","2","false",""
"","html-keyboard-response","290","226440","0.0-341.0","34Z02EIMITZCU0E2WHSS93RG05S0TX","A1Z6RO9XS6SQDD","3UUIU9GZC5R93N292LT21FRJ9VS5TN","","null","<img src=""img/food4.png"" style=""width:200px; border:14px solid green;"">","null","","","","","","","","","",""
"","image-keyboard-response","291","227076","0.0-343.0","34Z02EIMITZCU0E2WHSS93RG05S0TX","A1Z6RO9XS6SQDD","3UUIU9GZC5R93N292LT21FRJ9VS5TN","","634.2999999970198","img/food4.png","76","635.6000000014901","3","1","1","2","1,0.5,0,1,0.5,0,0.5,0,1","0.5,0,1,0.5,0,1,0,1,0.5","2","false",""
"","html-keyboard-response","292","227380","0.0-344.0","34Z02EIMITZCU0E2WHSS93RG05S0TX","A1Z6RO9XS6SQDD","3UUIU9GZC5R93N292LT21FRJ9VS5TN","","null","<img src=""img/food4.png"" style=""width:200px; border:14px solid green;"">","null","","","","","","","","","",""
"","image-keyboard-response","293","227559","0.0-346.0","34Z02EIMITZCU0E2WHSS93RG05S0TX","A1Z6RO9XS6SQDD","3UUIU9GZC5R93N292LT21FRJ9VS5TN","","176.79999999701977","img/food5.png","76","178.60000000149012","3","1","2","2","1,0.5,0,1,0.5,0,0.5,0,1","0.5,0,1,0.5,0,1,0,1,0.5","2","false",""
"","html-keyboard-response","294","227863","0.0-347.0","34Z02EIMITZCU0E2WHSS93RG05S0TX","A1Z6RO9XS6SQDD","3UUIU9GZC5R93N292LT21FRJ9VS5TN","","null","<img src=""img/food5.png"" style=""width:200px; border:14px solid green;"">","null","","","","","","","","","",""
"","image-keyboard-response","295","228583","0.0-349.0","34Z02EIMITZCU0E2WHSS93RG05S0TX","A1Z6RO9XS6SQDD","3UUIU9GZC5R93N292LT21FRJ9VS5TN","","716.2000000029802","img/food2.png","75","718","2","1","3","2","1,0.5,0,1,0.5,0,0.5,0,1","0.5,0,1,0.5,0,1,0,1,0.5","2","false",""
"","html-keyboard-response","296","228885","0.0-350.0","34Z02EIMITZCU0E2WHSS93RG05S0TX","A1Z6RO9XS6SQDD","3UUIU9GZC5R93N292LT21FRJ9VS5TN","","null","<img src=""img/food2.png"" style=""width:200px; border:14px solid green;"">","null","","","","","","","","","",""
"","image-keyboard-response","297","229254","0.0-352.0","34Z02EIMITZCU0E2WHSS93RG05S0TX","A1Z6RO9XS6SQDD","3UUIU9GZC5R93N292LT21FRJ9VS5TN","","367.69999999552965","img/food2.png","76","368.69999999552965","3","0","3","2","1,0.5,0,1,0.5,0,0.5,0,1","0.5,0,1,0.5,0,1,0,1,0.5","2","false",""
"","html-keyboard-response","298","229556","0.0-353.0","34Z02EIMITZCU0E2WHSS93RG05S0TX","A1Z6RO9XS6SQDD","3UUIU9GZC5R93N292LT21FRJ9VS5TN","","null","<img src=""img/food2.png"" style=""width:200px;border:14px solid red;"">","null","","","","","","","","","",""
"","image-keyboard-response","299","229662","0.0-355.0","34Z02EIMITZCU0E2WHSS93RG05S0TX","A1Z6RO9XS6SQDD","3UUIU9GZC5R93N292LT21FRJ9VS5TN","","103.70000000298023","img/food2.png","75","105.20000000298023","2","1","3","2","1,0.5,0,1,0.5,0,0.5,0,1","0.5,0,1,0.5,0,1,0,1,0.5","2","false",""
"","html-keyboard-response","300","229966","0.0-356.0","34Z02EIMITZCU0E2WHSS93RG05S0TX","A1Z6RO9XS6SQDD","3UUIU9GZC5R93N292LT21FRJ9VS5TN","","null","<img src=""img/food2.png"" style=""width:200px; border:14px solid green;"">","null","","","","","","","","","",""
"","image-keyboard-response","301","230286","0.0-358.0","34Z02EIMITZCU0E2WHSS93RG05S0TX","A1Z6RO9XS6SQDD","3UUIU9GZC5R93N292LT21FRJ9VS5TN","","318.1000000014901","img/food2.png","75","319.5","2","1","3","2","1,0.5,0,1,0.5,0,0.5,0,1","0.5,0,1,0.5,0,1,0,1,0.5","2","false",""
"","html-keyboard-response","302","230588","0.0-359.0","34Z02EIMITZCU0E2WHSS93RG05S0TX","A1Z6RO9XS6SQDD","3UUIU9GZC5R93N292LT21FRJ9VS5TN","","null","<img src=""img/food2.png"" style=""width:200px; border:14px solid green;"">","null","","","","","","","","","",""
"","image-keyboard-response","303","231220","0.0-361.0","34Z02EIMITZCU0E2WHSS93RG05S0TX","A1Z6RO9XS6SQDD","3UUIU9GZC5R93N292LT21FRJ9VS5TN","","629.2000000029802","img/food4.png","74","631","1","0","1","2","1,0.5,0,1,0.5,0,0.5,0,1","0.5,0,1,0.5,0,1,0,1,0.5","2","false",""
"","html-keyboard-response","304","231523","0.0-362.0","34Z02EIMITZCU0E2WHSS93RG05S0TX","A1Z6RO9XS6SQDD","3UUIU9GZC5R93N292LT21FRJ9VS5TN","","null","<img src=""img/food4.png"" style=""width:200px;border:14px solid red;"">","null","","","","","","","","","",""
"","image-keyboard-response","305","231651","0.0-364.0","34Z02EIMITZCU0E2WHSS93RG05S0TX","A1Z6RO9XS6SQDD","3UUIU9GZC5R93N292LT21FRJ9VS5TN","","125.89999999850988","img/food5.png","74","127.09999999403954","1","1","2","2","1,0.5,0,1,0.5,0,0.5,0,1","0.5,0,1,0.5,0,1,0,1,0.5","2","false",""
"","html-keyboard-response","306","231954","0.0-365.0","34Z02EIMITZCU0E2WHSS93RG05S0TX","A1Z6RO9XS6SQDD","3UUIU9GZC5R93N292LT21FRJ9VS5TN","","null","<img src=""img/food5.png"" style=""width:200px; border:14px solid green;"">","null","","","","","","","","","",""
"","image-keyboard-response","307","232217","0.0-367.0","34Z02EIMITZCU0E2WHSS93RG05S0TX","A1Z6RO9XS6SQDD","3UUIU9GZC5R93N292LT21FRJ9VS5TN","","262.29999999701977","img/food4.png","76","263.80000000447035","3","1","1","2","1,0.5,0,1,0.5,0,0.5,0,1","0.5,0,1,0.5,0,1,0,1,0.5","2","false",""
"","html-keyboard-response","308","232521","0.0-368.0","34Z02EIMITZCU0E2WHSS93RG05S0TX","A1Z6RO9XS6SQDD","3UUIU9GZC5R93N292LT21FRJ9VS5TN","","null","<img src=""img/food4.png"" style=""width:200px; border:14px solid green;"">","null","","","","","","","","","",""
"","image-keyboard-response","309","233195","0.0-370.0","34Z02EIMITZCU0E2WHSS93RG05S0TX","A1Z6RO9XS6SQDD","3UUIU9GZC5R93N292LT21FRJ9VS5TN","","671.6999999955297","img/food2.png","75","673","2","1","3","2","1,0.5,0,1,0.5,0,0.5,0,1","0.5,0,1,0.5,0,1,0,1,0.5","2","false",""
"","html-keyboard-response","310","233497","0.0-371.0","34Z02EIMITZCU0E2WHSS93RG05S0TX","A1Z6RO9XS6SQDD","3UUIU9GZC5R93N292LT21FRJ9VS5TN","","null","<img src=""img/food2.png"" style=""width:200px; border:14px solid green;"">","null","","","","","","","","","",""
"","image-keyboard-response","311","234248","0.0-373.0","34Z02EIMITZCU0E2WHSS93RG05S0TX","A1Z6RO9XS6SQDD","3UUIU9GZC5R93N292LT21FRJ9VS5TN","","748.6000000014901","img/food5.png","76","749.8000000044703","3","1","2","2","1,0.5,0,1,0.5,0,0.5,0,1","0.5,0,1,0.5,0,1,0,1,0.5","2","false",""
"","html-keyboard-response","312","234550","0.0-374.0","34Z02EIMITZCU0E2WHSS93RG05S0TX","A1Z6RO9XS6SQDD","3UUIU9GZC5R93N292LT21FRJ9VS5TN","","null","<img src=""img/food5.png"" style=""width:200px; border:14px solid green;"">","null","","","","","","","","","",""
"","image-keyboard-response","313","235409","0.0-376.0","34Z02EIMITZCU0E2WHSS93RG05S0TX","A1Z6RO9XS6SQDD","3UUIU9GZC5R93N292LT21FRJ9VS5TN","","858.1000000014901","img/food4.png","74","858.7999999970198","1","0","1","2","1,0.5,0,1,0.5,0,0.5,0,1","0.5,0,1,0.5,0,1,0,1,0.5","2","false",""
"","html-keyboard-response","314","235713","0.0-377.0","34Z02EIMITZCU0E2WHSS93RG05S0TX","A1Z6RO9XS6SQDD","3UUIU9GZC5R93N292LT21FRJ9VS5TN","","null","<img src=""img/food4.png"" style=""width:200px;border:14px solid red;"">","null","","","","","","","","","",""
"","image-keyboard-response","315","235904","0.0-379.0","34Z02EIMITZCU0E2WHSS93RG05S0TX","A1Z6RO9XS6SQDD","3UUIU9GZC5R93N292LT21FRJ9VS5TN","","189","img/food4.png","74","189.89999999850988","1","0","1","2","1,0.5,0,1,0.5,0,0.5,0,1","0.5,0,1,0.5,0,1,0,1,0.5","2","false",""
"","html-keyboard-response","316","236214","0.0-380.0","34Z02EIMITZCU0E2WHSS93RG05S0TX","A1Z6RO9XS6SQDD","3UUIU9GZC5R93N292LT21FRJ9VS5TN","","null","<img src=""img/food4.png"" style=""width:200px;border:14px solid red;"">","null","","","","","","","","","",""
"","image-keyboard-response","317","236396","0.0-382.0","34Z02EIMITZCU0E2WHSS93RG05S0TX","A1Z6RO9XS6SQDD","3UUIU9GZC5R93N292LT21FRJ9VS5TN","","179.69999999552965","img/food4.png","74","181.69999999552965","1","0","1","2","1,0.5,0,1,0.5,0,0.5,0,1","0.5,0,1,0.5,0,1,0,1,0.5","2","false",""
"","html-keyboard-response","318","236699","0.0-383.0","34Z02EIMITZCU0E2WHSS93RG05S0TX","A1Z6RO9XS6SQDD","3UUIU9GZC5R93N292LT21FRJ9VS5TN","","null","<img src=""img/food4.png"" style=""width:200px;border:14px solid red;"">","null","","","","","","","","","",""
"","image-keyboard-response","319","236789","0.0-385.0","34Z02EIMITZCU0E2WHSS93RG05S0TX","A1Z6RO9XS6SQDD","3UUIU9GZC5R93N292LT21FRJ9VS5TN","","86.90000000596046","img/food5.png","76","88.89999999850988","3","1","2","2","1,0.5,0,1,0.5,0,0.5,0,1","0.5,0,1,0.5,0,1,0,1,0.5","2","false",""
"","html-keyboard-response","320","237105","0.0-386.0","34Z02EIMITZCU0E2WHSS93RG05S0TX","A1Z6RO9XS6SQDD","3UUIU9GZC5R93N292LT21FRJ9VS5TN","","null","<img src=""img/food5.png"" style=""width:200px; border:14px solid green;"">","null","","","","","","","","","",""
"","image-keyboard-response","321","237887","0.0-388.0","34Z02EIMITZCU0E2WHSS93RG05S0TX","A1Z6RO9XS6SQDD","3UUIU9GZC5R93N292LT21FRJ9VS5TN","","779.8000000044703","img/food4.png","76","781.1000000014901","3","1","1","2","1,0.5,0,1,0.5,0,0.5,0,1","0.5,0,1,0.5,0,1,0,1,0.5","2","false",""
"","html-keyboard-response","322","238190","0.0-389.0","34Z02EIMITZCU0E2WHSS93RG05S0TX","A1Z6RO9XS6SQDD","3UUIU9GZC5R93N292LT21FRJ9VS5TN","","null","<img src=""img/food4.png"" style=""width:200px; border:14px solid green;"">","null","","","","","","","","","",""
"","image-keyboard-response","323","238758","0.0-391.0","34Z02EIMITZCU0E2WHSS93RG05S0TX","A1Z6RO9XS6SQDD","3UUIU9GZC5R93N292LT21FRJ9VS5TN","","566","img/food2.png","75","567.2000000029802","2","1","3","2","1,0.5,0,1,0.5,0,0.5,0,1","0.5,0,1,0.5,0,1,0,1,0.5","2","false",""
"","html-keyboard-response","324","239060","0.0-392.0","34Z02EIMITZCU0E2WHSS93RG05S0TX","A1Z6RO9XS6SQDD","3UUIU9GZC5R93N292LT21FRJ9VS5TN","","null","<img src=""img/food2.png"" style=""width:200px; border:14px solid green;"">","null","","","","","","","","","",""
"","image-keyboard-response","325","239784","0.0-394.0","34Z02EIMITZCU0E2WHSS93RG05S0TX","A1Z6RO9XS6SQDD","3UUIU9GZC5R93N292LT21FRJ9VS5TN","","721","img/food4.png","76","723.2000000029802","3","1","1","2","1,0.5,0,1,0.5,0,0.5,0,1","0.5,0,1,0.5,0,1,0,1,0.5","2","false",""
"","html-keyboard-response","326","240102","0.0-395.0","34Z02EIMITZCU0E2WHSS93RG05S0TX","A1Z6RO9XS6SQDD","3UUIU9GZC5R93N292LT21FRJ9VS5TN","","null","<img src=""img/food4.png"" style=""width:200px; border:14px solid green;"">","null","","","","","","","","","",""
"","image-keyboard-response","327","240480","0.0-397.0","34Z02EIMITZCU0E2WHSS93RG05S0TX","A1Z6RO9XS6SQDD","3UUIU9GZC5R93N292LT21FRJ9VS5TN","","374.3999999985099","img/food5.png","75","376.40000000596046","2","0","2","2","1,0.5,0,1,0.5,0,0.5,0,1","0.5,0,1,0.5,0,1,0,1,0.5","2","false",""
"","html-keyboard-response","328","240783","0.0-398.0","34Z02EIMITZCU0E2WHSS93RG05S0TX","A1Z6RO9XS6SQDD","3UUIU9GZC5R93N292LT21FRJ9VS5TN","","null","<img src=""img/food5.png"" style=""width:200px;border:14px solid red;"">","null","","","","","","","","","",""
"","image-keyboard-response","329","241257","0.0-400.0","34Z02EIMITZCU0E2WHSS93RG05S0TX","A1Z6RO9XS6SQDD","3UUIU9GZC5R93N292LT21FRJ9VS5TN","","471.80000000447035","img/food5.png","74","473.5","1","0","2","2","1,0.5,0,1,0.5,0,0.5,0,1","0.5,0,1,0.5,0,1,0,1,0.5","2","false",""
"","html-keyboard-response","330","241560","0.0-401.0","34Z02EIMITZCU0E2WHSS93RG05S0TX","A1Z6RO9XS6SQDD","3UUIU9GZC5R93N292LT21FRJ9VS5TN","","null","<img src=""img/food5.png"" style=""width:200px;border:14px solid red;"">","null","","","","","","","","","",""
"","image-keyboard-response","331","241683","0.0-403.0","34Z02EIMITZCU0E2WHSS93RG05S0TX","A1Z6RO9XS6SQDD","3UUIU9GZC5R93N292LT21FRJ9VS5TN","","119.79999999701977","img/food2.png","74","121.70000000298023","1","0","3","2","1,0.5,0,1,0.5,0,0.5,0,1","0.5,0,1,0.5,0,1,0,1,0.5","2","false",""
"","html-keyboard-response","332","241986","0.0-404.0","34Z02EIMITZCU0E2WHSS93RG05S0TX","A1Z6RO9XS6SQDD","3UUIU9GZC5R93N292LT21FRJ9VS5TN","","null","<img src=""img/food2.png"" style=""width:200px;border:14px solid red;"">","null","","","","","","","","","",""
"","image-keyboard-response","333","242252","0.0-406.0","34Z02EIMITZCU0E2WHSS93RG05S0TX","A1Z6RO9XS6SQDD","3UUIU9GZC5R93N292LT21FRJ9VS5TN","","263.6000000014901","img/food5.png","76","265.1000000014901","3","1","2","2","1,0.5,0,1,0.5,0,0.5,0,1","0.5,0,1,0.5,0,1,0,1,0.5","2","false",""
"","html-keyboard-response","334","242555","0.0-407.0","34Z02EIMITZCU0E2WHSS93RG05S0TX","A1Z6RO9XS6SQDD","3UUIU9GZC5R93N292LT21FRJ9VS5TN","","null","<img src=""img/food5.png"" style=""width:200px; border:14px solid green;"">","null","","","","","","","","","",""
"","image-keyboard-response","335","243017","0.0-409.0","34Z02EIMITZCU0E2WHSS93RG05S0TX","A1Z6RO9XS6SQDD","3UUIU9GZC5R93N292LT21FRJ9VS5TN","","460.80000000447035","img/food5.png","76","462.1000000014901","3","1","2","2","1,0.5,0,1,0.5,0,0.5,0,1","0.5,0,1,0.5,0,1,0,1,0.5","2","false",""
"","html-keyboard-response","336","243321","0.0-410.0","34Z02EIMITZCU0E2WHSS93RG05S0TX","A1Z6RO9XS6SQDD","3UUIU9GZC5R93N292LT21FRJ9VS5TN","","null","<img src=""img/food5.png"" style=""width:200px; border:14px solid green;"">","null","","","","","","","","","",""
"","image-keyboard-response","337","243868","0.0-412.0","34Z02EIMITZCU0E2WHSS93RG05S0TX","A1Z6RO9XS6SQDD","3UUIU9GZC5R93N292LT21FRJ9VS5TN","","544.5999999940395","img/food2.png","75","545.8000000044703","2","1","3","2","1,0.5,0,1,0.5,0,0.5,0,1","0.5,0,1,0.5,0,1,0,1,0.5","2","false",""
"","html-keyboard-response","338","244178","0.0-413.0","34Z02EIMITZCU0E2WHSS93RG05S0TX","A1Z6RO9XS6SQDD","3UUIU9GZC5R93N292LT21FRJ9VS5TN","","null","<img src=""img/food2.png"" style=""width:200px; border:14px solid green;"">","null","","","","","","","","","",""
"","image-keyboard-response","339","244400","0.0-415.0","34Z02EIMITZCU0E2WHSS93RG05S0TX","A1Z6RO9XS6SQDD","3UUIU9GZC5R93N292LT21FRJ9VS5TN","","219.39999999850988","img/food4.png","75","221.20000000298023","2","0","1","2","1,0.5,0,1,0.5,0,0.5,0,1","0.5,0,1,0.5,0,1,0,1,0.5","2","false",""
"","html-keyboard-response","340","244703","0.0-416.0","34Z02EIMITZCU0E2WHSS93RG05S0TX","A1Z6RO9XS6SQDD","3UUIU9GZC5R93N292LT21FRJ9VS5TN","","null","<img src=""img/food4.png"" style=""width:200px;border:14px solid red;"">","null","","","","","","","","","",""
"","image-keyboard-response","341","245069","0.0-418.0","34Z02EIMITZCU0E2WHSS93RG05S0TX","A1Z6RO9XS6SQDD","3UUIU9GZC5R93N292LT21FRJ9VS5TN","","363.30000000447035","img/food4.png","76","364.80000000447035","3","1","1","2","1,0.5,0,1,0.5,0,0.5,0,1","0.5,0,1,0.5,0,1,0,1,0.5","2","false",""
"","html-keyboard-response","342","245371","0.0-419.0","34Z02EIMITZCU0E2WHSS93RG05S0TX","A1Z6RO9XS6SQDD","3UUIU9GZC5R93N292LT21FRJ9VS5TN","","null","<img src=""img/food4.png"" style=""width:200px; border:14px solid green;"">","null","","","","","","","","","",""
"","image-keyboard-response","343","245503","0.0-421.0","34Z02EIMITZCU0E2WHSS93RG05S0TX","A1Z6RO9XS6SQDD","3UUIU9GZC5R93N292LT21FRJ9VS5TN","","129.29999999701977","img/food2.png","74","131.19999999552965","1","0","3","2","1,0.5,0,1,0.5,0,0.5,0,1","0.5,0,1,0.5,0,1,0,1,0.5","2","false",""
"","html-keyboard-response","344","245807","0.0-422.0","34Z02EIMITZCU0E2WHSS93RG05S0TX","A1Z6RO9XS6SQDD","3UUIU9GZC5R93N292LT21FRJ9VS5TN","","null","<img src=""img/food2.png"" style=""width:200px;border:14px solid red;"">","null","","","","","","","","","",""
"","image-keyboard-response","345","246204","0.0-424.0","34Z02EIMITZCU0E2WHSS93RG05S0TX","A1Z6RO9XS6SQDD","3UUIU9GZC5R93N292LT21FRJ9VS5TN","","393.5","img/food2.png","75","394.80000000447035","2","1","3","2","1,0.5,0,1,0.5,0,0.5,0,1","0.5,0,1,0.5,0,1,0,1,0.5","2","false",""
"","html-keyboard-response","346","246507","0.0-425.0","34Z02EIMITZCU0E2WHSS93RG05S0TX","A1Z6RO9XS6SQDD","3UUIU9GZC5R93N292LT21FRJ9VS5TN","","null","<img src=""img/food2.png"" style=""width:200px; border:14px solid green;"">","null","","","","","","","","","",""
"","image-keyboard-response","347","246820","0.0-427.0","34Z02EIMITZCU0E2WHSS93RG05S0TX","A1Z6RO9XS6SQDD","3UUIU9GZC5R93N292LT21FRJ9VS5TN","","310.3999999985099","img/food2.png","75","312.20000000298023","2","1","3","2","1,0.5,0,1,0.5,0,0.5,0,1","0.5,0,1,0.5,0,1,0,1,0.5","2","false",""
"","html-keyboard-response","348","247122","0.0-428.0","34Z02EIMITZCU0E2WHSS93RG05S0TX","A1Z6RO9XS6SQDD","3UUIU9GZC5R93N292LT21FRJ9VS5TN","","null","<img src=""img/food2.png"" style=""width:200px; border:14px solid green;"">","null","","","","","","","","","",""
"","image-keyboard-response","349","247584","0.0-430.0","34Z02EIMITZCU0E2WHSS93RG05S0TX","A1Z6RO9XS6SQDD","3UUIU9GZC5R93N292LT21FRJ9VS5TN","","458.8999999985099","img/food4.png","76","460.8999999985099","3","1","1","2","1,0.5,0,1,0.5,0,0.5,0,1","0.5,0,1,0.5,0,1,0,1,0.5","2","false",""
"","html-keyboard-response","350","247887","0.0-431.0","34Z02EIMITZCU0E2WHSS93RG05S0TX","A1Z6RO9XS6SQDD","3UUIU9GZC5R93N292LT21FRJ9VS5TN","","null","<img src=""img/food4.png"" style=""width:200px; border:14px solid green;"">","null","","","","","","","","","",""
"","image-keyboard-response","351","248164","0.0-433.0","34Z02EIMITZCU0E2WHSS93RG05S0TX","A1Z6RO9XS6SQDD","3UUIU9GZC5R93N292LT21FRJ9VS5TN","","275.70000000298023","img/food2.png","76","277.19999999552965","3","1","3","2","1,0.5,0,1,0.5,0,0.5,0,1","0.5,0,1,0.5,0,1,0,1,0.5","2","false",""
"","html-keyboard-response","352","248468","0.0-434.0","34Z02EIMITZCU0E2WHSS93RG05S0TX","A1Z6RO9XS6SQDD","3UUIU9GZC5R93N292LT21FRJ9VS5TN","","null","<img src=""img/food2.png"" style=""width:200px; border:14px solid green;"">","null","","","","","","","","","",""
"","image-keyboard-response","353","249014","0.0-436.0","34Z02EIMITZCU0E2WHSS93RG05S0TX","A1Z6RO9XS6SQDD","3UUIU9GZC5R93N292LT21FRJ9VS5TN","","543.5","img/food5.png","75","545.5","2","0","2","2","1,0.5,0,1,0.5,0,0.5,0,1","0.5,0,1,0.5,0,1,0,1,0.5","2","false",""
"","html-keyboard-response","354","249333","0.0-437.0","34Z02EIMITZCU0E2WHSS93RG05S0TX","A1Z6RO9XS6SQDD","3UUIU9GZC5R93N292LT21FRJ9VS5TN","","null","<img src=""img/food5.png"" style=""width:200px;border:14px solid red;"">","null","","","","","","","","","",""
"","image-keyboard-response","355","249458","0.0-439.0","34Z02EIMITZCU0E2WHSS93RG05S0TX","A1Z6RO9XS6SQDD","3UUIU9GZC5R93N292LT21FRJ9VS5TN","","124.09999999403954","img/food5.png","74","125.20000000298023","1","0","2","2","1,0.5,0,1,0.5,0,0.5,0,1","0.5,0,1,0.5,0,1,0,1,0.5","2","false",""
"","html-keyboard-response","356","249761","0.0-440.0","34Z02EIMITZCU0E2WHSS93RG05S0TX","A1Z6RO9XS6SQDD","3UUIU9GZC5R93N292LT21FRJ9VS5TN","","null","<img src=""img/food5.png"" style=""width:200px;border:14px solid red;"">","null","","","","","","","","","",""
"","image-keyboard-response","357","249875","0.0-442.0","34Z02EIMITZCU0E2WHSS93RG05S0TX","A1Z6RO9XS6SQDD","3UUIU9GZC5R93N292LT21FRJ9VS5TN","","112.39999999850988","img/food5.png","74","113.80000000447035","1","1","2","2","1,0.5,0,1,0.5,0,0.5,0,1","0.5,0,1,0.5,0,1,0,1,0.5","2","false",""
"","html-keyboard-response","358","250177","0.0-443.0","34Z02EIMITZCU0E2WHSS93RG05S0TX","A1Z6RO9XS6SQDD","3UUIU9GZC5R93N292LT21FRJ9VS5TN","","null","<img src=""img/food5.png"" style=""width:200px; border:14px solid green;"">","null","","","","","","","","","",""
"","image-keyboard-response","359","250200","0.0-445.0","34Z02EIMITZCU0E2WHSS93RG05S0TX","A1Z6RO9XS6SQDD","3UUIU9GZC5R93N292LT21FRJ9VS5TN","","20.399999998509884","img/food5.png","75","21.600000001490116","2","0","2","2","1,0.5,0,1,0.5,0,0.5,0,1","0.5,0,1,0.5,0,1,0,1,0.5","2","false",""
"","html-keyboard-response","360","250502","0.0-446.0","34Z02EIMITZCU0E2WHSS93RG05S0TX","A1Z6RO9XS6SQDD","3UUIU9GZC5R93N292LT21FRJ9VS5TN","","null","<img src=""img/food5.png"" style=""width:200px;border:14px solid red;"">","null","","","","","","","","","",""
"","image-keyboard-response","361","250644","0.0-448.0","34Z02EIMITZCU0E2WHSS93RG05S0TX","A1Z6RO9XS6SQDD","3UUIU9GZC5R93N292LT21FRJ9VS5TN","","138.5","img/food4.png","74","140.39999999850988","1","1","1","2","1,0.5,0,1,0.5,0,0.5,0,1","0.5,0,1,0.5,0,1,0,1,0.5","2","false",""
"","html-keyboard-response","362","250947","0.0-449.0","34Z02EIMITZCU0E2WHSS93RG05S0TX","A1Z6RO9XS6SQDD","3UUIU9GZC5R93N292LT21FRJ9VS5TN","","null","<img src=""img/food4.png"" style=""width:200px; border:14px solid green;"">","null","","","","","","","","","",""
"","image-keyboard-response","363","251753","0.0-451.0","34Z02EIMITZCU0E2WHSS93RG05S0TX","A1Z6RO9XS6SQDD","3UUIU9GZC5R93N292LT21FRJ9VS5TN","","803.2000000029802","img/food2.png","76","805.1000000014901","3","1","3","2","1,0.5,0,1,0.5,0,0.5,0,1","0.5,0,1,0.5,0,1,0,1,0.5","2","false",""
"","html-keyboard-response","364","252056","0.0-452.0","34Z02EIMITZCU0E2WHSS93RG05S0TX","A1Z6RO9XS6SQDD","3UUIU9GZC5R93N292LT21FRJ9VS5TN","","null","<img src=""img/food2.png"" style=""width:200px; border:14px solid green;"">","null","","","","","","","","","",""
"","instructions","365","254851","0.0-454.0","34Z02EIMITZCU0E2WHSS93RG05S0TX","A1Z6RO9XS6SQDD","3UUIU9GZC5R93N292LT21FRJ9VS5TN","[{""page_index"":0,""viewing_time"":2793.1999999955297}]","2793.2999999970198","","","","","","","","","","","",""
"","survey-text","366","293721","0.0-455.0","34Z02EIMITZCU0E2WHSS93RG05S0TX","A1Z6RO9XS6SQDD","3UUIU9GZC5R93N292LT21FRJ9VS5TN","","38866.59999999404","","","","","","","","","","","","{""Q0"":""A1Z6RO9XS6SQDD""}"
