"success","trial_type","trial_index","time_elapsed","internal_node_id","assignmentID","mturkID","hitID","view_history","rt","stimulus","key_press","reactionTime","a","r","s","cond","reward_cond","reward_cond_actual","reward_matrix_idx","warning","responses"
"true","fullscreen","0","13923","0.0-0.0","3PB5A5BD0WSM76SGXGEUPZMEIJAG7C","A2196WCNDZULFS","3JUDR1D0D6D4CARU3YX9Y3DK5DJ2QK","","","","","","","","","","","","","",""
"","instructions","1","31491","0.0-1.0","3PB5A5BD0WSM76SGXGEUPZMEIJAG7C","A2196WCNDZULFS","3JUDR1D0D6D4CARU3YX9Y3DK5DJ2QK","[{""page_index"":0,""viewing_time"":3830.300000011921},{""page_index"":1,""viewing_time"":2039.8999999910593},{""page_index"":2,""viewing_time"":664},{""page_index"":3,""viewing_time"":3143.7000000029802},{""page_index"":4,""viewing_time"":1400.4000000059605},{""page_index"":5,""viewing_time"":1976.199999988079},{""page_index"":6,""viewing_time"":4512.20000000298}]","17567","","","","","","","","","","","",""
"","image-keyboard-response","2","32323","0.0-2.0","3PB5A5BD0WSM76SGXGEUPZMEIJAG7C","A2196WCNDZULFS","3JUDR1D0D6D4CARU3YX9Y3DK5DJ2QK","","830.9000000059605","img/food2.png","74","831.7999999970198","1","0","3","1","1,0.5,0,1,0.5,0,0.5,0,1","0.5,0,1,0.5,0,1,0,1,0.5","2","",""
"","html-keyboard-response","3","32625","0.0-3.0","3PB5A5BD0WSM76SGXGEUPZMEIJAG7C","A2196WCNDZULFS","3JUDR1D0D6D4CARU3YX9Y3DK5DJ2QK","","null","<img src=""img/food2.png"" style=""width:200px;border:14px solid red;"">","null","","","","","","","","","",""
"","image-keyboard-response","4","33011","0.0-4.0","3PB5A5BD0WSM76SGXGEUPZMEIJAG7C","A2196WCNDZULFS","3JUDR1D0D6D4CARU3YX9Y3DK5DJ2QK","","384.79999999701977","img/food2.png","74","385.70000000298023","1","0","3","1","1,0.5,0,1,0.5,0,0.5,0,1","0.5,0,1,0.5,0,1,0,1,0.5","2","",""
"","html-keyboard-response","5","33313","0.0-5.0","3PB5A5BD0WSM76SGXGEUPZMEIJAG7C","A2196WCNDZULFS","3JUDR1D0D6D4CARU3YX9Y3DK5DJ2QK","","null","<img src=""img/food2.png"" style=""width:200px;border:14px solid red;"">","null","","","","","","","","","",""
"","image-keyboard-response","6","34149","0.0-6.0","3PB5A5BD0WSM76SGXGEUPZMEIJAG7C","A2196WCNDZULFS","3JUDR1D0D6D4CARU3YX9Y3DK5DJ2QK","","834.2000000029802","img/food5.png","74","835.4000000059605","1","0","2","1","1,0.5,0,1,0.5,0,0.5,0,1","0.5,0,1,0.5,0,1,0,1,0.5","2","",""
"","html-keyboard-response","7","34452","0.0-7.0","3PB5A5BD0WSM76SGXGEUPZMEIJAG7C","A2196WCNDZULFS","3JUDR1D0D6D4CARU3YX9Y3DK5DJ2QK","","null","<img src=""img/food5.png"" style=""width:200px;border:14px solid red;"">","null","","","","","","","","","",""
"","image-keyboard-response","8","35100","0.0-8.0","3PB5A5BD0WSM76SGXGEUPZMEIJAG7C","A2196WCNDZULFS","3JUDR1D0D6D4CARU3YX9Y3DK5DJ2QK","","646.3999999910593","img/food4.png","74","647.7999999970198","1","0","1","1","1,0.5,0,1,0.5,0,0.5,0,1","0.5,0,1,0.5,0,1,0,1,0.5","2","",""
"","html-keyboard-response","9","35403","0.0-9.0","3PB5A5BD0WSM76SGXGEUPZMEIJAG7C","A2196WCNDZULFS","3JUDR1D0D6D4CARU3YX9Y3DK5DJ2QK","","null","<img src=""img/food4.png"" style=""width:200px;border:14px solid red;"">","null","","","","","","","","","",""
"","image-keyboard-response","10","35893","0.0-10.0","3PB5A5BD0WSM76SGXGEUPZMEIJAG7C","A2196WCNDZULFS","3JUDR1D0D6D4CARU3YX9Y3DK5DJ2QK","","487.59999999403954","img/food4.png","74","489.59999999403954","1","1","1","1","1,0.5,0,1,0.5,0,0.5,0,1","0.5,0,1,0.5,0,1,0,1,0.5","2","",""
"","html-keyboard-response","11","36195","0.0-11.0","3PB5A5BD0WSM76SGXGEUPZMEIJAG7C","A2196WCNDZULFS","3JUDR1D0D6D4CARU3YX9Y3DK5DJ2QK","","null","<img src=""img/food4.png"" style=""width:200px; border:14px solid green;"">","null","","","","","","","","","",""
"","image-keyboard-response","12","36931","0.0-12.0","3PB5A5BD0WSM76SGXGEUPZMEIJAG7C","A2196WCNDZULFS","3JUDR1D0D6D4CARU3YX9Y3DK5DJ2QK","","734.6999999880791","img/food2.png","75","735.5","2","1","3","1","1,0.5,0,1,0.5,0,0.5,0,1","0.5,0,1,0.5,0,1,0,1,0.5","2","",""
"","html-keyboard-response","13","37232","0.0-13.0","3PB5A5BD0WSM76SGXGEUPZMEIJAG7C","A2196WCNDZULFS","3JUDR1D0D6D4CARU3YX9Y3DK5DJ2QK","","null","<img src=""img/food2.png"" style=""width:200px; border:14px solid green;"">","null","","","","","","","","","",""
"","image-keyboard-response","14","37804","0.0-14.0","3PB5A5BD0WSM76SGXGEUPZMEIJAG7C","A2196WCNDZULFS","3JUDR1D0D6D4CARU3YX9Y3DK5DJ2QK","","570.2999999970198","img/food2.png","75","571.5","2","1","3","1","1,0.5,0,1,0.5,0,0.5,0,1","0.5,0,1,0.5,0,1,0,1,0.5","2","",""
"","html-keyboard-response","15","38106","0.0-15.0","3PB5A5BD0WSM76SGXGEUPZMEIJAG7C","A2196WCNDZULFS","3JUDR1D0D6D4CARU3YX9Y3DK5DJ2QK","","null","<img src=""img/food2.png"" style=""width:200px; border:14px solid green;"">","null","","","","","","","","","",""
"","image-keyboard-response","16","38740","0.0-16.0","3PB5A5BD0WSM76SGXGEUPZMEIJAG7C","A2196WCNDZULFS","3JUDR1D0D6D4CARU3YX9Y3DK5DJ2QK","","632.7999999970198","img/food4.png","74","633.8999999910593","1","0","1","1","1,0.5,0,1,0.5,0,0.5,0,1","0.5,0,1,0.5,0,1,0,1,0.5","2","",""
"","html-keyboard-response","17","39043","0.0-17.0","3PB5A5BD0WSM76SGXGEUPZMEIJAG7C","A2196WCNDZULFS","3JUDR1D0D6D4CARU3YX9Y3DK5DJ2QK","","null","<img src=""img/food4.png"" style=""width:200px;border:14px solid red;"">","null","","","","","","","","","",""
"","image-keyboard-response","18","39706","0.0-18.0","3PB5A5BD0WSM76SGXGEUPZMEIJAG7C","A2196WCNDZULFS","3JUDR1D0D6D4CARU3YX9Y3DK5DJ2QK","","662.8999999910593","img/food2.png","75","663.2999999970198","2","1","3","1","1,0.5,0,1,0.5,0,0.5,0,1","0.5,0,1,0.5,0,1,0,1,0.5","2","",""
"","html-keyboard-response","19","40009","0.0-19.0","3PB5A5BD0WSM76SGXGEUPZMEIJAG7C","A2196WCNDZULFS","3JUDR1D0D6D4CARU3YX9Y3DK5DJ2QK","","null","<img src=""img/food2.png"" style=""width:200px; border:14px solid green;"">","null","","","","","","","","","",""
"","image-keyboard-response","20","40667","0.0-20.0","3PB5A5BD0WSM76SGXGEUPZMEIJAG7C","A2196WCNDZULFS","3JUDR1D0D6D4CARU3YX9Y3DK5DJ2QK","","656.7999999970198","img/food5.png","76","657.8000000119209","3","1","2","1","1,0.5,0,1,0.5,0,0.5,0,1","0.5,0,1,0.5,0,1,0,1,0.5","2","",""
"","html-keyboard-response","21","40969","0.0-21.0","3PB5A5BD0WSM76SGXGEUPZMEIJAG7C","A2196WCNDZULFS","3JUDR1D0D6D4CARU3YX9Y3DK5DJ2QK","","null","<img src=""img/food5.png"" style=""width:200px; border:14px solid green;"">","null","","","","","","","","","",""
"","image-keyboard-response","22","42052","0.0-22.0","3PB5A5BD0WSM76SGXGEUPZMEIJAG7C","A2196WCNDZULFS","3JUDR1D0D6D4CARU3YX9Y3DK5DJ2QK","","1082.0999999940395","img/food2.png","74","1083","1","0","3","1","1,0.5,0,1,0.5,0,0.5,0,1","0.5,0,1,0.5,0,1,0,1,0.5","2","",""
"","html-keyboard-response","23","42353","0.0-23.0","3PB5A5BD0WSM76SGXGEUPZMEIJAG7C","A2196WCNDZULFS","3JUDR1D0D6D4CARU3YX9Y3DK5DJ2QK","","null","<img src=""img/food2.png"" style=""width:200px;border:14px solid red;"">","null","","","","","","","","","",""
"","image-keyboard-response","24","43093","0.0-24.0","3PB5A5BD0WSM76SGXGEUPZMEIJAG7C","A2196WCNDZULFS","3JUDR1D0D6D4CARU3YX9Y3DK5DJ2QK","","737.6000000089407","img/food2.png","74","739.1000000089407","1","0","3","1","1,0.5,0,1,0.5,0,0.5,0,1","0.5,0,1,0.5,0,1,0,1,0.5","2","",""
"","html-keyboard-response","25","43395","0.0-25.0","3PB5A5BD0WSM76SGXGEUPZMEIJAG7C","A2196WCNDZULFS","3JUDR1D0D6D4CARU3YX9Y3DK5DJ2QK","","null","<img src=""img/food2.png"" style=""width:200px;border:14px solid red;"">","null","","","","","","","","","",""
"","image-keyboard-response","26","43779","0.0-26.0","3PB5A5BD0WSM76SGXGEUPZMEIJAG7C","A2196WCNDZULFS","3JUDR1D0D6D4CARU3YX9Y3DK5DJ2QK","","382.29999999701977","img/food2.png","75","383.09999999403954","2","1","3","1","1,0.5,0,1,0.5,0,0.5,0,1","0.5,0,1,0.5,0,1,0,1,0.5","2","",""
"","html-keyboard-response","27","44080","0.0-27.0","3PB5A5BD0WSM76SGXGEUPZMEIJAG7C","A2196WCNDZULFS","3JUDR1D0D6D4CARU3YX9Y3DK5DJ2QK","","null","<img src=""img/food2.png"" style=""width:200px; border:14px solid green;"">","null","","","","","","","","","",""
"","image-keyboard-response","28","44714","0.0-28.0","3PB5A5BD0WSM76SGXGEUPZMEIJAG7C","A2196WCNDZULFS","3JUDR1D0D6D4CARU3YX9Y3DK5DJ2QK","","632.9000000059605","img/food4.png","74","634.1000000089407","1","1","1","1","1,0.5,0,1,0.5,0,0.5,0,1","0.5,0,1,0.5,0,1,0,1,0.5","2","",""
"","html-keyboard-response","29","45016","0.0-29.0","3PB5A5BD0WSM76SGXGEUPZMEIJAG7C","A2196WCNDZULFS","3JUDR1D0D6D4CARU3YX9Y3DK5DJ2QK","","null","<img src=""img/food4.png"" style=""width:200px; border:14px solid green;"">","null","","","","","","","","","",""
"","image-keyboard-response","30","45691","0.0-30.0","3PB5A5BD0WSM76SGXGEUPZMEIJAG7C","A2196WCNDZULFS","3JUDR1D0D6D4CARU3YX9Y3DK5DJ2QK","","674.2999999970198","img/food5.png","76","675.1999999880791","3","1","2","1","1,0.5,0,1,0.5,0,0.5,0,1","0.5,0,1,0.5,0,1,0,1,0.5","2","",""
"","html-keyboard-response","31","45993","0.0-31.0","3PB5A5BD0WSM76SGXGEUPZMEIJAG7C","A2196WCNDZULFS","3JUDR1D0D6D4CARU3YX9Y3DK5DJ2QK","","null","<img src=""img/food5.png"" style=""width:200px; border:14px solid green;"">","null","","","","","","","","","",""
"","image-keyboard-response","32","46563","0.0-32.0","3PB5A5BD0WSM76SGXGEUPZMEIJAG7C","A2196WCNDZULFS","3JUDR1D0D6D4CARU3YX9Y3DK5DJ2QK","","568.4000000059605","img/food2.png","75","569.2000000029802","2","1","3","1","1,0.5,0,1,0.5,0,0.5,0,1","0.5,0,1,0.5,0,1,0,1,0.5","2","",""
"","html-keyboard-response","33","46864","0.0-33.0","3PB5A5BD0WSM76SGXGEUPZMEIJAG7C","A2196WCNDZULFS","3JUDR1D0D6D4CARU3YX9Y3DK5DJ2QK","","null","<img src=""img/food2.png"" style=""width:200px; border:14px solid green;"">","null","","","","","","","","","",""
"","image-keyboard-response","34","47452","0.0-34.0","3PB5A5BD0WSM76SGXGEUPZMEIJAG7C","A2196WCNDZULFS","3JUDR1D0D6D4CARU3YX9Y3DK5DJ2QK","","587.2000000029802","img/food4.png","74","588.1000000089407","1","1","1","1","1,0.5,0,1,0.5,0,0.5,0,1","0.5,0,1,0.5,0,1,0,1,0.5","2","",""
"","html-keyboard-response","35","47755","0.0-35.0","3PB5A5BD0WSM76SGXGEUPZMEIJAG7C","A2196WCNDZULFS","3JUDR1D0D6D4CARU3YX9Y3DK5DJ2QK","","null","<img src=""img/food4.png"" style=""width:200px; border:14px solid green;"">","null","","","","","","","","","",""
"","image-keyboard-response","36","48276","0.0-36.0","3PB5A5BD0WSM76SGXGEUPZMEIJAG7C","A2196WCNDZULFS","3JUDR1D0D6D4CARU3YX9Y3DK5DJ2QK","","520.5","img/food4.png","74","521.3999999910593","1","0","1","1","1,0.5,0,1,0.5,0,0.5,0,1","0.5,0,1,0.5,0,1,0,1,0.5","2","",""
"","html-keyboard-response","37","48578","0.0-37.0","3PB5A5BD0WSM76SGXGEUPZMEIJAG7C","A2196WCNDZULFS","3JUDR1D0D6D4CARU3YX9Y3DK5DJ2QK","","null","<img src=""img/food4.png"" style=""width:200px;border:14px solid red;"">","null","","","","","","","","","",""
"","image-keyboard-response","38","49220","0.0-38.0","3PB5A5BD0WSM76SGXGEUPZMEIJAG7C","A2196WCNDZULFS","3JUDR1D0D6D4CARU3YX9Y3DK5DJ2QK","","640.5999999940395","img/food2.png","75","641.5","2","1","3","1","1,0.5,0,1,0.5,0,0.5,0,1","0.5,0,1,0.5,0,1,0,1,0.5","2","",""
"","html-keyboard-response","39","49521","0.0-39.0","3PB5A5BD0WSM76SGXGEUPZMEIJAG7C","A2196WCNDZULFS","3JUDR1D0D6D4CARU3YX9Y3DK5DJ2QK","","null","<img src=""img/food2.png"" style=""width:200px; border:14px solid green;"">","null","","","","","","","","","",""
"","image-keyboard-response","40","49996","0.0-40.0","3PB5A5BD0WSM76SGXGEUPZMEIJAG7C","A2196WCNDZULFS","3JUDR1D0D6D4CARU3YX9Y3DK5DJ2QK","","473.79999999701977","img/food5.png","76","474.79999999701977","3","1","2","1","1,0.5,0,1,0.5,0,0.5,0,1","0.5,0,1,0.5,0,1,0,1,0.5","2","",""
"","html-keyboard-response","41","50298","0.0-41.0","3PB5A5BD0WSM76SGXGEUPZMEIJAG7C","A2196WCNDZULFS","3JUDR1D0D6D4CARU3YX9Y3DK5DJ2QK","","null","<img src=""img/food5.png"" style=""width:200px; border:14px solid green;"">","null","","","","","","","","","",""
"","image-keyboard-response","42","50916","0.0-42.0","3PB5A5BD0WSM76SGXGEUPZMEIJAG7C","A2196WCNDZULFS","3JUDR1D0D6D4CARU3YX9Y3DK5DJ2QK","","616.2999999970198","img/food5.png","76","617.2999999970198","3","1","2","1","1,0.5,0,1,0.5,0,0.5,0,1","0.5,0,1,0.5,0,1,0,1,0.5","2","",""
"","html-keyboard-response","43","51218","0.0-43.0","3PB5A5BD0WSM76SGXGEUPZMEIJAG7C","A2196WCNDZULFS","3JUDR1D0D6D4CARU3YX9Y3DK5DJ2QK","","null","<img src=""img/food5.png"" style=""width:200px; border:14px solid green;"">","null","","","","","","","","","",""
"","image-keyboard-response","44","51851","0.0-44.0","3PB5A5BD0WSM76SGXGEUPZMEIJAG7C","A2196WCNDZULFS","3JUDR1D0D6D4CARU3YX9Y3DK5DJ2QK","","632.5","img/food4.png","74","633.6000000089407","1","1","1","1","1,0.5,0,1,0.5,0,0.5,0,1","0.5,0,1,0.5,0,1,0,1,0.5","2","",""
"","html-keyboard-response","45","52153","0.0-45.0","3PB5A5BD0WSM76SGXGEUPZMEIJAG7C","A2196WCNDZULFS","3JUDR1D0D6D4CARU3YX9Y3DK5DJ2QK","","null","<img src=""img/food4.png"" style=""width:200px; border:14px solid green;"">","null","","","","","","","","","",""
"","image-keyboard-response","46","52948","0.0-46.0","3PB5A5BD0WSM76SGXGEUPZMEIJAG7C","A2196WCNDZULFS","3JUDR1D0D6D4CARU3YX9Y3DK5DJ2QK","","793.3999999910593","img/food5.png","76","794.5999999940395","3","1","2","1","1,0.5,0,1,0.5,0,0.5,0,1","0.5,0,1,0.5,0,1,0,1,0.5","2","",""
"","html-keyboard-response","47","53251","0.0-47.0","3PB5A5BD0WSM76SGXGEUPZMEIJAG7C","A2196WCNDZULFS","3JUDR1D0D6D4CARU3YX9Y3DK5DJ2QK","","null","<img src=""img/food5.png"" style=""width:200px; border:14px solid green;"">","null","","","","","","","","","",""
"","image-keyboard-response","48","53699","0.0-48.0","3PB5A5BD0WSM76SGXGEUPZMEIJAG7C","A2196WCNDZULFS","3JUDR1D0D6D4CARU3YX9Y3DK5DJ2QK","","446.70000000298023","img/food5.png","76","447.70000000298023","3","1","2","1","1,0.5,0,1,0.5,0,0.5,0,1","0.5,0,1,0.5,0,1,0,1,0.5","2","",""
"","html-keyboard-response","49","54002","0.0-49.0","3PB5A5BD0WSM76SGXGEUPZMEIJAG7C","A2196WCNDZULFS","3JUDR1D0D6D4CARU3YX9Y3DK5DJ2QK","","null","<img src=""img/food5.png"" style=""width:200px; border:14px solid green;"">","null","","","","","","","","","",""
"","image-keyboard-response","50","54533","0.0-50.0","3PB5A5BD0WSM76SGXGEUPZMEIJAG7C","A2196WCNDZULFS","3JUDR1D0D6D4CARU3YX9Y3DK5DJ2QK","","529.4000000059605","img/food2.png","75","530.8000000119209","2","1","3","1","1,0.5,0,1,0.5,0,0.5,0,1","0.5,0,1,0.5,0,1,0,1,0.5","2","",""
"","html-keyboard-response","51","54835","0.0-51.0","3PB5A5BD0WSM76SGXGEUPZMEIJAG7C","A2196WCNDZULFS","3JUDR1D0D6D4CARU3YX9Y3DK5DJ2QK","","null","<img src=""img/food2.png"" style=""width:200px; border:14px solid green;"">","null","","","","","","","","","",""
"","image-keyboard-response","52","55260","0.0-52.0","3PB5A5BD0WSM76SGXGEUPZMEIJAG7C","A2196WCNDZULFS","3JUDR1D0D6D4CARU3YX9Y3DK5DJ2QK","","424.8999999910593","img/food2.png","75","425.79999999701977","2","1","3","1","1,0.5,0,1,0.5,0,0.5,0,1","0.5,0,1,0.5,0,1,0,1,0.5","2","",""
"","html-keyboard-response","53","55563","0.0-53.0","3PB5A5BD0WSM76SGXGEUPZMEIJAG7C","A2196WCNDZULFS","3JUDR1D0D6D4CARU3YX9Y3DK5DJ2QK","","null","<img src=""img/food2.png"" style=""width:200px; border:14px solid green;"">","null","","","","","","","","","",""
"","image-keyboard-response","54","55923","0.0-54.0","3PB5A5BD0WSM76SGXGEUPZMEIJAG7C","A2196WCNDZULFS","3JUDR1D0D6D4CARU3YX9Y3DK5DJ2QK","","359.09999999403954","img/food2.png","75","360","2","1","3","1","1,0.5,0,1,0.5,0,0.5,0,1","0.5,0,1,0.5,0,1,0,1,0.5","2","",""
"","html-keyboard-response","55","56226","0.0-55.0","3PB5A5BD0WSM76SGXGEUPZMEIJAG7C","A2196WCNDZULFS","3JUDR1D0D6D4CARU3YX9Y3DK5DJ2QK","","null","<img src=""img/food2.png"" style=""width:200px; border:14px solid green;"">","null","","","","","","","","","",""
"","image-keyboard-response","56","56796","0.0-56.0","3PB5A5BD0WSM76SGXGEUPZMEIJAG7C","A2196WCNDZULFS","3JUDR1D0D6D4CARU3YX9Y3DK5DJ2QK","","568.2999999970198","img/food4.png","74","569.1000000089407","1","0","1","1","1,0.5,0,1,0.5,0,0.5,0,1","0.5,0,1,0.5,0,1,0,1,0.5","2","",""
"","html-keyboard-response","57","57097","0.0-57.0","3PB5A5BD0WSM76SGXGEUPZMEIJAG7C","A2196WCNDZULFS","3JUDR1D0D6D4CARU3YX9Y3DK5DJ2QK","","null","<img src=""img/food4.png"" style=""width:200px;border:14px solid red;"">","null","","","","","","","","","",""
"","image-keyboard-response","58","57917","0.0-58.0","3PB5A5BD0WSM76SGXGEUPZMEIJAG7C","A2196WCNDZULFS","3JUDR1D0D6D4CARU3YX9Y3DK5DJ2QK","","818.5","img/food5.png","76","819.5","3","1","2","1","1,0.5,0,1,0.5,0,0.5,0,1","0.5,0,1,0.5,0,1,0,1,0.5","2","",""
"","html-keyboard-response","59","58220","0.0-59.0","3PB5A5BD0WSM76SGXGEUPZMEIJAG7C","A2196WCNDZULFS","3JUDR1D0D6D4CARU3YX9Y3DK5DJ2QK","","null","<img src=""img/food5.png"" style=""width:200px; border:14px solid green;"">","null","","","","","","","","","",""
"","image-keyboard-response","60","58981","0.0-60.0","3PB5A5BD0WSM76SGXGEUPZMEIJAG7C","A2196WCNDZULFS","3JUDR1D0D6D4CARU3YX9Y3DK5DJ2QK","","759","img/food4.png","76","760.2000000029802","3","1","1","1","1,0.5,0,1,0.5,0,0.5,0,1","0.5,0,1,0.5,0,1,0,1,0.5","2","",""
"","html-keyboard-response","61","59283","0.0-61.0","3PB5A5BD0WSM76SGXGEUPZMEIJAG7C","A2196WCNDZULFS","3JUDR1D0D6D4CARU3YX9Y3DK5DJ2QK","","null","<img src=""img/food4.png"" style=""width:200px; border:14px solid green;"">","null","","","","","","","","","",""
"","image-keyboard-response","62","59804","0.0-62.0","3PB5A5BD0WSM76SGXGEUPZMEIJAG7C","A2196WCNDZULFS","3JUDR1D0D6D4CARU3YX9Y3DK5DJ2QK","","520.3000000119209","img/food4.png","76","521.1999999880791","3","1","1","1","1,0.5,0,1,0.5,0,0.5,0,1","0.5,0,1,0.5,0,1,0,1,0.5","2","",""
"","html-keyboard-response","63","60105","0.0-63.0","3PB5A5BD0WSM76SGXGEUPZMEIJAG7C","A2196WCNDZULFS","3JUDR1D0D6D4CARU3YX9Y3DK5DJ2QK","","null","<img src=""img/food4.png"" style=""width:200px; border:14px solid green;"">","null","","","","","","","","","",""
"","image-keyboard-response","64","60612","0.0-64.0","3PB5A5BD0WSM76SGXGEUPZMEIJAG7C","A2196WCNDZULFS","3JUDR1D0D6D4CARU3YX9Y3DK5DJ2QK","","506.20000000298023","img/food4.png","76","507","3","1","1","1","1,0.5,0,1,0.5,0,0.5,0,1","0.5,0,1,0.5,0,1,0,1,0.5","2","",""
"","html-keyboard-response","65","60915","0.0-65.0","3PB5A5BD0WSM76SGXGEUPZMEIJAG7C","A2196WCNDZULFS","3JUDR1D0D6D4CARU3YX9Y3DK5DJ2QK","","null","<img src=""img/food4.png"" style=""width:200px; border:14px solid green;"">","null","","","","","","","","","",""
"","image-keyboard-response","66","61692","0.0-66.0","3PB5A5BD0WSM76SGXGEUPZMEIJAG7C","A2196WCNDZULFS","3JUDR1D0D6D4CARU3YX9Y3DK5DJ2QK","","776.4000000059605","img/food2.png","75","777.4000000059605","2","1","3","1","1,0.5,0,1,0.5,0,0.5,0,1","0.5,0,1,0.5,0,1,0,1,0.5","2","",""
"","html-keyboard-response","67","61994","0.0-67.0","3PB5A5BD0WSM76SGXGEUPZMEIJAG7C","A2196WCNDZULFS","3JUDR1D0D6D4CARU3YX9Y3DK5DJ2QK","","null","<img src=""img/food2.png"" style=""width:200px; border:14px solid green;"">","null","","","","","","","","","",""
"","image-keyboard-response","68","62477","0.0-68.0","3PB5A5BD0WSM76SGXGEUPZMEIJAG7C","A2196WCNDZULFS","3JUDR1D0D6D4CARU3YX9Y3DK5DJ2QK","","482.20000000298023","img/food2.png","75","482.8999999910593","2","1","3","1","1,0.5,0,1,0.5,0,0.5,0,1","0.5,0,1,0.5,0,1,0,1,0.5","2","",""
"","html-keyboard-response","69","62779","0.0-69.0","3PB5A5BD0WSM76SGXGEUPZMEIJAG7C","A2196WCNDZULFS","3JUDR1D0D6D4CARU3YX9Y3DK5DJ2QK","","null","<img src=""img/food2.png"" style=""width:200px; border:14px solid green;"">","null","","","","","","","","","",""
"","image-keyboard-response","70","63341","0.0-70.0","3PB5A5BD0WSM76SGXGEUPZMEIJAG7C","A2196WCNDZULFS","3JUDR1D0D6D4CARU3YX9Y3DK5DJ2QK","","561.1000000089407","img/food5.png","76","562.2999999970198","3","1","2","1","1,0.5,0,1,0.5,0,0.5,0,1","0.5,0,1,0.5,0,1,0,1,0.5","2","",""
"","html-keyboard-response","71","63645","0.0-71.0","3PB5A5BD0WSM76SGXGEUPZMEIJAG7C","A2196WCNDZULFS","3JUDR1D0D6D4CARU3YX9Y3DK5DJ2QK","","null","<img src=""img/food5.png"" style=""width:200px; border:14px solid green;"">","null","","","","","","","","","",""
"","image-keyboard-response","72","64165","0.0-72.0","3PB5A5BD0WSM76SGXGEUPZMEIJAG7C","A2196WCNDZULFS","3JUDR1D0D6D4CARU3YX9Y3DK5DJ2QK","","519.5","img/food5.png","76","520.5999999940395","3","1","2","1","1,0.5,0,1,0.5,0,0.5,0,1","0.5,0,1,0.5,0,1,0,1,0.5","2","",""
"","html-keyboard-response","73","64468","0.0-73.0","3PB5A5BD0WSM76SGXGEUPZMEIJAG7C","A2196WCNDZULFS","3JUDR1D0D6D4CARU3YX9Y3DK5DJ2QK","","null","<img src=""img/food5.png"" style=""width:200px; border:14px solid green;"">","null","","","","","","","","","",""
"","image-keyboard-response","74","64923","0.0-74.0","3PB5A5BD0WSM76SGXGEUPZMEIJAG7C","A2196WCNDZULFS","3JUDR1D0D6D4CARU3YX9Y3DK5DJ2QK","","454.8999999910593","img/food5.png","76","455.59999999403954","3","1","2","1","1,0.5,0,1,0.5,0,0.5,0,1","0.5,0,1,0.5,0,1,0,1,0.5","2","",""
"","html-keyboard-response","75","65225","0.0-75.0","3PB5A5BD0WSM76SGXGEUPZMEIJAG7C","A2196WCNDZULFS","3JUDR1D0D6D4CARU3YX9Y3DK5DJ2QK","","null","<img src=""img/food5.png"" style=""width:200px; border:14px solid green;"">","null","","","","","","","","","",""
"","image-keyboard-response","76","65796","0.0-76.0","3PB5A5BD0WSM76SGXGEUPZMEIJAG7C","A2196WCNDZULFS","3JUDR1D0D6D4CARU3YX9Y3DK5DJ2QK","","569.3999999910593","img/food4.png","76","570.5","3","1","1","1","1,0.5,0,1,0.5,0,0.5,0,1","0.5,0,1,0.5,0,1,0,1,0.5","2","",""
"","html-keyboard-response","77","66109","0.0-77.0","3PB5A5BD0WSM76SGXGEUPZMEIJAG7C","A2196WCNDZULFS","3JUDR1D0D6D4CARU3YX9Y3DK5DJ2QK","","null","<img src=""img/food4.png"" style=""width:200px; border:14px solid green;"">","null","","","","","","","","","",""
"","image-keyboard-response","78","66541","0.0-78.0","3PB5A5BD0WSM76SGXGEUPZMEIJAG7C","A2196WCNDZULFS","3JUDR1D0D6D4CARU3YX9Y3DK5DJ2QK","","430.70000000298023","img/food4.png","76","432","3","1","1","1","1,0.5,0,1,0.5,0,0.5,0,1","0.5,0,1,0.5,0,1,0,1,0.5","2","",""
"","html-keyboard-response","79","66844","0.0-79.0","3PB5A5BD0WSM76SGXGEUPZMEIJAG7C","A2196WCNDZULFS","3JUDR1D0D6D4CARU3YX9Y3DK5DJ2QK","","null","<img src=""img/food4.png"" style=""width:200px; border:14px solid green;"">","null","","","","","","","","","",""
"","image-keyboard-response","80","67237","0.0-80.0","3PB5A5BD0WSM76SGXGEUPZMEIJAG7C","A2196WCNDZULFS","3JUDR1D0D6D4CARU3YX9Y3DK5DJ2QK","","392.09999999403954","img/food4.png","76","392.8999999910593","3","1","1","1","1,0.5,0,1,0.5,0,0.5,0,1","0.5,0,1,0.5,0,1,0,1,0.5","2","",""
"","html-keyboard-response","81","67538","0.0-81.0","3PB5A5BD0WSM76SGXGEUPZMEIJAG7C","A2196WCNDZULFS","3JUDR1D0D6D4CARU3YX9Y3DK5DJ2QK","","null","<img src=""img/food4.png"" style=""width:200px; border:14px solid green;"">","null","","","","","","","","","",""
"","image-keyboard-response","82","67932","0.0-82.0","3PB5A5BD0WSM76SGXGEUPZMEIJAG7C","A2196WCNDZULFS","3JUDR1D0D6D4CARU3YX9Y3DK5DJ2QK","","392.8999999910593","img/food4.png","76","393.6000000089407","3","1","1","1","1,0.5,0,1,0.5,0,0.5,0,1","0.5,0,1,0.5,0,1,0,1,0.5","2","",""
"","html-keyboard-response","83","68234","0.0-83.0","3PB5A5BD0WSM76SGXGEUPZMEIJAG7C","A2196WCNDZULFS","3JUDR1D0D6D4CARU3YX9Y3DK5DJ2QK","","null","<img src=""img/food4.png"" style=""width:200px; border:14px solid green;"">","null","","","","","","","","","",""
"","image-keyboard-response","84","68605","0.0-84.0","3PB5A5BD0WSM76SGXGEUPZMEIJAG7C","A2196WCNDZULFS","3JUDR1D0D6D4CARU3YX9Y3DK5DJ2QK","","369.70000000298023","img/food4.png","76","370.70000000298023","3","1","1","1","1,0.5,0,1,0.5,0,0.5,0,1","0.5,0,1,0.5,0,1,0,1,0.5","2","",""
"","html-keyboard-response","85","68907","0.0-85.0","3PB5A5BD0WSM76SGXGEUPZMEIJAG7C","A2196WCNDZULFS","3JUDR1D0D6D4CARU3YX9Y3DK5DJ2QK","","null","<img src=""img/food4.png"" style=""width:200px; border:14px solid green;"">","null","","","","","","","","","",""
"","image-keyboard-response","86","69261","0.0-86.0","3PB5A5BD0WSM76SGXGEUPZMEIJAG7C","A2196WCNDZULFS","3JUDR1D0D6D4CARU3YX9Y3DK5DJ2QK","","352.3999999910593","img/food4.png","76","353.59999999403954","3","1","1","1","1,0.5,0,1,0.5,0,0.5,0,1","0.5,0,1,0.5,0,1,0,1,0.5","2","",""
"","html-keyboard-response","87","69571","0.0-87.0","3PB5A5BD0WSM76SGXGEUPZMEIJAG7C","A2196WCNDZULFS","3JUDR1D0D6D4CARU3YX9Y3DK5DJ2QK","","null","<img src=""img/food4.png"" style=""width:200px; border:14px solid green;"">","null","","","","","","","","","",""
"","image-keyboard-response","88","70110","0.0-88.0","3PB5A5BD0WSM76SGXGEUPZMEIJAG7C","A2196WCNDZULFS","3JUDR1D0D6D4CARU3YX9Y3DK5DJ2QK","","537.5","img/food5.png","76","538.3999999910593","3","1","2","1","1,0.5,0,1,0.5,0,0.5,0,1","0.5,0,1,0.5,0,1,0,1,0.5","2","",""
"","html-keyboard-response","89","70416","0.0-89.0","3PB5A5BD0WSM76SGXGEUPZMEIJAG7C","A2196WCNDZULFS","3JUDR1D0D6D4CARU3YX9Y3DK5DJ2QK","","null","<img src=""img/food5.png"" style=""width:200px; border:14px solid green;"">","null","","","","","","","","","",""
"","image-keyboard-response","90","70813","0.0-90.0","3PB5A5BD0WSM76SGXGEUPZMEIJAG7C","A2196WCNDZULFS","3JUDR1D0D6D4CARU3YX9Y3DK5DJ2QK","","395.70000000298023","img/food5.png","76","396.90000000596046","3","1","2","1","1,0.5,0,1,0.5,0,0.5,0,1","0.5,0,1,0.5,0,1,0,1,0.5","2","",""
"","html-keyboard-response","91","71115","0.0-91.0","3PB5A5BD0WSM76SGXGEUPZMEIJAG7C","A2196WCNDZULFS","3JUDR1D0D6D4CARU3YX9Y3DK5DJ2QK","","null","<img src=""img/food5.png"" style=""width:200px; border:14px solid green;"">","null","","","","","","","","","",""
"","image-keyboard-response","92","71844","0.0-92.0","3PB5A5BD0WSM76SGXGEUPZMEIJAG7C","A2196WCNDZULFS","3JUDR1D0D6D4CARU3YX9Y3DK5DJ2QK","","728.2000000029802","img/food4.png","76","729.0999999940395","3","1","1","1","1,0.5,0,1,0.5,0,0.5,0,1","0.5,0,1,0.5,0,1,0,1,0.5","2","",""
"","html-keyboard-response","93","72147","0.0-93.0","3PB5A5BD0WSM76SGXGEUPZMEIJAG7C","A2196WCNDZULFS","3JUDR1D0D6D4CARU3YX9Y3DK5DJ2QK","","null","<img src=""img/food4.png"" style=""width:200px; border:14px solid green;"">","null","","","","","","","","","",""
"","image-keyboard-response","94","72533","0.0-94.0","3PB5A5BD0WSM76SGXGEUPZMEIJAG7C","A2196WCNDZULFS","3JUDR1D0D6D4CARU3YX9Y3DK5DJ2QK","","384.30000001192093","img/food4.png","76","385.70000000298023","3","1","1","1","1,0.5,0,1,0.5,0,0.5,0,1","0.5,0,1,0.5,0,1,0,1,0.5","2","",""
"","html-keyboard-response","95","72836","0.0-95.0","3PB5A5BD0WSM76SGXGEUPZMEIJAG7C","A2196WCNDZULFS","3JUDR1D0D6D4CARU3YX9Y3DK5DJ2QK","","null","<img src=""img/food4.png"" style=""width:200px; border:14px solid green;"">","null","","","","","","","","","",""
"","image-keyboard-response","96","73317","0.0-96.0","3PB5A5BD0WSM76SGXGEUPZMEIJAG7C","A2196WCNDZULFS","3JUDR1D0D6D4CARU3YX9Y3DK5DJ2QK","","480.70000000298023","img/food5.png","76","481.5","3","1","2","1","1,0.5,0,1,0.5,0,0.5,0,1","0.5,0,1,0.5,0,1,0,1,0.5","2","",""
"","html-keyboard-response","97","73620","0.0-97.0","3PB5A5BD0WSM76SGXGEUPZMEIJAG7C","A2196WCNDZULFS","3JUDR1D0D6D4CARU3YX9Y3DK5DJ2QK","","null","<img src=""img/food5.png"" style=""width:200px; border:14px solid green;"">","null","","","","","","","","","",""
"","image-keyboard-response","98","73988","0.0-98.0","3PB5A5BD0WSM76SGXGEUPZMEIJAG7C","A2196WCNDZULFS","3JUDR1D0D6D4CARU3YX9Y3DK5DJ2QK","","367.69999998807907","img/food5.png","76","368.20000000298023","3","1","2","1","1,0.5,0,1,0.5,0,0.5,0,1","0.5,0,1,0.5,0,1,0,1,0.5","2","",""
"","html-keyboard-response","99","74290","0.0-99.0","3PB5A5BD0WSM76SGXGEUPZMEIJAG7C","A2196WCNDZULFS","3JUDR1D0D6D4CARU3YX9Y3DK5DJ2QK","","null","<img src=""img/food5.png"" style=""width:200px; border:14px solid green;"">","null","","","","","","","","","",""
"","image-keyboard-response","100","74717","0.0-100.0","3PB5A5BD0WSM76SGXGEUPZMEIJAG7C","A2196WCNDZULFS","3JUDR1D0D6D4CARU3YX9Y3DK5DJ2QK","","425.8999999910593","img/food2.png","76","427","3","1","3","1","1,0.5,0,1,0.5,0,0.5,0,1","0.5,0,1,0.5,0,1,0,1,0.5","2","",""
"","html-keyboard-response","101","75019","0.0-101.0","3PB5A5BD0WSM76SGXGEUPZMEIJAG7C","A2196WCNDZULFS","3JUDR1D0D6D4CARU3YX9Y3DK5DJ2QK","","null","<img src=""img/food2.png"" style=""width:200px; border:14px solid green;"">","null","","","","","","","","","",""
"","image-keyboard-response","102","75380","0.0-102.0","3PB5A5BD0WSM76SGXGEUPZMEIJAG7C","A2196WCNDZULFS","3JUDR1D0D6D4CARU3YX9Y3DK5DJ2QK","","359.6000000089407","img/food5.png","76","360.59999999403954","3","1","2","1","1,0.5,0,1,0.5,0,0.5,0,1","0.5,0,1,0.5,0,1,0,1,0.5","2","",""
"","html-keyboard-response","103","75682","0.0-103.0","3PB5A5BD0WSM76SGXGEUPZMEIJAG7C","A2196WCNDZULFS","3JUDR1D0D6D4CARU3YX9Y3DK5DJ2QK","","null","<img src=""img/food5.png"" style=""width:200px; border:14px solid green;"">","null","","","","","","","","","",""
"","image-keyboard-response","104","76006","0.0-104.0","3PB5A5BD0WSM76SGXGEUPZMEIJAG7C","A2196WCNDZULFS","3JUDR1D0D6D4CARU3YX9Y3DK5DJ2QK","","322.69999998807907","img/food2.png","76","323.40000000596046","3","1","3","1","1,0.5,0,1,0.5,0,0.5,0,1","0.5,0,1,0.5,0,1,0,1,0.5","2","",""
"","html-keyboard-response","105","76308","0.0-105.0","3PB5A5BD0WSM76SGXGEUPZMEIJAG7C","A2196WCNDZULFS","3JUDR1D0D6D4CARU3YX9Y3DK5DJ2QK","","null","<img src=""img/food2.png"" style=""width:200px; border:14px solid green;"">","null","","","","","","","","","",""
"","image-keyboard-response","106","76621","0.0-106.0","3PB5A5BD0WSM76SGXGEUPZMEIJAG7C","A2196WCNDZULFS","3JUDR1D0D6D4CARU3YX9Y3DK5DJ2QK","","311.5","img/food4.png","76","312.29999999701977","3","1","1","1","1,0.5,0,1,0.5,0,0.5,0,1","0.5,0,1,0.5,0,1,0,1,0.5","2","",""
"","html-keyboard-response","107","76922","0.0-107.0","3PB5A5BD0WSM76SGXGEUPZMEIJAG7C","A2196WCNDZULFS","3JUDR1D0D6D4CARU3YX9Y3DK5DJ2QK","","null","<img src=""img/food4.png"" style=""width:200px; border:14px solid green;"">","null","","","","","","","","","",""
"","image-keyboard-response","108","77189","0.0-108.0","3PB5A5BD0WSM76SGXGEUPZMEIJAG7C","A2196WCNDZULFS","3JUDR1D0D6D4CARU3YX9Y3DK5DJ2QK","","265.79999999701977","img/food2.png","76","267.19999998807907","3","1","3","1","1,0.5,0,1,0.5,0,0.5,0,1","0.5,0,1,0.5,0,1,0,1,0.5","2","",""
"","html-keyboard-response","109","77493","0.0-109.0","3PB5A5BD0WSM76SGXGEUPZMEIJAG7C","A2196WCNDZULFS","3JUDR1D0D6D4CARU3YX9Y3DK5DJ2QK","","null","<img src=""img/food2.png"" style=""width:200px; border:14px solid green;"">","null","","","","","","","","","",""
"","image-keyboard-response","110","77781","0.0-110.0","3PB5A5BD0WSM76SGXGEUPZMEIJAG7C","A2196WCNDZULFS","3JUDR1D0D6D4CARU3YX9Y3DK5DJ2QK","","287.1000000089407","img/food2.png","76","288.09999999403954","3","1","3","1","1,0.5,0,1,0.5,0,0.5,0,1","0.5,0,1,0.5,0,1,0,1,0.5","2","",""
"","html-keyboard-response","111","78083","0.0-111.0","3PB5A5BD0WSM76SGXGEUPZMEIJAG7C","A2196WCNDZULFS","3JUDR1D0D6D4CARU3YX9Y3DK5DJ2QK","","null","<img src=""img/food2.png"" style=""width:200px; border:14px solid green;"">","null","","","","","","","","","",""
"","image-keyboard-response","112","78333","0.0-112.0","3PB5A5BD0WSM76SGXGEUPZMEIJAG7C","A2196WCNDZULFS","3JUDR1D0D6D4CARU3YX9Y3DK5DJ2QK","","249.09999999403954","img/food2.png","76","250.29999999701977","3","1","3","1","1,0.5,0,1,0.5,0,0.5,0,1","0.5,0,1,0.5,0,1,0,1,0.5","2","",""
"","html-keyboard-response","113","78635","0.0-113.0","3PB5A5BD0WSM76SGXGEUPZMEIJAG7C","A2196WCNDZULFS","3JUDR1D0D6D4CARU3YX9Y3DK5DJ2QK","","null","<img src=""img/food2.png"" style=""width:200px; border:14px solid green;"">","null","","","","","","","","","",""
"","image-keyboard-response","114","78868","0.0-114.0","3PB5A5BD0WSM76SGXGEUPZMEIJAG7C","A2196WCNDZULFS","3JUDR1D0D6D4CARU3YX9Y3DK5DJ2QK","","231.1000000089407","img/food2.png","76","233","3","1","3","1","1,0.5,0,1,0.5,0,0.5,0,1","0.5,0,1,0.5,0,1,0,1,0.5","2","",""
"","html-keyboard-response","115","79171","0.0-115.0","3PB5A5BD0WSM76SGXGEUPZMEIJAG7C","A2196WCNDZULFS","3JUDR1D0D6D4CARU3YX9Y3DK5DJ2QK","","null","<img src=""img/food2.png"" style=""width:200px; border:14px solid green;"">","null","","","","","","","","","",""
"","image-keyboard-response","116","79476","0.0-116.0","3PB5A5BD0WSM76SGXGEUPZMEIJAG7C","A2196WCNDZULFS","3JUDR1D0D6D4CARU3YX9Y3DK5DJ2QK","","304.09999999403954","img/food5.png","76","305","3","1","2","1","1,0.5,0,1,0.5,0,0.5,0,1","0.5,0,1,0.5,0,1,0,1,0.5","2","",""
"","html-keyboard-response","117","79777","0.0-117.0","3PB5A5BD0WSM76SGXGEUPZMEIJAG7C","A2196WCNDZULFS","3JUDR1D0D6D4CARU3YX9Y3DK5DJ2QK","","null","<img src=""img/food5.png"" style=""width:200px; border:14px solid green;"">","null","","","","","","","","","",""
"","image-keyboard-response","118","80053","0.0-118.0","3PB5A5BD0WSM76SGXGEUPZMEIJAG7C","A2196WCNDZULFS","3JUDR1D0D6D4CARU3YX9Y3DK5DJ2QK","","274.19999998807907","img/food2.png","76","275.20000000298023","3","0","3","1","1,0.5,0,1,0.5,0,0.5,0,1","0.5,0,1,0.5,0,1,0,1,0.5","2","",""
"","html-keyboard-response","119","80355","0.0-119.0","3PB5A5BD0WSM76SGXGEUPZMEIJAG7C","A2196WCNDZULFS","3JUDR1D0D6D4CARU3YX9Y3DK5DJ2QK","","null","<img src=""img/food2.png"" style=""width:200px;border:14px solid red;"">","null","","","","","","","","","",""
"","image-keyboard-response","120","80685","0.0-120.0","3PB5A5BD0WSM76SGXGEUPZMEIJAG7C","A2196WCNDZULFS","3JUDR1D0D6D4CARU3YX9Y3DK5DJ2QK","","328.5","img/food5.png","76","329.70000000298023","3","1","2","1","1,0.5,0,1,0.5,0,0.5,0,1","0.5,0,1,0.5,0,1,0,1,0.5","2","",""
"","html-keyboard-response","121","80996","0.0-121.0","3PB5A5BD0WSM76SGXGEUPZMEIJAG7C","A2196WCNDZULFS","3JUDR1D0D6D4CARU3YX9Y3DK5DJ2QK","","null","<img src=""img/food5.png"" style=""width:200px; border:14px solid green;"">","null","","","","","","","","","",""
"","image-keyboard-response","122","81262","0.0-122.0","3PB5A5BD0WSM76SGXGEUPZMEIJAG7C","A2196WCNDZULFS","3JUDR1D0D6D4CARU3YX9Y3DK5DJ2QK","","263.90000000596046","img/food4.png","76","265","3","1","1","1","1,0.5,0,1,0.5,0,0.5,0,1","0.5,0,1,0.5,0,1,0,1,0.5","2","",""
"","html-keyboard-response","123","81563","0.0-123.0","3PB5A5BD0WSM76SGXGEUPZMEIJAG7C","A2196WCNDZULFS","3JUDR1D0D6D4CARU3YX9Y3DK5DJ2QK","","null","<img src=""img/food4.png"" style=""width:200px; border:14px solid green;"">","null","","","","","","","","","",""
"","image-keyboard-response","124","81822","0.0-124.0","3PB5A5BD0WSM76SGXGEUPZMEIJAG7C","A2196WCNDZULFS","3JUDR1D0D6D4CARU3YX9Y3DK5DJ2QK","","257.29999999701977","img/food2.png","76","258.40000000596046","3","1","3","1","1,0.5,0,1,0.5,0,0.5,0,1","0.5,0,1,0.5,0,1,0,1,0.5","2","",""
"","html-keyboard-response","125","82124","0.0-125.0","3PB5A5BD0WSM76SGXGEUPZMEIJAG7C","A2196WCNDZULFS","3JUDR1D0D6D4CARU3YX9Y3DK5DJ2QK","","null","<img src=""img/food2.png"" style=""width:200px; border:14px solid green;"">","null","","","","","","","","","",""
"","image-keyboard-response","126","82389","0.0-126.0","3PB5A5BD0WSM76SGXGEUPZMEIJAG7C","A2196WCNDZULFS","3JUDR1D0D6D4CARU3YX9Y3DK5DJ2QK","","263.79999999701977","img/food2.png","76","264.40000000596046","3","0","3","1","1,0.5,0,1,0.5,0,0.5,0,1","0.5,0,1,0.5,0,1,0,1,0.5","2","",""
"","html-keyboard-response","127","82690","0.0-127.0","3PB5A5BD0WSM76SGXGEUPZMEIJAG7C","A2196WCNDZULFS","3JUDR1D0D6D4CARU3YX9Y3DK5DJ2QK","","null","<img src=""img/food2.png"" style=""width:200px;border:14px solid red;"">","null","","","","","","","","","",""
"","image-keyboard-response","128","83038","0.0-128.0","3PB5A5BD0WSM76SGXGEUPZMEIJAG7C","A2196WCNDZULFS","3JUDR1D0D6D4CARU3YX9Y3DK5DJ2QK","","346.09999999403954","img/food4.png","76","347.3999999910593","3","1","1","1","1,0.5,0,1,0.5,0,0.5,0,1","0.5,0,1,0.5,0,1,0,1,0.5","2","",""
"","html-keyboard-response","129","83341","0.0-129.0","3PB5A5BD0WSM76SGXGEUPZMEIJAG7C","A2196WCNDZULFS","3JUDR1D0D6D4CARU3YX9Y3DK5DJ2QK","","null","<img src=""img/food4.png"" style=""width:200px; border:14px solid green;"">","null","","","","","","","","","",""
"","image-keyboard-response","130","83605","0.0-130.0","3PB5A5BD0WSM76SGXGEUPZMEIJAG7C","A2196WCNDZULFS","3JUDR1D0D6D4CARU3YX9Y3DK5DJ2QK","","261.70000000298023","img/food2.png","76","263","3","1","3","1","1,0.5,0,1,0.5,0,0.5,0,1","0.5,0,1,0.5,0,1,0,1,0.5","2","",""
"","html-keyboard-response","131","83906","0.0-131.0","3PB5A5BD0WSM76SGXGEUPZMEIJAG7C","A2196WCNDZULFS","3JUDR1D0D6D4CARU3YX9Y3DK5DJ2QK","","null","<img src=""img/food2.png"" style=""width:200px; border:14px solid green;"">","null","","","","","","","","","",""
"","image-keyboard-response","132","84182","0.0-132.0","3PB5A5BD0WSM76SGXGEUPZMEIJAG7C","A2196WCNDZULFS","3JUDR1D0D6D4CARU3YX9Y3DK5DJ2QK","","274.29999999701977","img/food5.png","76","275.3999999910593","3","1","2","1","1,0.5,0,1,0.5,0,0.5,0,1","0.5,0,1,0.5,0,1,0,1,0.5","2","",""
"","html-keyboard-response","133","84483","0.0-133.0","3PB5A5BD0WSM76SGXGEUPZMEIJAG7C","A2196WCNDZULFS","3JUDR1D0D6D4CARU3YX9Y3DK5DJ2QK","","null","<img src=""img/food5.png"" style=""width:200px; border:14px solid green;"">","null","","","","","","","","","",""
"","image-keyboard-response","134","84821","0.0-134.0","3PB5A5BD0WSM76SGXGEUPZMEIJAG7C","A2196WCNDZULFS","3JUDR1D0D6D4CARU3YX9Y3DK5DJ2QK","","337.09999999403954","img/food4.png","76","337.8999999910593","3","1","1","1","1,0.5,0,1,0.5,0,0.5,0,1","0.5,0,1,0.5,0,1,0,1,0.5","2","",""
"","html-keyboard-response","135","85123","0.0-135.0","3PB5A5BD0WSM76SGXGEUPZMEIJAG7C","A2196WCNDZULFS","3JUDR1D0D6D4CARU3YX9Y3DK5DJ2QK","","null","<img src=""img/food4.png"" style=""width:200px; border:14px solid green;"">","null","","","","","","","","","",""
"","image-keyboard-response","136","85412","0.0-136.0","3PB5A5BD0WSM76SGXGEUPZMEIJAG7C","A2196WCNDZULFS","3JUDR1D0D6D4CARU3YX9Y3DK5DJ2QK","","288.09999999403954","img/food2.png","76","289.1000000089407","3","0","3","1","1,0.5,0,1,0.5,0,0.5,0,1","0.5,0,1,0.5,0,1,0,1,0.5","2","",""
"","html-keyboard-response","137","85714","0.0-137.0","3PB5A5BD0WSM76SGXGEUPZMEIJAG7C","A2196WCNDZULFS","3JUDR1D0D6D4CARU3YX9Y3DK5DJ2QK","","null","<img src=""img/food2.png"" style=""width:200px;border:14px solid red;"">","null","","","","","","","","","",""
"","image-keyboard-response","138","85980","0.0-138.0","3PB5A5BD0WSM76SGXGEUPZMEIJAG7C","A2196WCNDZULFS","3JUDR1D0D6D4CARU3YX9Y3DK5DJ2QK","","265.79999999701977","img/food2.png","76","266.5","3","0","3","1","1,0.5,0,1,0.5,0,0.5,0,1","0.5,0,1,0.5,0,1,0,1,0.5","2","",""
"","html-keyboard-response","139","86283","0.0-139.0","3PB5A5BD0WSM76SGXGEUPZMEIJAG7C","A2196WCNDZULFS","3JUDR1D0D6D4CARU3YX9Y3DK5DJ2QK","","null","<img src=""img/food2.png"" style=""width:200px;border:14px solid red;"">","null","","","","","","","","","",""
"","image-keyboard-response","140","86670","0.0-140.0","3PB5A5BD0WSM76SGXGEUPZMEIJAG7C","A2196WCNDZULFS","3JUDR1D0D6D4CARU3YX9Y3DK5DJ2QK","","385.90000000596046","img/food5.png","76","387.1000000089407","3","1","2","1","1,0.5,0,1,0.5,0,0.5,0,1","0.5,0,1,0.5,0,1,0,1,0.5","2","",""
"","html-keyboard-response","141","86973","0.0-141.0","3PB5A5BD0WSM76SGXGEUPZMEIJAG7C","A2196WCNDZULFS","3JUDR1D0D6D4CARU3YX9Y3DK5DJ2QK","","null","<img src=""img/food5.png"" style=""width:200px; border:14px solid green;"">","null","","","","","","","","","",""
"","image-keyboard-response","142","87270","0.0-142.0","3PB5A5BD0WSM76SGXGEUPZMEIJAG7C","A2196WCNDZULFS","3JUDR1D0D6D4CARU3YX9Y3DK5DJ2QK","","296","img/food2.png","76","296.69999998807907","3","0","3","1","1,0.5,0,1,0.5,0,0.5,0,1","0.5,0,1,0.5,0,1,0,1,0.5","2","",""
"","html-keyboard-response","143","87572","0.0-143.0","3PB5A5BD0WSM76SGXGEUPZMEIJAG7C","A2196WCNDZULFS","3JUDR1D0D6D4CARU3YX9Y3DK5DJ2QK","","null","<img src=""img/food2.png"" style=""width:200px;border:14px solid red;"">","null","","","","","","","","","",""
"","image-keyboard-response","144","87893","0.0-144.0","3PB5A5BD0WSM76SGXGEUPZMEIJAG7C","A2196WCNDZULFS","3JUDR1D0D6D4CARU3YX9Y3DK5DJ2QK","","319.19999998807907","img/food4.png","76","320.20000000298023","3","1","1","1","1,0.5,0,1,0.5,0,0.5,0,1","0.5,0,1,0.5,0,1,0,1,0.5","2","",""
"","html-keyboard-response","145","88194","0.0-145.0","3PB5A5BD0WSM76SGXGEUPZMEIJAG7C","A2196WCNDZULFS","3JUDR1D0D6D4CARU3YX9Y3DK5DJ2QK","","null","<img src=""img/food4.png"" style=""width:200px; border:14px solid green;"">","null","","","","","","","","","",""
"","image-keyboard-response","146","88684","0.0-146.0","3PB5A5BD0WSM76SGXGEUPZMEIJAG7C","A2196WCNDZULFS","3JUDR1D0D6D4CARU3YX9Y3DK5DJ2QK","","488.5","img/food5.png","76","489.80000001192093","3","1","2","1","1,0.5,0,1,0.5,0,0.5,0,1","0.5,0,1,0.5,0,1,0,1,0.5","2","",""
"","html-keyboard-response","147","88987","0.0-147.0","3PB5A5BD0WSM76SGXGEUPZMEIJAG7C","A2196WCNDZULFS","3JUDR1D0D6D4CARU3YX9Y3DK5DJ2QK","","null","<img src=""img/food5.png"" style=""width:200px; border:14px solid green;"">","null","","","","","","","","","",""
"","image-keyboard-response","148","89589","0.0-148.0","3PB5A5BD0WSM76SGXGEUPZMEIJAG7C","A2196WCNDZULFS","3JUDR1D0D6D4CARU3YX9Y3DK5DJ2QK","","600.9000000059605","img/food4.png","76","601.8999999910593","3","1","1","1","1,0.5,0,1,0.5,0,0.5,0,1","0.5,0,1,0.5,0,1,0,1,0.5","2","",""
"","html-keyboard-response","149","89891","0.0-149.0","3PB5A5BD0WSM76SGXGEUPZMEIJAG7C","A2196WCNDZULFS","3JUDR1D0D6D4CARU3YX9Y3DK5DJ2QK","","null","<img src=""img/food4.png"" style=""width:200px; border:14px solid green;"">","null","","","","","","","","","",""
"","image-keyboard-response","150","90478","0.0-150.0","3PB5A5BD0WSM76SGXGEUPZMEIJAG7C","A2196WCNDZULFS","3JUDR1D0D6D4CARU3YX9Y3DK5DJ2QK","","585.7000000029802","img/food2.png","75","586.7999999970198","2","1","3","1","1,0.5,0,1,0.5,0,0.5,0,1","0.5,0,1,0.5,0,1,0,1,0.5","2","",""
"","html-keyboard-response","151","90779","0.0-151.0","3PB5A5BD0WSM76SGXGEUPZMEIJAG7C","A2196WCNDZULFS","3JUDR1D0D6D4CARU3YX9Y3DK5DJ2QK","","null","<img src=""img/food2.png"" style=""width:200px; border:14px solid green;"">","null","","","","","","","","","",""
"","image-keyboard-response","152","91333","0.0-152.0","3PB5A5BD0WSM76SGXGEUPZMEIJAG7C","A2196WCNDZULFS","3JUDR1D0D6D4CARU3YX9Y3DK5DJ2QK","","552.0999999940395","img/food5.png","76","553","3","1","2","1","1,0.5,0,1,0.5,0,0.5,0,1","0.5,0,1,0.5,0,1,0,1,0.5","2","",""
"","html-keyboard-response","153","91635","0.0-153.0","3PB5A5BD0WSM76SGXGEUPZMEIJAG7C","A2196WCNDZULFS","3JUDR1D0D6D4CARU3YX9Y3DK5DJ2QK","","null","<img src=""img/food5.png"" style=""width:200px; border:14px solid green;"">","null","","","","","","","","","",""
"","image-keyboard-response","154","92013","0.0-154.0","3PB5A5BD0WSM76SGXGEUPZMEIJAG7C","A2196WCNDZULFS","3JUDR1D0D6D4CARU3YX9Y3DK5DJ2QK","","377.29999999701977","img/food5.png","76","378.5","3","1","2","1","1,0.5,0,1,0.5,0,0.5,0,1","0.5,0,1,0.5,0,1,0,1,0.5","2","",""
"","html-keyboard-response","155","92315","0.0-155.0","3PB5A5BD0WSM76SGXGEUPZMEIJAG7C","A2196WCNDZULFS","3JUDR1D0D6D4CARU3YX9Y3DK5DJ2QK","","null","<img src=""img/food5.png"" style=""width:200px; border:14px solid green;"">","null","","","","","","","","","",""
"","image-keyboard-response","156","92660","0.0-156.0","3PB5A5BD0WSM76SGXGEUPZMEIJAG7C","A2196WCNDZULFS","3JUDR1D0D6D4CARU3YX9Y3DK5DJ2QK","","344.40000000596046","img/food5.png","76","345","3","1","2","1","1,0.5,0,1,0.5,0,0.5,0,1","0.5,0,1,0.5,0,1,0,1,0.5","2","",""
"","html-keyboard-response","157","92963","0.0-157.0","3PB5A5BD0WSM76SGXGEUPZMEIJAG7C","A2196WCNDZULFS","3JUDR1D0D6D4CARU3YX9Y3DK5DJ2QK","","null","<img src=""img/food5.png"" style=""width:200px; border:14px solid green;"">","null","","","","","","","","","",""
"","image-keyboard-response","158","93309","0.0-158.0","3PB5A5BD0WSM76SGXGEUPZMEIJAG7C","A2196WCNDZULFS","3JUDR1D0D6D4CARU3YX9Y3DK5DJ2QK","","344.20000000298023","img/food5.png","76","345.5","3","1","2","1","1,0.5,0,1,0.5,0,0.5,0,1","0.5,0,1,0.5,0,1,0,1,0.5","2","",""
"","html-keyboard-response","159","93610","0.0-159.0","3PB5A5BD0WSM76SGXGEUPZMEIJAG7C","A2196WCNDZULFS","3JUDR1D0D6D4CARU3YX9Y3DK5DJ2QK","","null","<img src=""img/food5.png"" style=""width:200px; border:14px solid green;"">","null","","","","","","","","","",""
"","image-keyboard-response","160","93982","0.0-160.0","3PB5A5BD0WSM76SGXGEUPZMEIJAG7C","A2196WCNDZULFS","3JUDR1D0D6D4CARU3YX9Y3DK5DJ2QK","","370.79999999701977","img/food5.png","76","372","3","1","2","1","1,0.5,0,1,0.5,0,0.5,0,1","0.5,0,1,0.5,0,1,0,1,0.5","2","",""
"","html-keyboard-response","161","94285","0.0-161.0","3PB5A5BD0WSM76SGXGEUPZMEIJAG7C","A2196WCNDZULFS","3JUDR1D0D6D4CARU3YX9Y3DK5DJ2QK","","null","<img src=""img/food5.png"" style=""width:200px; border:14px solid green;"">","null","","","","","","","","","",""
"","image-keyboard-response","162","94620","0.0-162.0","3PB5A5BD0WSM76SGXGEUPZMEIJAG7C","A2196WCNDZULFS","3JUDR1D0D6D4CARU3YX9Y3DK5DJ2QK","","334.5","img/food5.png","76","335.40000000596046","3","1","2","1","1,0.5,0,1,0.5,0,0.5,0,1","0.5,0,1,0.5,0,1,0,1,0.5","2","",""
"","html-keyboard-response","163","94923","0.0-163.0","3PB5A5BD0WSM76SGXGEUPZMEIJAG7C","A2196WCNDZULFS","3JUDR1D0D6D4CARU3YX9Y3DK5DJ2QK","","null","<img src=""img/food5.png"" style=""width:200px; border:14px solid green;"">","null","","","","","","","","","",""
"","image-keyboard-response","164","95270","0.0-164.0","3PB5A5BD0WSM76SGXGEUPZMEIJAG7C","A2196WCNDZULFS","3JUDR1D0D6D4CARU3YX9Y3DK5DJ2QK","","346.3999999910593","img/food5.png","76","347.6000000089407","3","1","2","1","1,0.5,0,1,0.5,0,0.5,0,1","0.5,0,1,0.5,0,1,0,1,0.5","2","",""
"","html-keyboard-response","165","95573","0.0-165.0","3PB5A5BD0WSM76SGXGEUPZMEIJAG7C","A2196WCNDZULFS","3JUDR1D0D6D4CARU3YX9Y3DK5DJ2QK","","null","<img src=""img/food5.png"" style=""width:200px; border:14px solid green;"">","null","","","","","","","","","",""
"","image-keyboard-response","166","95925","0.0-166.0","3PB5A5BD0WSM76SGXGEUPZMEIJAG7C","A2196WCNDZULFS","3JUDR1D0D6D4CARU3YX9Y3DK5DJ2QK","","351","img/food5.png","76","351.70000000298023","3","1","2","1","1,0.5,0,1,0.5,0,0.5,0,1","0.5,0,1,0.5,0,1,0,1,0.5","2","",""
"","html-keyboard-response","167","96227","0.0-167.0","3PB5A5BD0WSM76SGXGEUPZMEIJAG7C","A2196WCNDZULFS","3JUDR1D0D6D4CARU3YX9Y3DK5DJ2QK","","null","<img src=""img/food5.png"" style=""width:200px; border:14px solid green;"">","null","","","","","","","","","",""
"","image-keyboard-response","168","96734","0.0-168.0","3PB5A5BD0WSM76SGXGEUPZMEIJAG7C","A2196WCNDZULFS","3JUDR1D0D6D4CARU3YX9Y3DK5DJ2QK","","506.40000000596046","img/food4.png","76","507.69999998807907","3","1","1","1","1,0.5,0,1,0.5,0,0.5,0,1","0.5,0,1,0.5,0,1,0,1,0.5","2","",""
"","html-keyboard-response","169","97049","0.0-169.0","3PB5A5BD0WSM76SGXGEUPZMEIJAG7C","A2196WCNDZULFS","3JUDR1D0D6D4CARU3YX9Y3DK5DJ2QK","","null","<img src=""img/food4.png"" style=""width:200px; border:14px solid green;"">","null","","","","","","","","","",""
"","image-keyboard-response","170","97766","0.0-170.0","3PB5A5BD0WSM76SGXGEUPZMEIJAG7C","A2196WCNDZULFS","3JUDR1D0D6D4CARU3YX9Y3DK5DJ2QK","","715.7000000029802","img/food2.png","75","717","2","1","3","1","1,0.5,0,1,0.5,0,0.5,0,1","0.5,0,1,0.5,0,1,0,1,0.5","2","",""
"","html-keyboard-response","171","98068","0.0-171.0","3PB5A5BD0WSM76SGXGEUPZMEIJAG7C","A2196WCNDZULFS","3JUDR1D0D6D4CARU3YX9Y3DK5DJ2QK","","null","<img src=""img/food2.png"" style=""width:200px; border:14px solid green;"">","null","","","","","","","","","",""
"","image-keyboard-response","172","98438","0.0-172.0","3PB5A5BD0WSM76SGXGEUPZMEIJAG7C","A2196WCNDZULFS","3JUDR1D0D6D4CARU3YX9Y3DK5DJ2QK","","368.20000000298023","img/food4.png","76","369.40000000596046","3","1","1","1","1,0.5,0,1,0.5,0,0.5,0,1","0.5,0,1,0.5,0,1,0,1,0.5","2","",""
"","html-keyboard-response","173","98739","0.0-173.0","3PB5A5BD0WSM76SGXGEUPZMEIJAG7C","A2196WCNDZULFS","3JUDR1D0D6D4CARU3YX9Y3DK5DJ2QK","","null","<img src=""img/food4.png"" style=""width:200px; border:14px solid green;"">","null","","","","","","","","","",""
"","image-keyboard-response","174","98934","0.0-174.0","3PB5A5BD0WSM76SGXGEUPZMEIJAG7C","A2196WCNDZULFS","3JUDR1D0D6D4CARU3YX9Y3DK5DJ2QK","","192.6000000089407","img/food4.png","76","193.8999999910593","3","1","1","1","1,0.5,0,1,0.5,0,0.5,0,1","0.5,0,1,0.5,0,1,0,1,0.5","2","",""
"","html-keyboard-response","175","99237","0.0-175.0","3PB5A5BD0WSM76SGXGEUPZMEIJAG7C","A2196WCNDZULFS","3JUDR1D0D6D4CARU3YX9Y3DK5DJ2QK","","null","<img src=""img/food4.png"" style=""width:200px; border:14px solid green;"">","null","","","","","","","","","",""
"","image-keyboard-response","176","99405","0.0-176.0","3PB5A5BD0WSM76SGXGEUPZMEIJAG7C","A2196WCNDZULFS","3JUDR1D0D6D4CARU3YX9Y3DK5DJ2QK","","166.8999999910593","img/food4.png","76","168","3","1","1","1","1,0.5,0,1,0.5,0,0.5,0,1","0.5,0,1,0.5,0,1,0,1,0.5","2","",""
"","html-keyboard-response","177","99706","0.0-177.0","3PB5A5BD0WSM76SGXGEUPZMEIJAG7C","A2196WCNDZULFS","3JUDR1D0D6D4CARU3YX9Y3DK5DJ2QK","","null","<img src=""img/food4.png"" style=""width:200px; border:14px solid green;"">","null","","","","","","","","","",""
"","image-keyboard-response","178","99917","0.0-178.0","3PB5A5BD0WSM76SGXGEUPZMEIJAG7C","A2196WCNDZULFS","3JUDR1D0D6D4CARU3YX9Y3DK5DJ2QK","","209.5","img/food5.png","76","210.29999999701977","3","1","2","1","1,0.5,0,1,0.5,0,0.5,0,1","0.5,0,1,0.5,0,1,0,1,0.5","2","",""
"","html-keyboard-response","179","100218","0.0-179.0","3PB5A5BD0WSM76SGXGEUPZMEIJAG7C","A2196WCNDZULFS","3JUDR1D0D6D4CARU3YX9Y3DK5DJ2QK","","null","<img src=""img/food5.png"" style=""width:200px; border:14px solid green;"">","null","","","","","","","","","",""
"","image-keyboard-response","180","100462","0.0-180.0","3PB5A5BD0WSM76SGXGEUPZMEIJAG7C","A2196WCNDZULFS","3JUDR1D0D6D4CARU3YX9Y3DK5DJ2QK","","242.3999999910593","img/food4.png","76","243.40000000596046","3","1","1","1","1,0.5,0,1,0.5,0,0.5,0,1","0.5,0,1,0.5,0,1,0,1,0.5","2","",""
"","html-keyboard-response","181","100764","0.0-181.0","3PB5A5BD0WSM76SGXGEUPZMEIJAG7C","A2196WCNDZULFS","3JUDR1D0D6D4CARU3YX9Y3DK5DJ2QK","","null","<img src=""img/food4.png"" style=""width:200px; border:14px solid green;"">","null","","","","","","","","","",""
"","html-keyboard-response","182","103629","0.0-182.0","3PB5A5BD0WSM76SGXGEUPZMEIJAG7C","A2196WCNDZULFS","3JUDR1D0D6D4CARU3YX9Y3DK5DJ2QK","","","","","","","","","","","","","",""
"","instructions","183","115205","0.0-183.0","3PB5A5BD0WSM76SGXGEUPZMEIJAG7C","A2196WCNDZULFS","3JUDR1D0D6D4CARU3YX9Y3DK5DJ2QK","[{""page_index"":0,""viewing_time"":10159.60000000894},{""page_index"":1,""viewing_time"":1416.2999999970198}]","11576.10000000894","","","","","","","","","","","",""
"","image-keyboard-response","184","115533","0.0-184.0","3PB5A5BD0WSM76SGXGEUPZMEIJAG7C","A2196WCNDZULFS","3JUDR1D0D6D4CARU3YX9Y3DK5DJ2QK","","326.80000001192093","img/food3.png","74","327.5","1","0","1","2","1,0.5,0,1,0.5,0,0.5,0,1","0.5,0,1,0.5,0,1,0,1,0.5","2","false",""
"","html-keyboard-response","185","115834","0.0-185.0","3PB5A5BD0WSM76SGXGEUPZMEIJAG7C","A2196WCNDZULFS","3JUDR1D0D6D4CARU3YX9Y3DK5DJ2QK","","null","<img src=""img/food3.png"" style=""width:200px;border:14px solid red;"">","null","","","","","","","","","",""
"","image-keyboard-response","186","116199","0.0-187.0","3PB5A5BD0WSM76SGXGEUPZMEIJAG7C","A2196WCNDZULFS","3JUDR1D0D6D4CARU3YX9Y3DK5DJ2QK","","363.20000000298023","img/food3.png","74","364.29999999701977","1","0","1","2","1,0.5,0,1,0.5,0,0.5,0,1","0.5,0,1,0.5,0,1,0,1,0.5","2","false",""
"","html-keyboard-response","187","116502","0.0-188.0","3PB5A5BD0WSM76SGXGEUPZMEIJAG7C","A2196WCNDZULFS","3JUDR1D0D6D4CARU3YX9Y3DK5DJ2QK","","null","<img src=""img/food3.png"" style=""width:200px;border:14px solid red;"">","null","","","","","","","","","",""
"","image-keyboard-response","188","117057","0.0-190.0","3PB5A5BD0WSM76SGXGEUPZMEIJAG7C","A2196WCNDZULFS","3JUDR1D0D6D4CARU3YX9Y3DK5DJ2QK","","551.2000000029802","img/food1.png","75","554","2","1","3","2","1,0.5,0,1,0.5,0,0.5,0,1","0.5,0,1,0.5,0,1,0,1,0.5","2","false",""
"","html-keyboard-response","189","117359","0.0-191.0","3PB5A5BD0WSM76SGXGEUPZMEIJAG7C","A2196WCNDZULFS","3JUDR1D0D6D4CARU3YX9Y3DK5DJ2QK","","null","<img src=""img/food1.png"" style=""width:200px; border:14px solid green;"">","null","","","","","","","","","",""
"","image-keyboard-response","190","117910","0.0-193.0","3PB5A5BD0WSM76SGXGEUPZMEIJAG7C","A2196WCNDZULFS","3JUDR1D0D6D4CARU3YX9Y3DK5DJ2QK","","549.7999999970198","img/food6.png","76","550.5","3","1","2","2","1,0.5,0,1,0.5,0,0.5,0,1","0.5,0,1,0.5,0,1,0,1,0.5","2","false",""
"","html-keyboard-response","191","118212","0.0-194.0","3PB5A5BD0WSM76SGXGEUPZMEIJAG7C","A2196WCNDZULFS","3JUDR1D0D6D4CARU3YX9Y3DK5DJ2QK","","null","<img src=""img/food6.png"" style=""width:200px; border:14px solid green;"">","null","","","","","","","","","",""
"","image-keyboard-response","192","118703","0.0-196.0","3PB5A5BD0WSM76SGXGEUPZMEIJAG7C","A2196WCNDZULFS","3JUDR1D0D6D4CARU3YX9Y3DK5DJ2QK","","488.70000000298023","img/food3.png","74","490.20000000298023","1","0","1","2","1,0.5,0,1,0.5,0,0.5,0,1","0.5,0,1,0.5,0,1,0,1,0.5","2","false",""
"","html-keyboard-response","193","119005","0.0-197.0","3PB5A5BD0WSM76SGXGEUPZMEIJAG7C","A2196WCNDZULFS","3JUDR1D0D6D4CARU3YX9Y3DK5DJ2QK","","null","<img src=""img/food3.png"" style=""width:200px;border:14px solid red;"">","null","","","","","","","","","",""
"","image-keyboard-response","194","119462","0.0-199.0","3PB5A5BD0WSM76SGXGEUPZMEIJAG7C","A2196WCNDZULFS","3JUDR1D0D6D4CARU3YX9Y3DK5DJ2QK","","456","img/food6.png","74","457.20000000298023","1","1","2","2","1,0.5,0,1,0.5,0,0.5,0,1","0.5,0,1,0.5,0,1,0,1,0.5","2","false",""
"","html-keyboard-response","195","119764","0.0-200.0","3PB5A5BD0WSM76SGXGEUPZMEIJAG7C","A2196WCNDZULFS","3JUDR1D0D6D4CARU3YX9Y3DK5DJ2QK","","null","<img src=""img/food6.png"" style=""width:200px; border:14px solid green;"">","null","","","","","","","","","",""
"","image-keyboard-response","196","120126","0.0-202.0","3PB5A5BD0WSM76SGXGEUPZMEIJAG7C","A2196WCNDZULFS","3JUDR1D0D6D4CARU3YX9Y3DK5DJ2QK","","359.3999999910593","img/food6.png","74","360.69999998807907","1","1","2","2","1,0.5,0,1,0.5,0,0.5,0,1","0.5,0,1,0.5,0,1,0,1,0.5","2","false",""
"","html-keyboard-response","197","120427","0.0-203.0","3PB5A5BD0WSM76SGXGEUPZMEIJAG7C","A2196WCNDZULFS","3JUDR1D0D6D4CARU3YX9Y3DK5DJ2QK","","null","<img src=""img/food6.png"" style=""width:200px; border:14px solid green;"">","null","","","","","","","","","",""
"","image-keyboard-response","198","120845","0.0-205.0","3PB5A5BD0WSM76SGXGEUPZMEIJAG7C","A2196WCNDZULFS","3JUDR1D0D6D4CARU3YX9Y3DK5DJ2QK","","416.90000000596046","img/food1.png","74","417.70000000298023","1","0","3","2","1,0.5,0,1,0.5,0,0.5,0,1","0.5,0,1,0.5,0,1,0,1,0.5","2","false",""
"","html-keyboard-response","199","121146","0.0-206.0","3PB5A5BD0WSM76SGXGEUPZMEIJAG7C","A2196WCNDZULFS","3JUDR1D0D6D4CARU3YX9Y3DK5DJ2QK","","null","<img src=""img/food1.png"" style=""width:200px;border:14px solid red;"">","null","","","","","","","","","",""
"","image-keyboard-response","200","121485","0.0-208.0","3PB5A5BD0WSM76SGXGEUPZMEIJAG7C","A2196WCNDZULFS","3JUDR1D0D6D4CARU3YX9Y3DK5DJ2QK","","337.30000001192093","img/food3.png","74","338.29999999701977","1","1","1","2","1,0.5,0,1,0.5,0,0.5,0,1","0.5,0,1,0.5,0,1,0,1,0.5","2","false",""
"","html-keyboard-response","201","121786","0.0-209.0","3PB5A5BD0WSM76SGXGEUPZMEIJAG7C","A2196WCNDZULFS","3JUDR1D0D6D4CARU3YX9Y3DK5DJ2QK","","null","<img src=""img/food3.png"" style=""width:200px; border:14px solid green;"">","null","","","","","","","","","",""
"","image-keyboard-response","202","122126","0.0-211.0","3PB5A5BD0WSM76SGXGEUPZMEIJAG7C","A2196WCNDZULFS","3JUDR1D0D6D4CARU3YX9Y3DK5DJ2QK","","338.20000000298023","img/food3.png","74","339.20000000298023","1","1","1","2","1,0.5,0,1,0.5,0,0.5,0,1","0.5,0,1,0.5,0,1,0,1,0.5","2","false",""
"","html-keyboard-response","203","122433","0.0-212.0","3PB5A5BD0WSM76SGXGEUPZMEIJAG7C","A2196WCNDZULFS","3JUDR1D0D6D4CARU3YX9Y3DK5DJ2QK","","null","<img src=""img/food3.png"" style=""width:200px; border:14px solid green;"">","null","","","","","","","","","",""
"","image-keyboard-response","204","122958","0.0-214.0","3PB5A5BD0WSM76SGXGEUPZMEIJAG7C","A2196WCNDZULFS","3JUDR1D0D6D4CARU3YX9Y3DK5DJ2QK","","523.2000000029802","img/food6.png","75","524.5","2","0","2","2","1,0.5,0,1,0.5,0,0.5,0,1","0.5,0,1,0.5,0,1,0,1,0.5","2","false",""
"","html-keyboard-response","205","123260","0.0-215.0","3PB5A5BD0WSM76SGXGEUPZMEIJAG7C","A2196WCNDZULFS","3JUDR1D0D6D4CARU3YX9Y3DK5DJ2QK","","null","<img src=""img/food6.png"" style=""width:200px;border:14px solid red;"">","null","","","","","","","","","",""
"","image-keyboard-response","206","123606","0.0-217.0","3PB5A5BD0WSM76SGXGEUPZMEIJAG7C","A2196WCNDZULFS","3JUDR1D0D6D4CARU3YX9Y3DK5DJ2QK","","344.5","img/food6.png","75","345.3999999910593","2","0","2","2","1,0.5,0,1,0.5,0,0.5,0,1","0.5,0,1,0.5,0,1,0,1,0.5","2","false",""
"","html-keyboard-response","207","123908","0.0-218.0","3PB5A5BD0WSM76SGXGEUPZMEIJAG7C","A2196WCNDZULFS","3JUDR1D0D6D4CARU3YX9Y3DK5DJ2QK","","null","<img src=""img/food6.png"" style=""width:200px;border:14px solid red;"">","null","","","","","","","","","",""
"","image-keyboard-response","208","124181","0.0-220.0","3PB5A5BD0WSM76SGXGEUPZMEIJAG7C","A2196WCNDZULFS","3JUDR1D0D6D4CARU3YX9Y3DK5DJ2QK","","272","img/food6.png","75","272.5","2","0","2","2","1,0.5,0,1,0.5,0,0.5,0,1","0.5,0,1,0.5,0,1,0,1,0.5","2","false",""
"","html-keyboard-response","209","124483","0.0-221.0","3PB5A5BD0WSM76SGXGEUPZMEIJAG7C","A2196WCNDZULFS","3JUDR1D0D6D4CARU3YX9Y3DK5DJ2QK","","null","<img src=""img/food6.png"" style=""width:200px;border:14px solid red;"">","null","","","","","","","","","",""
"","image-keyboard-response","210","124726","0.0-223.0","3PB5A5BD0WSM76SGXGEUPZMEIJAG7C","A2196WCNDZULFS","3JUDR1D0D6D4CARU3YX9Y3DK5DJ2QK","","241.90000000596046","img/food6.png","76","242.90000000596046","3","1","2","2","1,0.5,0,1,0.5,0,0.5,0,1","0.5,0,1,0.5,0,1,0,1,0.5","2","false",""
"","html-keyboard-response","211","125028","0.0-224.0","3PB5A5BD0WSM76SGXGEUPZMEIJAG7C","A2196WCNDZULFS","3JUDR1D0D6D4CARU3YX9Y3DK5DJ2QK","","null","<img src=""img/food6.png"" style=""width:200px; border:14px solid green;"">","null","","","","","","","","","",""
"","image-keyboard-response","212","125934","0.0-226.0","3PB5A5BD0WSM76SGXGEUPZMEIJAG7C","A2196WCNDZULFS","3JUDR1D0D6D4CARU3YX9Y3DK5DJ2QK","","905","img/food1.png","74","906","1","0","3","2","1,0.5,0,1,0.5,0,0.5,0,1","0.5,0,1,0.5,0,1,0,1,0.5","2","false",""
"","html-keyboard-response","213","126236","0.0-227.0","3PB5A5BD0WSM76SGXGEUPZMEIJAG7C","A2196WCNDZULFS","3JUDR1D0D6D4CARU3YX9Y3DK5DJ2QK","","null","<img src=""img/food1.png"" style=""width:200px;border:14px solid red;"">","null","","","","","","","","","",""
"","image-keyboard-response","214","126671","0.0-229.0","3PB5A5BD0WSM76SGXGEUPZMEIJAG7C","A2196WCNDZULFS","3JUDR1D0D6D4CARU3YX9Y3DK5DJ2QK","","433.3999999910593","img/food3.png","74","434.5","1","0","1","2","1,0.5,0,1,0.5,0,0.5,0,1","0.5,0,1,0.5,0,1,0,1,0.5","2","false",""
"","html-keyboard-response","215","126973","0.0-230.0","3PB5A5BD0WSM76SGXGEUPZMEIJAG7C","A2196WCNDZULFS","3JUDR1D0D6D4CARU3YX9Y3DK5DJ2QK","","null","<img src=""img/food3.png"" style=""width:200px;border:14px solid red;"">","null","","","","","","","","","",""
"","image-keyboard-response","216","127318","0.0-232.0","3PB5A5BD0WSM76SGXGEUPZMEIJAG7C","A2196WCNDZULFS","3JUDR1D0D6D4CARU3YX9Y3DK5DJ2QK","","343.6000000089407","img/food6.png","74","344.59999999403954","1","0","2","2","1,0.5,0,1,0.5,0,0.5,0,1","0.5,0,1,0.5,0,1,0,1,0.5","2","false",""
"","html-keyboard-response","217","127619","0.0-233.0","3PB5A5BD0WSM76SGXGEUPZMEIJAG7C","A2196WCNDZULFS","3JUDR1D0D6D4CARU3YX9Y3DK5DJ2QK","","null","<img src=""img/food6.png"" style=""width:200px;border:14px solid red;"">","null","","","","","","","","","",""
"","image-keyboard-response","218","128389","0.0-235.0","3PB5A5BD0WSM76SGXGEUPZMEIJAG7C","A2196WCNDZULFS","3JUDR1D0D6D4CARU3YX9Y3DK5DJ2QK","","768.9000000059605","img/food1.png","74","769.5","1","0","3","2","1,0.5,0,1,0.5,0,0.5,0,1","0.5,0,1,0.5,0,1,0,1,0.5","2","false",""
"","html-keyboard-response","219","128692","0.0-236.0","3PB5A5BD0WSM76SGXGEUPZMEIJAG7C","A2196WCNDZULFS","3JUDR1D0D6D4CARU3YX9Y3DK5DJ2QK","","null","<img src=""img/food1.png"" style=""width:200px;border:14px solid red;"">","null","","","","","","","","","",""
"","image-keyboard-response","220","129478","0.0-238.0","3PB5A5BD0WSM76SGXGEUPZMEIJAG7C","A2196WCNDZULFS","3JUDR1D0D6D4CARU3YX9Y3DK5DJ2QK","","783.9000000059605","img/food6.png","76","785","3","1","2","2","1,0.5,0,1,0.5,0,0.5,0,1","0.5,0,1,0.5,0,1,0,1,0.5","2","false",""
"","html-keyboard-response","221","129780","0.0-239.0","3PB5A5BD0WSM76SGXGEUPZMEIJAG7C","A2196WCNDZULFS","3JUDR1D0D6D4CARU3YX9Y3DK5DJ2QK","","null","<img src=""img/food6.png"" style=""width:200px; border:14px solid green;"">","null","","","","","","","","","",""
"","image-keyboard-response","222","130303","0.0-241.0","3PB5A5BD0WSM76SGXGEUPZMEIJAG7C","A2196WCNDZULFS","3JUDR1D0D6D4CARU3YX9Y3DK5DJ2QK","","521.8999999910593","img/food1.png","75","522.8999999910593","2","1","3","2","1,0.5,0,1,0.5,0,0.5,0,1","0.5,0,1,0.5,0,1,0,1,0.5","2","false",""
"","html-keyboard-response","223","130605","0.0-242.0","3PB5A5BD0WSM76SGXGEUPZMEIJAG7C","A2196WCNDZULFS","3JUDR1D0D6D4CARU3YX9Y3DK5DJ2QK","","null","<img src=""img/food1.png"" style=""width:200px; border:14px solid green;"">","null","","","","","","","","","",""
"","image-keyboard-response","224","131069","0.0-244.0","3PB5A5BD0WSM76SGXGEUPZMEIJAG7C","A2196WCNDZULFS","3JUDR1D0D6D4CARU3YX9Y3DK5DJ2QK","","463.1000000089407","img/food1.png","75","464.09999999403954","2","1","3","2","1,0.5,0,1,0.5,0,0.5,0,1","0.5,0,1,0.5,0,1,0,1,0.5","2","false",""
"","html-keyboard-response","225","131371","0.0-245.0","3PB5A5BD0WSM76SGXGEUPZMEIJAG7C","A2196WCNDZULFS","3JUDR1D0D6D4CARU3YX9Y3DK5DJ2QK","","null","<img src=""img/food1.png"" style=""width:200px; border:14px solid green;"">","null","","","","","","","","","",""
"","image-keyboard-response","226","131775","0.0-247.0","3PB5A5BD0WSM76SGXGEUPZMEIJAG7C","A2196WCNDZULFS","3JUDR1D0D6D4CARU3YX9Y3DK5DJ2QK","","401.59999999403954","img/food1.png","75","403","2","1","3","2","1,0.5,0,1,0.5,0,0.5,0,1","0.5,0,1,0.5,0,1,0,1,0.5","2","false",""
"","html-keyboard-response","227","132077","0.0-248.0","3PB5A5BD0WSM76SGXGEUPZMEIJAG7C","A2196WCNDZULFS","3JUDR1D0D6D4CARU3YX9Y3DK5DJ2QK","","null","<img src=""img/food1.png"" style=""width:200px; border:14px solid green;"">","null","","","","","","","","","",""
"","image-keyboard-response","228","132510","0.0-250.0","3PB5A5BD0WSM76SGXGEUPZMEIJAG7C","A2196WCNDZULFS","3JUDR1D0D6D4CARU3YX9Y3DK5DJ2QK","","432","img/food6.png","76","433","3","1","2","2","1,0.5,0,1,0.5,0,0.5,0,1","0.5,0,1,0.5,0,1,0,1,0.5","2","false",""
"","html-keyboard-response","229","132813","0.0-251.0","3PB5A5BD0WSM76SGXGEUPZMEIJAG7C","A2196WCNDZULFS","3JUDR1D0D6D4CARU3YX9Y3DK5DJ2QK","","null","<img src=""img/food6.png"" style=""width:200px; border:14px solid green;"">","null","","","","","","","","","",""
"","image-keyboard-response","230","133373","0.0-253.0","3PB5A5BD0WSM76SGXGEUPZMEIJAG7C","A2196WCNDZULFS","3JUDR1D0D6D4CARU3YX9Y3DK5DJ2QK","","558.5","img/food1.png","75","559.7999999970198","2","1","3","2","1,0.5,0,1,0.5,0,0.5,0,1","0.5,0,1,0.5,0,1,0,1,0.5","2","false",""
"","html-keyboard-response","231","133674","0.0-254.0","3PB5A5BD0WSM76SGXGEUPZMEIJAG7C","A2196WCNDZULFS","3JUDR1D0D6D4CARU3YX9Y3DK5DJ2QK","","null","<img src=""img/food1.png"" style=""width:200px; border:14px solid green;"">","null","","","","","","","","","",""
"","image-keyboard-response","232","134239","0.0-256.0","3PB5A5BD0WSM76SGXGEUPZMEIJAG7C","A2196WCNDZULFS","3JUDR1D0D6D4CARU3YX9Y3DK5DJ2QK","","562.8999999910593","img/food6.png","76","563.8999999910593","3","1","2","2","1,0.5,0,1,0.5,0,0.5,0,1","0.5,0,1,0.5,0,1,0,1,0.5","2","false",""
"","html-keyboard-response","233","134541","0.0-257.0","3PB5A5BD0WSM76SGXGEUPZMEIJAG7C","A2196WCNDZULFS","3JUDR1D0D6D4CARU3YX9Y3DK5DJ2QK","","null","<img src=""img/food6.png"" style=""width:200px; border:14px solid green;"">","null","","","","","","","","","",""
"","image-keyboard-response","234","134999","0.0-259.0","3PB5A5BD0WSM76SGXGEUPZMEIJAG7C","A2196WCNDZULFS","3JUDR1D0D6D4CARU3YX9Y3DK5DJ2QK","","456.6000000089407","img/food1.png","75","457.5","2","1","3","2","1,0.5,0,1,0.5,0,0.5,0,1","0.5,0,1,0.5,0,1,0,1,0.5","2","false",""
"","html-keyboard-response","235","135300","0.0-260.0","3PB5A5BD0WSM76SGXGEUPZMEIJAG7C","A2196WCNDZULFS","3JUDR1D0D6D4CARU3YX9Y3DK5DJ2QK","","null","<img src=""img/food1.png"" style=""width:200px; border:14px solid green;"">","null","","","","","","","","","",""
"","image-keyboard-response","236","135701","0.0-262.0","3PB5A5BD0WSM76SGXGEUPZMEIJAG7C","A2196WCNDZULFS","3JUDR1D0D6D4CARU3YX9Y3DK5DJ2QK","","399.09999999403954","img/food1.png","75","400.19999998807907","2","1","3","2","1,0.5,0,1,0.5,0,0.5,0,1","0.5,0,1,0.5,0,1,0,1,0.5","2","false",""
"","html-keyboard-response","237","136003","0.0-263.0","3PB5A5BD0WSM76SGXGEUPZMEIJAG7C","A2196WCNDZULFS","3JUDR1D0D6D4CARU3YX9Y3DK5DJ2QK","","null","<img src=""img/food1.png"" style=""width:200px; border:14px solid green;"">","null","","","","","","","","","",""
"","image-keyboard-response","238","136382","0.0-265.0","3PB5A5BD0WSM76SGXGEUPZMEIJAG7C","A2196WCNDZULFS","3JUDR1D0D6D4CARU3YX9Y3DK5DJ2QK","","377.29999999701977","img/food1.png","75","378.20000000298023","2","1","3","2","1,0.5,0,1,0.5,0,0.5,0,1","0.5,0,1,0.5,0,1,0,1,0.5","2","false",""
"","html-keyboard-response","239","136683","0.0-266.0","3PB5A5BD0WSM76SGXGEUPZMEIJAG7C","A2196WCNDZULFS","3JUDR1D0D6D4CARU3YX9Y3DK5DJ2QK","","null","<img src=""img/food1.png"" style=""width:200px; border:14px solid green;"">","null","","","","","","","","","",""
"","image-keyboard-response","240","137103","0.0-268.0","3PB5A5BD0WSM76SGXGEUPZMEIJAG7C","A2196WCNDZULFS","3JUDR1D0D6D4CARU3YX9Y3DK5DJ2QK","","418.09999999403954","img/food3.png","76","419.1000000089407","3","1","1","2","1,0.5,0,1,0.5,0,0.5,0,1","0.5,0,1,0.5,0,1,0,1,0.5","2","false",""
"","html-keyboard-response","241","137405","0.0-269.0","3PB5A5BD0WSM76SGXGEUPZMEIJAG7C","A2196WCNDZULFS","3JUDR1D0D6D4CARU3YX9Y3DK5DJ2QK","","null","<img src=""img/food3.png"" style=""width:200px; border:14px solid green;"">","null","","","","","","","","","",""
"","image-keyboard-response","242","137838","0.0-271.0","3PB5A5BD0WSM76SGXGEUPZMEIJAG7C","A2196WCNDZULFS","3JUDR1D0D6D4CARU3YX9Y3DK5DJ2QK","","431.5","img/food1.png","76","432.40000000596046","3","0","3","2","1,0.5,0,1,0.5,0,0.5,0,1","0.5,0,1,0.5,0,1,0,1,0.5","2","false",""
"","html-keyboard-response","243","138140","0.0-272.0","3PB5A5BD0WSM76SGXGEUPZMEIJAG7C","A2196WCNDZULFS","3JUDR1D0D6D4CARU3YX9Y3DK5DJ2QK","","null","<img src=""img/food1.png"" style=""width:200px;border:14px solid red;"">","null","","","","","","","","","",""
"","image-keyboard-response","244","138806","0.0-274.0","3PB5A5BD0WSM76SGXGEUPZMEIJAG7C","A2196WCNDZULFS","3JUDR1D0D6D4CARU3YX9Y3DK5DJ2QK","","664.7000000029802","img/food6.png","76","665.6000000089407","3","1","2","2","1,0.5,0,1,0.5,0,0.5,0,1","0.5,0,1,0.5,0,1,0,1,0.5","2","false",""
"","html-keyboard-response","245","139108","0.0-275.0","3PB5A5BD0WSM76SGXGEUPZMEIJAG7C","A2196WCNDZULFS","3JUDR1D0D6D4CARU3YX9Y3DK5DJ2QK","","null","<img src=""img/food6.png"" style=""width:200px; border:14px solid green;"">","null","","","","","","","","","",""
"","image-keyboard-response","246","139638","0.0-277.0","3PB5A5BD0WSM76SGXGEUPZMEIJAG7C","A2196WCNDZULFS","3JUDR1D0D6D4CARU3YX9Y3DK5DJ2QK","","528.0999999940395","img/food3.png","76","529.2000000029802","3","1","1","2","1,0.5,0,1,0.5,0,0.5,0,1","0.5,0,1,0.5,0,1,0,1,0.5","2","false",""
"","html-keyboard-response","247","139940","0.0-278.0","3PB5A5BD0WSM76SGXGEUPZMEIJAG7C","A2196WCNDZULFS","3JUDR1D0D6D4CARU3YX9Y3DK5DJ2QK","","null","<img src=""img/food3.png"" style=""width:200px; border:14px solid green;"">","null","","","","","","","","","",""
"","image-keyboard-response","248","140406","0.0-280.0","3PB5A5BD0WSM76SGXGEUPZMEIJAG7C","A2196WCNDZULFS","3JUDR1D0D6D4CARU3YX9Y3DK5DJ2QK","","464.29999999701977","img/food1.png","75","465.59999999403954","2","1","3","2","1,0.5,0,1,0.5,0,0.5,0,1","0.5,0,1,0.5,0,1,0,1,0.5","2","false",""
"","html-keyboard-response","249","140707","0.0-281.0","3PB5A5BD0WSM76SGXGEUPZMEIJAG7C","A2196WCNDZULFS","3JUDR1D0D6D4CARU3YX9Y3DK5DJ2QK","","null","<img src=""img/food1.png"" style=""width:200px; border:14px solid green;"">","null","","","","","","","","","",""
"","image-keyboard-response","250","141103","0.0-283.0","3PB5A5BD0WSM76SGXGEUPZMEIJAG7C","A2196WCNDZULFS","3JUDR1D0D6D4CARU3YX9Y3DK5DJ2QK","","394.20000000298023","img/food1.png","75","395.5","2","1","3","2","1,0.5,0,1,0.5,0,0.5,0,1","0.5,0,1,0.5,0,1,0,1,0.5","2","false",""
"","html-keyboard-response","251","141405","0.0-284.0","3PB5A5BD0WSM76SGXGEUPZMEIJAG7C","A2196WCNDZULFS","3JUDR1D0D6D4CARU3YX9Y3DK5DJ2QK","","null","<img src=""img/food1.png"" style=""width:200px; border:14px solid green;"">","null","","","","","","","","","",""
"","image-keyboard-response","252","141750","0.0-286.0","3PB5A5BD0WSM76SGXGEUPZMEIJAG7C","A2196WCNDZULFS","3JUDR1D0D6D4CARU3YX9Y3DK5DJ2QK","","344.59999999403954","img/food1.png","75","346.29999999701977","2","1","3","2","1,0.5,0,1,0.5,0,0.5,0,1","0.5,0,1,0.5,0,1,0,1,0.5","2","false",""
"","html-keyboard-response","253","142053","0.0-287.0","3PB5A5BD0WSM76SGXGEUPZMEIJAG7C","A2196WCNDZULFS","3JUDR1D0D6D4CARU3YX9Y3DK5DJ2QK","","null","<img src=""img/food1.png"" style=""width:200px; border:14px solid green;"">","null","","","","","","","","","",""
"","image-keyboard-response","254","142389","0.0-289.0","3PB5A5BD0WSM76SGXGEUPZMEIJAG7C","A2196WCNDZULFS","3JUDR1D0D6D4CARU3YX9Y3DK5DJ2QK","","334.59999999403954","img/food1.png","75","335.5","2","1","3","2","1,0.5,0,1,0.5,0,0.5,0,1","0.5,0,1,0.5,0,1,0,1,0.5","2","false",""
"","html-keyboard-response","255","142691","0.0-290.0","3PB5A5BD0WSM76SGXGEUPZMEIJAG7C","A2196WCNDZULFS","3JUDR1D0D6D4CARU3YX9Y3DK5DJ2QK","","null","<img src=""img/food1.png"" style=""width:200px; border:14px solid green;"">","null","","","","","","","","","",""
"","image-keyboard-response","256","143014","0.0-292.0","3PB5A5BD0WSM76SGXGEUPZMEIJAG7C","A2196WCNDZULFS","3JUDR1D0D6D4CARU3YX9Y3DK5DJ2QK","","321.90000000596046","img/food1.png","75","323.20000000298023","2","1","3","2","1,0.5,0,1,0.5,0,0.5,0,1","0.5,0,1,0.5,0,1,0,1,0.5","2","false",""
"","html-keyboard-response","257","143317","0.0-293.0","3PB5A5BD0WSM76SGXGEUPZMEIJAG7C","A2196WCNDZULFS","3JUDR1D0D6D4CARU3YX9Y3DK5DJ2QK","","null","<img src=""img/food1.png"" style=""width:200px; border:14px solid green;"">","null","","","","","","","","","",""
"","image-keyboard-response","258","143758","0.0-295.0","3PB5A5BD0WSM76SGXGEUPZMEIJAG7C","A2196WCNDZULFS","3JUDR1D0D6D4CARU3YX9Y3DK5DJ2QK","","440.40000000596046","img/food6.png","76","441.29999999701977","3","1","2","2","1,0.5,0,1,0.5,0,0.5,0,1","0.5,0,1,0.5,0,1,0,1,0.5","2","false",""
"","html-keyboard-response","259","144060","0.0-296.0","3PB5A5BD0WSM76SGXGEUPZMEIJAG7C","A2196WCNDZULFS","3JUDR1D0D6D4CARU3YX9Y3DK5DJ2QK","","null","<img src=""img/food6.png"" style=""width:200px; border:14px solid green;"">","null","","","","","","","","","",""
"","image-keyboard-response","260","144429","0.0-298.0","3PB5A5BD0WSM76SGXGEUPZMEIJAG7C","A2196WCNDZULFS","3JUDR1D0D6D4CARU3YX9Y3DK5DJ2QK","","369.09999999403954","img/food3.png","76","369.70000000298023","3","1","1","2","1,0.5,0,1,0.5,0,0.5,0,1","0.5,0,1,0.5,0,1,0,1,0.5","2","false",""
"","html-keyboard-response","261","144732","0.0-299.0","3PB5A5BD0WSM76SGXGEUPZMEIJAG7C","A2196WCNDZULFS","3JUDR1D0D6D4CARU3YX9Y3DK5DJ2QK","","null","<img src=""img/food3.png"" style=""width:200px; border:14px solid green;"">","null","","","","","","","","","",""
"","image-keyboard-response","262","145247","0.0-301.0","3PB5A5BD0WSM76SGXGEUPZMEIJAG7C","A2196WCNDZULFS","3JUDR1D0D6D4CARU3YX9Y3DK5DJ2QK","","514.2000000029802","img/food1.png","75","515.1000000089407","2","1","3","2","1,0.5,0,1,0.5,0,0.5,0,1","0.5,0,1,0.5,0,1,0,1,0.5","2","false",""
"","html-keyboard-response","263","145550","0.0-302.0","3PB5A5BD0WSM76SGXGEUPZMEIJAG7C","A2196WCNDZULFS","3JUDR1D0D6D4CARU3YX9Y3DK5DJ2QK","","null","<img src=""img/food1.png"" style=""width:200px; border:14px solid green;"">","null","","","","","","","","","",""
"","image-keyboard-response","264","146006","0.0-304.0","3PB5A5BD0WSM76SGXGEUPZMEIJAG7C","A2196WCNDZULFS","3JUDR1D0D6D4CARU3YX9Y3DK5DJ2QK","","453.90000000596046","img/food3.png","76","454.90000000596046","3","1","1","2","1,0.5,0,1,0.5,0,0.5,0,1","0.5,0,1,0.5,0,1,0,1,0.5","2","false",""
"","html-keyboard-response","265","146307","0.0-305.0","3PB5A5BD0WSM76SGXGEUPZMEIJAG7C","A2196WCNDZULFS","3JUDR1D0D6D4CARU3YX9Y3DK5DJ2QK","","null","<img src=""img/food3.png"" style=""width:200px; border:14px solid green;"">","null","","","","","","","","","",""
"","image-keyboard-response","266","146702","0.0-307.0","3PB5A5BD0WSM76SGXGEUPZMEIJAG7C","A2196WCNDZULFS","3JUDR1D0D6D4CARU3YX9Y3DK5DJ2QK","","394.70000000298023","img/food3.png","76","395.59999999403954","3","1","1","2","1,0.5,0,1,0.5,0,0.5,0,1","0.5,0,1,0.5,0,1,0,1,0.5","2","false",""
"","html-keyboard-response","267","147005","0.0-308.0","3PB5A5BD0WSM76SGXGEUPZMEIJAG7C","A2196WCNDZULFS","3JUDR1D0D6D4CARU3YX9Y3DK5DJ2QK","","null","<img src=""img/food3.png"" style=""width:200px; border:14px solid green;"">","null","","","","","","","","","",""
"","image-keyboard-response","268","147527","0.0-310.0","3PB5A5BD0WSM76SGXGEUPZMEIJAG7C","A2196WCNDZULFS","3JUDR1D0D6D4CARU3YX9Y3DK5DJ2QK","","520.5","img/food1.png","75","521.9000000059605","2","1","3","2","1,0.5,0,1,0.5,0,0.5,0,1","0.5,0,1,0.5,0,1,0,1,0.5","2","false",""
"","html-keyboard-response","269","147830","0.0-311.0","3PB5A5BD0WSM76SGXGEUPZMEIJAG7C","A2196WCNDZULFS","3JUDR1D0D6D4CARU3YX9Y3DK5DJ2QK","","null","<img src=""img/food1.png"" style=""width:200px; border:14px solid green;"">","null","","","","","","","","","",""
"","image-keyboard-response","270","148199","0.0-313.0","3PB5A5BD0WSM76SGXGEUPZMEIJAG7C","A2196WCNDZULFS","3JUDR1D0D6D4CARU3YX9Y3DK5DJ2QK","","368.1000000089407","img/food1.png","75","369.20000000298023","2","1","3","2","1,0.5,0,1,0.5,0,0.5,0,1","0.5,0,1,0.5,0,1,0,1,0.5","2","false",""
"","html-keyboard-response","271","148502","0.0-314.0","3PB5A5BD0WSM76SGXGEUPZMEIJAG7C","A2196WCNDZULFS","3JUDR1D0D6D4CARU3YX9Y3DK5DJ2QK","","null","<img src=""img/food1.png"" style=""width:200px; border:14px solid green;"">","null","","","","","","","","","",""
"","image-keyboard-response","272","148958","0.0-316.0","3PB5A5BD0WSM76SGXGEUPZMEIJAG7C","A2196WCNDZULFS","3JUDR1D0D6D4CARU3YX9Y3DK5DJ2QK","","455.20000000298023","img/food3.png","76","455.90000000596046","3","1","1","2","1,0.5,0,1,0.5,0,0.5,0,1","0.5,0,1,0.5,0,1,0,1,0.5","2","false",""
"","html-keyboard-response","273","149259","0.0-317.0","3PB5A5BD0WSM76SGXGEUPZMEIJAG7C","A2196WCNDZULFS","3JUDR1D0D6D4CARU3YX9Y3DK5DJ2QK","","null","<img src=""img/food3.png"" style=""width:200px; border:14px solid green;"">","null","","","","","","","","","",""
"","image-keyboard-response","274","149622","0.0-319.0","3PB5A5BD0WSM76SGXGEUPZMEIJAG7C","A2196WCNDZULFS","3JUDR1D0D6D4CARU3YX9Y3DK5DJ2QK","","361.40000000596046","img/food3.png","76","362.5","3","1","1","2","1,0.5,0,1,0.5,0,0.5,0,1","0.5,0,1,0.5,0,1,0,1,0.5","2","false",""
"","html-keyboard-response","275","149923","0.0-320.0","3PB5A5BD0WSM76SGXGEUPZMEIJAG7C","A2196WCNDZULFS","3JUDR1D0D6D4CARU3YX9Y3DK5DJ2QK","","null","<img src=""img/food3.png"" style=""width:200px; border:14px solid green;"">","null","","","","","","","","","",""
"","image-keyboard-response","276","150271","0.0-322.0","3PB5A5BD0WSM76SGXGEUPZMEIJAG7C","A2196WCNDZULFS","3JUDR1D0D6D4CARU3YX9Y3DK5DJ2QK","","346.6000000089407","img/food3.png","76","347.70000000298023","3","1","1","2","1,0.5,0,1,0.5,0,0.5,0,1","0.5,0,1,0.5,0,1,0,1,0.5","2","false",""
"","html-keyboard-response","277","150574","0.0-323.0","3PB5A5BD0WSM76SGXGEUPZMEIJAG7C","A2196WCNDZULFS","3JUDR1D0D6D4CARU3YX9Y3DK5DJ2QK","","null","<img src=""img/food3.png"" style=""width:200px; border:14px solid green;"">","null","","","","","","","","","",""
"","image-keyboard-response","278","151119","0.0-325.0","3PB5A5BD0WSM76SGXGEUPZMEIJAG7C","A2196WCNDZULFS","3JUDR1D0D6D4CARU3YX9Y3DK5DJ2QK","","543.6000000089407","img/food1.png","75","545","2","1","3","2","1,0.5,0,1,0.5,0,0.5,0,1","0.5,0,1,0.5,0,1,0,1,0.5","2","false",""
"","html-keyboard-response","279","151423","0.0-326.0","3PB5A5BD0WSM76SGXGEUPZMEIJAG7C","A2196WCNDZULFS","3JUDR1D0D6D4CARU3YX9Y3DK5DJ2QK","","null","<img src=""img/food1.png"" style=""width:200px; border:14px solid green;"">","null","","","","","","","","","",""
"","image-keyboard-response","280","151757","0.0-328.0","3PB5A5BD0WSM76SGXGEUPZMEIJAG7C","A2196WCNDZULFS","3JUDR1D0D6D4CARU3YX9Y3DK5DJ2QK","","333.70000000298023","img/food1.png","75","334.40000000596046","2","1","3","2","1,0.5,0,1,0.5,0,0.5,0,1","0.5,0,1,0.5,0,1,0,1,0.5","2","false",""
"","html-keyboard-response","281","152059","0.0-329.0","3PB5A5BD0WSM76SGXGEUPZMEIJAG7C","A2196WCNDZULFS","3JUDR1D0D6D4CARU3YX9Y3DK5DJ2QK","","null","<img src=""img/food1.png"" style=""width:200px; border:14px solid green;"">","null","","","","","","","","","",""
"","image-keyboard-response","282","152535","0.0-331.0","3PB5A5BD0WSM76SGXGEUPZMEIJAG7C","A2196WCNDZULFS","3JUDR1D0D6D4CARU3YX9Y3DK5DJ2QK","","475.09999999403954","img/food3.png","76","476.5","3","1","1","2","1,0.5,0,1,0.5,0,0.5,0,1","0.5,0,1,0.5,0,1,0,1,0.5","2","false",""
"","html-keyboard-response","283","152837","0.0-332.0","3PB5A5BD0WSM76SGXGEUPZMEIJAG7C","A2196WCNDZULFS","3JUDR1D0D6D4CARU3YX9Y3DK5DJ2QK","","null","<img src=""img/food3.png"" style=""width:200px; border:14px solid green;"">","null","","","","","","","","","",""
"","image-keyboard-response","284","153231","0.0-334.0","3PB5A5BD0WSM76SGXGEUPZMEIJAG7C","A2196WCNDZULFS","3JUDR1D0D6D4CARU3YX9Y3DK5DJ2QK","","392.29999999701977","img/food6.png","76","393.5","3","1","2","2","1,0.5,0,1,0.5,0,0.5,0,1","0.5,0,1,0.5,0,1,0,1,0.5","2","false",""
"","html-keyboard-response","285","153547","0.0-335.0","3PB5A5BD0WSM76SGXGEUPZMEIJAG7C","A2196WCNDZULFS","3JUDR1D0D6D4CARU3YX9Y3DK5DJ2QK","","null","<img src=""img/food6.png"" style=""width:200px; border:14px solid green;"">","null","","","","","","","","","",""
"","image-keyboard-response","286","154039","0.0-337.0","3PB5A5BD0WSM76SGXGEUPZMEIJAG7C","A2196WCNDZULFS","3JUDR1D0D6D4CARU3YX9Y3DK5DJ2QK","","490.6000000089407","img/food1.png","75","491.6000000089407","2","1","3","2","1,0.5,0,1,0.5,0,0.5,0,1","0.5,0,1,0.5,0,1,0,1,0.5","2","false",""
"","html-keyboard-response","287","154340","0.0-338.0","3PB5A5BD0WSM76SGXGEUPZMEIJAG7C","A2196WCNDZULFS","3JUDR1D0D6D4CARU3YX9Y3DK5DJ2QK","","null","<img src=""img/food1.png"" style=""width:200px; border:14px solid green;"">","null","","","","","","","","","",""
"","image-keyboard-response","288","155040","0.0-340.0","3PB5A5BD0WSM76SGXGEUPZMEIJAG7C","A2196WCNDZULFS","3JUDR1D0D6D4CARU3YX9Y3DK5DJ2QK","","698.7000000029802","img/food6.png","76","699.5","3","1","2","2","1,0.5,0,1,0.5,0,0.5,0,1","0.5,0,1,0.5,0,1,0,1,0.5","2","false",""
"","html-keyboard-response","289","155342","0.0-341.0","3PB5A5BD0WSM76SGXGEUPZMEIJAG7C","A2196WCNDZULFS","3JUDR1D0D6D4CARU3YX9Y3DK5DJ2QK","","null","<img src=""img/food6.png"" style=""width:200px; border:14px solid green;"">","null","","","","","","","","","",""
"","image-keyboard-response","290","155702","0.0-343.0","3PB5A5BD0WSM76SGXGEUPZMEIJAG7C","A2196WCNDZULFS","3JUDR1D0D6D4CARU3YX9Y3DK5DJ2QK","","358.79999999701977","img/food6.png","76","359.5","3","1","2","2","1,0.5,0,1,0.5,0,0.5,0,1","0.5,0,1,0.5,0,1,0,1,0.5","2","false",""
"","html-keyboard-response","291","156004","0.0-344.0","3PB5A5BD0WSM76SGXGEUPZMEIJAG7C","A2196WCNDZULFS","3JUDR1D0D6D4CARU3YX9Y3DK5DJ2QK","","null","<img src=""img/food6.png"" style=""width:200px; border:14px solid green;"">","null","","","","","","","","","",""
"","image-keyboard-response","292","156398","0.0-346.0","3PB5A5BD0WSM76SGXGEUPZMEIJAG7C","A2196WCNDZULFS","3JUDR1D0D6D4CARU3YX9Y3DK5DJ2QK","","392.5","img/food3.png","76","393.70000000298023","3","1","1","2","1,0.5,0,1,0.5,0,0.5,0,1","0.5,0,1,0.5,0,1,0,1,0.5","2","false",""
"","html-keyboard-response","293","156699","0.0-347.0","3PB5A5BD0WSM76SGXGEUPZMEIJAG7C","A2196WCNDZULFS","3JUDR1D0D6D4CARU3YX9Y3DK5DJ2QK","","null","<img src=""img/food3.png"" style=""width:200px; border:14px solid green;"">","null","","","","","","","","","",""
"","image-keyboard-response","294","157254","0.0-349.0","3PB5A5BD0WSM76SGXGEUPZMEIJAG7C","A2196WCNDZULFS","3JUDR1D0D6D4CARU3YX9Y3DK5DJ2QK","","554.4000000059605","img/food6.png","76","555.2999999970198","3","1","2","2","1,0.5,0,1,0.5,0,0.5,0,1","0.5,0,1,0.5,0,1,0,1,0.5","2","false",""
"","html-keyboard-response","295","157557","0.0-350.0","3PB5A5BD0WSM76SGXGEUPZMEIJAG7C","A2196WCNDZULFS","3JUDR1D0D6D4CARU3YX9Y3DK5DJ2QK","","null","<img src=""img/food6.png"" style=""width:200px; border:14px solid green;"">","null","","","","","","","","","",""
"","image-keyboard-response","296","158087","0.0-352.0","3PB5A5BD0WSM76SGXGEUPZMEIJAG7C","A2196WCNDZULFS","3JUDR1D0D6D4CARU3YX9Y3DK5DJ2QK","","528.5","img/food1.png","75","529.6000000089407","2","1","3","2","1,0.5,0,1,0.5,0,0.5,0,1","0.5,0,1,0.5,0,1,0,1,0.5","2","false",""
"","html-keyboard-response","297","158389","0.0-353.0","3PB5A5BD0WSM76SGXGEUPZMEIJAG7C","A2196WCNDZULFS","3JUDR1D0D6D4CARU3YX9Y3DK5DJ2QK","","null","<img src=""img/food1.png"" style=""width:200px; border:14px solid green;"">","null","","","","","","","","","",""
"","image-keyboard-response","298","158854","0.0-355.0","3PB5A5BD0WSM76SGXGEUPZMEIJAG7C","A2196WCNDZULFS","3JUDR1D0D6D4CARU3YX9Y3DK5DJ2QK","","463.5","img/food6.png","76","464.5","3","1","2","2","1,0.5,0,1,0.5,0,0.5,0,1","0.5,0,1,0.5,0,1,0,1,0.5","2","false",""
"","html-keyboard-response","299","159156","0.0-356.0","3PB5A5BD0WSM76SGXGEUPZMEIJAG7C","A2196WCNDZULFS","3JUDR1D0D6D4CARU3YX9Y3DK5DJ2QK","","null","<img src=""img/food6.png"" style=""width:200px; border:14px solid green;"">","null","","","","","","","","","",""
"","image-keyboard-response","300","159591","0.0-358.0","3PB5A5BD0WSM76SGXGEUPZMEIJAG7C","A2196WCNDZULFS","3JUDR1D0D6D4CARU3YX9Y3DK5DJ2QK","","433.90000000596046","img/food3.png","76","435.1000000089407","3","1","1","2","1,0.5,0,1,0.5,0,0.5,0,1","0.5,0,1,0.5,0,1,0,1,0.5","2","false",""
"","html-keyboard-response","301","159893","0.0-359.0","3PB5A5BD0WSM76SGXGEUPZMEIJAG7C","A2196WCNDZULFS","3JUDR1D0D6D4CARU3YX9Y3DK5DJ2QK","","null","<img src=""img/food3.png"" style=""width:200px; border:14px solid green;"">","null","","","","","","","","","",""
"","image-keyboard-response","302","160423","0.0-361.0","3PB5A5BD0WSM76SGXGEUPZMEIJAG7C","A2196WCNDZULFS","3JUDR1D0D6D4CARU3YX9Y3DK5DJ2QK","","528.5","img/food6.png","76","529.6000000089407","3","1","2","2","1,0.5,0,1,0.5,0,0.5,0,1","0.5,0,1,0.5,0,1,0,1,0.5","2","false",""
"","html-keyboard-response","303","160725","0.0-362.0","3PB5A5BD0WSM76SGXGEUPZMEIJAG7C","A2196WCNDZULFS","3JUDR1D0D6D4CARU3YX9Y3DK5DJ2QK","","null","<img src=""img/food6.png"" style=""width:200px; border:14px solid green;"">","null","","","","","","","","","",""
"","image-keyboard-response","304","161175","0.0-364.0","3PB5A5BD0WSM76SGXGEUPZMEIJAG7C","A2196WCNDZULFS","3JUDR1D0D6D4CARU3YX9Y3DK5DJ2QK","","449.1000000089407","img/food3.png","76","450.40000000596046","3","1","1","2","1,0.5,0,1,0.5,0,0.5,0,1","0.5,0,1,0.5,0,1,0,1,0.5","2","false",""
"","html-keyboard-response","305","161478","0.0-365.0","3PB5A5BD0WSM76SGXGEUPZMEIJAG7C","A2196WCNDZULFS","3JUDR1D0D6D4CARU3YX9Y3DK5DJ2QK","","null","<img src=""img/food3.png"" style=""width:200px; border:14px solid green;"">","null","","","","","","","","","",""
"","image-keyboard-response","306","161901","0.0-367.0","3PB5A5BD0WSM76SGXGEUPZMEIJAG7C","A2196WCNDZULFS","3JUDR1D0D6D4CARU3YX9Y3DK5DJ2QK","","422.29999999701977","img/food6.png","76","423","3","1","2","2","1,0.5,0,1,0.5,0,0.5,0,1","0.5,0,1,0.5,0,1,0,1,0.5","2","false",""
"","html-keyboard-response","307","162204","0.0-368.0","3PB5A5BD0WSM76SGXGEUPZMEIJAG7C","A2196WCNDZULFS","3JUDR1D0D6D4CARU3YX9Y3DK5DJ2QK","","null","<img src=""img/food6.png"" style=""width:200px; border:14px solid green;"">","null","","","","","","","","","",""
"","image-keyboard-response","308","162567","0.0-370.0","3PB5A5BD0WSM76SGXGEUPZMEIJAG7C","A2196WCNDZULFS","3JUDR1D0D6D4CARU3YX9Y3DK5DJ2QK","","362.59999999403954","img/food3.png","76","363.29999999701977","3","1","1","2","1,0.5,0,1,0.5,0,0.5,0,1","0.5,0,1,0.5,0,1,0,1,0.5","2","false",""
"","html-keyboard-response","309","162870","0.0-371.0","3PB5A5BD0WSM76SGXGEUPZMEIJAG7C","A2196WCNDZULFS","3JUDR1D0D6D4CARU3YX9Y3DK5DJ2QK","","null","<img src=""img/food3.png"" style=""width:200px; border:14px solid green;"">","null","","","","","","","","","",""
"","image-keyboard-response","310","163359","0.0-373.0","3PB5A5BD0WSM76SGXGEUPZMEIJAG7C","A2196WCNDZULFS","3JUDR1D0D6D4CARU3YX9Y3DK5DJ2QK","","488.20000000298023","img/food1.png","75","489.20000000298023","2","1","3","2","1,0.5,0,1,0.5,0,0.5,0,1","0.5,0,1,0.5,0,1,0,1,0.5","2","false",""
"","html-keyboard-response","311","163661","0.0-374.0","3PB5A5BD0WSM76SGXGEUPZMEIJAG7C","A2196WCNDZULFS","3JUDR1D0D6D4CARU3YX9Y3DK5DJ2QK","","null","<img src=""img/food1.png"" style=""width:200px; border:14px solid green;"">","null","","","","","","","","","",""
"","image-keyboard-response","312","164134","0.0-376.0","3PB5A5BD0WSM76SGXGEUPZMEIJAG7C","A2196WCNDZULFS","3JUDR1D0D6D4CARU3YX9Y3DK5DJ2QK","","472.20000000298023","img/food6.png","76","473.1000000089407","3","1","2","2","1,0.5,0,1,0.5,0,0.5,0,1","0.5,0,1,0.5,0,1,0,1,0.5","2","false",""
"","html-keyboard-response","313","164440","0.0-377.0","3PB5A5BD0WSM76SGXGEUPZMEIJAG7C","A2196WCNDZULFS","3JUDR1D0D6D4CARU3YX9Y3DK5DJ2QK","","null","<img src=""img/food6.png"" style=""width:200px; border:14px solid green;"">","null","","","","","","","","","",""
"","image-keyboard-response","314","164832","0.0-379.0","3PB5A5BD0WSM76SGXGEUPZMEIJAG7C","A2196WCNDZULFS","3JUDR1D0D6D4CARU3YX9Y3DK5DJ2QK","","389.6000000089407","img/food3.png","76","390.90000000596046","3","1","1","2","1,0.5,0,1,0.5,0,0.5,0,1","0.5,0,1,0.5,0,1,0,1,0.5","2","false",""
"","html-keyboard-response","315","165141","0.0-380.0","3PB5A5BD0WSM76SGXGEUPZMEIJAG7C","A2196WCNDZULFS","3JUDR1D0D6D4CARU3YX9Y3DK5DJ2QK","","null","<img src=""img/food3.png"" style=""width:200px; border:14px solid green;"">","null","","","","","","","","","",""
"","image-keyboard-response","316","165622","0.0-382.0","3PB5A5BD0WSM76SGXGEUPZMEIJAG7C","A2196WCNDZULFS","3JUDR1D0D6D4CARU3YX9Y3DK5DJ2QK","","480.5","img/food1.png","75","481.19999998807907","2","1","3","2","1,0.5,0,1,0.5,0,0.5,0,1","0.5,0,1,0.5,0,1,0,1,0.5","2","false",""
"","html-keyboard-response","317","165923","0.0-383.0","3PB5A5BD0WSM76SGXGEUPZMEIJAG7C","A2196WCNDZULFS","3JUDR1D0D6D4CARU3YX9Y3DK5DJ2QK","","null","<img src=""img/food1.png"" style=""width:200px; border:14px solid green;"">","null","","","","","","","","","",""
"","image-keyboard-response","318","166375","0.0-385.0","3PB5A5BD0WSM76SGXGEUPZMEIJAG7C","A2196WCNDZULFS","3JUDR1D0D6D4CARU3YX9Y3DK5DJ2QK","","450.90000000596046","img/food3.png","76","451.59999999403954","3","1","1","2","1,0.5,0,1,0.5,0,0.5,0,1","0.5,0,1,0.5,0,1,0,1,0.5","2","false",""
"","html-keyboard-response","319","166676","0.0-386.0","3PB5A5BD0WSM76SGXGEUPZMEIJAG7C","A2196WCNDZULFS","3JUDR1D0D6D4CARU3YX9Y3DK5DJ2QK","","null","<img src=""img/food3.png"" style=""width:200px; border:14px solid green;"">","null","","","","","","","","","",""
"","image-keyboard-response","320","167072","0.0-388.0","3PB5A5BD0WSM76SGXGEUPZMEIJAG7C","A2196WCNDZULFS","3JUDR1D0D6D4CARU3YX9Y3DK5DJ2QK","","394.09999999403954","img/food3.png","76","395.20000000298023","3","1","1","2","1,0.5,0,1,0.5,0,0.5,0,1","0.5,0,1,0.5,0,1,0,1,0.5","2","false",""
"","html-keyboard-response","321","167374","0.0-389.0","3PB5A5BD0WSM76SGXGEUPZMEIJAG7C","A2196WCNDZULFS","3JUDR1D0D6D4CARU3YX9Y3DK5DJ2QK","","null","<img src=""img/food3.png"" style=""width:200px; border:14px solid green;"">","null","","","","","","","","","",""
"","image-keyboard-response","322","167815","0.0-391.0","3PB5A5BD0WSM76SGXGEUPZMEIJAG7C","A2196WCNDZULFS","3JUDR1D0D6D4CARU3YX9Y3DK5DJ2QK","","439.5","img/food6.png","76","440.70000000298023","3","1","2","2","1,0.5,0,1,0.5,0,0.5,0,1","0.5,0,1,0.5,0,1,0,1,0.5","2","false",""
"","html-keyboard-response","323","168116","0.0-392.0","3PB5A5BD0WSM76SGXGEUPZMEIJAG7C","A2196WCNDZULFS","3JUDR1D0D6D4CARU3YX9Y3DK5DJ2QK","","null","<img src=""img/food6.png"" style=""width:200px; border:14px solid green;"">","null","","","","","","","","","",""
"","image-keyboard-response","324","168511","0.0-394.0","3PB5A5BD0WSM76SGXGEUPZMEIJAG7C","A2196WCNDZULFS","3JUDR1D0D6D4CARU3YX9Y3DK5DJ2QK","","394","img/food6.png","76","394.79999999701977","3","1","2","2","1,0.5,0,1,0.5,0,0.5,0,1","0.5,0,1,0.5,0,1,0,1,0.5","2","false",""
"","html-keyboard-response","325","168813","0.0-395.0","3PB5A5BD0WSM76SGXGEUPZMEIJAG7C","A2196WCNDZULFS","3JUDR1D0D6D4CARU3YX9Y3DK5DJ2QK","","null","<img src=""img/food6.png"" style=""width:200px; border:14px solid green;"">","null","","","","","","","","","",""
"","image-keyboard-response","326","169279","0.0-397.0","3PB5A5BD0WSM76SGXGEUPZMEIJAG7C","A2196WCNDZULFS","3JUDR1D0D6D4CARU3YX9Y3DK5DJ2QK","","464.79999999701977","img/food3.png","76","466","3","1","1","2","1,0.5,0,1,0.5,0,0.5,0,1","0.5,0,1,0.5,0,1,0,1,0.5","2","false",""
"","html-keyboard-response","327","169583","0.0-398.0","3PB5A5BD0WSM76SGXGEUPZMEIJAG7C","A2196WCNDZULFS","3JUDR1D0D6D4CARU3YX9Y3DK5DJ2QK","","null","<img src=""img/food3.png"" style=""width:200px; border:14px solid green;"">","null","","","","","","","","","",""
"","image-keyboard-response","328","169990","0.0-400.0","3PB5A5BD0WSM76SGXGEUPZMEIJAG7C","A2196WCNDZULFS","3JUDR1D0D6D4CARU3YX9Y3DK5DJ2QK","","406.29999999701977","img/food6.png","76","407","3","1","2","2","1,0.5,0,1,0.5,0,0.5,0,1","0.5,0,1,0.5,0,1,0,1,0.5","2","false",""
"","html-keyboard-response","329","170292","0.0-401.0","3PB5A5BD0WSM76SGXGEUPZMEIJAG7C","A2196WCNDZULFS","3JUDR1D0D6D4CARU3YX9Y3DK5DJ2QK","","null","<img src=""img/food6.png"" style=""width:200px; border:14px solid green;"">","null","","","","","","","","","",""
"","image-keyboard-response","330","170863","0.0-403.0","3PB5A5BD0WSM76SGXGEUPZMEIJAG7C","A2196WCNDZULFS","3JUDR1D0D6D4CARU3YX9Y3DK5DJ2QK","","569.6000000089407","img/food1.png","75","570.8000000119209","2","1","3","2","1,0.5,0,1,0.5,0,0.5,0,1","0.5,0,1,0.5,0,1,0,1,0.5","2","false",""
"","html-keyboard-response","331","171166","0.0-404.0","3PB5A5BD0WSM76SGXGEUPZMEIJAG7C","A2196WCNDZULFS","3JUDR1D0D6D4CARU3YX9Y3DK5DJ2QK","","null","<img src=""img/food1.png"" style=""width:200px; border:14px solid green;"">","null","","","","","","","","","",""
"","image-keyboard-response","332","171608","0.0-406.0","3PB5A5BD0WSM76SGXGEUPZMEIJAG7C","A2196WCNDZULFS","3JUDR1D0D6D4CARU3YX9Y3DK5DJ2QK","","440","img/food3.png","76","441.20000000298023","3","1","1","2","1,0.5,0,1,0.5,0,0.5,0,1","0.5,0,1,0.5,0,1,0,1,0.5","2","false",""
"","html-keyboard-response","333","171911","0.0-407.0","3PB5A5BD0WSM76SGXGEUPZMEIJAG7C","A2196WCNDZULFS","3JUDR1D0D6D4CARU3YX9Y3DK5DJ2QK","","null","<img src=""img/food3.png"" style=""width:200px; border:14px solid green;"">","null","","","","","","","","","",""
"","image-keyboard-response","334","172272","0.0-409.0","3PB5A5BD0WSM76SGXGEUPZMEIJAG7C","A2196WCNDZULFS","3JUDR1D0D6D4CARU3YX9Y3DK5DJ2QK","","359.29999999701977","img/food3.png","76","360.29999999701977","3","1","1","2","1,0.5,0,1,0.5,0,0.5,0,1","0.5,0,1,0.5,0,1,0,1,0.5","2","false",""
"","html-keyboard-response","335","172575","0.0-410.0","3PB5A5BD0WSM76SGXGEUPZMEIJAG7C","A2196WCNDZULFS","3JUDR1D0D6D4CARU3YX9Y3DK5DJ2QK","","null","<img src=""img/food3.png"" style=""width:200px; border:14px solid green;"">","null","","","","","","","","","",""
"","image-keyboard-response","336","173024","0.0-412.0","3PB5A5BD0WSM76SGXGEUPZMEIJAG7C","A2196WCNDZULFS","3JUDR1D0D6D4CARU3YX9Y3DK5DJ2QK","","447.5","img/food6.png","76","448.8999999910593","3","1","2","2","1,0.5,0,1,0.5,0,0.5,0,1","0.5,0,1,0.5,0,1,0,1,0.5","2","false",""
"","html-keyboard-response","337","173326","0.0-413.0","3PB5A5BD0WSM76SGXGEUPZMEIJAG7C","A2196WCNDZULFS","3JUDR1D0D6D4CARU3YX9Y3DK5DJ2QK","","null","<img src=""img/food6.png"" style=""width:200px; border:14px solid green;"">","null","","","","","","","","","",""
"","image-keyboard-response","338","173918","0.0-415.0","3PB5A5BD0WSM76SGXGEUPZMEIJAG7C","A2196WCNDZULFS","3JUDR1D0D6D4CARU3YX9Y3DK5DJ2QK","","590.5999999940395","img/food1.png","75","591.5","2","1","3","2","1,0.5,0,1,0.5,0,0.5,0,1","0.5,0,1,0.5,0,1,0,1,0.5","2","false",""
"","html-keyboard-response","339","174219","0.0-416.0","3PB5A5BD0WSM76SGXGEUPZMEIJAG7C","A2196WCNDZULFS","3JUDR1D0D6D4CARU3YX9Y3DK5DJ2QK","","null","<img src=""img/food1.png"" style=""width:200px; border:14px solid green;"">","null","","","","","","","","","",""
"","image-keyboard-response","340","174679","0.0-418.0","3PB5A5BD0WSM76SGXGEUPZMEIJAG7C","A2196WCNDZULFS","3JUDR1D0D6D4CARU3YX9Y3DK5DJ2QK","","458.5","img/food6.png","76","459.6000000089407","3","1","2","2","1,0.5,0,1,0.5,0,0.5,0,1","0.5,0,1,0.5,0,1,0,1,0.5","2","false",""
"","html-keyboard-response","341","174981","0.0-419.0","3PB5A5BD0WSM76SGXGEUPZMEIJAG7C","A2196WCNDZULFS","3JUDR1D0D6D4CARU3YX9Y3DK5DJ2QK","","null","<img src=""img/food6.png"" style=""width:200px; border:14px solid green;"">","null","","","","","","","","","",""
"","image-keyboard-response","342","175366","0.0-421.0","3PB5A5BD0WSM76SGXGEUPZMEIJAG7C","A2196WCNDZULFS","3JUDR1D0D6D4CARU3YX9Y3DK5DJ2QK","","383.40000000596046","img/food3.png","76","384.5","3","1","1","2","1,0.5,0,1,0.5,0,0.5,0,1","0.5,0,1,0.5,0,1,0,1,0.5","2","false",""
"","html-keyboard-response","343","175668","0.0-422.0","3PB5A5BD0WSM76SGXGEUPZMEIJAG7C","A2196WCNDZULFS","3JUDR1D0D6D4CARU3YX9Y3DK5DJ2QK","","null","<img src=""img/food3.png"" style=""width:200px; border:14px solid green;"">","null","","","","","","","","","",""
"","image-keyboard-response","344","176047","0.0-424.0","3PB5A5BD0WSM76SGXGEUPZMEIJAG7C","A2196WCNDZULFS","3JUDR1D0D6D4CARU3YX9Y3DK5DJ2QK","","378.59999999403954","img/food3.png","76","379.40000000596046","3","1","1","2","1,0.5,0,1,0.5,0,0.5,0,1","0.5,0,1,0.5,0,1,0,1,0.5","2","false",""
"","html-keyboard-response","345","176349","0.0-425.0","3PB5A5BD0WSM76SGXGEUPZMEIJAG7C","A2196WCNDZULFS","3JUDR1D0D6D4CARU3YX9Y3DK5DJ2QK","","null","<img src=""img/food3.png"" style=""width:200px; border:14px solid green;"">","null","","","","","","","","","",""
"","image-keyboard-response","346","176727","0.0-427.0","3PB5A5BD0WSM76SGXGEUPZMEIJAG7C","A2196WCNDZULFS","3JUDR1D0D6D4CARU3YX9Y3DK5DJ2QK","","376.1000000089407","img/food3.png","76","376.90000000596046","3","1","1","2","1,0.5,0,1,0.5,0,0.5,0,1","0.5,0,1,0.5,0,1,0,1,0.5","2","false",""
"","html-keyboard-response","347","177028","0.0-428.0","3PB5A5BD0WSM76SGXGEUPZMEIJAG7C","A2196WCNDZULFS","3JUDR1D0D6D4CARU3YX9Y3DK5DJ2QK","","null","<img src=""img/food3.png"" style=""width:200px; border:14px solid green;"">","null","","","","","","","","","",""
"","image-keyboard-response","348","177575","0.0-430.0","3PB5A5BD0WSM76SGXGEUPZMEIJAG7C","A2196WCNDZULFS","3JUDR1D0D6D4CARU3YX9Y3DK5DJ2QK","","546.2000000029802","img/food1.png","75","547","2","1","3","2","1,0.5,0,1,0.5,0,0.5,0,1","0.5,0,1,0.5,0,1,0,1,0.5","2","false",""
"","html-keyboard-response","349","177878","0.0-431.0","3PB5A5BD0WSM76SGXGEUPZMEIJAG7C","A2196WCNDZULFS","3JUDR1D0D6D4CARU3YX9Y3DK5DJ2QK","","null","<img src=""img/food1.png"" style=""width:200px; border:14px solid green;"">","null","","","","","","","","","",""
"","image-keyboard-response","350","178304","0.0-433.0","3PB5A5BD0WSM76SGXGEUPZMEIJAG7C","A2196WCNDZULFS","3JUDR1D0D6D4CARU3YX9Y3DK5DJ2QK","","425","img/food3.png","76","426","3","1","1","2","1,0.5,0,1,0.5,0,0.5,0,1","0.5,0,1,0.5,0,1,0,1,0.5","2","false",""
"","html-keyboard-response","351","178606","0.0-434.0","3PB5A5BD0WSM76SGXGEUPZMEIJAG7C","A2196WCNDZULFS","3JUDR1D0D6D4CARU3YX9Y3DK5DJ2QK","","null","<img src=""img/food3.png"" style=""width:200px; border:14px solid green;"">","null","","","","","","","","","",""
"","image-keyboard-response","352","179040","0.0-436.0","3PB5A5BD0WSM76SGXGEUPZMEIJAG7C","A2196WCNDZULFS","3JUDR1D0D6D4CARU3YX9Y3DK5DJ2QK","","433.29999999701977","img/food6.png","76","434.29999999701977","3","1","2","2","1,0.5,0,1,0.5,0,0.5,0,1","0.5,0,1,0.5,0,1,0,1,0.5","2","false",""
"","html-keyboard-response","353","179343","0.0-437.0","3PB5A5BD0WSM76SGXGEUPZMEIJAG7C","A2196WCNDZULFS","3JUDR1D0D6D4CARU3YX9Y3DK5DJ2QK","","null","<img src=""img/food6.png"" style=""width:200px; border:14px solid green;"">","null","","","","","","","","","",""
"","image-keyboard-response","354","179695","0.0-439.0","3PB5A5BD0WSM76SGXGEUPZMEIJAG7C","A2196WCNDZULFS","3JUDR1D0D6D4CARU3YX9Y3DK5DJ2QK","","350.29999999701977","img/food6.png","76","351.29999999701977","3","1","2","2","1,0.5,0,1,0.5,0,0.5,0,1","0.5,0,1,0.5,0,1,0,1,0.5","2","false",""
"","html-keyboard-response","355","179996","0.0-440.0","3PB5A5BD0WSM76SGXGEUPZMEIJAG7C","A2196WCNDZULFS","3JUDR1D0D6D4CARU3YX9Y3DK5DJ2QK","","null","<img src=""img/food6.png"" style=""width:200px; border:14px solid green;"">","null","","","","","","","","","",""
"","image-keyboard-response","356","180351","0.0-442.0","3PB5A5BD0WSM76SGXGEUPZMEIJAG7C","A2196WCNDZULFS","3JUDR1D0D6D4CARU3YX9Y3DK5DJ2QK","","353.5","img/food6.png","76","354.6000000089407","3","1","2","2","1,0.5,0,1,0.5,0,0.5,0,1","0.5,0,1,0.5,0,1,0,1,0.5","2","false",""
"","html-keyboard-response","357","180652","0.0-443.0","3PB5A5BD0WSM76SGXGEUPZMEIJAG7C","A2196WCNDZULFS","3JUDR1D0D6D4CARU3YX9Y3DK5DJ2QK","","null","<img src=""img/food6.png"" style=""width:200px; border:14px solid green;"">","null","","","","","","","","","",""
"","image-keyboard-response","358","181296","0.0-445.0","3PB5A5BD0WSM76SGXGEUPZMEIJAG7C","A2196WCNDZULFS","3JUDR1D0D6D4CARU3YX9Y3DK5DJ2QK","","641.9000000059605","img/food1.png","75","643.2000000029802","2","1","3","2","1,0.5,0,1,0.5,0,0.5,0,1","0.5,0,1,0.5,0,1,0,1,0.5","2","false",""
"","html-keyboard-response","359","181598","0.0-446.0","3PB5A5BD0WSM76SGXGEUPZMEIJAG7C","A2196WCNDZULFS","3JUDR1D0D6D4CARU3YX9Y3DK5DJ2QK","","null","<img src=""img/food1.png"" style=""width:200px; border:14px solid green;"">","null","","","","","","","","","",""
"","image-keyboard-response","360","182032","0.0-448.0","3PB5A5BD0WSM76SGXGEUPZMEIJAG7C","A2196WCNDZULFS","3JUDR1D0D6D4CARU3YX9Y3DK5DJ2QK","","432.29999999701977","img/food3.png","76","433.6000000089407","3","1","1","2","1,0.5,0,1,0.5,0,0.5,0,1","0.5,0,1,0.5,0,1,0,1,0.5","2","false",""
"","html-keyboard-response","361","182334","0.0-449.0","3PB5A5BD0WSM76SGXGEUPZMEIJAG7C","A2196WCNDZULFS","3JUDR1D0D6D4CARU3YX9Y3DK5DJ2QK","","null","<img src=""img/food3.png"" style=""width:200px; border:14px solid green;"">","null","","","","","","","","","",""
"","image-keyboard-response","362","182743","0.0-451.0","3PB5A5BD0WSM76SGXGEUPZMEIJAG7C","A2196WCNDZULFS","3JUDR1D0D6D4CARU3YX9Y3DK5DJ2QK","","407.70000000298023","img/food6.png","76","408.40000000596046","3","1","2","2","1,0.5,0,1,0.5,0,0.5,0,1","0.5,0,1,0.5,0,1,0,1,0.5","2","false",""
"","html-keyboard-response","363","183045","0.0-452.0","3PB5A5BD0WSM76SGXGEUPZMEIJAG7C","A2196WCNDZULFS","3JUDR1D0D6D4CARU3YX9Y3DK5DJ2QK","","null","<img src=""img/food6.png"" style=""width:200px; border:14px solid green;"">","null","","","","","","","","","",""
"","instructions","364","187215","0.0-454.0","3PB5A5BD0WSM76SGXGEUPZMEIJAG7C","A2196WCNDZULFS","3JUDR1D0D6D4CARU3YX9Y3DK5DJ2QK","[{""page_index"":0,""viewing_time"":4169.0999999940395}]","4169.4000000059605","","","","","","","","","","","",""
"","survey-text","365","191448","0.0-455.0","3PB5A5BD0WSM76SGXGEUPZMEIJAG7C","A2196WCNDZULFS","3JUDR1D0D6D4CARU3YX9Y3DK5DJ2QK","","4230.5999999940395","","","","","","","","","","","","{""Q0"":""A2196WCNDZULFS""}"
