"success","trial_type","trial_index","time_elapsed","internal_node_id","assignmentID","mturkID","hitID","view_history","rt","stimulus","key_press","reactionTime","a","r","s","cond","reward_cond","reward_cond_actual","reward_matrix_idx","warning","responses"
"true","fullscreen","0","2451","0.0-0.0","3RWE2M8QWIWEZN9IZL6G04LOBM3N0E","A21QUJTIIAOX2W","37SDSEDIN9ORHL92Y0GV7TIFJ2X187","","","","","","","","","","","","","",""
"","instructions","1","75565","0.0-1.0","3RWE2M8QWIWEZN9IZL6G04LOBM3N0E","A21QUJTIIAOX2W","37SDSEDIN9ORHL92Y0GV7TIFJ2X187","[{""page_index"":0,""viewing_time"":37326.40000000596},{""page_index"":1,""viewing_time"":3432},{""page_index"":2,""viewing_time"":15617.800000011921},{""page_index"":3,""viewing_time"":5283.5},{""page_index"":4,""viewing_time"":2683},{""page_index"":5,""viewing_time"":6466.299999982119},{""page_index"":6,""viewing_time"":2301}]","73111.40000000596","","","","","","","","","","","",""
"","image-keyboard-response","2","76601","0.0-2.0","3RWE2M8QWIWEZN9IZL6G04LOBM3N0E","A21QUJTIIAOX2W","37SDSEDIN9ORHL92Y0GV7TIFJ2X187","","1032.5999999940395","img/food1.png","74","1035.0999999940395","1","0","3","1","1,0.5,0,1,0.5,0,0.5,0,1","0.5,0,1,0.5,0,1,0,1,0.5","2","",""
"","html-keyboard-response","3","76911","0.0-3.0","3RWE2M8QWIWEZN9IZL6G04LOBM3N0E","A21QUJTIIAOX2W","37SDSEDIN9ORHL92Y0GV7TIFJ2X187","","null","<img src=""img/food1.png"" style=""width:200px;border:14px solid red;"">","null","","","","","","","","","",""
"","image-keyboard-response","4","77330","0.0-4.0","3RWE2M8QWIWEZN9IZL6G04LOBM3N0E","A21QUJTIIAOX2W","37SDSEDIN9ORHL92Y0GV7TIFJ2X187","","417.40000000596046","img/food1.png","75","418.89999997615814","2","1","3","1","1,0.5,0,1,0.5,0,0.5,0,1","0.5,0,1,0.5,0,1,0,1,0.5","2","",""
"","html-keyboard-response","5","77637","0.0-5.0","3RWE2M8QWIWEZN9IZL6G04LOBM3N0E","A21QUJTIIAOX2W","37SDSEDIN9ORHL92Y0GV7TIFJ2X187","","null","<img src=""img/food1.png"" style=""width:200px; border:14px solid green;"">","null","","","","","","","","","",""
"","image-keyboard-response","6","78399","0.0-6.0","3RWE2M8QWIWEZN9IZL6G04LOBM3N0E","A21QUJTIIAOX2W","37SDSEDIN9ORHL92Y0GV7TIFJ2X187","","759.9000000059605","img/food1.png","75","761.6000000238419","2","1","3","1","1,0.5,0,1,0.5,0,0.5,0,1","0.5,0,1,0.5,0,1,0,1,0.5","2","",""
"","html-keyboard-response","7","78707","0.0-7.0","3RWE2M8QWIWEZN9IZL6G04LOBM3N0E","A21QUJTIIAOX2W","37SDSEDIN9ORHL92Y0GV7TIFJ2X187","","null","<img src=""img/food1.png"" style=""width:200px; border:14px solid green;"">","null","","","","","","","","","",""
"","image-keyboard-response","8","79702","0.0-8.0","3RWE2M8QWIWEZN9IZL6G04LOBM3N0E","A21QUJTIIAOX2W","37SDSEDIN9ORHL92Y0GV7TIFJ2X187","","993.0999999940395","img/food3.png","76","995","3","1","1","1","1,0.5,0,1,0.5,0,0.5,0,1","0.5,0,1,0.5,0,1,0,1,0.5","2","",""
"","html-keyboard-response","9","80005","0.0-9.0","3RWE2M8QWIWEZN9IZL6G04LOBM3N0E","A21QUJTIIAOX2W","37SDSEDIN9ORHL92Y0GV7TIFJ2X187","","null","<img src=""img/food3.png"" style=""width:200px; border:14px solid green;"">","null","","","","","","","","","",""
"","image-keyboard-response","10","80869","0.0-10.0","3RWE2M8QWIWEZN9IZL6G04LOBM3N0E","A21QUJTIIAOX2W","37SDSEDIN9ORHL92Y0GV7TIFJ2X187","","860.8000000119209","img/food5.png","74","862.9000000059605","1","1","2","1","1,0.5,0,1,0.5,0,0.5,0,1","0.5,0,1,0.5,0,1,0,1,0.5","2","",""
"","html-keyboard-response","11","81176","0.0-11.0","3RWE2M8QWIWEZN9IZL6G04LOBM3N0E","A21QUJTIIAOX2W","37SDSEDIN9ORHL92Y0GV7TIFJ2X187","","null","<img src=""img/food5.png"" style=""width:200px; border:14px solid green;"">","null","","","","","","","","","",""
"","image-keyboard-response","12","81910","0.0-12.0","3RWE2M8QWIWEZN9IZL6G04LOBM3N0E","A21QUJTIIAOX2W","37SDSEDIN9ORHL92Y0GV7TIFJ2X187","","731.8999999761581","img/food3.png","76","733.0999999940395","3","1","1","1","1,0.5,0,1,0.5,0,0.5,0,1","0.5,0,1,0.5,0,1,0,1,0.5","2","",""
"","html-keyboard-response","13","82215","0.0-13.0","3RWE2M8QWIWEZN9IZL6G04LOBM3N0E","A21QUJTIIAOX2W","37SDSEDIN9ORHL92Y0GV7TIFJ2X187","","null","<img src=""img/food3.png"" style=""width:200px; border:14px solid green;"">","null","","","","","","","","","",""
"","image-keyboard-response","14","82875","0.0-14.0","3RWE2M8QWIWEZN9IZL6G04LOBM3N0E","A21QUJTIIAOX2W","37SDSEDIN9ORHL92Y0GV7TIFJ2X187","","657.9000000059605","img/food5.png","74","659","1","1","2","1","1,0.5,0,1,0.5,0,0.5,0,1","0.5,0,1,0.5,0,1,0,1,0.5","2","",""
"","html-keyboard-response","15","83178","0.0-15.0","3RWE2M8QWIWEZN9IZL6G04LOBM3N0E","A21QUJTIIAOX2W","37SDSEDIN9ORHL92Y0GV7TIFJ2X187","","null","<img src=""img/food5.png"" style=""width:200px; border:14px solid green;"">","null","","","","","","","","","",""
"","image-keyboard-response","16","83802","0.0-16.0","3RWE2M8QWIWEZN9IZL6G04LOBM3N0E","A21QUJTIIAOX2W","37SDSEDIN9ORHL92Y0GV7TIFJ2X187","","621.1999999880791","img/food1.png","75","623","2","1","3","1","1,0.5,0,1,0.5,0,0.5,0,1","0.5,0,1,0.5,0,1,0,1,0.5","2","",""
"","html-keyboard-response","17","84106","0.0-17.0","3RWE2M8QWIWEZN9IZL6G04LOBM3N0E","A21QUJTIIAOX2W","37SDSEDIN9ORHL92Y0GV7TIFJ2X187","","null","<img src=""img/food1.png"" style=""width:200px; border:14px solid green;"">","null","","","","","","","","","",""
"","image-keyboard-response","18","84787","0.0-18.0","3RWE2M8QWIWEZN9IZL6G04LOBM3N0E","A21QUJTIIAOX2W","37SDSEDIN9ORHL92Y0GV7TIFJ2X187","","678.3000000119209","img/food3.png","76","680","3","1","1","1","1,0.5,0,1,0.5,0,0.5,0,1","0.5,0,1,0.5,0,1,0,1,0.5","2","",""
"","html-keyboard-response","19","85093","0.0-19.0","3RWE2M8QWIWEZN9IZL6G04LOBM3N0E","A21QUJTIIAOX2W","37SDSEDIN9ORHL92Y0GV7TIFJ2X187","","null","<img src=""img/food3.png"" style=""width:200px; border:14px solid green;"">","null","","","","","","","","","",""
"","image-keyboard-response","20","85847","0.0-20.0","3RWE2M8QWIWEZN9IZL6G04LOBM3N0E","A21QUJTIIAOX2W","37SDSEDIN9ORHL92Y0GV7TIFJ2X187","","753.9000000059605","img/food1.png","74","755","1","0","3","1","1,0.5,0,1,0.5,0,0.5,0,1","0.5,0,1,0.5,0,1,0,1,0.5","2","",""
"","html-keyboard-response","21","86155","0.0-21.0","3RWE2M8QWIWEZN9IZL6G04LOBM3N0E","A21QUJTIIAOX2W","37SDSEDIN9ORHL92Y0GV7TIFJ2X187","","null","<img src=""img/food1.png"" style=""width:200px;border:14px solid red;"">","null","","","","","","","","","",""
"","image-keyboard-response","22","86968","0.0-22.0","3RWE2M8QWIWEZN9IZL6G04LOBM3N0E","A21QUJTIIAOX2W","37SDSEDIN9ORHL92Y0GV7TIFJ2X187","","811.7999999821186","img/food3.png","76","813","3","1","1","1","1,0.5,0,1,0.5,0,0.5,0,1","0.5,0,1,0.5,0,1,0,1,0.5","2","",""
"","html-keyboard-response","23","87275","0.0-23.0","3RWE2M8QWIWEZN9IZL6G04LOBM3N0E","A21QUJTIIAOX2W","37SDSEDIN9ORHL92Y0GV7TIFJ2X187","","null","<img src=""img/food3.png"" style=""width:200px; border:14px solid green;"">","null","","","","","","","","","",""
"","image-keyboard-response","24","87960","0.0-24.0","3RWE2M8QWIWEZN9IZL6G04LOBM3N0E","A21QUJTIIAOX2W","37SDSEDIN9ORHL92Y0GV7TIFJ2X187","","683.3000000119209","img/food5.png","74","684.6999999880791","1","1","2","1","1,0.5,0,1,0.5,0,0.5,0,1","0.5,0,1,0.5,0,1,0,1,0.5","2","",""
"","html-keyboard-response","25","88267","0.0-25.0","3RWE2M8QWIWEZN9IZL6G04LOBM3N0E","A21QUJTIIAOX2W","37SDSEDIN9ORHL92Y0GV7TIFJ2X187","","null","<img src=""img/food5.png"" style=""width:200px; border:14px solid green;"">","null","","","","","","","","","",""
"","image-keyboard-response","26","88993","0.0-26.0","3RWE2M8QWIWEZN9IZL6G04LOBM3N0E","A21QUJTIIAOX2W","37SDSEDIN9ORHL92Y0GV7TIFJ2X187","","724.4000000059605","img/food5.png","74","725.5","1","1","2","1","1,0.5,0,1,0.5,0,0.5,0,1","0.5,0,1,0.5,0,1,0,1,0.5","2","",""
"","html-keyboard-response","27","89295","0.0-27.0","3RWE2M8QWIWEZN9IZL6G04LOBM3N0E","A21QUJTIIAOX2W","37SDSEDIN9ORHL92Y0GV7TIFJ2X187","","null","<img src=""img/food5.png"" style=""width:200px; border:14px solid green;"">","null","","","","","","","","","",""
"","image-keyboard-response","28","90099","0.0-28.0","3RWE2M8QWIWEZN9IZL6G04LOBM3N0E","A21QUJTIIAOX2W","37SDSEDIN9ORHL92Y0GV7TIFJ2X187","","802.2999999821186","img/food3.png","76","803.3999999761581","3","1","1","1","1,0.5,0,1,0.5,0,0.5,0,1","0.5,0,1,0.5,0,1,0,1,0.5","2","",""
"","html-keyboard-response","29","90406","0.0-29.0","3RWE2M8QWIWEZN9IZL6G04LOBM3N0E","A21QUJTIIAOX2W","37SDSEDIN9ORHL92Y0GV7TIFJ2X187","","null","<img src=""img/food3.png"" style=""width:200px; border:14px solid green;"">","null","","","","","","","","","",""
"","image-keyboard-response","30","91015","0.0-30.0","3RWE2M8QWIWEZN9IZL6G04LOBM3N0E","A21QUJTIIAOX2W","37SDSEDIN9ORHL92Y0GV7TIFJ2X187","","608.2000000178814","img/food5.png","74","609.2999999821186","1","1","2","1","1,0.5,0,1,0.5,0,0.5,0,1","0.5,0,1,0.5,0,1,0,1,0.5","2","",""
"","html-keyboard-response","31","91323","0.0-31.0","3RWE2M8QWIWEZN9IZL6G04LOBM3N0E","A21QUJTIIAOX2W","37SDSEDIN9ORHL92Y0GV7TIFJ2X187","","null","<img src=""img/food5.png"" style=""width:200px; border:14px solid green;"">","null","","","","","","","","","",""
"","image-keyboard-response","32","92446","0.0-32.0","3RWE2M8QWIWEZN9IZL6G04LOBM3N0E","A21QUJTIIAOX2W","37SDSEDIN9ORHL92Y0GV7TIFJ2X187","","1121.2000000178814","img/food3.png","74","1122.7999999821186","1","1","1","1","1,0.5,0,1,0.5,0,0.5,0,1","0.5,0,1,0.5,0,1,0,1,0.5","2","",""
"","html-keyboard-response","33","92751","0.0-33.0","3RWE2M8QWIWEZN9IZL6G04LOBM3N0E","A21QUJTIIAOX2W","37SDSEDIN9ORHL92Y0GV7TIFJ2X187","","null","<img src=""img/food3.png"" style=""width:200px; border:14px solid green;"">","null","","","","","","","","","",""
"","image-keyboard-response","34","93477","0.0-34.0","3RWE2M8QWIWEZN9IZL6G04LOBM3N0E","A21QUJTIIAOX2W","37SDSEDIN9ORHL92Y0GV7TIFJ2X187","","725.3000000119209","img/food1.png","75","726.0999999940395","2","1","3","1","1,0.5,0,1,0.5,0,0.5,0,1","0.5,0,1,0.5,0,1,0,1,0.5","2","",""
"","html-keyboard-response","35","93784","0.0-35.0","3RWE2M8QWIWEZN9IZL6G04LOBM3N0E","A21QUJTIIAOX2W","37SDSEDIN9ORHL92Y0GV7TIFJ2X187","","null","<img src=""img/food1.png"" style=""width:200px; border:14px solid green;"">","null","","","","","","","","","",""
"","image-keyboard-response","36","94470","0.0-36.0","3RWE2M8QWIWEZN9IZL6G04LOBM3N0E","A21QUJTIIAOX2W","37SDSEDIN9ORHL92Y0GV7TIFJ2X187","","685","img/food5.png","74","686.0999999940395","1","1","2","1","1,0.5,0,1,0.5,0,0.5,0,1","0.5,0,1,0.5,0,1,0,1,0.5","2","",""
"","html-keyboard-response","37","94779","0.0-37.0","3RWE2M8QWIWEZN9IZL6G04LOBM3N0E","A21QUJTIIAOX2W","37SDSEDIN9ORHL92Y0GV7TIFJ2X187","","null","<img src=""img/food5.png"" style=""width:200px; border:14px solid green;"">","null","","","","","","","","","",""
"","image-keyboard-response","38","95499","0.0-38.0","3RWE2M8QWIWEZN9IZL6G04LOBM3N0E","A21QUJTIIAOX2W","37SDSEDIN9ORHL92Y0GV7TIFJ2X187","","718.0999999940395","img/food1.png","75","719.9000000059605","2","1","3","1","1,0.5,0,1,0.5,0,0.5,0,1","0.5,0,1,0.5,0,1,0,1,0.5","2","",""
"","html-keyboard-response","39","95805","0.0-39.0","3RWE2M8QWIWEZN9IZL6G04LOBM3N0E","A21QUJTIIAOX2W","37SDSEDIN9ORHL92Y0GV7TIFJ2X187","","null","<img src=""img/food1.png"" style=""width:200px; border:14px solid green;"">","null","","","","","","","","","",""
"","image-keyboard-response","40","96687","0.0-40.0","3RWE2M8QWIWEZN9IZL6G04LOBM3N0E","A21QUJTIIAOX2W","37SDSEDIN9ORHL92Y0GV7TIFJ2X187","","880.5","img/food5.png","74","881.8000000119209","1","0","2","1","1,0.5,0,1,0.5,0,0.5,0,1","0.5,0,1,0.5,0,1,0,1,0.5","2","",""
"","html-keyboard-response","41","96991","0.0-41.0","3RWE2M8QWIWEZN9IZL6G04LOBM3N0E","A21QUJTIIAOX2W","37SDSEDIN9ORHL92Y0GV7TIFJ2X187","","null","<img src=""img/food5.png"" style=""width:200px;border:14px solid red;"">","null","","","","","","","","","",""
"","image-keyboard-response","42","97745","0.0-42.0","3RWE2M8QWIWEZN9IZL6G04LOBM3N0E","A21QUJTIIAOX2W","37SDSEDIN9ORHL92Y0GV7TIFJ2X187","","751.2999999821186","img/food3.png","76","752.9000000059605","3","1","1","1","1,0.5,0,1,0.5,0,0.5,0,1","0.5,0,1,0.5,0,1,0,1,0.5","2","",""
"","html-keyboard-response","43","98052","0.0-43.0","3RWE2M8QWIWEZN9IZL6G04LOBM3N0E","A21QUJTIIAOX2W","37SDSEDIN9ORHL92Y0GV7TIFJ2X187","","null","<img src=""img/food3.png"" style=""width:200px; border:14px solid green;"">","null","","","","","","","","","",""
"","image-keyboard-response","44","98712","0.0-44.0","3RWE2M8QWIWEZN9IZL6G04LOBM3N0E","A21QUJTIIAOX2W","37SDSEDIN9ORHL92Y0GV7TIFJ2X187","","659.2999999821186","img/food1.png","75","660.2000000178814","2","1","3","1","1,0.5,0,1,0.5,0,0.5,0,1","0.5,0,1,0.5,0,1,0,1,0.5","2","",""
"","html-keyboard-response","45","99020","0.0-45.0","3RWE2M8QWIWEZN9IZL6G04LOBM3N0E","A21QUJTIIAOX2W","37SDSEDIN9ORHL92Y0GV7TIFJ2X187","","null","<img src=""img/food1.png"" style=""width:200px; border:14px solid green;"">","null","","","","","","","","","",""
"","image-keyboard-response","46","99602","0.0-46.0","3RWE2M8QWIWEZN9IZL6G04LOBM3N0E","A21QUJTIIAOX2W","37SDSEDIN9ORHL92Y0GV7TIFJ2X187","","580.2000000178814","img/food5.png","74","582","1","1","2","1","1,0.5,0,1,0.5,0,0.5,0,1","0.5,0,1,0.5,0,1,0,1,0.5","2","",""
"","html-keyboard-response","47","99910","0.0-47.0","3RWE2M8QWIWEZN9IZL6G04LOBM3N0E","A21QUJTIIAOX2W","37SDSEDIN9ORHL92Y0GV7TIFJ2X187","","null","<img src=""img/food5.png"" style=""width:200px; border:14px solid green;"">","null","","","","","","","","","",""
"","image-keyboard-response","48","100544","0.0-48.0","3RWE2M8QWIWEZN9IZL6G04LOBM3N0E","A21QUJTIIAOX2W","37SDSEDIN9ORHL92Y0GV7TIFJ2X187","","632","img/food3.png","76","633.4000000059605","3","1","1","1","1,0.5,0,1,0.5,0,0.5,0,1","0.5,0,1,0.5,0,1,0,1,0.5","2","",""
"","html-keyboard-response","49","100847","0.0-49.0","3RWE2M8QWIWEZN9IZL6G04LOBM3N0E","A21QUJTIIAOX2W","37SDSEDIN9ORHL92Y0GV7TIFJ2X187","","null","<img src=""img/food3.png"" style=""width:200px; border:14px solid green;"">","null","","","","","","","","","",""
"","image-keyboard-response","50","101474","0.0-50.0","3RWE2M8QWIWEZN9IZL6G04LOBM3N0E","A21QUJTIIAOX2W","37SDSEDIN9ORHL92Y0GV7TIFJ2X187","","625.5","img/food1.png","75","626.5999999940395","2","1","3","1","1,0.5,0,1,0.5,0,0.5,0,1","0.5,0,1,0.5,0,1,0,1,0.5","2","",""
"","html-keyboard-response","51","101781","0.0-51.0","3RWE2M8QWIWEZN9IZL6G04LOBM3N0E","A21QUJTIIAOX2W","37SDSEDIN9ORHL92Y0GV7TIFJ2X187","","null","<img src=""img/food1.png"" style=""width:200px; border:14px solid green;"">","null","","","","","","","","","",""
"","image-keyboard-response","52","102847","0.0-52.0","3RWE2M8QWIWEZN9IZL6G04LOBM3N0E","A21QUJTIIAOX2W","37SDSEDIN9ORHL92Y0GV7TIFJ2X187","","1063.2000000178814","img/food3.png","76","1064.9000000059605","3","1","1","1","1,0.5,0,1,0.5,0,0.5,0,1","0.5,0,1,0.5,0,1,0,1,0.5","2","",""
"","html-keyboard-response","53","103154","0.0-53.0","3RWE2M8QWIWEZN9IZL6G04LOBM3N0E","A21QUJTIIAOX2W","37SDSEDIN9ORHL92Y0GV7TIFJ2X187","","null","<img src=""img/food3.png"" style=""width:200px; border:14px solid green;"">","null","","","","","","","","","",""
"","image-keyboard-response","54","104000","0.0-54.0","3RWE2M8QWIWEZN9IZL6G04LOBM3N0E","A21QUJTIIAOX2W","37SDSEDIN9ORHL92Y0GV7TIFJ2X187","","845.1999999880791","img/food1.png","75","845.6999999880791","2","1","3","1","1,0.5,0,1,0.5,0,0.5,0,1","0.5,0,1,0.5,0,1,0,1,0.5","2","",""
"","html-keyboard-response","55","104303","0.0-55.0","3RWE2M8QWIWEZN9IZL6G04LOBM3N0E","A21QUJTIIAOX2W","37SDSEDIN9ORHL92Y0GV7TIFJ2X187","","null","<img src=""img/food1.png"" style=""width:200px; border:14px solid green;"">","null","","","","","","","","","",""
"","image-keyboard-response","56","105702","0.0-56.0","3RWE2M8QWIWEZN9IZL6G04LOBM3N0E","A21QUJTIIAOX2W","37SDSEDIN9ORHL92Y0GV7TIFJ2X187","","1396.4000000059605","img/food1.png","75","1397.699999988079","2","1","3","1","1,0.5,0,1,0.5,0,0.5,0,1","0.5,0,1,0.5,0,1,0,1,0.5","2","",""
"","html-keyboard-response","57","106005","0.0-57.0","3RWE2M8QWIWEZN9IZL6G04LOBM3N0E","A21QUJTIIAOX2W","37SDSEDIN9ORHL92Y0GV7TIFJ2X187","","null","<img src=""img/food1.png"" style=""width:200px; border:14px solid green;"">","null","","","","","","","","","",""
"","image-keyboard-response","58","106616","0.0-58.0","3RWE2M8QWIWEZN9IZL6G04LOBM3N0E","A21QUJTIIAOX2W","37SDSEDIN9ORHL92Y0GV7TIFJ2X187","","609.0999999940395","img/food3.png","74","610.8000000119209","1","0","1","1","1,0.5,0,1,0.5,0,0.5,0,1","0.5,0,1,0.5,0,1,0,1,0.5","2","",""
"","html-keyboard-response","59","106922","0.0-59.0","3RWE2M8QWIWEZN9IZL6G04LOBM3N0E","A21QUJTIIAOX2W","37SDSEDIN9ORHL92Y0GV7TIFJ2X187","","null","<img src=""img/food3.png"" style=""width:200px;border:14px solid red;"">","null","","","","","","","","","",""
"","image-keyboard-response","60","107002","0.0-60.0","3RWE2M8QWIWEZN9IZL6G04LOBM3N0E","A21QUJTIIAOX2W","37SDSEDIN9ORHL92Y0GV7TIFJ2X187","","79","img/food1.png","76","80.09999999403954","3","0","3","1","1,0.5,0,1,0.5,0,0.5,0,1","0.5,0,1,0.5,0,1,0,1,0.5","2","",""
"","html-keyboard-response","61","107305","0.0-61.0","3RWE2M8QWIWEZN9IZL6G04LOBM3N0E","A21QUJTIIAOX2W","37SDSEDIN9ORHL92Y0GV7TIFJ2X187","","null","<img src=""img/food1.png"" style=""width:200px;border:14px solid red;"">","null","","","","","","","","","",""
"","image-keyboard-response","62","107872","0.0-62.0","3RWE2M8QWIWEZN9IZL6G04LOBM3N0E","A21QUJTIIAOX2W","37SDSEDIN9ORHL92Y0GV7TIFJ2X187","","565.8000000119209","img/food1.png","75","566.9000000059605","2","1","3","1","1,0.5,0,1,0.5,0,0.5,0,1","0.5,0,1,0.5,0,1,0,1,0.5","2","",""
"","html-keyboard-response","63","108180","0.0-63.0","3RWE2M8QWIWEZN9IZL6G04LOBM3N0E","A21QUJTIIAOX2W","37SDSEDIN9ORHL92Y0GV7TIFJ2X187","","null","<img src=""img/food1.png"" style=""width:200px; border:14px solid green;"">","null","","","","","","","","","",""
"","image-keyboard-response","64","108911","0.0-64.0","3RWE2M8QWIWEZN9IZL6G04LOBM3N0E","A21QUJTIIAOX2W","37SDSEDIN9ORHL92Y0GV7TIFJ2X187","","729.8000000119209","img/food3.png","76","730.6999999880791","3","1","1","1","1,0.5,0,1,0.5,0,0.5,0,1","0.5,0,1,0.5,0,1,0,1,0.5","2","",""
"","html-keyboard-response","65","109218","0.0-65.0","3RWE2M8QWIWEZN9IZL6G04LOBM3N0E","A21QUJTIIAOX2W","37SDSEDIN9ORHL92Y0GV7TIFJ2X187","","null","<img src=""img/food3.png"" style=""width:200px; border:14px solid green;"">","null","","","","","","","","","",""
"","image-keyboard-response","66","110623","0.0-66.0","3RWE2M8QWIWEZN9IZL6G04LOBM3N0E","A21QUJTIIAOX2W","37SDSEDIN9ORHL92Y0GV7TIFJ2X187","","1402.800000011921","img/food3.png","76","1404.5999999940395","3","1","1","1","1,0.5,0,1,0.5,0,0.5,0,1","0.5,0,1,0.5,0,1,0,1,0.5","2","",""
"","html-keyboard-response","67","110928","0.0-67.0","3RWE2M8QWIWEZN9IZL6G04LOBM3N0E","A21QUJTIIAOX2W","37SDSEDIN9ORHL92Y0GV7TIFJ2X187","","null","<img src=""img/food3.png"" style=""width:200px; border:14px solid green;"">","null","","","","","","","","","",""
"","image-keyboard-response","68","111972","0.0-68.0","3RWE2M8QWIWEZN9IZL6G04LOBM3N0E","A21QUJTIIAOX2W","37SDSEDIN9ORHL92Y0GV7TIFJ2X187","","1043.1000000238419","img/food5.png","74","1044.0999999940395","1","1","2","1","1,0.5,0,1,0.5,0,0.5,0,1","0.5,0,1,0.5,0,1,0,1,0.5","2","",""
"","html-keyboard-response","69","112277","0.0-69.0","3RWE2M8QWIWEZN9IZL6G04LOBM3N0E","A21QUJTIIAOX2W","37SDSEDIN9ORHL92Y0GV7TIFJ2X187","","null","<img src=""img/food5.png"" style=""width:200px; border:14px solid green;"">","null","","","","","","","","","",""
"","image-keyboard-response","70","113109","0.0-70.0","3RWE2M8QWIWEZN9IZL6G04LOBM3N0E","A21QUJTIIAOX2W","37SDSEDIN9ORHL92Y0GV7TIFJ2X187","","830.5","img/food3.png","76","832.1999999880791","3","1","1","1","1,0.5,0,1,0.5,0,0.5,0,1","0.5,0,1,0.5,0,1,0,1,0.5","2","",""
"","html-keyboard-response","71","113415","0.0-71.0","3RWE2M8QWIWEZN9IZL6G04LOBM3N0E","A21QUJTIIAOX2W","37SDSEDIN9ORHL92Y0GV7TIFJ2X187","","null","<img src=""img/food3.png"" style=""width:200px; border:14px solid green;"">","null","","","","","","","","","",""
"","image-keyboard-response","72","115118","0.0-72.0","3RWE2M8QWIWEZN9IZL6G04LOBM3N0E","A21QUJTIIAOX2W","37SDSEDIN9ORHL92Y0GV7TIFJ2X187","","1701.4000000059605","img/food5.png","75","1702.5999999940395","2","0","2","1","1,0.5,0,1,0.5,0,0.5,0,1","0.5,0,1,0.5,0,1,0,1,0.5","2","",""
"","html-keyboard-response","73","115424","0.0-73.0","3RWE2M8QWIWEZN9IZL6G04LOBM3N0E","A21QUJTIIAOX2W","37SDSEDIN9ORHL92Y0GV7TIFJ2X187","","null","<img src=""img/food5.png"" style=""width:200px;border:14px solid red;"">","null","","","","","","","","","",""
"","image-keyboard-response","74","116034","0.0-74.0","3RWE2M8QWIWEZN9IZL6G04LOBM3N0E","A21QUJTIIAOX2W","37SDSEDIN9ORHL92Y0GV7TIFJ2X187","","608","img/food5.png","74","609.1999999880791","1","0","2","1","1,0.5,0,1,0.5,0,0.5,0,1","0.5,0,1,0.5,0,1,0,1,0.5","2","",""
"","html-keyboard-response","75","116340","0.0-75.0","3RWE2M8QWIWEZN9IZL6G04LOBM3N0E","A21QUJTIIAOX2W","37SDSEDIN9ORHL92Y0GV7TIFJ2X187","","null","<img src=""img/food5.png"" style=""width:200px;border:14px solid red;"">","null","","","","","","","","","",""
"","image-keyboard-response","76","117983","0.0-76.0","3RWE2M8QWIWEZN9IZL6G04LOBM3N0E","A21QUJTIIAOX2W","37SDSEDIN9ORHL92Y0GV7TIFJ2X187","","1642.2000000178814","img/food5.png","74","1643","1","1","2","1","1,0.5,0,1,0.5,0,0.5,0,1","0.5,0,1,0.5,0,1,0,1,0.5","2","",""
"","html-keyboard-response","77","118287","0.0-77.0","3RWE2M8QWIWEZN9IZL6G04LOBM3N0E","A21QUJTIIAOX2W","37SDSEDIN9ORHL92Y0GV7TIFJ2X187","","null","<img src=""img/food5.png"" style=""width:200px; border:14px solid green;"">","null","","","","","","","","","",""
"","image-keyboard-response","78","119179","0.0-78.0","3RWE2M8QWIWEZN9IZL6G04LOBM3N0E","A21QUJTIIAOX2W","37SDSEDIN9ORHL92Y0GV7TIFJ2X187","","889.4000000059605","img/food1.png","75","891.1999999880791","2","1","3","1","1,0.5,0,1,0.5,0,0.5,0,1","0.5,0,1,0.5,0,1,0,1,0.5","2","",""
"","html-keyboard-response","79","119482","0.0-79.0","3RWE2M8QWIWEZN9IZL6G04LOBM3N0E","A21QUJTIIAOX2W","37SDSEDIN9ORHL92Y0GV7TIFJ2X187","","null","<img src=""img/food1.png"" style=""width:200px; border:14px solid green;"">","null","","","","","","","","","",""
"","image-keyboard-response","80","120702","0.0-80.0","3RWE2M8QWIWEZN9IZL6G04LOBM3N0E","A21QUJTIIAOX2W","37SDSEDIN9ORHL92Y0GV7TIFJ2X187","","1217.7000000178814","img/food5.png","74","1219.4000000059605","1","0","2","1","1,0.5,0,1,0.5,0,0.5,0,1","0.5,0,1,0.5,0,1,0,1,0.5","2","",""
"","html-keyboard-response","81","121009","0.0-81.0","3RWE2M8QWIWEZN9IZL6G04LOBM3N0E","A21QUJTIIAOX2W","37SDSEDIN9ORHL92Y0GV7TIFJ2X187","","null","<img src=""img/food5.png"" style=""width:200px;border:14px solid red;"">","null","","","","","","","","","",""
"","image-keyboard-response","82","121872","0.0-82.0","3RWE2M8QWIWEZN9IZL6G04LOBM3N0E","A21QUJTIIAOX2W","37SDSEDIN9ORHL92Y0GV7TIFJ2X187","","860.2999999821186","img/food1.png","75","862.3000000119209","2","1","3","1","1,0.5,0,1,0.5,0,0.5,0,1","0.5,0,1,0.5,0,1,0,1,0.5","2","",""
"","html-keyboard-response","83","122180","0.0-83.0","3RWE2M8QWIWEZN9IZL6G04LOBM3N0E","A21QUJTIIAOX2W","37SDSEDIN9ORHL92Y0GV7TIFJ2X187","","null","<img src=""img/food1.png"" style=""width:200px; border:14px solid green;"">","null","","","","","","","","","",""
"","image-keyboard-response","84","122913","0.0-84.0","3RWE2M8QWIWEZN9IZL6G04LOBM3N0E","A21QUJTIIAOX2W","37SDSEDIN9ORHL92Y0GV7TIFJ2X187","","732.0999999940395","img/food5.png","74","733.2000000178814","1","1","2","1","1,0.5,0,1,0.5,0,0.5,0,1","0.5,0,1,0.5,0,1,0,1,0.5","2","",""
"","html-keyboard-response","85","123219","0.0-85.0","3RWE2M8QWIWEZN9IZL6G04LOBM3N0E","A21QUJTIIAOX2W","37SDSEDIN9ORHL92Y0GV7TIFJ2X187","","null","<img src=""img/food5.png"" style=""width:200px; border:14px solid green;"">","null","","","","","","","","","",""
"","image-keyboard-response","86","124679","0.0-86.0","3RWE2M8QWIWEZN9IZL6G04LOBM3N0E","A21QUJTIIAOX2W","37SDSEDIN9ORHL92Y0GV7TIFJ2X187","","1457.6000000238419","img/food1.png","75","1459.300000011921","2","1","3","1","1,0.5,0,1,0.5,0,0.5,0,1","0.5,0,1,0.5,0,1,0,1,0.5","2","",""
"","html-keyboard-response","87","124982","0.0-87.0","3RWE2M8QWIWEZN9IZL6G04LOBM3N0E","A21QUJTIIAOX2W","37SDSEDIN9ORHL92Y0GV7TIFJ2X187","","null","<img src=""img/food1.png"" style=""width:200px; border:14px solid green;"">","null","","","","","","","","","",""
"","image-keyboard-response","88","126036","0.0-88.0","3RWE2M8QWIWEZN9IZL6G04LOBM3N0E","A21QUJTIIAOX2W","37SDSEDIN9ORHL92Y0GV7TIFJ2X187","","1052.4000000059605","img/food1.png","75","1053.5999999940395","2","1","3","1","1,0.5,0,1,0.5,0,0.5,0,1","0.5,0,1,0.5,0,1,0,1,0.5","2","",""
"","html-keyboard-response","89","126340","0.0-89.0","3RWE2M8QWIWEZN9IZL6G04LOBM3N0E","A21QUJTIIAOX2W","37SDSEDIN9ORHL92Y0GV7TIFJ2X187","","null","<img src=""img/food1.png"" style=""width:200px; border:14px solid green;"">","null","","","","","","","","","",""
"","image-keyboard-response","90","126971","0.0-90.0","3RWE2M8QWIWEZN9IZL6G04LOBM3N0E","A21QUJTIIAOX2W","37SDSEDIN9ORHL92Y0GV7TIFJ2X187","","628.7999999821186","img/food5.png","74","630.1999999880791","1","0","2","1","1,0.5,0,1,0.5,0,0.5,0,1","0.5,0,1,0.5,0,1,0,1,0.5","2","",""
"","html-keyboard-response","91","127274","0.0-91.0","3RWE2M8QWIWEZN9IZL6G04LOBM3N0E","A21QUJTIIAOX2W","37SDSEDIN9ORHL92Y0GV7TIFJ2X187","","null","<img src=""img/food5.png"" style=""width:200px;border:14px solid red;"">","null","","","","","","","","","",""
"","image-keyboard-response","92","128804","0.0-92.0","3RWE2M8QWIWEZN9IZL6G04LOBM3N0E","A21QUJTIIAOX2W","37SDSEDIN9ORHL92Y0GV7TIFJ2X187","","1528.699999988079","img/food3.png","76","1529.800000011921","3","1","1","1","1,0.5,0,1,0.5,0,0.5,0,1","0.5,0,1,0.5,0,1,0,1,0.5","2","",""
"","html-keyboard-response","93","129111","0.0-93.0","3RWE2M8QWIWEZN9IZL6G04LOBM3N0E","A21QUJTIIAOX2W","37SDSEDIN9ORHL92Y0GV7TIFJ2X187","","null","<img src=""img/food3.png"" style=""width:200px; border:14px solid green;"">","null","","","","","","","","","",""
"","image-keyboard-response","94","129932","0.0-94.0","3RWE2M8QWIWEZN9IZL6G04LOBM3N0E","A21QUJTIIAOX2W","37SDSEDIN9ORHL92Y0GV7TIFJ2X187","","818.1999999880791","img/food5.png","74","820","1","0","2","1","1,0.5,0,1,0.5,0,0.5,0,1","0.5,0,1,0.5,0,1,0,1,0.5","2","",""
"","html-keyboard-response","95","130239","0.0-95.0","3RWE2M8QWIWEZN9IZL6G04LOBM3N0E","A21QUJTIIAOX2W","37SDSEDIN9ORHL92Y0GV7TIFJ2X187","","null","<img src=""img/food5.png"" style=""width:200px;border:14px solid red;"">","null","","","","","","","","","",""
"","image-keyboard-response","96","130972","0.0-96.0","3RWE2M8QWIWEZN9IZL6G04LOBM3N0E","A21QUJTIIAOX2W","37SDSEDIN9ORHL92Y0GV7TIFJ2X187","","731.4000000059605","img/food3.png","76","732.8000000119209","3","1","1","1","1,0.5,0,1,0.5,0,0.5,0,1","0.5,0,1,0.5,0,1,0,1,0.5","2","",""
"","html-keyboard-response","97","131278","0.0-97.0","3RWE2M8QWIWEZN9IZL6G04LOBM3N0E","A21QUJTIIAOX2W","37SDSEDIN9ORHL92Y0GV7TIFJ2X187","","null","<img src=""img/food3.png"" style=""width:200px; border:14px solid green;"">","null","","","","","","","","","",""
"","image-keyboard-response","98","131741","0.0-98.0","3RWE2M8QWIWEZN9IZL6G04LOBM3N0E","A21QUJTIIAOX2W","37SDSEDIN9ORHL92Y0GV7TIFJ2X187","","460.5","img/food5.png","74","462.09999999403954","1","0","2","1","1,0.5,0,1,0.5,0,0.5,0,1","0.5,0,1,0.5,0,1,0,1,0.5","2","",""
"","html-keyboard-response","99","132048","0.0-99.0","3RWE2M8QWIWEZN9IZL6G04LOBM3N0E","A21QUJTIIAOX2W","37SDSEDIN9ORHL92Y0GV7TIFJ2X187","","null","<img src=""img/food5.png"" style=""width:200px;border:14px solid red;"">","null","","","","","","","","","",""
"","image-keyboard-response","100","132635","0.0-100.0","3RWE2M8QWIWEZN9IZL6G04LOBM3N0E","A21QUJTIIAOX2W","37SDSEDIN9ORHL92Y0GV7TIFJ2X187","","584.4000000059605","img/food1.png","75","585.6999999880791","2","1","3","1","1,0.5,0,1,0.5,0,0.5,0,1","0.5,0,1,0.5,0,1,0,1,0.5","2","",""
"","html-keyboard-response","101","132941","0.0-101.0","3RWE2M8QWIWEZN9IZL6G04LOBM3N0E","A21QUJTIIAOX2W","37SDSEDIN9ORHL92Y0GV7TIFJ2X187","","null","<img src=""img/food1.png"" style=""width:200px; border:14px solid green;"">","null","","","","","","","","","",""
"","image-keyboard-response","102","133559","0.0-102.0","3RWE2M8QWIWEZN9IZL6G04LOBM3N0E","A21QUJTIIAOX2W","37SDSEDIN9ORHL92Y0GV7TIFJ2X187","","615.8999999761581","img/food1.png","75","617.2000000178814","2","1","3","1","1,0.5,0,1,0.5,0,0.5,0,1","0.5,0,1,0.5,0,1,0,1,0.5","2","",""
"","html-keyboard-response","103","133865","0.0-103.0","3RWE2M8QWIWEZN9IZL6G04LOBM3N0E","A21QUJTIIAOX2W","37SDSEDIN9ORHL92Y0GV7TIFJ2X187","","null","<img src=""img/food1.png"" style=""width:200px; border:14px solid green;"">","null","","","","","","","","","",""
"","image-keyboard-response","104","134396","0.0-104.0","3RWE2M8QWIWEZN9IZL6G04LOBM3N0E","A21QUJTIIAOX2W","37SDSEDIN9ORHL92Y0GV7TIFJ2X187","","528.4000000059605","img/food3.png","76","530.2999999821186","3","1","1","1","1,0.5,0,1,0.5,0,0.5,0,1","0.5,0,1,0.5,0,1,0,1,0.5","2","",""
"","html-keyboard-response","105","134704","0.0-105.0","3RWE2M8QWIWEZN9IZL6G04LOBM3N0E","A21QUJTIIAOX2W","37SDSEDIN9ORHL92Y0GV7TIFJ2X187","","null","<img src=""img/food3.png"" style=""width:200px; border:14px solid green;"">","null","","","","","","","","","",""
"","image-keyboard-response","106","135306","0.0-106.0","3RWE2M8QWIWEZN9IZL6G04LOBM3N0E","A21QUJTIIAOX2W","37SDSEDIN9ORHL92Y0GV7TIFJ2X187","","600.5","img/food1.png","75","601.9000000059605","2","1","3","1","1,0.5,0,1,0.5,0,0.5,0,1","0.5,0,1,0.5,0,1,0,1,0.5","2","",""
"","html-keyboard-response","107","135613","0.0-107.0","3RWE2M8QWIWEZN9IZL6G04LOBM3N0E","A21QUJTIIAOX2W","37SDSEDIN9ORHL92Y0GV7TIFJ2X187","","null","<img src=""img/food1.png"" style=""width:200px; border:14px solid green;"">","null","","","","","","","","","",""
"","image-keyboard-response","108","136539","0.0-108.0","3RWE2M8QWIWEZN9IZL6G04LOBM3N0E","A21QUJTIIAOX2W","37SDSEDIN9ORHL92Y0GV7TIFJ2X187","","924.6999999880791","img/food1.png","75","925.9000000059605","2","1","3","1","1,0.5,0,1,0.5,0,0.5,0,1","0.5,0,1,0.5,0,1,0,1,0.5","2","",""
"","html-keyboard-response","109","136842","0.0-109.0","3RWE2M8QWIWEZN9IZL6G04LOBM3N0E","A21QUJTIIAOX2W","37SDSEDIN9ORHL92Y0GV7TIFJ2X187","","null","<img src=""img/food1.png"" style=""width:200px; border:14px solid green;"">","null","","","","","","","","","",""
"","image-keyboard-response","110","137487","0.0-110.0","3RWE2M8QWIWEZN9IZL6G04LOBM3N0E","A21QUJTIIAOX2W","37SDSEDIN9ORHL92Y0GV7TIFJ2X187","","642.2999999821186","img/food3.png","76","644.2000000178814","3","1","1","1","1,0.5,0,1,0.5,0,0.5,0,1","0.5,0,1,0.5,0,1,0,1,0.5","2","",""
"","html-keyboard-response","111","137790","0.0-111.0","3RWE2M8QWIWEZN9IZL6G04LOBM3N0E","A21QUJTIIAOX2W","37SDSEDIN9ORHL92Y0GV7TIFJ2X187","","null","<img src=""img/food3.png"" style=""width:200px; border:14px solid green;"">","null","","","","","","","","","",""
"","image-keyboard-response","112","138347","0.0-112.0","3RWE2M8QWIWEZN9IZL6G04LOBM3N0E","A21QUJTIIAOX2W","37SDSEDIN9ORHL92Y0GV7TIFJ2X187","","555.2999999821186","img/food5.png","74","556.3999999761581","1","0","2","1","1,0.5,0,1,0.5,0,0.5,0,1","0.5,0,1,0.5,0,1,0,1,0.5","2","",""
"","html-keyboard-response","113","138653","0.0-113.0","3RWE2M8QWIWEZN9IZL6G04LOBM3N0E","A21QUJTIIAOX2W","37SDSEDIN9ORHL92Y0GV7TIFJ2X187","","null","<img src=""img/food5.png"" style=""width:200px;border:14px solid red;"">","null","","","","","","","","","",""
"","image-keyboard-response","114","139368","0.0-114.0","3RWE2M8QWIWEZN9IZL6G04LOBM3N0E","A21QUJTIIAOX2W","37SDSEDIN9ORHL92Y0GV7TIFJ2X187","","714","img/food3.png","76","715.1999999880791","3","1","1","1","1,0.5,0,1,0.5,0,0.5,0,1","0.5,0,1,0.5,0,1,0,1,0.5","2","",""
"","html-keyboard-response","115","139677","0.0-115.0","3RWE2M8QWIWEZN9IZL6G04LOBM3N0E","A21QUJTIIAOX2W","37SDSEDIN9ORHL92Y0GV7TIFJ2X187","","null","<img src=""img/food3.png"" style=""width:200px; border:14px solid green;"">","null","","","","","","","","","",""
"","image-keyboard-response","116","140312","0.0-116.0","3RWE2M8QWIWEZN9IZL6G04LOBM3N0E","A21QUJTIIAOX2W","37SDSEDIN9ORHL92Y0GV7TIFJ2X187","","633.8000000119209","img/food5.png","74","635.1000000238419","1","1","2","1","1,0.5,0,1,0.5,0,0.5,0,1","0.5,0,1,0.5,0,1,0,1,0.5","2","",""
"","html-keyboard-response","117","140620","0.0-117.0","3RWE2M8QWIWEZN9IZL6G04LOBM3N0E","A21QUJTIIAOX2W","37SDSEDIN9ORHL92Y0GV7TIFJ2X187","","null","<img src=""img/food5.png"" style=""width:200px; border:14px solid green;"">","null","","","","","","","","","",""
"","image-keyboard-response","118","141279","0.0-118.0","3RWE2M8QWIWEZN9IZL6G04LOBM3N0E","A21QUJTIIAOX2W","37SDSEDIN9ORHL92Y0GV7TIFJ2X187","","657.5","img/food1.png","75","658.9000000059605","2","1","3","1","1,0.5,0,1,0.5,0,0.5,0,1","0.5,0,1,0.5,0,1,0,1,0.5","2","",""
"","html-keyboard-response","119","141586","0.0-119.0","3RWE2M8QWIWEZN9IZL6G04LOBM3N0E","A21QUJTIIAOX2W","37SDSEDIN9ORHL92Y0GV7TIFJ2X187","","null","<img src=""img/food1.png"" style=""width:200px; border:14px solid green;"">","null","","","","","","","","","",""
"","image-keyboard-response","120","144375","0.0-120.0","3RWE2M8QWIWEZN9IZL6G04LOBM3N0E","A21QUJTIIAOX2W","37SDSEDIN9ORHL92Y0GV7TIFJ2X187","","2786.800000011921","img/food5.png","74","2788","1","1","2","1","1,0.5,0,1,0.5,0,0.5,0,1","0.5,0,1,0.5,0,1,0,1,0.5","2","",""
"","html-keyboard-response","121","144681","0.0-121.0","3RWE2M8QWIWEZN9IZL6G04LOBM3N0E","A21QUJTIIAOX2W","37SDSEDIN9ORHL92Y0GV7TIFJ2X187","","null","<img src=""img/food5.png"" style=""width:200px; border:14px solid green;"">","null","","","","","","","","","",""
"","image-keyboard-response","122","145596","0.0-122.0","3RWE2M8QWIWEZN9IZL6G04LOBM3N0E","A21QUJTIIAOX2W","37SDSEDIN9ORHL92Y0GV7TIFJ2X187","","914.4000000059605","img/food3.png","76","915.0999999940395","3","1","1","1","1,0.5,0,1,0.5,0,0.5,0,1","0.5,0,1,0.5,0,1,0,1,0.5","2","",""
"","html-keyboard-response","123","145902","0.0-123.0","3RWE2M8QWIWEZN9IZL6G04LOBM3N0E","A21QUJTIIAOX2W","37SDSEDIN9ORHL92Y0GV7TIFJ2X187","","null","<img src=""img/food3.png"" style=""width:200px; border:14px solid green;"">","null","","","","","","","","","",""
"","image-keyboard-response","124","147833","0.0-124.0","3RWE2M8QWIWEZN9IZL6G04LOBM3N0E","A21QUJTIIAOX2W","37SDSEDIN9ORHL92Y0GV7TIFJ2X187","","1929.800000011921","img/food3.png","76","1930.699999988079","3","1","1","1","1,0.5,0,1,0.5,0,0.5,0,1","0.5,0,1,0.5,0,1,0,1,0.5","2","",""
"","html-keyboard-response","125","148140","0.0-125.0","3RWE2M8QWIWEZN9IZL6G04LOBM3N0E","A21QUJTIIAOX2W","37SDSEDIN9ORHL92Y0GV7TIFJ2X187","","null","<img src=""img/food3.png"" style=""width:200px; border:14px solid green;"">","null","","","","","","","","","",""
"","image-keyboard-response","126","148736","0.0-126.0","3RWE2M8QWIWEZN9IZL6G04LOBM3N0E","A21QUJTIIAOX2W","37SDSEDIN9ORHL92Y0GV7TIFJ2X187","","595.3000000119209","img/food5.png","74","596.1999999880791","1","0","2","1","1,0.5,0,1,0.5,0,0.5,0,1","0.5,0,1,0.5,0,1,0,1,0.5","2","",""
"","html-keyboard-response","127","149040","0.0-127.0","3RWE2M8QWIWEZN9IZL6G04LOBM3N0E","A21QUJTIIAOX2W","37SDSEDIN9ORHL92Y0GV7TIFJ2X187","","null","<img src=""img/food5.png"" style=""width:200px;border:14px solid red;"">","null","","","","","","","","","",""
"","image-keyboard-response","128","149684","0.0-128.0","3RWE2M8QWIWEZN9IZL6G04LOBM3N0E","A21QUJTIIAOX2W","37SDSEDIN9ORHL92Y0GV7TIFJ2X187","","641.2000000178814","img/food1.png","75","643.0999999940395","2","1","3","1","1,0.5,0,1,0.5,0,0.5,0,1","0.5,0,1,0.5,0,1,0,1,0.5","2","",""
"","html-keyboard-response","129","149992","0.0-129.0","3RWE2M8QWIWEZN9IZL6G04LOBM3N0E","A21QUJTIIAOX2W","37SDSEDIN9ORHL92Y0GV7TIFJ2X187","","null","<img src=""img/food1.png"" style=""width:200px; border:14px solid green;"">","null","","","","","","","","","",""
"","image-keyboard-response","130","150924","0.0-130.0","3RWE2M8QWIWEZN9IZL6G04LOBM3N0E","A21QUJTIIAOX2W","37SDSEDIN9ORHL92Y0GV7TIFJ2X187","","931","img/food1.png","75","932.2999999821186","2","1","3","1","1,0.5,0,1,0.5,0,0.5,0,1","0.5,0,1,0.5,0,1,0,1,0.5","2","",""
"","html-keyboard-response","131","151230","0.0-131.0","3RWE2M8QWIWEZN9IZL6G04LOBM3N0E","A21QUJTIIAOX2W","37SDSEDIN9ORHL92Y0GV7TIFJ2X187","","null","<img src=""img/food1.png"" style=""width:200px; border:14px solid green;"">","null","","","","","","","","","",""
"","image-keyboard-response","132","151742","0.0-132.0","3RWE2M8QWIWEZN9IZL6G04LOBM3N0E","A21QUJTIIAOX2W","37SDSEDIN9ORHL92Y0GV7TIFJ2X187","","511.19999998807907","img/food5.png","74","512.3000000119209","1","1","2","1","1,0.5,0,1,0.5,0,0.5,0,1","0.5,0,1,0.5,0,1,0,1,0.5","2","",""
"","html-keyboard-response","133","152051","0.0-133.0","3RWE2M8QWIWEZN9IZL6G04LOBM3N0E","A21QUJTIIAOX2W","37SDSEDIN9ORHL92Y0GV7TIFJ2X187","","null","<img src=""img/food5.png"" style=""width:200px; border:14px solid green;"">","null","","","","","","","","","",""
"","image-keyboard-response","134","152581","0.0-134.0","3RWE2M8QWIWEZN9IZL6G04LOBM3N0E","A21QUJTIIAOX2W","37SDSEDIN9ORHL92Y0GV7TIFJ2X187","","528.2999999821186","img/food1.png","75","529.5","2","1","3","1","1,0.5,0,1,0.5,0,0.5,0,1","0.5,0,1,0.5,0,1,0,1,0.5","2","",""
"","html-keyboard-response","135","152888","0.0-135.0","3RWE2M8QWIWEZN9IZL6G04LOBM3N0E","A21QUJTIIAOX2W","37SDSEDIN9ORHL92Y0GV7TIFJ2X187","","null","<img src=""img/food1.png"" style=""width:200px; border:14px solid green;"">","null","","","","","","","","","",""
"","image-keyboard-response","136","153774","0.0-136.0","3RWE2M8QWIWEZN9IZL6G04LOBM3N0E","A21QUJTIIAOX2W","37SDSEDIN9ORHL92Y0GV7TIFJ2X187","","884.3000000119209","img/food3.png","75","885.5999999940395","2","0","1","1","1,0.5,0,1,0.5,0,0.5,0,1","0.5,0,1,0.5,0,1,0,1,0.5","2","",""
"","html-keyboard-response","137","154080","0.0-137.0","3RWE2M8QWIWEZN9IZL6G04LOBM3N0E","A21QUJTIIAOX2W","37SDSEDIN9ORHL92Y0GV7TIFJ2X187","","null","<img src=""img/food3.png"" style=""width:200px;border:14px solid red;"">","null","","","","","","","","","",""
"","image-keyboard-response","138","155290","0.0-138.0","3RWE2M8QWIWEZN9IZL6G04LOBM3N0E","A21QUJTIIAOX2W","37SDSEDIN9ORHL92Y0GV7TIFJ2X187","","1208.699999988079","img/food5.png","74","1209.9000000059605","1","0","2","1","1,0.5,0,1,0.5,0,0.5,0,1","0.5,0,1,0.5,0,1,0,1,0.5","2","",""
"","html-keyboard-response","139","155597","0.0-139.0","3RWE2M8QWIWEZN9IZL6G04LOBM3N0E","A21QUJTIIAOX2W","37SDSEDIN9ORHL92Y0GV7TIFJ2X187","","null","<img src=""img/food5.png"" style=""width:200px;border:14px solid red;"">","null","","","","","","","","","",""
"","image-keyboard-response","140","156134","0.0-140.0","3RWE2M8QWIWEZN9IZL6G04LOBM3N0E","A21QUJTIIAOX2W","37SDSEDIN9ORHL92Y0GV7TIFJ2X187","","534.0999999940395","img/food3.png","76","535.8999999761581","3","1","1","1","1,0.5,0,1,0.5,0,0.5,0,1","0.5,0,1,0.5,0,1,0,1,0.5","2","",""
"","html-keyboard-response","141","156441","0.0-141.0","3RWE2M8QWIWEZN9IZL6G04LOBM3N0E","A21QUJTIIAOX2W","37SDSEDIN9ORHL92Y0GV7TIFJ2X187","","null","<img src=""img/food3.png"" style=""width:200px; border:14px solid green;"">","null","","","","","","","","","",""
"","image-keyboard-response","142","157118","0.0-142.0","3RWE2M8QWIWEZN9IZL6G04LOBM3N0E","A21QUJTIIAOX2W","37SDSEDIN9ORHL92Y0GV7TIFJ2X187","","674.5999999940395","img/food5.png","74","676.3999999761581","1","0","2","1","1,0.5,0,1,0.5,0,0.5,0,1","0.5,0,1,0.5,0,1,0,1,0.5","2","",""
"","html-keyboard-response","143","157425","0.0-143.0","3RWE2M8QWIWEZN9IZL6G04LOBM3N0E","A21QUJTIIAOX2W","37SDSEDIN9ORHL92Y0GV7TIFJ2X187","","null","<img src=""img/food5.png"" style=""width:200px;border:14px solid red;"">","null","","","","","","","","","",""
"","image-keyboard-response","144","158105","0.0-144.0","3RWE2M8QWIWEZN9IZL6G04LOBM3N0E","A21QUJTIIAOX2W","37SDSEDIN9ORHL92Y0GV7TIFJ2X187","","677.5999999940395","img/food3.png","76","679.6000000238419","3","1","1","1","1,0.5,0,1,0.5,0,0.5,0,1","0.5,0,1,0.5,0,1,0,1,0.5","2","",""
"","html-keyboard-response","145","158409","0.0-145.0","3RWE2M8QWIWEZN9IZL6G04LOBM3N0E","A21QUJTIIAOX2W","37SDSEDIN9ORHL92Y0GV7TIFJ2X187","","null","<img src=""img/food3.png"" style=""width:200px; border:14px solid green;"">","null","","","","","","","","","",""
"","image-keyboard-response","146","159153","0.0-146.0","3RWE2M8QWIWEZN9IZL6G04LOBM3N0E","A21QUJTIIAOX2W","37SDSEDIN9ORHL92Y0GV7TIFJ2X187","","744","img/food3.png","76","744.4000000059605","3","1","1","1","1,0.5,0,1,0.5,0,0.5,0,1","0.5,0,1,0.5,0,1,0,1,0.5","2","",""
"","html-keyboard-response","147","159457","0.0-147.0","3RWE2M8QWIWEZN9IZL6G04LOBM3N0E","A21QUJTIIAOX2W","37SDSEDIN9ORHL92Y0GV7TIFJ2X187","","null","<img src=""img/food3.png"" style=""width:200px; border:14px solid green;"">","null","","","","","","","","","",""
"","image-keyboard-response","148","160062","0.0-148.0","3RWE2M8QWIWEZN9IZL6G04LOBM3N0E","A21QUJTIIAOX2W","37SDSEDIN9ORHL92Y0GV7TIFJ2X187","","603.9000000059605","img/food1.png","75","605.2000000178814","2","1","3","1","1,0.5,0,1,0.5,0,0.5,0,1","0.5,0,1,0.5,0,1,0,1,0.5","2","",""
"","html-keyboard-response","149","160367","0.0-149.0","3RWE2M8QWIWEZN9IZL6G04LOBM3N0E","A21QUJTIIAOX2W","37SDSEDIN9ORHL92Y0GV7TIFJ2X187","","null","<img src=""img/food1.png"" style=""width:200px; border:14px solid green;"">","null","","","","","","","","","",""
"","image-keyboard-response","150","160972","0.0-150.0","3RWE2M8QWIWEZN9IZL6G04LOBM3N0E","A21QUJTIIAOX2W","37SDSEDIN9ORHL92Y0GV7TIFJ2X187","","603","img/food5.png","74","604.7999999821186","1","1","2","1","1,0.5,0,1,0.5,0,0.5,0,1","0.5,0,1,0.5,0,1,0,1,0.5","2","",""
"","html-keyboard-response","151","161279","0.0-151.0","3RWE2M8QWIWEZN9IZL6G04LOBM3N0E","A21QUJTIIAOX2W","37SDSEDIN9ORHL92Y0GV7TIFJ2X187","","null","<img src=""img/food5.png"" style=""width:200px; border:14px solid green;"">","null","","","","","","","","","",""
"","image-keyboard-response","152","162000","0.0-152.0","3RWE2M8QWIWEZN9IZL6G04LOBM3N0E","A21QUJTIIAOX2W","37SDSEDIN9ORHL92Y0GV7TIFJ2X187","","719.8000000119209","img/food3.png","74","720.8999999761581","1","0","1","1","1,0.5,0,1,0.5,0,0.5,0,1","0.5,0,1,0.5,0,1,0,1,0.5","2","",""
"","html-keyboard-response","153","162308","0.0-153.0","3RWE2M8QWIWEZN9IZL6G04LOBM3N0E","A21QUJTIIAOX2W","37SDSEDIN9ORHL92Y0GV7TIFJ2X187","","null","<img src=""img/food3.png"" style=""width:200px;border:14px solid red;"">","null","","","","","","","","","",""
"","image-keyboard-response","154","162904","0.0-154.0","3RWE2M8QWIWEZN9IZL6G04LOBM3N0E","A21QUJTIIAOX2W","37SDSEDIN9ORHL92Y0GV7TIFJ2X187","","594.5","img/food1.png","75","596.3000000119209","2","1","3","1","1,0.5,0,1,0.5,0,0.5,0,1","0.5,0,1,0.5,0,1,0,1,0.5","2","",""
"","html-keyboard-response","155","163212","0.0-155.0","3RWE2M8QWIWEZN9IZL6G04LOBM3N0E","A21QUJTIIAOX2W","37SDSEDIN9ORHL92Y0GV7TIFJ2X187","","null","<img src=""img/food1.png"" style=""width:200px; border:14px solid green;"">","null","","","","","","","","","",""
"","image-keyboard-response","156","163807","0.0-156.0","3RWE2M8QWIWEZN9IZL6G04LOBM3N0E","A21QUJTIIAOX2W","37SDSEDIN9ORHL92Y0GV7TIFJ2X187","","593.7999999821186","img/food1.png","75","594.9000000059605","2","1","3","1","1,0.5,0,1,0.5,0,0.5,0,1","0.5,0,1,0.5,0,1,0,1,0.5","2","",""
"","html-keyboard-response","157","164114","0.0-157.0","3RWE2M8QWIWEZN9IZL6G04LOBM3N0E","A21QUJTIIAOX2W","37SDSEDIN9ORHL92Y0GV7TIFJ2X187","","null","<img src=""img/food1.png"" style=""width:200px; border:14px solid green;"">","null","","","","","","","","","",""
"","image-keyboard-response","158","164643","0.0-158.0","3RWE2M8QWIWEZN9IZL6G04LOBM3N0E","A21QUJTIIAOX2W","37SDSEDIN9ORHL92Y0GV7TIFJ2X187","","528","img/food1.png","75","528.9000000059605","2","1","3","1","1,0.5,0,1,0.5,0,0.5,0,1","0.5,0,1,0.5,0,1,0,1,0.5","2","",""
"","html-keyboard-response","159","164947","0.0-159.0","3RWE2M8QWIWEZN9IZL6G04LOBM3N0E","A21QUJTIIAOX2W","37SDSEDIN9ORHL92Y0GV7TIFJ2X187","","null","<img src=""img/food1.png"" style=""width:200px; border:14px solid green;"">","null","","","","","","","","","",""
"","image-keyboard-response","160","166067","0.0-160.0","3RWE2M8QWIWEZN9IZL6G04LOBM3N0E","A21QUJTIIAOX2W","37SDSEDIN9ORHL92Y0GV7TIFJ2X187","","1118.199999988079","img/food3.png","76","1119.4000000059605","3","1","1","1","1,0.5,0,1,0.5,0,0.5,0,1","0.5,0,1,0.5,0,1,0,1,0.5","2","",""
"","html-keyboard-response","161","166373","0.0-161.0","3RWE2M8QWIWEZN9IZL6G04LOBM3N0E","A21QUJTIIAOX2W","37SDSEDIN9ORHL92Y0GV7TIFJ2X187","","null","<img src=""img/food3.png"" style=""width:200px; border:14px solid green;"">","null","","","","","","","","","",""
"","image-keyboard-response","162","166922","0.0-162.0","3RWE2M8QWIWEZN9IZL6G04LOBM3N0E","A21QUJTIIAOX2W","37SDSEDIN9ORHL92Y0GV7TIFJ2X187","","548.2000000178814","img/food5.png","74","549.0999999940395","1","1","2","1","1,0.5,0,1,0.5,0,0.5,0,1","0.5,0,1,0.5,0,1,0,1,0.5","2","",""
"","html-keyboard-response","163","167230","0.0-163.0","3RWE2M8QWIWEZN9IZL6G04LOBM3N0E","A21QUJTIIAOX2W","37SDSEDIN9ORHL92Y0GV7TIFJ2X187","","null","<img src=""img/food5.png"" style=""width:200px; border:14px solid green;"">","null","","","","","","","","","",""
"","image-keyboard-response","164","167789","0.0-164.0","3RWE2M8QWIWEZN9IZL6G04LOBM3N0E","A21QUJTIIAOX2W","37SDSEDIN9ORHL92Y0GV7TIFJ2X187","","557.2000000178814","img/food3.png","76","559","3","1","1","1","1,0.5,0,1,0.5,0,0.5,0,1","0.5,0,1,0.5,0,1,0,1,0.5","2","",""
"","html-keyboard-response","165","168093","0.0-165.0","3RWE2M8QWIWEZN9IZL6G04LOBM3N0E","A21QUJTIIAOX2W","37SDSEDIN9ORHL92Y0GV7TIFJ2X187","","null","<img src=""img/food3.png"" style=""width:200px; border:14px solid green;"">","null","","","","","","","","","",""
"","image-keyboard-response","166","168719","0.0-166.0","3RWE2M8QWIWEZN9IZL6G04LOBM3N0E","A21QUJTIIAOX2W","37SDSEDIN9ORHL92Y0GV7TIFJ2X187","","625.1999999880791","img/food3.png","76","625.6999999880791","3","1","1","1","1,0.5,0,1,0.5,0,0.5,0,1","0.5,0,1,0.5,0,1,0,1,0.5","2","",""
"","html-keyboard-response","167","169021","0.0-167.0","3RWE2M8QWIWEZN9IZL6G04LOBM3N0E","A21QUJTIIAOX2W","37SDSEDIN9ORHL92Y0GV7TIFJ2X187","","null","<img src=""img/food3.png"" style=""width:200px; border:14px solid green;"">","null","","","","","","","","","",""
"","image-keyboard-response","168","169714","0.0-168.0","3RWE2M8QWIWEZN9IZL6G04LOBM3N0E","A21QUJTIIAOX2W","37SDSEDIN9ORHL92Y0GV7TIFJ2X187","","690.7999999821186","img/food1.png","75","692.5","2","1","3","1","1,0.5,0,1,0.5,0,0.5,0,1","0.5,0,1,0.5,0,1,0,1,0.5","2","",""
"","html-keyboard-response","169","170021","0.0-169.0","3RWE2M8QWIWEZN9IZL6G04LOBM3N0E","A21QUJTIIAOX2W","37SDSEDIN9ORHL92Y0GV7TIFJ2X187","","null","<img src=""img/food1.png"" style=""width:200px; border:14px solid green;"">","null","","","","","","","","","",""
"","image-keyboard-response","170","170675","0.0-170.0","3RWE2M8QWIWEZN9IZL6G04LOBM3N0E","A21QUJTIIAOX2W","37SDSEDIN9ORHL92Y0GV7TIFJ2X187","","652.5999999940395","img/food3.png","76","653.5","3","1","1","1","1,0.5,0,1,0.5,0,0.5,0,1","0.5,0,1,0.5,0,1,0,1,0.5","2","",""
"","html-keyboard-response","171","170980","0.0-171.0","3RWE2M8QWIWEZN9IZL6G04LOBM3N0E","A21QUJTIIAOX2W","37SDSEDIN9ORHL92Y0GV7TIFJ2X187","","null","<img src=""img/food3.png"" style=""width:200px; border:14px solid green;"">","null","","","","","","","","","",""
"","image-keyboard-response","172","171851","0.0-172.0","3RWE2M8QWIWEZN9IZL6G04LOBM3N0E","A21QUJTIIAOX2W","37SDSEDIN9ORHL92Y0GV7TIFJ2X187","","869.2999999821186","img/food3.png","76","871.2000000178814","3","1","1","1","1,0.5,0,1,0.5,0,0.5,0,1","0.5,0,1,0.5,0,1,0,1,0.5","2","",""
"","html-keyboard-response","173","172154","0.0-173.0","3RWE2M8QWIWEZN9IZL6G04LOBM3N0E","A21QUJTIIAOX2W","37SDSEDIN9ORHL92Y0GV7TIFJ2X187","","null","<img src=""img/food3.png"" style=""width:200px; border:14px solid green;"">","null","","","","","","","","","",""
"","image-keyboard-response","174","172823","0.0-174.0","3RWE2M8QWIWEZN9IZL6G04LOBM3N0E","A21QUJTIIAOX2W","37SDSEDIN9ORHL92Y0GV7TIFJ2X187","","667.5999999940395","img/food5.png","74","668.5","1","1","2","1","1,0.5,0,1,0.5,0,0.5,0,1","0.5,0,1,0.5,0,1,0,1,0.5","2","",""
"","html-keyboard-response","175","173131","0.0-175.0","3RWE2M8QWIWEZN9IZL6G04LOBM3N0E","A21QUJTIIAOX2W","37SDSEDIN9ORHL92Y0GV7TIFJ2X187","","null","<img src=""img/food5.png"" style=""width:200px; border:14px solid green;"">","null","","","","","","","","","",""
"","image-keyboard-response","176","175178","0.0-176.0","3RWE2M8QWIWEZN9IZL6G04LOBM3N0E","A21QUJTIIAOX2W","37SDSEDIN9ORHL92Y0GV7TIFJ2X187","","2046.5999999940395","img/food5.png","74","2047.7999999821186","1","0","2","1","1,0.5,0,1,0.5,0,0.5,0,1","0.5,0,1,0.5,0,1,0,1,0.5","2","",""
"","html-keyboard-response","177","175485","0.0-177.0","3RWE2M8QWIWEZN9IZL6G04LOBM3N0E","A21QUJTIIAOX2W","37SDSEDIN9ORHL92Y0GV7TIFJ2X187","","null","<img src=""img/food5.png"" style=""width:200px;border:14px solid red;"">","null","","","","","","","","","",""
"","image-keyboard-response","178","176226","0.0-178.0","3RWE2M8QWIWEZN9IZL6G04LOBM3N0E","A21QUJTIIAOX2W","37SDSEDIN9ORHL92Y0GV7TIFJ2X187","","739.1999999880791","img/food5.png","74","740.4000000059605","1","1","2","1","1,0.5,0,1,0.5,0,0.5,0,1","0.5,0,1,0.5,0,1,0,1,0.5","2","",""
"","html-keyboard-response","179","176533","0.0-179.0","3RWE2M8QWIWEZN9IZL6G04LOBM3N0E","A21QUJTIIAOX2W","37SDSEDIN9ORHL92Y0GV7TIFJ2X187","","null","<img src=""img/food5.png"" style=""width:200px; border:14px solid green;"">","null","","","","","","","","","",""
"","image-keyboard-response","180","176964","0.0-180.0","3RWE2M8QWIWEZN9IZL6G04LOBM3N0E","A21QUJTIIAOX2W","37SDSEDIN9ORHL92Y0GV7TIFJ2X187","","428.30000001192093","img/food5.png","74","429.90000000596046","1","0","2","1","1,0.5,0,1,0.5,0,0.5,0,1","0.5,0,1,0.5,0,1,0,1,0.5","2","",""
"","html-keyboard-response","181","177268","0.0-181.0","3RWE2M8QWIWEZN9IZL6G04LOBM3N0E","A21QUJTIIAOX2W","37SDSEDIN9ORHL92Y0GV7TIFJ2X187","","null","<img src=""img/food5.png"" style=""width:200px;border:14px solid red;"">","null","","","","","","","","","",""
"","html-keyboard-response","182","260445","0.0-182.0","3RWE2M8QWIWEZN9IZL6G04LOBM3N0E","A21QUJTIIAOX2W","37SDSEDIN9ORHL92Y0GV7TIFJ2X187","","","","","","","","","","","","","",""
"","instructions","183","270663","0.0-183.0","3RWE2M8QWIWEZN9IZL6G04LOBM3N0E","A21QUJTIIAOX2W","37SDSEDIN9ORHL92Y0GV7TIFJ2X187","[{""page_index"":0,""viewing_time"":8284.799999982119},{""page_index"":1,""viewing_time"":1932.2000000178814}]","10217.299999982119","","","","","","","","","","","",""
"","image-keyboard-response","184","271651","0.0-184.0","3RWE2M8QWIWEZN9IZL6G04LOBM3N0E","A21QUJTIIAOX2W","37SDSEDIN9ORHL92Y0GV7TIFJ2X187","","987.0999999940395","img/food2.png","76","989.0999999940395","3","0","2","2","1,0.5,0,1,0.5,0,0.5,0,1","1,0.5,0,1,0.5,0,0.5,0,1","1","false",""
"","html-keyboard-response","185","271955","0.0-185.0","3RWE2M8QWIWEZN9IZL6G04LOBM3N0E","A21QUJTIIAOX2W","37SDSEDIN9ORHL92Y0GV7TIFJ2X187","","null","<img src=""img/food2.png"" style=""width:200px;border:14px solid red;"">","null","","","","","","","","","",""
"","image-keyboard-response","186","272716","0.0-187.0","3RWE2M8QWIWEZN9IZL6G04LOBM3N0E","A21QUJTIIAOX2W","37SDSEDIN9ORHL92Y0GV7TIFJ2X187","","758.6999999880791","img/food2.png","75","760.3000000119209","2","0","2","2","1,0.5,0,1,0.5,0,0.5,0,1","1,0.5,0,1,0.5,0,0.5,0,1","1","false",""
"","html-keyboard-response","187","273025","0.0-188.0","3RWE2M8QWIWEZN9IZL6G04LOBM3N0E","A21QUJTIIAOX2W","37SDSEDIN9ORHL92Y0GV7TIFJ2X187","","null","<img src=""img/food2.png"" style=""width:200px;border:14px solid red;"">","null","","","","","","","","","",""
"","image-keyboard-response","188","273916","0.0-190.0","3RWE2M8QWIWEZN9IZL6G04LOBM3N0E","A21QUJTIIAOX2W","37SDSEDIN9ORHL92Y0GV7TIFJ2X187","","888.6999999880791","img/food4.png","74","890","1","1","3","2","1,0.5,0,1,0.5,0,0.5,0,1","1,0.5,0,1,0.5,0,0.5,0,1","1","false",""
"","html-keyboard-response","189","274221","0.0-191.0","3RWE2M8QWIWEZN9IZL6G04LOBM3N0E","A21QUJTIIAOX2W","37SDSEDIN9ORHL92Y0GV7TIFJ2X187","","null","<img src=""img/food4.png"" style=""width:200px; border:14px solid green;"">","null","","","","","","","","","",""
"","image-keyboard-response","190","275228","0.0-193.0","3RWE2M8QWIWEZN9IZL6G04LOBM3N0E","A21QUJTIIAOX2W","37SDSEDIN9ORHL92Y0GV7TIFJ2X187","","","img/food4.png","","1006.5999999940395","-1","0","3","2","1,0.5,0,1,0.5,0,0.5,0,1","1,0.5,0,1,0.5,0,0.5,0,1","1","true",""
"","html-keyboard-response","191","275534","0.0-194.0","3RWE2M8QWIWEZN9IZL6G04LOBM3N0E","A21QUJTIIAOX2W","37SDSEDIN9ORHL92Y0GV7TIFJ2X187","","null","<img src=""img/food4.png"" style=""width:200px;border:14px solid red;"">","null","","","","","","","","","",""
"","html-keyboard-response","192","278881","0.0-195.0-0.0","3RWE2M8QWIWEZN9IZL6G04LOBM3N0E","A21QUJTIIAOX2W","37SDSEDIN9ORHL92Y0GV7TIFJ2X187","","","","","","","","","","","","","",""
"","image-keyboard-response","193","279611","0.0-196.0","3RWE2M8QWIWEZN9IZL6G04LOBM3N0E","A21QUJTIIAOX2W","37SDSEDIN9ORHL92Y0GV7TIFJ2X187","","728.8000000119209","img/food2.png","75","730.2999999821186","2","1","2","2","1,0.5,0,1,0.5,0,0.5,0,1","1,0.5,0,1,0.5,0,0.5,0,1","1","false",""
"","html-keyboard-response","194","279918","0.0-197.0","3RWE2M8QWIWEZN9IZL6G04LOBM3N0E","A21QUJTIIAOX2W","37SDSEDIN9ORHL92Y0GV7TIFJ2X187","","null","<img src=""img/food2.png"" style=""width:200px; border:14px solid green;"">","null","","","","","","","","","",""
"","image-keyboard-response","195","280627","0.0-199.0","3RWE2M8QWIWEZN9IZL6G04LOBM3N0E","A21QUJTIIAOX2W","37SDSEDIN9ORHL92Y0GV7TIFJ2X187","","708.3000000119209","img/food6.png","76","709.0999999940395","3","0","1","2","1,0.5,0,1,0.5,0,0.5,0,1","1,0.5,0,1,0.5,0,0.5,0,1","1","false",""
"","html-keyboard-response","196","280934","0.0-200.0","3RWE2M8QWIWEZN9IZL6G04LOBM3N0E","A21QUJTIIAOX2W","37SDSEDIN9ORHL92Y0GV7TIFJ2X187","","null","<img src=""img/food6.png"" style=""width:200px;border:14px solid red;"">","null","","","","","","","","","",""
"","image-keyboard-response","197","281388","0.0-202.0","3RWE2M8QWIWEZN9IZL6G04LOBM3N0E","A21QUJTIIAOX2W","37SDSEDIN9ORHL92Y0GV7TIFJ2X187","","452.60000002384186","img/food6.png","76","453.69999998807907","3","0","1","2","1,0.5,0,1,0.5,0,0.5,0,1","1,0.5,0,1,0.5,0,0.5,0,1","1","false",""
"","html-keyboard-response","198","281693","0.0-203.0","3RWE2M8QWIWEZN9IZL6G04LOBM3N0E","A21QUJTIIAOX2W","37SDSEDIN9ORHL92Y0GV7TIFJ2X187","","null","<img src=""img/food6.png"" style=""width:200px;border:14px solid red;"">","null","","","","","","","","","",""
"","image-keyboard-response","199","281717","0.0-205.0","3RWE2M8QWIWEZN9IZL6G04LOBM3N0E","A21QUJTIIAOX2W","37SDSEDIN9ORHL92Y0GV7TIFJ2X187","","21.400000005960464","img/food6.png","74","23.19999998807907","1","1","1","2","1,0.5,0,1,0.5,0,0.5,0,1","1,0.5,0,1,0.5,0,0.5,0,1","1","false",""
"","html-keyboard-response","200","282024","0.0-206.0","3RWE2M8QWIWEZN9IZL6G04LOBM3N0E","A21QUJTIIAOX2W","37SDSEDIN9ORHL92Y0GV7TIFJ2X187","","null","<img src=""img/food6.png"" style=""width:200px; border:14px solid green;"">","null","","","","","","","","","",""
"","image-keyboard-response","201","282746","0.0-208.0","3RWE2M8QWIWEZN9IZL6G04LOBM3N0E","A21QUJTIIAOX2W","37SDSEDIN9ORHL92Y0GV7TIFJ2X187","","719.3000000119209","img/food2.png","75","720.5","2","0","2","2","1,0.5,0,1,0.5,0,0.5,0,1","1,0.5,0,1,0.5,0,0.5,0,1","1","false",""
"","html-keyboard-response","202","283052","0.0-209.0","3RWE2M8QWIWEZN9IZL6G04LOBM3N0E","A21QUJTIIAOX2W","37SDSEDIN9ORHL92Y0GV7TIFJ2X187","","null","<img src=""img/food2.png"" style=""width:200px;border:14px solid red;"">","null","","","","","","","","","",""
"","image-keyboard-response","203","283561","0.0-211.0","3RWE2M8QWIWEZN9IZL6G04LOBM3N0E","A21QUJTIIAOX2W","37SDSEDIN9ORHL92Y0GV7TIFJ2X187","","506.7000000178814","img/food2.png","75","508.7000000178814","2","1","2","2","1,0.5,0,1,0.5,0,0.5,0,1","1,0.5,0,1,0.5,0,0.5,0,1","1","false",""
"","html-keyboard-response","204","283869","0.0-212.0","3RWE2M8QWIWEZN9IZL6G04LOBM3N0E","A21QUJTIIAOX2W","37SDSEDIN9ORHL92Y0GV7TIFJ2X187","","null","<img src=""img/food2.png"" style=""width:200px; border:14px solid green;"">","null","","","","","","","","","",""
"","image-keyboard-response","205","284315","0.0-214.0","3RWE2M8QWIWEZN9IZL6G04LOBM3N0E","A21QUJTIIAOX2W","37SDSEDIN9ORHL92Y0GV7TIFJ2X187","","443.30000001192093","img/food2.png","75","445.19999998807907","2","0","2","2","1,0.5,0,1,0.5,0,0.5,0,1","1,0.5,0,1,0.5,0,0.5,0,1","1","false",""
"","html-keyboard-response","206","284621","0.0-215.0","3RWE2M8QWIWEZN9IZL6G04LOBM3N0E","A21QUJTIIAOX2W","37SDSEDIN9ORHL92Y0GV7TIFJ2X187","","null","<img src=""img/food2.png"" style=""width:200px;border:14px solid red;"">","null","","","","","","","","","",""
"","image-keyboard-response","207","285150","0.0-217.0","3RWE2M8QWIWEZN9IZL6G04LOBM3N0E","A21QUJTIIAOX2W","37SDSEDIN9ORHL92Y0GV7TIFJ2X187","","527.5","img/food6.png","74","528.8000000119209","1","1","1","2","1,0.5,0,1,0.5,0,0.5,0,1","1,0.5,0,1,0.5,0,0.5,0,1","1","false",""
"","html-keyboard-response","208","285457","0.0-218.0","3RWE2M8QWIWEZN9IZL6G04LOBM3N0E","A21QUJTIIAOX2W","37SDSEDIN9ORHL92Y0GV7TIFJ2X187","","null","<img src=""img/food6.png"" style=""width:200px; border:14px solid green;"">","null","","","","","","","","","",""
"","image-keyboard-response","209","286221","0.0-220.0","3RWE2M8QWIWEZN9IZL6G04LOBM3N0E","A21QUJTIIAOX2W","37SDSEDIN9ORHL92Y0GV7TIFJ2X187","","762.0999999940395","img/food4.png","76","763.4000000059605","3","1","3","2","1,0.5,0,1,0.5,0,0.5,0,1","1,0.5,0,1,0.5,0,0.5,0,1","1","false",""
"","html-keyboard-response","210","286526","0.0-221.0","3RWE2M8QWIWEZN9IZL6G04LOBM3N0E","A21QUJTIIAOX2W","37SDSEDIN9ORHL92Y0GV7TIFJ2X187","","null","<img src=""img/food4.png"" style=""width:200px; border:14px solid green;"">","null","","","","","","","","","",""
"","image-keyboard-response","211","287301","0.0-223.0","3RWE2M8QWIWEZN9IZL6G04LOBM3N0E","A21QUJTIIAOX2W","37SDSEDIN9ORHL92Y0GV7TIFJ2X187","","774.1999999880791","img/food6.png","74","774.6999999880791","1","1","1","2","1,0.5,0,1,0.5,0,0.5,0,1","1,0.5,0,1,0.5,0,0.5,0,1","1","false",""
"","html-keyboard-response","212","287608","0.0-224.0","3RWE2M8QWIWEZN9IZL6G04LOBM3N0E","A21QUJTIIAOX2W","37SDSEDIN9ORHL92Y0GV7TIFJ2X187","","null","<img src=""img/food6.png"" style=""width:200px; border:14px solid green;"">","null","","","","","","","","","",""
"","image-keyboard-response","213","288275","0.0-226.0","3RWE2M8QWIWEZN9IZL6G04LOBM3N0E","A21QUJTIIAOX2W","37SDSEDIN9ORHL92Y0GV7TIFJ2X187","","664.5999999940395","img/food2.png","75","666.5","2","0","2","2","1,0.5,0,1,0.5,0,0.5,0,1","1,0.5,0,1,0.5,0,0.5,0,1","1","false",""
"","html-keyboard-response","214","288583","0.0-227.0","3RWE2M8QWIWEZN9IZL6G04LOBM3N0E","A21QUJTIIAOX2W","37SDSEDIN9ORHL92Y0GV7TIFJ2X187","","null","<img src=""img/food2.png"" style=""width:200px;border:14px solid red;"">","null","","","","","","","","","",""
"","image-keyboard-response","215","289056","0.0-229.0","3RWE2M8QWIWEZN9IZL6G04LOBM3N0E","A21QUJTIIAOX2W","37SDSEDIN9ORHL92Y0GV7TIFJ2X187","","470.7999999821186","img/food2.png","75","472.69999998807907","2","0","2","2","1,0.5,0,1,0.5,0,0.5,0,1","1,0.5,0,1,0.5,0,0.5,0,1","1","false",""
"","html-keyboard-response","216","289364","0.0-230.0","3RWE2M8QWIWEZN9IZL6G04LOBM3N0E","A21QUJTIIAOX2W","37SDSEDIN9ORHL92Y0GV7TIFJ2X187","","null","<img src=""img/food2.png"" style=""width:200px;border:14px solid red;"">","null","","","","","","","","","",""
"","image-keyboard-response","217","290104","0.0-232.0","3RWE2M8QWIWEZN9IZL6G04LOBM3N0E","A21QUJTIIAOX2W","37SDSEDIN9ORHL92Y0GV7TIFJ2X187","","737","img/food4.png","74","739.0999999940395","1","0","3","2","1,0.5,0,1,0.5,0,0.5,0,1","1,0.5,0,1,0.5,0,0.5,0,1","1","false",""
"","html-keyboard-response","218","290412","0.0-233.0","3RWE2M8QWIWEZN9IZL6G04LOBM3N0E","A21QUJTIIAOX2W","37SDSEDIN9ORHL92Y0GV7TIFJ2X187","","null","<img src=""img/food4.png"" style=""width:200px;border:14px solid red;"">","null","","","","","","","","","",""
"","image-keyboard-response","219","291335","0.0-235.0","3RWE2M8QWIWEZN9IZL6G04LOBM3N0E","A21QUJTIIAOX2W","37SDSEDIN9ORHL92Y0GV7TIFJ2X187","","920.3000000119209","img/food6.png","76","922.1000000238419","3","0","1","2","1,0.5,0,1,0.5,0,0.5,0,1","1,0.5,0,1,0.5,0,0.5,0,1","1","false",""
"","html-keyboard-response","220","291637","0.0-236.0","3RWE2M8QWIWEZN9IZL6G04LOBM3N0E","A21QUJTIIAOX2W","37SDSEDIN9ORHL92Y0GV7TIFJ2X187","","null","<img src=""img/food6.png"" style=""width:200px;border:14px solid red;"">","null","","","","","","","","","",""
"","image-keyboard-response","221","292286","0.0-238.0","3RWE2M8QWIWEZN9IZL6G04LOBM3N0E","A21QUJTIIAOX2W","37SDSEDIN9ORHL92Y0GV7TIFJ2X187","","647.9000000059605","img/food2.png","75","648.5","2","0","2","2","1,0.5,0,1,0.5,0,0.5,0,1","1,0.5,0,1,0.5,0,0.5,0,1","1","false",""
"","html-keyboard-response","222","292592","0.0-239.0","3RWE2M8QWIWEZN9IZL6G04LOBM3N0E","A21QUJTIIAOX2W","37SDSEDIN9ORHL92Y0GV7TIFJ2X187","","null","<img src=""img/food2.png"" style=""width:200px;border:14px solid red;"">","null","","","","","","","","","",""
"","image-keyboard-response","223","293600","0.0-241.0","3RWE2M8QWIWEZN9IZL6G04LOBM3N0E","A21QUJTIIAOX2W","37SDSEDIN9ORHL92Y0GV7TIFJ2X187","","","img/food4.png","","1007.5999999940395","-1","0","3","2","1,0.5,0,1,0.5,0,0.5,0,1","1,0.5,0,1,0.5,0,0.5,0,1","1","true",""
"","html-keyboard-response","224","293906","0.0-242.0","3RWE2M8QWIWEZN9IZL6G04LOBM3N0E","A21QUJTIIAOX2W","37SDSEDIN9ORHL92Y0GV7TIFJ2X187","","null","<img src=""img/food4.png"" style=""width:200px;border:14px solid red;"">","null","","","","","","","","","",""
"","html-keyboard-response","225","294981","0.0-243.0-0.0","3RWE2M8QWIWEZN9IZL6G04LOBM3N0E","A21QUJTIIAOX2W","37SDSEDIN9ORHL92Y0GV7TIFJ2X187","","","","","","","","","","","","","",""
"","image-keyboard-response","226","295984","0.0-244.0","3RWE2M8QWIWEZN9IZL6G04LOBM3N0E","A21QUJTIIAOX2W","37SDSEDIN9ORHL92Y0GV7TIFJ2X187","","","img/food4.png","","1002.5999999940395","-1","0","3","2","1,0.5,0,1,0.5,0,0.5,0,1","1,0.5,0,1,0.5,0,0.5,0,1","1","true",""
"","html-keyboard-response","227","296287","0.0-245.0","3RWE2M8QWIWEZN9IZL6G04LOBM3N0E","A21QUJTIIAOX2W","37SDSEDIN9ORHL92Y0GV7TIFJ2X187","","null","<img src=""img/food4.png"" style=""width:200px;border:14px solid red;"">","null","","","","","","","","","",""
"","html-keyboard-response","228","297831","0.0-246.0-0.0","3RWE2M8QWIWEZN9IZL6G04LOBM3N0E","A21QUJTIIAOX2W","37SDSEDIN9ORHL92Y0GV7TIFJ2X187","","","","","","","","","","","","","",""
"","image-keyboard-response","229","298454","0.0-247.0","3RWE2M8QWIWEZN9IZL6G04LOBM3N0E","A21QUJTIIAOX2W","37SDSEDIN9ORHL92Y0GV7TIFJ2X187","","621","img/food2.png","75","623.4000000059605","2","1","2","2","1,0.5,0,1,0.5,0,0.5,0,1","1,0.5,0,1,0.5,0,0.5,0,1","1","false",""
"","html-keyboard-response","230","298762","0.0-248.0","3RWE2M8QWIWEZN9IZL6G04LOBM3N0E","A21QUJTIIAOX2W","37SDSEDIN9ORHL92Y0GV7TIFJ2X187","","null","<img src=""img/food2.png"" style=""width:200px; border:14px solid green;"">","null","","","","","","","","","",""
"","image-keyboard-response","231","299450","0.0-250.0","3RWE2M8QWIWEZN9IZL6G04LOBM3N0E","A21QUJTIIAOX2W","37SDSEDIN9ORHL92Y0GV7TIFJ2X187","","687","img/food4.png","76","688.2000000178814","3","1","3","2","1,0.5,0,1,0.5,0,0.5,0,1","1,0.5,0,1,0.5,0,0.5,0,1","1","false",""
"","html-keyboard-response","232","299755","0.0-251.0","3RWE2M8QWIWEZN9IZL6G04LOBM3N0E","A21QUJTIIAOX2W","37SDSEDIN9ORHL92Y0GV7TIFJ2X187","","null","<img src=""img/food4.png"" style=""width:200px; border:14px solid green;"">","null","","","","","","","","","",""
"","image-keyboard-response","233","300331","0.0-253.0","3RWE2M8QWIWEZN9IZL6G04LOBM3N0E","A21QUJTIIAOX2W","37SDSEDIN9ORHL92Y0GV7TIFJ2X187","","574.6999999880791","img/food2.png","75","575.9000000059605","2","0","2","2","1,0.5,0,1,0.5,0,0.5,0,1","1,0.5,0,1,0.5,0,0.5,0,1","1","false",""
"","html-keyboard-response","234","300636","0.0-254.0","3RWE2M8QWIWEZN9IZL6G04LOBM3N0E","A21QUJTIIAOX2W","37SDSEDIN9ORHL92Y0GV7TIFJ2X187","","null","<img src=""img/food2.png"" style=""width:200px;border:14px solid red;"">","null","","","","","","","","","",""
"","image-keyboard-response","235","301144","0.0-256.0","3RWE2M8QWIWEZN9IZL6G04LOBM3N0E","A21QUJTIIAOX2W","37SDSEDIN9ORHL92Y0GV7TIFJ2X187","","506.69999998807907","img/food2.png","75","507.80000001192093","2","1","2","2","1,0.5,0,1,0.5,0,0.5,0,1","1,0.5,0,1,0.5,0,0.5,0,1","1","false",""
"","html-keyboard-response","236","301452","0.0-257.0","3RWE2M8QWIWEZN9IZL6G04LOBM3N0E","A21QUJTIIAOX2W","37SDSEDIN9ORHL92Y0GV7TIFJ2X187","","null","<img src=""img/food2.png"" style=""width:200px; border:14px solid green;"">","null","","","","","","","","","",""
"","image-keyboard-response","237","302017","0.0-259.0","3RWE2M8QWIWEZN9IZL6G04LOBM3N0E","A21QUJTIIAOX2W","37SDSEDIN9ORHL92Y0GV7TIFJ2X187","","562.8000000119209","img/food4.png","76","564.9000000059605","3","1","3","2","1,0.5,0,1,0.5,0,0.5,0,1","1,0.5,0,1,0.5,0,0.5,0,1","1","false",""
"","html-keyboard-response","238","302321","0.0-260.0","3RWE2M8QWIWEZN9IZL6G04LOBM3N0E","A21QUJTIIAOX2W","37SDSEDIN9ORHL92Y0GV7TIFJ2X187","","null","<img src=""img/food4.png"" style=""width:200px; border:14px solid green;"">","null","","","","","","","","","",""
"","image-keyboard-response","239","302655","0.0-262.0","3RWE2M8QWIWEZN9IZL6G04LOBM3N0E","A21QUJTIIAOX2W","37SDSEDIN9ORHL92Y0GV7TIFJ2X187","","332.80000001192093","img/food4.png","76","333.7999999821186","3","1","3","2","1,0.5,0,1,0.5,0,0.5,0,1","1,0.5,0,1,0.5,0,0.5,0,1","1","false",""
"","html-keyboard-response","240","302963","0.0-263.0","3RWE2M8QWIWEZN9IZL6G04LOBM3N0E","A21QUJTIIAOX2W","37SDSEDIN9ORHL92Y0GV7TIFJ2X187","","null","<img src=""img/food4.png"" style=""width:200px; border:14px solid green;"">","null","","","","","","","","","",""
"","image-keyboard-response","241","303387","0.0-265.0","3RWE2M8QWIWEZN9IZL6G04LOBM3N0E","A21QUJTIIAOX2W","37SDSEDIN9ORHL92Y0GV7TIFJ2X187","","422.7000000178814","img/food2.png","74","423.69999998807907","1","1","2","2","1,0.5,0,1,0.5,0,0.5,0,1","1,0.5,0,1,0.5,0,0.5,0,1","1","false",""
"","html-keyboard-response","242","303692","0.0-266.0","3RWE2M8QWIWEZN9IZL6G04LOBM3N0E","A21QUJTIIAOX2W","37SDSEDIN9ORHL92Y0GV7TIFJ2X187","","null","<img src=""img/food2.png"" style=""width:200px; border:14px solid green;"">","null","","","","","","","","","",""
"","image-keyboard-response","243","303873","0.0-268.0","3RWE2M8QWIWEZN9IZL6G04LOBM3N0E","A21QUJTIIAOX2W","37SDSEDIN9ORHL92Y0GV7TIFJ2X187","","180","img/food6.png","75","181.09999999403954","2","1","1","2","1,0.5,0,1,0.5,0,0.5,0,1","1,0.5,0,1,0.5,0,0.5,0,1","1","false",""
"","html-keyboard-response","244","304181","0.0-269.0","3RWE2M8QWIWEZN9IZL6G04LOBM3N0E","A21QUJTIIAOX2W","37SDSEDIN9ORHL92Y0GV7TIFJ2X187","","null","<img src=""img/food6.png"" style=""width:200px; border:14px solid green;"">","null","","","","","","","","","",""
"","image-keyboard-response","245","305023","0.0-271.0","3RWE2M8QWIWEZN9IZL6G04LOBM3N0E","A21QUJTIIAOX2W","37SDSEDIN9ORHL92Y0GV7TIFJ2X187","","840.6999999880791","img/food6.png","75","842.0999999940395","2","1","1","2","1,0.5,0,1,0.5,0,0.5,0,1","1,0.5,0,1,0.5,0,0.5,0,1","1","false",""
"","html-keyboard-response","246","305329","0.0-272.0","3RWE2M8QWIWEZN9IZL6G04LOBM3N0E","A21QUJTIIAOX2W","37SDSEDIN9ORHL92Y0GV7TIFJ2X187","","null","<img src=""img/food6.png"" style=""width:200px; border:14px solid green;"">","null","","","","","","","","","",""
"","image-keyboard-response","247","306060","0.0-274.0","3RWE2M8QWIWEZN9IZL6G04LOBM3N0E","A21QUJTIIAOX2W","37SDSEDIN9ORHL92Y0GV7TIFJ2X187","","727.9000000059605","img/food2.png","75","729.7999999821186","2","1","2","2","1,0.5,0,1,0.5,0,0.5,0,1","1,0.5,0,1,0.5,0,0.5,0,1","1","false",""
"","html-keyboard-response","248","306367","0.0-275.0","3RWE2M8QWIWEZN9IZL6G04LOBM3N0E","A21QUJTIIAOX2W","37SDSEDIN9ORHL92Y0GV7TIFJ2X187","","null","<img src=""img/food2.png"" style=""width:200px; border:14px solid green;"">","null","","","","","","","","","",""
"","image-keyboard-response","249","306764","0.0-277.0","3RWE2M8QWIWEZN9IZL6G04LOBM3N0E","A21QUJTIIAOX2W","37SDSEDIN9ORHL92Y0GV7TIFJ2X187","","397","img/food2.png","75","397.39999997615814","2","1","2","2","1,0.5,0,1,0.5,0,0.5,0,1","1,0.5,0,1,0.5,0,0.5,0,1","1","false",""
"","html-keyboard-response","250","307070","0.0-278.0","3RWE2M8QWIWEZN9IZL6G04LOBM3N0E","A21QUJTIIAOX2W","37SDSEDIN9ORHL92Y0GV7TIFJ2X187","","null","<img src=""img/food2.png"" style=""width:200px; border:14px solid green;"">","null","","","","","","","","","",""
"","image-keyboard-response","251","307398","0.0-280.0","3RWE2M8QWIWEZN9IZL6G04LOBM3N0E","A21QUJTIIAOX2W","37SDSEDIN9ORHL92Y0GV7TIFJ2X187","","325.30000001192093","img/food2.png","75","327.39999997615814","2","0","2","2","1,0.5,0,1,0.5,0,0.5,0,1","1,0.5,0,1,0.5,0,0.5,0,1","1","false",""
"","html-keyboard-response","252","307703","0.0-281.0","3RWE2M8QWIWEZN9IZL6G04LOBM3N0E","A21QUJTIIAOX2W","37SDSEDIN9ORHL92Y0GV7TIFJ2X187","","null","<img src=""img/food2.png"" style=""width:200px;border:14px solid red;"">","null","","","","","","","","","",""
"","image-keyboard-response","253","308270","0.0-283.0","3RWE2M8QWIWEZN9IZL6G04LOBM3N0E","A21QUJTIIAOX2W","37SDSEDIN9ORHL92Y0GV7TIFJ2X187","","565.3000000119209","img/food4.png","76","566.6999999880791","3","1","3","2","1,0.5,0,1,0.5,0,0.5,0,1","1,0.5,0,1,0.5,0,0.5,0,1","1","false",""
"","html-keyboard-response","254","308574","0.0-284.0","3RWE2M8QWIWEZN9IZL6G04LOBM3N0E","A21QUJTIIAOX2W","37SDSEDIN9ORHL92Y0GV7TIFJ2X187","","null","<img src=""img/food4.png"" style=""width:200px; border:14px solid green;"">","null","","","","","","","","","",""
"","image-keyboard-response","255","309218","0.0-286.0","3RWE2M8QWIWEZN9IZL6G04LOBM3N0E","A21QUJTIIAOX2W","37SDSEDIN9ORHL92Y0GV7TIFJ2X187","","642.3000000119209","img/food2.png","75","643.5","2","0","2","2","1,0.5,0,1,0.5,0,0.5,0,1","1,0.5,0,1,0.5,0,0.5,0,1","1","false",""
"","html-keyboard-response","256","309522","0.0-287.0","3RWE2M8QWIWEZN9IZL6G04LOBM3N0E","A21QUJTIIAOX2W","37SDSEDIN9ORHL92Y0GV7TIFJ2X187","","null","<img src=""img/food2.png"" style=""width:200px;border:14px solid red;"">","null","","","","","","","","","",""
"","image-keyboard-response","257","309964","0.0-289.0","3RWE2M8QWIWEZN9IZL6G04LOBM3N0E","A21QUJTIIAOX2W","37SDSEDIN9ORHL92Y0GV7TIFJ2X187","","441.2000000178814","img/food6.png","74","442.19999998807907","1","1","1","2","1,0.5,0,1,0.5,0,0.5,0,1","1,0.5,0,1,0.5,0,0.5,0,1","1","false",""
"","html-keyboard-response","258","310271","0.0-290.0","3RWE2M8QWIWEZN9IZL6G04LOBM3N0E","A21QUJTIIAOX2W","37SDSEDIN9ORHL92Y0GV7TIFJ2X187","","null","<img src=""img/food6.png"" style=""width:200px; border:14px solid green;"">","null","","","","","","","","","",""
"","image-keyboard-response","259","310776","0.0-292.0","3RWE2M8QWIWEZN9IZL6G04LOBM3N0E","A21QUJTIIAOX2W","37SDSEDIN9ORHL92Y0GV7TIFJ2X187","","502.19999998807907","img/food6.png","74","504.09999999403954","1","1","1","2","1,0.5,0,1,0.5,0,0.5,0,1","1,0.5,0,1,0.5,0,0.5,0,1","1","false",""
"","html-keyboard-response","260","311081","0.0-293.0","3RWE2M8QWIWEZN9IZL6G04LOBM3N0E","A21QUJTIIAOX2W","37SDSEDIN9ORHL92Y0GV7TIFJ2X187","","null","<img src=""img/food6.png"" style=""width:200px; border:14px solid green;"">","null","","","","","","","","","",""
"","image-keyboard-response","261","311731","0.0-295.0","3RWE2M8QWIWEZN9IZL6G04LOBM3N0E","A21QUJTIIAOX2W","37SDSEDIN9ORHL92Y0GV7TIFJ2X187","","648.0999999940395","img/food4.png","76","650","3","1","3","2","1,0.5,0,1,0.5,0,0.5,0,1","1,0.5,0,1,0.5,0,0.5,0,1","1","false",""
"","html-keyboard-response","262","312039","0.0-296.0","3RWE2M8QWIWEZN9IZL6G04LOBM3N0E","A21QUJTIIAOX2W","37SDSEDIN9ORHL92Y0GV7TIFJ2X187","","null","<img src=""img/food4.png"" style=""width:200px; border:14px solid green;"">","null","","","","","","","","","",""
"","image-keyboard-response","263","312575","0.0-298.0","3RWE2M8QWIWEZN9IZL6G04LOBM3N0E","A21QUJTIIAOX2W","37SDSEDIN9ORHL92Y0GV7TIFJ2X187","","534","img/food6.png","74","535.9000000059605","1","1","1","2","1,0.5,0,1,0.5,0,0.5,0,1","1,0.5,0,1,0.5,0,0.5,0,1","1","false",""
"","html-keyboard-response","264","312879","0.0-299.0","3RWE2M8QWIWEZN9IZL6G04LOBM3N0E","A21QUJTIIAOX2W","37SDSEDIN9ORHL92Y0GV7TIFJ2X187","","null","<img src=""img/food6.png"" style=""width:200px; border:14px solid green;"">","null","","","","","","","","","",""
"","image-keyboard-response","265","313457","0.0-301.0","3RWE2M8QWIWEZN9IZL6G04LOBM3N0E","A21QUJTIIAOX2W","37SDSEDIN9ORHL92Y0GV7TIFJ2X187","","575.2000000178814","img/food4.png","76","576.8000000119209","3","1","3","2","1,0.5,0,1,0.5,0,0.5,0,1","1,0.5,0,1,0.5,0,0.5,0,1","1","false",""
"","html-keyboard-response","266","313764","0.0-302.0","3RWE2M8QWIWEZN9IZL6G04LOBM3N0E","A21QUJTIIAOX2W","37SDSEDIN9ORHL92Y0GV7TIFJ2X187","","null","<img src=""img/food4.png"" style=""width:200px; border:14px solid green;"">","null","","","","","","","","","",""
"","image-keyboard-response","267","314454","0.0-304.0","3RWE2M8QWIWEZN9IZL6G04LOBM3N0E","A21QUJTIIAOX2W","37SDSEDIN9ORHL92Y0GV7TIFJ2X187","","687","img/food4.png","76","689","3","1","3","2","1,0.5,0,1,0.5,0,0.5,0,1","1,0.5,0,1,0.5,0,0.5,0,1","1","false",""
"","html-keyboard-response","268","314761","0.0-305.0","3RWE2M8QWIWEZN9IZL6G04LOBM3N0E","A21QUJTIIAOX2W","37SDSEDIN9ORHL92Y0GV7TIFJ2X187","","null","<img src=""img/food4.png"" style=""width:200px; border:14px solid green;"">","null","","","","","","","","","",""
"","image-keyboard-response","269","315349","0.0-307.0","3RWE2M8QWIWEZN9IZL6G04LOBM3N0E","A21QUJTIIAOX2W","37SDSEDIN9ORHL92Y0GV7TIFJ2X187","","587","img/food6.png","74","588.1999999880791","1","1","1","2","1,0.5,0,1,0.5,0,0.5,0,1","1,0.5,0,1,0.5,0,0.5,0,1","1","false",""
"","html-keyboard-response","270","315654","0.0-308.0","3RWE2M8QWIWEZN9IZL6G04LOBM3N0E","A21QUJTIIAOX2W","37SDSEDIN9ORHL92Y0GV7TIFJ2X187","","null","<img src=""img/food6.png"" style=""width:200px; border:14px solid green;"">","null","","","","","","","","","",""
"","image-keyboard-response","271","316165","0.0-310.0","3RWE2M8QWIWEZN9IZL6G04LOBM3N0E","A21QUJTIIAOX2W","37SDSEDIN9ORHL92Y0GV7TIFJ2X187","","508.40000000596046","img/food6.png","74","510.5","1","1","1","2","1,0.5,0,1,0.5,0,0.5,0,1","1,0.5,0,1,0.5,0,0.5,0,1","1","false",""
"","html-keyboard-response","272","316468","0.0-311.0","3RWE2M8QWIWEZN9IZL6G04LOBM3N0E","A21QUJTIIAOX2W","37SDSEDIN9ORHL92Y0GV7TIFJ2X187","","null","<img src=""img/food6.png"" style=""width:200px; border:14px solid green;"">","null","","","","","","","","","",""
"","image-keyboard-response","273","317015","0.0-313.0","3RWE2M8QWIWEZN9IZL6G04LOBM3N0E","A21QUJTIIAOX2W","37SDSEDIN9ORHL92Y0GV7TIFJ2X187","","545.5999999940395","img/food4.png","76","546.6000000238419","3","1","3","2","1,0.5,0,1,0.5,0,0.5,0,1","1,0.5,0,1,0.5,0,0.5,0,1","1","false",""
"","html-keyboard-response","274","317322","0.0-314.0","3RWE2M8QWIWEZN9IZL6G04LOBM3N0E","A21QUJTIIAOX2W","37SDSEDIN9ORHL92Y0GV7TIFJ2X187","","null","<img src=""img/food4.png"" style=""width:200px; border:14px solid green;"">","null","","","","","","","","","",""
"","image-keyboard-response","275","317698","0.0-316.0","3RWE2M8QWIWEZN9IZL6G04LOBM3N0E","A21QUJTIIAOX2W","37SDSEDIN9ORHL92Y0GV7TIFJ2X187","","373.09999999403954","img/food4.png","76","375.10000002384186","3","1","3","2","1,0.5,0,1,0.5,0,0.5,0,1","1,0.5,0,1,0.5,0,0.5,0,1","1","false",""
"","html-keyboard-response","276","318006","0.0-317.0","3RWE2M8QWIWEZN9IZL6G04LOBM3N0E","A21QUJTIIAOX2W","37SDSEDIN9ORHL92Y0GV7TIFJ2X187","","null","<img src=""img/food4.png"" style=""width:200px; border:14px solid green;"">","null","","","","","","","","","",""
"","image-keyboard-response","277","318621","0.0-319.0","3RWE2M8QWIWEZN9IZL6G04LOBM3N0E","A21QUJTIIAOX2W","37SDSEDIN9ORHL92Y0GV7TIFJ2X187","","613.1999999880791","img/food6.png","74","615.1000000238419","1","1","1","2","1,0.5,0,1,0.5,0,0.5,0,1","1,0.5,0,1,0.5,0,0.5,0,1","1","false",""
"","html-keyboard-response","278","318929","0.0-320.0","3RWE2M8QWIWEZN9IZL6G04LOBM3N0E","A21QUJTIIAOX2W","37SDSEDIN9ORHL92Y0GV7TIFJ2X187","","null","<img src=""img/food6.png"" style=""width:200px; border:14px solid green;"">","null","","","","","","","","","",""
"","image-keyboard-response","279","319612","0.0-322.0","3RWE2M8QWIWEZN9IZL6G04LOBM3N0E","A21QUJTIIAOX2W","37SDSEDIN9ORHL92Y0GV7TIFJ2X187","","681.0999999940395","img/food6.png","74","682.5","1","1","1","2","1,0.5,0,1,0.5,0,0.5,0,1","1,0.5,0,1,0.5,0,0.5,0,1","1","false",""
"","html-keyboard-response","280","319918","0.0-323.0","3RWE2M8QWIWEZN9IZL6G04LOBM3N0E","A21QUJTIIAOX2W","37SDSEDIN9ORHL92Y0GV7TIFJ2X187","","null","<img src=""img/food6.png"" style=""width:200px; border:14px solid green;"">","null","","","","","","","","","",""
"","image-keyboard-response","281","320344","0.0-325.0","3RWE2M8QWIWEZN9IZL6G04LOBM3N0E","A21QUJTIIAOX2W","37SDSEDIN9ORHL92Y0GV7TIFJ2X187","","423.30000001192093","img/food6.png","74","424.59999999403954","1","1","1","2","1,0.5,0,1,0.5,0,0.5,0,1","1,0.5,0,1,0.5,0,0.5,0,1","1","false",""
"","html-keyboard-response","282","320650","0.0-326.0","3RWE2M8QWIWEZN9IZL6G04LOBM3N0E","A21QUJTIIAOX2W","37SDSEDIN9ORHL92Y0GV7TIFJ2X187","","null","<img src=""img/food6.png"" style=""width:200px; border:14px solid green;"">","null","","","","","","","","","",""
"","image-keyboard-response","283","321091","0.0-328.0","3RWE2M8QWIWEZN9IZL6G04LOBM3N0E","A21QUJTIIAOX2W","37SDSEDIN9ORHL92Y0GV7TIFJ2X187","","438.90000000596046","img/food2.png","75","440.19999998807907","2","1","2","2","1,0.5,0,1,0.5,0,0.5,0,1","1,0.5,0,1,0.5,0,0.5,0,1","1","false",""
"","html-keyboard-response","284","321393","0.0-329.0","3RWE2M8QWIWEZN9IZL6G04LOBM3N0E","A21QUJTIIAOX2W","37SDSEDIN9ORHL92Y0GV7TIFJ2X187","","null","<img src=""img/food2.png"" style=""width:200px; border:14px solid green;"">","null","","","","","","","","","",""
"","image-keyboard-response","285","321947","0.0-331.0","3RWE2M8QWIWEZN9IZL6G04LOBM3N0E","A21QUJTIIAOX2W","37SDSEDIN9ORHL92Y0GV7TIFJ2X187","","552.6999999880791","img/food2.png","75","553.9000000059605","2","0","2","2","1,0.5,0,1,0.5,0,0.5,0,1","1,0.5,0,1,0.5,0,0.5,0,1","1","false",""
"","html-keyboard-response","286","322255","0.0-332.0","3RWE2M8QWIWEZN9IZL6G04LOBM3N0E","A21QUJTIIAOX2W","37SDSEDIN9ORHL92Y0GV7TIFJ2X187","","null","<img src=""img/food2.png"" style=""width:200px;border:14px solid red;"">","null","","","","","","","","","",""
"","image-keyboard-response","287","323014","0.0-334.0","3RWE2M8QWIWEZN9IZL6G04LOBM3N0E","A21QUJTIIAOX2W","37SDSEDIN9ORHL92Y0GV7TIFJ2X187","","757.1999999880791","img/food4.png","74","759","1","0","3","2","1,0.5,0,1,0.5,0,0.5,0,1","1,0.5,0,1,0.5,0,0.5,0,1","1","false",""
"","html-keyboard-response","288","323322","0.0-335.0","3RWE2M8QWIWEZN9IZL6G04LOBM3N0E","A21QUJTIIAOX2W","37SDSEDIN9ORHL92Y0GV7TIFJ2X187","","null","<img src=""img/food4.png"" style=""width:200px;border:14px solid red;"">","null","","","","","","","","","",""
"","image-keyboard-response","289","324326","0.0-337.0","3RWE2M8QWIWEZN9IZL6G04LOBM3N0E","A21QUJTIIAOX2W","37SDSEDIN9ORHL92Y0GV7TIFJ2X187","","","img/food6.png","","1003.6999999880791","-1","0","1","2","1,0.5,0,1,0.5,0,0.5,0,1","1,0.5,0,1,0.5,0,0.5,0,1","1","true",""
"","html-keyboard-response","290","324632","0.0-338.0","3RWE2M8QWIWEZN9IZL6G04LOBM3N0E","A21QUJTIIAOX2W","37SDSEDIN9ORHL92Y0GV7TIFJ2X187","","null","<img src=""img/food6.png"" style=""width:200px;border:14px solid red;"">","null","","","","","","","","","",""
"","html-keyboard-response","291","325795","0.0-339.0-0.0","3RWE2M8QWIWEZN9IZL6G04LOBM3N0E","A21QUJTIIAOX2W","37SDSEDIN9ORHL92Y0GV7TIFJ2X187","","","","","","","","","","","","","",""
"","image-keyboard-response","292","326464","0.0-340.0","3RWE2M8QWIWEZN9IZL6G04LOBM3N0E","A21QUJTIIAOX2W","37SDSEDIN9ORHL92Y0GV7TIFJ2X187","","668","img/food2.png","75","669.4000000059605","2","0","2","2","1,0.5,0,1,0.5,0,0.5,0,1","1,0.5,0,1,0.5,0,0.5,0,1","1","false",""
"","html-keyboard-response","293","326772","0.0-341.0","3RWE2M8QWIWEZN9IZL6G04LOBM3N0E","A21QUJTIIAOX2W","37SDSEDIN9ORHL92Y0GV7TIFJ2X187","","null","<img src=""img/food2.png"" style=""width:200px;border:14px solid red;"">","null","","","","","","","","","",""
"","image-keyboard-response","294","327361","0.0-343.0","3RWE2M8QWIWEZN9IZL6G04LOBM3N0E","A21QUJTIIAOX2W","37SDSEDIN9ORHL92Y0GV7TIFJ2X187","","588.2000000178814","img/food6.png","74","589.2999999821186","1","1","1","2","1,0.5,0,1,0.5,0,0.5,0,1","1,0.5,0,1,0.5,0,0.5,0,1","1","false",""
"","html-keyboard-response","295","327664","0.0-344.0","3RWE2M8QWIWEZN9IZL6G04LOBM3N0E","A21QUJTIIAOX2W","37SDSEDIN9ORHL92Y0GV7TIFJ2X187","","null","<img src=""img/food6.png"" style=""width:200px; border:14px solid green;"">","null","","","","","","","","","",""
"","image-keyboard-response","296","328232","0.0-346.0","3RWE2M8QWIWEZN9IZL6G04LOBM3N0E","A21QUJTIIAOX2W","37SDSEDIN9ORHL92Y0GV7TIFJ2X187","","565.7000000178814","img/food4.png","76","566.9000000059605","3","1","3","2","1,0.5,0,1,0.5,0,0.5,0,1","1,0.5,0,1,0.5,0,0.5,0,1","1","false",""
"","html-keyboard-response","297","328539","0.0-347.0","3RWE2M8QWIWEZN9IZL6G04LOBM3N0E","A21QUJTIIAOX2W","37SDSEDIN9ORHL92Y0GV7TIFJ2X187","","null","<img src=""img/food4.png"" style=""width:200px; border:14px solid green;"">","null","","","","","","","","","",""
"","image-keyboard-response","298","329075","0.0-349.0","3RWE2M8QWIWEZN9IZL6G04LOBM3N0E","A21QUJTIIAOX2W","37SDSEDIN9ORHL92Y0GV7TIFJ2X187","","533.4000000059605","img/food4.png","76","535.5","3","1","3","2","1,0.5,0,1,0.5,0,0.5,0,1","1,0.5,0,1,0.5,0,0.5,0,1","1","false",""
"","html-keyboard-response","299","329382","0.0-350.0","3RWE2M8QWIWEZN9IZL6G04LOBM3N0E","A21QUJTIIAOX2W","37SDSEDIN9ORHL92Y0GV7TIFJ2X187","","null","<img src=""img/food4.png"" style=""width:200px; border:14px solid green;"">","null","","","","","","","","","",""
"","image-keyboard-response","300","329924","0.0-352.0","3RWE2M8QWIWEZN9IZL6G04LOBM3N0E","A21QUJTIIAOX2W","37SDSEDIN9ORHL92Y0GV7TIFJ2X187","","540.5999999940395","img/food2.png","75","541.5","2","1","2","2","1,0.5,0,1,0.5,0,0.5,0,1","1,0.5,0,1,0.5,0,0.5,0,1","1","false",""
"","html-keyboard-response","301","330231","0.0-353.0","3RWE2M8QWIWEZN9IZL6G04LOBM3N0E","A21QUJTIIAOX2W","37SDSEDIN9ORHL92Y0GV7TIFJ2X187","","null","<img src=""img/food2.png"" style=""width:200px; border:14px solid green;"">","null","","","","","","","","","",""
"","image-keyboard-response","302","330801","0.0-355.0","3RWE2M8QWIWEZN9IZL6G04LOBM3N0E","A21QUJTIIAOX2W","37SDSEDIN9ORHL92Y0GV7TIFJ2X187","","569.3000000119209","img/food2.png","75","570.4000000059605","2","0","2","2","1,0.5,0,1,0.5,0,0.5,0,1","1,0.5,0,1,0.5,0,0.5,0,1","1","false",""
"","html-keyboard-response","303","331109","0.0-356.0","3RWE2M8QWIWEZN9IZL6G04LOBM3N0E","A21QUJTIIAOX2W","37SDSEDIN9ORHL92Y0GV7TIFJ2X187","","null","<img src=""img/food2.png"" style=""width:200px;border:14px solid red;"">","null","","","","","","","","","",""
"","image-keyboard-response","304","331709","0.0-358.0","3RWE2M8QWIWEZN9IZL6G04LOBM3N0E","A21QUJTIIAOX2W","37SDSEDIN9ORHL92Y0GV7TIFJ2X187","","597.7999999821186","img/food6.png","74","599.8000000119209","1","1","1","2","1,0.5,0,1,0.5,0,0.5,0,1","1,0.5,0,1,0.5,0,0.5,0,1","1","false",""
"","html-keyboard-response","305","332016","0.0-359.0","3RWE2M8QWIWEZN9IZL6G04LOBM3N0E","A21QUJTIIAOX2W","37SDSEDIN9ORHL92Y0GV7TIFJ2X187","","null","<img src=""img/food6.png"" style=""width:200px; border:14px solid green;"">","null","","","","","","","","","",""
"","image-keyboard-response","306","332829","0.0-361.0","3RWE2M8QWIWEZN9IZL6G04LOBM3N0E","A21QUJTIIAOX2W","37SDSEDIN9ORHL92Y0GV7TIFJ2X187","","811.9000000059605","img/food4.png","76","813.1999999880791","3","1","3","2","1,0.5,0,1,0.5,0,0.5,0,1","1,0.5,0,1,0.5,0,0.5,0,1","1","false",""
"","html-keyboard-response","307","333137","0.0-362.0","3RWE2M8QWIWEZN9IZL6G04LOBM3N0E","A21QUJTIIAOX2W","37SDSEDIN9ORHL92Y0GV7TIFJ2X187","","null","<img src=""img/food4.png"" style=""width:200px; border:14px solid green;"">","null","","","","","","","","","",""
"","image-keyboard-response","308","334134","0.0-364.0","3RWE2M8QWIWEZN9IZL6G04LOBM3N0E","A21QUJTIIAOX2W","37SDSEDIN9ORHL92Y0GV7TIFJ2X187","","995.6000000238419","img/food2.png","75","996.6999999880791","2","1","2","2","1,0.5,0,1,0.5,0,0.5,0,1","1,0.5,0,1,0.5,0,0.5,0,1","1","false",""
"","html-keyboard-response","309","334441","0.0-365.0","3RWE2M8QWIWEZN9IZL6G04LOBM3N0E","A21QUJTIIAOX2W","37SDSEDIN9ORHL92Y0GV7TIFJ2X187","","null","<img src=""img/food2.png"" style=""width:200px; border:14px solid green;"">","null","","","","","","","","","",""
"","image-keyboard-response","310","335055","0.0-367.0","3RWE2M8QWIWEZN9IZL6G04LOBM3N0E","A21QUJTIIAOX2W","37SDSEDIN9ORHL92Y0GV7TIFJ2X187","","611.8000000119209","img/food6.png","74","612.9000000059605","1","1","1","2","1,0.5,0,1,0.5,0,0.5,0,1","1,0.5,0,1,0.5,0,0.5,0,1","1","false",""
"","html-keyboard-response","311","335359","0.0-368.0","3RWE2M8QWIWEZN9IZL6G04LOBM3N0E","A21QUJTIIAOX2W","37SDSEDIN9ORHL92Y0GV7TIFJ2X187","","null","<img src=""img/food6.png"" style=""width:200px; border:14px solid green;"">","null","","","","","","","","","",""
"","image-keyboard-response","312","336152","0.0-370.0","3RWE2M8QWIWEZN9IZL6G04LOBM3N0E","A21QUJTIIAOX2W","37SDSEDIN9ORHL92Y0GV7TIFJ2X187","","791.5","img/food6.png","74","792.7999999821186","1","1","1","2","1,0.5,0,1,0.5,0,0.5,0,1","1,0.5,0,1,0.5,0,0.5,0,1","1","false",""
"","html-keyboard-response","313","336459","0.0-371.0","3RWE2M8QWIWEZN9IZL6G04LOBM3N0E","A21QUJTIIAOX2W","37SDSEDIN9ORHL92Y0GV7TIFJ2X187","","null","<img src=""img/food6.png"" style=""width:200px; border:14px solid green;"">","null","","","","","","","","","",""
"","image-keyboard-response","314","337019","0.0-373.0","3RWE2M8QWIWEZN9IZL6G04LOBM3N0E","A21QUJTIIAOX2W","37SDSEDIN9ORHL92Y0GV7TIFJ2X187","","557.0999999940395","img/food4.png","76","558.9000000059605","3","1","3","2","1,0.5,0,1,0.5,0,0.5,0,1","1,0.5,0,1,0.5,0,0.5,0,1","1","false",""
"","html-keyboard-response","315","337324","0.0-374.0","3RWE2M8QWIWEZN9IZL6G04LOBM3N0E","A21QUJTIIAOX2W","37SDSEDIN9ORHL92Y0GV7TIFJ2X187","","null","<img src=""img/food4.png"" style=""width:200px; border:14px solid green;"">","null","","","","","","","","","",""
"","image-keyboard-response","316","337875","0.0-376.0","3RWE2M8QWIWEZN9IZL6G04LOBM3N0E","A21QUJTIIAOX2W","37SDSEDIN9ORHL92Y0GV7TIFJ2X187","","548.7999999821186","img/food4.png","76","550.9000000059605","3","1","3","2","1,0.5,0,1,0.5,0,0.5,0,1","1,0.5,0,1,0.5,0,0.5,0,1","1","false",""
"","html-keyboard-response","317","338182","0.0-377.0","3RWE2M8QWIWEZN9IZL6G04LOBM3N0E","A21QUJTIIAOX2W","37SDSEDIN9ORHL92Y0GV7TIFJ2X187","","null","<img src=""img/food4.png"" style=""width:200px; border:14px solid green;"">","null","","","","","","","","","",""
"","image-keyboard-response","318","338831","0.0-379.0","3RWE2M8QWIWEZN9IZL6G04LOBM3N0E","A21QUJTIIAOX2W","37SDSEDIN9ORHL92Y0GV7TIFJ2X187","","647","img/food2.png","75","648.5","2","1","2","2","1,0.5,0,1,0.5,0,0.5,0,1","1,0.5,0,1,0.5,0,0.5,0,1","1","false",""
"","html-keyboard-response","319","339139","0.0-380.0","3RWE2M8QWIWEZN9IZL6G04LOBM3N0E","A21QUJTIIAOX2W","37SDSEDIN9ORHL92Y0GV7TIFJ2X187","","null","<img src=""img/food2.png"" style=""width:200px; border:14px solid green;"">","null","","","","","","","","","",""
"","image-keyboard-response","320","339850","0.0-382.0","3RWE2M8QWIWEZN9IZL6G04LOBM3N0E","A21QUJTIIAOX2W","37SDSEDIN9ORHL92Y0GV7TIFJ2X187","","708.2999999821186","img/food4.png","74","710.2999999821186","1","0","3","2","1,0.5,0,1,0.5,0,0.5,0,1","1,0.5,0,1,0.5,0,0.5,0,1","1","false",""
"","html-keyboard-response","321","340155","0.0-383.0","3RWE2M8QWIWEZN9IZL6G04LOBM3N0E","A21QUJTIIAOX2W","37SDSEDIN9ORHL92Y0GV7TIFJ2X187","","null","<img src=""img/food4.png"" style=""width:200px;border:14px solid red;"">","null","","","","","","","","","",""
"","image-keyboard-response","322","340906","0.0-385.0","3RWE2M8QWIWEZN9IZL6G04LOBM3N0E","A21QUJTIIAOX2W","37SDSEDIN9ORHL92Y0GV7TIFJ2X187","","749.6999999880791","img/food4.png","74","750.8000000119209","1","0","3","2","1,0.5,0,1,0.5,0,0.5,0,1","1,0.5,0,1,0.5,0,0.5,0,1","1","false",""
"","html-keyboard-response","323","341213","0.0-386.0","3RWE2M8QWIWEZN9IZL6G04LOBM3N0E","A21QUJTIIAOX2W","37SDSEDIN9ORHL92Y0GV7TIFJ2X187","","null","<img src=""img/food4.png"" style=""width:200px;border:14px solid red;"">","null","","","","","","","","","",""
"","image-keyboard-response","324","342219","0.0-388.0","3RWE2M8QWIWEZN9IZL6G04LOBM3N0E","A21QUJTIIAOX2W","37SDSEDIN9ORHL92Y0GV7TIFJ2X187","","","img/food2.png","","1006.4000000059605","-1","0","2","2","1,0.5,0,1,0.5,0,0.5,0,1","1,0.5,0,1,0.5,0,0.5,0,1","1","true",""
"","html-keyboard-response","325","342526","0.0-389.0","3RWE2M8QWIWEZN9IZL6G04LOBM3N0E","A21QUJTIIAOX2W","37SDSEDIN9ORHL92Y0GV7TIFJ2X187","","null","<img src=""img/food2.png"" style=""width:200px;border:14px solid red;"">","null","","","","","","","","","",""
"","html-keyboard-response","326","343647","0.0-390.0-0.0","3RWE2M8QWIWEZN9IZL6G04LOBM3N0E","A21QUJTIIAOX2W","37SDSEDIN9ORHL92Y0GV7TIFJ2X187","","","","","","","","","","","","","",""
"","image-keyboard-response","327","344646","0.0-391.0","3RWE2M8QWIWEZN9IZL6G04LOBM3N0E","A21QUJTIIAOX2W","37SDSEDIN9ORHL92Y0GV7TIFJ2X187","","996","img/food6.png","74","998.2000000178814","1","1","1","2","1,0.5,0,1,0.5,0,0.5,0,1","1,0.5,0,1,0.5,0,0.5,0,1","1","false",""
"","html-keyboard-response","328","344954","0.0-392.0","3RWE2M8QWIWEZN9IZL6G04LOBM3N0E","A21QUJTIIAOX2W","37SDSEDIN9ORHL92Y0GV7TIFJ2X187","","null","<img src=""img/food6.png"" style=""width:200px; border:14px solid green;"">","null","","","","","","","","","",""
"","image-keyboard-response","329","345381","0.0-394.0","3RWE2M8QWIWEZN9IZL6G04LOBM3N0E","A21QUJTIIAOX2W","37SDSEDIN9ORHL92Y0GV7TIFJ2X187","","424.09999999403954","img/food6.png","74","426.19999998807907","1","1","1","2","1,0.5,0,1,0.5,0,0.5,0,1","1,0.5,0,1,0.5,0,0.5,0,1","1","false",""
"","html-keyboard-response","330","345688","0.0-395.0","3RWE2M8QWIWEZN9IZL6G04LOBM3N0E","A21QUJTIIAOX2W","37SDSEDIN9ORHL92Y0GV7TIFJ2X187","","null","<img src=""img/food6.png"" style=""width:200px; border:14px solid green;"">","null","","","","","","","","","",""
"","image-keyboard-response","331","346062","0.0-397.0","3RWE2M8QWIWEZN9IZL6G04LOBM3N0E","A21QUJTIIAOX2W","37SDSEDIN9ORHL92Y0GV7TIFJ2X187","","372.2999999821186","img/food6.png","74","373.7000000178814","1","1","1","2","1,0.5,0,1,0.5,0,0.5,0,1","1,0.5,0,1,0.5,0,0.5,0,1","1","false",""
"","html-keyboard-response","332","346366","0.0-398.0","3RWE2M8QWIWEZN9IZL6G04LOBM3N0E","A21QUJTIIAOX2W","37SDSEDIN9ORHL92Y0GV7TIFJ2X187","","null","<img src=""img/food6.png"" style=""width:200px; border:14px solid green;"">","null","","","","","","","","","",""
"","image-keyboard-response","333","346999","0.0-400.0","3RWE2M8QWIWEZN9IZL6G04LOBM3N0E","A21QUJTIIAOX2W","37SDSEDIN9ORHL92Y0GV7TIFJ2X187","","630.8000000119209","img/food4.png","76","632.6000000238419","3","1","3","2","1,0.5,0,1,0.5,0,0.5,0,1","1,0.5,0,1,0.5,0,0.5,0,1","1","false",""
"","html-keyboard-response","334","347306","0.0-401.0","3RWE2M8QWIWEZN9IZL6G04LOBM3N0E","A21QUJTIIAOX2W","37SDSEDIN9ORHL92Y0GV7TIFJ2X187","","null","<img src=""img/food4.png"" style=""width:200px; border:14px solid green;"">","null","","","","","","","","","",""
"","image-keyboard-response","335","347751","0.0-403.0","3RWE2M8QWIWEZN9IZL6G04LOBM3N0E","A21QUJTIIAOX2W","37SDSEDIN9ORHL92Y0GV7TIFJ2X187","","441.80000001192093","img/food4.png","76","443.89999997615814","3","1","3","2","1,0.5,0,1,0.5,0,0.5,0,1","1,0.5,0,1,0.5,0,0.5,0,1","1","false",""
"","html-keyboard-response","336","348059","0.0-404.0","3RWE2M8QWIWEZN9IZL6G04LOBM3N0E","A21QUJTIIAOX2W","37SDSEDIN9ORHL92Y0GV7TIFJ2X187","","null","<img src=""img/food4.png"" style=""width:200px; border:14px solid green;"">","null","","","","","","","","","",""
"","image-keyboard-response","337","348657","0.0-406.0","3RWE2M8QWIWEZN9IZL6G04LOBM3N0E","A21QUJTIIAOX2W","37SDSEDIN9ORHL92Y0GV7TIFJ2X187","","595.5","img/food6.png","74","597.7000000178814","1","1","1","2","1,0.5,0,1,0.5,0,0.5,0,1","1,0.5,0,1,0.5,0,0.5,0,1","1","false",""
"","html-keyboard-response","338","348962","0.0-407.0","3RWE2M8QWIWEZN9IZL6G04LOBM3N0E","A21QUJTIIAOX2W","37SDSEDIN9ORHL92Y0GV7TIFJ2X187","","null","<img src=""img/food6.png"" style=""width:200px; border:14px solid green;"">","null","","","","","","","","","",""
"","image-keyboard-response","339","349482","0.0-409.0","3RWE2M8QWIWEZN9IZL6G04LOBM3N0E","A21QUJTIIAOX2W","37SDSEDIN9ORHL92Y0GV7TIFJ2X187","","517.6000000238419","img/food4.png","74","518.9000000059605","1","1","3","2","1,0.5,0,1,0.5,0,0.5,0,1","1,0.5,0,1,0.5,0,0.5,0,1","1","false",""
"","html-keyboard-response","340","349788","0.0-410.0","3RWE2M8QWIWEZN9IZL6G04LOBM3N0E","A21QUJTIIAOX2W","37SDSEDIN9ORHL92Y0GV7TIFJ2X187","","null","<img src=""img/food4.png"" style=""width:200px; border:14px solid green;"">","null","","","","","","","","","",""
"","image-keyboard-response","341","350490","0.0-412.0","3RWE2M8QWIWEZN9IZL6G04LOBM3N0E","A21QUJTIIAOX2W","37SDSEDIN9ORHL92Y0GV7TIFJ2X187","","700.8000000119209","img/food2.png","75","701.9000000059605","2","0","2","2","1,0.5,0,1,0.5,0,0.5,0,1","1,0.5,0,1,0.5,0,0.5,0,1","1","false",""
"","html-keyboard-response","342","350794","0.0-413.0","3RWE2M8QWIWEZN9IZL6G04LOBM3N0E","A21QUJTIIAOX2W","37SDSEDIN9ORHL92Y0GV7TIFJ2X187","","null","<img src=""img/food2.png"" style=""width:200px;border:14px solid red;"">","null","","","","","","","","","",""
"","image-keyboard-response","343","351453","0.0-415.0","3RWE2M8QWIWEZN9IZL6G04LOBM3N0E","A21QUJTIIAOX2W","37SDSEDIN9ORHL92Y0GV7TIFJ2X187","","657.3999999761581","img/food6.png","74","658.8000000119209","1","1","1","2","1,0.5,0,1,0.5,0,0.5,0,1","1,0.5,0,1,0.5,0,0.5,0,1","1","false",""
"","html-keyboard-response","344","351758","0.0-416.0","3RWE2M8QWIWEZN9IZL6G04LOBM3N0E","A21QUJTIIAOX2W","37SDSEDIN9ORHL92Y0GV7TIFJ2X187","","null","<img src=""img/food6.png"" style=""width:200px; border:14px solid green;"">","null","","","","","","","","","",""
"","image-keyboard-response","345","352487","0.0-418.0","3RWE2M8QWIWEZN9IZL6G04LOBM3N0E","A21QUJTIIAOX2W","37SDSEDIN9ORHL92Y0GV7TIFJ2X187","","727.5","img/food6.png","74","728.5999999940395","1","1","1","2","1,0.5,0,1,0.5,0,0.5,0,1","1,0.5,0,1,0.5,0,0.5,0,1","1","false",""
"","html-keyboard-response","346","352790","0.0-419.0","3RWE2M8QWIWEZN9IZL6G04LOBM3N0E","A21QUJTIIAOX2W","37SDSEDIN9ORHL92Y0GV7TIFJ2X187","","null","<img src=""img/food6.png"" style=""width:200px; border:14px solid green;"">","null","","","","","","","","","",""
"","image-keyboard-response","347","353597","0.0-421.0","3RWE2M8QWIWEZN9IZL6G04LOBM3N0E","A21QUJTIIAOX2W","37SDSEDIN9ORHL92Y0GV7TIFJ2X187","","803.8000000119209","img/food2.png","76","805.7000000178814","3","0","2","2","1,0.5,0,1,0.5,0,0.5,0,1","1,0.5,0,1,0.5,0,0.5,0,1","1","false",""
"","html-keyboard-response","348","353905","0.0-422.0","3RWE2M8QWIWEZN9IZL6G04LOBM3N0E","A21QUJTIIAOX2W","37SDSEDIN9ORHL92Y0GV7TIFJ2X187","","null","<img src=""img/food2.png"" style=""width:200px;border:14px solid red;"">","null","","","","","","","","","",""
"","image-keyboard-response","349","354300","0.0-424.0","3RWE2M8QWIWEZN9IZL6G04LOBM3N0E","A21QUJTIIAOX2W","37SDSEDIN9ORHL92Y0GV7TIFJ2X187","","393.39999997615814","img/food2.png","75","394.7000000178814","2","1","2","2","1,0.5,0,1,0.5,0,0.5,0,1","1,0.5,0,1,0.5,0,0.5,0,1","1","false",""
"","html-keyboard-response","350","354603","0.0-425.0","3RWE2M8QWIWEZN9IZL6G04LOBM3N0E","A21QUJTIIAOX2W","37SDSEDIN9ORHL92Y0GV7TIFJ2X187","","null","<img src=""img/food2.png"" style=""width:200px; border:14px solid green;"">","null","","","","","","","","","",""
"","image-keyboard-response","351","355165","0.0-427.0","3RWE2M8QWIWEZN9IZL6G04LOBM3N0E","A21QUJTIIAOX2W","37SDSEDIN9ORHL92Y0GV7TIFJ2X187","","559.7000000178814","img/food4.png","76","560.9000000059605","3","1","3","2","1,0.5,0,1,0.5,0,0.5,0,1","1,0.5,0,1,0.5,0,0.5,0,1","1","false",""
"","html-keyboard-response","352","355468","0.0-428.0","3RWE2M8QWIWEZN9IZL6G04LOBM3N0E","A21QUJTIIAOX2W","37SDSEDIN9ORHL92Y0GV7TIFJ2X187","","null","<img src=""img/food4.png"" style=""width:200px; border:14px solid green;"">","null","","","","","","","","","",""
"","image-keyboard-response","353","355910","0.0-430.0","3RWE2M8QWIWEZN9IZL6G04LOBM3N0E","A21QUJTIIAOX2W","37SDSEDIN9ORHL92Y0GV7TIFJ2X187","","440.7999999821186","img/food4.png","76","442","3","1","3","2","1,0.5,0,1,0.5,0,0.5,0,1","1,0.5,0,1,0.5,0,0.5,0,1","1","false",""
"","html-keyboard-response","354","356216","0.0-431.0","3RWE2M8QWIWEZN9IZL6G04LOBM3N0E","A21QUJTIIAOX2W","37SDSEDIN9ORHL92Y0GV7TIFJ2X187","","null","<img src=""img/food4.png"" style=""width:200px; border:14px solid green;"">","null","","","","","","","","","",""
"","image-keyboard-response","355","356709","0.0-433.0","3RWE2M8QWIWEZN9IZL6G04LOBM3N0E","A21QUJTIIAOX2W","37SDSEDIN9ORHL92Y0GV7TIFJ2X187","","491.5","img/food6.png","74","492.59999999403954","1","1","1","2","1,0.5,0,1,0.5,0,0.5,0,1","1,0.5,0,1,0.5,0,0.5,0,1","1","false",""
"","html-keyboard-response","356","357017","0.0-434.0","3RWE2M8QWIWEZN9IZL6G04LOBM3N0E","A21QUJTIIAOX2W","37SDSEDIN9ORHL92Y0GV7TIFJ2X187","","null","<img src=""img/food6.png"" style=""width:200px; border:14px solid green;"">","null","","","","","","","","","",""
"","image-keyboard-response","357","357912","0.0-436.0","3RWE2M8QWIWEZN9IZL6G04LOBM3N0E","A21QUJTIIAOX2W","37SDSEDIN9ORHL92Y0GV7TIFJ2X187","","891.9000000059605","img/food4.png","76","893.8000000119209","3","1","3","2","1,0.5,0,1,0.5,0,0.5,0,1","1,0.5,0,1,0.5,0,0.5,0,1","1","false",""
"","html-keyboard-response","358","358220","0.0-437.0","3RWE2M8QWIWEZN9IZL6G04LOBM3N0E","A21QUJTIIAOX2W","37SDSEDIN9ORHL92Y0GV7TIFJ2X187","","null","<img src=""img/food4.png"" style=""width:200px; border:14px solid green;"">","null","","","","","","","","","",""
"","image-keyboard-response","359","358930","0.0-439.0","3RWE2M8QWIWEZN9IZL6G04LOBM3N0E","A21QUJTIIAOX2W","37SDSEDIN9ORHL92Y0GV7TIFJ2X187","","707","img/food2.png","74","709.1999999880791","1","1","2","2","1,0.5,0,1,0.5,0,0.5,0,1","1,0.5,0,1,0.5,0,0.5,0,1","1","false",""
"","html-keyboard-response","360","359232","0.0-440.0","3RWE2M8QWIWEZN9IZL6G04LOBM3N0E","A21QUJTIIAOX2W","37SDSEDIN9ORHL92Y0GV7TIFJ2X187","","null","<img src=""img/food2.png"" style=""width:200px; border:14px solid green;"">","null","","","","","","","","","",""
"","image-keyboard-response","361","359966","0.0-442.0","3RWE2M8QWIWEZN9IZL6G04LOBM3N0E","A21QUJTIIAOX2W","37SDSEDIN9ORHL92Y0GV7TIFJ2X187","","732.4000000059605","img/food4.png","76","733.5","3","1","3","2","1,0.5,0,1,0.5,0,0.5,0,1","1,0.5,0,1,0.5,0,0.5,0,1","1","false",""
"","html-keyboard-response","362","360273","0.0-443.0","3RWE2M8QWIWEZN9IZL6G04LOBM3N0E","A21QUJTIIAOX2W","37SDSEDIN9ORHL92Y0GV7TIFJ2X187","","null","<img src=""img/food4.png"" style=""width:200px; border:14px solid green;"">","null","","","","","","","","","",""
"","image-keyboard-response","363","361281","0.0-445.0","3RWE2M8QWIWEZN9IZL6G04LOBM3N0E","A21QUJTIIAOX2W","37SDSEDIN9ORHL92Y0GV7TIFJ2X187","","","img/food2.png","","1006.5999999940395","-1","0","2","2","1,0.5,0,1,0.5,0,0.5,0,1","1,0.5,0,1,0.5,0,0.5,0,1","1","true",""
"","html-keyboard-response","364","361588","0.0-446.0","3RWE2M8QWIWEZN9IZL6G04LOBM3N0E","A21QUJTIIAOX2W","37SDSEDIN9ORHL92Y0GV7TIFJ2X187","","null","<img src=""img/food2.png"" style=""width:200px;border:14px solid red;"">","null","","","","","","","","","",""
"","html-keyboard-response","365","364565","0.0-447.0-0.0","3RWE2M8QWIWEZN9IZL6G04LOBM3N0E","A21QUJTIIAOX2W","37SDSEDIN9ORHL92Y0GV7TIFJ2X187","","","","","","","","","","","","","",""
"","image-keyboard-response","366","365295","0.0-448.0","3RWE2M8QWIWEZN9IZL6G04LOBM3N0E","A21QUJTIIAOX2W","37SDSEDIN9ORHL92Y0GV7TIFJ2X187","","728","img/food6.png","74","730.1000000238419","1","1","1","2","1,0.5,0,1,0.5,0,0.5,0,1","1,0.5,0,1,0.5,0,0.5,0,1","1","false",""
"","html-keyboard-response","367","365604","0.0-449.0","3RWE2M8QWIWEZN9IZL6G04LOBM3N0E","A21QUJTIIAOX2W","37SDSEDIN9ORHL92Y0GV7TIFJ2X187","","null","<img src=""img/food6.png"" style=""width:200px; border:14px solid green;"">","null","","","","","","","","","",""
"","image-keyboard-response","368","366024","0.0-451.0","3RWE2M8QWIWEZN9IZL6G04LOBM3N0E","A21QUJTIIAOX2W","37SDSEDIN9ORHL92Y0GV7TIFJ2X187","","417.5","img/food6.png","74","419.5","1","1","1","2","1,0.5,0,1,0.5,0,0.5,0,1","1,0.5,0,1,0.5,0,0.5,0,1","1","false",""
"","html-keyboard-response","369","366331","0.0-452.0","3RWE2M8QWIWEZN9IZL6G04LOBM3N0E","A21QUJTIIAOX2W","37SDSEDIN9ORHL92Y0GV7TIFJ2X187","","null","<img src=""img/food6.png"" style=""width:200px; border:14px solid green;"">","null","","","","","","","","","",""
"","instructions","370","368331","0.0-454.0","3RWE2M8QWIWEZN9IZL6G04LOBM3N0E","A21QUJTIIAOX2W","37SDSEDIN9ORHL92Y0GV7TIFJ2X187","[{""page_index"":0,""viewing_time"":1997.800000011921}]","1998.199999988079","","","","","","","","","","","",""
