"success","trial_type","trial_index","time_elapsed","internal_node_id","assignmentID","mturkID","hitID","view_history","rt","stimulus","key_press","reactionTime","a","r","s","cond","reward_cond","reward_cond_actual","reward_matrix_idx","warning","responses"
"true","fullscreen","0","3990","0.0-0.0","3QRYMNZ7FZ3FFW69XNUQKFNT70FNTA","A22LRKFP5S22GR","3THR0FZ95PF7SK0MYRNAOUHTWA4OLV","","","","","","","","","","","","","",""
"","instructions","1","34067","0.0-1.0","3QRYMNZ7FZ3FFW69XNUQKFNT70FNTA","A22LRKFP5S22GR","3THR0FZ95PF7SK0MYRNAOUHTWA4OLV","[{""page_index"":0,""viewing_time"":3155},{""page_index"":1,""viewing_time"":2786},{""page_index"":2,""viewing_time"":1577},{""page_index"":3,""viewing_time"":9790},{""page_index"":4,""viewing_time"":5239},{""page_index"":5,""viewing_time"":4165},{""page_index"":6,""viewing_time"":3362}]","30075","","","","","","","","","","","",""
"","image-keyboard-response","2","35791","0.0-2.0","3QRYMNZ7FZ3FFW69XNUQKFNT70FNTA","A22LRKFP5S22GR","3THR0FZ95PF7SK0MYRNAOUHTWA4OLV","","1722","img/food4.png","75","1724","2","0","3","1","1,0.7,0,1,0.7,0,0.7,0,1","1,0.7,0,1,0.7,0,0.7,0,1","1","",""
"","html-keyboard-response","3","36097","0.0-3.0","3QRYMNZ7FZ3FFW69XNUQKFNT70FNTA","A22LRKFP5S22GR","3THR0FZ95PF7SK0MYRNAOUHTWA4OLV","","null","<img src=""img/food4.png"" style=""width:200px;border:14px solid red;"">","null","","","","","","","","","",""
"","image-keyboard-response","4","37378","0.0-4.0","3QRYMNZ7FZ3FFW69XNUQKFNT70FNTA","A22LRKFP5S22GR","3THR0FZ95PF7SK0MYRNAOUHTWA4OLV","","1277","img/food6.png","76","1281","3","0","2","1","1,0.7,0,1,0.7,0,0.7,0,1","1,0.7,0,1,0.7,0,0.7,0,1","1","",""
"","html-keyboard-response","5","37681","0.0-5.0","3QRYMNZ7FZ3FFW69XNUQKFNT70FNTA","A22LRKFP5S22GR","3THR0FZ95PF7SK0MYRNAOUHTWA4OLV","","null","<img src=""img/food6.png"" style=""width:200px;border:14px solid red;"">","null","","","","","","","","","",""
"","image-keyboard-response","6","38920","0.0-6.0","3QRYMNZ7FZ3FFW69XNUQKFNT70FNTA","A22LRKFP5S22GR","3THR0FZ95PF7SK0MYRNAOUHTWA4OLV","","1237","img/food1.png","74","1238","1","1","1","1","1,0.7,0,1,0.7,0,0.7,0,1","1,0.7,0,1,0.7,0,0.7,0,1","1","",""
"","html-keyboard-response","7","39227","0.0-7.0","3QRYMNZ7FZ3FFW69XNUQKFNT70FNTA","A22LRKFP5S22GR","3THR0FZ95PF7SK0MYRNAOUHTWA4OLV","","null","<img src=""img/food1.png"" style=""width:200px; border:14px solid green;"">","null","","","","","","","","","",""
"","image-keyboard-response","8","40779","0.0-8.0","3QRYMNZ7FZ3FFW69XNUQKFNT70FNTA","A22LRKFP5S22GR","3THR0FZ95PF7SK0MYRNAOUHTWA4OLV","","1550","img/food6.png","75","1552","2","0","2","1","1,0.7,0,1,0.7,0,0.7,0,1","1,0.7,0,1,0.7,0,0.7,0,1","1","",""
"","html-keyboard-response","9","41089","0.0-9.0","3QRYMNZ7FZ3FFW69XNUQKFNT70FNTA","A22LRKFP5S22GR","3THR0FZ95PF7SK0MYRNAOUHTWA4OLV","","null","<img src=""img/food6.png"" style=""width:200px;border:14px solid red;"">","null","","","","","","","","","",""
"","image-keyboard-response","10","42233","0.0-10.0","3QRYMNZ7FZ3FFW69XNUQKFNT70FNTA","A22LRKFP5S22GR","3THR0FZ95PF7SK0MYRNAOUHTWA4OLV","","1143","img/food6.png","74","1144","1","1","2","1","1,0.7,0,1,0.7,0,0.7,0,1","1,0.7,0,1,0.7,0,0.7,0,1","1","",""
"","html-keyboard-response","11","42538","0.0-11.0","3QRYMNZ7FZ3FFW69XNUQKFNT70FNTA","A22LRKFP5S22GR","3THR0FZ95PF7SK0MYRNAOUHTWA4OLV","","null","<img src=""img/food6.png"" style=""width:200px; border:14px solid green;"">","null","","","","","","","","","",""
"","image-keyboard-response","12","44669","0.0-12.0","3QRYMNZ7FZ3FFW69XNUQKFNT70FNTA","A22LRKFP5S22GR","3THR0FZ95PF7SK0MYRNAOUHTWA4OLV","","2130","img/food4.png","76","2131","3","1","3","1","1,0.7,0,1,0.7,0,0.7,0,1","1,0.7,0,1,0.7,0,0.7,0,1","1","",""
"","html-keyboard-response","13","44970","0.0-13.0","3QRYMNZ7FZ3FFW69XNUQKFNT70FNTA","A22LRKFP5S22GR","3THR0FZ95PF7SK0MYRNAOUHTWA4OLV","","null","<img src=""img/food4.png"" style=""width:200px; border:14px solid green;"">","null","","","","","","","","","",""
"","image-keyboard-response","14","46668","0.0-14.0","3QRYMNZ7FZ3FFW69XNUQKFNT70FNTA","A22LRKFP5S22GR","3THR0FZ95PF7SK0MYRNAOUHTWA4OLV","","1696","img/food6.png","74","1698","1","1","2","1","1,0.7,0,1,0.7,0,0.7,0,1","1,0.7,0,1,0.7,0,0.7,0,1","1","",""
"","html-keyboard-response","15","46971","0.0-15.0","3QRYMNZ7FZ3FFW69XNUQKFNT70FNTA","A22LRKFP5S22GR","3THR0FZ95PF7SK0MYRNAOUHTWA4OLV","","null","<img src=""img/food6.png"" style=""width:200px; border:14px solid green;"">","null","","","","","","","","","",""
"","image-keyboard-response","16","48552","0.0-16.0","3QRYMNZ7FZ3FFW69XNUQKFNT70FNTA","A22LRKFP5S22GR","3THR0FZ95PF7SK0MYRNAOUHTWA4OLV","","1579","img/food4.png","76","1581","3","1","3","1","1,0.7,0,1,0.7,0,0.7,0,1","1,0.7,0,1,0.7,0,0.7,0,1","1","",""
"","html-keyboard-response","17","48854","0.0-17.0","3QRYMNZ7FZ3FFW69XNUQKFNT70FNTA","A22LRKFP5S22GR","3THR0FZ95PF7SK0MYRNAOUHTWA4OLV","","null","<img src=""img/food4.png"" style=""width:200px; border:14px solid green;"">","null","","","","","","","","","",""
"","image-keyboard-response","18","50702","0.0-18.0","3QRYMNZ7FZ3FFW69XNUQKFNT70FNTA","A22LRKFP5S22GR","3THR0FZ95PF7SK0MYRNAOUHTWA4OLV","","1847","img/food4.png","76","1848","3","1","3","1","1,0.7,0,1,0.7,0,0.7,0,1","1,0.7,0,1,0.7,0,0.7,0,1","1","",""
"","html-keyboard-response","19","51006","0.0-19.0","3QRYMNZ7FZ3FFW69XNUQKFNT70FNTA","A22LRKFP5S22GR","3THR0FZ95PF7SK0MYRNAOUHTWA4OLV","","null","<img src=""img/food4.png"" style=""width:200px; border:14px solid green;"">","null","","","","","","","","","",""
"","image-keyboard-response","20","52372","0.0-20.0","3QRYMNZ7FZ3FFW69XNUQKFNT70FNTA","A22LRKFP5S22GR","3THR0FZ95PF7SK0MYRNAOUHTWA4OLV","","1364","img/food4.png","76","1366","3","1","3","1","1,0.7,0,1,0.7,0,0.7,0,1","1,0.7,0,1,0.7,0,0.7,0,1","1","",""
"","html-keyboard-response","21","52681","0.0-21.0","3QRYMNZ7FZ3FFW69XNUQKFNT70FNTA","A22LRKFP5S22GR","3THR0FZ95PF7SK0MYRNAOUHTWA4OLV","","null","<img src=""img/food4.png"" style=""width:200px; border:14px solid green;"">","null","","","","","","","","","",""
"","image-keyboard-response","22","53569","0.0-22.0","3QRYMNZ7FZ3FFW69XNUQKFNT70FNTA","A22LRKFP5S22GR","3THR0FZ95PF7SK0MYRNAOUHTWA4OLV","","888","img/food1.png","74","888","1","1","1","1","1,0.7,0,1,0.7,0,0.7,0,1","1,0.7,0,1,0.7,0,0.7,0,1","1","",""
"","html-keyboard-response","23","53870","0.0-23.0","3QRYMNZ7FZ3FFW69XNUQKFNT70FNTA","A22LRKFP5S22GR","3THR0FZ95PF7SK0MYRNAOUHTWA4OLV","","null","<img src=""img/food1.png"" style=""width:200px; border:14px solid green;"">","null","","","","","","","","","",""
"","image-keyboard-response","24","54853","0.0-24.0","3QRYMNZ7FZ3FFW69XNUQKFNT70FNTA","A22LRKFP5S22GR","3THR0FZ95PF7SK0MYRNAOUHTWA4OLV","","982","img/food6.png","76","983","3","0","2","1","1,0.7,0,1,0.7,0,0.7,0,1","1,0.7,0,1,0.7,0,0.7,0,1","1","",""
"","html-keyboard-response","25","55154","0.0-25.0","3QRYMNZ7FZ3FFW69XNUQKFNT70FNTA","A22LRKFP5S22GR","3THR0FZ95PF7SK0MYRNAOUHTWA4OLV","","null","<img src=""img/food6.png"" style=""width:200px;border:14px solid red;"">","null","","","","","","","","","",""
"","image-keyboard-response","26","56479","0.0-26.0","3QRYMNZ7FZ3FFW69XNUQKFNT70FNTA","A22LRKFP5S22GR","3THR0FZ95PF7SK0MYRNAOUHTWA4OLV","","1323","img/food1.png","74","1325","1","1","1","1","1,0.7,0,1,0.7,0,0.7,0,1","1,0.7,0,1,0.7,0,0.7,0,1","1","",""
"","html-keyboard-response","27","56784","0.0-27.0","3QRYMNZ7FZ3FFW69XNUQKFNT70FNTA","A22LRKFP5S22GR","3THR0FZ95PF7SK0MYRNAOUHTWA4OLV","","null","<img src=""img/food1.png"" style=""width:200px; border:14px solid green;"">","null","","","","","","","","","",""
"","image-keyboard-response","28","57743","0.0-28.0","3QRYMNZ7FZ3FFW69XNUQKFNT70FNTA","A22LRKFP5S22GR","3THR0FZ95PF7SK0MYRNAOUHTWA4OLV","","956","img/food6.png","75","958","2","1","2","1","1,0.7,0,1,0.7,0,0.7,0,1","1,0.7,0,1,0.7,0,0.7,0,1","1","",""
"","html-keyboard-response","29","58047","0.0-29.0","3QRYMNZ7FZ3FFW69XNUQKFNT70FNTA","A22LRKFP5S22GR","3THR0FZ95PF7SK0MYRNAOUHTWA4OLV","","null","<img src=""img/food6.png"" style=""width:200px; border:14px solid green;"">","null","","","","","","","","","",""
"","image-keyboard-response","30","58962","0.0-30.0","3QRYMNZ7FZ3FFW69XNUQKFNT70FNTA","A22LRKFP5S22GR","3THR0FZ95PF7SK0MYRNAOUHTWA4OLV","","912","img/food6.png","75","913","2","0","2","1","1,0.7,0,1,0.7,0,0.7,0,1","1,0.7,0,1,0.7,0,0.7,0,1","1","",""
"","html-keyboard-response","31","59272","0.0-31.0","3QRYMNZ7FZ3FFW69XNUQKFNT70FNTA","A22LRKFP5S22GR","3THR0FZ95PF7SK0MYRNAOUHTWA4OLV","","null","<img src=""img/food6.png"" style=""width:200px;border:14px solid red;"">","null","","","","","","","","","",""
"","image-keyboard-response","32","61063","0.0-32.0","3QRYMNZ7FZ3FFW69XNUQKFNT70FNTA","A22LRKFP5S22GR","3THR0FZ95PF7SK0MYRNAOUHTWA4OLV","","1789","img/food6.png","75","1791","2","0","2","1","1,0.7,0,1,0.7,0,0.7,0,1","1,0.7,0,1,0.7,0,0.7,0,1","1","",""
"","html-keyboard-response","33","61367","0.0-33.0","3QRYMNZ7FZ3FFW69XNUQKFNT70FNTA","A22LRKFP5S22GR","3THR0FZ95PF7SK0MYRNAOUHTWA4OLV","","null","<img src=""img/food6.png"" style=""width:200px;border:14px solid red;"">","null","","","","","","","","","",""
"","image-keyboard-response","34","62789","0.0-34.0","3QRYMNZ7FZ3FFW69XNUQKFNT70FNTA","A22LRKFP5S22GR","3THR0FZ95PF7SK0MYRNAOUHTWA4OLV","","1420","img/food6.png","76","1421","3","0","2","1","1,0.7,0,1,0.7,0,0.7,0,1","1,0.7,0,1,0.7,0,0.7,0,1","1","",""
"","html-keyboard-response","35","63097","0.0-35.0","3QRYMNZ7FZ3FFW69XNUQKFNT70FNTA","A22LRKFP5S22GR","3THR0FZ95PF7SK0MYRNAOUHTWA4OLV","","null","<img src=""img/food6.png"" style=""width:200px;border:14px solid red;"">","null","","","","","","","","","",""
"","image-keyboard-response","36","64293","0.0-36.0","3QRYMNZ7FZ3FFW69XNUQKFNT70FNTA","A22LRKFP5S22GR","3THR0FZ95PF7SK0MYRNAOUHTWA4OLV","","1195","img/food4.png","76","1196","3","1","3","1","1,0.7,0,1,0.7,0,0.7,0,1","1,0.7,0,1,0.7,0,0.7,0,1","1","",""
"","html-keyboard-response","37","64596","0.0-37.0","3QRYMNZ7FZ3FFW69XNUQKFNT70FNTA","A22LRKFP5S22GR","3THR0FZ95PF7SK0MYRNAOUHTWA4OLV","","null","<img src=""img/food4.png"" style=""width:200px; border:14px solid green;"">","null","","","","","","","","","",""
"","image-keyboard-response","38","65953","0.0-38.0","3QRYMNZ7FZ3FFW69XNUQKFNT70FNTA","A22LRKFP5S22GR","3THR0FZ95PF7SK0MYRNAOUHTWA4OLV","","1356","img/food6.png","74","1357","1","1","2","1","1,0.7,0,1,0.7,0,0.7,0,1","1,0.7,0,1,0.7,0,0.7,0,1","1","",""
"","html-keyboard-response","39","66259","0.0-39.0","3QRYMNZ7FZ3FFW69XNUQKFNT70FNTA","A22LRKFP5S22GR","3THR0FZ95PF7SK0MYRNAOUHTWA4OLV","","null","<img src=""img/food6.png"" style=""width:200px; border:14px solid green;"">","null","","","","","","","","","",""
"","image-keyboard-response","40","67416","0.0-40.0","3QRYMNZ7FZ3FFW69XNUQKFNT70FNTA","A22LRKFP5S22GR","3THR0FZ95PF7SK0MYRNAOUHTWA4OLV","","1155","img/food1.png","74","1156","1","1","1","1","1,0.7,0,1,0.7,0,0.7,0,1","1,0.7,0,1,0.7,0,0.7,0,1","1","",""
"","html-keyboard-response","41","67723","0.0-41.0","3QRYMNZ7FZ3FFW69XNUQKFNT70FNTA","A22LRKFP5S22GR","3THR0FZ95PF7SK0MYRNAOUHTWA4OLV","","null","<img src=""img/food1.png"" style=""width:200px; border:14px solid green;"">","null","","","","","","","","","",""
"","image-keyboard-response","42","69030","0.0-42.0","3QRYMNZ7FZ3FFW69XNUQKFNT70FNTA","A22LRKFP5S22GR","3THR0FZ95PF7SK0MYRNAOUHTWA4OLV","","1306","img/food4.png","76","1307","3","1","3","1","1,0.7,0,1,0.7,0,0.7,0,1","1,0.7,0,1,0.7,0,0.7,0,1","1","",""
"","html-keyboard-response","43","69335","0.0-43.0","3QRYMNZ7FZ3FFW69XNUQKFNT70FNTA","A22LRKFP5S22GR","3THR0FZ95PF7SK0MYRNAOUHTWA4OLV","","null","<img src=""img/food4.png"" style=""width:200px; border:14px solid green;"">","null","","","","","","","","","",""
"","image-keyboard-response","44","70247","0.0-44.0","3QRYMNZ7FZ3FFW69XNUQKFNT70FNTA","A22LRKFP5S22GR","3THR0FZ95PF7SK0MYRNAOUHTWA4OLV","","911","img/food6.png","74","912","1","1","2","1","1,0.7,0,1,0.7,0,0.7,0,1","1,0.7,0,1,0.7,0,0.7,0,1","1","",""
"","html-keyboard-response","45","70550","0.0-45.0","3QRYMNZ7FZ3FFW69XNUQKFNT70FNTA","A22LRKFP5S22GR","3THR0FZ95PF7SK0MYRNAOUHTWA4OLV","","null","<img src=""img/food6.png"" style=""width:200px; border:14px solid green;"">","null","","","","","","","","","",""
"","image-keyboard-response","46","71604","0.0-46.0","3QRYMNZ7FZ3FFW69XNUQKFNT70FNTA","A22LRKFP5S22GR","3THR0FZ95PF7SK0MYRNAOUHTWA4OLV","","1053","img/food4.png","76","1054","3","1","3","1","1,0.7,0,1,0.7,0,0.7,0,1","1,0.7,0,1,0.7,0,0.7,0,1","1","",""
"","html-keyboard-response","47","71906","0.0-47.0","3QRYMNZ7FZ3FFW69XNUQKFNT70FNTA","A22LRKFP5S22GR","3THR0FZ95PF7SK0MYRNAOUHTWA4OLV","","null","<img src=""img/food4.png"" style=""width:200px; border:14px solid green;"">","null","","","","","","","","","",""
"","image-keyboard-response","48","72875","0.0-48.0","3QRYMNZ7FZ3FFW69XNUQKFNT70FNTA","A22LRKFP5S22GR","3THR0FZ95PF7SK0MYRNAOUHTWA4OLV","","968","img/food1.png","74","969","1","1","1","1","1,0.7,0,1,0.7,0,0.7,0,1","1,0.7,0,1,0.7,0,0.7,0,1","1","",""
"","html-keyboard-response","49","73178","0.0-49.0","3QRYMNZ7FZ3FFW69XNUQKFNT70FNTA","A22LRKFP5S22GR","3THR0FZ95PF7SK0MYRNAOUHTWA4OLV","","null","<img src=""img/food1.png"" style=""width:200px; border:14px solid green;"">","null","","","","","","","","","",""
"","image-keyboard-response","50","74191","0.0-50.0","3QRYMNZ7FZ3FFW69XNUQKFNT70FNTA","A22LRKFP5S22GR","3THR0FZ95PF7SK0MYRNAOUHTWA4OLV","","1012","img/food4.png","76","1013","3","1","3","1","1,0.7,0,1,0.7,0,0.7,0,1","1,0.7,0,1,0.7,0,0.7,0,1","1","",""
"","html-keyboard-response","51","74494","0.0-51.0","3QRYMNZ7FZ3FFW69XNUQKFNT70FNTA","A22LRKFP5S22GR","3THR0FZ95PF7SK0MYRNAOUHTWA4OLV","","null","<img src=""img/food4.png"" style=""width:200px; border:14px solid green;"">","null","","","","","","","","","",""
"","image-keyboard-response","52","75939","0.0-52.0","3QRYMNZ7FZ3FFW69XNUQKFNT70FNTA","A22LRKFP5S22GR","3THR0FZ95PF7SK0MYRNAOUHTWA4OLV","","1444","img/food4.png","76","1445","3","1","3","1","1,0.7,0,1,0.7,0,0.7,0,1","1,0.7,0,1,0.7,0,0.7,0,1","1","",""
"","html-keyboard-response","53","76243","0.0-53.0","3QRYMNZ7FZ3FFW69XNUQKFNT70FNTA","A22LRKFP5S22GR","3THR0FZ95PF7SK0MYRNAOUHTWA4OLV","","null","<img src=""img/food4.png"" style=""width:200px; border:14px solid green;"">","null","","","","","","","","","",""
"","image-keyboard-response","54","77279","0.0-54.0","3QRYMNZ7FZ3FFW69XNUQKFNT70FNTA","A22LRKFP5S22GR","3THR0FZ95PF7SK0MYRNAOUHTWA4OLV","","1036","img/food1.png","74","1036","1","1","1","1","1,0.7,0,1,0.7,0,0.7,0,1","1,0.7,0,1,0.7,0,0.7,0,1","1","",""
"","html-keyboard-response","55","77583","0.0-55.0","3QRYMNZ7FZ3FFW69XNUQKFNT70FNTA","A22LRKFP5S22GR","3THR0FZ95PF7SK0MYRNAOUHTWA4OLV","","null","<img src=""img/food1.png"" style=""width:200px; border:14px solid green;"">","null","","","","","","","","","",""
"","image-keyboard-response","56","78665","0.0-56.0","3QRYMNZ7FZ3FFW69XNUQKFNT70FNTA","A22LRKFP5S22GR","3THR0FZ95PF7SK0MYRNAOUHTWA4OLV","","1078","img/food1.png","74","1082","1","1","1","1","1,0.7,0,1,0.7,0,0.7,0,1","1,0.7,0,1,0.7,0,0.7,0,1","1","",""
"","html-keyboard-response","57","78971","0.0-57.0","3QRYMNZ7FZ3FFW69XNUQKFNT70FNTA","A22LRKFP5S22GR","3THR0FZ95PF7SK0MYRNAOUHTWA4OLV","","null","<img src=""img/food1.png"" style=""width:200px; border:14px solid green;"">","null","","","","","","","","","",""
"","image-keyboard-response","58","79973","0.0-58.0","3QRYMNZ7FZ3FFW69XNUQKFNT70FNTA","A22LRKFP5S22GR","3THR0FZ95PF7SK0MYRNAOUHTWA4OLV","","1001","img/food6.png","76","1002","3","0","2","1","1,0.7,0,1,0.7,0,0.7,0,1","1,0.7,0,1,0.7,0,0.7,0,1","1","",""
"","html-keyboard-response","59","80279","0.0-59.0","3QRYMNZ7FZ3FFW69XNUQKFNT70FNTA","A22LRKFP5S22GR","3THR0FZ95PF7SK0MYRNAOUHTWA4OLV","","null","<img src=""img/food6.png"" style=""width:200px;border:14px solid red;"">","null","","","","","","","","","",""
"","image-keyboard-response","60","82100","0.0-60.0","3QRYMNZ7FZ3FFW69XNUQKFNT70FNTA","A22LRKFP5S22GR","3THR0FZ95PF7SK0MYRNAOUHTWA4OLV","","1820","img/food6.png","75","1821","2","1","2","1","1,0.7,0,1,0.7,0,0.7,0,1","1,0.7,0,1,0.7,0,0.7,0,1","1","",""
"","html-keyboard-response","61","82404","0.0-61.0","3QRYMNZ7FZ3FFW69XNUQKFNT70FNTA","A22LRKFP5S22GR","3THR0FZ95PF7SK0MYRNAOUHTWA4OLV","","null","<img src=""img/food6.png"" style=""width:200px; border:14px solid green;"">","null","","","","","","","","","",""
"","image-keyboard-response","62","83769","0.0-62.0","3QRYMNZ7FZ3FFW69XNUQKFNT70FNTA","A22LRKFP5S22GR","3THR0FZ95PF7SK0MYRNAOUHTWA4OLV","","1363","img/food6.png","75","1365","2","0","2","1","1,0.7,0,1,0.7,0,0.7,0,1","1,0.7,0,1,0.7,0,0.7,0,1","1","",""
"","html-keyboard-response","63","84074","0.0-63.0","3QRYMNZ7FZ3FFW69XNUQKFNT70FNTA","A22LRKFP5S22GR","3THR0FZ95PF7SK0MYRNAOUHTWA4OLV","","null","<img src=""img/food6.png"" style=""width:200px;border:14px solid red;"">","null","","","","","","","","","",""
"","image-keyboard-response","64","85122","0.0-64.0","3QRYMNZ7FZ3FFW69XNUQKFNT70FNTA","A22LRKFP5S22GR","3THR0FZ95PF7SK0MYRNAOUHTWA4OLV","","1046","img/food4.png","76","1048","3","1","3","1","1,0.7,0,1,0.7,0,0.7,0,1","1,0.7,0,1,0.7,0,0.7,0,1","1","",""
"","html-keyboard-response","65","85425","0.0-65.0","3QRYMNZ7FZ3FFW69XNUQKFNT70FNTA","A22LRKFP5S22GR","3THR0FZ95PF7SK0MYRNAOUHTWA4OLV","","null","<img src=""img/food4.png"" style=""width:200px; border:14px solid green;"">","null","","","","","","","","","",""
"","image-keyboard-response","66","86972","0.0-66.0","3QRYMNZ7FZ3FFW69XNUQKFNT70FNTA","A22LRKFP5S22GR","3THR0FZ95PF7SK0MYRNAOUHTWA4OLV","","1546","img/food1.png","74","1547","1","1","1","1","1,0.7,0,1,0.7,0,0.7,0,1","1,0.7,0,1,0.7,0,0.7,0,1","1","",""
"","html-keyboard-response","67","87276","0.0-67.0","3QRYMNZ7FZ3FFW69XNUQKFNT70FNTA","A22LRKFP5S22GR","3THR0FZ95PF7SK0MYRNAOUHTWA4OLV","","null","<img src=""img/food1.png"" style=""width:200px; border:14px solid green;"">","null","","","","","","","","","",""
"","image-keyboard-response","68","88413","0.0-68.0","3QRYMNZ7FZ3FFW69XNUQKFNT70FNTA","A22LRKFP5S22GR","3THR0FZ95PF7SK0MYRNAOUHTWA4OLV","","1134","img/food1.png","74","1137","1","1","1","1","1,0.7,0,1,0.7,0,0.7,0,1","1,0.7,0,1,0.7,0,0.7,0,1","1","",""
"","html-keyboard-response","69","88721","0.0-69.0","3QRYMNZ7FZ3FFW69XNUQKFNT70FNTA","A22LRKFP5S22GR","3THR0FZ95PF7SK0MYRNAOUHTWA4OLV","","null","<img src=""img/food1.png"" style=""width:200px; border:14px solid green;"">","null","","","","","","","","","",""
"","image-keyboard-response","70","89799","0.0-70.0","3QRYMNZ7FZ3FFW69XNUQKFNT70FNTA","A22LRKFP5S22GR","3THR0FZ95PF7SK0MYRNAOUHTWA4OLV","","1076","img/food4.png","76","1078","3","1","3","1","1,0.7,0,1,0.7,0,0.7,0,1","1,0.7,0,1,0.7,0,0.7,0,1","1","",""
"","html-keyboard-response","71","90100","0.0-71.0","3QRYMNZ7FZ3FFW69XNUQKFNT70FNTA","A22LRKFP5S22GR","3THR0FZ95PF7SK0MYRNAOUHTWA4OLV","","null","<img src=""img/food4.png"" style=""width:200px; border:14px solid green;"">","null","","","","","","","","","",""
"","image-keyboard-response","72","91172","0.0-72.0","3QRYMNZ7FZ3FFW69XNUQKFNT70FNTA","A22LRKFP5S22GR","3THR0FZ95PF7SK0MYRNAOUHTWA4OLV","","1070","img/food1.png","74","1072","1","1","1","1","1,0.7,0,1,0.7,0,0.7,0,1","1,0.7,0,1,0.7,0,0.7,0,1","1","",""
"","html-keyboard-response","73","91476","0.0-73.0","3QRYMNZ7FZ3FFW69XNUQKFNT70FNTA","A22LRKFP5S22GR","3THR0FZ95PF7SK0MYRNAOUHTWA4OLV","","null","<img src=""img/food1.png"" style=""width:200px; border:14px solid green;"">","null","","","","","","","","","",""
"","image-keyboard-response","74","92474","0.0-74.0","3QRYMNZ7FZ3FFW69XNUQKFNT70FNTA","A22LRKFP5S22GR","3THR0FZ95PF7SK0MYRNAOUHTWA4OLV","","998","img/food4.png","76","998","3","1","3","1","1,0.7,0,1,0.7,0,0.7,0,1","1,0.7,0,1,0.7,0,0.7,0,1","1","",""
"","html-keyboard-response","75","92779","0.0-75.0","3QRYMNZ7FZ3FFW69XNUQKFNT70FNTA","A22LRKFP5S22GR","3THR0FZ95PF7SK0MYRNAOUHTWA4OLV","","null","<img src=""img/food4.png"" style=""width:200px; border:14px solid green;"">","null","","","","","","","","","",""
"","image-keyboard-response","76","93938","0.0-76.0","3QRYMNZ7FZ3FFW69XNUQKFNT70FNTA","A22LRKFP5S22GR","3THR0FZ95PF7SK0MYRNAOUHTWA4OLV","","1158","img/food4.png","76","1159","3","1","3","1","1,0.7,0,1,0.7,0,0.7,0,1","1,0.7,0,1,0.7,0,0.7,0,1","1","",""
"","html-keyboard-response","77","94244","0.0-77.0","3QRYMNZ7FZ3FFW69XNUQKFNT70FNTA","A22LRKFP5S22GR","3THR0FZ95PF7SK0MYRNAOUHTWA4OLV","","null","<img src=""img/food4.png"" style=""width:200px; border:14px solid green;"">","null","","","","","","","","","",""
"","image-keyboard-response","78","95245","0.0-78.0","3QRYMNZ7FZ3FFW69XNUQKFNT70FNTA","A22LRKFP5S22GR","3THR0FZ95PF7SK0MYRNAOUHTWA4OLV","","1000","img/food1.png","74","1001","1","1","1","1","1,0.7,0,1,0.7,0,0.7,0,1","1,0.7,0,1,0.7,0,0.7,0,1","1","",""
"","html-keyboard-response","79","95550","0.0-79.0","3QRYMNZ7FZ3FFW69XNUQKFNT70FNTA","A22LRKFP5S22GR","3THR0FZ95PF7SK0MYRNAOUHTWA4OLV","","null","<img src=""img/food1.png"" style=""width:200px; border:14px solid green;"">","null","","","","","","","","","",""
"","image-keyboard-response","80","97067","0.0-80.0","3QRYMNZ7FZ3FFW69XNUQKFNT70FNTA","A22LRKFP5S22GR","3THR0FZ95PF7SK0MYRNAOUHTWA4OLV","","1516","img/food6.png","76","1517","3","0","2","1","1,0.7,0,1,0.7,0,0.7,0,1","1,0.7,0,1,0.7,0,0.7,0,1","1","",""
"","html-keyboard-response","81","97372","0.0-81.0","3QRYMNZ7FZ3FFW69XNUQKFNT70FNTA","A22LRKFP5S22GR","3THR0FZ95PF7SK0MYRNAOUHTWA4OLV","","null","<img src=""img/food6.png"" style=""width:200px;border:14px solid red;"">","null","","","","","","","","","",""
"","image-keyboard-response","82","98768","0.0-82.0","3QRYMNZ7FZ3FFW69XNUQKFNT70FNTA","A22LRKFP5S22GR","3THR0FZ95PF7SK0MYRNAOUHTWA4OLV","","1395","img/food4.png","76","1396","3","1","3","1","1,0.7,0,1,0.7,0,0.7,0,1","1,0.7,0,1,0.7,0,0.7,0,1","1","",""
"","html-keyboard-response","83","99069","0.0-83.0","3QRYMNZ7FZ3FFW69XNUQKFNT70FNTA","A22LRKFP5S22GR","3THR0FZ95PF7SK0MYRNAOUHTWA4OLV","","null","<img src=""img/food4.png"" style=""width:200px; border:14px solid green;"">","null","","","","","","","","","",""
"","image-keyboard-response","84","100321","0.0-84.0","3QRYMNZ7FZ3FFW69XNUQKFNT70FNTA","A22LRKFP5S22GR","3THR0FZ95PF7SK0MYRNAOUHTWA4OLV","","1250","img/food6.png","75","1252","2","1","2","1","1,0.7,0,1,0.7,0,0.7,0,1","1,0.7,0,1,0.7,0,0.7,0,1","1","",""
"","html-keyboard-response","85","100625","0.0-85.0","3QRYMNZ7FZ3FFW69XNUQKFNT70FNTA","A22LRKFP5S22GR","3THR0FZ95PF7SK0MYRNAOUHTWA4OLV","","null","<img src=""img/food6.png"" style=""width:200px; border:14px solid green;"">","null","","","","","","","","","",""
"","image-keyboard-response","86","101800","0.0-86.0","3QRYMNZ7FZ3FFW69XNUQKFNT70FNTA","A22LRKFP5S22GR","3THR0FZ95PF7SK0MYRNAOUHTWA4OLV","","1174","img/food4.png","76","1175","3","1","3","1","1,0.7,0,1,0.7,0,0.7,0,1","1,0.7,0,1,0.7,0,0.7,0,1","1","",""
"","html-keyboard-response","87","102108","0.0-87.0","3QRYMNZ7FZ3FFW69XNUQKFNT70FNTA","A22LRKFP5S22GR","3THR0FZ95PF7SK0MYRNAOUHTWA4OLV","","null","<img src=""img/food4.png"" style=""width:200px; border:14px solid green;"">","null","","","","","","","","","",""
"","image-keyboard-response","88","103141","0.0-88.0","3QRYMNZ7FZ3FFW69XNUQKFNT70FNTA","A22LRKFP5S22GR","3THR0FZ95PF7SK0MYRNAOUHTWA4OLV","","1031","img/food1.png","74","1033","1","1","1","1","1,0.7,0,1,0.7,0,0.7,0,1","1,0.7,0,1,0.7,0,0.7,0,1","1","",""
"","html-keyboard-response","89","103445","0.0-89.0","3QRYMNZ7FZ3FFW69XNUQKFNT70FNTA","A22LRKFP5S22GR","3THR0FZ95PF7SK0MYRNAOUHTWA4OLV","","null","<img src=""img/food1.png"" style=""width:200px; border:14px solid green;"">","null","","","","","","","","","",""
"","image-keyboard-response","90","104985","0.0-90.0","3QRYMNZ7FZ3FFW69XNUQKFNT70FNTA","A22LRKFP5S22GR","3THR0FZ95PF7SK0MYRNAOUHTWA4OLV","","1539","img/food1.png","74","1540","1","1","1","1","1,0.7,0,1,0.7,0,0.7,0,1","1,0.7,0,1,0.7,0,0.7,0,1","1","",""
"","html-keyboard-response","91","105287","0.0-91.0","3QRYMNZ7FZ3FFW69XNUQKFNT70FNTA","A22LRKFP5S22GR","3THR0FZ95PF7SK0MYRNAOUHTWA4OLV","","null","<img src=""img/food1.png"" style=""width:200px; border:14px solid green;"">","null","","","","","","","","","",""
"","image-keyboard-response","92","106362","0.0-92.0","3QRYMNZ7FZ3FFW69XNUQKFNT70FNTA","A22LRKFP5S22GR","3THR0FZ95PF7SK0MYRNAOUHTWA4OLV","","1074","img/food4.png","76","1075","3","1","3","1","1,0.7,0,1,0.7,0,0.7,0,1","1,0.7,0,1,0.7,0,0.7,0,1","1","",""
"","html-keyboard-response","93","106667","0.0-93.0","3QRYMNZ7FZ3FFW69XNUQKFNT70FNTA","A22LRKFP5S22GR","3THR0FZ95PF7SK0MYRNAOUHTWA4OLV","","null","<img src=""img/food4.png"" style=""width:200px; border:14px solid green;"">","null","","","","","","","","","",""
"","image-keyboard-response","94","107583","0.0-94.0","3QRYMNZ7FZ3FFW69XNUQKFNT70FNTA","A22LRKFP5S22GR","3THR0FZ95PF7SK0MYRNAOUHTWA4OLV","","913","img/food1.png","74","914","1","1","1","1","1,0.7,0,1,0.7,0,0.7,0,1","1,0.7,0,1,0.7,0,0.7,0,1","1","",""
"","html-keyboard-response","95","107893","0.0-95.0","3QRYMNZ7FZ3FFW69XNUQKFNT70FNTA","A22LRKFP5S22GR","3THR0FZ95PF7SK0MYRNAOUHTWA4OLV","","null","<img src=""img/food1.png"" style=""width:200px; border:14px solid green;"">","null","","","","","","","","","",""
"","image-keyboard-response","96","108990","0.0-96.0","3QRYMNZ7FZ3FFW69XNUQKFNT70FNTA","A22LRKFP5S22GR","3THR0FZ95PF7SK0MYRNAOUHTWA4OLV","","1096","img/food1.png","74","1097","1","1","1","1","1,0.7,0,1,0.7,0,0.7,0,1","1,0.7,0,1,0.7,0,0.7,0,1","1","",""
"","html-keyboard-response","97","109297","0.0-97.0","3QRYMNZ7FZ3FFW69XNUQKFNT70FNTA","A22LRKFP5S22GR","3THR0FZ95PF7SK0MYRNAOUHTWA4OLV","","null","<img src=""img/food1.png"" style=""width:200px; border:14px solid green;"">","null","","","","","","","","","",""
"","image-keyboard-response","98","110444","0.0-98.0","3QRYMNZ7FZ3FFW69XNUQKFNT70FNTA","A22LRKFP5S22GR","3THR0FZ95PF7SK0MYRNAOUHTWA4OLV","","1144","img/food6.png","76","1147","3","0","2","1","1,0.7,0,1,0.7,0,0.7,0,1","1,0.7,0,1,0.7,0,0.7,0,1","1","",""
"","html-keyboard-response","99","110748","0.0-99.0","3QRYMNZ7FZ3FFW69XNUQKFNT70FNTA","A22LRKFP5S22GR","3THR0FZ95PF7SK0MYRNAOUHTWA4OLV","","null","<img src=""img/food6.png"" style=""width:200px;border:14px solid red;"">","null","","","","","","","","","",""
"","image-keyboard-response","100","111763","0.0-100.0","3QRYMNZ7FZ3FFW69XNUQKFNT70FNTA","A22LRKFP5S22GR","3THR0FZ95PF7SK0MYRNAOUHTWA4OLV","","1013","img/food1.png","74","1014","1","1","1","1","1,0.7,0,1,0.7,0,0.7,0,1","1,0.7,0,1,0.7,0,0.7,0,1","1","",""
"","html-keyboard-response","101","112064","0.0-101.0","3QRYMNZ7FZ3FFW69XNUQKFNT70FNTA","A22LRKFP5S22GR","3THR0FZ95PF7SK0MYRNAOUHTWA4OLV","","null","<img src=""img/food1.png"" style=""width:200px; border:14px solid green;"">","null","","","","","","","","","",""
"","image-keyboard-response","102","113270","0.0-102.0","3QRYMNZ7FZ3FFW69XNUQKFNT70FNTA","A22LRKFP5S22GR","3THR0FZ95PF7SK0MYRNAOUHTWA4OLV","","1203","img/food6.png","75","1205","2","1","2","1","1,0.7,0,1,0.7,0,0.7,0,1","1,0.7,0,1,0.7,0,0.7,0,1","1","",""
"","html-keyboard-response","103","113575","0.0-103.0","3QRYMNZ7FZ3FFW69XNUQKFNT70FNTA","A22LRKFP5S22GR","3THR0FZ95PF7SK0MYRNAOUHTWA4OLV","","null","<img src=""img/food6.png"" style=""width:200px; border:14px solid green;"">","null","","","","","","","","","",""
"","image-keyboard-response","104","115399","0.0-104.0","3QRYMNZ7FZ3FFW69XNUQKFNT70FNTA","A22LRKFP5S22GR","3THR0FZ95PF7SK0MYRNAOUHTWA4OLV","","1824","img/food6.png","74","1824","1","1","2","1","1,0.7,0,1,0.7,0,0.7,0,1","1,0.7,0,1,0.7,0,0.7,0,1","1","",""
"","html-keyboard-response","105","115705","0.0-105.0","3QRYMNZ7FZ3FFW69XNUQKFNT70FNTA","A22LRKFP5S22GR","3THR0FZ95PF7SK0MYRNAOUHTWA4OLV","","null","<img src=""img/food6.png"" style=""width:200px; border:14px solid green;"">","null","","","","","","","","","",""
"","image-keyboard-response","106","116931","0.0-106.0","3QRYMNZ7FZ3FFW69XNUQKFNT70FNTA","A22LRKFP5S22GR","3THR0FZ95PF7SK0MYRNAOUHTWA4OLV","","1223","img/food1.png","74","1226","1","1","1","1","1,0.7,0,1,0.7,0,0.7,0,1","1,0.7,0,1,0.7,0,0.7,0,1","1","",""
"","html-keyboard-response","107","117233","0.0-107.0","3QRYMNZ7FZ3FFW69XNUQKFNT70FNTA","A22LRKFP5S22GR","3THR0FZ95PF7SK0MYRNAOUHTWA4OLV","","null","<img src=""img/food1.png"" style=""width:200px; border:14px solid green;"">","null","","","","","","","","","",""
"","image-keyboard-response","108","118241","0.0-108.0","3QRYMNZ7FZ3FFW69XNUQKFNT70FNTA","A22LRKFP5S22GR","3THR0FZ95PF7SK0MYRNAOUHTWA4OLV","","1007","img/food6.png","74","1008","1","1","2","1","1,0.7,0,1,0.7,0,0.7,0,1","1,0.7,0,1,0.7,0,0.7,0,1","1","",""
"","html-keyboard-response","109","118546","0.0-109.0","3QRYMNZ7FZ3FFW69XNUQKFNT70FNTA","A22LRKFP5S22GR","3THR0FZ95PF7SK0MYRNAOUHTWA4OLV","","null","<img src=""img/food6.png"" style=""width:200px; border:14px solid green;"">","null","","","","","","","","","",""
"","image-keyboard-response","110","119669","0.0-110.0","3QRYMNZ7FZ3FFW69XNUQKFNT70FNTA","A22LRKFP5S22GR","3THR0FZ95PF7SK0MYRNAOUHTWA4OLV","","1122","img/food4.png","76","1123","3","1","3","1","1,0.7,0,1,0.7,0,0.7,0,1","1,0.7,0,1,0.7,0,0.7,0,1","1","",""
"","html-keyboard-response","111","119972","0.0-111.0","3QRYMNZ7FZ3FFW69XNUQKFNT70FNTA","A22LRKFP5S22GR","3THR0FZ95PF7SK0MYRNAOUHTWA4OLV","","null","<img src=""img/food4.png"" style=""width:200px; border:14px solid green;"">","null","","","","","","","","","",""
"","image-keyboard-response","112","120895","0.0-112.0","3QRYMNZ7FZ3FFW69XNUQKFNT70FNTA","A22LRKFP5S22GR","3THR0FZ95PF7SK0MYRNAOUHTWA4OLV","","922","img/food1.png","74","923","1","1","1","1","1,0.7,0,1,0.7,0,0.7,0,1","1,0.7,0,1,0.7,0,0.7,0,1","1","",""
"","html-keyboard-response","113","121197","0.0-113.0","3QRYMNZ7FZ3FFW69XNUQKFNT70FNTA","A22LRKFP5S22GR","3THR0FZ95PF7SK0MYRNAOUHTWA4OLV","","null","<img src=""img/food1.png"" style=""width:200px; border:14px solid green;"">","null","","","","","","","","","",""
"","image-keyboard-response","114","122112","0.0-114.0","3QRYMNZ7FZ3FFW69XNUQKFNT70FNTA","A22LRKFP5S22GR","3THR0FZ95PF7SK0MYRNAOUHTWA4OLV","","911","img/food6.png","74","915","1","1","2","1","1,0.7,0,1,0.7,0,0.7,0,1","1,0.7,0,1,0.7,0,0.7,0,1","1","",""
"","html-keyboard-response","115","122417","0.0-115.0","3QRYMNZ7FZ3FFW69XNUQKFNT70FNTA","A22LRKFP5S22GR","3THR0FZ95PF7SK0MYRNAOUHTWA4OLV","","null","<img src=""img/food6.png"" style=""width:200px; border:14px solid green;"">","null","","","","","","","","","",""
"","image-keyboard-response","116","123673","0.0-116.0","3QRYMNZ7FZ3FFW69XNUQKFNT70FNTA","A22LRKFP5S22GR","3THR0FZ95PF7SK0MYRNAOUHTWA4OLV","","1255","img/food6.png","74","1255","1","1","2","1","1,0.7,0,1,0.7,0,0.7,0,1","1,0.7,0,1,0.7,0,0.7,0,1","1","",""
"","html-keyboard-response","117","123979","0.0-117.0","3QRYMNZ7FZ3FFW69XNUQKFNT70FNTA","A22LRKFP5S22GR","3THR0FZ95PF7SK0MYRNAOUHTWA4OLV","","null","<img src=""img/food6.png"" style=""width:200px; border:14px solid green;"">","null","","","","","","","","","",""
"","image-keyboard-response","118","124858","0.0-118.0","3QRYMNZ7FZ3FFW69XNUQKFNT70FNTA","A22LRKFP5S22GR","3THR0FZ95PF7SK0MYRNAOUHTWA4OLV","","878","img/food4.png","76","879","3","1","3","1","1,0.7,0,1,0.7,0,0.7,0,1","1,0.7,0,1,0.7,0,0.7,0,1","1","",""
"","html-keyboard-response","119","125164","0.0-119.0","3QRYMNZ7FZ3FFW69XNUQKFNT70FNTA","A22LRKFP5S22GR","3THR0FZ95PF7SK0MYRNAOUHTWA4OLV","","null","<img src=""img/food4.png"" style=""width:200px; border:14px solid green;"">","null","","","","","","","","","",""
"","image-keyboard-response","120","126229","0.0-120.0","3QRYMNZ7FZ3FFW69XNUQKFNT70FNTA","A22LRKFP5S22GR","3THR0FZ95PF7SK0MYRNAOUHTWA4OLV","","1063","img/food6.png","74","1065","1","1","2","1","1,0.7,0,1,0.7,0,0.7,0,1","1,0.7,0,1,0.7,0,0.7,0,1","1","",""
"","html-keyboard-response","121","126530","0.0-121.0","3QRYMNZ7FZ3FFW69XNUQKFNT70FNTA","A22LRKFP5S22GR","3THR0FZ95PF7SK0MYRNAOUHTWA4OLV","","null","<img src=""img/food6.png"" style=""width:200px; border:14px solid green;"">","null","","","","","","","","","",""
"","image-keyboard-response","122","127439","0.0-122.0","3QRYMNZ7FZ3FFW69XNUQKFNT70FNTA","A22LRKFP5S22GR","3THR0FZ95PF7SK0MYRNAOUHTWA4OLV","","907","img/food6.png","74","910","1","1","2","1","1,0.7,0,1,0.7,0,0.7,0,1","1,0.7,0,1,0.7,0,0.7,0,1","1","",""
"","html-keyboard-response","123","127742","0.0-123.0","3QRYMNZ7FZ3FFW69XNUQKFNT70FNTA","A22LRKFP5S22GR","3THR0FZ95PF7SK0MYRNAOUHTWA4OLV","","null","<img src=""img/food6.png"" style=""width:200px; border:14px solid green;"">","null","","","","","","","","","",""
"","image-keyboard-response","124","128719","0.0-124.0","3QRYMNZ7FZ3FFW69XNUQKFNT70FNTA","A22LRKFP5S22GR","3THR0FZ95PF7SK0MYRNAOUHTWA4OLV","","976","img/food4.png","76","976","3","1","3","1","1,0.7,0,1,0.7,0,0.7,0,1","1,0.7,0,1,0.7,0,0.7,0,1","1","",""
"","html-keyboard-response","125","129027","0.0-125.0","3QRYMNZ7FZ3FFW69XNUQKFNT70FNTA","A22LRKFP5S22GR","3THR0FZ95PF7SK0MYRNAOUHTWA4OLV","","null","<img src=""img/food4.png"" style=""width:200px; border:14px solid green;"">","null","","","","","","","","","",""
"","image-keyboard-response","126","130146","0.0-126.0","3QRYMNZ7FZ3FFW69XNUQKFNT70FNTA","A22LRKFP5S22GR","3THR0FZ95PF7SK0MYRNAOUHTWA4OLV","","1118","img/food4.png","76","1119","3","1","3","1","1,0.7,0,1,0.7,0,0.7,0,1","1,0.7,0,1,0.7,0,0.7,0,1","1","",""
"","html-keyboard-response","127","130448","0.0-127.0","3QRYMNZ7FZ3FFW69XNUQKFNT70FNTA","A22LRKFP5S22GR","3THR0FZ95PF7SK0MYRNAOUHTWA4OLV","","null","<img src=""img/food4.png"" style=""width:200px; border:14px solid green;"">","null","","","","","","","","","",""
"","image-keyboard-response","128","131402","0.0-128.0","3QRYMNZ7FZ3FFW69XNUQKFNT70FNTA","A22LRKFP5S22GR","3THR0FZ95PF7SK0MYRNAOUHTWA4OLV","","950","img/food4.png","76","954","3","1","3","1","1,0.7,0,1,0.7,0,0.7,0,1","1,0.7,0,1,0.7,0,0.7,0,1","1","",""
"","html-keyboard-response","129","131713","0.0-129.0","3QRYMNZ7FZ3FFW69XNUQKFNT70FNTA","A22LRKFP5S22GR","3THR0FZ95PF7SK0MYRNAOUHTWA4OLV","","null","<img src=""img/food4.png"" style=""width:200px; border:14px solid green;"">","null","","","","","","","","","",""
"","image-keyboard-response","130","132767","0.0-130.0","3QRYMNZ7FZ3FFW69XNUQKFNT70FNTA","A22LRKFP5S22GR","3THR0FZ95PF7SK0MYRNAOUHTWA4OLV","","1052","img/food4.png","76","1054","3","1","3","1","1,0.7,0,1,0.7,0,0.7,0,1","1,0.7,0,1,0.7,0,0.7,0,1","1","",""
"","html-keyboard-response","131","133073","0.0-131.0","3QRYMNZ7FZ3FFW69XNUQKFNT70FNTA","A22LRKFP5S22GR","3THR0FZ95PF7SK0MYRNAOUHTWA4OLV","","null","<img src=""img/food4.png"" style=""width:200px; border:14px solid green;"">","null","","","","","","","","","",""
"","image-keyboard-response","132","134010","0.0-132.0","3QRYMNZ7FZ3FFW69XNUQKFNT70FNTA","A22LRKFP5S22GR","3THR0FZ95PF7SK0MYRNAOUHTWA4OLV","","936","img/food1.png","74","937","1","1","1","1","1,0.7,0,1,0.7,0,0.7,0,1","1,0.7,0,1,0.7,0,0.7,0,1","1","",""
"","html-keyboard-response","133","134315","0.0-133.0","3QRYMNZ7FZ3FFW69XNUQKFNT70FNTA","A22LRKFP5S22GR","3THR0FZ95PF7SK0MYRNAOUHTWA4OLV","","null","<img src=""img/food1.png"" style=""width:200px; border:14px solid green;"">","null","","","","","","","","","",""
"","image-keyboard-response","134","135111","0.0-134.0","3QRYMNZ7FZ3FFW69XNUQKFNT70FNTA","A22LRKFP5S22GR","3THR0FZ95PF7SK0MYRNAOUHTWA4OLV","","794","img/food1.png","74","796","1","1","1","1","1,0.7,0,1,0.7,0,0.7,0,1","1,0.7,0,1,0.7,0,0.7,0,1","1","",""
"","html-keyboard-response","135","135416","0.0-135.0","3QRYMNZ7FZ3FFW69XNUQKFNT70FNTA","A22LRKFP5S22GR","3THR0FZ95PF7SK0MYRNAOUHTWA4OLV","","null","<img src=""img/food1.png"" style=""width:200px; border:14px solid green;"">","null","","","","","","","","","",""
"","image-keyboard-response","136","136495","0.0-136.0","3QRYMNZ7FZ3FFW69XNUQKFNT70FNTA","A22LRKFP5S22GR","3THR0FZ95PF7SK0MYRNAOUHTWA4OLV","","1077","img/food6.png","74","1079","1","1","2","1","1,0.7,0,1,0.7,0,0.7,0,1","1,0.7,0,1,0.7,0,0.7,0,1","1","",""
"","html-keyboard-response","137","136800","0.0-137.0","3QRYMNZ7FZ3FFW69XNUQKFNT70FNTA","A22LRKFP5S22GR","3THR0FZ95PF7SK0MYRNAOUHTWA4OLV","","null","<img src=""img/food6.png"" style=""width:200px; border:14px solid green;"">","null","","","","","","","","","",""
"","image-keyboard-response","138","137789","0.0-138.0","3QRYMNZ7FZ3FFW69XNUQKFNT70FNTA","A22LRKFP5S22GR","3THR0FZ95PF7SK0MYRNAOUHTWA4OLV","","988","img/food1.png","74","990","1","1","1","1","1,0.7,0,1,0.7,0,0.7,0,1","1,0.7,0,1,0.7,0,0.7,0,1","1","",""
"","html-keyboard-response","139","138092","0.0-139.0","3QRYMNZ7FZ3FFW69XNUQKFNT70FNTA","A22LRKFP5S22GR","3THR0FZ95PF7SK0MYRNAOUHTWA4OLV","","null","<img src=""img/food1.png"" style=""width:200px; border:14px solid green;"">","null","","","","","","","","","",""
"","image-keyboard-response","140","138898","0.0-140.0","3QRYMNZ7FZ3FFW69XNUQKFNT70FNTA","A22LRKFP5S22GR","3THR0FZ95PF7SK0MYRNAOUHTWA4OLV","","805","img/food1.png","74","806","1","1","1","1","1,0.7,0,1,0.7,0,0.7,0,1","1,0.7,0,1,0.7,0,0.7,0,1","1","",""
"","html-keyboard-response","141","139205","0.0-141.0","3QRYMNZ7FZ3FFW69XNUQKFNT70FNTA","A22LRKFP5S22GR","3THR0FZ95PF7SK0MYRNAOUHTWA4OLV","","null","<img src=""img/food1.png"" style=""width:200px; border:14px solid green;"">","null","","","","","","","","","",""
"","image-keyboard-response","142","140044","0.0-142.0","3QRYMNZ7FZ3FFW69XNUQKFNT70FNTA","A22LRKFP5S22GR","3THR0FZ95PF7SK0MYRNAOUHTWA4OLV","","838","img/food1.png","74","839","1","1","1","1","1,0.7,0,1,0.7,0,0.7,0,1","1,0.7,0,1,0.7,0,0.7,0,1","1","",""
"","html-keyboard-response","143","140349","0.0-143.0","3QRYMNZ7FZ3FFW69XNUQKFNT70FNTA","A22LRKFP5S22GR","3THR0FZ95PF7SK0MYRNAOUHTWA4OLV","","null","<img src=""img/food1.png"" style=""width:200px; border:14px solid green;"">","null","","","","","","","","","",""
"","image-keyboard-response","144","141352","0.0-144.0","3QRYMNZ7FZ3FFW69XNUQKFNT70FNTA","A22LRKFP5S22GR","3THR0FZ95PF7SK0MYRNAOUHTWA4OLV","","1002","img/food6.png","74","1003","1","1","2","1","1,0.7,0,1,0.7,0,0.7,0,1","1,0.7,0,1,0.7,0,0.7,0,1","1","",""
"","html-keyboard-response","145","141655","0.0-145.0","3QRYMNZ7FZ3FFW69XNUQKFNT70FNTA","A22LRKFP5S22GR","3THR0FZ95PF7SK0MYRNAOUHTWA4OLV","","null","<img src=""img/food6.png"" style=""width:200px; border:14px solid green;"">","null","","","","","","","","","",""
"","image-keyboard-response","146","142444","0.0-146.0","3QRYMNZ7FZ3FFW69XNUQKFNT70FNTA","A22LRKFP5S22GR","3THR0FZ95PF7SK0MYRNAOUHTWA4OLV","","786","img/food6.png","74","788","1","1","2","1","1,0.7,0,1,0.7,0,0.7,0,1","1,0.7,0,1,0.7,0,0.7,0,1","1","",""
"","html-keyboard-response","147","142751","0.0-147.0","3QRYMNZ7FZ3FFW69XNUQKFNT70FNTA","A22LRKFP5S22GR","3THR0FZ95PF7SK0MYRNAOUHTWA4OLV","","null","<img src=""img/food6.png"" style=""width:200px; border:14px solid green;"">","null","","","","","","","","","",""
"","image-keyboard-response","148","143696","0.0-148.0","3QRYMNZ7FZ3FFW69XNUQKFNT70FNTA","A22LRKFP5S22GR","3THR0FZ95PF7SK0MYRNAOUHTWA4OLV","","944","img/food1.png","74","945","1","1","1","1","1,0.7,0,1,0.7,0,0.7,0,1","1,0.7,0,1,0.7,0,0.7,0,1","1","",""
"","html-keyboard-response","149","144000","0.0-149.0","3QRYMNZ7FZ3FFW69XNUQKFNT70FNTA","A22LRKFP5S22GR","3THR0FZ95PF7SK0MYRNAOUHTWA4OLV","","null","<img src=""img/food1.png"" style=""width:200px; border:14px solid green;"">","null","","","","","","","","","",""
"","image-keyboard-response","150","144971","0.0-150.0","3QRYMNZ7FZ3FFW69XNUQKFNT70FNTA","A22LRKFP5S22GR","3THR0FZ95PF7SK0MYRNAOUHTWA4OLV","","970","img/food4.png","76","971","3","1","3","1","1,0.7,0,1,0.7,0,0.7,0,1","1,0.7,0,1,0.7,0,0.7,0,1","1","",""
"","html-keyboard-response","151","145277","0.0-151.0","3QRYMNZ7FZ3FFW69XNUQKFNT70FNTA","A22LRKFP5S22GR","3THR0FZ95PF7SK0MYRNAOUHTWA4OLV","","null","<img src=""img/food4.png"" style=""width:200px; border:14px solid green;"">","null","","","","","","","","","",""
"","image-keyboard-response","152","146225","0.0-152.0","3QRYMNZ7FZ3FFW69XNUQKFNT70FNTA","A22LRKFP5S22GR","3THR0FZ95PF7SK0MYRNAOUHTWA4OLV","","946","img/food6.png","74","948","1","1","2","1","1,0.7,0,1,0.7,0,0.7,0,1","1,0.7,0,1,0.7,0,0.7,0,1","1","",""
"","html-keyboard-response","153","146536","0.0-153.0","3QRYMNZ7FZ3FFW69XNUQKFNT70FNTA","A22LRKFP5S22GR","3THR0FZ95PF7SK0MYRNAOUHTWA4OLV","","null","<img src=""img/food6.png"" style=""width:200px; border:14px solid green;"">","null","","","","","","","","","",""
"","image-keyboard-response","154","147613","0.0-154.0","3QRYMNZ7FZ3FFW69XNUQKFNT70FNTA","A22LRKFP5S22GR","3THR0FZ95PF7SK0MYRNAOUHTWA4OLV","","1075","img/food4.png","74","1077","1","1","3","1","1,0.7,0,1,0.7,0,0.7,0,1","1,0.7,0,1,0.7,0,0.7,0,1","1","",""
"","html-keyboard-response","155","147918","0.0-155.0","3QRYMNZ7FZ3FFW69XNUQKFNT70FNTA","A22LRKFP5S22GR","3THR0FZ95PF7SK0MYRNAOUHTWA4OLV","","null","<img src=""img/food4.png"" style=""width:200px; border:14px solid green;"">","null","","","","","","","","","",""
"","image-keyboard-response","156","149326","0.0-156.0","3QRYMNZ7FZ3FFW69XNUQKFNT70FNTA","A22LRKFP5S22GR","3THR0FZ95PF7SK0MYRNAOUHTWA4OLV","","1406","img/food4.png","76","1406","3","1","3","1","1,0.7,0,1,0.7,0,0.7,0,1","1,0.7,0,1,0.7,0,0.7,0,1","1","",""
"","html-keyboard-response","157","149634","0.0-157.0","3QRYMNZ7FZ3FFW69XNUQKFNT70FNTA","A22LRKFP5S22GR","3THR0FZ95PF7SK0MYRNAOUHTWA4OLV","","null","<img src=""img/food4.png"" style=""width:200px; border:14px solid green;"">","null","","","","","","","","","",""
"","image-keyboard-response","158","150498","0.0-158.0","3QRYMNZ7FZ3FFW69XNUQKFNT70FNTA","A22LRKFP5S22GR","3THR0FZ95PF7SK0MYRNAOUHTWA4OLV","","861","img/food4.png","74","864","1","1","3","1","1,0.7,0,1,0.7,0,0.7,0,1","1,0.7,0,1,0.7,0,0.7,0,1","1","",""
"","html-keyboard-response","159","150804","0.0-159.0","3QRYMNZ7FZ3FFW69XNUQKFNT70FNTA","A22LRKFP5S22GR","3THR0FZ95PF7SK0MYRNAOUHTWA4OLV","","null","<img src=""img/food4.png"" style=""width:200px; border:14px solid green;"">","null","","","","","","","","","",""
"","image-keyboard-response","160","151593","0.0-160.0","3QRYMNZ7FZ3FFW69XNUQKFNT70FNTA","A22LRKFP5S22GR","3THR0FZ95PF7SK0MYRNAOUHTWA4OLV","","787","img/food4.png","76","789","3","1","3","1","1,0.7,0,1,0.7,0,0.7,0,1","1,0.7,0,1,0.7,0,0.7,0,1","1","",""
"","html-keyboard-response","161","151899","0.0-161.0","3QRYMNZ7FZ3FFW69XNUQKFNT70FNTA","A22LRKFP5S22GR","3THR0FZ95PF7SK0MYRNAOUHTWA4OLV","","null","<img src=""img/food4.png"" style=""width:200px; border:14px solid green;"">","null","","","","","","","","","",""
"","image-keyboard-response","162","152872","0.0-162.0","3QRYMNZ7FZ3FFW69XNUQKFNT70FNTA","A22LRKFP5S22GR","3THR0FZ95PF7SK0MYRNAOUHTWA4OLV","","972","img/food1.png","74","973","1","1","1","1","1,0.7,0,1,0.7,0,0.7,0,1","1,0.7,0,1,0.7,0,0.7,0,1","1","",""
"","html-keyboard-response","163","153179","0.0-163.0","3QRYMNZ7FZ3FFW69XNUQKFNT70FNTA","A22LRKFP5S22GR","3THR0FZ95PF7SK0MYRNAOUHTWA4OLV","","null","<img src=""img/food1.png"" style=""width:200px; border:14px solid green;"">","null","","","","","","","","","",""
"","image-keyboard-response","164","154124","0.0-164.0","3QRYMNZ7FZ3FFW69XNUQKFNT70FNTA","A22LRKFP5S22GR","3THR0FZ95PF7SK0MYRNAOUHTWA4OLV","","943","img/food1.png","74","945","1","1","1","1","1,0.7,0,1,0.7,0,0.7,0,1","1,0.7,0,1,0.7,0,0.7,0,1","1","",""
"","html-keyboard-response","165","154424","0.0-165.0","3QRYMNZ7FZ3FFW69XNUQKFNT70FNTA","A22LRKFP5S22GR","3THR0FZ95PF7SK0MYRNAOUHTWA4OLV","","null","<img src=""img/food1.png"" style=""width:200px; border:14px solid green;"">","null","","","","","","","","","",""
"","image-keyboard-response","166","155463","0.0-166.0","3QRYMNZ7FZ3FFW69XNUQKFNT70FNTA","A22LRKFP5S22GR","3THR0FZ95PF7SK0MYRNAOUHTWA4OLV","","1038","img/food4.png","74","1040","1","1","3","1","1,0.7,0,1,0.7,0,0.7,0,1","1,0.7,0,1,0.7,0,0.7,0,1","1","",""
"","html-keyboard-response","167","155769","0.0-167.0","3QRYMNZ7FZ3FFW69XNUQKFNT70FNTA","A22LRKFP5S22GR","3THR0FZ95PF7SK0MYRNAOUHTWA4OLV","","null","<img src=""img/food4.png"" style=""width:200px; border:14px solid green;"">","null","","","","","","","","","",""
"","image-keyboard-response","168","157258","0.0-168.0","3QRYMNZ7FZ3FFW69XNUQKFNT70FNTA","A22LRKFP5S22GR","3THR0FZ95PF7SK0MYRNAOUHTWA4OLV","","1486","img/food6.png","74","1488","1","1","2","1","1,0.7,0,1,0.7,0,0.7,0,1","1,0.7,0,1,0.7,0,0.7,0,1","1","",""
"","html-keyboard-response","169","157563","0.0-169.0","3QRYMNZ7FZ3FFW69XNUQKFNT70FNTA","A22LRKFP5S22GR","3THR0FZ95PF7SK0MYRNAOUHTWA4OLV","","null","<img src=""img/food6.png"" style=""width:200px; border:14px solid green;"">","null","","","","","","","","","",""
"","image-keyboard-response","170","158434","0.0-170.0","3QRYMNZ7FZ3FFW69XNUQKFNT70FNTA","A22LRKFP5S22GR","3THR0FZ95PF7SK0MYRNAOUHTWA4OLV","","869","img/food1.png","74","871","1","1","1","1","1,0.7,0,1,0.7,0,0.7,0,1","1,0.7,0,1,0.7,0,0.7,0,1","1","",""
"","html-keyboard-response","171","158742","0.0-171.0","3QRYMNZ7FZ3FFW69XNUQKFNT70FNTA","A22LRKFP5S22GR","3THR0FZ95PF7SK0MYRNAOUHTWA4OLV","","null","<img src=""img/food1.png"" style=""width:200px; border:14px solid green;"">","null","","","","","","","","","",""
"","image-keyboard-response","172","159504","0.0-172.0","3QRYMNZ7FZ3FFW69XNUQKFNT70FNTA","A22LRKFP5S22GR","3THR0FZ95PF7SK0MYRNAOUHTWA4OLV","","761","img/food4.png","76","761","3","1","3","1","1,0.7,0,1,0.7,0,0.7,0,1","1,0.7,0,1,0.7,0,0.7,0,1","1","",""
"","html-keyboard-response","173","159806","0.0-173.0","3QRYMNZ7FZ3FFW69XNUQKFNT70FNTA","A22LRKFP5S22GR","3THR0FZ95PF7SK0MYRNAOUHTWA4OLV","","null","<img src=""img/food4.png"" style=""width:200px; border:14px solid green;"">","null","","","","","","","","","",""
"","image-keyboard-response","174","160718","0.0-174.0","3QRYMNZ7FZ3FFW69XNUQKFNT70FNTA","A22LRKFP5S22GR","3THR0FZ95PF7SK0MYRNAOUHTWA4OLV","","911","img/food1.png","74","912","1","1","1","1","1,0.7,0,1,0.7,0,0.7,0,1","1,0.7,0,1,0.7,0,0.7,0,1","1","",""
"","html-keyboard-response","175","161024","0.0-175.0","3QRYMNZ7FZ3FFW69XNUQKFNT70FNTA","A22LRKFP5S22GR","3THR0FZ95PF7SK0MYRNAOUHTWA4OLV","","null","<img src=""img/food1.png"" style=""width:200px; border:14px solid green;"">","null","","","","","","","","","",""
"","image-keyboard-response","176","161806","0.0-176.0","3QRYMNZ7FZ3FFW69XNUQKFNT70FNTA","A22LRKFP5S22GR","3THR0FZ95PF7SK0MYRNAOUHTWA4OLV","","781","img/food1.png","76","782","3","0","1","1","1,0.7,0,1,0.7,0,0.7,0,1","1,0.7,0,1,0.7,0,0.7,0,1","1","",""
"","html-keyboard-response","177","162116","0.0-177.0","3QRYMNZ7FZ3FFW69XNUQKFNT70FNTA","A22LRKFP5S22GR","3THR0FZ95PF7SK0MYRNAOUHTWA4OLV","","null","<img src=""img/food1.png"" style=""width:200px;border:14px solid red;"">","null","","","","","","","","","",""
"","image-keyboard-response","178","163045","0.0-178.0","3QRYMNZ7FZ3FFW69XNUQKFNT70FNTA","A22LRKFP5S22GR","3THR0FZ95PF7SK0MYRNAOUHTWA4OLV","","928","img/food6.png","74","929","1","1","2","1","1,0.7,0,1,0.7,0,0.7,0,1","1,0.7,0,1,0.7,0,0.7,0,1","1","",""
"","html-keyboard-response","179","163346","0.0-179.0","3QRYMNZ7FZ3FFW69XNUQKFNT70FNTA","A22LRKFP5S22GR","3THR0FZ95PF7SK0MYRNAOUHTWA4OLV","","null","<img src=""img/food6.png"" style=""width:200px; border:14px solid green;"">","null","","","","","","","","","",""
"","image-keyboard-response","180","164260","0.0-180.0","3QRYMNZ7FZ3FFW69XNUQKFNT70FNTA","A22LRKFP5S22GR","3THR0FZ95PF7SK0MYRNAOUHTWA4OLV","","912","img/food1.png","74","914","1","1","1","1","1,0.7,0,1,0.7,0,0.7,0,1","1,0.7,0,1,0.7,0,0.7,0,1","1","",""
"","html-keyboard-response","181","164561","0.0-181.0","3QRYMNZ7FZ3FFW69XNUQKFNT70FNTA","A22LRKFP5S22GR","3THR0FZ95PF7SK0MYRNAOUHTWA4OLV","","null","<img src=""img/food1.png"" style=""width:200px; border:14px solid green;"">","null","","","","","","","","","",""
"","html-keyboard-response","182","168301","0.0-182.0","3QRYMNZ7FZ3FFW69XNUQKFNT70FNTA","A22LRKFP5S22GR","3THR0FZ95PF7SK0MYRNAOUHTWA4OLV","","","","","","","","","","","","","",""
"","instructions","183","178422","0.0-183.0","3QRYMNZ7FZ3FFW69XNUQKFNT70FNTA","A22LRKFP5S22GR","3THR0FZ95PF7SK0MYRNAOUHTWA4OLV","[{""page_index"":0,""viewing_time"":7342},{""page_index"":1,""viewing_time"":2777}]","10119","","","","","","","","","","","",""
"","image-keyboard-response","184","179427","0.0-184.0","3QRYMNZ7FZ3FFW69XNUQKFNT70FNTA","A22LRKFP5S22GR","3THR0FZ95PF7SK0MYRNAOUHTWA4OLV","","","img/food3.png","","1005","-1","0","3","2","1,0.7,0,1,0.7,0,0.7,0,1","0,1,0.7,0,1,0.7,1,0.7,0","3","true",""
"","html-keyboard-response","185","179734","0.0-185.0","3QRYMNZ7FZ3FFW69XNUQKFNT70FNTA","A22LRKFP5S22GR","3THR0FZ95PF7SK0MYRNAOUHTWA4OLV","","null","<img src=""img/food3.png"" style=""width:200px;border:14px solid red;"">","null","","","","","","","","","",""
"","html-keyboard-response","186","182678","0.0-186.0-0.0","3QRYMNZ7FZ3FFW69XNUQKFNT70FNTA","A22LRKFP5S22GR","3THR0FZ95PF7SK0MYRNAOUHTWA4OLV","","","","","","","","","","","","","",""
"","image-keyboard-response","187","183683","0.0-187.0","3QRYMNZ7FZ3FFW69XNUQKFNT70FNTA","A22LRKFP5S22GR","3THR0FZ95PF7SK0MYRNAOUHTWA4OLV","","","img/food5.png","","1004","-1","0","1","2","1,0.7,0,1,0.7,0,0.7,0,1","0,1,0.7,0,1,0.7,1,0.7,0","3","true",""
"","html-keyboard-response","188","183988","0.0-188.0","3QRYMNZ7FZ3FFW69XNUQKFNT70FNTA","A22LRKFP5S22GR","3THR0FZ95PF7SK0MYRNAOUHTWA4OLV","","null","<img src=""img/food5.png"" style=""width:200px;border:14px solid red;"">","null","","","","","","","","","",""
"","html-keyboard-response","189","185801","0.0-189.0-0.0","3QRYMNZ7FZ3FFW69XNUQKFNT70FNTA","A22LRKFP5S22GR","3THR0FZ95PF7SK0MYRNAOUHTWA4OLV","","","","","","","","","","","","","",""
"","image-keyboard-response","190","186640","0.0-190.0","3QRYMNZ7FZ3FFW69XNUQKFNT70FNTA","A22LRKFP5S22GR","3THR0FZ95PF7SK0MYRNAOUHTWA4OLV","","838","img/food3.png","75","839","2","1","3","2","1,0.7,0,1,0.7,0,0.7,0,1","0,1,0.7,0,1,0.7,1,0.7,0","3","false",""
"","html-keyboard-response","191","186947","0.0-191.0","3QRYMNZ7FZ3FFW69XNUQKFNT70FNTA","A22LRKFP5S22GR","3THR0FZ95PF7SK0MYRNAOUHTWA4OLV","","null","<img src=""img/food3.png"" style=""width:200px; border:14px solid green;"">","null","","","","","","","","","",""
"","image-keyboard-response","192","187952","0.0-193.0","3QRYMNZ7FZ3FFW69XNUQKFNT70FNTA","A22LRKFP5S22GR","3THR0FZ95PF7SK0MYRNAOUHTWA4OLV","","","img/food5.png","","1004","-1","0","1","2","1,0.7,0,1,0.7,0,0.7,0,1","0,1,0.7,0,1,0.7,1,0.7,0","3","true",""
"","html-keyboard-response","193","188261","0.0-194.0","3QRYMNZ7FZ3FFW69XNUQKFNT70FNTA","A22LRKFP5S22GR","3THR0FZ95PF7SK0MYRNAOUHTWA4OLV","","null","<img src=""img/food5.png"" style=""width:200px;border:14px solid red;"">","null","","","","","","","","","",""
"","html-keyboard-response","194","191307","0.0-195.0-0.0","3QRYMNZ7FZ3FFW69XNUQKFNT70FNTA","A22LRKFP5S22GR","3THR0FZ95PF7SK0MYRNAOUHTWA4OLV","","","","","","","","","","","","","",""
"","image-keyboard-response","195","192207","0.0-196.0","3QRYMNZ7FZ3FFW69XNUQKFNT70FNTA","A22LRKFP5S22GR","3THR0FZ95PF7SK0MYRNAOUHTWA4OLV","","899","img/food2.png","74","900","1","0","2","2","1,0.7,0,1,0.7,0,0.7,0,1","0,1,0.7,0,1,0.7,1,0.7,0","3","false",""
"","html-keyboard-response","196","192517","0.0-197.0","3QRYMNZ7FZ3FFW69XNUQKFNT70FNTA","A22LRKFP5S22GR","3THR0FZ95PF7SK0MYRNAOUHTWA4OLV","","null","<img src=""img/food2.png"" style=""width:200px;border:14px solid red;"">","null","","","","","","","","","",""
"","image-keyboard-response","197","193525","0.0-199.0","3QRYMNZ7FZ3FFW69XNUQKFNT70FNTA","A22LRKFP5S22GR","3THR0FZ95PF7SK0MYRNAOUHTWA4OLV","","","img/food5.png","","1007","-1","0","1","2","1,0.7,0,1,0.7,0,0.7,0,1","0,1,0.7,0,1,0.7,1,0.7,0","3","true",""
"","html-keyboard-response","198","193828","0.0-200.0","3QRYMNZ7FZ3FFW69XNUQKFNT70FNTA","A22LRKFP5S22GR","3THR0FZ95PF7SK0MYRNAOUHTWA4OLV","","null","<img src=""img/food5.png"" style=""width:200px;border:14px solid red;"">","null","","","","","","","","","",""
"","html-keyboard-response","199","196433","0.0-201.0-0.0","3QRYMNZ7FZ3FFW69XNUQKFNT70FNTA","A22LRKFP5S22GR","3THR0FZ95PF7SK0MYRNAOUHTWA4OLV","","","","","","","","","","","","","",""
"","image-keyboard-response","200","197435","0.0-202.0","3QRYMNZ7FZ3FFW69XNUQKFNT70FNTA","A22LRKFP5S22GR","3THR0FZ95PF7SK0MYRNAOUHTWA4OLV","","","img/food2.png","","1002","-1","0","2","2","1,0.7,0,1,0.7,0,0.7,0,1","0,1,0.7,0,1,0.7,1,0.7,0","3","true",""
"","html-keyboard-response","201","197736","0.0-203.0","3QRYMNZ7FZ3FFW69XNUQKFNT70FNTA","A22LRKFP5S22GR","3THR0FZ95PF7SK0MYRNAOUHTWA4OLV","","null","<img src=""img/food2.png"" style=""width:200px;border:14px solid red;"">","null","","","","","","","","","",""
"","html-keyboard-response","202","199644","0.0-204.0-0.0","3QRYMNZ7FZ3FFW69XNUQKFNT70FNTA","A22LRKFP5S22GR","3THR0FZ95PF7SK0MYRNAOUHTWA4OLV","","","","","","","","","","","","","",""
"","image-keyboard-response","203","200706","0.0-205.0","3QRYMNZ7FZ3FFW69XNUQKFNT70FNTA","A22LRKFP5S22GR","3THR0FZ95PF7SK0MYRNAOUHTWA4OLV","","","img/food3.png","","1062","-1","0","3","2","1,0.7,0,1,0.7,0,0.7,0,1","0,1,0.7,0,1,0.7,1,0.7,0","3","true",""
"","html-keyboard-response","204","201011","0.0-206.0","3QRYMNZ7FZ3FFW69XNUQKFNT70FNTA","A22LRKFP5S22GR","3THR0FZ95PF7SK0MYRNAOUHTWA4OLV","","null","<img src=""img/food3.png"" style=""width:200px;border:14px solid red;"">","null","","","","","","","","","",""
"","html-keyboard-response","205","202460","0.0-207.0-0.0","3QRYMNZ7FZ3FFW69XNUQKFNT70FNTA","A22LRKFP5S22GR","3THR0FZ95PF7SK0MYRNAOUHTWA4OLV","","","","","","","","","","","","","",""
"","image-keyboard-response","206","203379","0.0-208.0","3QRYMNZ7FZ3FFW69XNUQKFNT70FNTA","A22LRKFP5S22GR","3THR0FZ95PF7SK0MYRNAOUHTWA4OLV","","916","img/food5.png","75","918","2","1","1","2","1,0.7,0,1,0.7,0,0.7,0,1","0,1,0.7,0,1,0.7,1,0.7,0","3","false",""
"","html-keyboard-response","207","203680","0.0-209.0","3QRYMNZ7FZ3FFW69XNUQKFNT70FNTA","A22LRKFP5S22GR","3THR0FZ95PF7SK0MYRNAOUHTWA4OLV","","null","<img src=""img/food5.png"" style=""width:200px; border:14px solid green;"">","null","","","","","","","","","",""
"","image-keyboard-response","208","204695","0.0-211.0","3QRYMNZ7FZ3FFW69XNUQKFNT70FNTA","A22LRKFP5S22GR","3THR0FZ95PF7SK0MYRNAOUHTWA4OLV","","","img/food2.png","","1013","-1","0","2","2","1,0.7,0,1,0.7,0,0.7,0,1","0,1,0.7,0,1,0.7,1,0.7,0","3","true",""
"","html-keyboard-response","209","204997","0.0-212.0","3QRYMNZ7FZ3FFW69XNUQKFNT70FNTA","A22LRKFP5S22GR","3THR0FZ95PF7SK0MYRNAOUHTWA4OLV","","null","<img src=""img/food2.png"" style=""width:200px;border:14px solid red;"">","null","","","","","","","","","",""
"","html-keyboard-response","210","206720","0.0-213.0-0.0","3QRYMNZ7FZ3FFW69XNUQKFNT70FNTA","A22LRKFP5S22GR","3THR0FZ95PF7SK0MYRNAOUHTWA4OLV","","","","","","","","","","","","","",""
"","image-keyboard-response","211","207682","0.0-214.0","3QRYMNZ7FZ3FFW69XNUQKFNT70FNTA","A22LRKFP5S22GR","3THR0FZ95PF7SK0MYRNAOUHTWA4OLV","","960","img/food5.png","74","962","1","0","1","2","1,0.7,0,1,0.7,0,0.7,0,1","0,1,0.7,0,1,0.7,1,0.7,0","3","false",""
"","html-keyboard-response","212","207987","0.0-215.0","3QRYMNZ7FZ3FFW69XNUQKFNT70FNTA","A22LRKFP5S22GR","3THR0FZ95PF7SK0MYRNAOUHTWA4OLV","","null","<img src=""img/food5.png"" style=""width:200px;border:14px solid red;"">","null","","","","","","","","","",""
"","image-keyboard-response","213","208831","0.0-217.0","3QRYMNZ7FZ3FFW69XNUQKFNT70FNTA","A22LRKFP5S22GR","3THR0FZ95PF7SK0MYRNAOUHTWA4OLV","","842","img/food3.png","76","843","3","0","3","2","1,0.7,0,1,0.7,0,0.7,0,1","0,1,0.7,0,1,0.7,1,0.7,0","3","false",""
"","html-keyboard-response","214","209136","0.0-218.0","3QRYMNZ7FZ3FFW69XNUQKFNT70FNTA","A22LRKFP5S22GR","3THR0FZ95PF7SK0MYRNAOUHTWA4OLV","","null","<img src=""img/food3.png"" style=""width:200px;border:14px solid red;"">","null","","","","","","","","","",""
"","image-keyboard-response","215","209994","0.0-220.0","3QRYMNZ7FZ3FFW69XNUQKFNT70FNTA","A22LRKFP5S22GR","3THR0FZ95PF7SK0MYRNAOUHTWA4OLV","","856","img/food5.png","75","857","2","1","1","2","1,0.7,0,1,0.7,0,0.7,0,1","0,1,0.7,0,1,0.7,1,0.7,0","3","false",""
"","html-keyboard-response","216","210297","0.0-221.0","3QRYMNZ7FZ3FFW69XNUQKFNT70FNTA","A22LRKFP5S22GR","3THR0FZ95PF7SK0MYRNAOUHTWA4OLV","","null","<img src=""img/food5.png"" style=""width:200px; border:14px solid green;"">","null","","","","","","","","","",""
"","image-keyboard-response","217","211302","0.0-223.0","3QRYMNZ7FZ3FFW69XNUQKFNT70FNTA","A22LRKFP5S22GR","3THR0FZ95PF7SK0MYRNAOUHTWA4OLV","","","img/food2.png","","1002","-1","0","2","2","1,0.7,0,1,0.7,0,0.7,0,1","0,1,0.7,0,1,0.7,1,0.7,0","3","true",""
"","html-keyboard-response","218","211607","0.0-224.0","3QRYMNZ7FZ3FFW69XNUQKFNT70FNTA","A22LRKFP5S22GR","3THR0FZ95PF7SK0MYRNAOUHTWA4OLV","","null","<img src=""img/food2.png"" style=""width:200px;border:14px solid red;"">","null","","","","","","","","","",""
"","html-keyboard-response","219","213310","0.0-225.0-0.0","3QRYMNZ7FZ3FFW69XNUQKFNT70FNTA","A22LRKFP5S22GR","3THR0FZ95PF7SK0MYRNAOUHTWA4OLV","","","","","","","","","","","","","",""
"","image-keyboard-response","220","214216","0.0-226.0","3QRYMNZ7FZ3FFW69XNUQKFNT70FNTA","A22LRKFP5S22GR","3THR0FZ95PF7SK0MYRNAOUHTWA4OLV","","904","img/food3.png","75","906","2","1","3","2","1,0.7,0,1,0.7,0,0.7,0,1","0,1,0.7,0,1,0.7,1,0.7,0","3","false",""
"","html-keyboard-response","221","214523","0.0-227.0","3QRYMNZ7FZ3FFW69XNUQKFNT70FNTA","A22LRKFP5S22GR","3THR0FZ95PF7SK0MYRNAOUHTWA4OLV","","null","<img src=""img/food3.png"" style=""width:200px; border:14px solid green;"">","null","","","","","","","","","",""
"","image-keyboard-response","222","215529","0.0-229.0","3QRYMNZ7FZ3FFW69XNUQKFNT70FNTA","A22LRKFP5S22GR","3THR0FZ95PF7SK0MYRNAOUHTWA4OLV","","","img/food3.png","","1004","-1","0","3","2","1,0.7,0,1,0.7,0,0.7,0,1","0,1,0.7,0,1,0.7,1,0.7,0","3","true",""
"","html-keyboard-response","223","215834","0.0-230.0","3QRYMNZ7FZ3FFW69XNUQKFNT70FNTA","A22LRKFP5S22GR","3THR0FZ95PF7SK0MYRNAOUHTWA4OLV","","null","<img src=""img/food3.png"" style=""width:200px;border:14px solid red;"">","null","","","","","","","","","",""
"","html-keyboard-response","224","217570","0.0-231.0-0.0","3QRYMNZ7FZ3FFW69XNUQKFNT70FNTA","A22LRKFP5S22GR","3THR0FZ95PF7SK0MYRNAOUHTWA4OLV","","","","","","","","","","","","","",""
"","image-keyboard-response","225","218408","0.0-232.0","3QRYMNZ7FZ3FFW69XNUQKFNT70FNTA","A22LRKFP5S22GR","3THR0FZ95PF7SK0MYRNAOUHTWA4OLV","","832","img/food5.png","75","837","2","1","1","2","1,0.7,0,1,0.7,0,0.7,0,1","0,1,0.7,0,1,0.7,1,0.7,0","3","false",""
"","html-keyboard-response","226","218715","0.0-233.0","3QRYMNZ7FZ3FFW69XNUQKFNT70FNTA","A22LRKFP5S22GR","3THR0FZ95PF7SK0MYRNAOUHTWA4OLV","","null","<img src=""img/food5.png"" style=""width:200px; border:14px solid green;"">","null","","","","","","","","","",""
"","image-keyboard-response","227","219619","0.0-235.0","3QRYMNZ7FZ3FFW69XNUQKFNT70FNTA","A22LRKFP5S22GR","3THR0FZ95PF7SK0MYRNAOUHTWA4OLV","","902","img/food2.png","75","903","2","1","2","2","1,0.7,0,1,0.7,0,0.7,0,1","0,1,0.7,0,1,0.7,1,0.7,0","3","false",""
"","html-keyboard-response","228","219921","0.0-236.0","3QRYMNZ7FZ3FFW69XNUQKFNT70FNTA","A22LRKFP5S22GR","3THR0FZ95PF7SK0MYRNAOUHTWA4OLV","","null","<img src=""img/food2.png"" style=""width:200px; border:14px solid green;"">","null","","","","","","","","","",""
"","image-keyboard-response","229","220933","0.0-238.0","3QRYMNZ7FZ3FFW69XNUQKFNT70FNTA","A22LRKFP5S22GR","3THR0FZ95PF7SK0MYRNAOUHTWA4OLV","","","img/food5.png","","1011","-1","0","1","2","1,0.7,0,1,0.7,0,0.7,0,1","0,1,0.7,0,1,0.7,1,0.7,0","3","true",""
"","html-keyboard-response","230","221240","0.0-239.0","3QRYMNZ7FZ3FFW69XNUQKFNT70FNTA","A22LRKFP5S22GR","3THR0FZ95PF7SK0MYRNAOUHTWA4OLV","","null","<img src=""img/food5.png"" style=""width:200px;border:14px solid red;"">","null","","","","","","","","","",""
"","html-keyboard-response","231","222894","0.0-240.0-0.0","3QRYMNZ7FZ3FFW69XNUQKFNT70FNTA","A22LRKFP5S22GR","3THR0FZ95PF7SK0MYRNAOUHTWA4OLV","","","","","","","","","","","","","",""
"","image-keyboard-response","232","223863","0.0-241.0","3QRYMNZ7FZ3FFW69XNUQKFNT70FNTA","A22LRKFP5S22GR","3THR0FZ95PF7SK0MYRNAOUHTWA4OLV","","967","img/food2.png","75","968","2","1","2","2","1,0.7,0,1,0.7,0,0.7,0,1","0,1,0.7,0,1,0.7,1,0.7,0","3","false",""
"","html-keyboard-response","233","224166","0.0-242.0","3QRYMNZ7FZ3FFW69XNUQKFNT70FNTA","A22LRKFP5S22GR","3THR0FZ95PF7SK0MYRNAOUHTWA4OLV","","null","<img src=""img/food2.png"" style=""width:200px; border:14px solid green;"">","null","","","","","","","","","",""
"","image-keyboard-response","234","225088","0.0-244.0","3QRYMNZ7FZ3FFW69XNUQKFNT70FNTA","A22LRKFP5S22GR","3THR0FZ95PF7SK0MYRNAOUHTWA4OLV","","921","img/food5.png","76","922","3","0","1","2","1,0.7,0,1,0.7,0,0.7,0,1","0,1,0.7,0,1,0.7,1,0.7,0","3","false",""
"","html-keyboard-response","235","225391","0.0-245.0","3QRYMNZ7FZ3FFW69XNUQKFNT70FNTA","A22LRKFP5S22GR","3THR0FZ95PF7SK0MYRNAOUHTWA4OLV","","null","<img src=""img/food5.png"" style=""width:200px;border:14px solid red;"">","null","","","","","","","","","",""
"","image-keyboard-response","236","226316","0.0-247.0","3QRYMNZ7FZ3FFW69XNUQKFNT70FNTA","A22LRKFP5S22GR","3THR0FZ95PF7SK0MYRNAOUHTWA4OLV","","924","img/food3.png","75","925","2","1","3","2","1,0.7,0,1,0.7,0,0.7,0,1","0,1,0.7,0,1,0.7,1,0.7,0","3","false",""
"","html-keyboard-response","237","226619","0.0-248.0","3QRYMNZ7FZ3FFW69XNUQKFNT70FNTA","A22LRKFP5S22GR","3THR0FZ95PF7SK0MYRNAOUHTWA4OLV","","null","<img src=""img/food3.png"" style=""width:200px; border:14px solid green;"">","null","","","","","","","","","",""
"","image-keyboard-response","238","227625","0.0-250.0","3QRYMNZ7FZ3FFW69XNUQKFNT70FNTA","A22LRKFP5S22GR","3THR0FZ95PF7SK0MYRNAOUHTWA4OLV","","","img/food2.png","","1005","-1","0","2","2","1,0.7,0,1,0.7,0,0.7,0,1","0,1,0.7,0,1,0.7,1,0.7,0","3","true",""
"","html-keyboard-response","239","227926","0.0-251.0","3QRYMNZ7FZ3FFW69XNUQKFNT70FNTA","A22LRKFP5S22GR","3THR0FZ95PF7SK0MYRNAOUHTWA4OLV","","null","<img src=""img/food2.png"" style=""width:200px;border:14px solid red;"">","null","","","","","","","","","",""
"","html-keyboard-response","240","229674","0.0-252.0-0.0","3QRYMNZ7FZ3FFW69XNUQKFNT70FNTA","A22LRKFP5S22GR","3THR0FZ95PF7SK0MYRNAOUHTWA4OLV","","","","","","","","","","","","","",""
"","image-keyboard-response","241","230421","0.0-253.0","3QRYMNZ7FZ3FFW69XNUQKFNT70FNTA","A22LRKFP5S22GR","3THR0FZ95PF7SK0MYRNAOUHTWA4OLV","","744","img/food3.png","75","747","2","1","3","2","1,0.7,0,1,0.7,0,0.7,0,1","0,1,0.7,0,1,0.7,1,0.7,0","3","false",""
"","html-keyboard-response","242","230721","0.0-254.0","3QRYMNZ7FZ3FFW69XNUQKFNT70FNTA","A22LRKFP5S22GR","3THR0FZ95PF7SK0MYRNAOUHTWA4OLV","","null","<img src=""img/food3.png"" style=""width:200px; border:14px solid green;"">","null","","","","","","","","","",""
"","image-keyboard-response","243","231641","0.0-256.0","3QRYMNZ7FZ3FFW69XNUQKFNT70FNTA","A22LRKFP5S22GR","3THR0FZ95PF7SK0MYRNAOUHTWA4OLV","","919","img/food3.png","75","920","2","0","3","2","1,0.7,0,1,0.7,0,0.7,0,1","0,1,0.7,0,1,0.7,1,0.7,0","3","false",""
"","html-keyboard-response","244","231943","0.0-257.0","3QRYMNZ7FZ3FFW69XNUQKFNT70FNTA","A22LRKFP5S22GR","3THR0FZ95PF7SK0MYRNAOUHTWA4OLV","","null","<img src=""img/food3.png"" style=""width:200px;border:14px solid red;"">","null","","","","","","","","","",""
"","image-keyboard-response","245","232882","0.0-259.0","3QRYMNZ7FZ3FFW69XNUQKFNT70FNTA","A22LRKFP5S22GR","3THR0FZ95PF7SK0MYRNAOUHTWA4OLV","","937","img/food3.png","74","939","1","1","3","2","1,0.7,0,1,0.7,0,0.7,0,1","0,1,0.7,0,1,0.7,1,0.7,0","3","false",""
"","html-keyboard-response","246","233191","0.0-260.0","3QRYMNZ7FZ3FFW69XNUQKFNT70FNTA","A22LRKFP5S22GR","3THR0FZ95PF7SK0MYRNAOUHTWA4OLV","","null","<img src=""img/food3.png"" style=""width:200px; border:14px solid green;"">","null","","","","","","","","","",""
"","image-keyboard-response","247","234032","0.0-262.0","3QRYMNZ7FZ3FFW69XNUQKFNT70FNTA","A22LRKFP5S22GR","3THR0FZ95PF7SK0MYRNAOUHTWA4OLV","","840","img/food3.png","75","841","2","0","3","2","1,0.7,0,1,0.7,0,0.7,0,1","0,1,0.7,0,1,0.7,1,0.7,0","3","false",""
"","html-keyboard-response","248","234334","0.0-263.0","3QRYMNZ7FZ3FFW69XNUQKFNT70FNTA","A22LRKFP5S22GR","3THR0FZ95PF7SK0MYRNAOUHTWA4OLV","","null","<img src=""img/food3.png"" style=""width:200px;border:14px solid red;"">","null","","","","","","","","","",""
"","image-keyboard-response","249","235020","0.0-265.0","3QRYMNZ7FZ3FFW69XNUQKFNT70FNTA","A22LRKFP5S22GR","3THR0FZ95PF7SK0MYRNAOUHTWA4OLV","","684","img/food5.png","74","685","1","0","1","2","1,0.7,0,1,0.7,0,0.7,0,1","0,1,0.7,0,1,0.7,1,0.7,0","3","false",""
"","html-keyboard-response","250","235324","0.0-266.0","3QRYMNZ7FZ3FFW69XNUQKFNT70FNTA","A22LRKFP5S22GR","3THR0FZ95PF7SK0MYRNAOUHTWA4OLV","","null","<img src=""img/food5.png"" style=""width:200px;border:14px solid red;"">","null","","","","","","","","","",""
"","image-keyboard-response","251","236077","0.0-268.0","3QRYMNZ7FZ3FFW69XNUQKFNT70FNTA","A22LRKFP5S22GR","3THR0FZ95PF7SK0MYRNAOUHTWA4OLV","","752","img/food5.png","76","752","3","0","1","2","1,0.7,0,1,0.7,0,0.7,0,1","0,1,0.7,0,1,0.7,1,0.7,0","3","false",""
"","html-keyboard-response","252","236383","0.0-269.0","3QRYMNZ7FZ3FFW69XNUQKFNT70FNTA","A22LRKFP5S22GR","3THR0FZ95PF7SK0MYRNAOUHTWA4OLV","","null","<img src=""img/food5.png"" style=""width:200px;border:14px solid red;"">","null","","","","","","","","","",""
"","image-keyboard-response","253","237151","0.0-271.0","3QRYMNZ7FZ3FFW69XNUQKFNT70FNTA","A22LRKFP5S22GR","3THR0FZ95PF7SK0MYRNAOUHTWA4OLV","","767","img/food3.png","76","768","3","0","3","2","1,0.7,0,1,0.7,0,0.7,0,1","0,1,0.7,0,1,0.7,1,0.7,0","3","false",""
"","html-keyboard-response","254","237453","0.0-272.0","3QRYMNZ7FZ3FFW69XNUQKFNT70FNTA","A22LRKFP5S22GR","3THR0FZ95PF7SK0MYRNAOUHTWA4OLV","","null","<img src=""img/food3.png"" style=""width:200px;border:14px solid red;"">","null","","","","","","","","","",""
"","image-keyboard-response","255","238400","0.0-274.0","3QRYMNZ7FZ3FFW69XNUQKFNT70FNTA","A22LRKFP5S22GR","3THR0FZ95PF7SK0MYRNAOUHTWA4OLV","","943","img/food2.png","74","945","1","0","2","2","1,0.7,0,1,0.7,0,0.7,0,1","0,1,0.7,0,1,0.7,1,0.7,0","3","false",""
"","html-keyboard-response","256","238714","0.0-275.0","3QRYMNZ7FZ3FFW69XNUQKFNT70FNTA","A22LRKFP5S22GR","3THR0FZ95PF7SK0MYRNAOUHTWA4OLV","","null","<img src=""img/food2.png"" style=""width:200px;border:14px solid red;"">","null","","","","","","","","","",""
"","image-keyboard-response","257","239621","0.0-277.0","3QRYMNZ7FZ3FFW69XNUQKFNT70FNTA","A22LRKFP5S22GR","3THR0FZ95PF7SK0MYRNAOUHTWA4OLV","","905","img/food2.png","75","907","2","1","2","2","1,0.7,0,1,0.7,0,0.7,0,1","0,1,0.7,0,1,0.7,1,0.7,0","3","false",""
"","html-keyboard-response","258","239925","0.0-278.0","3QRYMNZ7FZ3FFW69XNUQKFNT70FNTA","A22LRKFP5S22GR","3THR0FZ95PF7SK0MYRNAOUHTWA4OLV","","null","<img src=""img/food2.png"" style=""width:200px; border:14px solid green;"">","null","","","","","","","","","",""
"","image-keyboard-response","259","240930","0.0-280.0","3QRYMNZ7FZ3FFW69XNUQKFNT70FNTA","A22LRKFP5S22GR","3THR0FZ95PF7SK0MYRNAOUHTWA4OLV","","","img/food2.png","","1004","-1","0","2","2","1,0.7,0,1,0.7,0,0.7,0,1","0,1,0.7,0,1,0.7,1,0.7,0","3","true",""
"","html-keyboard-response","260","241236","0.0-281.0","3QRYMNZ7FZ3FFW69XNUQKFNT70FNTA","A22LRKFP5S22GR","3THR0FZ95PF7SK0MYRNAOUHTWA4OLV","","null","<img src=""img/food2.png"" style=""width:200px;border:14px solid red;"">","null","","","","","","","","","",""
"","html-keyboard-response","261","243724","0.0-282.0-0.0","3QRYMNZ7FZ3FFW69XNUQKFNT70FNTA","A22LRKFP5S22GR","3THR0FZ95PF7SK0MYRNAOUHTWA4OLV","","","","","","","","","","","","","",""
"","image-keyboard-response","262","244524","0.0-283.0","3QRYMNZ7FZ3FFW69XNUQKFNT70FNTA","A22LRKFP5S22GR","3THR0FZ95PF7SK0MYRNAOUHTWA4OLV","","799","img/food3.png","76","800","3","0","3","2","1,0.7,0,1,0.7,0,0.7,0,1","0,1,0.7,0,1,0.7,1,0.7,0","3","false",""
"","html-keyboard-response","263","244834","0.0-284.0","3QRYMNZ7FZ3FFW69XNUQKFNT70FNTA","A22LRKFP5S22GR","3THR0FZ95PF7SK0MYRNAOUHTWA4OLV","","null","<img src=""img/food3.png"" style=""width:200px;border:14px solid red;"">","null","","","","","","","","","",""
"","image-keyboard-response","264","244956","0.0-286.0","3QRYMNZ7FZ3FFW69XNUQKFNT70FNTA","A22LRKFP5S22GR","3THR0FZ95PF7SK0MYRNAOUHTWA4OLV","","119","img/food3.png","75","120","2","0","3","2","1,0.7,0,1,0.7,0,0.7,0,1","0,1,0.7,0,1,0.7,1,0.7,0","3","false",""
"","html-keyboard-response","265","245265","0.0-287.0","3QRYMNZ7FZ3FFW69XNUQKFNT70FNTA","A22LRKFP5S22GR","3THR0FZ95PF7SK0MYRNAOUHTWA4OLV","","null","<img src=""img/food3.png"" style=""width:200px;border:14px solid red;"">","null","","","","","","","","","",""
"","image-keyboard-response","266","246169","0.0-289.0","3QRYMNZ7FZ3FFW69XNUQKFNT70FNTA","A22LRKFP5S22GR","3THR0FZ95PF7SK0MYRNAOUHTWA4OLV","","902","img/food2.png","75","903","2","1","2","2","1,0.7,0,1,0.7,0,0.7,0,1","0,1,0.7,0,1,0.7,1,0.7,0","3","false",""
"","html-keyboard-response","267","246470","0.0-290.0","3QRYMNZ7FZ3FFW69XNUQKFNT70FNTA","A22LRKFP5S22GR","3THR0FZ95PF7SK0MYRNAOUHTWA4OLV","","null","<img src=""img/food2.png"" style=""width:200px; border:14px solid green;"">","null","","","","","","","","","",""
"","image-keyboard-response","268","247300","0.0-292.0","3QRYMNZ7FZ3FFW69XNUQKFNT70FNTA","A22LRKFP5S22GR","3THR0FZ95PF7SK0MYRNAOUHTWA4OLV","","827","img/food5.png","74","829","1","0","1","2","1,0.7,0,1,0.7,0,0.7,0,1","0,1,0.7,0,1,0.7,1,0.7,0","3","false",""
"","html-keyboard-response","269","247601","0.0-293.0","3QRYMNZ7FZ3FFW69XNUQKFNT70FNTA","A22LRKFP5S22GR","3THR0FZ95PF7SK0MYRNAOUHTWA4OLV","","null","<img src=""img/food5.png"" style=""width:200px;border:14px solid red;"">","null","","","","","","","","","",""
"","image-keyboard-response","270","248419","0.0-295.0","3QRYMNZ7FZ3FFW69XNUQKFNT70FNTA","A22LRKFP5S22GR","3THR0FZ95PF7SK0MYRNAOUHTWA4OLV","","816","img/food2.png","76","817","3","1","2","2","1,0.7,0,1,0.7,0,0.7,0,1","0,1,0.7,0,1,0.7,1,0.7,0","3","false",""
"","html-keyboard-response","271","248745","0.0-296.0","3QRYMNZ7FZ3FFW69XNUQKFNT70FNTA","A22LRKFP5S22GR","3THR0FZ95PF7SK0MYRNAOUHTWA4OLV","","null","<img src=""img/food2.png"" style=""width:200px; border:14px solid green;"">","null","","","","","","","","","",""
"","image-keyboard-response","272","249749","0.0-298.0","3QRYMNZ7FZ3FFW69XNUQKFNT70FNTA","A22LRKFP5S22GR","3THR0FZ95PF7SK0MYRNAOUHTWA4OLV","","","img/food3.png","","1004","-1","0","3","2","1,0.7,0,1,0.7,0,0.7,0,1","0,1,0.7,0,1,0.7,1,0.7,0","3","true",""
"","html-keyboard-response","273","250054","0.0-299.0","3QRYMNZ7FZ3FFW69XNUQKFNT70FNTA","A22LRKFP5S22GR","3THR0FZ95PF7SK0MYRNAOUHTWA4OLV","","null","<img src=""img/food3.png"" style=""width:200px;border:14px solid red;"">","null","","","","","","","","","",""
"","html-keyboard-response","274","251763","0.0-300.0-0.0","3QRYMNZ7FZ3FFW69XNUQKFNT70FNTA","A22LRKFP5S22GR","3THR0FZ95PF7SK0MYRNAOUHTWA4OLV","","","","","","","","","","","","","",""
"","image-keyboard-response","275","252629","0.0-301.0","3QRYMNZ7FZ3FFW69XNUQKFNT70FNTA","A22LRKFP5S22GR","3THR0FZ95PF7SK0MYRNAOUHTWA4OLV","","863","img/food5.png","76","865","3","0","1","2","1,0.7,0,1,0.7,0,0.7,0,1","0,1,0.7,0,1,0.7,1,0.7,0","3","false",""
"","html-keyboard-response","276","252931","0.0-302.0","3QRYMNZ7FZ3FFW69XNUQKFNT70FNTA","A22LRKFP5S22GR","3THR0FZ95PF7SK0MYRNAOUHTWA4OLV","","null","<img src=""img/food5.png"" style=""width:200px;border:14px solid red;"">","null","","","","","","","","","",""
"","image-keyboard-response","277","253751","0.0-304.0","3QRYMNZ7FZ3FFW69XNUQKFNT70FNTA","A22LRKFP5S22GR","3THR0FZ95PF7SK0MYRNAOUHTWA4OLV","","818","img/food2.png","75","820","2","1","2","2","1,0.7,0,1,0.7,0,0.7,0,1","0,1,0.7,0,1,0.7,1,0.7,0","3","false",""
"","html-keyboard-response","278","254053","0.0-305.0","3QRYMNZ7FZ3FFW69XNUQKFNT70FNTA","A22LRKFP5S22GR","3THR0FZ95PF7SK0MYRNAOUHTWA4OLV","","null","<img src=""img/food2.png"" style=""width:200px; border:14px solid green;"">","null","","","","","","","","","",""
"","image-keyboard-response","279","255038","0.0-307.0","3QRYMNZ7FZ3FFW69XNUQKFNT70FNTA","A22LRKFP5S22GR","3THR0FZ95PF7SK0MYRNAOUHTWA4OLV","","983","img/food3.png","75","984","2","0","3","2","1,0.7,0,1,0.7,0,0.7,0,1","0,1,0.7,0,1,0.7,1,0.7,0","3","false",""
"","html-keyboard-response","280","255340","0.0-308.0","3QRYMNZ7FZ3FFW69XNUQKFNT70FNTA","A22LRKFP5S22GR","3THR0FZ95PF7SK0MYRNAOUHTWA4OLV","","null","<img src=""img/food3.png"" style=""width:200px;border:14px solid red;"">","null","","","","","","","","","",""
"","image-keyboard-response","281","256154","0.0-310.0","3QRYMNZ7FZ3FFW69XNUQKFNT70FNTA","A22LRKFP5S22GR","3THR0FZ95PF7SK0MYRNAOUHTWA4OLV","","812","img/food3.png","74","814","1","1","3","2","1,0.7,0,1,0.7,0,0.7,0,1","0,1,0.7,0,1,0.7,1,0.7,0","3","false",""
"","html-keyboard-response","282","256461","0.0-311.0","3QRYMNZ7FZ3FFW69XNUQKFNT70FNTA","A22LRKFP5S22GR","3THR0FZ95PF7SK0MYRNAOUHTWA4OLV","","null","<img src=""img/food3.png"" style=""width:200px; border:14px solid green;"">","null","","","","","","","","","",""
"","image-keyboard-response","283","257466","0.0-313.0","3QRYMNZ7FZ3FFW69XNUQKFNT70FNTA","A22LRKFP5S22GR","3THR0FZ95PF7SK0MYRNAOUHTWA4OLV","","","img/food5.png","","1004","-1","0","1","2","1,0.7,0,1,0.7,0,0.7,0,1","0,1,0.7,0,1,0.7,1,0.7,0","3","true",""
"","html-keyboard-response","284","257772","0.0-314.0","3QRYMNZ7FZ3FFW69XNUQKFNT70FNTA","A22LRKFP5S22GR","3THR0FZ95PF7SK0MYRNAOUHTWA4OLV","","null","<img src=""img/food5.png"" style=""width:200px;border:14px solid red;"">","null","","","","","","","","","",""
"","html-keyboard-response","285","259488","0.0-315.0-0.0","3QRYMNZ7FZ3FFW69XNUQKFNT70FNTA","A22LRKFP5S22GR","3THR0FZ95PF7SK0MYRNAOUHTWA4OLV","","","","","","","","","","","","","",""
"","image-keyboard-response","286","260498","0.0-316.0","3QRYMNZ7FZ3FFW69XNUQKFNT70FNTA","A22LRKFP5S22GR","3THR0FZ95PF7SK0MYRNAOUHTWA4OLV","","","img/food2.png","","1009","-1","0","2","2","1,0.7,0,1,0.7,0,0.7,0,1","0,1,0.7,0,1,0.7,1,0.7,0","3","true",""
"","html-keyboard-response","287","260803","0.0-317.0","3QRYMNZ7FZ3FFW69XNUQKFNT70FNTA","A22LRKFP5S22GR","3THR0FZ95PF7SK0MYRNAOUHTWA4OLV","","null","<img src=""img/food2.png"" style=""width:200px;border:14px solid red;"">","null","","","","","","","","","",""
"","html-keyboard-response","288","264488","0.0-318.0-0.0","3QRYMNZ7FZ3FFW69XNUQKFNT70FNTA","A22LRKFP5S22GR","3THR0FZ95PF7SK0MYRNAOUHTWA4OLV","","","","","","","","","","","","","",""
"","image-keyboard-response","289","265238","0.0-319.0","3QRYMNZ7FZ3FFW69XNUQKFNT70FNTA","A22LRKFP5S22GR","3THR0FZ95PF7SK0MYRNAOUHTWA4OLV","","746","img/food2.png","75","749","2","1","2","2","1,0.7,0,1,0.7,0,0.7,0,1","0,1,0.7,0,1,0.7,1,0.7,0","3","false",""
"","html-keyboard-response","290","265542","0.0-320.0","3QRYMNZ7FZ3FFW69XNUQKFNT70FNTA","A22LRKFP5S22GR","3THR0FZ95PF7SK0MYRNAOUHTWA4OLV","","null","<img src=""img/food2.png"" style=""width:200px; border:14px solid green;"">","null","","","","","","","","","",""
"","image-keyboard-response","291","266305","0.0-322.0","3QRYMNZ7FZ3FFW69XNUQKFNT70FNTA","A22LRKFP5S22GR","3THR0FZ95PF7SK0MYRNAOUHTWA4OLV","","762","img/food5.png","74","762","1","0","1","2","1,0.7,0,1,0.7,0,0.7,0,1","0,1,0.7,0,1,0.7,1,0.7,0","3","false",""
"","html-keyboard-response","292","266609","0.0-323.0","3QRYMNZ7FZ3FFW69XNUQKFNT70FNTA","A22LRKFP5S22GR","3THR0FZ95PF7SK0MYRNAOUHTWA4OLV","","null","<img src=""img/food5.png"" style=""width:200px;border:14px solid red;"">","null","","","","","","","","","",""
"","image-keyboard-response","293","267500","0.0-325.0","3QRYMNZ7FZ3FFW69XNUQKFNT70FNTA","A22LRKFP5S22GR","3THR0FZ95PF7SK0MYRNAOUHTWA4OLV","","888","img/food2.png","76","890","3","0","2","2","1,0.7,0,1,0.7,0,0.7,0,1","0,1,0.7,0,1,0.7,1,0.7,0","3","false",""
"","html-keyboard-response","294","267804","0.0-326.0","3QRYMNZ7FZ3FFW69XNUQKFNT70FNTA","A22LRKFP5S22GR","3THR0FZ95PF7SK0MYRNAOUHTWA4OLV","","null","<img src=""img/food2.png"" style=""width:200px;border:14px solid red;"">","null","","","","","","","","","",""
"","image-keyboard-response","295","268569","0.0-328.0","3QRYMNZ7FZ3FFW69XNUQKFNT70FNTA","A22LRKFP5S22GR","3THR0FZ95PF7SK0MYRNAOUHTWA4OLV","","750","img/food2.png","75","764","2","1","2","2","1,0.7,0,1,0.7,0,0.7,0,1","0,1,0.7,0,1,0.7,1,0.7,0","3","false",""
"","html-keyboard-response","296","268876","0.0-329.0","3QRYMNZ7FZ3FFW69XNUQKFNT70FNTA","A22LRKFP5S22GR","3THR0FZ95PF7SK0MYRNAOUHTWA4OLV","","null","<img src=""img/food2.png"" style=""width:200px; border:14px solid green;"">","null","","","","","","","","","",""
"","image-keyboard-response","297","269845","0.0-331.0","3QRYMNZ7FZ3FFW69XNUQKFNT70FNTA","A22LRKFP5S22GR","3THR0FZ95PF7SK0MYRNAOUHTWA4OLV","","967","img/food3.png","75","968","2","1","3","2","1,0.7,0,1,0.7,0,0.7,0,1","0,1,0.7,0,1,0.7,1,0.7,0","3","false",""
"","html-keyboard-response","298","270149","0.0-332.0","3QRYMNZ7FZ3FFW69XNUQKFNT70FNTA","A22LRKFP5S22GR","3THR0FZ95PF7SK0MYRNAOUHTWA4OLV","","null","<img src=""img/food3.png"" style=""width:200px; border:14px solid green;"">","null","","","","","","","","","",""
"","image-keyboard-response","299","271108","0.0-334.0","3QRYMNZ7FZ3FFW69XNUQKFNT70FNTA","A22LRKFP5S22GR","3THR0FZ95PF7SK0MYRNAOUHTWA4OLV","","958","img/food3.png","75","959","2","0","3","2","1,0.7,0,1,0.7,0,0.7,0,1","0,1,0.7,0,1,0.7,1,0.7,0","3","false",""
"","html-keyboard-response","300","271410","0.0-335.0","3QRYMNZ7FZ3FFW69XNUQKFNT70FNTA","A22LRKFP5S22GR","3THR0FZ95PF7SK0MYRNAOUHTWA4OLV","","null","<img src=""img/food3.png"" style=""width:200px;border:14px solid red;"">","null","","","","","","","","","",""
"","image-keyboard-response","301","272412","0.0-337.0","3QRYMNZ7FZ3FFW69XNUQKFNT70FNTA","A22LRKFP5S22GR","3THR0FZ95PF7SK0MYRNAOUHTWA4OLV","","","img/food2.png","","1002","-1","0","2","2","1,0.7,0,1,0.7,0,0.7,0,1","0,1,0.7,0,1,0.7,1,0.7,0","3","true",""
"","html-keyboard-response","302","272716","0.0-338.0","3QRYMNZ7FZ3FFW69XNUQKFNT70FNTA","A22LRKFP5S22GR","3THR0FZ95PF7SK0MYRNAOUHTWA4OLV","","null","<img src=""img/food2.png"" style=""width:200px;border:14px solid red;"">","null","","","","","","","","","",""
"","html-keyboard-response","303","275461","0.0-339.0-0.0","3QRYMNZ7FZ3FFW69XNUQKFNT70FNTA","A22LRKFP5S22GR","3THR0FZ95PF7SK0MYRNAOUHTWA4OLV","","","","","","","","","","","","","",""
"","image-keyboard-response","304","276267","0.0-340.0","3QRYMNZ7FZ3FFW69XNUQKFNT70FNTA","A22LRKFP5S22GR","3THR0FZ95PF7SK0MYRNAOUHTWA4OLV","","803","img/food5.png","75","805","2","1","1","2","1,0.7,0,1,0.7,0,0.7,0,1","0,1,0.7,0,1,0.7,1,0.7,0","3","false",""
"","html-keyboard-response","305","276577","0.0-341.0","3QRYMNZ7FZ3FFW69XNUQKFNT70FNTA","A22LRKFP5S22GR","3THR0FZ95PF7SK0MYRNAOUHTWA4OLV","","null","<img src=""img/food5.png"" style=""width:200px; border:14px solid green;"">","null","","","","","","","","","",""
"","image-keyboard-response","306","277482","0.0-343.0","3QRYMNZ7FZ3FFW69XNUQKFNT70FNTA","A22LRKFP5S22GR","3THR0FZ95PF7SK0MYRNAOUHTWA4OLV","","903","img/food5.png","75","904","2","1","1","2","1,0.7,0,1,0.7,0,0.7,0,1","0,1,0.7,0,1,0.7,1,0.7,0","3","false",""
"","html-keyboard-response","307","277784","0.0-344.0","3QRYMNZ7FZ3FFW69XNUQKFNT70FNTA","A22LRKFP5S22GR","3THR0FZ95PF7SK0MYRNAOUHTWA4OLV","","null","<img src=""img/food5.png"" style=""width:200px; border:14px solid green;"">","null","","","","","","","","","",""
"","image-keyboard-response","308","278678","0.0-346.0","3QRYMNZ7FZ3FFW69XNUQKFNT70FNTA","A22LRKFP5S22GR","3THR0FZ95PF7SK0MYRNAOUHTWA4OLV","","891","img/food3.png","74","892","1","1","3","2","1,0.7,0,1,0.7,0,0.7,0,1","0,1,0.7,0,1,0.7,1,0.7,0","3","false",""
"","html-keyboard-response","309","278980","0.0-347.0","3QRYMNZ7FZ3FFW69XNUQKFNT70FNTA","A22LRKFP5S22GR","3THR0FZ95PF7SK0MYRNAOUHTWA4OLV","","null","<img src=""img/food3.png"" style=""width:200px; border:14px solid green;"">","null","","","","","","","","","",""
"","image-keyboard-response","310","279902","0.0-349.0","3QRYMNZ7FZ3FFW69XNUQKFNT70FNTA","A22LRKFP5S22GR","3THR0FZ95PF7SK0MYRNAOUHTWA4OLV","","921","img/food5.png","75","922","2","1","1","2","1,0.7,0,1,0.7,0,0.7,0,1","0,1,0.7,0,1,0.7,1,0.7,0","3","false",""
"","html-keyboard-response","311","280210","0.0-350.0","3QRYMNZ7FZ3FFW69XNUQKFNT70FNTA","A22LRKFP5S22GR","3THR0FZ95PF7SK0MYRNAOUHTWA4OLV","","null","<img src=""img/food5.png"" style=""width:200px; border:14px solid green;"">","null","","","","","","","","","",""
"","image-keyboard-response","312","281045","0.0-352.0","3QRYMNZ7FZ3FFW69XNUQKFNT70FNTA","A22LRKFP5S22GR","3THR0FZ95PF7SK0MYRNAOUHTWA4OLV","","833","img/food3.png","74","833","1","1","3","2","1,0.7,0,1,0.7,0,0.7,0,1","0,1,0.7,0,1,0.7,1,0.7,0","3","false",""
"","html-keyboard-response","313","281351","0.0-353.0","3QRYMNZ7FZ3FFW69XNUQKFNT70FNTA","A22LRKFP5S22GR","3THR0FZ95PF7SK0MYRNAOUHTWA4OLV","","null","<img src=""img/food3.png"" style=""width:200px; border:14px solid green;"">","null","","","","","","","","","",""
"","image-keyboard-response","314","282289","0.0-355.0","3QRYMNZ7FZ3FFW69XNUQKFNT70FNTA","A22LRKFP5S22GR","3THR0FZ95PF7SK0MYRNAOUHTWA4OLV","","936","img/food3.png","75","938","2","0","3","2","1,0.7,0,1,0.7,0,0.7,0,1","0,1,0.7,0,1,0.7,1,0.7,0","3","false",""
"","html-keyboard-response","315","282591","0.0-356.0","3QRYMNZ7FZ3FFW69XNUQKFNT70FNTA","A22LRKFP5S22GR","3THR0FZ95PF7SK0MYRNAOUHTWA4OLV","","null","<img src=""img/food3.png"" style=""width:200px;border:14px solid red;"">","null","","","","","","","","","",""
"","image-keyboard-response","316","283393","0.0-358.0","3QRYMNZ7FZ3FFW69XNUQKFNT70FNTA","A22LRKFP5S22GR","3THR0FZ95PF7SK0MYRNAOUHTWA4OLV","","800","img/food2.png","74","801","1","0","2","2","1,0.7,0,1,0.7,0,0.7,0,1","0,1,0.7,0,1,0.7,1,0.7,0","3","false",""
"","html-keyboard-response","317","283698","0.0-359.0","3QRYMNZ7FZ3FFW69XNUQKFNT70FNTA","A22LRKFP5S22GR","3THR0FZ95PF7SK0MYRNAOUHTWA4OLV","","null","<img src=""img/food2.png"" style=""width:200px;border:14px solid red;"">","null","","","","","","","","","",""
"","image-keyboard-response","318","284708","0.0-361.0","3QRYMNZ7FZ3FFW69XNUQKFNT70FNTA","A22LRKFP5S22GR","3THR0FZ95PF7SK0MYRNAOUHTWA4OLV","","","img/food2.png","","1010","-1","0","2","2","1,0.7,0,1,0.7,0,0.7,0,1","0,1,0.7,0,1,0.7,1,0.7,0","3","true",""
"","html-keyboard-response","319","285014","0.0-362.0","3QRYMNZ7FZ3FFW69XNUQKFNT70FNTA","A22LRKFP5S22GR","3THR0FZ95PF7SK0MYRNAOUHTWA4OLV","","null","<img src=""img/food2.png"" style=""width:200px;border:14px solid red;"">","null","","","","","","","","","",""
"","html-keyboard-response","320","286611","0.0-363.0-0.0","3QRYMNZ7FZ3FFW69XNUQKFNT70FNTA","A22LRKFP5S22GR","3THR0FZ95PF7SK0MYRNAOUHTWA4OLV","","","","","","","","","","","","","",""
"","image-keyboard-response","321","287427","0.0-364.0","3QRYMNZ7FZ3FFW69XNUQKFNT70FNTA","A22LRKFP5S22GR","3THR0FZ95PF7SK0MYRNAOUHTWA4OLV","","815","img/food5.png","75","816","2","1","1","2","1,0.7,0,1,0.7,0,0.7,0,1","0,1,0.7,0,1,0.7,1,0.7,0","3","false",""
"","html-keyboard-response","322","287730","0.0-365.0","3QRYMNZ7FZ3FFW69XNUQKFNT70FNTA","A22LRKFP5S22GR","3THR0FZ95PF7SK0MYRNAOUHTWA4OLV","","null","<img src=""img/food5.png"" style=""width:200px; border:14px solid green;"">","null","","","","","","","","","",""
"","image-keyboard-response","323","288649","0.0-367.0","3QRYMNZ7FZ3FFW69XNUQKFNT70FNTA","A22LRKFP5S22GR","3THR0FZ95PF7SK0MYRNAOUHTWA4OLV","","918","img/food3.png","74","918","1","1","3","2","1,0.7,0,1,0.7,0,0.7,0,1","0,1,0.7,0,1,0.7,1,0.7,0","3","false",""
"","html-keyboard-response","324","288956","0.0-368.0","3QRYMNZ7FZ3FFW69XNUQKFNT70FNTA","A22LRKFP5S22GR","3THR0FZ95PF7SK0MYRNAOUHTWA4OLV","","null","<img src=""img/food3.png"" style=""width:200px; border:14px solid green;"">","null","","","","","","","","","",""
"","image-keyboard-response","325","289868","0.0-370.0","3QRYMNZ7FZ3FFW69XNUQKFNT70FNTA","A22LRKFP5S22GR","3THR0FZ95PF7SK0MYRNAOUHTWA4OLV","","911","img/food3.png","74","913","1","1","3","2","1,0.7,0,1,0.7,0,0.7,0,1","0,1,0.7,0,1,0.7,1,0.7,0","3","false",""
"","html-keyboard-response","326","290171","0.0-371.0","3QRYMNZ7FZ3FFW69XNUQKFNT70FNTA","A22LRKFP5S22GR","3THR0FZ95PF7SK0MYRNAOUHTWA4OLV","","null","<img src=""img/food3.png"" style=""width:200px; border:14px solid green;"">","null","","","","","","","","","",""
"","image-keyboard-response","327","291021","0.0-373.0","3QRYMNZ7FZ3FFW69XNUQKFNT70FNTA","A22LRKFP5S22GR","3THR0FZ95PF7SK0MYRNAOUHTWA4OLV","","849","img/food3.png","74","849","1","1","3","2","1,0.7,0,1,0.7,0,0.7,0,1","0,1,0.7,0,1,0.7,1,0.7,0","3","false",""
"","html-keyboard-response","328","291326","0.0-374.0","3QRYMNZ7FZ3FFW69XNUQKFNT70FNTA","A22LRKFP5S22GR","3THR0FZ95PF7SK0MYRNAOUHTWA4OLV","","null","<img src=""img/food3.png"" style=""width:200px; border:14px solid green;"">","null","","","","","","","","","",""
"","image-keyboard-response","329","292233","0.0-376.0","3QRYMNZ7FZ3FFW69XNUQKFNT70FNTA","A22LRKFP5S22GR","3THR0FZ95PF7SK0MYRNAOUHTWA4OLV","","905","img/food5.png","75","906","2","1","1","2","1,0.7,0,1,0.7,0,0.7,0,1","0,1,0.7,0,1,0.7,1,0.7,0","3","false",""
"","html-keyboard-response","330","292542","0.0-377.0","3QRYMNZ7FZ3FFW69XNUQKFNT70FNTA","A22LRKFP5S22GR","3THR0FZ95PF7SK0MYRNAOUHTWA4OLV","","null","<img src=""img/food5.png"" style=""width:200px; border:14px solid green;"">","null","","","","","","","","","",""
"","image-keyboard-response","331","293546","0.0-379.0","3QRYMNZ7FZ3FFW69XNUQKFNT70FNTA","A22LRKFP5S22GR","3THR0FZ95PF7SK0MYRNAOUHTWA4OLV","","","img/food2.png","","1005","-1","0","2","2","1,0.7,0,1,0.7,0,0.7,0,1","0,1,0.7,0,1,0.7,1,0.7,0","3","true",""
"","html-keyboard-response","332","293852","0.0-380.0","3QRYMNZ7FZ3FFW69XNUQKFNT70FNTA","A22LRKFP5S22GR","3THR0FZ95PF7SK0MYRNAOUHTWA4OLV","","null","<img src=""img/food2.png"" style=""width:200px;border:14px solid red;"">","null","","","","","","","","","",""
"","html-keyboard-response","333","296073","0.0-381.0-0.0","3QRYMNZ7FZ3FFW69XNUQKFNT70FNTA","A22LRKFP5S22GR","3THR0FZ95PF7SK0MYRNAOUHTWA4OLV","","","","","","","","","","","","","",""
"","image-keyboard-response","334","296840","0.0-382.0","3QRYMNZ7FZ3FFW69XNUQKFNT70FNTA","A22LRKFP5S22GR","3THR0FZ95PF7SK0MYRNAOUHTWA4OLV","","764","img/food5.png","75","766","2","1","1","2","1,0.7,0,1,0.7,0,0.7,0,1","0,1,0.7,0,1,0.7,1,0.7,0","3","false",""
"","html-keyboard-response","335","297144","0.0-383.0","3QRYMNZ7FZ3FFW69XNUQKFNT70FNTA","A22LRKFP5S22GR","3THR0FZ95PF7SK0MYRNAOUHTWA4OLV","","null","<img src=""img/food5.png"" style=""width:200px; border:14px solid green;"">","null","","","","","","","","","",""
"","image-keyboard-response","336","298048","0.0-385.0","3QRYMNZ7FZ3FFW69XNUQKFNT70FNTA","A22LRKFP5S22GR","3THR0FZ95PF7SK0MYRNAOUHTWA4OLV","","903","img/food5.png","75","904","2","1","1","2","1,0.7,0,1,0.7,0,0.7,0,1","0,1,0.7,0,1,0.7,1,0.7,0","3","false",""
"","html-keyboard-response","337","298349","0.0-386.0","3QRYMNZ7FZ3FFW69XNUQKFNT70FNTA","A22LRKFP5S22GR","3THR0FZ95PF7SK0MYRNAOUHTWA4OLV","","null","<img src=""img/food5.png"" style=""width:200px; border:14px solid green;"">","null","","","","","","","","","",""
"","image-keyboard-response","338","299160","0.0-388.0","3QRYMNZ7FZ3FFW69XNUQKFNT70FNTA","A22LRKFP5S22GR","3THR0FZ95PF7SK0MYRNAOUHTWA4OLV","","808","img/food3.png","74","810","1","1","3","2","1,0.7,0,1,0.7,0,0.7,0,1","0,1,0.7,0,1,0.7,1,0.7,0","3","false",""
"","html-keyboard-response","339","299464","0.0-389.0","3QRYMNZ7FZ3FFW69XNUQKFNT70FNTA","A22LRKFP5S22GR","3THR0FZ95PF7SK0MYRNAOUHTWA4OLV","","null","<img src=""img/food3.png"" style=""width:200px; border:14px solid green;"">","null","","","","","","","","","",""
"","image-keyboard-response","340","300472","0.0-391.0","3QRYMNZ7FZ3FFW69XNUQKFNT70FNTA","A22LRKFP5S22GR","3THR0FZ95PF7SK0MYRNAOUHTWA4OLV","","","img/food5.png","","1007","-1","0","1","2","1,0.7,0,1,0.7,0,0.7,0,1","0,1,0.7,0,1,0.7,1,0.7,0","3","true",""
"","html-keyboard-response","341","300777","0.0-392.0","3QRYMNZ7FZ3FFW69XNUQKFNT70FNTA","A22LRKFP5S22GR","3THR0FZ95PF7SK0MYRNAOUHTWA4OLV","","null","<img src=""img/food5.png"" style=""width:200px;border:14px solid red;"">","null","","","","","","","","","",""
"","html-keyboard-response","342","302281","0.0-393.0-0.0","3QRYMNZ7FZ3FFW69XNUQKFNT70FNTA","A22LRKFP5S22GR","3THR0FZ95PF7SK0MYRNAOUHTWA4OLV","","","","","","","","","","","","","",""
"","image-keyboard-response","343","303038","0.0-394.0","3QRYMNZ7FZ3FFW69XNUQKFNT70FNTA","A22LRKFP5S22GR","3THR0FZ95PF7SK0MYRNAOUHTWA4OLV","","756","img/food3.png","74","757","1","1","3","2","1,0.7,0,1,0.7,0,0.7,0,1","0,1,0.7,0,1,0.7,1,0.7,0","3","false",""
"","html-keyboard-response","344","303344","0.0-395.0","3QRYMNZ7FZ3FFW69XNUQKFNT70FNTA","A22LRKFP5S22GR","3THR0FZ95PF7SK0MYRNAOUHTWA4OLV","","null","<img src=""img/food3.png"" style=""width:200px; border:14px solid green;"">","null","","","","","","","","","",""
"","image-keyboard-response","345","304345","0.0-397.0","3QRYMNZ7FZ3FFW69XNUQKFNT70FNTA","A22LRKFP5S22GR","3THR0FZ95PF7SK0MYRNAOUHTWA4OLV","","","img/food3.png","","1001","-1","0","3","2","1,0.7,0,1,0.7,0,0.7,0,1","0,1,0.7,0,1,0.7,1,0.7,0","3","true",""
"","html-keyboard-response","346","304647","0.0-398.0","3QRYMNZ7FZ3FFW69XNUQKFNT70FNTA","A22LRKFP5S22GR","3THR0FZ95PF7SK0MYRNAOUHTWA4OLV","","null","<img src=""img/food3.png"" style=""width:200px;border:14px solid red;"">","null","","","","","","","","","",""
"","html-keyboard-response","347","306829","0.0-399.0-0.0","3QRYMNZ7FZ3FFW69XNUQKFNT70FNTA","A22LRKFP5S22GR","3THR0FZ95PF7SK0MYRNAOUHTWA4OLV","","","","","","","","","","","","","",""
"","image-keyboard-response","348","307792","0.0-400.0","3QRYMNZ7FZ3FFW69XNUQKFNT70FNTA","A22LRKFP5S22GR","3THR0FZ95PF7SK0MYRNAOUHTWA4OLV","","961","img/food2.png","75","962","2","1","2","2","1,0.7,0,1,0.7,0,0.7,0,1","0,1,0.7,0,1,0.7,1,0.7,0","3","false",""
"","html-keyboard-response","349","308100","0.0-401.0","3QRYMNZ7FZ3FFW69XNUQKFNT70FNTA","A22LRKFP5S22GR","3THR0FZ95PF7SK0MYRNAOUHTWA4OLV","","null","<img src=""img/food2.png"" style=""width:200px; border:14px solid green;"">","null","","","","","","","","","",""
"","image-keyboard-response","350","309069","0.0-403.0","3QRYMNZ7FZ3FFW69XNUQKFNT70FNTA","A22LRKFP5S22GR","3THR0FZ95PF7SK0MYRNAOUHTWA4OLV","","968","img/food5.png","74","969","1","0","1","2","1,0.7,0,1,0.7,0,0.7,0,1","0,1,0.7,0,1,0.7,1,0.7,0","3","false",""
"","html-keyboard-response","351","309374","0.0-404.0","3QRYMNZ7FZ3FFW69XNUQKFNT70FNTA","A22LRKFP5S22GR","3THR0FZ95PF7SK0MYRNAOUHTWA4OLV","","null","<img src=""img/food5.png"" style=""width:200px;border:14px solid red;"">","null","","","","","","","","","",""
"","image-keyboard-response","352","310246","0.0-406.0","3QRYMNZ7FZ3FFW69XNUQKFNT70FNTA","A22LRKFP5S22GR","3THR0FZ95PF7SK0MYRNAOUHTWA4OLV","","871","img/food5.png","75","872","2","1","1","2","1,0.7,0,1,0.7,0,0.7,0,1","0,1,0.7,0,1,0.7,1,0.7,0","3","false",""
"","html-keyboard-response","353","310553","0.0-407.0","3QRYMNZ7FZ3FFW69XNUQKFNT70FNTA","A22LRKFP5S22GR","3THR0FZ95PF7SK0MYRNAOUHTWA4OLV","","null","<img src=""img/food5.png"" style=""width:200px; border:14px solid green;"">","null","","","","","","","","","",""
"","image-keyboard-response","354","311555","0.0-409.0","3QRYMNZ7FZ3FFW69XNUQKFNT70FNTA","A22LRKFP5S22GR","3THR0FZ95PF7SK0MYRNAOUHTWA4OLV","","","img/food2.png","","1001","-1","0","2","2","1,0.7,0,1,0.7,0,0.7,0,1","0,1,0.7,0,1,0.7,1,0.7,0","3","true",""
"","html-keyboard-response","355","311863","0.0-410.0","3QRYMNZ7FZ3FFW69XNUQKFNT70FNTA","A22LRKFP5S22GR","3THR0FZ95PF7SK0MYRNAOUHTWA4OLV","","null","<img src=""img/food2.png"" style=""width:200px;border:14px solid red;"">","null","","","","","","","","","",""
"","html-keyboard-response","356","313326","0.0-411.0-0.0","3QRYMNZ7FZ3FFW69XNUQKFNT70FNTA","A22LRKFP5S22GR","3THR0FZ95PF7SK0MYRNAOUHTWA4OLV","","","","","","","","","","","","","",""
"","image-keyboard-response","357","314067","0.0-412.0","3QRYMNZ7FZ3FFW69XNUQKFNT70FNTA","A22LRKFP5S22GR","3THR0FZ95PF7SK0MYRNAOUHTWA4OLV","","740","img/food5.png","75","741","2","1","1","2","1,0.7,0,1,0.7,0,0.7,0,1","0,1,0.7,0,1,0.7,1,0.7,0","3","false",""
"","html-keyboard-response","358","314374","0.0-413.0","3QRYMNZ7FZ3FFW69XNUQKFNT70FNTA","A22LRKFP5S22GR","3THR0FZ95PF7SK0MYRNAOUHTWA4OLV","","null","<img src=""img/food5.png"" style=""width:200px; border:14px solid green;"">","null","","","","","","","","","",""
"","image-keyboard-response","359","315152","0.0-415.0","3QRYMNZ7FZ3FFW69XNUQKFNT70FNTA","A22LRKFP5S22GR","3THR0FZ95PF7SK0MYRNAOUHTWA4OLV","","773","img/food5.png","75","777","2","1","1","2","1,0.7,0,1,0.7,0,0.7,0,1","0,1,0.7,0,1,0.7,1,0.7,0","3","false",""
"","html-keyboard-response","360","315458","0.0-416.0","3QRYMNZ7FZ3FFW69XNUQKFNT70FNTA","A22LRKFP5S22GR","3THR0FZ95PF7SK0MYRNAOUHTWA4OLV","","null","<img src=""img/food5.png"" style=""width:200px; border:14px solid green;"">","null","","","","","","","","","",""
"","image-keyboard-response","361","316303","0.0-418.0","3QRYMNZ7FZ3FFW69XNUQKFNT70FNTA","A22LRKFP5S22GR","3THR0FZ95PF7SK0MYRNAOUHTWA4OLV","","842","img/food3.png","74","844","1","1","3","2","1,0.7,0,1,0.7,0,0.7,0,1","0,1,0.7,0,1,0.7,1,0.7,0","3","false",""
"","html-keyboard-response","362","316607","0.0-419.0","3QRYMNZ7FZ3FFW69XNUQKFNT70FNTA","A22LRKFP5S22GR","3THR0FZ95PF7SK0MYRNAOUHTWA4OLV","","null","<img src=""img/food3.png"" style=""width:200px; border:14px solid green;"">","null","","","","","","","","","",""
"","image-keyboard-response","363","317505","0.0-421.0","3QRYMNZ7FZ3FFW69XNUQKFNT70FNTA","A22LRKFP5S22GR","3THR0FZ95PF7SK0MYRNAOUHTWA4OLV","","897","img/food2.png","75","897","2","1","2","2","1,0.7,0,1,0.7,0,0.7,0,1","0,1,0.7,0,1,0.7,1,0.7,0","3","false",""
"","html-keyboard-response","364","317812","0.0-422.0","3QRYMNZ7FZ3FFW69XNUQKFNT70FNTA","A22LRKFP5S22GR","3THR0FZ95PF7SK0MYRNAOUHTWA4OLV","","null","<img src=""img/food2.png"" style=""width:200px; border:14px solid green;"">","null","","","","","","","","","",""
"","image-keyboard-response","365","318723","0.0-424.0","3QRYMNZ7FZ3FFW69XNUQKFNT70FNTA","A22LRKFP5S22GR","3THR0FZ95PF7SK0MYRNAOUHTWA4OLV","","909","img/food5.png","74","910","1","0","1","2","1,0.7,0,1,0.7,0,0.7,0,1","0,1,0.7,0,1,0.7,1,0.7,0","3","false",""
"","html-keyboard-response","366","319030","0.0-425.0","3QRYMNZ7FZ3FFW69XNUQKFNT70FNTA","A22LRKFP5S22GR","3THR0FZ95PF7SK0MYRNAOUHTWA4OLV","","null","<img src=""img/food5.png"" style=""width:200px;border:14px solid red;"">","null","","","","","","","","","",""
"","image-keyboard-response","367","319924","0.0-427.0","3QRYMNZ7FZ3FFW69XNUQKFNT70FNTA","A22LRKFP5S22GR","3THR0FZ95PF7SK0MYRNAOUHTWA4OLV","","892","img/food2.png","75","893","2","1","2","2","1,0.7,0,1,0.7,0,0.7,0,1","0,1,0.7,0,1,0.7,1,0.7,0","3","false",""
"","html-keyboard-response","368","320227","0.0-428.0","3QRYMNZ7FZ3FFW69XNUQKFNT70FNTA","A22LRKFP5S22GR","3THR0FZ95PF7SK0MYRNAOUHTWA4OLV","","null","<img src=""img/food2.png"" style=""width:200px; border:14px solid green;"">","null","","","","","","","","","",""
"","image-keyboard-response","369","321233","0.0-430.0","3QRYMNZ7FZ3FFW69XNUQKFNT70FNTA","A22LRKFP5S22GR","3THR0FZ95PF7SK0MYRNAOUHTWA4OLV","","","img/food2.png","","1005","-1","0","2","2","1,0.7,0,1,0.7,0,0.7,0,1","0,1,0.7,0,1,0.7,1,0.7,0","3","true",""
"","html-keyboard-response","370","321541","0.0-431.0","3QRYMNZ7FZ3FFW69XNUQKFNT70FNTA","A22LRKFP5S22GR","3THR0FZ95PF7SK0MYRNAOUHTWA4OLV","","null","<img src=""img/food2.png"" style=""width:200px;border:14px solid red;"">","null","","","","","","","","","",""
"","html-keyboard-response","371","323019","0.0-432.0-0.0","3QRYMNZ7FZ3FFW69XNUQKFNT70FNTA","A22LRKFP5S22GR","3THR0FZ95PF7SK0MYRNAOUHTWA4OLV","","","","","","","","","","","","","",""
"","image-keyboard-response","372","323903","0.0-433.0","3QRYMNZ7FZ3FFW69XNUQKFNT70FNTA","A22LRKFP5S22GR","3THR0FZ95PF7SK0MYRNAOUHTWA4OLV","","882","img/food5.png","75","884","2","1","1","2","1,0.7,0,1,0.7,0,0.7,0,1","0,1,0.7,0,1,0.7,1,0.7,0","3","false",""
"","html-keyboard-response","373","324208","0.0-434.0","3QRYMNZ7FZ3FFW69XNUQKFNT70FNTA","A22LRKFP5S22GR","3THR0FZ95PF7SK0MYRNAOUHTWA4OLV","","null","<img src=""img/food5.png"" style=""width:200px; border:14px solid green;"">","null","","","","","","","","","",""
"","image-keyboard-response","374","325051","0.0-436.0","3QRYMNZ7FZ3FFW69XNUQKFNT70FNTA","A22LRKFP5S22GR","3THR0FZ95PF7SK0MYRNAOUHTWA4OLV","","842","img/food5.png","75","842","2","1","1","2","1,0.7,0,1,0.7,0,0.7,0,1","0,1,0.7,0,1,0.7,1,0.7,0","3","false",""
"","html-keyboard-response","375","325355","0.0-437.0","3QRYMNZ7FZ3FFW69XNUQKFNT70FNTA","A22LRKFP5S22GR","3THR0FZ95PF7SK0MYRNAOUHTWA4OLV","","null","<img src=""img/food5.png"" style=""width:200px; border:14px solid green;"">","null","","","","","","","","","",""
"","image-keyboard-response","376","326280","0.0-439.0","3QRYMNZ7FZ3FFW69XNUQKFNT70FNTA","A22LRKFP5S22GR","3THR0FZ95PF7SK0MYRNAOUHTWA4OLV","","923","img/food3.png","75","925","2","1","3","2","1,0.7,0,1,0.7,0,0.7,0,1","0,1,0.7,0,1,0.7,1,0.7,0","3","false",""
"","html-keyboard-response","377","326583","0.0-440.0","3QRYMNZ7FZ3FFW69XNUQKFNT70FNTA","A22LRKFP5S22GR","3THR0FZ95PF7SK0MYRNAOUHTWA4OLV","","null","<img src=""img/food3.png"" style=""width:200px; border:14px solid green;"">","null","","","","","","","","","",""
"","image-keyboard-response","378","327594","0.0-442.0","3QRYMNZ7FZ3FFW69XNUQKFNT70FNTA","A22LRKFP5S22GR","3THR0FZ95PF7SK0MYRNAOUHTWA4OLV","","","img/food2.png","","1011","-1","0","2","2","1,0.7,0,1,0.7,0,0.7,0,1","0,1,0.7,0,1,0.7,1,0.7,0","3","true",""
"","html-keyboard-response","379","327897","0.0-443.0","3QRYMNZ7FZ3FFW69XNUQKFNT70FNTA","A22LRKFP5S22GR","3THR0FZ95PF7SK0MYRNAOUHTWA4OLV","","null","<img src=""img/food2.png"" style=""width:200px;border:14px solid red;"">","null","","","","","","","","","",""
"","html-keyboard-response","380","329332","0.0-444.0-0.0","3QRYMNZ7FZ3FFW69XNUQKFNT70FNTA","A22LRKFP5S22GR","3THR0FZ95PF7SK0MYRNAOUHTWA4OLV","","","","","","","","","","","","","",""
"","image-keyboard-response","381","330199","0.0-445.0","3QRYMNZ7FZ3FFW69XNUQKFNT70FNTA","A22LRKFP5S22GR","3THR0FZ95PF7SK0MYRNAOUHTWA4OLV","","865","img/food2.png","75","866","2","1","2","2","1,0.7,0,1,0.7,0,0.7,0,1","0,1,0.7,0,1,0.7,1,0.7,0","3","false",""
"","html-keyboard-response","382","330506","0.0-446.0","3QRYMNZ7FZ3FFW69XNUQKFNT70FNTA","A22LRKFP5S22GR","3THR0FZ95PF7SK0MYRNAOUHTWA4OLV","","null","<img src=""img/food2.png"" style=""width:200px; border:14px solid green;"">","null","","","","","","","","","",""
"","image-keyboard-response","383","331418","0.0-448.0","3QRYMNZ7FZ3FFW69XNUQKFNT70FNTA","A22LRKFP5S22GR","3THR0FZ95PF7SK0MYRNAOUHTWA4OLV","","899","img/food2.png","75","912","2","1","2","2","1,0.7,0,1,0.7,0,0.7,0,1","0,1,0.7,0,1,0.7,1,0.7,0","3","false",""
"","html-keyboard-response","384","331720","0.0-449.0","3QRYMNZ7FZ3FFW69XNUQKFNT70FNTA","A22LRKFP5S22GR","3THR0FZ95PF7SK0MYRNAOUHTWA4OLV","","null","<img src=""img/food2.png"" style=""width:200px; border:14px solid green;"">","null","","","","","","","","","",""
"","image-keyboard-response","385","332739","0.0-451.0","3QRYMNZ7FZ3FFW69XNUQKFNT70FNTA","A22LRKFP5S22GR","3THR0FZ95PF7SK0MYRNAOUHTWA4OLV","","","img/food2.png","","1021","-1","0","2","2","1,0.7,0,1,0.7,0,0.7,0,1","0,1,0.7,0,1,0.7,1,0.7,0","3","true",""
"","html-keyboard-response","386","333055","0.0-452.0","3QRYMNZ7FZ3FFW69XNUQKFNT70FNTA","A22LRKFP5S22GR","3THR0FZ95PF7SK0MYRNAOUHTWA4OLV","","null","<img src=""img/food2.png"" style=""width:200px;border:14px solid red;"">","null","","","","","","","","","",""
"","html-keyboard-response","387","334462","0.0-453.0-0.0","3QRYMNZ7FZ3FFW69XNUQKFNT70FNTA","A22LRKFP5S22GR","3THR0FZ95PF7SK0MYRNAOUHTWA4OLV","","","","","","","","","","","","","",""
"","instructions","388","348463","0.0-454.0","3QRYMNZ7FZ3FFW69XNUQKFNT70FNTA","A22LRKFP5S22GR","3THR0FZ95PF7SK0MYRNAOUHTWA4OLV","[{""page_index"":0,""viewing_time"":13999}]","13999","","","","","","","","","","","",""
"","survey-text","389","362974","0.0-455.0","3QRYMNZ7FZ3FFW69XNUQKFNT70FNTA","A22LRKFP5S22GR","3THR0FZ95PF7SK0MYRNAOUHTWA4OLV","","14505","","","","","","","","","","","","{""Q0"":""A22LRKFP5S22GR""}"
