"success","trial_type","trial_index","time_elapsed","internal_node_id","assignmentID","mturkID","hitID","view_history","rt","stimulus","key_press","reactionTime","a","r","s","cond","reward_cond","reward_cond_actual","reward_matrix_idx","warning","responses"
"true","fullscreen","0","5839","0.0-0.0","3CFJTT4SXUC03XYBN4EXABZUW4U7I2","A24IWWIUPASCQJ","3AQN9REUTF20OMGWRXYK787Q1B1YD0","","","","","","","","","","","","","",""
"","instructions","1","17699","0.0-1.0","3CFJTT4SXUC03XYBN4EXABZUW4U7I2","A24IWWIUPASCQJ","3AQN9REUTF20OMGWRXYK787Q1B1YD0","[{""page_index"":0,""viewing_time"":1560},{""page_index"":1,""viewing_time"":1143},{""page_index"":2,""viewing_time"":1314},{""page_index"":3,""viewing_time"":2534},{""page_index"":4,""viewing_time"":2230},{""page_index"":5,""viewing_time"":1693},{""page_index"":6,""viewing_time"":1367}]","11841","","","","","","","","","","","",""
"","image-keyboard-response","2","22213","0.0-2.0","3CFJTT4SXUC03XYBN4EXABZUW4U7I2","A24IWWIUPASCQJ","3AQN9REUTF20OMGWRXYK787Q1B1YD0","","4504","img/food2.png","74","4511","1","0","1","1","1,0.7,0,1,0.7,0,0.7,0,1","0,1,0.7,0,1,0.7,1,0.7,0","3","",""
"","html-keyboard-response","3","22517","0.0-3.0","3CFJTT4SXUC03XYBN4EXABZUW4U7I2","A24IWWIUPASCQJ","3AQN9REUTF20OMGWRXYK787Q1B1YD0","","null","<img src=""img/food2.png"" style=""width:200px;border:14px solid red;"">","null","","","","","","","","","",""
"","image-keyboard-response","4","22799","0.0-4.0","3CFJTT4SXUC03XYBN4EXABZUW4U7I2","A24IWWIUPASCQJ","3AQN9REUTF20OMGWRXYK787Q1B1YD0","","278","img/food6.png","74","281","1","1","3","1","1,0.7,0,1,0.7,0,0.7,0,1","0,1,0.7,0,1,0.7,1,0.7,0","3","",""
"","html-keyboard-response","5","23109","0.0-5.0","3CFJTT4SXUC03XYBN4EXABZUW4U7I2","A24IWWIUPASCQJ","3AQN9REUTF20OMGWRXYK787Q1B1YD0","","null","<img src=""img/food6.png"" style=""width:200px; border:14px solid green;"">","null","","","","","","","","","",""
"","image-keyboard-response","6","23391","0.0-6.0","3CFJTT4SXUC03XYBN4EXABZUW4U7I2","A24IWWIUPASCQJ","3AQN9REUTF20OMGWRXYK787Q1B1YD0","","278","img/food1.png","75","280","2","1","2","1","1,0.7,0,1,0.7,0,0.7,0,1","0,1,0.7,0,1,0.7,1,0.7,0","3","",""
"","html-keyboard-response","7","23762","0.0-7.0","3CFJTT4SXUC03XYBN4EXABZUW4U7I2","A24IWWIUPASCQJ","3AQN9REUTF20OMGWRXYK787Q1B1YD0","","null","<img src=""img/food1.png"" style=""width:200px; border:14px solid green;"">","null","","","","","","","","","",""
"","image-keyboard-response","8","23846","0.0-8.0","3CFJTT4SXUC03XYBN4EXABZUW4U7I2","A24IWWIUPASCQJ","3AQN9REUTF20OMGWRXYK787Q1B1YD0","","81","img/food1.png","76","83","3","1","2","1","1,0.7,0,1,0.7,0,0.7,0,1","0,1,0.7,0,1,0.7,1,0.7,0","3","",""
"","html-keyboard-response","9","24154","0.0-9.0","3CFJTT4SXUC03XYBN4EXABZUW4U7I2","A24IWWIUPASCQJ","3AQN9REUTF20OMGWRXYK787Q1B1YD0","","null","<img src=""img/food1.png"" style=""width:200px; border:14px solid green;"">","null","","","","","","","","","",""
"","image-keyboard-response","10","24171","0.0-10.0","3CFJTT4SXUC03XYBN4EXABZUW4U7I2","A24IWWIUPASCQJ","3AQN9REUTF20OMGWRXYK787Q1B1YD0","","17","img/food1.png","75","17","2","1","2","1","1,0.7,0,1,0.7,0,0.7,0,1","0,1,0.7,0,1,0.7,1,0.7,0","3","",""
"","html-keyboard-response","11","24477","0.0-11.0","3CFJTT4SXUC03XYBN4EXABZUW4U7I2","A24IWWIUPASCQJ","3AQN9REUTF20OMGWRXYK787Q1B1YD0","","null","<img src=""img/food1.png"" style=""width:200px; border:14px solid green;"">","null","","","","","","","","","",""
"","image-keyboard-response","12","24515","0.0-12.0","3CFJTT4SXUC03XYBN4EXABZUW4U7I2","A24IWWIUPASCQJ","3AQN9REUTF20OMGWRXYK787Q1B1YD0","","36","img/food2.png","76","36","3","1","1","1","1,0.7,0,1,0.7,0,0.7,0,1","0,1,0.7,0,1,0.7,1,0.7,0","3","",""
"","html-keyboard-response","13","24819","0.0-13.0","3CFJTT4SXUC03XYBN4EXABZUW4U7I2","A24IWWIUPASCQJ","3AQN9REUTF20OMGWRXYK787Q1B1YD0","","null","<img src=""img/food2.png"" style=""width:200px; border:14px solid green;"">","null","","","","","","","","","",""
"","image-keyboard-response","14","25083","0.0-14.0","3CFJTT4SXUC03XYBN4EXABZUW4U7I2","A24IWWIUPASCQJ","3AQN9REUTF20OMGWRXYK787Q1B1YD0","","252","img/food6.png","75","264","2","0","3","1","1,0.7,0,1,0.7,0,0.7,0,1","0,1,0.7,0,1,0.7,1,0.7,0","3","",""
"","html-keyboard-response","15","25386","0.0-15.0","3CFJTT4SXUC03XYBN4EXABZUW4U7I2","A24IWWIUPASCQJ","3AQN9REUTF20OMGWRXYK787Q1B1YD0","","null","<img src=""img/food6.png"" style=""width:200px;border:14px solid red;"">","null","","","","","","","","","",""
"","image-keyboard-response","16","25669","0.0-16.0","3CFJTT4SXUC03XYBN4EXABZUW4U7I2","A24IWWIUPASCQJ","3AQN9REUTF20OMGWRXYK787Q1B1YD0","","281","img/food1.png","76","290","3","1","2","1","1,0.7,0,1,0.7,0,0.7,0,1","0,1,0.7,0,1,0.7,1,0.7,0","3","",""
"","html-keyboard-response","17","25997","0.0-17.0","3CFJTT4SXUC03XYBN4EXABZUW4U7I2","A24IWWIUPASCQJ","3AQN9REUTF20OMGWRXYK787Q1B1YD0","","null","<img src=""img/food1.png"" style=""width:200px; border:14px solid green;"">","null","","","","","","","","","",""
"","image-keyboard-response","18","26000","0.0-18.0","3CFJTT4SXUC03XYBN4EXABZUW4U7I2","A24IWWIUPASCQJ","3AQN9REUTF20OMGWRXYK787Q1B1YD0","","0","img/food6.png","75","3","2","1","3","1","1,0.7,0,1,0.7,0,0.7,0,1","0,1,0.7,0,1,0.7,1,0.7,0","3","",""
"","html-keyboard-response","19","26304","0.0-19.0","3CFJTT4SXUC03XYBN4EXABZUW4U7I2","A24IWWIUPASCQJ","3AQN9REUTF20OMGWRXYK787Q1B1YD0","","null","<img src=""img/food6.png"" style=""width:200px; border:14px solid green;"">","null","","","","","","","","","",""
"","image-keyboard-response","20","26627","0.0-20.0","3CFJTT4SXUC03XYBN4EXABZUW4U7I2","A24IWWIUPASCQJ","3AQN9REUTF20OMGWRXYK787Q1B1YD0","","318","img/food6.png","76","323","3","0","3","1","1,0.7,0,1,0.7,0,0.7,0,1","0,1,0.7,0,1,0.7,1,0.7,0","3","",""
"","html-keyboard-response","21","26935","0.0-21.0","3CFJTT4SXUC03XYBN4EXABZUW4U7I2","A24IWWIUPASCQJ","3AQN9REUTF20OMGWRXYK787Q1B1YD0","","null","<img src=""img/food6.png"" style=""width:200px;border:14px solid red;"">","null","","","","","","","","","",""
"","image-keyboard-response","22","26994","0.0-22.0","3CFJTT4SXUC03XYBN4EXABZUW4U7I2","A24IWWIUPASCQJ","3AQN9REUTF20OMGWRXYK787Q1B1YD0","","55","img/food2.png","75","59","2","1","1","1","1,0.7,0,1,0.7,0,0.7,0,1","0,1,0.7,0,1,0.7,1,0.7,0","3","",""
"","html-keyboard-response","23","27296","0.0-23.0","3CFJTT4SXUC03XYBN4EXABZUW4U7I2","A24IWWIUPASCQJ","3AQN9REUTF20OMGWRXYK787Q1B1YD0","","null","<img src=""img/food2.png"" style=""width:200px; border:14px solid green;"">","null","","","","","","","","","",""
"","image-keyboard-response","24","27380","0.0-24.0","3CFJTT4SXUC03XYBN4EXABZUW4U7I2","A24IWWIUPASCQJ","3AQN9REUTF20OMGWRXYK787Q1B1YD0","","84","img/food1.png","76","84","3","1","2","1","1,0.7,0,1,0.7,0,0.7,0,1","0,1,0.7,0,1,0.7,1,0.7,0","3","",""
"","html-keyboard-response","25","27689","0.0-25.0","3CFJTT4SXUC03XYBN4EXABZUW4U7I2","A24IWWIUPASCQJ","3AQN9REUTF20OMGWRXYK787Q1B1YD0","","null","<img src=""img/food1.png"" style=""width:200px; border:14px solid green;"">","null","","","","","","","","","",""
"","image-keyboard-response","26","27886","0.0-26.0","3CFJTT4SXUC03XYBN4EXABZUW4U7I2","A24IWWIUPASCQJ","3AQN9REUTF20OMGWRXYK787Q1B1YD0","","189","img/food1.png","75","201","2","1","2","1","1,0.7,0,1,0.7,0,0.7,0,1","0,1,0.7,0,1,0.7,1,0.7,0","3","",""
"","html-keyboard-response","27","28262","0.0-27.0","3CFJTT4SXUC03XYBN4EXABZUW4U7I2","A24IWWIUPASCQJ","3AQN9REUTF20OMGWRXYK787Q1B1YD0","","null","<img src=""img/food1.png"" style=""width:200px; border:14px solid green;"">","null","","","","","","","","","",""
"","image-keyboard-response","28","28554","0.0-28.0","3CFJTT4SXUC03XYBN4EXABZUW4U7I2","A24IWWIUPASCQJ","3AQN9REUTF20OMGWRXYK787Q1B1YD0","","281","img/food6.png","74","289","1","1","3","1","1,0.7,0,1,0.7,0,0.7,0,1","0,1,0.7,0,1,0.7,1,0.7,0","3","",""
"","html-keyboard-response","29","28867","0.0-29.0","3CFJTT4SXUC03XYBN4EXABZUW4U7I2","A24IWWIUPASCQJ","3AQN9REUTF20OMGWRXYK787Q1B1YD0","","null","<img src=""img/food6.png"" style=""width:200px; border:14px solid green;"">","null","","","","","","","","","",""
"","image-keyboard-response","30","30063","0.0-30.0","3CFJTT4SXUC03XYBN4EXABZUW4U7I2","A24IWWIUPASCQJ","3AQN9REUTF20OMGWRXYK787Q1B1YD0","","1196","img/food1.png","76","1196","3","1","2","1","1,0.7,0,1,0.7,0,0.7,0,1","0,1,0.7,0,1,0.7,1,0.7,0","3","",""
"","html-keyboard-response","31","30378","0.0-31.0","3CFJTT4SXUC03XYBN4EXABZUW4U7I2","A24IWWIUPASCQJ","3AQN9REUTF20OMGWRXYK787Q1B1YD0","","null","<img src=""img/food1.png"" style=""width:200px; border:14px solid green;"">","null","","","","","","","","","",""
"","image-keyboard-response","32","30581","0.0-32.0","3CFJTT4SXUC03XYBN4EXABZUW4U7I2","A24IWWIUPASCQJ","3AQN9REUTF20OMGWRXYK787Q1B1YD0","","202","img/food2.png","75","203","2","1","1","1","1,0.7,0,1,0.7,0,0.7,0,1","0,1,0.7,0,1,0.7,1,0.7,0","3","",""
"","html-keyboard-response","33","30887","0.0-33.0","3CFJTT4SXUC03XYBN4EXABZUW4U7I2","A24IWWIUPASCQJ","3AQN9REUTF20OMGWRXYK787Q1B1YD0","","null","<img src=""img/food2.png"" style=""width:200px; border:14px solid green;"">","null","","","","","","","","","",""
"","image-keyboard-response","34","32874","0.0-34.0","3CFJTT4SXUC03XYBN4EXABZUW4U7I2","A24IWWIUPASCQJ","3AQN9REUTF20OMGWRXYK787Q1B1YD0","","1979","img/food1.png","74","1983","1","0","2","1","1,0.7,0,1,0.7,0,0.7,0,1","0,1,0.7,0,1,0.7,1,0.7,0","3","",""
"","html-keyboard-response","35","33177","0.0-35.0","3CFJTT4SXUC03XYBN4EXABZUW4U7I2","A24IWWIUPASCQJ","3AQN9REUTF20OMGWRXYK787Q1B1YD0","","null","<img src=""img/food1.png"" style=""width:200px;border:14px solid red;"">","null","","","","","","","","","",""
"","image-keyboard-response","36","33370","0.0-36.0","3CFJTT4SXUC03XYBN4EXABZUW4U7I2","A24IWWIUPASCQJ","3AQN9REUTF20OMGWRXYK787Q1B1YD0","","190","img/food2.png","76","193","3","0","1","1","1,0.7,0,1,0.7,0,0.7,0,1","0,1,0.7,0,1,0.7,1,0.7,0","3","",""
"","html-keyboard-response","37","33674","0.0-37.0","3CFJTT4SXUC03XYBN4EXABZUW4U7I2","A24IWWIUPASCQJ","3AQN9REUTF20OMGWRXYK787Q1B1YD0","","null","<img src=""img/food2.png"" style=""width:200px;border:14px solid red;"">","null","","","","","","","","","",""
"","image-keyboard-response","38","33926","0.0-38.0","3CFJTT4SXUC03XYBN4EXABZUW4U7I2","A24IWWIUPASCQJ","3AQN9REUTF20OMGWRXYK787Q1B1YD0","","248","img/food6.png","76","253","3","0","3","1","1,0.7,0,1,0.7,0,0.7,0,1","0,1,0.7,0,1,0.7,1,0.7,0","3","",""
"","html-keyboard-response","39","34235","0.0-39.0","3CFJTT4SXUC03XYBN4EXABZUW4U7I2","A24IWWIUPASCQJ","3AQN9REUTF20OMGWRXYK787Q1B1YD0","","null","<img src=""img/food6.png"" style=""width:200px;border:14px solid red;"">","null","","","","","","","","","",""
"","image-keyboard-response","40","34338","0.0-40.0","3CFJTT4SXUC03XYBN4EXABZUW4U7I2","A24IWWIUPASCQJ","3AQN9REUTF20OMGWRXYK787Q1B1YD0","","90","img/food6.png","75","104","2","1","3","1","1,0.7,0,1,0.7,0,0.7,0,1","0,1,0.7,0,1,0.7,1,0.7,0","3","",""
"","html-keyboard-response","41","34648","0.0-41.0","3CFJTT4SXUC03XYBN4EXABZUW4U7I2","A24IWWIUPASCQJ","3AQN9REUTF20OMGWRXYK787Q1B1YD0","","null","<img src=""img/food6.png"" style=""width:200px; border:14px solid green;"">","null","","","","","","","","","",""
"","image-keyboard-response","42","34745","0.0-42.0","3CFJTT4SXUC03XYBN4EXABZUW4U7I2","A24IWWIUPASCQJ","3AQN9REUTF20OMGWRXYK787Q1B1YD0","","76","img/food2.png","76","96","3","1","1","1","1,0.7,0,1,0.7,0,0.7,0,1","0,1,0.7,0,1,0.7,1,0.7,0","3","",""
"","html-keyboard-response","43","35052","0.0-43.0","3CFJTT4SXUC03XYBN4EXABZUW4U7I2","A24IWWIUPASCQJ","3AQN9REUTF20OMGWRXYK787Q1B1YD0","","null","<img src=""img/food2.png"" style=""width:200px; border:14px solid green;"">","null","","","","","","","","","",""
"","image-keyboard-response","44","35391","0.0-44.0","3CFJTT4SXUC03XYBN4EXABZUW4U7I2","A24IWWIUPASCQJ","3AQN9REUTF20OMGWRXYK787Q1B1YD0","","336","img/food2.png","75","339","2","1","1","1","1,0.7,0,1,0.7,0,0.7,0,1","0,1,0.7,0,1,0.7,1,0.7,0","3","",""
"","html-keyboard-response","45","35692","0.0-45.0","3CFJTT4SXUC03XYBN4EXABZUW4U7I2","A24IWWIUPASCQJ","3AQN9REUTF20OMGWRXYK787Q1B1YD0","","null","<img src=""img/food2.png"" style=""width:200px; border:14px solid green;"">","null","","","","","","","","","",""
"","image-keyboard-response","46","35899","0.0-46.0","3CFJTT4SXUC03XYBN4EXABZUW4U7I2","A24IWWIUPASCQJ","3AQN9REUTF20OMGWRXYK787Q1B1YD0","","205","img/food2.png","75","207","2","1","1","1","1,0.7,0,1,0.7,0,0.7,0,1","0,1,0.7,0,1,0.7,1,0.7,0","3","",""
"","html-keyboard-response","47","36210","0.0-47.0","3CFJTT4SXUC03XYBN4EXABZUW4U7I2","A24IWWIUPASCQJ","3AQN9REUTF20OMGWRXYK787Q1B1YD0","","null","<img src=""img/food2.png"" style=""width:200px; border:14px solid green;"">","null","","","","","","","","","",""
"","image-keyboard-response","48","36417","0.0-48.0","3CFJTT4SXUC03XYBN4EXABZUW4U7I2","A24IWWIUPASCQJ","3AQN9REUTF20OMGWRXYK787Q1B1YD0","","194","img/food1.png","75","211","2","1","2","1","1,0.7,0,1,0.7,0,0.7,0,1","0,1,0.7,0,1,0.7,1,0.7,0","3","",""
"","html-keyboard-response","49","36728","0.0-49.0","3CFJTT4SXUC03XYBN4EXABZUW4U7I2","A24IWWIUPASCQJ","3AQN9REUTF20OMGWRXYK787Q1B1YD0","","null","<img src=""img/food1.png"" style=""width:200px; border:14px solid green;"">","null","","","","","","","","","",""
"","image-keyboard-response","50","36835","0.0-50.0","3CFJTT4SXUC03XYBN4EXABZUW4U7I2","A24IWWIUPASCQJ","3AQN9REUTF20OMGWRXYK787Q1B1YD0","","106","img/food1.png","75","107","2","1","2","1","1,0.7,0,1,0.7,0,0.7,0,1","0,1,0.7,0,1,0.7,1,0.7,0","3","",""
"","html-keyboard-response","51","37137","0.0-51.0","3CFJTT4SXUC03XYBN4EXABZUW4U7I2","A24IWWIUPASCQJ","3AQN9REUTF20OMGWRXYK787Q1B1YD0","","null","<img src=""img/food1.png"" style=""width:200px; border:14px solid green;"">","null","","","","","","","","","",""
"","image-keyboard-response","52","37248","0.0-52.0","3CFJTT4SXUC03XYBN4EXABZUW4U7I2","A24IWWIUPASCQJ","3AQN9REUTF20OMGWRXYK787Q1B1YD0","","109","img/food6.png","75","110","2","1","3","1","1,0.7,0,1,0.7,0,0.7,0,1","0,1,0.7,0,1,0.7,1,0.7,0","3","",""
"","html-keyboard-response","53","37559","0.0-53.0","3CFJTT4SXUC03XYBN4EXABZUW4U7I2","A24IWWIUPASCQJ","3AQN9REUTF20OMGWRXYK787Q1B1YD0","","null","<img src=""img/food6.png"" style=""width:200px; border:14px solid green;"">","null","","","","","","","","","",""
"","image-keyboard-response","54","37566","0.0-54.0","3CFJTT4SXUC03XYBN4EXABZUW4U7I2","A24IWWIUPASCQJ","3AQN9REUTF20OMGWRXYK787Q1B1YD0","","5","img/food6.png","75","7","2","0","3","1","1,0.7,0,1,0.7,0,0.7,0,1","0,1,0.7,0,1,0.7,1,0.7,0","3","",""
"","html-keyboard-response","55","37866","0.0-55.0","3CFJTT4SXUC03XYBN4EXABZUW4U7I2","A24IWWIUPASCQJ","3AQN9REUTF20OMGWRXYK787Q1B1YD0","","null","<img src=""img/food6.png"" style=""width:200px;border:14px solid red;"">","null","","","","","","","","","",""
"","image-keyboard-response","56","37992","0.0-56.0","3CFJTT4SXUC03XYBN4EXABZUW4U7I2","A24IWWIUPASCQJ","3AQN9REUTF20OMGWRXYK787Q1B1YD0","","125","img/food6.png","75","126","2","1","3","1","1,0.7,0,1,0.7,0,0.7,0,1","0,1,0.7,0,1,0.7,1,0.7,0","3","",""
"","html-keyboard-response","57","38293","0.0-57.0","3CFJTT4SXUC03XYBN4EXABZUW4U7I2","A24IWWIUPASCQJ","3AQN9REUTF20OMGWRXYK787Q1B1YD0","","null","<img src=""img/food6.png"" style=""width:200px; border:14px solid green;"">","null","","","","","","","","","",""
"","image-keyboard-response","58","38436","0.0-58.0","3CFJTT4SXUC03XYBN4EXABZUW4U7I2","A24IWWIUPASCQJ","3AQN9REUTF20OMGWRXYK787Q1B1YD0","","139","img/food2.png","74","142","1","0","1","1","1,0.7,0,1,0.7,0,0.7,0,1","0,1,0.7,0,1,0.7,1,0.7,0","3","",""
"","html-keyboard-response","59","38742","0.0-59.0","3CFJTT4SXUC03XYBN4EXABZUW4U7I2","A24IWWIUPASCQJ","3AQN9REUTF20OMGWRXYK787Q1B1YD0","","null","<img src=""img/food2.png"" style=""width:200px;border:14px solid red;"">","null","","","","","","","","","",""
"","image-keyboard-response","60","38998","0.0-60.0","3CFJTT4SXUC03XYBN4EXABZUW4U7I2","A24IWWIUPASCQJ","3AQN9REUTF20OMGWRXYK787Q1B1YD0","","254","img/food2.png","74","256","1","0","1","1","1,0.7,0,1,0.7,0,0.7,0,1","0,1,0.7,0,1,0.7,1,0.7,0","3","",""
"","html-keyboard-response","61","39299","0.0-61.0","3CFJTT4SXUC03XYBN4EXABZUW4U7I2","A24IWWIUPASCQJ","3AQN9REUTF20OMGWRXYK787Q1B1YD0","","null","<img src=""img/food2.png"" style=""width:200px;border:14px solid red;"">","null","","","","","","","","","",""
"","image-keyboard-response","62","39551","0.0-62.0","3CFJTT4SXUC03XYBN4EXABZUW4U7I2","A24IWWIUPASCQJ","3AQN9REUTF20OMGWRXYK787Q1B1YD0","","252","img/food1.png","75","252","2","1","2","1","1,0.7,0,1,0.7,0,0.7,0,1","0,1,0.7,0,1,0.7,1,0.7,0","3","",""
"","html-keyboard-response","63","39851","0.0-63.0","3CFJTT4SXUC03XYBN4EXABZUW4U7I2","A24IWWIUPASCQJ","3AQN9REUTF20OMGWRXYK787Q1B1YD0","","null","<img src=""img/food1.png"" style=""width:200px; border:14px solid green;"">","null","","","","","","","","","",""
"","image-keyboard-response","64","39956","0.0-64.0","3CFJTT4SXUC03XYBN4EXABZUW4U7I2","A24IWWIUPASCQJ","3AQN9REUTF20OMGWRXYK787Q1B1YD0","","101","img/food2.png","76","105","3","0","1","1","1,0.7,0,1,0.7,0,0.7,0,1","0,1,0.7,0,1,0.7,1,0.7,0","3","",""
"","html-keyboard-response","65","40260","0.0-65.0","3CFJTT4SXUC03XYBN4EXABZUW4U7I2","A24IWWIUPASCQJ","3AQN9REUTF20OMGWRXYK787Q1B1YD0","","null","<img src=""img/food2.png"" style=""width:200px;border:14px solid red;"">","null","","","","","","","","","",""
"","image-keyboard-response","66","40369","0.0-66.0","3CFJTT4SXUC03XYBN4EXABZUW4U7I2","A24IWWIUPASCQJ","3AQN9REUTF20OMGWRXYK787Q1B1YD0","","103","img/food1.png","75","110","2","1","2","1","1,0.7,0,1,0.7,0,0.7,0,1","0,1,0.7,0,1,0.7,1,0.7,0","3","",""
"","html-keyboard-response","67","40671","0.0-67.0","3CFJTT4SXUC03XYBN4EXABZUW4U7I2","A24IWWIUPASCQJ","3AQN9REUTF20OMGWRXYK787Q1B1YD0","","null","<img src=""img/food1.png"" style=""width:200px; border:14px solid green;"">","null","","","","","","","","","",""
"","image-keyboard-response","68","40765","0.0-68.0","3CFJTT4SXUC03XYBN4EXABZUW4U7I2","A24IWWIUPASCQJ","3AQN9REUTF20OMGWRXYK787Q1B1YD0","","91","img/food6.png","76","94","3","0","3","1","1,0.7,0,1,0.7,0,0.7,0,1","0,1,0.7,0,1,0.7,1,0.7,0","3","",""
"","html-keyboard-response","69","41106","0.0-69.0","3CFJTT4SXUC03XYBN4EXABZUW4U7I2","A24IWWIUPASCQJ","3AQN9REUTF20OMGWRXYK787Q1B1YD0","","null","<img src=""img/food6.png"" style=""width:200px;border:14px solid red;"">","null","","","","","","","","","",""
"","image-keyboard-response","70","41177","0.0-70.0","3CFJTT4SXUC03XYBN4EXABZUW4U7I2","A24IWWIUPASCQJ","3AQN9REUTF20OMGWRXYK787Q1B1YD0","","69","img/food1.png","75","70","2","1","2","1","1,0.7,0,1,0.7,0,0.7,0,1","0,1,0.7,0,1,0.7,1,0.7,0","3","",""
"","html-keyboard-response","71","41488","0.0-71.0","3CFJTT4SXUC03XYBN4EXABZUW4U7I2","A24IWWIUPASCQJ","3AQN9REUTF20OMGWRXYK787Q1B1YD0","","null","<img src=""img/food1.png"" style=""width:200px; border:14px solid green;"">","null","","","","","","","","","",""
"","image-keyboard-response","72","41570","0.0-72.0","3CFJTT4SXUC03XYBN4EXABZUW4U7I2","A24IWWIUPASCQJ","3AQN9REUTF20OMGWRXYK787Q1B1YD0","","82","img/food2.png","76","82","3","1","1","1","1,0.7,0,1,0.7,0,0.7,0,1","0,1,0.7,0,1,0.7,1,0.7,0","3","",""
"","html-keyboard-response","73","41872","0.0-73.0","3CFJTT4SXUC03XYBN4EXABZUW4U7I2","A24IWWIUPASCQJ","3AQN9REUTF20OMGWRXYK787Q1B1YD0","","null","<img src=""img/food2.png"" style=""width:200px; border:14px solid green;"">","null","","","","","","","","","",""
"","image-keyboard-response","74","41967","0.0-74.0","3CFJTT4SXUC03XYBN4EXABZUW4U7I2","A24IWWIUPASCQJ","3AQN9REUTF20OMGWRXYK787Q1B1YD0","","94","img/food6.png","75","95","2","0","3","1","1,0.7,0,1,0.7,0,0.7,0,1","0,1,0.7,0,1,0.7,1,0.7,0","3","",""
"","html-keyboard-response","75","42279","0.0-75.0","3CFJTT4SXUC03XYBN4EXABZUW4U7I2","A24IWWIUPASCQJ","3AQN9REUTF20OMGWRXYK787Q1B1YD0","","null","<img src=""img/food6.png"" style=""width:200px;border:14px solid red;"">","null","","","","","","","","","",""
"","image-keyboard-response","76","42528","0.0-76.0","3CFJTT4SXUC03XYBN4EXABZUW4U7I2","A24IWWIUPASCQJ","3AQN9REUTF20OMGWRXYK787Q1B1YD0","","247","img/food6.png","76","249","3","0","3","1","1,0.7,0,1,0.7,0,0.7,0,1","0,1,0.7,0,1,0.7,1,0.7,0","3","",""
"","html-keyboard-response","77","42831","0.0-77.0","3CFJTT4SXUC03XYBN4EXABZUW4U7I2","A24IWWIUPASCQJ","3AQN9REUTF20OMGWRXYK787Q1B1YD0","","null","<img src=""img/food6.png"" style=""width:200px;border:14px solid red;"">","null","","","","","","","","","",""
"","image-keyboard-response","78","42938","0.0-78.0","3CFJTT4SXUC03XYBN4EXABZUW4U7I2","A24IWWIUPASCQJ","3AQN9REUTF20OMGWRXYK787Q1B1YD0","","107","img/food2.png","75","107","2","1","1","1","1,0.7,0,1,0.7,0,0.7,0,1","0,1,0.7,0,1,0.7,1,0.7,0","3","",""
"","html-keyboard-response","79","43239","0.0-79.0","3CFJTT4SXUC03XYBN4EXABZUW4U7I2","A24IWWIUPASCQJ","3AQN9REUTF20OMGWRXYK787Q1B1YD0","","null","<img src=""img/food2.png"" style=""width:200px; border:14px solid green;"">","null","","","","","","","","","",""
"","image-keyboard-response","80","43501","0.0-80.0","3CFJTT4SXUC03XYBN4EXABZUW4U7I2","A24IWWIUPASCQJ","3AQN9REUTF20OMGWRXYK787Q1B1YD0","","260","img/food6.png","75","262","2","1","3","1","1,0.7,0,1,0.7,0,0.7,0,1","0,1,0.7,0,1,0.7,1,0.7,0","3","",""
"","html-keyboard-response","81","43804","0.0-81.0","3CFJTT4SXUC03XYBN4EXABZUW4U7I2","A24IWWIUPASCQJ","3AQN9REUTF20OMGWRXYK787Q1B1YD0","","null","<img src=""img/food6.png"" style=""width:200px; border:14px solid green;"">","null","","","","","","","","","",""
"","image-keyboard-response","82","43994","0.0-82.0","3CFJTT4SXUC03XYBN4EXABZUW4U7I2","A24IWWIUPASCQJ","3AQN9REUTF20OMGWRXYK787Q1B1YD0","","188","img/food2.png","74","190","1","0","1","1","1,0.7,0,1,0.7,0,0.7,0,1","0,1,0.7,0,1,0.7,1,0.7,0","3","",""
"","html-keyboard-response","83","44300","0.0-83.0","3CFJTT4SXUC03XYBN4EXABZUW4U7I2","A24IWWIUPASCQJ","3AQN9REUTF20OMGWRXYK787Q1B1YD0","","null","<img src=""img/food2.png"" style=""width:200px;border:14px solid red;"">","null","","","","","","","","","",""
"","image-keyboard-response","84","44339","0.0-84.0","3CFJTT4SXUC03XYBN4EXABZUW4U7I2","A24IWWIUPASCQJ","3AQN9REUTF20OMGWRXYK787Q1B1YD0","","37","img/food6.png","75","39","2","0","3","1","1,0.7,0,1,0.7,0,0.7,0,1","0,1,0.7,0,1,0.7,1,0.7,0","3","",""
"","html-keyboard-response","85","44646","0.0-85.0","3CFJTT4SXUC03XYBN4EXABZUW4U7I2","A24IWWIUPASCQJ","3AQN9REUTF20OMGWRXYK787Q1B1YD0","","null","<img src=""img/food6.png"" style=""width:200px;border:14px solid red;"">","null","","","","","","","","","",""
"","image-keyboard-response","86","44808","0.0-86.0","3CFJTT4SXUC03XYBN4EXABZUW4U7I2","A24IWWIUPASCQJ","3AQN9REUTF20OMGWRXYK787Q1B1YD0","","161","img/food2.png","75","161","2","1","1","1","1,0.7,0,1,0.7,0,0.7,0,1","0,1,0.7,0,1,0.7,1,0.7,0","3","",""
"","html-keyboard-response","87","45111","0.0-87.0","3CFJTT4SXUC03XYBN4EXABZUW4U7I2","A24IWWIUPASCQJ","3AQN9REUTF20OMGWRXYK787Q1B1YD0","","null","<img src=""img/food2.png"" style=""width:200px; border:14px solid green;"">","null","","","","","","","","","",""
"","image-keyboard-response","88","45209","0.0-88.0","3CFJTT4SXUC03XYBN4EXABZUW4U7I2","A24IWWIUPASCQJ","3AQN9REUTF20OMGWRXYK787Q1B1YD0","","77","img/food2.png","75","80","2","1","1","1","1,0.7,0,1,0.7,0,0.7,0,1","0,1,0.7,0,1,0.7,1,0.7,0","3","",""
"","html-keyboard-response","89","45511","0.0-89.0","3CFJTT4SXUC03XYBN4EXABZUW4U7I2","A24IWWIUPASCQJ","3AQN9REUTF20OMGWRXYK787Q1B1YD0","","null","<img src=""img/food2.png"" style=""width:200px; border:14px solid green;"">","null","","","","","","","","","",""
"","image-keyboard-response","90","45755","0.0-90.0","3CFJTT4SXUC03XYBN4EXABZUW4U7I2","A24IWWIUPASCQJ","3AQN9REUTF20OMGWRXYK787Q1B1YD0","","242","img/food6.png","76","243","3","0","3","1","1,0.7,0,1,0.7,0,0.7,0,1","0,1,0.7,0,1,0.7,1,0.7,0","3","",""
"","html-keyboard-response","91","46058","0.0-91.0","3CFJTT4SXUC03XYBN4EXABZUW4U7I2","A24IWWIUPASCQJ","3AQN9REUTF20OMGWRXYK787Q1B1YD0","","null","<img src=""img/food6.png"" style=""width:200px;border:14px solid red;"">","null","","","","","","","","","",""
"","image-keyboard-response","92","46212","0.0-92.0","3CFJTT4SXUC03XYBN4EXABZUW4U7I2","A24IWWIUPASCQJ","3AQN9REUTF20OMGWRXYK787Q1B1YD0","","152","img/food2.png","75","153","2","1","1","1","1,0.7,0,1,0.7,0,0.7,0,1","0,1,0.7,0,1,0.7,1,0.7,0","3","",""
"","html-keyboard-response","93","46514","0.0-93.0","3CFJTT4SXUC03XYBN4EXABZUW4U7I2","A24IWWIUPASCQJ","3AQN9REUTF20OMGWRXYK787Q1B1YD0","","null","<img src=""img/food2.png"" style=""width:200px; border:14px solid green;"">","null","","","","","","","","","",""
"","image-keyboard-response","94","46584","0.0-94.0","3CFJTT4SXUC03XYBN4EXABZUW4U7I2","A24IWWIUPASCQJ","3AQN9REUTF20OMGWRXYK787Q1B1YD0","","68","img/food6.png","76","69","3","0","3","1","1,0.7,0,1,0.7,0,0.7,0,1","0,1,0.7,0,1,0.7,1,0.7,0","3","",""
"","html-keyboard-response","95","46888","0.0-95.0","3CFJTT4SXUC03XYBN4EXABZUW4U7I2","A24IWWIUPASCQJ","3AQN9REUTF20OMGWRXYK787Q1B1YD0","","null","<img src=""img/food6.png"" style=""width:200px;border:14px solid red;"">","null","","","","","","","","","",""
"","image-keyboard-response","96","47006","0.0-96.0","3CFJTT4SXUC03XYBN4EXABZUW4U7I2","A24IWWIUPASCQJ","3AQN9REUTF20OMGWRXYK787Q1B1YD0","","117","img/food2.png","75","117","2","1","1","1","1,0.7,0,1,0.7,0,0.7,0,1","0,1,0.7,0,1,0.7,1,0.7,0","3","",""
"","html-keyboard-response","97","47307","0.0-97.0","3CFJTT4SXUC03XYBN4EXABZUW4U7I2","A24IWWIUPASCQJ","3AQN9REUTF20OMGWRXYK787Q1B1YD0","","null","<img src=""img/food2.png"" style=""width:200px; border:14px solid green;"">","null","","","","","","","","","",""
"","image-keyboard-response","98","47595","0.0-98.0","3CFJTT4SXUC03XYBN4EXABZUW4U7I2","A24IWWIUPASCQJ","3AQN9REUTF20OMGWRXYK787Q1B1YD0","","286","img/food2.png","76","288","3","0","1","1","1,0.7,0,1,0.7,0,0.7,0,1","0,1,0.7,0,1,0.7,1,0.7,0","3","",""
"","html-keyboard-response","99","47896","0.0-99.0","3CFJTT4SXUC03XYBN4EXABZUW4U7I2","A24IWWIUPASCQJ","3AQN9REUTF20OMGWRXYK787Q1B1YD0","","null","<img src=""img/food2.png"" style=""width:200px;border:14px solid red;"">","null","","","","","","","","","",""
"","image-keyboard-response","100","48107","0.0-100.0","3CFJTT4SXUC03XYBN4EXABZUW4U7I2","A24IWWIUPASCQJ","3AQN9REUTF20OMGWRXYK787Q1B1YD0","","210","img/food6.png","74","211","1","1","3","1","1,0.7,0,1,0.7,0,0.7,0,1","0,1,0.7,0,1,0.7,1,0.7,0","3","",""
"","html-keyboard-response","101","48407","0.0-101.0","3CFJTT4SXUC03XYBN4EXABZUW4U7I2","A24IWWIUPASCQJ","3AQN9REUTF20OMGWRXYK787Q1B1YD0","","null","<img src=""img/food6.png"" style=""width:200px; border:14px solid green;"">","null","","","","","","","","","",""
"","image-keyboard-response","102","48762","0.0-102.0","3CFJTT4SXUC03XYBN4EXABZUW4U7I2","A24IWWIUPASCQJ","3AQN9REUTF20OMGWRXYK787Q1B1YD0","","352","img/food2.png","75","354","2","1","1","1","1,0.7,0,1,0.7,0,0.7,0,1","0,1,0.7,0,1,0.7,1,0.7,0","3","",""
"","html-keyboard-response","103","49069","0.0-103.0","3CFJTT4SXUC03XYBN4EXABZUW4U7I2","A24IWWIUPASCQJ","3AQN9REUTF20OMGWRXYK787Q1B1YD0","","null","<img src=""img/food2.png"" style=""width:200px; border:14px solid green;"">","null","","","","","","","","","",""
"","image-keyboard-response","104","49154","0.0-104.0","3CFJTT4SXUC03XYBN4EXABZUW4U7I2","A24IWWIUPASCQJ","3AQN9REUTF20OMGWRXYK787Q1B1YD0","","81","img/food1.png","76","85","3","1","2","1","1,0.7,0,1,0.7,0,0.7,0,1","0,1,0.7,0,1,0.7,1,0.7,0","3","",""
"","html-keyboard-response","105","49460","0.0-105.0","3CFJTT4SXUC03XYBN4EXABZUW4U7I2","A24IWWIUPASCQJ","3AQN9REUTF20OMGWRXYK787Q1B1YD0","","null","<img src=""img/food1.png"" style=""width:200px; border:14px solid green;"">","null","","","","","","","","","",""
"","image-keyboard-response","106","49462","0.0-106.0","3CFJTT4SXUC03XYBN4EXABZUW4U7I2","A24IWWIUPASCQJ","3AQN9REUTF20OMGWRXYK787Q1B1YD0","","0","img/food6.png","75","2","2","1","3","1","1,0.7,0,1,0.7,0,0.7,0,1","0,1,0.7,0,1,0.7,1,0.7,0","3","",""
"","html-keyboard-response","107","49764","0.0-107.0","3CFJTT4SXUC03XYBN4EXABZUW4U7I2","A24IWWIUPASCQJ","3AQN9REUTF20OMGWRXYK787Q1B1YD0","","null","<img src=""img/food6.png"" style=""width:200px; border:14px solid green;"">","null","","","","","","","","","",""
"","image-keyboard-response","108","49860","0.0-108.0","3CFJTT4SXUC03XYBN4EXABZUW4U7I2","A24IWWIUPASCQJ","3AQN9REUTF20OMGWRXYK787Q1B1YD0","","95","img/food6.png","76","96","3","0","3","1","1,0.7,0,1,0.7,0,0.7,0,1","0,1,0.7,0,1,0.7,1,0.7,0","3","",""
"","html-keyboard-response","109","50165","0.0-109.0","3CFJTT4SXUC03XYBN4EXABZUW4U7I2","A24IWWIUPASCQJ","3AQN9REUTF20OMGWRXYK787Q1B1YD0","","null","<img src=""img/food6.png"" style=""width:200px;border:14px solid red;"">","null","","","","","","","","","",""
"","image-keyboard-response","110","50230","0.0-110.0","3CFJTT4SXUC03XYBN4EXABZUW4U7I2","A24IWWIUPASCQJ","3AQN9REUTF20OMGWRXYK787Q1B1YD0","","62","img/food2.png","75","65","2","1","1","1","1,0.7,0,1,0.7,0,0.7,0,1","0,1,0.7,0,1,0.7,1,0.7,0","3","",""
"","html-keyboard-response","111","50533","0.0-111.0","3CFJTT4SXUC03XYBN4EXABZUW4U7I2","A24IWWIUPASCQJ","3AQN9REUTF20OMGWRXYK787Q1B1YD0","","null","<img src=""img/food2.png"" style=""width:200px; border:14px solid green;"">","null","","","","","","","","","",""
"","image-keyboard-response","112","50692","0.0-112.0","3CFJTT4SXUC03XYBN4EXABZUW4U7I2","A24IWWIUPASCQJ","3AQN9REUTF20OMGWRXYK787Q1B1YD0","","157","img/food1.png","76","159","3","0","2","1","1,0.7,0,1,0.7,0,0.7,0,1","0,1,0.7,0,1,0.7,1,0.7,0","3","",""
"","html-keyboard-response","113","50994","0.0-113.0","3CFJTT4SXUC03XYBN4EXABZUW4U7I2","A24IWWIUPASCQJ","3AQN9REUTF20OMGWRXYK787Q1B1YD0","","null","<img src=""img/food1.png"" style=""width:200px;border:14px solid red;"">","null","","","","","","","","","",""
"","image-keyboard-response","114","51045","0.0-114.0","3CFJTT4SXUC03XYBN4EXABZUW4U7I2","A24IWWIUPASCQJ","3AQN9REUTF20OMGWRXYK787Q1B1YD0","","50","img/food1.png","74","51","1","0","2","1","1,0.7,0,1,0.7,0,0.7,0,1","0,1,0.7,0,1,0.7,1,0.7,0","3","",""
"","html-keyboard-response","115","51347","0.0-115.0","3CFJTT4SXUC03XYBN4EXABZUW4U7I2","A24IWWIUPASCQJ","3AQN9REUTF20OMGWRXYK787Q1B1YD0","","null","<img src=""img/food1.png"" style=""width:200px;border:14px solid red;"">","null","","","","","","","","","",""
"","image-keyboard-response","116","51682","0.0-116.0","3CFJTT4SXUC03XYBN4EXABZUW4U7I2","A24IWWIUPASCQJ","3AQN9REUTF20OMGWRXYK787Q1B1YD0","","329","img/food1.png","76","334","3","1","2","1","1,0.7,0,1,0.7,0,0.7,0,1","0,1,0.7,0,1,0.7,1,0.7,0","3","",""
"","html-keyboard-response","117","51983","0.0-117.0","3CFJTT4SXUC03XYBN4EXABZUW4U7I2","A24IWWIUPASCQJ","3AQN9REUTF20OMGWRXYK787Q1B1YD0","","null","<img src=""img/food1.png"" style=""width:200px; border:14px solid green;"">","null","","","","","","","","","",""
"","image-keyboard-response","118","52133","0.0-118.0","3CFJTT4SXUC03XYBN4EXABZUW4U7I2","A24IWWIUPASCQJ","3AQN9REUTF20OMGWRXYK787Q1B1YD0","","149","img/food2.png","75","149","2","1","1","1","1,0.7,0,1,0.7,0,0.7,0,1","0,1,0.7,0,1,0.7,1,0.7,0","3","",""
"","html-keyboard-response","119","52434","0.0-119.0","3CFJTT4SXUC03XYBN4EXABZUW4U7I2","A24IWWIUPASCQJ","3AQN9REUTF20OMGWRXYK787Q1B1YD0","","null","<img src=""img/food2.png"" style=""width:200px; border:14px solid green;"">","null","","","","","","","","","",""
"","image-keyboard-response","120","52474","0.0-120.0","3CFJTT4SXUC03XYBN4EXABZUW4U7I2","A24IWWIUPASCQJ","3AQN9REUTF20OMGWRXYK787Q1B1YD0","","34","img/food1.png","74","38","1","0","2","1","1,0.7,0,1,0.7,0,0.7,0,1","0,1,0.7,0,1,0.7,1,0.7,0","3","",""
"","html-keyboard-response","121","52776","0.0-121.0","3CFJTT4SXUC03XYBN4EXABZUW4U7I2","A24IWWIUPASCQJ","3AQN9REUTF20OMGWRXYK787Q1B1YD0","","null","<img src=""img/food1.png"" style=""width:200px;border:14px solid red;"">","null","","","","","","","","","",""
"","image-keyboard-response","122","52931","0.0-122.0","3CFJTT4SXUC03XYBN4EXABZUW4U7I2","A24IWWIUPASCQJ","3AQN9REUTF20OMGWRXYK787Q1B1YD0","","154","img/food1.png","74","154","1","0","2","1","1,0.7,0,1,0.7,0,0.7,0,1","0,1,0.7,0,1,0.7,1,0.7,0","3","",""
"","html-keyboard-response","123","53232","0.0-123.0","3CFJTT4SXUC03XYBN4EXABZUW4U7I2","A24IWWIUPASCQJ","3AQN9REUTF20OMGWRXYK787Q1B1YD0","","null","<img src=""img/food1.png"" style=""width:200px;border:14px solid red;"">","null","","","","","","","","","",""
"","image-keyboard-response","124","53263","0.0-124.0","3CFJTT4SXUC03XYBN4EXABZUW4U7I2","A24IWWIUPASCQJ","3AQN9REUTF20OMGWRXYK787Q1B1YD0","","28","img/food1.png","75","31","2","1","2","1","1,0.7,0,1,0.7,0,0.7,0,1","0,1,0.7,0,1,0.7,1,0.7,0","3","",""
"","html-keyboard-response","125","53614","0.0-125.0","3CFJTT4SXUC03XYBN4EXABZUW4U7I2","A24IWWIUPASCQJ","3AQN9REUTF20OMGWRXYK787Q1B1YD0","","null","<img src=""img/food1.png"" style=""width:200px; border:14px solid green;"">","null","","","","","","","","","",""
"","image-keyboard-response","126","53638","0.0-126.0","3CFJTT4SXUC03XYBN4EXABZUW4U7I2","A24IWWIUPASCQJ","3AQN9REUTF20OMGWRXYK787Q1B1YD0","","23","img/food1.png","76","24","3","1","2","1","1,0.7,0,1,0.7,0,0.7,0,1","0,1,0.7,0,1,0.7,1,0.7,0","3","",""
"","html-keyboard-response","127","53942","0.0-127.0","3CFJTT4SXUC03XYBN4EXABZUW4U7I2","A24IWWIUPASCQJ","3AQN9REUTF20OMGWRXYK787Q1B1YD0","","null","<img src=""img/food1.png"" style=""width:200px; border:14px solid green;"">","null","","","","","","","","","",""
"","image-keyboard-response","128","54004","0.0-128.0","3CFJTT4SXUC03XYBN4EXABZUW4U7I2","A24IWWIUPASCQJ","3AQN9REUTF20OMGWRXYK787Q1B1YD0","","58","img/food1.png","74","62","1","0","2","1","1,0.7,0,1,0.7,0,0.7,0,1","0,1,0.7,0,1,0.7,1,0.7,0","3","",""
"","html-keyboard-response","129","54307","0.0-129.0","3CFJTT4SXUC03XYBN4EXABZUW4U7I2","A24IWWIUPASCQJ","3AQN9REUTF20OMGWRXYK787Q1B1YD0","","null","<img src=""img/food1.png"" style=""width:200px;border:14px solid red;"">","null","","","","","","","","","",""
"","image-keyboard-response","130","54596","0.0-130.0","3CFJTT4SXUC03XYBN4EXABZUW4U7I2","A24IWWIUPASCQJ","3AQN9REUTF20OMGWRXYK787Q1B1YD0","","287","img/food2.png","75","289","2","1","1","1","1,0.7,0,1,0.7,0,0.7,0,1","0,1,0.7,0,1,0.7,1,0.7,0","3","",""
"","html-keyboard-response","131","54898","0.0-131.0","3CFJTT4SXUC03XYBN4EXABZUW4U7I2","A24IWWIUPASCQJ","3AQN9REUTF20OMGWRXYK787Q1B1YD0","","null","<img src=""img/food2.png"" style=""width:200px; border:14px solid green;"">","null","","","","","","","","","",""
"","image-keyboard-response","132","55164","0.0-132.0","3CFJTT4SXUC03XYBN4EXABZUW4U7I2","A24IWWIUPASCQJ","3AQN9REUTF20OMGWRXYK787Q1B1YD0","","265","img/food6.png","75","267","2","1","3","1","1,0.7,0,1,0.7,0,0.7,0,1","0,1,0.7,0,1,0.7,1,0.7,0","3","",""
"","html-keyboard-response","133","55476","0.0-133.0","3CFJTT4SXUC03XYBN4EXABZUW4U7I2","A24IWWIUPASCQJ","3AQN9REUTF20OMGWRXYK787Q1B1YD0","","null","<img src=""img/food6.png"" style=""width:200px; border:14px solid green;"">","null","","","","","","","","","",""
"","image-keyboard-response","134","55549","0.0-134.0","3CFJTT4SXUC03XYBN4EXABZUW4U7I2","A24IWWIUPASCQJ","3AQN9REUTF20OMGWRXYK787Q1B1YD0","","61","img/food1.png","76","73","3","1","2","1","1,0.7,0,1,0.7,0,0.7,0,1","0,1,0.7,0,1,0.7,1,0.7,0","3","",""
"","html-keyboard-response","135","55853","0.0-135.0","3CFJTT4SXUC03XYBN4EXABZUW4U7I2","A24IWWIUPASCQJ","3AQN9REUTF20OMGWRXYK787Q1B1YD0","","null","<img src=""img/food1.png"" style=""width:200px; border:14px solid green;"">","null","","","","","","","","","",""
"","image-keyboard-response","136","55900","0.0-136.0","3CFJTT4SXUC03XYBN4EXABZUW4U7I2","A24IWWIUPASCQJ","3AQN9REUTF20OMGWRXYK787Q1B1YD0","","45","img/food6.png","75","47","2","1","3","1","1,0.7,0,1,0.7,0,0.7,0,1","0,1,0.7,0,1,0.7,1,0.7,0","3","",""
"","html-keyboard-response","137","56204","0.0-137.0","3CFJTT4SXUC03XYBN4EXABZUW4U7I2","A24IWWIUPASCQJ","3AQN9REUTF20OMGWRXYK787Q1B1YD0","","null","<img src=""img/food6.png"" style=""width:200px; border:14px solid green;"">","null","","","","","","","","","",""
"","image-keyboard-response","138","56226","0.0-138.0","3CFJTT4SXUC03XYBN4EXABZUW4U7I2","A24IWWIUPASCQJ","3AQN9REUTF20OMGWRXYK787Q1B1YD0","","15","img/food1.png","76","22","3","1","2","1","1,0.7,0,1,0.7,0,0.7,0,1","0,1,0.7,0,1,0.7,1,0.7,0","3","",""
"","html-keyboard-response","139","56529","0.0-139.0","3CFJTT4SXUC03XYBN4EXABZUW4U7I2","A24IWWIUPASCQJ","3AQN9REUTF20OMGWRXYK787Q1B1YD0","","null","<img src=""img/food1.png"" style=""width:200px; border:14px solid green;"">","null","","","","","","","","","",""
"","image-keyboard-response","140","56565","0.0-140.0","3CFJTT4SXUC03XYBN4EXABZUW4U7I2","A24IWWIUPASCQJ","3AQN9REUTF20OMGWRXYK787Q1B1YD0","","35","img/food2.png","75","36","2","1","1","1","1,0.7,0,1,0.7,0,0.7,0,1","0,1,0.7,0,1,0.7,1,0.7,0","3","",""
"","html-keyboard-response","141","56867","0.0-141.0","3CFJTT4SXUC03XYBN4EXABZUW4U7I2","A24IWWIUPASCQJ","3AQN9REUTF20OMGWRXYK787Q1B1YD0","","null","<img src=""img/food2.png"" style=""width:200px; border:14px solid green;"">","null","","","","","","","","","",""
"","image-keyboard-response","142","56929","0.0-142.0","3CFJTT4SXUC03XYBN4EXABZUW4U7I2","A24IWWIUPASCQJ","3AQN9REUTF20OMGWRXYK787Q1B1YD0","","60","img/food6.png","75","62","2","1","3","1","1,0.7,0,1,0.7,0,0.7,0,1","0,1,0.7,0,1,0.7,1,0.7,0","3","",""
"","html-keyboard-response","143","57233","0.0-143.0","3CFJTT4SXUC03XYBN4EXABZUW4U7I2","A24IWWIUPASCQJ","3AQN9REUTF20OMGWRXYK787Q1B1YD0","","null","<img src=""img/food6.png"" style=""width:200px; border:14px solid green;"">","null","","","","","","","","","",""
"","image-keyboard-response","144","57483","0.0-144.0","3CFJTT4SXUC03XYBN4EXABZUW4U7I2","A24IWWIUPASCQJ","3AQN9REUTF20OMGWRXYK787Q1B1YD0","","249","img/food6.png","76","250","3","0","3","1","1,0.7,0,1,0.7,0,0.7,0,1","0,1,0.7,0,1,0.7,1,0.7,0","3","",""
"","html-keyboard-response","145","57794","0.0-145.0","3CFJTT4SXUC03XYBN4EXABZUW4U7I2","A24IWWIUPASCQJ","3AQN9REUTF20OMGWRXYK787Q1B1YD0","","null","<img src=""img/food6.png"" style=""width:200px;border:14px solid red;"">","null","","","","","","","","","",""
"","image-keyboard-response","146","57983","0.0-146.0","3CFJTT4SXUC03XYBN4EXABZUW4U7I2","A24IWWIUPASCQJ","3AQN9REUTF20OMGWRXYK787Q1B1YD0","","186","img/food1.png","74","190","1","0","2","1","1,0.7,0,1,0.7,0,0.7,0,1","0,1,0.7,0,1,0.7,1,0.7,0","3","",""
"","html-keyboard-response","147","58285","0.0-147.0","3CFJTT4SXUC03XYBN4EXABZUW4U7I2","A24IWWIUPASCQJ","3AQN9REUTF20OMGWRXYK787Q1B1YD0","","null","<img src=""img/food1.png"" style=""width:200px;border:14px solid red;"">","null","","","","","","","","","",""
"","image-keyboard-response","148","58541","0.0-148.0","3CFJTT4SXUC03XYBN4EXABZUW4U7I2","A24IWWIUPASCQJ","3AQN9REUTF20OMGWRXYK787Q1B1YD0","","254","img/food2.png","75","255","2","1","1","1","1,0.7,0,1,0.7,0,0.7,0,1","0,1,0.7,0,1,0.7,1,0.7,0","3","",""
"","html-keyboard-response","149","58843","0.0-149.0","3CFJTT4SXUC03XYBN4EXABZUW4U7I2","A24IWWIUPASCQJ","3AQN9REUTF20OMGWRXYK787Q1B1YD0","","null","<img src=""img/food2.png"" style=""width:200px; border:14px solid green;"">","null","","","","","","","","","",""
"","image-keyboard-response","150","58877","0.0-150.0","3CFJTT4SXUC03XYBN4EXABZUW4U7I2","A24IWWIUPASCQJ","3AQN9REUTF20OMGWRXYK787Q1B1YD0","","32","img/food1.png","76","33","3","1","2","1","1,0.7,0,1,0.7,0,0.7,0,1","0,1,0.7,0,1,0.7,1,0.7,0","3","",""
"","html-keyboard-response","151","59177","0.0-151.0","3CFJTT4SXUC03XYBN4EXABZUW4U7I2","A24IWWIUPASCQJ","3AQN9REUTF20OMGWRXYK787Q1B1YD0","","null","<img src=""img/food1.png"" style=""width:200px; border:14px solid green;"">","null","","","","","","","","","",""
"","image-keyboard-response","152","59508","0.0-152.0","3CFJTT4SXUC03XYBN4EXABZUW4U7I2","A24IWWIUPASCQJ","3AQN9REUTF20OMGWRXYK787Q1B1YD0","","328","img/food6.png","75","330","2","0","3","1","1,0.7,0,1,0.7,0,0.7,0,1","0,1,0.7,0,1,0.7,1,0.7,0","3","",""
"","html-keyboard-response","153","59810","0.0-153.0","3CFJTT4SXUC03XYBN4EXABZUW4U7I2","A24IWWIUPASCQJ","3AQN9REUTF20OMGWRXYK787Q1B1YD0","","null","<img src=""img/food6.png"" style=""width:200px;border:14px solid red;"">","null","","","","","","","","","",""
"","image-keyboard-response","154","59923","0.0-154.0","3CFJTT4SXUC03XYBN4EXABZUW4U7I2","A24IWWIUPASCQJ","3AQN9REUTF20OMGWRXYK787Q1B1YD0","","111","img/food1.png","74","113","1","0","2","1","1,0.7,0,1,0.7,0,0.7,0,1","0,1,0.7,0,1,0.7,1,0.7,0","3","",""
"","html-keyboard-response","155","60226","0.0-155.0","3CFJTT4SXUC03XYBN4EXABZUW4U7I2","A24IWWIUPASCQJ","3AQN9REUTF20OMGWRXYK787Q1B1YD0","","null","<img src=""img/food1.png"" style=""width:200px;border:14px solid red;"">","null","","","","","","","","","",""
"","image-keyboard-response","156","60387","0.0-156.0","3CFJTT4SXUC03XYBN4EXABZUW4U7I2","A24IWWIUPASCQJ","3AQN9REUTF20OMGWRXYK787Q1B1YD0","","160","img/food2.png","74","161","1","0","1","1","1,0.7,0,1,0.7,0,0.7,0,1","0,1,0.7,0,1,0.7,1,0.7,0","3","",""
"","html-keyboard-response","157","60691","0.0-157.0","3CFJTT4SXUC03XYBN4EXABZUW4U7I2","A24IWWIUPASCQJ","3AQN9REUTF20OMGWRXYK787Q1B1YD0","","null","<img src=""img/food2.png"" style=""width:200px;border:14px solid red;"">","null","","","","","","","","","",""
"","image-keyboard-response","158","60868","0.0-158.0","3CFJTT4SXUC03XYBN4EXABZUW4U7I2","A24IWWIUPASCQJ","3AQN9REUTF20OMGWRXYK787Q1B1YD0","","175","img/food1.png","75","176","2","1","2","1","1,0.7,0,1,0.7,0,0.7,0,1","0,1,0.7,0,1,0.7,1,0.7,0","3","",""
"","html-keyboard-response","159","61172","0.0-159.0","3CFJTT4SXUC03XYBN4EXABZUW4U7I2","A24IWWIUPASCQJ","3AQN9REUTF20OMGWRXYK787Q1B1YD0","","null","<img src=""img/food1.png"" style=""width:200px; border:14px solid green;"">","null","","","","","","","","","",""
"","image-keyboard-response","160","61316","0.0-160.0","3CFJTT4SXUC03XYBN4EXABZUW4U7I2","A24IWWIUPASCQJ","3AQN9REUTF20OMGWRXYK787Q1B1YD0","","143","img/food6.png","76","144","3","0","3","1","1,0.7,0,1,0.7,0,0.7,0,1","0,1,0.7,0,1,0.7,1,0.7,0","3","",""
"","html-keyboard-response","161","61618","0.0-161.0","3CFJTT4SXUC03XYBN4EXABZUW4U7I2","A24IWWIUPASCQJ","3AQN9REUTF20OMGWRXYK787Q1B1YD0","","null","<img src=""img/food6.png"" style=""width:200px;border:14px solid red;"">","null","","","","","","","","","",""
"","image-keyboard-response","162","61827","0.0-162.0","3CFJTT4SXUC03XYBN4EXABZUW4U7I2","A24IWWIUPASCQJ","3AQN9REUTF20OMGWRXYK787Q1B1YD0","","209","img/food6.png","74","209","1","1","3","1","1,0.7,0,1,0.7,0,0.7,0,1","0,1,0.7,0,1,0.7,1,0.7,0","3","",""
"","html-keyboard-response","163","62139","0.0-163.0","3CFJTT4SXUC03XYBN4EXABZUW4U7I2","A24IWWIUPASCQJ","3AQN9REUTF20OMGWRXYK787Q1B1YD0","","null","<img src=""img/food6.png"" style=""width:200px; border:14px solid green;"">","null","","","","","","","","","",""
"","image-keyboard-response","164","62384","0.0-164.0","3CFJTT4SXUC03XYBN4EXABZUW4U7I2","A24IWWIUPASCQJ","3AQN9REUTF20OMGWRXYK787Q1B1YD0","","244","img/food6.png","75","245","2","0","3","1","1,0.7,0,1,0.7,0,0.7,0,1","0,1,0.7,0,1,0.7,1,0.7,0","3","",""
"","html-keyboard-response","165","62685","0.0-165.0","3CFJTT4SXUC03XYBN4EXABZUW4U7I2","A24IWWIUPASCQJ","3AQN9REUTF20OMGWRXYK787Q1B1YD0","","null","<img src=""img/food6.png"" style=""width:200px;border:14px solid red;"">","null","","","","","","","","","",""
"","image-keyboard-response","166","62840","0.0-166.0","3CFJTT4SXUC03XYBN4EXABZUW4U7I2","A24IWWIUPASCQJ","3AQN9REUTF20OMGWRXYK787Q1B1YD0","","154","img/food6.png","76","155","3","0","3","1","1,0.7,0,1,0.7,0,0.7,0,1","0,1,0.7,0,1,0.7,1,0.7,0","3","",""
"","html-keyboard-response","167","63142","0.0-167.0","3CFJTT4SXUC03XYBN4EXABZUW4U7I2","A24IWWIUPASCQJ","3AQN9REUTF20OMGWRXYK787Q1B1YD0","","null","<img src=""img/food6.png"" style=""width:200px;border:14px solid red;"">","null","","","","","","","","","",""
"","image-keyboard-response","168","63164","0.0-168.0","3CFJTT4SXUC03XYBN4EXABZUW4U7I2","A24IWWIUPASCQJ","3AQN9REUTF20OMGWRXYK787Q1B1YD0","","20","img/food6.png","75","22","2","1","3","1","1,0.7,0,1,0.7,0,0.7,0,1","0,1,0.7,0,1,0.7,1,0.7,0","3","",""
"","html-keyboard-response","169","63554","0.0-169.0","3CFJTT4SXUC03XYBN4EXABZUW4U7I2","A24IWWIUPASCQJ","3AQN9REUTF20OMGWRXYK787Q1B1YD0","","null","<img src=""img/food6.png"" style=""width:200px; border:14px solid green;"">","null","","","","","","","","","",""
"","image-keyboard-response","170","63739","0.0-170.0","3CFJTT4SXUC03XYBN4EXABZUW4U7I2","A24IWWIUPASCQJ","3AQN9REUTF20OMGWRXYK787Q1B1YD0","","177","img/food2.png","76","185","3","1","1","1","1,0.7,0,1,0.7,0,0.7,0,1","0,1,0.7,0,1,0.7,1,0.7,0","3","",""
"","html-keyboard-response","171","64042","0.0-171.0","3CFJTT4SXUC03XYBN4EXABZUW4U7I2","A24IWWIUPASCQJ","3AQN9REUTF20OMGWRXYK787Q1B1YD0","","null","<img src=""img/food2.png"" style=""width:200px; border:14px solid green;"">","null","","","","","","","","","",""
"","image-keyboard-response","172","64220","0.0-172.0","3CFJTT4SXUC03XYBN4EXABZUW4U7I2","A24IWWIUPASCQJ","3AQN9REUTF20OMGWRXYK787Q1B1YD0","","176","img/food2.png","75","178","2","1","1","1","1,0.7,0,1,0.7,0,0.7,0,1","0,1,0.7,0,1,0.7,1,0.7,0","3","",""
"","html-keyboard-response","173","64523","0.0-173.0","3CFJTT4SXUC03XYBN4EXABZUW4U7I2","A24IWWIUPASCQJ","3AQN9REUTF20OMGWRXYK787Q1B1YD0","","null","<img src=""img/food2.png"" style=""width:200px; border:14px solid green;"">","null","","","","","","","","","",""
"","image-keyboard-response","174","64979","0.0-174.0","3CFJTT4SXUC03XYBN4EXABZUW4U7I2","A24IWWIUPASCQJ","3AQN9REUTF20OMGWRXYK787Q1B1YD0","","454","img/food1.png","75","456","2","1","2","1","1,0.7,0,1,0.7,0,0.7,0,1","0,1,0.7,0,1,0.7,1,0.7,0","3","",""
"","html-keyboard-response","175","65280","0.0-175.0","3CFJTT4SXUC03XYBN4EXABZUW4U7I2","A24IWWIUPASCQJ","3AQN9REUTF20OMGWRXYK787Q1B1YD0","","null","<img src=""img/food1.png"" style=""width:200px; border:14px solid green;"">","null","","","","","","","","","",""
"","image-keyboard-response","176","65803","0.0-176.0","3CFJTT4SXUC03XYBN4EXABZUW4U7I2","A24IWWIUPASCQJ","3AQN9REUTF20OMGWRXYK787Q1B1YD0","","522","img/food2.png","76","523","3","1","1","1","1,0.7,0,1,0.7,0,0.7,0,1","0,1,0.7,0,1,0.7,1,0.7,0","3","",""
"","html-keyboard-response","177","66111","0.0-177.0","3CFJTT4SXUC03XYBN4EXABZUW4U7I2","A24IWWIUPASCQJ","3AQN9REUTF20OMGWRXYK787Q1B1YD0","","null","<img src=""img/food2.png"" style=""width:200px; border:14px solid green;"">","null","","","","","","","","","",""
"","image-keyboard-response","178","66386","0.0-178.0","3CFJTT4SXUC03XYBN4EXABZUW4U7I2","A24IWWIUPASCQJ","3AQN9REUTF20OMGWRXYK787Q1B1YD0","","272","img/food1.png","75","275","2","1","2","1","1,0.7,0,1,0.7,0,0.7,0,1","0,1,0.7,0,1,0.7,1,0.7,0","3","",""
"","html-keyboard-response","179","66704","0.0-179.0","3CFJTT4SXUC03XYBN4EXABZUW4U7I2","A24IWWIUPASCQJ","3AQN9REUTF20OMGWRXYK787Q1B1YD0","","null","<img src=""img/food1.png"" style=""width:200px; border:14px solid green;"">","null","","","","","","","","","",""
"","image-keyboard-response","180","66762","0.0-180.0","3CFJTT4SXUC03XYBN4EXABZUW4U7I2","A24IWWIUPASCQJ","3AQN9REUTF20OMGWRXYK787Q1B1YD0","","56","img/food2.png","75","58","2","1","1","1","1,0.7,0,1,0.7,0,0.7,0,1","0,1,0.7,0,1,0.7,1,0.7,0","3","",""
"","html-keyboard-response","181","67070","0.0-181.0","3CFJTT4SXUC03XYBN4EXABZUW4U7I2","A24IWWIUPASCQJ","3AQN9REUTF20OMGWRXYK787Q1B1YD0","","null","<img src=""img/food2.png"" style=""width:200px; border:14px solid green;"">","null","","","","","","","","","",""
"","html-keyboard-response","182","69699","0.0-182.0","3CFJTT4SXUC03XYBN4EXABZUW4U7I2","A24IWWIUPASCQJ","3AQN9REUTF20OMGWRXYK787Q1B1YD0","","","","","","","","","","","","","",""
"","instructions","183","73457","0.0-183.0","3CFJTT4SXUC03XYBN4EXABZUW4U7I2","A24IWWIUPASCQJ","3AQN9REUTF20OMGWRXYK787Q1B1YD0","[{""page_index"":0,""viewing_time"":2321},{""page_index"":1,""viewing_time"":1435}]","3756","","","","","","","","","","","",""
"","image-keyboard-response","184","74461","0.0-184.0","3CFJTT4SXUC03XYBN4EXABZUW4U7I2","A24IWWIUPASCQJ","3AQN9REUTF20OMGWRXYK787Q1B1YD0","","","img/food3.png","","1004","-1","0","1","2","1,0.7,0,1,0.7,0,0.7,0,1","1,0.7,0,1,0.7,0,0.7,0,1","1","true",""
"","html-keyboard-response","185","74763","0.0-185.0","3CFJTT4SXUC03XYBN4EXABZUW4U7I2","A24IWWIUPASCQJ","3AQN9REUTF20OMGWRXYK787Q1B1YD0","","null","<img src=""img/food3.png"" style=""width:200px;border:14px solid red;"">","null","","","","","","","","","",""
"","html-keyboard-response","186","78163","0.0-186.0-0.0","3CFJTT4SXUC03XYBN4EXABZUW4U7I2","A24IWWIUPASCQJ","3AQN9REUTF20OMGWRXYK787Q1B1YD0","","","","","","","","","","","","","",""
"","image-keyboard-response","187","79166","0.0-187.0","3CFJTT4SXUC03XYBN4EXABZUW4U7I2","A24IWWIUPASCQJ","3AQN9REUTF20OMGWRXYK787Q1B1YD0","","","img/food4.png","","1003","-1","0","3","2","1,0.7,0,1,0.7,0,0.7,0,1","1,0.7,0,1,0.7,0,0.7,0,1","1","true",""
"","html-keyboard-response","188","79501","0.0-188.0","3CFJTT4SXUC03XYBN4EXABZUW4U7I2","A24IWWIUPASCQJ","3AQN9REUTF20OMGWRXYK787Q1B1YD0","","null","<img src=""img/food4.png"" style=""width:200px;border:14px solid red;"">","null","","","","","","","","","",""
"","html-keyboard-response","189","81173","0.0-189.0-0.0","3CFJTT4SXUC03XYBN4EXABZUW4U7I2","A24IWWIUPASCQJ","3AQN9REUTF20OMGWRXYK787Q1B1YD0","","","","","","","","","","","","","",""
"","image-keyboard-response","190","82177","0.0-190.0","3CFJTT4SXUC03XYBN4EXABZUW4U7I2","A24IWWIUPASCQJ","3AQN9REUTF20OMGWRXYK787Q1B1YD0","","","img/food5.png","","1002","-1","0","2","2","1,0.7,0,1,0.7,0,0.7,0,1","1,0.7,0,1,0.7,0,0.7,0,1","1","true",""
"","html-keyboard-response","191","82480","0.0-191.0","3CFJTT4SXUC03XYBN4EXABZUW4U7I2","A24IWWIUPASCQJ","3AQN9REUTF20OMGWRXYK787Q1B1YD0","","null","<img src=""img/food5.png"" style=""width:200px;border:14px solid red;"">","null","","","","","","","","","",""
"","html-keyboard-response","192","98867","0.0-192.0-0.0","3CFJTT4SXUC03XYBN4EXABZUW4U7I2","A24IWWIUPASCQJ","3AQN9REUTF20OMGWRXYK787Q1B1YD0","","","","","","","","","","","","","",""
"","image-keyboard-response","193","99875","0.0-193.0","3CFJTT4SXUC03XYBN4EXABZUW4U7I2","A24IWWIUPASCQJ","3AQN9REUTF20OMGWRXYK787Q1B1YD0","","","img/food5.png","","1008","-1","0","2","2","1,0.7,0,1,0.7,0,0.7,0,1","1,0.7,0,1,0.7,0,0.7,0,1","1","true",""
"","html-keyboard-response","194","100177","0.0-194.0","3CFJTT4SXUC03XYBN4EXABZUW4U7I2","A24IWWIUPASCQJ","3AQN9REUTF20OMGWRXYK787Q1B1YD0","","null","<img src=""img/food5.png"" style=""width:200px;border:14px solid red;"">","null","","","","","","","","","",""
"","html-keyboard-response","195","101867","0.0-195.0-0.0","3CFJTT4SXUC03XYBN4EXABZUW4U7I2","A24IWWIUPASCQJ","3AQN9REUTF20OMGWRXYK787Q1B1YD0","","","","","","","","","","","","","",""
"","image-keyboard-response","196","102427","0.0-196.0","3CFJTT4SXUC03XYBN4EXABZUW4U7I2","A24IWWIUPASCQJ","3AQN9REUTF20OMGWRXYK787Q1B1YD0","","558","img/food4.png","74","560","1","1","3","2","1,0.7,0,1,0.7,0,0.7,0,1","1,0.7,0,1,0.7,0,0.7,0,1","1","false",""
"","html-keyboard-response","197","102738","0.0-197.0","3CFJTT4SXUC03XYBN4EXABZUW4U7I2","A24IWWIUPASCQJ","3AQN9REUTF20OMGWRXYK787Q1B1YD0","","null","<img src=""img/food4.png"" style=""width:200px; border:14px solid green;"">","null","","","","","","","","","",""
"","image-keyboard-response","198","103742","0.0-199.0","3CFJTT4SXUC03XYBN4EXABZUW4U7I2","A24IWWIUPASCQJ","3AQN9REUTF20OMGWRXYK787Q1B1YD0","","","img/food5.png","","1003","-1","0","2","2","1,0.7,0,1,0.7,0,0.7,0,1","1,0.7,0,1,0.7,0,0.7,0,1","1","true",""
"","html-keyboard-response","199","104044","0.0-200.0","3CFJTT4SXUC03XYBN4EXABZUW4U7I2","A24IWWIUPASCQJ","3AQN9REUTF20OMGWRXYK787Q1B1YD0","","null","<img src=""img/food5.png"" style=""width:200px;border:14px solid red;"">","null","","","","","","","","","",""
"","html-keyboard-response","200","105330","0.0-201.0-0.0","3CFJTT4SXUC03XYBN4EXABZUW4U7I2","A24IWWIUPASCQJ","3AQN9REUTF20OMGWRXYK787Q1B1YD0","","","","","","","","","","","","","",""
"","image-keyboard-response","201","106332","0.0-202.0","3CFJTT4SXUC03XYBN4EXABZUW4U7I2","A24IWWIUPASCQJ","3AQN9REUTF20OMGWRXYK787Q1B1YD0","","","img/food4.png","","1001","-1","0","3","2","1,0.7,0,1,0.7,0,0.7,0,1","1,0.7,0,1,0.7,0,0.7,0,1","1","true",""
"","html-keyboard-response","202","106633","0.0-203.0","3CFJTT4SXUC03XYBN4EXABZUW4U7I2","A24IWWIUPASCQJ","3AQN9REUTF20OMGWRXYK787Q1B1YD0","","null","<img src=""img/food4.png"" style=""width:200px;border:14px solid red;"">","null","","","","","","","","","",""
"","html-keyboard-response","203","108001","0.0-204.0-0.0","3CFJTT4SXUC03XYBN4EXABZUW4U7I2","A24IWWIUPASCQJ","3AQN9REUTF20OMGWRXYK787Q1B1YD0","","","","","","","","","","","","","",""
"","image-keyboard-response","204","109004","0.0-205.0","3CFJTT4SXUC03XYBN4EXABZUW4U7I2","A24IWWIUPASCQJ","3AQN9REUTF20OMGWRXYK787Q1B1YD0","","","img/food4.png","","1002","-1","0","3","2","1,0.7,0,1,0.7,0,0.7,0,1","1,0.7,0,1,0.7,0,0.7,0,1","1","true",""
"","html-keyboard-response","205","109442","0.0-206.0","3CFJTT4SXUC03XYBN4EXABZUW4U7I2","A24IWWIUPASCQJ","3AQN9REUTF20OMGWRXYK787Q1B1YD0","","null","<img src=""img/food4.png"" style=""width:200px;border:14px solid red;"">","null","","","","","","","","","",""
"","html-keyboard-response","206","110487","0.0-207.0-0.0","3CFJTT4SXUC03XYBN4EXABZUW4U7I2","A24IWWIUPASCQJ","3AQN9REUTF20OMGWRXYK787Q1B1YD0","","","","","","","","","","","","","",""
"","image-keyboard-response","207","111513","0.0-208.0","3CFJTT4SXUC03XYBN4EXABZUW4U7I2","A24IWWIUPASCQJ","3AQN9REUTF20OMGWRXYK787Q1B1YD0","","993","img/food3.png","76","1025","3","0","1","2","1,0.7,0,1,0.7,0,0.7,0,1","1,0.7,0,1,0.7,0,0.7,0,1","1","false",""
"","html-keyboard-response","208","111814","0.0-209.0","3CFJTT4SXUC03XYBN4EXABZUW4U7I2","A24IWWIUPASCQJ","3AQN9REUTF20OMGWRXYK787Q1B1YD0","","null","<img src=""img/food3.png"" style=""width:200px;border:14px solid red;"">","null","","","","","","","","","",""
"","image-keyboard-response","209","112452","0.0-211.0","3CFJTT4SXUC03XYBN4EXABZUW4U7I2","A24IWWIUPASCQJ","3AQN9REUTF20OMGWRXYK787Q1B1YD0","","636","img/food3.png","75","637","2","0","1","2","1,0.7,0,1,0.7,0,0.7,0,1","1,0.7,0,1,0.7,0,0.7,0,1","1","false",""
"","html-keyboard-response","210","112754","0.0-212.0","3CFJTT4SXUC03XYBN4EXABZUW4U7I2","A24IWWIUPASCQJ","3AQN9REUTF20OMGWRXYK787Q1B1YD0","","null","<img src=""img/food3.png"" style=""width:200px;border:14px solid red;"">","null","","","","","","","","","",""
"","image-keyboard-response","211","113630","0.0-214.0","3CFJTT4SXUC03XYBN4EXABZUW4U7I2","A24IWWIUPASCQJ","3AQN9REUTF20OMGWRXYK787Q1B1YD0","","875","img/food5.png","75","875","2","0","2","2","1,0.7,0,1,0.7,0,0.7,0,1","1,0.7,0,1,0.7,0,0.7,0,1","1","false",""
"","html-keyboard-response","212","113934","0.0-215.0","3CFJTT4SXUC03XYBN4EXABZUW4U7I2","A24IWWIUPASCQJ","3AQN9REUTF20OMGWRXYK787Q1B1YD0","","null","<img src=""img/food5.png"" style=""width:200px;border:14px solid red;"">","null","","","","","","","","","",""
"","image-keyboard-response","213","114147","0.0-217.0","3CFJTT4SXUC03XYBN4EXABZUW4U7I2","A24IWWIUPASCQJ","3AQN9REUTF20OMGWRXYK787Q1B1YD0","","212","img/food4.png","74","213","1","1","3","2","1,0.7,0,1,0.7,0,0.7,0,1","1,0.7,0,1,0.7,0,0.7,0,1","1","false",""
"","html-keyboard-response","214","114451","0.0-218.0","3CFJTT4SXUC03XYBN4EXABZUW4U7I2","A24IWWIUPASCQJ","3AQN9REUTF20OMGWRXYK787Q1B1YD0","","null","<img src=""img/food4.png"" style=""width:200px; border:14px solid green;"">","null","","","","","","","","","",""
"","image-keyboard-response","215","115454","0.0-220.0","3CFJTT4SXUC03XYBN4EXABZUW4U7I2","A24IWWIUPASCQJ","3AQN9REUTF20OMGWRXYK787Q1B1YD0","","","img/food3.png","","1001","-1","0","1","2","1,0.7,0,1,0.7,0,0.7,0,1","1,0.7,0,1,0.7,0,0.7,0,1","1","true",""
"","html-keyboard-response","216","115755","0.0-221.0","3CFJTT4SXUC03XYBN4EXABZUW4U7I2","A24IWWIUPASCQJ","3AQN9REUTF20OMGWRXYK787Q1B1YD0","","null","<img src=""img/food3.png"" style=""width:200px;border:14px solid red;"">","null","","","","","","","","","",""
"","html-keyboard-response","217","116831","0.0-222.0-0.0","3CFJTT4SXUC03XYBN4EXABZUW4U7I2","A24IWWIUPASCQJ","3AQN9REUTF20OMGWRXYK787Q1B1YD0","","","","","","","","","","","","","",""
"","image-keyboard-response","218","117833","0.0-223.0","3CFJTT4SXUC03XYBN4EXABZUW4U7I2","A24IWWIUPASCQJ","3AQN9REUTF20OMGWRXYK787Q1B1YD0","","","img/food3.png","","1002","-1","0","1","2","1,0.7,0,1,0.7,0,0.7,0,1","1,0.7,0,1,0.7,0,0.7,0,1","1","true",""
"","html-keyboard-response","219","118135","0.0-224.0","3CFJTT4SXUC03XYBN4EXABZUW4U7I2","A24IWWIUPASCQJ","3AQN9REUTF20OMGWRXYK787Q1B1YD0","","null","<img src=""img/food3.png"" style=""width:200px;border:14px solid red;"">","null","","","","","","","","","",""
"","html-keyboard-response","220","119093","0.0-225.0-0.0","3CFJTT4SXUC03XYBN4EXABZUW4U7I2","A24IWWIUPASCQJ","3AQN9REUTF20OMGWRXYK787Q1B1YD0","","","","","","","","","","","","","",""
"","image-keyboard-response","221","120095","0.0-226.0","3CFJTT4SXUC03XYBN4EXABZUW4U7I2","A24IWWIUPASCQJ","3AQN9REUTF20OMGWRXYK787Q1B1YD0","","","img/food3.png","","1002","-1","0","1","2","1,0.7,0,1,0.7,0,0.7,0,1","1,0.7,0,1,0.7,0,0.7,0,1","1","true",""
"","html-keyboard-response","222","120397","0.0-227.0","3CFJTT4SXUC03XYBN4EXABZUW4U7I2","A24IWWIUPASCQJ","3AQN9REUTF20OMGWRXYK787Q1B1YD0","","null","<img src=""img/food3.png"" style=""width:200px;border:14px solid red;"">","null","","","","","","","","","",""
"","html-keyboard-response","223","121803","0.0-228.0-0.0","3CFJTT4SXUC03XYBN4EXABZUW4U7I2","A24IWWIUPASCQJ","3AQN9REUTF20OMGWRXYK787Q1B1YD0","","","","","","","","","","","","","",""
"","image-keyboard-response","224","122807","0.0-229.0","3CFJTT4SXUC03XYBN4EXABZUW4U7I2","A24IWWIUPASCQJ","3AQN9REUTF20OMGWRXYK787Q1B1YD0","","","img/food5.png","","1004","-1","0","2","2","1,0.7,0,1,0.7,0,0.7,0,1","1,0.7,0,1,0.7,0,0.7,0,1","1","true",""
"","html-keyboard-response","225","123113","0.0-230.0","3CFJTT4SXUC03XYBN4EXABZUW4U7I2","A24IWWIUPASCQJ","3AQN9REUTF20OMGWRXYK787Q1B1YD0","","null","<img src=""img/food5.png"" style=""width:200px;border:14px solid red;"">","null","","","","","","","","","",""
"","html-keyboard-response","226","124100","0.0-231.0-0.0","3CFJTT4SXUC03XYBN4EXABZUW4U7I2","A24IWWIUPASCQJ","3AQN9REUTF20OMGWRXYK787Q1B1YD0","","","","","","","","","","","","","",""
"","image-keyboard-response","227","125103","0.0-232.0","3CFJTT4SXUC03XYBN4EXABZUW4U7I2","A24IWWIUPASCQJ","3AQN9REUTF20OMGWRXYK787Q1B1YD0","","","img/food4.png","","1000","-1","0","3","2","1,0.7,0,1,0.7,0,0.7,0,1","1,0.7,0,1,0.7,0,0.7,0,1","1","true",""
"","html-keyboard-response","228","125405","0.0-233.0","3CFJTT4SXUC03XYBN4EXABZUW4U7I2","A24IWWIUPASCQJ","3AQN9REUTF20OMGWRXYK787Q1B1YD0","","null","<img src=""img/food4.png"" style=""width:200px;border:14px solid red;"">","null","","","","","","","","","",""
"","html-keyboard-response","229","126324","0.0-234.0-0.0","3CFJTT4SXUC03XYBN4EXABZUW4U7I2","A24IWWIUPASCQJ","3AQN9REUTF20OMGWRXYK787Q1B1YD0","","","","","","","","","","","","","",""
"","image-keyboard-response","230","127052","0.0-235.0","3CFJTT4SXUC03XYBN4EXABZUW4U7I2","A24IWWIUPASCQJ","3AQN9REUTF20OMGWRXYK787Q1B1YD0","","722","img/food5.png","74","729","1","1","2","2","1,0.7,0,1,0.7,0,0.7,0,1","1,0.7,0,1,0.7,0,0.7,0,1","1","false",""
"","html-keyboard-response","231","127444","0.0-236.0","3CFJTT4SXUC03XYBN4EXABZUW4U7I2","A24IWWIUPASCQJ","3AQN9REUTF20OMGWRXYK787Q1B1YD0","","null","<img src=""img/food5.png"" style=""width:200px; border:14px solid green;"">","null","","","","","","","","","",""
"","image-keyboard-response","232","127653","0.0-238.0","3CFJTT4SXUC03XYBN4EXABZUW4U7I2","A24IWWIUPASCQJ","3AQN9REUTF20OMGWRXYK787Q1B1YD0","","208","img/food5.png","75","209","2","0","2","2","1,0.7,0,1,0.7,0,0.7,0,1","1,0.7,0,1,0.7,0,0.7,0,1","1","false",""
"","html-keyboard-response","233","127957","0.0-239.0","3CFJTT4SXUC03XYBN4EXABZUW4U7I2","A24IWWIUPASCQJ","3AQN9REUTF20OMGWRXYK787Q1B1YD0","","null","<img src=""img/food5.png"" style=""width:200px;border:14px solid red;"">","null","","","","","","","","","",""
"","image-keyboard-response","234","128724","0.0-241.0","3CFJTT4SXUC03XYBN4EXABZUW4U7I2","A24IWWIUPASCQJ","3AQN9REUTF20OMGWRXYK787Q1B1YD0","","744","img/food4.png","74","761","1","1","3","2","1,0.7,0,1,0.7,0,0.7,0,1","1,0.7,0,1,0.7,0,0.7,0,1","1","false",""
"","html-keyboard-response","235","129031","0.0-242.0","3CFJTT4SXUC03XYBN4EXABZUW4U7I2","A24IWWIUPASCQJ","3AQN9REUTF20OMGWRXYK787Q1B1YD0","","null","<img src=""img/food4.png"" style=""width:200px; border:14px solid green;"">","null","","","","","","","","","",""
"","image-keyboard-response","236","130032","0.0-244.0","3CFJTT4SXUC03XYBN4EXABZUW4U7I2","A24IWWIUPASCQJ","3AQN9REUTF20OMGWRXYK787Q1B1YD0","","","img/food4.png","","1001","-1","0","3","2","1,0.7,0,1,0.7,0,0.7,0,1","1,0.7,0,1,0.7,0,0.7,0,1","1","true",""
"","html-keyboard-response","237","130336","0.0-245.0","3CFJTT4SXUC03XYBN4EXABZUW4U7I2","A24IWWIUPASCQJ","3AQN9REUTF20OMGWRXYK787Q1B1YD0","","null","<img src=""img/food4.png"" style=""width:200px;border:14px solid red;"">","null","","","","","","","","","",""
"","html-keyboard-response","238","131314","0.0-246.0-0.0","3CFJTT4SXUC03XYBN4EXABZUW4U7I2","A24IWWIUPASCQJ","3AQN9REUTF20OMGWRXYK787Q1B1YD0","","","","","","","","","","","","","",""
"","image-keyboard-response","239","131849","0.0-247.0","3CFJTT4SXUC03XYBN4EXABZUW4U7I2","A24IWWIUPASCQJ","3AQN9REUTF20OMGWRXYK787Q1B1YD0","","533","img/food5.png","75","535","2","1","2","2","1,0.7,0,1,0.7,0,0.7,0,1","1,0.7,0,1,0.7,0,0.7,0,1","1","false",""
"","html-keyboard-response","240","132151","0.0-248.0","3CFJTT4SXUC03XYBN4EXABZUW4U7I2","A24IWWIUPASCQJ","3AQN9REUTF20OMGWRXYK787Q1B1YD0","","null","<img src=""img/food5.png"" style=""width:200px; border:14px solid green;"">","null","","","","","","","","","",""
"","image-keyboard-response","241","133151","0.0-250.0","3CFJTT4SXUC03XYBN4EXABZUW4U7I2","A24IWWIUPASCQJ","3AQN9REUTF20OMGWRXYK787Q1B1YD0","","","img/food3.png","","1000","-1","0","1","2","1,0.7,0,1,0.7,0,0.7,0,1","1,0.7,0,1,0.7,0,0.7,0,1","1","true",""
"","html-keyboard-response","242","133460","0.0-251.0","3CFJTT4SXUC03XYBN4EXABZUW4U7I2","A24IWWIUPASCQJ","3AQN9REUTF20OMGWRXYK787Q1B1YD0","","null","<img src=""img/food3.png"" style=""width:200px;border:14px solid red;"">","null","","","","","","","","","",""
"","html-keyboard-response","243","138152","0.0-252.0-0.0","3CFJTT4SXUC03XYBN4EXABZUW4U7I2","A24IWWIUPASCQJ","3AQN9REUTF20OMGWRXYK787Q1B1YD0","","","","","","","","","","","","","",""
"","image-keyboard-response","244","139158","0.0-253.0","3CFJTT4SXUC03XYBN4EXABZUW4U7I2","A24IWWIUPASCQJ","3AQN9REUTF20OMGWRXYK787Q1B1YD0","","","img/food4.png","","1007","-1","0","3","2","1,0.7,0,1,0.7,0,0.7,0,1","1,0.7,0,1,0.7,0,0.7,0,1","1","true",""
"","html-keyboard-response","245","139461","0.0-254.0","3CFJTT4SXUC03XYBN4EXABZUW4U7I2","A24IWWIUPASCQJ","3AQN9REUTF20OMGWRXYK787Q1B1YD0","","null","<img src=""img/food4.png"" style=""width:200px;border:14px solid red;"">","null","","","","","","","","","",""
"","html-keyboard-response","246","140796","0.0-255.0-0.0","3CFJTT4SXUC03XYBN4EXABZUW4U7I2","A24IWWIUPASCQJ","3AQN9REUTF20OMGWRXYK787Q1B1YD0","","","","","","","","","","","","","",""
"","image-keyboard-response","247","141569","0.0-256.0","3CFJTT4SXUC03XYBN4EXABZUW4U7I2","A24IWWIUPASCQJ","3AQN9REUTF20OMGWRXYK787Q1B1YD0","","771","img/food5.png","74","773","1","1","2","2","1,0.7,0,1,0.7,0,0.7,0,1","1,0.7,0,1,0.7,0,0.7,0,1","1","false",""
"","html-keyboard-response","248","141876","0.0-257.0","3CFJTT4SXUC03XYBN4EXABZUW4U7I2","A24IWWIUPASCQJ","3AQN9REUTF20OMGWRXYK787Q1B1YD0","","null","<img src=""img/food5.png"" style=""width:200px; border:14px solid green;"">","null","","","","","","","","","",""
"","image-keyboard-response","249","142836","0.0-259.0","3CFJTT4SXUC03XYBN4EXABZUW4U7I2","A24IWWIUPASCQJ","3AQN9REUTF20OMGWRXYK787Q1B1YD0","","957","img/food4.png","74","959","1","0","3","2","1,0.7,0,1,0.7,0,0.7,0,1","1,0.7,0,1,0.7,0,0.7,0,1","1","false",""
"","html-keyboard-response","250","143139","0.0-260.0","3CFJTT4SXUC03XYBN4EXABZUW4U7I2","A24IWWIUPASCQJ","3AQN9REUTF20OMGWRXYK787Q1B1YD0","","null","<img src=""img/food4.png"" style=""width:200px;border:14px solid red;"">","null","","","","","","","","","",""
"","image-keyboard-response","251","143849","0.0-262.0","3CFJTT4SXUC03XYBN4EXABZUW4U7I2","A24IWWIUPASCQJ","3AQN9REUTF20OMGWRXYK787Q1B1YD0","","710","img/food3.png","75","710","2","0","1","2","1,0.7,0,1,0.7,0,0.7,0,1","1,0.7,0,1,0.7,0,0.7,0,1","1","false",""
"","html-keyboard-response","252","144152","0.0-263.0","3CFJTT4SXUC03XYBN4EXABZUW4U7I2","A24IWWIUPASCQJ","3AQN9REUTF20OMGWRXYK787Q1B1YD0","","null","<img src=""img/food3.png"" style=""width:200px;border:14px solid red;"">","null","","","","","","","","","",""
"","image-keyboard-response","253","144735","0.0-265.0","3CFJTT4SXUC03XYBN4EXABZUW4U7I2","A24IWWIUPASCQJ","3AQN9REUTF20OMGWRXYK787Q1B1YD0","","571","img/food4.png","76","583","3","1","3","2","1,0.7,0,1,0.7,0,0.7,0,1","1,0.7,0,1,0.7,0,0.7,0,1","1","false",""
"","html-keyboard-response","254","145041","0.0-266.0","3CFJTT4SXUC03XYBN4EXABZUW4U7I2","A24IWWIUPASCQJ","3AQN9REUTF20OMGWRXYK787Q1B1YD0","","null","<img src=""img/food4.png"" style=""width:200px; border:14px solid green;"">","null","","","","","","","","","",""
"","image-keyboard-response","255","146046","0.0-268.0","3CFJTT4SXUC03XYBN4EXABZUW4U7I2","A24IWWIUPASCQJ","3AQN9REUTF20OMGWRXYK787Q1B1YD0","","","img/food5.png","","1003","-1","0","2","2","1,0.7,0,1,0.7,0,0.7,0,1","1,0.7,0,1,0.7,0,0.7,0,1","1","true",""
"","html-keyboard-response","256","146347","0.0-269.0","3CFJTT4SXUC03XYBN4EXABZUW4U7I2","A24IWWIUPASCQJ","3AQN9REUTF20OMGWRXYK787Q1B1YD0","","null","<img src=""img/food5.png"" style=""width:200px;border:14px solid red;"">","null","","","","","","","","","",""
"","html-keyboard-response","257","147327","0.0-270.0-0.0","3CFJTT4SXUC03XYBN4EXABZUW4U7I2","A24IWWIUPASCQJ","3AQN9REUTF20OMGWRXYK787Q1B1YD0","","","","","","","","","","","","","",""
"","image-keyboard-response","258","147788","0.0-271.0","3CFJTT4SXUC03XYBN4EXABZUW4U7I2","A24IWWIUPASCQJ","3AQN9REUTF20OMGWRXYK787Q1B1YD0","","461","img/food4.png","74","461","1","0","3","2","1,0.7,0,1,0.7,0,0.7,0,1","1,0.7,0,1,0.7,0,0.7,0,1","1","false",""
"","html-keyboard-response","259","148101","0.0-272.0","3CFJTT4SXUC03XYBN4EXABZUW4U7I2","A24IWWIUPASCQJ","3AQN9REUTF20OMGWRXYK787Q1B1YD0","","null","<img src=""img/food4.png"" style=""width:200px;border:14px solid red;"">","null","","","","","","","","","",""
"","image-keyboard-response","260","149105","0.0-274.0","3CFJTT4SXUC03XYBN4EXABZUW4U7I2","A24IWWIUPASCQJ","3AQN9REUTF20OMGWRXYK787Q1B1YD0","","","img/food4.png","","1004","-1","0","3","2","1,0.7,0,1,0.7,0,0.7,0,1","1,0.7,0,1,0.7,0,0.7,0,1","1","true",""
"","html-keyboard-response","261","149489","0.0-275.0","3CFJTT4SXUC03XYBN4EXABZUW4U7I2","A24IWWIUPASCQJ","3AQN9REUTF20OMGWRXYK787Q1B1YD0","","null","<img src=""img/food4.png"" style=""width:200px;border:14px solid red;"">","null","","","","","","","","","",""
"","html-keyboard-response","262","150595","0.0-276.0-0.0","3CFJTT4SXUC03XYBN4EXABZUW4U7I2","A24IWWIUPASCQJ","3AQN9REUTF20OMGWRXYK787Q1B1YD0","","","","","","","","","","","","","",""
"","image-keyboard-response","263","151387","0.0-277.0","3CFJTT4SXUC03XYBN4EXABZUW4U7I2","A24IWWIUPASCQJ","3AQN9REUTF20OMGWRXYK787Q1B1YD0","","790","img/food4.png","74","792","1","0","3","2","1,0.7,0,1,0.7,0,0.7,0,1","1,0.7,0,1,0.7,0,0.7,0,1","1","false",""
"","html-keyboard-response","264","151692","0.0-278.0","3CFJTT4SXUC03XYBN4EXABZUW4U7I2","A24IWWIUPASCQJ","3AQN9REUTF20OMGWRXYK787Q1B1YD0","","null","<img src=""img/food4.png"" style=""width:200px;border:14px solid red;"">","null","","","","","","","","","",""
"","image-keyboard-response","265","152160","0.0-280.0","3CFJTT4SXUC03XYBN4EXABZUW4U7I2","A24IWWIUPASCQJ","3AQN9REUTF20OMGWRXYK787Q1B1YD0","","459","img/food3.png","75","469","2","1","1","2","1,0.7,0,1,0.7,0,0.7,0,1","1,0.7,0,1,0.7,0,0.7,0,1","1","false",""
"","html-keyboard-response","266","152467","0.0-281.0","3CFJTT4SXUC03XYBN4EXABZUW4U7I2","A24IWWIUPASCQJ","3AQN9REUTF20OMGWRXYK787Q1B1YD0","","null","<img src=""img/food3.png"" style=""width:200px; border:14px solid green;"">","null","","","","","","","","","",""
"","image-keyboard-response","267","153477","0.0-283.0","3CFJTT4SXUC03XYBN4EXABZUW4U7I2","A24IWWIUPASCQJ","3AQN9REUTF20OMGWRXYK787Q1B1YD0","","","img/food4.png","","1009","-1","0","3","2","1,0.7,0,1,0.7,0,0.7,0,1","1,0.7,0,1,0.7,0,0.7,0,1","1","true",""
"","html-keyboard-response","268","153779","0.0-284.0","3CFJTT4SXUC03XYBN4EXABZUW4U7I2","A24IWWIUPASCQJ","3AQN9REUTF20OMGWRXYK787Q1B1YD0","","null","<img src=""img/food4.png"" style=""width:200px;border:14px solid red;"">","null","","","","","","","","","",""
"","html-keyboard-response","269","154807","0.0-285.0-0.0","3CFJTT4SXUC03XYBN4EXABZUW4U7I2","A24IWWIUPASCQJ","3AQN9REUTF20OMGWRXYK787Q1B1YD0","","","","","","","","","","","","","",""
"","image-keyboard-response","270","155793","0.0-286.0","3CFJTT4SXUC03XYBN4EXABZUW4U7I2","A24IWWIUPASCQJ","3AQN9REUTF20OMGWRXYK787Q1B1YD0","","984","img/food5.png","74","985","1","1","2","2","1,0.7,0,1,0.7,0,0.7,0,1","1,0.7,0,1,0.7,0,0.7,0,1","1","false",""
"","html-keyboard-response","271","156094","0.0-287.0","3CFJTT4SXUC03XYBN4EXABZUW4U7I2","A24IWWIUPASCQJ","3AQN9REUTF20OMGWRXYK787Q1B1YD0","","null","<img src=""img/food5.png"" style=""width:200px; border:14px solid green;"">","null","","","","","","","","","",""
"","image-keyboard-response","272","157094","0.0-289.0","3CFJTT4SXUC03XYBN4EXABZUW4U7I2","A24IWWIUPASCQJ","3AQN9REUTF20OMGWRXYK787Q1B1YD0","","","img/food3.png","","1001","-1","0","1","2","1,0.7,0,1,0.7,0,0.7,0,1","1,0.7,0,1,0.7,0,0.7,0,1","1","true",""
"","html-keyboard-response","273","157399","0.0-290.0","3CFJTT4SXUC03XYBN4EXABZUW4U7I2","A24IWWIUPASCQJ","3AQN9REUTF20OMGWRXYK787Q1B1YD0","","null","<img src=""img/food3.png"" style=""width:200px;border:14px solid red;"">","null","","","","","","","","","",""
"","html-keyboard-response","274","158394","0.0-291.0-0.0","3CFJTT4SXUC03XYBN4EXABZUW4U7I2","A24IWWIUPASCQJ","3AQN9REUTF20OMGWRXYK787Q1B1YD0","","","","","","","","","","","","","",""
"","image-keyboard-response","275","158888","0.0-292.0","3CFJTT4SXUC03XYBN4EXABZUW4U7I2","A24IWWIUPASCQJ","3AQN9REUTF20OMGWRXYK787Q1B1YD0","","491","img/food5.png","75","493","2","1","2","2","1,0.7,0,1,0.7,0,0.7,0,1","1,0.7,0,1,0.7,0,0.7,0,1","1","false",""
"","html-keyboard-response","276","159190","0.0-293.0","3CFJTT4SXUC03XYBN4EXABZUW4U7I2","A24IWWIUPASCQJ","3AQN9REUTF20OMGWRXYK787Q1B1YD0","","null","<img src=""img/food5.png"" style=""width:200px; border:14px solid green;"">","null","","","","","","","","","",""
"","image-keyboard-response","277","159906","0.0-295.0","3CFJTT4SXUC03XYBN4EXABZUW4U7I2","A24IWWIUPASCQJ","3AQN9REUTF20OMGWRXYK787Q1B1YD0","","716","img/food3.png","75","716","2","1","1","2","1,0.7,0,1,0.7,0,0.7,0,1","1,0.7,0,1,0.7,0,0.7,0,1","1","false",""
"","html-keyboard-response","278","160209","0.0-296.0","3CFJTT4SXUC03XYBN4EXABZUW4U7I2","A24IWWIUPASCQJ","3AQN9REUTF20OMGWRXYK787Q1B1YD0","","null","<img src=""img/food3.png"" style=""width:200px; border:14px solid green;"">","null","","","","","","","","","",""
"","image-keyboard-response","279","160911","0.0-298.0","3CFJTT4SXUC03XYBN4EXABZUW4U7I2","A24IWWIUPASCQJ","3AQN9REUTF20OMGWRXYK787Q1B1YD0","","690","img/food5.png","75","702","2","1","2","2","1,0.7,0,1,0.7,0,0.7,0,1","1,0.7,0,1,0.7,0,0.7,0,1","1","false",""
"","html-keyboard-response","280","161215","0.0-299.0","3CFJTT4SXUC03XYBN4EXABZUW4U7I2","A24IWWIUPASCQJ","3AQN9REUTF20OMGWRXYK787Q1B1YD0","","null","<img src=""img/food5.png"" style=""width:200px; border:14px solid green;"">","null","","","","","","","","","",""
"","image-keyboard-response","281","161920","0.0-301.0","3CFJTT4SXUC03XYBN4EXABZUW4U7I2","A24IWWIUPASCQJ","3AQN9REUTF20OMGWRXYK787Q1B1YD0","","699","img/food3.png","75","705","2","1","1","2","1,0.7,0,1,0.7,0,0.7,0,1","1,0.7,0,1,0.7,0,0.7,0,1","1","false",""
"","html-keyboard-response","282","162223","0.0-302.0","3CFJTT4SXUC03XYBN4EXABZUW4U7I2","A24IWWIUPASCQJ","3AQN9REUTF20OMGWRXYK787Q1B1YD0","","null","<img src=""img/food3.png"" style=""width:200px; border:14px solid green;"">","null","","","","","","","","","",""
"","image-keyboard-response","283","162936","0.0-304.0","3CFJTT4SXUC03XYBN4EXABZUW4U7I2","A24IWWIUPASCQJ","3AQN9REUTF20OMGWRXYK787Q1B1YD0","","713","img/food5.png","75","713","2","0","2","2","1,0.7,0,1,0.7,0,0.7,0,1","1,0.7,0,1,0.7,0,0.7,0,1","1","false",""
"","html-keyboard-response","284","163240","0.0-305.0","3CFJTT4SXUC03XYBN4EXABZUW4U7I2","A24IWWIUPASCQJ","3AQN9REUTF20OMGWRXYK787Q1B1YD0","","null","<img src=""img/food5.png"" style=""width:200px;border:14px solid red;"">","null","","","","","","","","","",""
"","image-keyboard-response","285","164015","0.0-307.0","3CFJTT4SXUC03XYBN4EXABZUW4U7I2","A24IWWIUPASCQJ","3AQN9REUTF20OMGWRXYK787Q1B1YD0","","775","img/food5.png","76","776","3","0","2","2","1,0.7,0,1,0.7,0,0.7,0,1","1,0.7,0,1,0.7,0,0.7,0,1","1","false",""
"","html-keyboard-response","286","164318","0.0-308.0","3CFJTT4SXUC03XYBN4EXABZUW4U7I2","A24IWWIUPASCQJ","3AQN9REUTF20OMGWRXYK787Q1B1YD0","","null","<img src=""img/food5.png"" style=""width:200px;border:14px solid red;"">","null","","","","","","","","","",""
"","image-keyboard-response","287","165177","0.0-310.0","3CFJTT4SXUC03XYBN4EXABZUW4U7I2","A24IWWIUPASCQJ","3AQN9REUTF20OMGWRXYK787Q1B1YD0","","855","img/food3.png","74","858","1","1","1","2","1,0.7,0,1,0.7,0,0.7,0,1","1,0.7,0,1,0.7,0,0.7,0,1","1","false",""
"","html-keyboard-response","288","165673","0.0-311.0","3CFJTT4SXUC03XYBN4EXABZUW4U7I2","A24IWWIUPASCQJ","3AQN9REUTF20OMGWRXYK787Q1B1YD0","","null","<img src=""img/food3.png"" style=""width:200px; border:14px solid green;"">","null","","","","","","","","","",""
"","image-keyboard-response","289","165911","0.0-313.0","3CFJTT4SXUC03XYBN4EXABZUW4U7I2","A24IWWIUPASCQJ","3AQN9REUTF20OMGWRXYK787Q1B1YD0","","238","img/food3.png","75","238","2","0","1","2","1,0.7,0,1,0.7,0,0.7,0,1","1,0.7,0,1,0.7,0,0.7,0,1","1","false",""
"","html-keyboard-response","290","166217","0.0-314.0","3CFJTT4SXUC03XYBN4EXABZUW4U7I2","A24IWWIUPASCQJ","3AQN9REUTF20OMGWRXYK787Q1B1YD0","","null","<img src=""img/food3.png"" style=""width:200px;border:14px solid red;"">","null","","","","","","","","","",""
"","image-keyboard-response","291","166876","0.0-316.0","3CFJTT4SXUC03XYBN4EXABZUW4U7I2","A24IWWIUPASCQJ","3AQN9REUTF20OMGWRXYK787Q1B1YD0","","654","img/food3.png","74","655","1","1","1","2","1,0.7,0,1,0.7,0,0.7,0,1","1,0.7,0,1,0.7,0,0.7,0,1","1","false",""
"","html-keyboard-response","292","167177","0.0-317.0","3CFJTT4SXUC03XYBN4EXABZUW4U7I2","A24IWWIUPASCQJ","3AQN9REUTF20OMGWRXYK787Q1B1YD0","","null","<img src=""img/food3.png"" style=""width:200px; border:14px solid green;"">","null","","","","","","","","","",""
"","image-keyboard-response","293","167480","0.0-319.0","3CFJTT4SXUC03XYBN4EXABZUW4U7I2","A24IWWIUPASCQJ","3AQN9REUTF20OMGWRXYK787Q1B1YD0","","300","img/food3.png","75","302","2","1","1","2","1,0.7,0,1,0.7,0,0.7,0,1","1,0.7,0,1,0.7,0,0.7,0,1","1","false",""
"","html-keyboard-response","294","167784","0.0-320.0","3CFJTT4SXUC03XYBN4EXABZUW4U7I2","A24IWWIUPASCQJ","3AQN9REUTF20OMGWRXYK787Q1B1YD0","","null","<img src=""img/food3.png"" style=""width:200px; border:14px solid green;"">","null","","","","","","","","","",""
"","image-keyboard-response","295","168355","0.0-322.0","3CFJTT4SXUC03XYBN4EXABZUW4U7I2","A24IWWIUPASCQJ","3AQN9REUTF20OMGWRXYK787Q1B1YD0","","570","img/food4.png","76","571","3","1","3","2","1,0.7,0,1,0.7,0,0.7,0,1","1,0.7,0,1,0.7,0,0.7,0,1","1","false",""
"","html-keyboard-response","296","168657","0.0-323.0","3CFJTT4SXUC03XYBN4EXABZUW4U7I2","A24IWWIUPASCQJ","3AQN9REUTF20OMGWRXYK787Q1B1YD0","","null","<img src=""img/food4.png"" style=""width:200px; border:14px solid green;"">","null","","","","","","","","","",""
"","image-keyboard-response","297","169311","0.0-325.0","3CFJTT4SXUC03XYBN4EXABZUW4U7I2","A24IWWIUPASCQJ","3AQN9REUTF20OMGWRXYK787Q1B1YD0","","652","img/food4.png","75","654","2","0","3","2","1,0.7,0,1,0.7,0,0.7,0,1","1,0.7,0,1,0.7,0,0.7,0,1","1","false",""
"","html-keyboard-response","298","169614","0.0-326.0","3CFJTT4SXUC03XYBN4EXABZUW4U7I2","A24IWWIUPASCQJ","3AQN9REUTF20OMGWRXYK787Q1B1YD0","","null","<img src=""img/food4.png"" style=""width:200px;border:14px solid red;"">","null","","","","","","","","","",""
"","image-keyboard-response","299","170220","0.0-328.0","3CFJTT4SXUC03XYBN4EXABZUW4U7I2","A24IWWIUPASCQJ","3AQN9REUTF20OMGWRXYK787Q1B1YD0","","604","img/food5.png","74","605","1","1","2","2","1,0.7,0,1,0.7,0,0.7,0,1","1,0.7,0,1,0.7,0,0.7,0,1","1","false",""
"","html-keyboard-response","300","170522","0.0-329.0","3CFJTT4SXUC03XYBN4EXABZUW4U7I2","A24IWWIUPASCQJ","3AQN9REUTF20OMGWRXYK787Q1B1YD0","","null","<img src=""img/food5.png"" style=""width:200px; border:14px solid green;"">","null","","","","","","","","","",""
"","image-keyboard-response","301","170900","0.0-331.0","3CFJTT4SXUC03XYBN4EXABZUW4U7I2","A24IWWIUPASCQJ","3AQN9REUTF20OMGWRXYK787Q1B1YD0","","376","img/food5.png","75","377","2","0","2","2","1,0.7,0,1,0.7,0,0.7,0,1","1,0.7,0,1,0.7,0,0.7,0,1","1","false",""
"","html-keyboard-response","302","171205","0.0-332.0","3CFJTT4SXUC03XYBN4EXABZUW4U7I2","A24IWWIUPASCQJ","3AQN9REUTF20OMGWRXYK787Q1B1YD0","","null","<img src=""img/food5.png"" style=""width:200px;border:14px solid red;"">","null","","","","","","","","","",""
"","image-keyboard-response","303","172224","0.0-334.0","3CFJTT4SXUC03XYBN4EXABZUW4U7I2","A24IWWIUPASCQJ","3AQN9REUTF20OMGWRXYK787Q1B1YD0","","","img/food4.png","","1019","-1","0","3","2","1,0.7,0,1,0.7,0,0.7,0,1","1,0.7,0,1,0.7,0,0.7,0,1","1","true",""
"","html-keyboard-response","304","172546","0.0-335.0","3CFJTT4SXUC03XYBN4EXABZUW4U7I2","A24IWWIUPASCQJ","3AQN9REUTF20OMGWRXYK787Q1B1YD0","","null","<img src=""img/food4.png"" style=""width:200px;border:14px solid red;"">","null","","","","","","","","","",""
"","html-keyboard-response","305","173631","0.0-336.0-0.0","3CFJTT4SXUC03XYBN4EXABZUW4U7I2","A24IWWIUPASCQJ","3AQN9REUTF20OMGWRXYK787Q1B1YD0","","","","","","","","","","","","","",""
"","image-keyboard-response","306","174634","0.0-337.0","3CFJTT4SXUC03XYBN4EXABZUW4U7I2","A24IWWIUPASCQJ","3AQN9REUTF20OMGWRXYK787Q1B1YD0","","","img/food3.png","","1003","-1","0","1","2","1,0.7,0,1,0.7,0,0.7,0,1","1,0.7,0,1,0.7,0,0.7,0,1","1","true",""
"","html-keyboard-response","307","174938","0.0-338.0","3CFJTT4SXUC03XYBN4EXABZUW4U7I2","A24IWWIUPASCQJ","3AQN9REUTF20OMGWRXYK787Q1B1YD0","","null","<img src=""img/food3.png"" style=""width:200px;border:14px solid red;"">","null","","","","","","","","","",""
"","html-keyboard-response","308","176025","0.0-339.0-0.0","3CFJTT4SXUC03XYBN4EXABZUW4U7I2","A24IWWIUPASCQJ","3AQN9REUTF20OMGWRXYK787Q1B1YD0","","","","","","","","","","","","","",""
"","image-keyboard-response","309","176681","0.0-340.0","3CFJTT4SXUC03XYBN4EXABZUW4U7I2","A24IWWIUPASCQJ","3AQN9REUTF20OMGWRXYK787Q1B1YD0","","654","img/food5.png","74","656","1","1","2","2","1,0.7,0,1,0.7,0,0.7,0,1","1,0.7,0,1,0.7,0,0.7,0,1","1","false",""
"","html-keyboard-response","310","176985","0.0-341.0","3CFJTT4SXUC03XYBN4EXABZUW4U7I2","A24IWWIUPASCQJ","3AQN9REUTF20OMGWRXYK787Q1B1YD0","","null","<img src=""img/food5.png"" style=""width:200px; border:14px solid green;"">","null","","","","","","","","","",""
"","image-keyboard-response","311","177988","0.0-343.0","3CFJTT4SXUC03XYBN4EXABZUW4U7I2","A24IWWIUPASCQJ","3AQN9REUTF20OMGWRXYK787Q1B1YD0","","","img/food5.png","","1002","-1","0","2","2","1,0.7,0,1,0.7,0,0.7,0,1","1,0.7,0,1,0.7,0,0.7,0,1","1","true",""
"","html-keyboard-response","312","178294","0.0-344.0","3CFJTT4SXUC03XYBN4EXABZUW4U7I2","A24IWWIUPASCQJ","3AQN9REUTF20OMGWRXYK787Q1B1YD0","","null","<img src=""img/food5.png"" style=""width:200px;border:14px solid red;"">","null","","","","","","","","","",""
"","html-keyboard-response","313","179445","0.0-345.0-0.0","3CFJTT4SXUC03XYBN4EXABZUW4U7I2","A24IWWIUPASCQJ","3AQN9REUTF20OMGWRXYK787Q1B1YD0","","","","","","","","","","","","","",""
"","image-keyboard-response","314","180448","0.0-346.0","3CFJTT4SXUC03XYBN4EXABZUW4U7I2","A24IWWIUPASCQJ","3AQN9REUTF20OMGWRXYK787Q1B1YD0","","","img/food3.png","","1003","-1","0","1","2","1,0.7,0,1,0.7,0,0.7,0,1","1,0.7,0,1,0.7,0,0.7,0,1","1","true",""
"","html-keyboard-response","315","180753","0.0-347.0","3CFJTT4SXUC03XYBN4EXABZUW4U7I2","A24IWWIUPASCQJ","3AQN9REUTF20OMGWRXYK787Q1B1YD0","","null","<img src=""img/food3.png"" style=""width:200px;border:14px solid red;"">","null","","","","","","","","","",""
"","html-keyboard-response","316","182257","0.0-348.0-0.0","3CFJTT4SXUC03XYBN4EXABZUW4U7I2","A24IWWIUPASCQJ","3AQN9REUTF20OMGWRXYK787Q1B1YD0","","","","","","","","","","","","","",""
"","image-keyboard-response","317","183013","0.0-349.0","3CFJTT4SXUC03XYBN4EXABZUW4U7I2","A24IWWIUPASCQJ","3AQN9REUTF20OMGWRXYK787Q1B1YD0","","754","img/food3.png","74","757","1","1","1","2","1,0.7,0,1,0.7,0,0.7,0,1","1,0.7,0,1,0.7,0,0.7,0,1","1","false",""
"","html-keyboard-response","318","183335","0.0-350.0","3CFJTT4SXUC03XYBN4EXABZUW4U7I2","A24IWWIUPASCQJ","3AQN9REUTF20OMGWRXYK787Q1B1YD0","","null","<img src=""img/food3.png"" style=""width:200px; border:14px solid green;"">","null","","","","","","","","","",""
"","image-keyboard-response","319","184337","0.0-352.0","3CFJTT4SXUC03XYBN4EXABZUW4U7I2","A24IWWIUPASCQJ","3AQN9REUTF20OMGWRXYK787Q1B1YD0","","","img/food5.png","","1001","-1","0","2","2","1,0.7,0,1,0.7,0,0.7,0,1","1,0.7,0,1,0.7,0,0.7,0,1","1","true",""
"","html-keyboard-response","320","184640","0.0-353.0","3CFJTT4SXUC03XYBN4EXABZUW4U7I2","A24IWWIUPASCQJ","3AQN9REUTF20OMGWRXYK787Q1B1YD0","","null","<img src=""img/food5.png"" style=""width:200px;border:14px solid red;"">","null","","","","","","","","","",""
"","html-keyboard-response","321","185301","0.0-354.0-0.0","3CFJTT4SXUC03XYBN4EXABZUW4U7I2","A24IWWIUPASCQJ","3AQN9REUTF20OMGWRXYK787Q1B1YD0","","","","","","","","","","","","","",""
"","image-keyboard-response","322","185882","0.0-355.0","3CFJTT4SXUC03XYBN4EXABZUW4U7I2","A24IWWIUPASCQJ","3AQN9REUTF20OMGWRXYK787Q1B1YD0","","580","img/food5.png","75","581","2","1","2","2","1,0.7,0,1,0.7,0,0.7,0,1","1,0.7,0,1,0.7,0,0.7,0,1","1","false",""
"","html-keyboard-response","323","186187","0.0-356.0","3CFJTT4SXUC03XYBN4EXABZUW4U7I2","A24IWWIUPASCQJ","3AQN9REUTF20OMGWRXYK787Q1B1YD0","","null","<img src=""img/food5.png"" style=""width:200px; border:14px solid green;"">","null","","","","","","","","","",""
"","image-keyboard-response","324","187192","0.0-358.0","3CFJTT4SXUC03XYBN4EXABZUW4U7I2","A24IWWIUPASCQJ","3AQN9REUTF20OMGWRXYK787Q1B1YD0","","","img/food4.png","","1004","-1","0","3","2","1,0.7,0,1,0.7,0,0.7,0,1","1,0.7,0,1,0.7,0,0.7,0,1","1","true",""
"","html-keyboard-response","325","187499","0.0-359.0","3CFJTT4SXUC03XYBN4EXABZUW4U7I2","A24IWWIUPASCQJ","3AQN9REUTF20OMGWRXYK787Q1B1YD0","","null","<img src=""img/food4.png"" style=""width:200px;border:14px solid red;"">","null","","","","","","","","","",""
"","html-keyboard-response","326","188579","0.0-360.0-0.0","3CFJTT4SXUC03XYBN4EXABZUW4U7I2","A24IWWIUPASCQJ","3AQN9REUTF20OMGWRXYK787Q1B1YD0","","","","","","","","","","","","","",""
"","image-keyboard-response","327","189360","0.0-361.0","3CFJTT4SXUC03XYBN4EXABZUW4U7I2","A24IWWIUPASCQJ","3AQN9REUTF20OMGWRXYK787Q1B1YD0","","777","img/food5.png","74","781","1","1","2","2","1,0.7,0,1,0.7,0,0.7,0,1","1,0.7,0,1,0.7,0,0.7,0,1","1","false",""
"","html-keyboard-response","328","189667","0.0-362.0","3CFJTT4SXUC03XYBN4EXABZUW4U7I2","A24IWWIUPASCQJ","3AQN9REUTF20OMGWRXYK787Q1B1YD0","","null","<img src=""img/food5.png"" style=""width:200px; border:14px solid green;"">","null","","","","","","","","","",""
"","image-keyboard-response","329","190671","0.0-364.0","3CFJTT4SXUC03XYBN4EXABZUW4U7I2","A24IWWIUPASCQJ","3AQN9REUTF20OMGWRXYK787Q1B1YD0","","","img/food4.png","","1002","-1","0","3","2","1,0.7,0,1,0.7,0,0.7,0,1","1,0.7,0,1,0.7,0,0.7,0,1","1","true",""
"","html-keyboard-response","330","190973","0.0-365.0","3CFJTT4SXUC03XYBN4EXABZUW4U7I2","A24IWWIUPASCQJ","3AQN9REUTF20OMGWRXYK787Q1B1YD0","","null","<img src=""img/food4.png"" style=""width:200px;border:14px solid red;"">","null","","","","","","","","","",""
"","html-keyboard-response","331","192284","0.0-366.0-0.0","3CFJTT4SXUC03XYBN4EXABZUW4U7I2","A24IWWIUPASCQJ","3AQN9REUTF20OMGWRXYK787Q1B1YD0","","","","","","","","","","","","","",""
"","image-keyboard-response","332","192841","0.0-367.0","3CFJTT4SXUC03XYBN4EXABZUW4U7I2","A24IWWIUPASCQJ","3AQN9REUTF20OMGWRXYK787Q1B1YD0","","555","img/food5.png","75","555","2","1","2","2","1,0.7,0,1,0.7,0,0.7,0,1","1,0.7,0,1,0.7,0,0.7,0,1","1","false",""
"","html-keyboard-response","333","193141","0.0-368.0","3CFJTT4SXUC03XYBN4EXABZUW4U7I2","A24IWWIUPASCQJ","3AQN9REUTF20OMGWRXYK787Q1B1YD0","","null","<img src=""img/food5.png"" style=""width:200px; border:14px solid green;"">","null","","","","","","","","","",""
"","image-keyboard-response","334","194144","0.0-370.0","3CFJTT4SXUC03XYBN4EXABZUW4U7I2","A24IWWIUPASCQJ","3AQN9REUTF20OMGWRXYK787Q1B1YD0","","","img/food3.png","","1002","-1","0","1","2","1,0.7,0,1,0.7,0,0.7,0,1","1,0.7,0,1,0.7,0,0.7,0,1","1","true",""
"","html-keyboard-response","335","194447","0.0-371.0","3CFJTT4SXUC03XYBN4EXABZUW4U7I2","A24IWWIUPASCQJ","3AQN9REUTF20OMGWRXYK787Q1B1YD0","","null","<img src=""img/food3.png"" style=""width:200px;border:14px solid red;"">","null","","","","","","","","","",""
"","html-keyboard-response","336","195512","0.0-372.0-0.0","3CFJTT4SXUC03XYBN4EXABZUW4U7I2","A24IWWIUPASCQJ","3AQN9REUTF20OMGWRXYK787Q1B1YD0","","","","","","","","","","","","","",""
"","image-keyboard-response","337","195613","0.0-373.0","3CFJTT4SXUC03XYBN4EXABZUW4U7I2","A24IWWIUPASCQJ","3AQN9REUTF20OMGWRXYK787Q1B1YD0","","95","img/food3.png","74","101","1","1","1","2","1,0.7,0,1,0.7,0,0.7,0,1","1,0.7,0,1,0.7,0,0.7,0,1","1","false",""
"","html-keyboard-response","338","195915","0.0-374.0","3CFJTT4SXUC03XYBN4EXABZUW4U7I2","A24IWWIUPASCQJ","3AQN9REUTF20OMGWRXYK787Q1B1YD0","","null","<img src=""img/food3.png"" style=""width:200px; border:14px solid green;"">","null","","","","","","","","","",""
"","image-keyboard-response","339","196917","0.0-376.0","3CFJTT4SXUC03XYBN4EXABZUW4U7I2","A24IWWIUPASCQJ","3AQN9REUTF20OMGWRXYK787Q1B1YD0","","","img/food3.png","","1001","-1","0","1","2","1,0.7,0,1,0.7,0,0.7,0,1","1,0.7,0,1,0.7,0,0.7,0,1","1","true",""
"","html-keyboard-response","340","197219","0.0-377.0","3CFJTT4SXUC03XYBN4EXABZUW4U7I2","A24IWWIUPASCQJ","3AQN9REUTF20OMGWRXYK787Q1B1YD0","","null","<img src=""img/food3.png"" style=""width:200px;border:14px solid red;"">","null","","","","","","","","","",""
"","html-keyboard-response","341","198286","0.0-378.0-0.0","3CFJTT4SXUC03XYBN4EXABZUW4U7I2","A24IWWIUPASCQJ","3AQN9REUTF20OMGWRXYK787Q1B1YD0","","","","","","","","","","","","","",""
"","image-keyboard-response","342","198322","0.0-379.0","3CFJTT4SXUC03XYBN4EXABZUW4U7I2","A24IWWIUPASCQJ","3AQN9REUTF20OMGWRXYK787Q1B1YD0","","29","img/food5.png","75","34","2","1","2","2","1,0.7,0,1,0.7,0,0.7,0,1","1,0.7,0,1,0.7,0,0.7,0,1","1","false",""
"","html-keyboard-response","343","198632","0.0-380.0","3CFJTT4SXUC03XYBN4EXABZUW4U7I2","A24IWWIUPASCQJ","3AQN9REUTF20OMGWRXYK787Q1B1YD0","","null","<img src=""img/food5.png"" style=""width:200px; border:14px solid green;"">","null","","","","","","","","","",""
"","image-keyboard-response","344","199562","0.0-382.0","3CFJTT4SXUC03XYBN4EXABZUW4U7I2","A24IWWIUPASCQJ","3AQN9REUTF20OMGWRXYK787Q1B1YD0","","926","img/food4.png","74","929","1","1","3","2","1,0.7,0,1,0.7,0,0.7,0,1","1,0.7,0,1,0.7,0,0.7,0,1","1","false",""
"","html-keyboard-response","345","199864","0.0-383.0","3CFJTT4SXUC03XYBN4EXABZUW4U7I2","A24IWWIUPASCQJ","3AQN9REUTF20OMGWRXYK787Q1B1YD0","","null","<img src=""img/food4.png"" style=""width:200px; border:14px solid green;"">","null","","","","","","","","","",""
"","image-keyboard-response","346","200870","0.0-385.0","3CFJTT4SXUC03XYBN4EXABZUW4U7I2","A24IWWIUPASCQJ","3AQN9REUTF20OMGWRXYK787Q1B1YD0","","","img/food3.png","","1005","-1","0","1","2","1,0.7,0,1,0.7,0,0.7,0,1","1,0.7,0,1,0.7,0,0.7,0,1","1","true",""
"","html-keyboard-response","347","201172","0.0-386.0","3CFJTT4SXUC03XYBN4EXABZUW4U7I2","A24IWWIUPASCQJ","3AQN9REUTF20OMGWRXYK787Q1B1YD0","","null","<img src=""img/food3.png"" style=""width:200px;border:14px solid red;"">","null","","","","","","","","","",""
"","html-keyboard-response","348","202071","0.0-387.0-0.0","3CFJTT4SXUC03XYBN4EXABZUW4U7I2","A24IWWIUPASCQJ","3AQN9REUTF20OMGWRXYK787Q1B1YD0","","","","","","","","","","","","","",""
"","image-keyboard-response","349","203075","0.0-388.0","3CFJTT4SXUC03XYBN4EXABZUW4U7I2","A24IWWIUPASCQJ","3AQN9REUTF20OMGWRXYK787Q1B1YD0","","","img/food5.png","","1003","-1","0","2","2","1,0.7,0,1,0.7,0,0.7,0,1","1,0.7,0,1,0.7,0,0.7,0,1","1","true",""
"","html-keyboard-response","350","203413","0.0-389.0","3CFJTT4SXUC03XYBN4EXABZUW4U7I2","A24IWWIUPASCQJ","3AQN9REUTF20OMGWRXYK787Q1B1YD0","","null","<img src=""img/food5.png"" style=""width:200px;border:14px solid red;"">","null","","","","","","","","","",""
"","html-keyboard-response","351","204508","0.0-390.0-0.0","3CFJTT4SXUC03XYBN4EXABZUW4U7I2","A24IWWIUPASCQJ","3AQN9REUTF20OMGWRXYK787Q1B1YD0","","","","","","","","","","","","","",""
"","image-keyboard-response","352","204701","0.0-391.0","3CFJTT4SXUC03XYBN4EXABZUW4U7I2","A24IWWIUPASCQJ","3AQN9REUTF20OMGWRXYK787Q1B1YD0","","182","img/food4.png","75","193","2","0","3","2","1,0.7,0,1,0.7,0,0.7,0,1","1,0.7,0,1,0.7,0,0.7,0,1","1","false",""
"","html-keyboard-response","353","205009","0.0-392.0","3CFJTT4SXUC03XYBN4EXABZUW4U7I2","A24IWWIUPASCQJ","3AQN9REUTF20OMGWRXYK787Q1B1YD0","","null","<img src=""img/food4.png"" style=""width:200px;border:14px solid red;"">","null","","","","","","","","","",""
"","image-keyboard-response","354","205576","0.0-394.0","3CFJTT4SXUC03XYBN4EXABZUW4U7I2","A24IWWIUPASCQJ","3AQN9REUTF20OMGWRXYK787Q1B1YD0","","563","img/food4.png","74","564","1","1","3","2","1,0.7,0,1,0.7,0,0.7,0,1","1,0.7,0,1,0.7,0,0.7,0,1","1","false",""
"","html-keyboard-response","355","205880","0.0-395.0","3CFJTT4SXUC03XYBN4EXABZUW4U7I2","A24IWWIUPASCQJ","3AQN9REUTF20OMGWRXYK787Q1B1YD0","","null","<img src=""img/food4.png"" style=""width:200px; border:14px solid green;"">","null","","","","","","","","","",""
"","image-keyboard-response","356","206881","0.0-397.0","3CFJTT4SXUC03XYBN4EXABZUW4U7I2","A24IWWIUPASCQJ","3AQN9REUTF20OMGWRXYK787Q1B1YD0","","","img/food4.png","","1001","-1","0","3","2","1,0.7,0,1,0.7,0,0.7,0,1","1,0.7,0,1,0.7,0,0.7,0,1","1","true",""
"","html-keyboard-response","357","207184","0.0-398.0","3CFJTT4SXUC03XYBN4EXABZUW4U7I2","A24IWWIUPASCQJ","3AQN9REUTF20OMGWRXYK787Q1B1YD0","","null","<img src=""img/food4.png"" style=""width:200px;border:14px solid red;"">","null","","","","","","","","","",""
"","html-keyboard-response","358","208145","0.0-399.0-0.0","3CFJTT4SXUC03XYBN4EXABZUW4U7I2","A24IWWIUPASCQJ","3AQN9REUTF20OMGWRXYK787Q1B1YD0","","","","","","","","","","","","","",""
"","image-keyboard-response","359","208815","0.0-400.0","3CFJTT4SXUC03XYBN4EXABZUW4U7I2","A24IWWIUPASCQJ","3AQN9REUTF20OMGWRXYK787Q1B1YD0","","664","img/food5.png","75","669","2","0","2","2","1,0.7,0,1,0.7,0,0.7,0,1","1,0.7,0,1,0.7,0,0.7,0,1","1","false",""
"","html-keyboard-response","360","209119","0.0-401.0","3CFJTT4SXUC03XYBN4EXABZUW4U7I2","A24IWWIUPASCQJ","3AQN9REUTF20OMGWRXYK787Q1B1YD0","","null","<img src=""img/food5.png"" style=""width:200px;border:14px solid red;"">","null","","","","","","","","","",""
"","image-keyboard-response","361","209889","0.0-403.0","3CFJTT4SXUC03XYBN4EXABZUW4U7I2","A24IWWIUPASCQJ","3AQN9REUTF20OMGWRXYK787Q1B1YD0","","768","img/food4.png","74","768","1","0","3","2","1,0.7,0,1,0.7,0,0.7,0,1","1,0.7,0,1,0.7,0,0.7,0,1","1","false",""
"","html-keyboard-response","362","210190","0.0-404.0","3CFJTT4SXUC03XYBN4EXABZUW4U7I2","A24IWWIUPASCQJ","3AQN9REUTF20OMGWRXYK787Q1B1YD0","","null","<img src=""img/food4.png"" style=""width:200px;border:14px solid red;"">","null","","","","","","","","","",""
"","image-keyboard-response","363","210995","0.0-406.0","3CFJTT4SXUC03XYBN4EXABZUW4U7I2","A24IWWIUPASCQJ","3AQN9REUTF20OMGWRXYK787Q1B1YD0","","803","img/food3.png","76","805","3","0","1","2","1,0.7,0,1,0.7,0,0.7,0,1","1,0.7,0,1,0.7,0,0.7,0,1","1","false",""
"","html-keyboard-response","364","211298","0.0-407.0","3CFJTT4SXUC03XYBN4EXABZUW4U7I2","A24IWWIUPASCQJ","3AQN9REUTF20OMGWRXYK787Q1B1YD0","","null","<img src=""img/food3.png"" style=""width:200px;border:14px solid red;"">","null","","","","","","","","","",""
"","image-keyboard-response","365","211875","0.0-409.0","3CFJTT4SXUC03XYBN4EXABZUW4U7I2","A24IWWIUPASCQJ","3AQN9REUTF20OMGWRXYK787Q1B1YD0","","574","img/food5.png","75","576","2","0","2","2","1,0.7,0,1,0.7,0,0.7,0,1","1,0.7,0,1,0.7,0,0.7,0,1","1","false",""
"","html-keyboard-response","366","212176","0.0-410.0","3CFJTT4SXUC03XYBN4EXABZUW4U7I2","A24IWWIUPASCQJ","3AQN9REUTF20OMGWRXYK787Q1B1YD0","","null","<img src=""img/food5.png"" style=""width:200px;border:14px solid red;"">","null","","","","","","","","","",""
"","image-keyboard-response","367","212770","0.0-412.0","3CFJTT4SXUC03XYBN4EXABZUW4U7I2","A24IWWIUPASCQJ","3AQN9REUTF20OMGWRXYK787Q1B1YD0","","592","img/food3.png","74","594","1","1","1","2","1,0.7,0,1,0.7,0,0.7,0,1","1,0.7,0,1,0.7,0,0.7,0,1","1","false",""
"","html-keyboard-response","368","213073","0.0-413.0","3CFJTT4SXUC03XYBN4EXABZUW4U7I2","A24IWWIUPASCQJ","3AQN9REUTF20OMGWRXYK787Q1B1YD0","","null","<img src=""img/food3.png"" style=""width:200px; border:14px solid green;"">","null","","","","","","","","","",""
"","image-keyboard-response","369","214077","0.0-415.0","3CFJTT4SXUC03XYBN4EXABZUW4U7I2","A24IWWIUPASCQJ","3AQN9REUTF20OMGWRXYK787Q1B1YD0","","","img/food5.png","","1002","-1","0","2","2","1,0.7,0,1,0.7,0,0.7,0,1","1,0.7,0,1,0.7,0,0.7,0,1","1","true",""
"","html-keyboard-response","370","214382","0.0-416.0","3CFJTT4SXUC03XYBN4EXABZUW4U7I2","A24IWWIUPASCQJ","3AQN9REUTF20OMGWRXYK787Q1B1YD0","","null","<img src=""img/food5.png"" style=""width:200px;border:14px solid red;"">","null","","","","","","","","","",""
"","html-keyboard-response","371","215471","0.0-417.0-0.0","3CFJTT4SXUC03XYBN4EXABZUW4U7I2","A24IWWIUPASCQJ","3AQN9REUTF20OMGWRXYK787Q1B1YD0","","","","","","","","","","","","","",""
"","image-keyboard-response","372","215890","0.0-418.0","3CFJTT4SXUC03XYBN4EXABZUW4U7I2","A24IWWIUPASCQJ","3AQN9REUTF20OMGWRXYK787Q1B1YD0","","417","img/food3.png","74","419","1","1","1","2","1,0.7,0,1,0.7,0,0.7,0,1","1,0.7,0,1,0.7,0,0.7,0,1","1","false",""
"","html-keyboard-response","373","216193","0.0-419.0","3CFJTT4SXUC03XYBN4EXABZUW4U7I2","A24IWWIUPASCQJ","3AQN9REUTF20OMGWRXYK787Q1B1YD0","","null","<img src=""img/food3.png"" style=""width:200px; border:14px solid green;"">","null","","","","","","","","","",""
"","image-keyboard-response","374","217198","0.0-421.0","3CFJTT4SXUC03XYBN4EXABZUW4U7I2","A24IWWIUPASCQJ","3AQN9REUTF20OMGWRXYK787Q1B1YD0","","","img/food4.png","","1005","-1","0","3","2","1,0.7,0,1,0.7,0,0.7,0,1","1,0.7,0,1,0.7,0,0.7,0,1","1","true",""
"","html-keyboard-response","375","217506","0.0-422.0","3CFJTT4SXUC03XYBN4EXABZUW4U7I2","A24IWWIUPASCQJ","3AQN9REUTF20OMGWRXYK787Q1B1YD0","","null","<img src=""img/food4.png"" style=""width:200px;border:14px solid red;"">","null","","","","","","","","","",""
"","html-keyboard-response","376","218487","0.0-423.0-0.0","3CFJTT4SXUC03XYBN4EXABZUW4U7I2","A24IWWIUPASCQJ","3AQN9REUTF20OMGWRXYK787Q1B1YD0","","","","","","","","","","","","","",""
"","image-keyboard-response","377","219013","0.0-424.0","3CFJTT4SXUC03XYBN4EXABZUW4U7I2","A24IWWIUPASCQJ","3AQN9REUTF20OMGWRXYK787Q1B1YD0","","521","img/food3.png","76","526","3","0","1","2","1,0.7,0,1,0.7,0,0.7,0,1","1,0.7,0,1,0.7,0,0.7,0,1","1","false",""
"","html-keyboard-response","378","219318","0.0-425.0","3CFJTT4SXUC03XYBN4EXABZUW4U7I2","A24IWWIUPASCQJ","3AQN9REUTF20OMGWRXYK787Q1B1YD0","","null","<img src=""img/food3.png"" style=""width:200px;border:14px solid red;"">","null","","","","","","","","","",""
"","image-keyboard-response","379","219931","0.0-427.0","3CFJTT4SXUC03XYBN4EXABZUW4U7I2","A24IWWIUPASCQJ","3AQN9REUTF20OMGWRXYK787Q1B1YD0","","611","img/food3.png","75","612","2","1","1","2","1,0.7,0,1,0.7,0,0.7,0,1","1,0.7,0,1,0.7,0,0.7,0,1","1","false",""
"","html-keyboard-response","380","220234","0.0-428.0","3CFJTT4SXUC03XYBN4EXABZUW4U7I2","A24IWWIUPASCQJ","3AQN9REUTF20OMGWRXYK787Q1B1YD0","","null","<img src=""img/food3.png"" style=""width:200px; border:14px solid green;"">","null","","","","","","","","","",""
"","image-keyboard-response","381","221236","0.0-430.0","3CFJTT4SXUC03XYBN4EXABZUW4U7I2","A24IWWIUPASCQJ","3AQN9REUTF20OMGWRXYK787Q1B1YD0","","","img/food5.png","","1002","-1","0","2","2","1,0.7,0,1,0.7,0,0.7,0,1","1,0.7,0,1,0.7,0,0.7,0,1","1","true",""
"","html-keyboard-response","382","221540","0.0-431.0","3CFJTT4SXUC03XYBN4EXABZUW4U7I2","A24IWWIUPASCQJ","3AQN9REUTF20OMGWRXYK787Q1B1YD0","","null","<img src=""img/food5.png"" style=""width:200px;border:14px solid red;"">","null","","","","","","","","","",""
"","html-keyboard-response","383","222475","0.0-432.0-0.0","3CFJTT4SXUC03XYBN4EXABZUW4U7I2","A24IWWIUPASCQJ","3AQN9REUTF20OMGWRXYK787Q1B1YD0","","","","","","","","","","","","","",""
"","image-keyboard-response","384","222881","0.0-433.0","3CFJTT4SXUC03XYBN4EXABZUW4U7I2","A24IWWIUPASCQJ","3AQN9REUTF20OMGWRXYK787Q1B1YD0","","397","img/food3.png","75","404","2","1","1","2","1,0.7,0,1,0.7,0,0.7,0,1","1,0.7,0,1,0.7,0,0.7,0,1","1","false",""
"","html-keyboard-response","385","223183","0.0-434.0","3CFJTT4SXUC03XYBN4EXABZUW4U7I2","A24IWWIUPASCQJ","3AQN9REUTF20OMGWRXYK787Q1B1YD0","","null","<img src=""img/food3.png"" style=""width:200px; border:14px solid green;"">","null","","","","","","","","","",""
"","image-keyboard-response","386","224184","0.0-436.0","3CFJTT4SXUC03XYBN4EXABZUW4U7I2","A24IWWIUPASCQJ","3AQN9REUTF20OMGWRXYK787Q1B1YD0","","","img/food4.png","","1001","-1","0","3","2","1,0.7,0,1,0.7,0,0.7,0,1","1,0.7,0,1,0.7,0,0.7,0,1","1","true",""
"","html-keyboard-response","387","224486","0.0-437.0","3CFJTT4SXUC03XYBN4EXABZUW4U7I2","A24IWWIUPASCQJ","3AQN9REUTF20OMGWRXYK787Q1B1YD0","","null","<img src=""img/food4.png"" style=""width:200px;border:14px solid red;"">","null","","","","","","","","","",""
"","html-keyboard-response","388","225383","0.0-438.0-0.0","3CFJTT4SXUC03XYBN4EXABZUW4U7I2","A24IWWIUPASCQJ","3AQN9REUTF20OMGWRXYK787Q1B1YD0","","","","","","","","","","","","","",""
"","image-keyboard-response","389","225775","0.0-439.0","3CFJTT4SXUC03XYBN4EXABZUW4U7I2","A24IWWIUPASCQJ","3AQN9REUTF20OMGWRXYK787Q1B1YD0","","388","img/food4.png","74","391","1","1","3","2","1,0.7,0,1,0.7,0,0.7,0,1","1,0.7,0,1,0.7,0,0.7,0,1","1","false",""
"","html-keyboard-response","390","226079","0.0-440.0","3CFJTT4SXUC03XYBN4EXABZUW4U7I2","A24IWWIUPASCQJ","3AQN9REUTF20OMGWRXYK787Q1B1YD0","","null","<img src=""img/food4.png"" style=""width:200px; border:14px solid green;"">","null","","","","","","","","","",""
"","image-keyboard-response","391","226896","0.0-442.0","3CFJTT4SXUC03XYBN4EXABZUW4U7I2","A24IWWIUPASCQJ","3AQN9REUTF20OMGWRXYK787Q1B1YD0","","815","img/food5.png","75","816","2","1","2","2","1,0.7,0,1,0.7,0,0.7,0,1","1,0.7,0,1,0.7,0,0.7,0,1","1","false",""
"","html-keyboard-response","392","227202","0.0-443.0","3CFJTT4SXUC03XYBN4EXABZUW4U7I2","A24IWWIUPASCQJ","3AQN9REUTF20OMGWRXYK787Q1B1YD0","","null","<img src=""img/food5.png"" style=""width:200px; border:14px solid green;"">","null","","","","","","","","","",""
"","image-keyboard-response","393","227789","0.0-445.0","3CFJTT4SXUC03XYBN4EXABZUW4U7I2","A24IWWIUPASCQJ","3AQN9REUTF20OMGWRXYK787Q1B1YD0","","583","img/food4.png","74","585","1","0","3","2","1,0.7,0,1,0.7,0,0.7,0,1","1,0.7,0,1,0.7,0,0.7,0,1","1","false",""
"","html-keyboard-response","394","228091","0.0-446.0","3CFJTT4SXUC03XYBN4EXABZUW4U7I2","A24IWWIUPASCQJ","3AQN9REUTF20OMGWRXYK787Q1B1YD0","","null","<img src=""img/food4.png"" style=""width:200px;border:14px solid red;"">","null","","","","","","","","","",""
"","image-keyboard-response","395","229077","0.0-448.0","3CFJTT4SXUC03XYBN4EXABZUW4U7I2","A24IWWIUPASCQJ","3AQN9REUTF20OMGWRXYK787Q1B1YD0","","978","img/food3.png","75","986","2","1","1","2","1,0.7,0,1,0.7,0,0.7,0,1","1,0.7,0,1,0.7,0,0.7,0,1","1","false",""
"","html-keyboard-response","396","229422","0.0-449.0","3CFJTT4SXUC03XYBN4EXABZUW4U7I2","A24IWWIUPASCQJ","3AQN9REUTF20OMGWRXYK787Q1B1YD0","","null","<img src=""img/food3.png"" style=""width:200px; border:14px solid green;"">","null","","","","","","","","","",""
"","image-keyboard-response","397","229905","0.0-451.0","3CFJTT4SXUC03XYBN4EXABZUW4U7I2","A24IWWIUPASCQJ","3AQN9REUTF20OMGWRXYK787Q1B1YD0","","482","img/food4.png","76","483","3","1","3","2","1,0.7,0,1,0.7,0,0.7,0,1","1,0.7,0,1,0.7,0,0.7,0,1","1","false",""
