"success","trial_type","trial_index","time_elapsed","internal_node_id","assignmentID","mturkID","hitID","view_history","rt","stimulus","key_press","reactionTime","a","r","s","cond","reward_cond","reward_cond_actual","reward_matrix_idx","warning","responses"
"true","fullscreen","0","2626","0.0-0.0","3SITXWYCNWVKV4QWZ7QEIN8537PXBE","A24LB89P1BPKKF","3THR0FZ95PF7SK0MYRNAOUHTWA4OLV","","","","","","","","","","","","","",""
"","instructions","1","18802","0.0-1.0","3SITXWYCNWVKV4QWZ7QEIN8537PXBE","A24LB89P1BPKKF","3THR0FZ95PF7SK0MYRNAOUHTWA4OLV","[{""page_index"":0,""viewing_time"":3771.2000000476837},{""page_index"":1,""viewing_time"":1336},{""page_index"":2,""viewing_time"":1120},{""page_index"":3,""viewing_time"":2465.7999999523163},{""page_index"":4,""viewing_time"":3240.300000011921},{""page_index"":5,""viewing_time"":3234},{""page_index"":6,""viewing_time"":1003.9000000357628}]","16172.100000023842","","","","","","","","","","","",""
"","image-keyboard-response","2","20216","0.0-2.0","3SITXWYCNWVKV4QWZ7QEIN8537PXBE","A24LB89P1BPKKF","3THR0FZ95PF7SK0MYRNAOUHTWA4OLV","","1411.5","img/food6.png","74","1413.6000000238419","1","0","3","1","1,0.7,0,1,0.7,0,0.7,0,1","0.7,0,1,0.7,0,1,0,1,0.7","2","",""
"","html-keyboard-response","3","20535","0.0-3.0","3SITXWYCNWVKV4QWZ7QEIN8537PXBE","A24LB89P1BPKKF","3THR0FZ95PF7SK0MYRNAOUHTWA4OLV","","null","<img src=""img/food6.png"" style=""width:200px;border:14px solid red;"">","null","","","","","","","","","",""
"","image-keyboard-response","4","21333","0.0-4.0","3SITXWYCNWVKV4QWZ7QEIN8537PXBE","A24LB89P1BPKKF","3THR0FZ95PF7SK0MYRNAOUHTWA4OLV","","795.1999999880791","img/food4.png","74","796.9000000357628","1","1","1","1","1,0.7,0,1,0.7,0,0.7,0,1","0.7,0,1,0.7,0,1,0,1,0.7","2","",""
"","html-keyboard-response","5","21646","0.0-5.0","3SITXWYCNWVKV4QWZ7QEIN8537PXBE","A24LB89P1BPKKF","3THR0FZ95PF7SK0MYRNAOUHTWA4OLV","","null","<img src=""img/food4.png"" style=""width:200px; border:14px solid green;"">","null","","","","","","","","","",""
"","image-keyboard-response","6","22629","0.0-6.0","3SITXWYCNWVKV4QWZ7QEIN8537PXBE","A24LB89P1BPKKF","3THR0FZ95PF7SK0MYRNAOUHTWA4OLV","","980.8999999761581","img/food6.png","75","982.5","2","1","3","1","1,0.7,0,1,0.7,0,0.7,0,1","0.7,0,1,0.7,0,1,0,1,0.7","2","",""
"","html-keyboard-response","7","22937","0.0-7.0","3SITXWYCNWVKV4QWZ7QEIN8537PXBE","A24LB89P1BPKKF","3THR0FZ95PF7SK0MYRNAOUHTWA4OLV","","null","<img src=""img/food6.png"" style=""width:200px; border:14px solid green;"">","null","","","","","","","","","",""
"","image-keyboard-response","8","23320","0.0-8.0","3SITXWYCNWVKV4QWZ7QEIN8537PXBE","A24LB89P1BPKKF","3THR0FZ95PF7SK0MYRNAOUHTWA4OLV","","381.10000002384186","img/food6.png","75","382.60000002384186","2","1","3","1","1,0.7,0,1,0.7,0,0.7,0,1","0.7,0,1,0.7,0,1,0,1,0.7","2","",""
"","html-keyboard-response","9","23634","0.0-9.0","3SITXWYCNWVKV4QWZ7QEIN8537PXBE","A24LB89P1BPKKF","3THR0FZ95PF7SK0MYRNAOUHTWA4OLV","","null","<img src=""img/food6.png"" style=""width:200px; border:14px solid green;"">","null","","","","","","","","","",""
"","image-keyboard-response","10","24207","0.0-10.0","3SITXWYCNWVKV4QWZ7QEIN8537PXBE","A24LB89P1BPKKF","3THR0FZ95PF7SK0MYRNAOUHTWA4OLV","","569.5999999642372","img/food4.png","74","572.6999999880791","1","1","1","1","1,0.7,0,1,0.7,0,0.7,0,1","0.7,0,1,0.7,0,1,0,1,0.7","2","",""
"","html-keyboard-response","11","24515","0.0-11.0","3SITXWYCNWVKV4QWZ7QEIN8537PXBE","A24LB89P1BPKKF","3THR0FZ95PF7SK0MYRNAOUHTWA4OLV","","null","<img src=""img/food4.png"" style=""width:200px; border:14px solid green;"">","null","","","","","","","","","",""
"","image-keyboard-response","12","25554","0.0-12.0","3SITXWYCNWVKV4QWZ7QEIN8537PXBE","A24LB89P1BPKKF","3THR0FZ95PF7SK0MYRNAOUHTWA4OLV","","1037","img/food6.png","75","1039.1000000238419","2","1","3","1","1,0.7,0,1,0.7,0,0.7,0,1","0.7,0,1,0.7,0,1,0,1,0.7","2","",""
"","html-keyboard-response","13","25858","0.0-13.0","3SITXWYCNWVKV4QWZ7QEIN8537PXBE","A24LB89P1BPKKF","3THR0FZ95PF7SK0MYRNAOUHTWA4OLV","","null","<img src=""img/food6.png"" style=""width:200px; border:14px solid green;"">","null","","","","","","","","","",""
"","image-keyboard-response","14","26736","0.0-14.0","3SITXWYCNWVKV4QWZ7QEIN8537PXBE","A24LB89P1BPKKF","3THR0FZ95PF7SK0MYRNAOUHTWA4OLV","","876.3000000119209","img/food3.png","76","877.8000000119209","3","1","2","1","1,0.7,0,1,0.7,0,0.7,0,1","0.7,0,1,0.7,0,1,0,1,0.7","2","",""
"","html-keyboard-response","15","27051","0.0-15.0","3SITXWYCNWVKV4QWZ7QEIN8537PXBE","A24LB89P1BPKKF","3THR0FZ95PF7SK0MYRNAOUHTWA4OLV","","null","<img src=""img/food3.png"" style=""width:200px; border:14px solid green;"">","null","","","","","","","","","",""
"","image-keyboard-response","16","28039","0.0-16.0","3SITXWYCNWVKV4QWZ7QEIN8537PXBE","A24LB89P1BPKKF","3THR0FZ95PF7SK0MYRNAOUHTWA4OLV","","986.5999999642372","img/food6.png","75","988","2","1","3","1","1,0.7,0,1,0.7,0,0.7,0,1","0.7,0,1,0.7,0,1,0,1,0.7","2","",""
"","html-keyboard-response","17","28343","0.0-17.0","3SITXWYCNWVKV4QWZ7QEIN8537PXBE","A24LB89P1BPKKF","3THR0FZ95PF7SK0MYRNAOUHTWA4OLV","","null","<img src=""img/food6.png"" style=""width:200px; border:14px solid green;"">","null","","","","","","","","","",""
"","image-keyboard-response","18","28798","0.0-18.0","3SITXWYCNWVKV4QWZ7QEIN8537PXBE","A24LB89P1BPKKF","3THR0FZ95PF7SK0MYRNAOUHTWA4OLV","","451.7999999523163","img/food4.png","76","454","3","1","1","1","1,0.7,0,1,0.7,0,0.7,0,1","0.7,0,1,0.7,0,1,0,1,0.7","2","",""
"","html-keyboard-response","19","29101","0.0-19.0","3SITXWYCNWVKV4QWZ7QEIN8537PXBE","A24LB89P1BPKKF","3THR0FZ95PF7SK0MYRNAOUHTWA4OLV","","null","<img src=""img/food4.png"" style=""width:200px; border:14px solid green;"">","null","","","","","","","","","",""
"","image-keyboard-response","20","30303","0.0-20.0","3SITXWYCNWVKV4QWZ7QEIN8537PXBE","A24LB89P1BPKKF","3THR0FZ95PF7SK0MYRNAOUHTWA4OLV","","1199.6000000238419","img/food4.png","74","1201.6000000238419","1","0","1","1","1,0.7,0,1,0.7,0,0.7,0,1","0.7,0,1,0.7,0,1,0,1,0.7","2","",""
"","html-keyboard-response","21","30606","0.0-21.0","3SITXWYCNWVKV4QWZ7QEIN8537PXBE","A24LB89P1BPKKF","3THR0FZ95PF7SK0MYRNAOUHTWA4OLV","","null","<img src=""img/food4.png"" style=""width:200px;border:14px solid red;"">","null","","","","","","","","","",""
"","image-keyboard-response","22","31531","0.0-22.0","3SITXWYCNWVKV4QWZ7QEIN8537PXBE","A24LB89P1BPKKF","3THR0FZ95PF7SK0MYRNAOUHTWA4OLV","","922.5","img/food6.png","75","924.3000000119209","2","1","3","1","1,0.7,0,1,0.7,0,0.7,0,1","0.7,0,1,0.7,0,1,0,1,0.7","2","",""
"","html-keyboard-response","23","31834","0.0-23.0","3SITXWYCNWVKV4QWZ7QEIN8537PXBE","A24LB89P1BPKKF","3THR0FZ95PF7SK0MYRNAOUHTWA4OLV","","null","<img src=""img/food6.png"" style=""width:200px; border:14px solid green;"">","null","","","","","","","","","",""
"","image-keyboard-response","24","32156","0.0-24.0","3SITXWYCNWVKV4QWZ7QEIN8537PXBE","A24LB89P1BPKKF","3THR0FZ95PF7SK0MYRNAOUHTWA4OLV","","320","img/food6.png","75","321.5","2","1","3","1","1,0.7,0,1,0.7,0,0.7,0,1","0.7,0,1,0.7,0,1,0,1,0.7","2","",""
"","html-keyboard-response","25","32459","0.0-25.0","3SITXWYCNWVKV4QWZ7QEIN8537PXBE","A24LB89P1BPKKF","3THR0FZ95PF7SK0MYRNAOUHTWA4OLV","","null","<img src=""img/food6.png"" style=""width:200px; border:14px solid green;"">","null","","","","","","","","","",""
"","image-keyboard-response","26","33313","0.0-26.0","3SITXWYCNWVKV4QWZ7QEIN8537PXBE","A24LB89P1BPKKF","3THR0FZ95PF7SK0MYRNAOUHTWA4OLV","","851.6999999880791","img/food3.png","76","853","3","1","2","1","1,0.7,0,1,0.7,0,0.7,0,1","0.7,0,1,0.7,0,1,0,1,0.7","2","",""
"","html-keyboard-response","27","33616","0.0-27.0","3SITXWYCNWVKV4QWZ7QEIN8537PXBE","A24LB89P1BPKKF","3THR0FZ95PF7SK0MYRNAOUHTWA4OLV","","null","<img src=""img/food3.png"" style=""width:200px; border:14px solid green;"">","null","","","","","","","","","",""
"","image-keyboard-response","28","34289","0.0-28.0","3SITXWYCNWVKV4QWZ7QEIN8537PXBE","A24LB89P1BPKKF","3THR0FZ95PF7SK0MYRNAOUHTWA4OLV","","669.9000000357628","img/food4.png","74","672","1","1","1","1","1,0.7,0,1,0.7,0,0.7,0,1","0.7,0,1,0.7,0,1,0,1,0.7","2","",""
"","html-keyboard-response","29","34592","0.0-29.0","3SITXWYCNWVKV4QWZ7QEIN8537PXBE","A24LB89P1BPKKF","3THR0FZ95PF7SK0MYRNAOUHTWA4OLV","","null","<img src=""img/food4.png"" style=""width:200px; border:14px solid green;"">","null","","","","","","","","","",""
"","image-keyboard-response","30","34914","0.0-30.0","3SITXWYCNWVKV4QWZ7QEIN8537PXBE","A24LB89P1BPKKF","3THR0FZ95PF7SK0MYRNAOUHTWA4OLV","","319.39999997615814","img/food4.png","74","321.5999999642372","1","0","1","1","1,0.7,0,1,0.7,0,0.7,0,1","0.7,0,1,0.7,0,1,0,1,0.7","2","",""
"","html-keyboard-response","31","35217","0.0-31.0","3SITXWYCNWVKV4QWZ7QEIN8537PXBE","A24LB89P1BPKKF","3THR0FZ95PF7SK0MYRNAOUHTWA4OLV","","null","<img src=""img/food4.png"" style=""width:200px;border:14px solid red;"">","null","","","","","","","","","",""
"","image-keyboard-response","32","35584","0.0-32.0","3SITXWYCNWVKV4QWZ7QEIN8537PXBE","A24LB89P1BPKKF","3THR0FZ95PF7SK0MYRNAOUHTWA4OLV","","364.80000001192093","img/food4.png","74","367.2999999523163","1","1","1","1","1,0.7,0,1,0.7,0,0.7,0,1","0.7,0,1,0.7,0,1,0,1,0.7","2","",""
"","html-keyboard-response","33","35889","0.0-33.0","3SITXWYCNWVKV4QWZ7QEIN8537PXBE","A24LB89P1BPKKF","3THR0FZ95PF7SK0MYRNAOUHTWA4OLV","","null","<img src=""img/food4.png"" style=""width:200px; border:14px solid green;"">","null","","","","","","","","","",""
"","image-keyboard-response","34","36247","0.0-34.0","3SITXWYCNWVKV4QWZ7QEIN8537PXBE","A24LB89P1BPKKF","3THR0FZ95PF7SK0MYRNAOUHTWA4OLV","","355.69999998807907","img/food4.png","74","358","1","1","1","1","1,0.7,0,1,0.7,0,0.7,0,1","0.7,0,1,0.7,0,1,0,1,0.7","2","",""
"","html-keyboard-response","35","36565","0.0-35.0","3SITXWYCNWVKV4QWZ7QEIN8537PXBE","A24LB89P1BPKKF","3THR0FZ95PF7SK0MYRNAOUHTWA4OLV","","null","<img src=""img/food4.png"" style=""width:200px; border:14px solid green;"">","null","","","","","","","","","",""
"","image-keyboard-response","36","37450","0.0-36.0","3SITXWYCNWVKV4QWZ7QEIN8537PXBE","A24LB89P1BPKKF","3THR0FZ95PF7SK0MYRNAOUHTWA4OLV","","882.6999999880791","img/food3.png","76","884.3000000119209","3","1","2","1","1,0.7,0,1,0.7,0,0.7,0,1","0.7,0,1,0.7,0,1,0,1,0.7","2","",""
"","html-keyboard-response","37","37752","0.0-37.0","3SITXWYCNWVKV4QWZ7QEIN8537PXBE","A24LB89P1BPKKF","3THR0FZ95PF7SK0MYRNAOUHTWA4OLV","","null","<img src=""img/food3.png"" style=""width:200px; border:14px solid green;"">","null","","","","","","","","","",""
"","image-keyboard-response","38","38301","0.0-38.0","3SITXWYCNWVKV4QWZ7QEIN8537PXBE","A24LB89P1BPKKF","3THR0FZ95PF7SK0MYRNAOUHTWA4OLV","","547.3999999761581","img/food4.png","74","548.6999999880791","1","1","1","1","1,0.7,0,1,0.7,0,0.7,0,1","0.7,0,1,0.7,0,1,0,1,0.7","2","",""
"","html-keyboard-response","39","38604","0.0-39.0","3SITXWYCNWVKV4QWZ7QEIN8537PXBE","A24LB89P1BPKKF","3THR0FZ95PF7SK0MYRNAOUHTWA4OLV","","null","<img src=""img/food4.png"" style=""width:200px; border:14px solid green;"">","null","","","","","","","","","",""
"","image-keyboard-response","40","39429","0.0-40.0","3SITXWYCNWVKV4QWZ7QEIN8537PXBE","A24LB89P1BPKKF","3THR0FZ95PF7SK0MYRNAOUHTWA4OLV","","823.1999999880791","img/food3.png","76","824.8000000119209","3","1","2","1","1,0.7,0,1,0.7,0,0.7,0,1","0.7,0,1,0.7,0,1,0,1,0.7","2","",""
"","html-keyboard-response","41","39732","0.0-41.0","3SITXWYCNWVKV4QWZ7QEIN8537PXBE","A24LB89P1BPKKF","3THR0FZ95PF7SK0MYRNAOUHTWA4OLV","","null","<img src=""img/food3.png"" style=""width:200px; border:14px solid green;"">","null","","","","","","","","","",""
"","image-keyboard-response","42","40209","0.0-42.0","3SITXWYCNWVKV4QWZ7QEIN8537PXBE","A24LB89P1BPKKF","3THR0FZ95PF7SK0MYRNAOUHTWA4OLV","","474.9000000357628","img/food4.png","74","476.69999998807907","1","1","1","1","1,0.7,0,1,0.7,0,0.7,0,1","0.7,0,1,0.7,0,1,0,1,0.7","2","",""
"","html-keyboard-response","43","40525","0.0-43.0","3SITXWYCNWVKV4QWZ7QEIN8537PXBE","A24LB89P1BPKKF","3THR0FZ95PF7SK0MYRNAOUHTWA4OLV","","null","<img src=""img/food4.png"" style=""width:200px; border:14px solid green;"">","null","","","","","","","","","",""
"","image-keyboard-response","44","40841","0.0-44.0","3SITXWYCNWVKV4QWZ7QEIN8537PXBE","A24LB89P1BPKKF","3THR0FZ95PF7SK0MYRNAOUHTWA4OLV","","314.2999999523163","img/food4.png","74","316.4000000357628","1","1","1","1","1,0.7,0,1,0.7,0,0.7,0,1","0.7,0,1,0.7,0,1,0,1,0.7","2","",""
"","html-keyboard-response","45","41144","0.0-45.0","3SITXWYCNWVKV4QWZ7QEIN8537PXBE","A24LB89P1BPKKF","3THR0FZ95PF7SK0MYRNAOUHTWA4OLV","","null","<img src=""img/food4.png"" style=""width:200px; border:14px solid green;"">","null","","","","","","","","","",""
"","image-keyboard-response","46","41693","0.0-46.0","3SITXWYCNWVKV4QWZ7QEIN8537PXBE","A24LB89P1BPKKF","3THR0FZ95PF7SK0MYRNAOUHTWA4OLV","","545.9000000357628","img/food3.png","76","548","3","1","2","1","1,0.7,0,1,0.7,0,0.7,0,1","0.7,0,1,0.7,0,1,0,1,0.7","2","",""
"","html-keyboard-response","47","41996","0.0-47.0","3SITXWYCNWVKV4QWZ7QEIN8537PXBE","A24LB89P1BPKKF","3THR0FZ95PF7SK0MYRNAOUHTWA4OLV","","null","<img src=""img/food3.png"" style=""width:200px; border:14px solid green;"">","null","","","","","","","","","",""
"","image-keyboard-response","48","42502","0.0-48.0","3SITXWYCNWVKV4QWZ7QEIN8537PXBE","A24LB89P1BPKKF","3THR0FZ95PF7SK0MYRNAOUHTWA4OLV","","503.4000000357628","img/food6.png","75","505.5","2","1","3","1","1,0.7,0,1,0.7,0,0.7,0,1","0.7,0,1,0.7,0,1,0,1,0.7","2","",""
"","html-keyboard-response","49","42805","0.0-49.0","3SITXWYCNWVKV4QWZ7QEIN8537PXBE","A24LB89P1BPKKF","3THR0FZ95PF7SK0MYRNAOUHTWA4OLV","","null","<img src=""img/food6.png"" style=""width:200px; border:14px solid green;"">","null","","","","","","","","","",""
"","image-keyboard-response","50","43638","0.0-50.0","3SITXWYCNWVKV4QWZ7QEIN8537PXBE","A24LB89P1BPKKF","3THR0FZ95PF7SK0MYRNAOUHTWA4OLV","","830.5","img/food3.png","76","832.5","3","1","2","1","1,0.7,0,1,0.7,0,0.7,0,1","0.7,0,1,0.7,0,1,0,1,0.7","2","",""
"","html-keyboard-response","51","43942","0.0-51.0","3SITXWYCNWVKV4QWZ7QEIN8537PXBE","A24LB89P1BPKKF","3THR0FZ95PF7SK0MYRNAOUHTWA4OLV","","null","<img src=""img/food3.png"" style=""width:200px; border:14px solid green;"">","null","","","","","","","","","",""
"","image-keyboard-response","52","44486","0.0-52.0","3SITXWYCNWVKV4QWZ7QEIN8537PXBE","A24LB89P1BPKKF","3THR0FZ95PF7SK0MYRNAOUHTWA4OLV","","541.6999999880791","img/food6.png","75","543.1999999880791","2","1","3","1","1,0.7,0,1,0.7,0,0.7,0,1","0.7,0,1,0.7,0,1,0,1,0.7","2","",""
"","html-keyboard-response","53","44787","0.0-53.0","3SITXWYCNWVKV4QWZ7QEIN8537PXBE","A24LB89P1BPKKF","3THR0FZ95PF7SK0MYRNAOUHTWA4OLV","","null","<img src=""img/food6.png"" style=""width:200px; border:14px solid green;"">","null","","","","","","","","","",""
"","image-keyboard-response","54","45142","0.0-54.0","3SITXWYCNWVKV4QWZ7QEIN8537PXBE","A24LB89P1BPKKF","3THR0FZ95PF7SK0MYRNAOUHTWA4OLV","","353.89999997615814","img/food6.png","75","355.10000002384186","2","1","3","1","1,0.7,0,1,0.7,0,0.7,0,1","0.7,0,1,0.7,0,1,0,1,0.7","2","",""
"","html-keyboard-response","55","45445","0.0-55.0","3SITXWYCNWVKV4QWZ7QEIN8537PXBE","A24LB89P1BPKKF","3THR0FZ95PF7SK0MYRNAOUHTWA4OLV","","null","<img src=""img/food6.png"" style=""width:200px; border:14px solid green;"">","null","","","","","","","","","",""
"","image-keyboard-response","56","45772","0.0-56.0","3SITXWYCNWVKV4QWZ7QEIN8537PXBE","A24LB89P1BPKKF","3THR0FZ95PF7SK0MYRNAOUHTWA4OLV","","324.2999999523163","img/food6.png","75","326.19999998807907","2","1","3","1","1,0.7,0,1,0.7,0,0.7,0,1","0.7,0,1,0.7,0,1,0,1,0.7","2","",""
"","html-keyboard-response","57","46074","0.0-57.0","3SITXWYCNWVKV4QWZ7QEIN8537PXBE","A24LB89P1BPKKF","3THR0FZ95PF7SK0MYRNAOUHTWA4OLV","","null","<img src=""img/food6.png"" style=""width:200px; border:14px solid green;"">","null","","","","","","","","","",""
"","image-keyboard-response","58","46380","0.0-58.0","3SITXWYCNWVKV4QWZ7QEIN8537PXBE","A24LB89P1BPKKF","3THR0FZ95PF7SK0MYRNAOUHTWA4OLV","","303.39999997615814","img/food6.png","75","305","2","1","3","1","1,0.7,0,1,0.7,0,0.7,0,1","0.7,0,1,0.7,0,1,0,1,0.7","2","",""
"","html-keyboard-response","59","46683","0.0-59.0","3SITXWYCNWVKV4QWZ7QEIN8537PXBE","A24LB89P1BPKKF","3THR0FZ95PF7SK0MYRNAOUHTWA4OLV","","null","<img src=""img/food6.png"" style=""width:200px; border:14px solid green;"">","null","","","","","","","","","",""
"","image-keyboard-response","60","47705","0.0-60.0","3SITXWYCNWVKV4QWZ7QEIN8537PXBE","A24LB89P1BPKKF","3THR0FZ95PF7SK0MYRNAOUHTWA4OLV","","1019","img/food3.png","76","1021.8000000119209","3","1","2","1","1,0.7,0,1,0.7,0,0.7,0,1","0.7,0,1,0.7,0,1,0,1,0.7","2","",""
"","html-keyboard-response","61","48008","0.0-61.0","3SITXWYCNWVKV4QWZ7QEIN8537PXBE","A24LB89P1BPKKF","3THR0FZ95PF7SK0MYRNAOUHTWA4OLV","","null","<img src=""img/food3.png"" style=""width:200px; border:14px solid green;"">","null","","","","","","","","","",""
"","image-keyboard-response","62","48317","0.0-62.0","3SITXWYCNWVKV4QWZ7QEIN8537PXBE","A24LB89P1BPKKF","3THR0FZ95PF7SK0MYRNAOUHTWA4OLV","","306.39999997615814","img/food3.png","76","308.80000001192093","3","1","2","1","1,0.7,0,1,0.7,0,0.7,0,1","0.7,0,1,0.7,0,1,0,1,0.7","2","",""
"","html-keyboard-response","63","48631","0.0-63.0","3SITXWYCNWVKV4QWZ7QEIN8537PXBE","A24LB89P1BPKKF","3THR0FZ95PF7SK0MYRNAOUHTWA4OLV","","null","<img src=""img/food3.png"" style=""width:200px; border:14px solid green;"">","null","","","","","","","","","",""
"","image-keyboard-response","64","48941","0.0-64.0","3SITXWYCNWVKV4QWZ7QEIN8537PXBE","A24LB89P1BPKKF","3THR0FZ95PF7SK0MYRNAOUHTWA4OLV","","308.10000002384186","img/food3.png","76","310.30000001192093","3","1","2","1","1,0.7,0,1,0.7,0,0.7,0,1","0.7,0,1,0.7,0,1,0,1,0.7","2","",""
"","html-keyboard-response","65","49246","0.0-65.0","3SITXWYCNWVKV4QWZ7QEIN8537PXBE","A24LB89P1BPKKF","3THR0FZ95PF7SK0MYRNAOUHTWA4OLV","","null","<img src=""img/food3.png"" style=""width:200px; border:14px solid green;"">","null","","","","","","","","","",""
"","image-keyboard-response","66","49847","0.0-66.0","3SITXWYCNWVKV4QWZ7QEIN8537PXBE","A24LB89P1BPKKF","3THR0FZ95PF7SK0MYRNAOUHTWA4OLV","","598.5","img/food4.png","74","600.5","1","0","1","1","1,0.7,0,1,0.7,0,0.7,0,1","0.7,0,1,0.7,0,1,0,1,0.7","2","",""
"","html-keyboard-response","67","50149","0.0-67.0","3SITXWYCNWVKV4QWZ7QEIN8537PXBE","A24LB89P1BPKKF","3THR0FZ95PF7SK0MYRNAOUHTWA4OLV","","null","<img src=""img/food4.png"" style=""width:200px;border:14px solid red;"">","null","","","","","","","","","",""
"","image-keyboard-response","68","50736","0.0-68.0","3SITXWYCNWVKV4QWZ7QEIN8537PXBE","A24LB89P1BPKKF","3THR0FZ95PF7SK0MYRNAOUHTWA4OLV","","584.1000000238419","img/food3.png","76","586.1999999880791","3","1","2","1","1,0.7,0,1,0.7,0,0.7,0,1","0.7,0,1,0.7,0,1,0,1,0.7","2","",""
"","html-keyboard-response","69","51039","0.0-69.0","3SITXWYCNWVKV4QWZ7QEIN8537PXBE","A24LB89P1BPKKF","3THR0FZ95PF7SK0MYRNAOUHTWA4OLV","","null","<img src=""img/food3.png"" style=""width:200px; border:14px solid green;"">","null","","","","","","","","","",""
"","image-keyboard-response","70","51423","0.0-70.0","3SITXWYCNWVKV4QWZ7QEIN8537PXBE","A24LB89P1BPKKF","3THR0FZ95PF7SK0MYRNAOUHTWA4OLV","","381.89999997615814","img/food3.png","76","383.39999997615814","3","1","2","1","1,0.7,0,1,0.7,0,0.7,0,1","0.7,0,1,0.7,0,1,0,1,0.7","2","",""
"","html-keyboard-response","71","51733","0.0-71.0","3SITXWYCNWVKV4QWZ7QEIN8537PXBE","A24LB89P1BPKKF","3THR0FZ95PF7SK0MYRNAOUHTWA4OLV","","null","<img src=""img/food3.png"" style=""width:200px; border:14px solid green;"">","null","","","","","","","","","",""
"","image-keyboard-response","72","52246","0.0-72.0","3SITXWYCNWVKV4QWZ7QEIN8537PXBE","A24LB89P1BPKKF","3THR0FZ95PF7SK0MYRNAOUHTWA4OLV","","510.80000001192093","img/food6.png","75","512.8999999761581","2","1","3","1","1,0.7,0,1,0.7,0,0.7,0,1","0.7,0,1,0.7,0,1,0,1,0.7","2","",""
"","html-keyboard-response","73","52548","0.0-73.0","3SITXWYCNWVKV4QWZ7QEIN8537PXBE","A24LB89P1BPKKF","3THR0FZ95PF7SK0MYRNAOUHTWA4OLV","","null","<img src=""img/food6.png"" style=""width:200px; border:14px solid green;"">","null","","","","","","","","","",""
"","image-keyboard-response","74","53125","0.0-74.0","3SITXWYCNWVKV4QWZ7QEIN8537PXBE","A24LB89P1BPKKF","3THR0FZ95PF7SK0MYRNAOUHTWA4OLV","","574.6999999880791","img/food4.png","74","576.3000000119209","1","1","1","1","1,0.7,0,1,0.7,0,0.7,0,1","0.7,0,1,0.7,0,1,0,1,0.7","2","",""
"","html-keyboard-response","75","53428","0.0-75.0","3SITXWYCNWVKV4QWZ7QEIN8537PXBE","A24LB89P1BPKKF","3THR0FZ95PF7SK0MYRNAOUHTWA4OLV","","null","<img src=""img/food4.png"" style=""width:200px; border:14px solid green;"">","null","","","","","","","","","",""
"","image-keyboard-response","76","54112","0.0-76.0","3SITXWYCNWVKV4QWZ7QEIN8537PXBE","A24LB89P1BPKKF","3THR0FZ95PF7SK0MYRNAOUHTWA4OLV","","681.5","img/food6.png","75","683.1000000238419","2","1","3","1","1,0.7,0,1,0.7,0,0.7,0,1","0.7,0,1,0.7,0,1,0,1,0.7","2","",""
"","html-keyboard-response","77","54416","0.0-77.0","3SITXWYCNWVKV4QWZ7QEIN8537PXBE","A24LB89P1BPKKF","3THR0FZ95PF7SK0MYRNAOUHTWA4OLV","","null","<img src=""img/food6.png"" style=""width:200px; border:14px solid green;"">","null","","","","","","","","","",""
"","image-keyboard-response","78","54741","0.0-78.0","3SITXWYCNWVKV4QWZ7QEIN8537PXBE","A24LB89P1BPKKF","3THR0FZ95PF7SK0MYRNAOUHTWA4OLV","","323.30000001192093","img/food6.png","75","324.80000001192093","2","1","3","1","1,0.7,0,1,0.7,0,0.7,0,1","0.7,0,1,0.7,0,1,0,1,0.7","2","",""
"","html-keyboard-response","79","55050","0.0-79.0","3SITXWYCNWVKV4QWZ7QEIN8537PXBE","A24LB89P1BPKKF","3THR0FZ95PF7SK0MYRNAOUHTWA4OLV","","null","<img src=""img/food6.png"" style=""width:200px; border:14px solid green;"">","null","","","","","","","","","",""
"","image-keyboard-response","80","55625","0.0-80.0","3SITXWYCNWVKV4QWZ7QEIN8537PXBE","A24LB89P1BPKKF","3THR0FZ95PF7SK0MYRNAOUHTWA4OLV","","572.1999999880791","img/food3.png","76","573.6999999880791","3","1","2","1","1,0.7,0,1,0.7,0,0.7,0,1","0.7,0,1,0.7,0,1,0,1,0.7","2","",""
"","html-keyboard-response","81","55926","0.0-81.0","3SITXWYCNWVKV4QWZ7QEIN8537PXBE","A24LB89P1BPKKF","3THR0FZ95PF7SK0MYRNAOUHTWA4OLV","","null","<img src=""img/food3.png"" style=""width:200px; border:14px solid green;"">","null","","","","","","","","","",""
"","image-keyboard-response","82","56568","0.0-82.0","3SITXWYCNWVKV4QWZ7QEIN8537PXBE","A24LB89P1BPKKF","3THR0FZ95PF7SK0MYRNAOUHTWA4OLV","","639.9000000357628","img/food6.png","75","641.3999999761581","2","1","3","1","1,0.7,0,1,0.7,0,0.7,0,1","0.7,0,1,0.7,0,1,0,1,0.7","2","",""
"","html-keyboard-response","83","56871","0.0-83.0","3SITXWYCNWVKV4QWZ7QEIN8537PXBE","A24LB89P1BPKKF","3THR0FZ95PF7SK0MYRNAOUHTWA4OLV","","null","<img src=""img/food6.png"" style=""width:200px; border:14px solid green;"">","null","","","","","","","","","",""
"","image-keyboard-response","84","57163","0.0-84.0","3SITXWYCNWVKV4QWZ7QEIN8537PXBE","A24LB89P1BPKKF","3THR0FZ95PF7SK0MYRNAOUHTWA4OLV","","289.19999998807907","img/food6.png","75","291","2","1","3","1","1,0.7,0,1,0.7,0,0.7,0,1","0.7,0,1,0.7,0,1,0,1,0.7","2","",""
"","html-keyboard-response","85","57473","0.0-85.0","3SITXWYCNWVKV4QWZ7QEIN8537PXBE","A24LB89P1BPKKF","3THR0FZ95PF7SK0MYRNAOUHTWA4OLV","","null","<img src=""img/food6.png"" style=""width:200px; border:14px solid green;"">","null","","","","","","","","","",""
"","image-keyboard-response","86","57785","0.0-86.0","3SITXWYCNWVKV4QWZ7QEIN8537PXBE","A24LB89P1BPKKF","3THR0FZ95PF7SK0MYRNAOUHTWA4OLV","","310.39999997615814","img/food6.png","75","312.10000002384186","2","1","3","1","1,0.7,0,1,0.7,0,0.7,0,1","0.7,0,1,0.7,0,1,0,1,0.7","2","",""
"","html-keyboard-response","87","58090","0.0-87.0","3SITXWYCNWVKV4QWZ7QEIN8537PXBE","A24LB89P1BPKKF","3THR0FZ95PF7SK0MYRNAOUHTWA4OLV","","null","<img src=""img/food6.png"" style=""width:200px; border:14px solid green;"">","null","","","","","","","","","",""
"","image-keyboard-response","88","58897","0.0-88.0","3SITXWYCNWVKV4QWZ7QEIN8537PXBE","A24LB89P1BPKKF","3THR0FZ95PF7SK0MYRNAOUHTWA4OLV","","804.0999999642372","img/food3.png","76","806.5999999642372","3","1","2","1","1,0.7,0,1,0.7,0,0.7,0,1","0.7,0,1,0.7,0,1,0,1,0.7","2","",""
"","html-keyboard-response","89","59201","0.0-89.0","3SITXWYCNWVKV4QWZ7QEIN8537PXBE","A24LB89P1BPKKF","3THR0FZ95PF7SK0MYRNAOUHTWA4OLV","","null","<img src=""img/food3.png"" style=""width:200px; border:14px solid green;"">","null","","","","","","","","","",""
"","image-keyboard-response","90","59883","0.0-90.0","3SITXWYCNWVKV4QWZ7QEIN8537PXBE","A24LB89P1BPKKF","3THR0FZ95PF7SK0MYRNAOUHTWA4OLV","","679.8000000119209","img/food4.png","76","681.8999999761581","3","1","1","1","1,0.7,0,1,0.7,0,0.7,0,1","0.7,0,1,0.7,0,1,0,1,0.7","2","",""
"","html-keyboard-response","91","60187","0.0-91.0","3SITXWYCNWVKV4QWZ7QEIN8537PXBE","A24LB89P1BPKKF","3THR0FZ95PF7SK0MYRNAOUHTWA4OLV","","null","<img src=""img/food4.png"" style=""width:200px; border:14px solid green;"">","null","","","","","","","","","",""
"","image-keyboard-response","92","60518","0.0-92.0","3SITXWYCNWVKV4QWZ7QEIN8537PXBE","A24LB89P1BPKKF","3THR0FZ95PF7SK0MYRNAOUHTWA4OLV","","329.10000002384186","img/food4.png","76","331.30000001192093","3","1","1","1","1,0.7,0,1,0.7,0,0.7,0,1","0.7,0,1,0.7,0,1,0,1,0.7","2","",""
"","html-keyboard-response","93","60821","0.0-93.0","3SITXWYCNWVKV4QWZ7QEIN8537PXBE","A24LB89P1BPKKF","3THR0FZ95PF7SK0MYRNAOUHTWA4OLV","","null","<img src=""img/food4.png"" style=""width:200px; border:14px solid green;"">","null","","","","","","","","","",""
"","image-keyboard-response","94","61120","0.0-94.0","3SITXWYCNWVKV4QWZ7QEIN8537PXBE","A24LB89P1BPKKF","3THR0FZ95PF7SK0MYRNAOUHTWA4OLV","","297","img/food4.png","76","299","3","1","1","1","1,0.7,0,1,0.7,0,0.7,0,1","0.7,0,1,0.7,0,1,0,1,0.7","2","",""
"","html-keyboard-response","95","61425","0.0-95.0","3SITXWYCNWVKV4QWZ7QEIN8537PXBE","A24LB89P1BPKKF","3THR0FZ95PF7SK0MYRNAOUHTWA4OLV","","null","<img src=""img/food4.png"" style=""width:200px; border:14px solid green;"">","null","","","","","","","","","",""
"","image-keyboard-response","96","61775","0.0-96.0","3SITXWYCNWVKV4QWZ7QEIN8537PXBE","A24LB89P1BPKKF","3THR0FZ95PF7SK0MYRNAOUHTWA4OLV","","348","img/food4.png","76","349.89999997615814","3","1","1","1","1,0.7,0,1,0.7,0,0.7,0,1","0.7,0,1,0.7,0,1,0,1,0.7","2","",""
"","html-keyboard-response","97","62082","0.0-97.0","3SITXWYCNWVKV4QWZ7QEIN8537PXBE","A24LB89P1BPKKF","3THR0FZ95PF7SK0MYRNAOUHTWA4OLV","","null","<img src=""img/food4.png"" style=""width:200px; border:14px solid green;"">","null","","","","","","","","","",""
"","image-keyboard-response","98","62725","0.0-98.0","3SITXWYCNWVKV4QWZ7QEIN8537PXBE","A24LB89P1BPKKF","3THR0FZ95PF7SK0MYRNAOUHTWA4OLV","","639","img/food3.png","75","642.4000000357628","2","0","2","1","1,0.7,0,1,0.7,0,0.7,0,1","0.7,0,1,0.7,0,1,0,1,0.7","2","",""
"","html-keyboard-response","99","63029","0.0-99.0","3SITXWYCNWVKV4QWZ7QEIN8537PXBE","A24LB89P1BPKKF","3THR0FZ95PF7SK0MYRNAOUHTWA4OLV","","null","<img src=""img/food3.png"" style=""width:200px;border:14px solid red;"">","null","","","","","","","","","",""
"","image-keyboard-response","100","63726","0.0-100.0","3SITXWYCNWVKV4QWZ7QEIN8537PXBE","A24LB89P1BPKKF","3THR0FZ95PF7SK0MYRNAOUHTWA4OLV","","694.6999999880791","img/food3.png","76","697","3","1","2","1","1,0.7,0,1,0.7,0,0.7,0,1","0.7,0,1,0.7,0,1,0,1,0.7","2","",""
"","html-keyboard-response","101","64030","0.0-101.0","3SITXWYCNWVKV4QWZ7QEIN8537PXBE","A24LB89P1BPKKF","3THR0FZ95PF7SK0MYRNAOUHTWA4OLV","","null","<img src=""img/food3.png"" style=""width:200px; border:14px solid green;"">","null","","","","","","","","","",""
"","image-keyboard-response","102","64536","0.0-102.0","3SITXWYCNWVKV4QWZ7QEIN8537PXBE","A24LB89P1BPKKF","3THR0FZ95PF7SK0MYRNAOUHTWA4OLV","","504","img/food4.png","76","506.0999999642372","3","1","1","1","1,0.7,0,1,0.7,0,0.7,0,1","0.7,0,1,0.7,0,1,0,1,0.7","2","",""
"","html-keyboard-response","103","64840","0.0-103.0","3SITXWYCNWVKV4QWZ7QEIN8537PXBE","A24LB89P1BPKKF","3THR0FZ95PF7SK0MYRNAOUHTWA4OLV","","null","<img src=""img/food4.png"" style=""width:200px; border:14px solid green;"">","null","","","","","","","","","",""
"","image-keyboard-response","104","65507","0.0-104.0","3SITXWYCNWVKV4QWZ7QEIN8537PXBE","A24LB89P1BPKKF","3THR0FZ95PF7SK0MYRNAOUHTWA4OLV","","664.4000000357628","img/food3.png","76","666.5","3","1","2","1","1,0.7,0,1,0.7,0,0.7,0,1","0.7,0,1,0.7,0,1,0,1,0.7","2","",""
"","html-keyboard-response","105","65809","0.0-105.0","3SITXWYCNWVKV4QWZ7QEIN8537PXBE","A24LB89P1BPKKF","3THR0FZ95PF7SK0MYRNAOUHTWA4OLV","","null","<img src=""img/food3.png"" style=""width:200px; border:14px solid green;"">","null","","","","","","","","","",""
"","image-keyboard-response","106","65870","0.0-106.0","3SITXWYCNWVKV4QWZ7QEIN8537PXBE","A24LB89P1BPKKF","3THR0FZ95PF7SK0MYRNAOUHTWA4OLV","","58.799999952316284","img/food4.png","76","60.69999998807907","3","1","1","1","1,0.7,0,1,0.7,0,0.7,0,1","0.7,0,1,0.7,0,1,0,1,0.7","2","",""
"","html-keyboard-response","107","66174","0.0-107.0","3SITXWYCNWVKV4QWZ7QEIN8537PXBE","A24LB89P1BPKKF","3THR0FZ95PF7SK0MYRNAOUHTWA4OLV","","null","<img src=""img/food4.png"" style=""width:200px; border:14px solid green;"">","null","","","","","","","","","",""
"","image-keyboard-response","108","66615","0.0-108.0","3SITXWYCNWVKV4QWZ7QEIN8537PXBE","A24LB89P1BPKKF","3THR0FZ95PF7SK0MYRNAOUHTWA4OLV","","438.19999998807907","img/food3.png","76","440.4000000357628","3","1","2","1","1,0.7,0,1,0.7,0,0.7,0,1","0.7,0,1,0.7,0,1,0,1,0.7","2","",""
"","html-keyboard-response","109","66918","0.0-109.0","3SITXWYCNWVKV4QWZ7QEIN8537PXBE","A24LB89P1BPKKF","3THR0FZ95PF7SK0MYRNAOUHTWA4OLV","","null","<img src=""img/food3.png"" style=""width:200px; border:14px solid green;"">","null","","","","","","","","","",""
"","image-keyboard-response","110","67226","0.0-110.0","3SITXWYCNWVKV4QWZ7QEIN8537PXBE","A24LB89P1BPKKF","3THR0FZ95PF7SK0MYRNAOUHTWA4OLV","","305.5999999642372","img/food3.png","76","307.7999999523163","3","1","2","1","1,0.7,0,1,0.7,0,0.7,0,1","0.7,0,1,0.7,0,1,0,1,0.7","2","",""
"","html-keyboard-response","111","67530","0.0-111.0","3SITXWYCNWVKV4QWZ7QEIN8537PXBE","A24LB89P1BPKKF","3THR0FZ95PF7SK0MYRNAOUHTWA4OLV","","null","<img src=""img/food3.png"" style=""width:200px; border:14px solid green;"">","null","","","","","","","","","",""
"","image-keyboard-response","112","67810","0.0-112.0","3SITXWYCNWVKV4QWZ7QEIN8537PXBE","A24LB89P1BPKKF","3THR0FZ95PF7SK0MYRNAOUHTWA4OLV","","278.5","img/food3.png","76","279.4000000357628","3","1","2","1","1,0.7,0,1,0.7,0,0.7,0,1","0.7,0,1,0.7,0,1,0,1,0.7","2","",""
"","html-keyboard-response","113","68111","0.0-113.0","3SITXWYCNWVKV4QWZ7QEIN8537PXBE","A24LB89P1BPKKF","3THR0FZ95PF7SK0MYRNAOUHTWA4OLV","","null","<img src=""img/food3.png"" style=""width:200px; border:14px solid green;"">","null","","","","","","","","","",""
"","image-keyboard-response","114","68877","0.0-114.0","3SITXWYCNWVKV4QWZ7QEIN8537PXBE","A24LB89P1BPKKF","3THR0FZ95PF7SK0MYRNAOUHTWA4OLV","","763.1999999880791","img/food4.png","76","765.5999999642372","3","1","1","1","1,0.7,0,1,0.7,0,0.7,0,1","0.7,0,1,0.7,0,1,0,1,0.7","2","",""
"","html-keyboard-response","115","69180","0.0-115.0","3SITXWYCNWVKV4QWZ7QEIN8537PXBE","A24LB89P1BPKKF","3THR0FZ95PF7SK0MYRNAOUHTWA4OLV","","null","<img src=""img/food4.png"" style=""width:200px; border:14px solid green;"">","null","","","","","","","","","",""
"","image-keyboard-response","116","69558","0.0-116.0","3SITXWYCNWVKV4QWZ7QEIN8537PXBE","A24LB89P1BPKKF","3THR0FZ95PF7SK0MYRNAOUHTWA4OLV","","376.69999998807907","img/food3.png","76","378","3","1","2","1","1,0.7,0,1,0.7,0,0.7,0,1","0.7,0,1,0.7,0,1,0,1,0.7","2","",""
"","html-keyboard-response","117","69861","0.0-117.0","3SITXWYCNWVKV4QWZ7QEIN8537PXBE","A24LB89P1BPKKF","3THR0FZ95PF7SK0MYRNAOUHTWA4OLV","","null","<img src=""img/food3.png"" style=""width:200px; border:14px solid green;"">","null","","","","","","","","","",""
"","image-keyboard-response","118","70456","0.0-118.0","3SITXWYCNWVKV4QWZ7QEIN8537PXBE","A24LB89P1BPKKF","3THR0FZ95PF7SK0MYRNAOUHTWA4OLV","","593.6000000238419","img/food6.png","75","595","2","1","3","1","1,0.7,0,1,0.7,0,0.7,0,1","0.7,0,1,0.7,0,1,0,1,0.7","2","",""
"","html-keyboard-response","119","70758","0.0-119.0","3SITXWYCNWVKV4QWZ7QEIN8537PXBE","A24LB89P1BPKKF","3THR0FZ95PF7SK0MYRNAOUHTWA4OLV","","null","<img src=""img/food6.png"" style=""width:200px; border:14px solid green;"">","null","","","","","","","","","",""
"","image-keyboard-response","120","71296","0.0-120.0","3SITXWYCNWVKV4QWZ7QEIN8537PXBE","A24LB89P1BPKKF","3THR0FZ95PF7SK0MYRNAOUHTWA4OLV","","536.1999999880791","img/food4.png","76","538.3000000119209","3","1","1","1","1,0.7,0,1,0.7,0,0.7,0,1","0.7,0,1,0.7,0,1,0,1,0.7","2","",""
"","html-keyboard-response","121","71604","0.0-121.0","3SITXWYCNWVKV4QWZ7QEIN8537PXBE","A24LB89P1BPKKF","3THR0FZ95PF7SK0MYRNAOUHTWA4OLV","","null","<img src=""img/food4.png"" style=""width:200px; border:14px solid green;"">","null","","","","","","","","","",""
"","image-keyboard-response","122","71981","0.0-122.0","3SITXWYCNWVKV4QWZ7QEIN8537PXBE","A24LB89P1BPKKF","3THR0FZ95PF7SK0MYRNAOUHTWA4OLV","","374.30000001192093","img/food4.png","76","376.19999998807907","3","1","1","1","1,0.7,0,1,0.7,0,0.7,0,1","0.7,0,1,0.7,0,1,0,1,0.7","2","",""
"","html-keyboard-response","123","72285","0.0-123.0","3SITXWYCNWVKV4QWZ7QEIN8537PXBE","A24LB89P1BPKKF","3THR0FZ95PF7SK0MYRNAOUHTWA4OLV","","null","<img src=""img/food4.png"" style=""width:200px; border:14px solid green;"">","null","","","","","","","","","",""
"","image-keyboard-response","124","72800","0.0-124.0","3SITXWYCNWVKV4QWZ7QEIN8537PXBE","A24LB89P1BPKKF","3THR0FZ95PF7SK0MYRNAOUHTWA4OLV","","512.9000000357628","img/food6.png","75","514.8000000119209","2","1","3","1","1,0.7,0,1,0.7,0,0.7,0,1","0.7,0,1,0.7,0,1,0,1,0.7","2","",""
"","html-keyboard-response","125","73103","0.0-125.0","3SITXWYCNWVKV4QWZ7QEIN8537PXBE","A24LB89P1BPKKF","3THR0FZ95PF7SK0MYRNAOUHTWA4OLV","","null","<img src=""img/food6.png"" style=""width:200px; border:14px solid green;"">","null","","","","","","","","","",""
"","image-keyboard-response","126","73644","0.0-126.0","3SITXWYCNWVKV4QWZ7QEIN8537PXBE","A24LB89P1BPKKF","3THR0FZ95PF7SK0MYRNAOUHTWA4OLV","","539.9000000357628","img/food4.png","76","540.8000000119209","3","1","1","1","1,0.7,0,1,0.7,0,0.7,0,1","0.7,0,1,0.7,0,1,0,1,0.7","2","",""
"","html-keyboard-response","127","73946","0.0-127.0","3SITXWYCNWVKV4QWZ7QEIN8537PXBE","A24LB89P1BPKKF","3THR0FZ95PF7SK0MYRNAOUHTWA4OLV","","null","<img src=""img/food4.png"" style=""width:200px; border:14px solid green;"">","null","","","","","","","","","",""
"","image-keyboard-response","128","74536","0.0-128.0","3SITXWYCNWVKV4QWZ7QEIN8537PXBE","A24LB89P1BPKKF","3THR0FZ95PF7SK0MYRNAOUHTWA4OLV","","587.6000000238419","img/food6.png","75","589.3999999761581","2","1","3","1","1,0.7,0,1,0.7,0,0.7,0,1","0.7,0,1,0.7,0,1,0,1,0.7","2","",""
"","html-keyboard-response","129","74840","0.0-129.0","3SITXWYCNWVKV4QWZ7QEIN8537PXBE","A24LB89P1BPKKF","3THR0FZ95PF7SK0MYRNAOUHTWA4OLV","","null","<img src=""img/food6.png"" style=""width:200px; border:14px solid green;"">","null","","","","","","","","","",""
"","image-keyboard-response","130","75471","0.0-130.0","3SITXWYCNWVKV4QWZ7QEIN8537PXBE","A24LB89P1BPKKF","3THR0FZ95PF7SK0MYRNAOUHTWA4OLV","","629","img/food4.png","76","630.5","3","1","1","1","1,0.7,0,1,0.7,0,0.7,0,1","0.7,0,1,0.7,0,1,0,1,0.7","2","",""
"","html-keyboard-response","131","75773","0.0-131.0","3SITXWYCNWVKV4QWZ7QEIN8537PXBE","A24LB89P1BPKKF","3THR0FZ95PF7SK0MYRNAOUHTWA4OLV","","null","<img src=""img/food4.png"" style=""width:200px; border:14px solid green;"">","null","","","","","","","","","",""
"","image-keyboard-response","132","76327","0.0-132.0","3SITXWYCNWVKV4QWZ7QEIN8537PXBE","A24LB89P1BPKKF","3THR0FZ95PF7SK0MYRNAOUHTWA4OLV","","552.8999999761581","img/food3.png","76","554.3999999761581","3","1","2","1","1,0.7,0,1,0.7,0,0.7,0,1","0.7,0,1,0.7,0,1,0,1,0.7","2","",""
"","html-keyboard-response","133","76630","0.0-133.0","3SITXWYCNWVKV4QWZ7QEIN8537PXBE","A24LB89P1BPKKF","3THR0FZ95PF7SK0MYRNAOUHTWA4OLV","","null","<img src=""img/food3.png"" style=""width:200px; border:14px solid green;"">","null","","","","","","","","","",""
"","image-keyboard-response","134","76931","0.0-134.0","3SITXWYCNWVKV4QWZ7QEIN8537PXBE","A24LB89P1BPKKF","3THR0FZ95PF7SK0MYRNAOUHTWA4OLV","","298.39999997615814","img/food3.png","76","300.4000000357628","3","1","2","1","1,0.7,0,1,0.7,0,0.7,0,1","0.7,0,1,0.7,0,1,0,1,0.7","2","",""
"","html-keyboard-response","135","77235","0.0-135.0","3SITXWYCNWVKV4QWZ7QEIN8537PXBE","A24LB89P1BPKKF","3THR0FZ95PF7SK0MYRNAOUHTWA4OLV","","null","<img src=""img/food3.png"" style=""width:200px; border:14px solid green;"">","null","","","","","","","","","",""
"","image-keyboard-response","136","77559","0.0-136.0","3SITXWYCNWVKV4QWZ7QEIN8537PXBE","A24LB89P1BPKKF","3THR0FZ95PF7SK0MYRNAOUHTWA4OLV","","322.69999998807907","img/food3.png","76","324","3","1","2","1","1,0.7,0,1,0.7,0,0.7,0,1","0.7,0,1,0.7,0,1,0,1,0.7","2","",""
"","html-keyboard-response","137","77862","0.0-137.0","3SITXWYCNWVKV4QWZ7QEIN8537PXBE","A24LB89P1BPKKF","3THR0FZ95PF7SK0MYRNAOUHTWA4OLV","","null","<img src=""img/food3.png"" style=""width:200px; border:14px solid green;"">","null","","","","","","","","","",""
"","image-keyboard-response","138","78348","0.0-138.0","3SITXWYCNWVKV4QWZ7QEIN8537PXBE","A24LB89P1BPKKF","3THR0FZ95PF7SK0MYRNAOUHTWA4OLV","","484.10000002384186","img/food4.png","75","485.60000002384186","2","0","1","1","1,0.7,0,1,0.7,0,0.7,0,1","0.7,0,1,0.7,0,1,0,1,0.7","2","",""
"","html-keyboard-response","139","78650","0.0-139.0","3SITXWYCNWVKV4QWZ7QEIN8537PXBE","A24LB89P1BPKKF","3THR0FZ95PF7SK0MYRNAOUHTWA4OLV","","null","<img src=""img/food4.png"" style=""width:200px;border:14px solid red;"">","null","","","","","","","","","",""
"","image-keyboard-response","140","79412","0.0-140.0","3SITXWYCNWVKV4QWZ7QEIN8537PXBE","A24LB89P1BPKKF","3THR0FZ95PF7SK0MYRNAOUHTWA4OLV","","758.8999999761581","img/food6.png","75","760.7999999523163","2","1","3","1","1,0.7,0,1,0.7,0,0.7,0,1","0.7,0,1,0.7,0,1,0,1,0.7","2","",""
"","html-keyboard-response","141","79714","0.0-141.0","3SITXWYCNWVKV4QWZ7QEIN8537PXBE","A24LB89P1BPKKF","3THR0FZ95PF7SK0MYRNAOUHTWA4OLV","","null","<img src=""img/food6.png"" style=""width:200px; border:14px solid green;"">","null","","","","","","","","","",""
"","image-keyboard-response","142","80017","0.0-142.0","3SITXWYCNWVKV4QWZ7QEIN8537PXBE","A24LB89P1BPKKF","3THR0FZ95PF7SK0MYRNAOUHTWA4OLV","","301.10000002384186","img/food6.png","75","302.80000001192093","2","1","3","1","1,0.7,0,1,0.7,0,0.7,0,1","0.7,0,1,0.7,0,1,0,1,0.7","2","",""
"","html-keyboard-response","143","80320","0.0-143.0","3SITXWYCNWVKV4QWZ7QEIN8537PXBE","A24LB89P1BPKKF","3THR0FZ95PF7SK0MYRNAOUHTWA4OLV","","null","<img src=""img/food6.png"" style=""width:200px; border:14px solid green;"">","null","","","","","","","","","",""
"","image-keyboard-response","144","81048","0.0-144.0","3SITXWYCNWVKV4QWZ7QEIN8537PXBE","A24LB89P1BPKKF","3THR0FZ95PF7SK0MYRNAOUHTWA4OLV","","725.6000000238419","img/food3.png","76","727.5999999642372","3","1","2","1","1,0.7,0,1,0.7,0,0.7,0,1","0.7,0,1,0.7,0,1,0,1,0.7","2","",""
"","html-keyboard-response","145","81352","0.0-145.0","3SITXWYCNWVKV4QWZ7QEIN8537PXBE","A24LB89P1BPKKF","3THR0FZ95PF7SK0MYRNAOUHTWA4OLV","","null","<img src=""img/food3.png"" style=""width:200px; border:14px solid green;"">","null","","","","","","","","","",""
"","image-keyboard-response","146","81969","0.0-146.0","3SITXWYCNWVKV4QWZ7QEIN8537PXBE","A24LB89P1BPKKF","3THR0FZ95PF7SK0MYRNAOUHTWA4OLV","","614.6999999880791","img/food4.png","76","616.0999999642372","3","1","1","1","1,0.7,0,1,0.7,0,0.7,0,1","0.7,0,1,0.7,0,1,0,1,0.7","2","",""
"","html-keyboard-response","147","82271","0.0-147.0","3SITXWYCNWVKV4QWZ7QEIN8537PXBE","A24LB89P1BPKKF","3THR0FZ95PF7SK0MYRNAOUHTWA4OLV","","null","<img src=""img/food4.png"" style=""width:200px; border:14px solid green;"">","null","","","","","","","","","",""
"","image-keyboard-response","148","82583","0.0-148.0","3SITXWYCNWVKV4QWZ7QEIN8537PXBE","A24LB89P1BPKKF","3THR0FZ95PF7SK0MYRNAOUHTWA4OLV","","310.39999997615814","img/food4.png","76","312","3","1","1","1","1,0.7,0,1,0.7,0,0.7,0,1","0.7,0,1,0.7,0,1,0,1,0.7","2","",""
"","html-keyboard-response","149","82887","0.0-149.0","3SITXWYCNWVKV4QWZ7QEIN8537PXBE","A24LB89P1BPKKF","3THR0FZ95PF7SK0MYRNAOUHTWA4OLV","","null","<img src=""img/food4.png"" style=""width:200px; border:14px solid green;"">","null","","","","","","","","","",""
"","image-keyboard-response","150","83505","0.0-150.0","3SITXWYCNWVKV4QWZ7QEIN8537PXBE","A24LB89P1BPKKF","3THR0FZ95PF7SK0MYRNAOUHTWA4OLV","","617.1000000238419","img/food6.png","75","618.3000000119209","2","1","3","1","1,0.7,0,1,0.7,0,0.7,0,1","0.7,0,1,0.7,0,1,0,1,0.7","2","",""
"","html-keyboard-response","151","83808","0.0-151.0","3SITXWYCNWVKV4QWZ7QEIN8537PXBE","A24LB89P1BPKKF","3THR0FZ95PF7SK0MYRNAOUHTWA4OLV","","null","<img src=""img/food6.png"" style=""width:200px; border:14px solid green;"">","null","","","","","","","","","",""
"","image-keyboard-response","152","84210","0.0-152.0","3SITXWYCNWVKV4QWZ7QEIN8537PXBE","A24LB89P1BPKKF","3THR0FZ95PF7SK0MYRNAOUHTWA4OLV","","400","img/food4.png","76","402","3","1","1","1","1,0.7,0,1,0.7,0,0.7,0,1","0.7,0,1,0.7,0,1,0,1,0.7","2","",""
"","html-keyboard-response","153","84513","0.0-153.0","3SITXWYCNWVKV4QWZ7QEIN8537PXBE","A24LB89P1BPKKF","3THR0FZ95PF7SK0MYRNAOUHTWA4OLV","","null","<img src=""img/food4.png"" style=""width:200px; border:14px solid green;"">","null","","","","","","","","","",""
"","image-keyboard-response","154","84993","0.0-154.0","3SITXWYCNWVKV4QWZ7QEIN8537PXBE","A24LB89P1BPKKF","3THR0FZ95PF7SK0MYRNAOUHTWA4OLV","","478.30000001192093","img/food6.png","76","479.80000001192093","3","1","3","1","1,0.7,0,1,0.7,0,0.7,0,1","0.7,0,1,0.7,0,1,0,1,0.7","2","",""
"","html-keyboard-response","155","85296","0.0-155.0","3SITXWYCNWVKV4QWZ7QEIN8537PXBE","A24LB89P1BPKKF","3THR0FZ95PF7SK0MYRNAOUHTWA4OLV","","null","<img src=""img/food6.png"" style=""width:200px; border:14px solid green;"">","null","","","","","","","","","",""
"","image-keyboard-response","156","86018","0.0-156.0","3SITXWYCNWVKV4QWZ7QEIN8537PXBE","A24LB89P1BPKKF","3THR0FZ95PF7SK0MYRNAOUHTWA4OLV","","720.0999999642372","img/food6.png","76","721.5999999642372","3","1","3","1","1,0.7,0,1,0.7,0,0.7,0,1","0.7,0,1,0.7,0,1,0,1,0.7","2","",""
"","html-keyboard-response","157","86320","0.0-157.0","3SITXWYCNWVKV4QWZ7QEIN8537PXBE","A24LB89P1BPKKF","3THR0FZ95PF7SK0MYRNAOUHTWA4OLV","","null","<img src=""img/food6.png"" style=""width:200px; border:14px solid green;"">","null","","","","","","","","","",""
"","image-keyboard-response","158","86907","0.0-158.0","3SITXWYCNWVKV4QWZ7QEIN8537PXBE","A24LB89P1BPKKF","3THR0FZ95PF7SK0MYRNAOUHTWA4OLV","","584.3000000119209","img/food6.png","76","586.3000000119209","3","1","3","1","1,0.7,0,1,0.7,0,0.7,0,1","0.7,0,1,0.7,0,1,0,1,0.7","2","",""
"","html-keyboard-response","159","87210","0.0-159.0","3SITXWYCNWVKV4QWZ7QEIN8537PXBE","A24LB89P1BPKKF","3THR0FZ95PF7SK0MYRNAOUHTWA4OLV","","null","<img src=""img/food6.png"" style=""width:200px; border:14px solid green;"">","null","","","","","","","","","",""
"","image-keyboard-response","160","87966","0.0-160.0","3SITXWYCNWVKV4QWZ7QEIN8537PXBE","A24LB89P1BPKKF","3THR0FZ95PF7SK0MYRNAOUHTWA4OLV","","753.8999999761581","img/food3.png","76","755.5","3","1","2","1","1,0.7,0,1,0.7,0,0.7,0,1","0.7,0,1,0.7,0,1,0,1,0.7","2","",""
"","html-keyboard-response","161","88268","0.0-161.0","3SITXWYCNWVKV4QWZ7QEIN8537PXBE","A24LB89P1BPKKF","3THR0FZ95PF7SK0MYRNAOUHTWA4OLV","","null","<img src=""img/food3.png"" style=""width:200px; border:14px solid green;"">","null","","","","","","","","","",""
"","image-keyboard-response","162","88536","0.0-162.0","3SITXWYCNWVKV4QWZ7QEIN8537PXBE","A24LB89P1BPKKF","3THR0FZ95PF7SK0MYRNAOUHTWA4OLV","","265.39999997615814","img/food6.png","76","267.5","3","1","3","1","1,0.7,0,1,0.7,0,0.7,0,1","0.7,0,1,0.7,0,1,0,1,0.7","2","",""
"","html-keyboard-response","163","88840","0.0-163.0","3SITXWYCNWVKV4QWZ7QEIN8537PXBE","A24LB89P1BPKKF","3THR0FZ95PF7SK0MYRNAOUHTWA4OLV","","null","<img src=""img/food6.png"" style=""width:200px; border:14px solid green;"">","null","","","","","","","","","",""
"","image-keyboard-response","164","89277","0.0-164.0","3SITXWYCNWVKV4QWZ7QEIN8537PXBE","A24LB89P1BPKKF","3THR0FZ95PF7SK0MYRNAOUHTWA4OLV","","433.80000001192093","img/food3.png","76","435.9000000357628","3","1","2","1","1,0.7,0,1,0.7,0,0.7,0,1","0.7,0,1,0.7,0,1,0,1,0.7","2","",""
"","html-keyboard-response","165","89581","0.0-165.0","3SITXWYCNWVKV4QWZ7QEIN8537PXBE","A24LB89P1BPKKF","3THR0FZ95PF7SK0MYRNAOUHTWA4OLV","","null","<img src=""img/food3.png"" style=""width:200px; border:14px solid green;"">","null","","","","","","","","","",""
"","image-keyboard-response","166","89810","0.0-166.0","3SITXWYCNWVKV4QWZ7QEIN8537PXBE","A24LB89P1BPKKF","3THR0FZ95PF7SK0MYRNAOUHTWA4OLV","","226.10000002384186","img/food3.png","76","228.30000001192093","3","1","2","1","1,0.7,0,1,0.7,0,0.7,0,1","0.7,0,1,0.7,0,1,0,1,0.7","2","",""
"","html-keyboard-response","167","90112","0.0-167.0","3SITXWYCNWVKV4QWZ7QEIN8537PXBE","A24LB89P1BPKKF","3THR0FZ95PF7SK0MYRNAOUHTWA4OLV","","null","<img src=""img/food3.png"" style=""width:200px; border:14px solid green;"">","null","","","","","","","","","",""
"","image-keyboard-response","168","90418","0.0-168.0","3SITXWYCNWVKV4QWZ7QEIN8537PXBE","A24LB89P1BPKKF","3THR0FZ95PF7SK0MYRNAOUHTWA4OLV","","302.89999997615814","img/food3.png","76","304.89999997615814","3","1","2","1","1,0.7,0,1,0.7,0,0.7,0,1","0.7,0,1,0.7,0,1,0,1,0.7","2","",""
"","html-keyboard-response","169","90719","0.0-169.0","3SITXWYCNWVKV4QWZ7QEIN8537PXBE","A24LB89P1BPKKF","3THR0FZ95PF7SK0MYRNAOUHTWA4OLV","","null","<img src=""img/food3.png"" style=""width:200px; border:14px solid green;"">","null","","","","","","","","","",""
"","image-keyboard-response","170","91250","0.0-170.0","3SITXWYCNWVKV4QWZ7QEIN8537PXBE","A24LB89P1BPKKF","3THR0FZ95PF7SK0MYRNAOUHTWA4OLV","","528.3999999761581","img/food6.png","76","530.3999999761581","3","1","3","1","1,0.7,0,1,0.7,0,0.7,0,1","0.7,0,1,0.7,0,1,0,1,0.7","2","",""
"","html-keyboard-response","171","91553","0.0-171.0","3SITXWYCNWVKV4QWZ7QEIN8537PXBE","A24LB89P1BPKKF","3THR0FZ95PF7SK0MYRNAOUHTWA4OLV","","null","<img src=""img/food6.png"" style=""width:200px; border:14px solid green;"">","null","","","","","","","","","",""
"","image-keyboard-response","172","91981","0.0-172.0","3SITXWYCNWVKV4QWZ7QEIN8537PXBE","A24LB89P1BPKKF","3THR0FZ95PF7SK0MYRNAOUHTWA4OLV","","425.69999998807907","img/food3.png","76","427.30000001192093","3","1","2","1","1,0.7,0,1,0.7,0,0.7,0,1","0.7,0,1,0.7,0,1,0,1,0.7","2","",""
"","html-keyboard-response","173","92284","0.0-173.0","3SITXWYCNWVKV4QWZ7QEIN8537PXBE","A24LB89P1BPKKF","3THR0FZ95PF7SK0MYRNAOUHTWA4OLV","","null","<img src=""img/food3.png"" style=""width:200px; border:14px solid green;"">","null","","","","","","","","","",""
"","image-keyboard-response","174","92629","0.0-174.0","3SITXWYCNWVKV4QWZ7QEIN8537PXBE","A24LB89P1BPKKF","3THR0FZ95PF7SK0MYRNAOUHTWA4OLV","","344.39999997615814","img/food4.png","76","345.5","3","1","1","1","1,0.7,0,1,0.7,0,0.7,0,1","0.7,0,1,0.7,0,1,0,1,0.7","2","",""
"","html-keyboard-response","175","92931","0.0-175.0","3SITXWYCNWVKV4QWZ7QEIN8537PXBE","A24LB89P1BPKKF","3THR0FZ95PF7SK0MYRNAOUHTWA4OLV","","null","<img src=""img/food4.png"" style=""width:200px; border:14px solid green;"">","null","","","","","","","","","",""
"","image-keyboard-response","176","93641","0.0-176.0","3SITXWYCNWVKV4QWZ7QEIN8537PXBE","A24LB89P1BPKKF","3THR0FZ95PF7SK0MYRNAOUHTWA4OLV","","707.6000000238419","img/food6.png","75","709.6000000238419","2","1","3","1","1,0.7,0,1,0.7,0,0.7,0,1","0.7,0,1,0.7,0,1,0,1,0.7","2","",""
"","html-keyboard-response","177","93944","0.0-177.0","3SITXWYCNWVKV4QWZ7QEIN8537PXBE","A24LB89P1BPKKF","3THR0FZ95PF7SK0MYRNAOUHTWA4OLV","","null","<img src=""img/food6.png"" style=""width:200px; border:14px solid green;"">","null","","","","","","","","","",""
"","image-keyboard-response","178","94472","0.0-178.0","3SITXWYCNWVKV4QWZ7QEIN8537PXBE","A24LB89P1BPKKF","3THR0FZ95PF7SK0MYRNAOUHTWA4OLV","","525.6999999880791","img/food4.png","76","527.3000000119209","3","1","1","1","1,0.7,0,1,0.7,0,0.7,0,1","0.7,0,1,0.7,0,1,0,1,0.7","2","",""
"","html-keyboard-response","179","94775","0.0-179.0","3SITXWYCNWVKV4QWZ7QEIN8537PXBE","A24LB89P1BPKKF","3THR0FZ95PF7SK0MYRNAOUHTWA4OLV","","null","<img src=""img/food4.png"" style=""width:200px; border:14px solid green;"">","null","","","","","","","","","",""
"","image-keyboard-response","180","95484","0.0-180.0","3SITXWYCNWVKV4QWZ7QEIN8537PXBE","A24LB89P1BPKKF","3THR0FZ95PF7SK0MYRNAOUHTWA4OLV","","705.9000000357628","img/food3.png","76","707.8999999761581","3","1","2","1","1,0.7,0,1,0.7,0,0.7,0,1","0.7,0,1,0.7,0,1,0,1,0.7","2","",""
"","html-keyboard-response","181","95793","0.0-181.0","3SITXWYCNWVKV4QWZ7QEIN8537PXBE","A24LB89P1BPKKF","3THR0FZ95PF7SK0MYRNAOUHTWA4OLV","","null","<img src=""img/food3.png"" style=""width:200px; border:14px solid green;"">","null","","","","","","","","","",""
"","html-keyboard-response","182","97609","0.0-182.0","3SITXWYCNWVKV4QWZ7QEIN8537PXBE","A24LB89P1BPKKF","3THR0FZ95PF7SK0MYRNAOUHTWA4OLV","","","","","","","","","","","","","",""
"","instructions","183","116971","0.0-183.0","3SITXWYCNWVKV4QWZ7QEIN8537PXBE","A24LB89P1BPKKF","3THR0FZ95PF7SK0MYRNAOUHTWA4OLV","[{""page_index"":0,""viewing_time"":17129.099999964237},{""page_index"":1,""viewing_time"":2232}]","19361.5","","","","","","","","","","","",""
"","image-keyboard-response","184","117715","0.0-184.0","3SITXWYCNWVKV4QWZ7QEIN8537PXBE","A24LB89P1BPKKF","3THR0FZ95PF7SK0MYRNAOUHTWA4OLV","","742.6999999880791","img/food1.png","74","744.7999999523163","1","0","3","2","1,0.7,0,1,0.7,0,0.7,0,1","0.7,0,1,0.7,0,1,0,1,0.7","2","false",""
"","html-keyboard-response","185","118020","0.0-185.0","3SITXWYCNWVKV4QWZ7QEIN8537PXBE","A24LB89P1BPKKF","3THR0FZ95PF7SK0MYRNAOUHTWA4OLV","","null","<img src=""img/food1.png"" style=""width:200px;border:14px solid red;"">","null","","","","","","","","","",""
"","image-keyboard-response","186","118511","0.0-187.0","3SITXWYCNWVKV4QWZ7QEIN8537PXBE","A24LB89P1BPKKF","3THR0FZ95PF7SK0MYRNAOUHTWA4OLV","","489.4000000357628","img/food1.png","75","490.19999998807907","2","1","3","2","1,0.7,0,1,0.7,0,0.7,0,1","0.7,0,1,0.7,0,1,0,1,0.7","2","false",""
"","html-keyboard-response","187","118813","0.0-188.0","3SITXWYCNWVKV4QWZ7QEIN8537PXBE","A24LB89P1BPKKF","3THR0FZ95PF7SK0MYRNAOUHTWA4OLV","","null","<img src=""img/food1.png"" style=""width:200px; border:14px solid green;"">","null","","","","","","","","","",""
"","image-keyboard-response","188","119439","0.0-190.0","3SITXWYCNWVKV4QWZ7QEIN8537PXBE","A24LB89P1BPKKF","3THR0FZ95PF7SK0MYRNAOUHTWA4OLV","","623.0999999642372","img/food5.png","75","625.3999999761581","2","0","2","2","1,0.7,0,1,0.7,0,0.7,0,1","0.7,0,1,0.7,0,1,0,1,0.7","2","false",""
"","html-keyboard-response","189","119742","0.0-191.0","3SITXWYCNWVKV4QWZ7QEIN8537PXBE","A24LB89P1BPKKF","3THR0FZ95PF7SK0MYRNAOUHTWA4OLV","","null","<img src=""img/food5.png"" style=""width:200px;border:14px solid red;"">","null","","","","","","","","","",""
"","image-keyboard-response","190","120147","0.0-193.0","3SITXWYCNWVKV4QWZ7QEIN8537PXBE","A24LB89P1BPKKF","3THR0FZ95PF7SK0MYRNAOUHTWA4OLV","","401.7000000476837","img/food1.png","76","403.19999998807907","3","0","3","2","1,0.7,0,1,0.7,0,0.7,0,1","0.7,0,1,0.7,0,1,0,1,0.7","2","false",""
"","html-keyboard-response","191","120449","0.0-194.0","3SITXWYCNWVKV4QWZ7QEIN8537PXBE","A24LB89P1BPKKF","3THR0FZ95PF7SK0MYRNAOUHTWA4OLV","","null","<img src=""img/food1.png"" style=""width:200px;border:14px solid red;"">","null","","","","","","","","","",""
"","image-keyboard-response","192","120803","0.0-196.0","3SITXWYCNWVKV4QWZ7QEIN8537PXBE","A24LB89P1BPKKF","3THR0FZ95PF7SK0MYRNAOUHTWA4OLV","","350.39999997615814","img/food1.png","74","352.89999997615814","1","0","3","2","1,0.7,0,1,0.7,0,0.7,0,1","0.7,0,1,0.7,0,1,0,1,0.7","2","false",""
"","html-keyboard-response","193","121106","0.0-197.0","3SITXWYCNWVKV4QWZ7QEIN8537PXBE","A24LB89P1BPKKF","3THR0FZ95PF7SK0MYRNAOUHTWA4OLV","","null","<img src=""img/food1.png"" style=""width:200px;border:14px solid red;"">","null","","","","","","","","","",""
"","image-keyboard-response","194","121402","0.0-199.0","3SITXWYCNWVKV4QWZ7QEIN8537PXBE","A24LB89P1BPKKF","3THR0FZ95PF7SK0MYRNAOUHTWA4OLV","","294","img/food1.png","75","296.19999998807907","2","1","3","2","1,0.7,0,1,0.7,0,0.7,0,1","0.7,0,1,0.7,0,1,0,1,0.7","2","false",""
"","html-keyboard-response","195","121710","0.0-200.0","3SITXWYCNWVKV4QWZ7QEIN8537PXBE","A24LB89P1BPKKF","3THR0FZ95PF7SK0MYRNAOUHTWA4OLV","","null","<img src=""img/food1.png"" style=""width:200px; border:14px solid green;"">","null","","","","","","","","","",""
"","image-keyboard-response","196","122332","0.0-202.0","3SITXWYCNWVKV4QWZ7QEIN8537PXBE","A24LB89P1BPKKF","3THR0FZ95PF7SK0MYRNAOUHTWA4OLV","","619.5","img/food5.png","76","621.6999999880791","3","1","2","2","1,0.7,0,1,0.7,0,0.7,0,1","0.7,0,1,0.7,0,1,0,1,0.7","2","false",""
"","html-keyboard-response","197","122639","0.0-203.0","3SITXWYCNWVKV4QWZ7QEIN8537PXBE","A24LB89P1BPKKF","3THR0FZ95PF7SK0MYRNAOUHTWA4OLV","","null","<img src=""img/food5.png"" style=""width:200px; border:14px solid green;"">","null","","","","","","","","","",""
"","image-keyboard-response","198","123091","0.0-205.0","3SITXWYCNWVKV4QWZ7QEIN8537PXBE","A24LB89P1BPKKF","3THR0FZ95PF7SK0MYRNAOUHTWA4OLV","","449.2999999523163","img/food5.png","76","451","3","1","2","2","1,0.7,0,1,0.7,0,0.7,0,1","0.7,0,1,0.7,0,1,0,1,0.7","2","false",""
"","html-keyboard-response","199","123394","0.0-206.0","3SITXWYCNWVKV4QWZ7QEIN8537PXBE","A24LB89P1BPKKF","3THR0FZ95PF7SK0MYRNAOUHTWA4OLV","","null","<img src=""img/food5.png"" style=""width:200px; border:14px solid green;"">","null","","","","","","","","","",""
"","image-keyboard-response","200","123909","0.0-208.0","3SITXWYCNWVKV4QWZ7QEIN8537PXBE","A24LB89P1BPKKF","3THR0FZ95PF7SK0MYRNAOUHTWA4OLV","","512.1000000238419","img/food1.png","75","513.5999999642372","2","1","3","2","1,0.7,0,1,0.7,0,0.7,0,1","0.7,0,1,0.7,0,1,0,1,0.7","2","false",""
"","html-keyboard-response","201","124211","0.0-209.0","3SITXWYCNWVKV4QWZ7QEIN8537PXBE","A24LB89P1BPKKF","3THR0FZ95PF7SK0MYRNAOUHTWA4OLV","","null","<img src=""img/food1.png"" style=""width:200px; border:14px solid green;"">","null","","","","","","","","","",""
"","image-keyboard-response","202","124956","0.0-211.0","3SITXWYCNWVKV4QWZ7QEIN8537PXBE","A24LB89P1BPKKF","3THR0FZ95PF7SK0MYRNAOUHTWA4OLV","","741.8999999761581","img/food2.png","74","743.6000000238419","1","1","1","2","1,0.7,0,1,0.7,0,0.7,0,1","0.7,0,1,0.7,0,1,0,1,0.7","2","false",""
"","html-keyboard-response","203","125258","0.0-212.0","3SITXWYCNWVKV4QWZ7QEIN8537PXBE","A24LB89P1BPKKF","3THR0FZ95PF7SK0MYRNAOUHTWA4OLV","","null","<img src=""img/food2.png"" style=""width:200px; border:14px solid green;"">","null","","","","","","","","","",""
"","image-keyboard-response","204","125996","0.0-214.0","3SITXWYCNWVKV4QWZ7QEIN8537PXBE","A24LB89P1BPKKF","3THR0FZ95PF7SK0MYRNAOUHTWA4OLV","","735.6999999880791","img/food5.png","76","737.3000000119209","3","1","2","2","1,0.7,0,1,0.7,0,0.7,0,1","0.7,0,1,0.7,0,1,0,1,0.7","2","false",""
"","html-keyboard-response","205","126299","0.0-215.0","3SITXWYCNWVKV4QWZ7QEIN8537PXBE","A24LB89P1BPKKF","3THR0FZ95PF7SK0MYRNAOUHTWA4OLV","","null","<img src=""img/food5.png"" style=""width:200px; border:14px solid green;"">","null","","","","","","","","","",""
"","image-keyboard-response","206","127011","0.0-217.0","3SITXWYCNWVKV4QWZ7QEIN8537PXBE","A24LB89P1BPKKF","3THR0FZ95PF7SK0MYRNAOUHTWA4OLV","","710","img/food2.png","74","711.6999999880791","1","0","1","2","1,0.7,0,1,0.7,0,0.7,0,1","0.7,0,1,0.7,0,1,0,1,0.7","2","false",""
"","html-keyboard-response","207","127315","0.0-218.0","3SITXWYCNWVKV4QWZ7QEIN8537PXBE","A24LB89P1BPKKF","3THR0FZ95PF7SK0MYRNAOUHTWA4OLV","","null","<img src=""img/food2.png"" style=""width:200px;border:14px solid red;"">","null","","","","","","","","","",""
"","image-keyboard-response","208","127976","0.0-220.0","3SITXWYCNWVKV4QWZ7QEIN8537PXBE","A24LB89P1BPKKF","3THR0FZ95PF7SK0MYRNAOUHTWA4OLV","","658.6999999880791","img/food5.png","76","660","3","1","2","2","1,0.7,0,1,0.7,0,0.7,0,1","0.7,0,1,0.7,0,1,0,1,0.7","2","false",""
"","html-keyboard-response","209","128278","0.0-221.0","3SITXWYCNWVKV4QWZ7QEIN8537PXBE","A24LB89P1BPKKF","3THR0FZ95PF7SK0MYRNAOUHTWA4OLV","","null","<img src=""img/food5.png"" style=""width:200px; border:14px solid green;"">","null","","","","","","","","","",""
"","image-keyboard-response","210","128720","0.0-223.0","3SITXWYCNWVKV4QWZ7QEIN8537PXBE","A24LB89P1BPKKF","3THR0FZ95PF7SK0MYRNAOUHTWA4OLV","","439.0999999642372","img/food2.png","75","441.19999998807907","2","0","1","2","1,0.7,0,1,0.7,0,0.7,0,1","0.7,0,1,0.7,0,1,0,1,0.7","2","false",""
"","html-keyboard-response","211","129025","0.0-224.0","3SITXWYCNWVKV4QWZ7QEIN8537PXBE","A24LB89P1BPKKF","3THR0FZ95PF7SK0MYRNAOUHTWA4OLV","","null","<img src=""img/food2.png"" style=""width:200px;border:14px solid red;"">","null","","","","","","","","","",""
"","image-keyboard-response","212","129775","0.0-226.0","3SITXWYCNWVKV4QWZ7QEIN8537PXBE","A24LB89P1BPKKF","3THR0FZ95PF7SK0MYRNAOUHTWA4OLV","","747.2000000476837","img/food5.png","76","749.3000000119209","3","1","2","2","1,0.7,0,1,0.7,0,0.7,0,1","0.7,0,1,0.7,0,1,0,1,0.7","2","false",""
"","html-keyboard-response","213","130080","0.0-227.0","3SITXWYCNWVKV4QWZ7QEIN8537PXBE","A24LB89P1BPKKF","3THR0FZ95PF7SK0MYRNAOUHTWA4OLV","","null","<img src=""img/food5.png"" style=""width:200px; border:14px solid green;"">","null","","","","","","","","","",""
"","image-keyboard-response","214","130474","0.0-229.0","3SITXWYCNWVKV4QWZ7QEIN8537PXBE","A24LB89P1BPKKF","3THR0FZ95PF7SK0MYRNAOUHTWA4OLV","","389.60000002384186","img/food2.png","76","392.7000000476837","3","1","1","2","1,0.7,0,1,0.7,0,0.7,0,1","0.7,0,1,0.7,0,1,0,1,0.7","2","false",""
"","html-keyboard-response","215","130777","0.0-230.0","3SITXWYCNWVKV4QWZ7QEIN8537PXBE","A24LB89P1BPKKF","3THR0FZ95PF7SK0MYRNAOUHTWA4OLV","","null","<img src=""img/food2.png"" style=""width:200px; border:14px solid green;"">","null","","","","","","","","","",""
"","image-keyboard-response","216","131106","0.0-232.0","3SITXWYCNWVKV4QWZ7QEIN8537PXBE","A24LB89P1BPKKF","3THR0FZ95PF7SK0MYRNAOUHTWA4OLV","","325.4000000357628","img/food2.png","76","328.2999999523163","3","1","1","2","1,0.7,0,1,0.7,0,0.7,0,1","0.7,0,1,0.7,0,1,0,1,0.7","2","false",""
"","html-keyboard-response","217","131411","0.0-233.0","3SITXWYCNWVKV4QWZ7QEIN8537PXBE","A24LB89P1BPKKF","3THR0FZ95PF7SK0MYRNAOUHTWA4OLV","","null","<img src=""img/food2.png"" style=""width:200px; border:14px solid green;"">","null","","","","","","","","","",""
"","image-keyboard-response","218","131879","0.0-235.0","3SITXWYCNWVKV4QWZ7QEIN8537PXBE","A24LB89P1BPKKF","3THR0FZ95PF7SK0MYRNAOUHTWA4OLV","","465.0999999642372","img/food5.png","76","467.30000001192093","3","1","2","2","1,0.7,0,1,0.7,0,0.7,0,1","0.7,0,1,0.7,0,1,0,1,0.7","2","false",""
"","html-keyboard-response","219","132183","0.0-236.0","3SITXWYCNWVKV4QWZ7QEIN8537PXBE","A24LB89P1BPKKF","3THR0FZ95PF7SK0MYRNAOUHTWA4OLV","","null","<img src=""img/food5.png"" style=""width:200px; border:14px solid green;"">","null","","","","","","","","","",""
"","image-keyboard-response","220","132617","0.0-238.0","3SITXWYCNWVKV4QWZ7QEIN8537PXBE","A24LB89P1BPKKF","3THR0FZ95PF7SK0MYRNAOUHTWA4OLV","","431.10000002384186","img/food1.png","76","433.10000002384186","3","1","3","2","1,0.7,0,1,0.7,0,0.7,0,1","0.7,0,1,0.7,0,1,0,1,0.7","2","false",""
"","html-keyboard-response","221","132920","0.0-239.0","3SITXWYCNWVKV4QWZ7QEIN8537PXBE","A24LB89P1BPKKF","3THR0FZ95PF7SK0MYRNAOUHTWA4OLV","","null","<img src=""img/food1.png"" style=""width:200px; border:14px solid green;"">","null","","","","","","","","","",""
"","image-keyboard-response","222","133168","0.0-241.0","3SITXWYCNWVKV4QWZ7QEIN8537PXBE","A24LB89P1BPKKF","3THR0FZ95PF7SK0MYRNAOUHTWA4OLV","","245.19999998807907","img/food1.png","76","247.29999995231628","3","1","3","2","1,0.7,0,1,0.7,0,0.7,0,1","0.7,0,1,0.7,0,1,0,1,0.7","2","false",""
"","html-keyboard-response","223","133472","0.0-242.0","3SITXWYCNWVKV4QWZ7QEIN8537PXBE","A24LB89P1BPKKF","3THR0FZ95PF7SK0MYRNAOUHTWA4OLV","","null","<img src=""img/food1.png"" style=""width:200px; border:14px solid green;"">","null","","","","","","","","","",""
"","image-keyboard-response","224","133867","0.0-244.0","3SITXWYCNWVKV4QWZ7QEIN8537PXBE","A24LB89P1BPKKF","3THR0FZ95PF7SK0MYRNAOUHTWA4OLV","","392","img/food5.png","76","394.30000001192093","3","1","2","2","1,0.7,0,1,0.7,0,0.7,0,1","0.7,0,1,0.7,0,1,0,1,0.7","2","false",""
"","html-keyboard-response","225","134170","0.0-245.0","3SITXWYCNWVKV4QWZ7QEIN8537PXBE","A24LB89P1BPKKF","3THR0FZ95PF7SK0MYRNAOUHTWA4OLV","","null","<img src=""img/food5.png"" style=""width:200px; border:14px solid green;"">","null","","","","","","","","","",""
"","image-keyboard-response","226","134437","0.0-247.0","3SITXWYCNWVKV4QWZ7QEIN8537PXBE","A24LB89P1BPKKF","3THR0FZ95PF7SK0MYRNAOUHTWA4OLV","","264.7999999523163","img/food5.png","76","266","3","1","2","2","1,0.7,0,1,0.7,0,0.7,0,1","0.7,0,1,0.7,0,1,0,1,0.7","2","false",""
"","html-keyboard-response","227","134745","0.0-248.0","3SITXWYCNWVKV4QWZ7QEIN8537PXBE","A24LB89P1BPKKF","3THR0FZ95PF7SK0MYRNAOUHTWA4OLV","","null","<img src=""img/food5.png"" style=""width:200px; border:14px solid green;"">","null","","","","","","","","","",""
"","image-keyboard-response","228","135127","0.0-250.0","3SITXWYCNWVKV4QWZ7QEIN8537PXBE","A24LB89P1BPKKF","3THR0FZ95PF7SK0MYRNAOUHTWA4OLV","","378.89999997615814","img/food1.png","76","381.0999999642372","3","1","3","2","1,0.7,0,1,0.7,0,0.7,0,1","0.7,0,1,0.7,0,1,0,1,0.7","2","false",""
"","html-keyboard-response","229","135429","0.0-251.0","3SITXWYCNWVKV4QWZ7QEIN8537PXBE","A24LB89P1BPKKF","3THR0FZ95PF7SK0MYRNAOUHTWA4OLV","","null","<img src=""img/food1.png"" style=""width:200px; border:14px solid green;"">","null","","","","","","","","","",""
"","image-keyboard-response","230","135778","0.0-253.0","3SITXWYCNWVKV4QWZ7QEIN8537PXBE","A24LB89P1BPKKF","3THR0FZ95PF7SK0MYRNAOUHTWA4OLV","","347","img/food5.png","76","349","3","1","2","2","1,0.7,0,1,0.7,0,0.7,0,1","0.7,0,1,0.7,0,1,0,1,0.7","2","false",""
"","html-keyboard-response","231","136082","0.0-254.0","3SITXWYCNWVKV4QWZ7QEIN8537PXBE","A24LB89P1BPKKF","3THR0FZ95PF7SK0MYRNAOUHTWA4OLV","","null","<img src=""img/food5.png"" style=""width:200px; border:14px solid green;"">","null","","","","","","","","","",""
"","image-keyboard-response","232","136378","0.0-256.0","3SITXWYCNWVKV4QWZ7QEIN8537PXBE","A24LB89P1BPKKF","3THR0FZ95PF7SK0MYRNAOUHTWA4OLV","","293.89999997615814","img/food5.png","76","296","3","1","2","2","1,0.7,0,1,0.7,0,0.7,0,1","0.7,0,1,0.7,0,1,0,1,0.7","2","false",""
"","html-keyboard-response","233","136682","0.0-257.0","3SITXWYCNWVKV4QWZ7QEIN8537PXBE","A24LB89P1BPKKF","3THR0FZ95PF7SK0MYRNAOUHTWA4OLV","","null","<img src=""img/food5.png"" style=""width:200px; border:14px solid green;"">","null","","","","","","","","","",""
"","image-keyboard-response","234","136976","0.0-259.0","3SITXWYCNWVKV4QWZ7QEIN8537PXBE","A24LB89P1BPKKF","3THR0FZ95PF7SK0MYRNAOUHTWA4OLV","","291.5","img/food2.png","76","293.5999999642372","3","1","1","2","1,0.7,0,1,0.7,0,0.7,0,1","0.7,0,1,0.7,0,1,0,1,0.7","2","false",""
"","html-keyboard-response","235","137280","0.0-260.0","3SITXWYCNWVKV4QWZ7QEIN8537PXBE","A24LB89P1BPKKF","3THR0FZ95PF7SK0MYRNAOUHTWA4OLV","","null","<img src=""img/food2.png"" style=""width:200px; border:14px solid green;"">","null","","","","","","","","","",""
"","image-keyboard-response","236","137533","0.0-262.0","3SITXWYCNWVKV4QWZ7QEIN8537PXBE","A24LB89P1BPKKF","3THR0FZ95PF7SK0MYRNAOUHTWA4OLV","","249.89999997615814","img/food1.png","76","251.9000000357628","3","1","3","2","1,0.7,0,1,0.7,0,0.7,0,1","0.7,0,1,0.7,0,1,0,1,0.7","2","false",""
"","html-keyboard-response","237","137836","0.0-263.0","3SITXWYCNWVKV4QWZ7QEIN8537PXBE","A24LB89P1BPKKF","3THR0FZ95PF7SK0MYRNAOUHTWA4OLV","","null","<img src=""img/food1.png"" style=""width:200px; border:14px solid green;"">","null","","","","","","","","","",""
"","image-keyboard-response","238","138159","0.0-265.0","3SITXWYCNWVKV4QWZ7QEIN8537PXBE","A24LB89P1BPKKF","3THR0FZ95PF7SK0MYRNAOUHTWA4OLV","","320.80000001192093","img/food2.png","76","322.5","3","1","1","2","1,0.7,0,1,0.7,0,0.7,0,1","0.7,0,1,0.7,0,1,0,1,0.7","2","false",""
"","html-keyboard-response","239","138461","0.0-266.0","3SITXWYCNWVKV4QWZ7QEIN8537PXBE","A24LB89P1BPKKF","3THR0FZ95PF7SK0MYRNAOUHTWA4OLV","","null","<img src=""img/food2.png"" style=""width:200px; border:14px solid green;"">","null","","","","","","","","","",""
"","image-keyboard-response","240","138672","0.0-268.0","3SITXWYCNWVKV4QWZ7QEIN8537PXBE","A24LB89P1BPKKF","3THR0FZ95PF7SK0MYRNAOUHTWA4OLV","","208.30000001192093","img/food2.png","76","209.80000001192093","3","1","1","2","1,0.7,0,1,0.7,0,0.7,0,1","0.7,0,1,0.7,0,1,0,1,0.7","2","false",""
"","html-keyboard-response","241","138973","0.0-269.0","3SITXWYCNWVKV4QWZ7QEIN8537PXBE","A24LB89P1BPKKF","3THR0FZ95PF7SK0MYRNAOUHTWA4OLV","","null","<img src=""img/food2.png"" style=""width:200px; border:14px solid green;"">","null","","","","","","","","","",""
"","image-keyboard-response","242","139222","0.0-271.0","3SITXWYCNWVKV4QWZ7QEIN8537PXBE","A24LB89P1BPKKF","3THR0FZ95PF7SK0MYRNAOUHTWA4OLV","","247.89999997615814","img/food5.png","76","248.80000001192093","3","1","2","2","1,0.7,0,1,0.7,0,0.7,0,1","0.7,0,1,0.7,0,1,0,1,0.7","2","false",""
"","html-keyboard-response","243","139524","0.0-272.0","3SITXWYCNWVKV4QWZ7QEIN8537PXBE","A24LB89P1BPKKF","3THR0FZ95PF7SK0MYRNAOUHTWA4OLV","","null","<img src=""img/food5.png"" style=""width:200px; border:14px solid green;"">","null","","","","","","","","","",""
"","image-keyboard-response","244","139821","0.0-274.0","3SITXWYCNWVKV4QWZ7QEIN8537PXBE","A24LB89P1BPKKF","3THR0FZ95PF7SK0MYRNAOUHTWA4OLV","","293.9000000357628","img/food1.png","76","296","3","1","3","2","1,0.7,0,1,0.7,0,0.7,0,1","0.7,0,1,0.7,0,1,0,1,0.7","2","false",""
"","html-keyboard-response","245","140124","0.0-275.0","3SITXWYCNWVKV4QWZ7QEIN8537PXBE","A24LB89P1BPKKF","3THR0FZ95PF7SK0MYRNAOUHTWA4OLV","","null","<img src=""img/food1.png"" style=""width:200px; border:14px solid green;"">","null","","","","","","","","","",""
"","image-keyboard-response","246","140455","0.0-277.0","3SITXWYCNWVKV4QWZ7QEIN8537PXBE","A24LB89P1BPKKF","3THR0FZ95PF7SK0MYRNAOUHTWA4OLV","","329.5","img/food5.png","76","331.30000001192093","3","1","2","2","1,0.7,0,1,0.7,0,0.7,0,1","0.7,0,1,0.7,0,1,0,1,0.7","2","false",""
"","html-keyboard-response","247","140759","0.0-278.0","3SITXWYCNWVKV4QWZ7QEIN8537PXBE","A24LB89P1BPKKF","3THR0FZ95PF7SK0MYRNAOUHTWA4OLV","","null","<img src=""img/food5.png"" style=""width:200px; border:14px solid green;"">","null","","","","","","","","","",""
"","image-keyboard-response","248","141014","0.0-280.0","3SITXWYCNWVKV4QWZ7QEIN8537PXBE","A24LB89P1BPKKF","3THR0FZ95PF7SK0MYRNAOUHTWA4OLV","","252.5999999642372","img/food5.png","76","254.30000001192093","3","1","2","2","1,0.7,0,1,0.7,0,0.7,0,1","0.7,0,1,0.7,0,1,0,1,0.7","2","false",""
"","html-keyboard-response","249","141317","0.0-281.0","3SITXWYCNWVKV4QWZ7QEIN8537PXBE","A24LB89P1BPKKF","3THR0FZ95PF7SK0MYRNAOUHTWA4OLV","","null","<img src=""img/food5.png"" style=""width:200px; border:14px solid green;"">","null","","","","","","","","","",""
"","image-keyboard-response","250","141587","0.0-283.0","3SITXWYCNWVKV4QWZ7QEIN8537PXBE","A24LB89P1BPKKF","3THR0FZ95PF7SK0MYRNAOUHTWA4OLV","","267.4000000357628","img/food5.png","76","269.5","3","1","2","2","1,0.7,0,1,0.7,0,0.7,0,1","0.7,0,1,0.7,0,1,0,1,0.7","2","false",""
"","html-keyboard-response","251","141890","0.0-284.0","3SITXWYCNWVKV4QWZ7QEIN8537PXBE","A24LB89P1BPKKF","3THR0FZ95PF7SK0MYRNAOUHTWA4OLV","","null","<img src=""img/food5.png"" style=""width:200px; border:14px solid green;"">","null","","","","","","","","","",""
"","image-keyboard-response","252","142120","0.0-286.0","3SITXWYCNWVKV4QWZ7QEIN8537PXBE","A24LB89P1BPKKF","3THR0FZ95PF7SK0MYRNAOUHTWA4OLV","","227.10000002384186","img/food2.png","76","228.5","3","1","1","2","1,0.7,0,1,0.7,0,0.7,0,1","0.7,0,1,0.7,0,1,0,1,0.7","2","false",""
"","html-keyboard-response","253","142421","0.0-287.0","3SITXWYCNWVKV4QWZ7QEIN8537PXBE","A24LB89P1BPKKF","3THR0FZ95PF7SK0MYRNAOUHTWA4OLV","","null","<img src=""img/food2.png"" style=""width:200px; border:14px solid green;"">","null","","","","","","","","","",""
"","image-keyboard-response","254","142843","0.0-289.0","3SITXWYCNWVKV4QWZ7QEIN8537PXBE","A24LB89P1BPKKF","3THR0FZ95PF7SK0MYRNAOUHTWA4OLV","","420.4000000357628","img/food1.png","76","422.19999998807907","3","1","3","2","1,0.7,0,1,0.7,0,0.7,0,1","0.7,0,1,0.7,0,1,0,1,0.7","2","false",""
"","html-keyboard-response","255","143146","0.0-290.0","3SITXWYCNWVKV4QWZ7QEIN8537PXBE","A24LB89P1BPKKF","3THR0FZ95PF7SK0MYRNAOUHTWA4OLV","","null","<img src=""img/food1.png"" style=""width:200px; border:14px solid green;"">","null","","","","","","","","","",""
"","image-keyboard-response","256","143482","0.0-292.0","3SITXWYCNWVKV4QWZ7QEIN8537PXBE","A24LB89P1BPKKF","3THR0FZ95PF7SK0MYRNAOUHTWA4OLV","","333.80000001192093","img/food2.png","76","335.30000001192093","3","1","1","2","1,0.7,0,1,0.7,0,0.7,0,1","0.7,0,1,0.7,0,1,0,1,0.7","2","false",""
"","html-keyboard-response","257","143785","0.0-293.0","3SITXWYCNWVKV4QWZ7QEIN8537PXBE","A24LB89P1BPKKF","3THR0FZ95PF7SK0MYRNAOUHTWA4OLV","","null","<img src=""img/food2.png"" style=""width:200px; border:14px solid green;"">","null","","","","","","","","","",""
"","image-keyboard-response","258","144072","0.0-295.0","3SITXWYCNWVKV4QWZ7QEIN8537PXBE","A24LB89P1BPKKF","3THR0FZ95PF7SK0MYRNAOUHTWA4OLV","","284.19999998807907","img/food1.png","76","286.39999997615814","3","0","3","2","1,0.7,0,1,0.7,0,0.7,0,1","0.7,0,1,0.7,0,1,0,1,0.7","2","false",""
"","html-keyboard-response","259","144375","0.0-296.0","3SITXWYCNWVKV4QWZ7QEIN8537PXBE","A24LB89P1BPKKF","3THR0FZ95PF7SK0MYRNAOUHTWA4OLV","","null","<img src=""img/food1.png"" style=""width:200px;border:14px solid red;"">","null","","","","","","","","","",""
"","image-keyboard-response","260","144982","0.0-298.0","3SITXWYCNWVKV4QWZ7QEIN8537PXBE","A24LB89P1BPKKF","3THR0FZ95PF7SK0MYRNAOUHTWA4OLV","","605.1000000238419","img/food5.png","76","606.3999999761581","3","1","2","2","1,0.7,0,1,0.7,0,0.7,0,1","0.7,0,1,0.7,0,1,0,1,0.7","2","false",""
"","html-keyboard-response","261","145285","0.0-299.0","3SITXWYCNWVKV4QWZ7QEIN8537PXBE","A24LB89P1BPKKF","3THR0FZ95PF7SK0MYRNAOUHTWA4OLV","","null","<img src=""img/food5.png"" style=""width:200px; border:14px solid green;"">","null","","","","","","","","","",""
"","image-keyboard-response","262","145629","0.0-301.0","3SITXWYCNWVKV4QWZ7QEIN8537PXBE","A24LB89P1BPKKF","3THR0FZ95PF7SK0MYRNAOUHTWA4OLV","","341.69999998807907","img/food2.png","76","343.80000001192093","3","1","1","2","1,0.7,0,1,0.7,0,0.7,0,1","0.7,0,1,0.7,0,1,0,1,0.7","2","false",""
"","html-keyboard-response","263","145932","0.0-302.0","3SITXWYCNWVKV4QWZ7QEIN8537PXBE","A24LB89P1BPKKF","3THR0FZ95PF7SK0MYRNAOUHTWA4OLV","","null","<img src=""img/food2.png"" style=""width:200px; border:14px solid green;"">","null","","","","","","","","","",""
"","image-keyboard-response","264","146373","0.0-304.0","3SITXWYCNWVKV4QWZ7QEIN8537PXBE","A24LB89P1BPKKF","3THR0FZ95PF7SK0MYRNAOUHTWA4OLV","","439.10000002384186","img/food1.png","76","440.69999998807907","3","1","3","2","1,0.7,0,1,0.7,0,0.7,0,1","0.7,0,1,0.7,0,1,0,1,0.7","2","false",""
"","html-keyboard-response","265","146676","0.0-305.0","3SITXWYCNWVKV4QWZ7QEIN8537PXBE","A24LB89P1BPKKF","3THR0FZ95PF7SK0MYRNAOUHTWA4OLV","","null","<img src=""img/food1.png"" style=""width:200px; border:14px solid green;"">","null","","","","","","","","","",""
"","image-keyboard-response","266","146958","0.0-307.0","3SITXWYCNWVKV4QWZ7QEIN8537PXBE","A24LB89P1BPKKF","3THR0FZ95PF7SK0MYRNAOUHTWA4OLV","","275.39999997615814","img/food2.png","76","277.60000002384186","3","1","1","2","1,0.7,0,1,0.7,0,0.7,0,1","0.7,0,1,0.7,0,1,0,1,0.7","2","false",""
"","html-keyboard-response","267","147263","0.0-308.0","3SITXWYCNWVKV4QWZ7QEIN8537PXBE","A24LB89P1BPKKF","3THR0FZ95PF7SK0MYRNAOUHTWA4OLV","","null","<img src=""img/food2.png"" style=""width:200px; border:14px solid green;"">","null","","","","","","","","","",""
"","image-keyboard-response","268","147570","0.0-310.0","3SITXWYCNWVKV4QWZ7QEIN8537PXBE","A24LB89P1BPKKF","3THR0FZ95PF7SK0MYRNAOUHTWA4OLV","","304.39999997615814","img/food2.png","76","306.60000002384186","3","1","1","2","1,0.7,0,1,0.7,0,0.7,0,1","0.7,0,1,0.7,0,1,0,1,0.7","2","false",""
"","html-keyboard-response","269","147873","0.0-311.0","3SITXWYCNWVKV4QWZ7QEIN8537PXBE","A24LB89P1BPKKF","3THR0FZ95PF7SK0MYRNAOUHTWA4OLV","","null","<img src=""img/food2.png"" style=""width:200px; border:14px solid green;"">","null","","","","","","","","","",""
"","image-keyboard-response","270","148122","0.0-313.0","3SITXWYCNWVKV4QWZ7QEIN8537PXBE","A24LB89P1BPKKF","3THR0FZ95PF7SK0MYRNAOUHTWA4OLV","","246.0999999642372","img/food2.png","76","248.19999998807907","3","1","1","2","1,0.7,0,1,0.7,0,0.7,0,1","0.7,0,1,0.7,0,1,0,1,0.7","2","false",""
"","html-keyboard-response","271","148426","0.0-314.0","3SITXWYCNWVKV4QWZ7QEIN8537PXBE","A24LB89P1BPKKF","3THR0FZ95PF7SK0MYRNAOUHTWA4OLV","","null","<img src=""img/food2.png"" style=""width:200px; border:14px solid green;"">","null","","","","","","","","","",""
"","image-keyboard-response","272","148687","0.0-316.0","3SITXWYCNWVKV4QWZ7QEIN8537PXBE","A24LB89P1BPKKF","3THR0FZ95PF7SK0MYRNAOUHTWA4OLV","","258.89999997615814","img/food2.png","76","261.10000002384186","3","1","1","2","1,0.7,0,1,0.7,0,0.7,0,1","0.7,0,1,0.7,0,1,0,1,0.7","2","false",""
"","html-keyboard-response","273","148993","0.0-317.0","3SITXWYCNWVKV4QWZ7QEIN8537PXBE","A24LB89P1BPKKF","3THR0FZ95PF7SK0MYRNAOUHTWA4OLV","","null","<img src=""img/food2.png"" style=""width:200px; border:14px solid green;"">","null","","","","","","","","","",""
"","image-keyboard-response","274","149276","0.0-319.0","3SITXWYCNWVKV4QWZ7QEIN8537PXBE","A24LB89P1BPKKF","3THR0FZ95PF7SK0MYRNAOUHTWA4OLV","","281.10000002384186","img/food2.png","76","282.69999998807907","3","1","1","2","1,0.7,0,1,0.7,0,0.7,0,1","0.7,0,1,0.7,0,1,0,1,0.7","2","false",""
"","html-keyboard-response","275","149579","0.0-320.0","3SITXWYCNWVKV4QWZ7QEIN8537PXBE","A24LB89P1BPKKF","3THR0FZ95PF7SK0MYRNAOUHTWA4OLV","","null","<img src=""img/food2.png"" style=""width:200px; border:14px solid green;"">","null","","","","","","","","","",""
"","image-keyboard-response","276","150034","0.0-322.0","3SITXWYCNWVKV4QWZ7QEIN8537PXBE","A24LB89P1BPKKF","3THR0FZ95PF7SK0MYRNAOUHTWA4OLV","","451.60000002384186","img/food1.png","76","453.7000000476837","3","0","3","2","1,0.7,0,1,0.7,0,0.7,0,1","0.7,0,1,0.7,0,1,0,1,0.7","2","false",""
"","html-keyboard-response","277","150337","0.0-323.0","3SITXWYCNWVKV4QWZ7QEIN8537PXBE","A24LB89P1BPKKF","3THR0FZ95PF7SK0MYRNAOUHTWA4OLV","","null","<img src=""img/food1.png"" style=""width:200px;border:14px solid red;"">","null","","","","","","","","","",""
"","image-keyboard-response","278","150592","0.0-325.0","3SITXWYCNWVKV4QWZ7QEIN8537PXBE","A24LB89P1BPKKF","3THR0FZ95PF7SK0MYRNAOUHTWA4OLV","","252.19999998807907","img/food2.png","76","254.70000004768372","3","1","1","2","1,0.7,0,1,0.7,0,0.7,0,1","0.7,0,1,0.7,0,1,0,1,0.7","2","false",""
"","html-keyboard-response","279","150895","0.0-326.0","3SITXWYCNWVKV4QWZ7QEIN8537PXBE","A24LB89P1BPKKF","3THR0FZ95PF7SK0MYRNAOUHTWA4OLV","","null","<img src=""img/food2.png"" style=""width:200px; border:14px solid green;"">","null","","","","","","","","","",""
"","image-keyboard-response","280","151128","0.0-328.0","3SITXWYCNWVKV4QWZ7QEIN8537PXBE","A24LB89P1BPKKF","3THR0FZ95PF7SK0MYRNAOUHTWA4OLV","","229.80000001192093","img/food2.png","76","232.10000002384186","3","1","1","2","1,0.7,0,1,0.7,0,0.7,0,1","0.7,0,1,0.7,0,1,0,1,0.7","2","false",""
"","html-keyboard-response","281","151431","0.0-329.0","3SITXWYCNWVKV4QWZ7QEIN8537PXBE","A24LB89P1BPKKF","3THR0FZ95PF7SK0MYRNAOUHTWA4OLV","","null","<img src=""img/food2.png"" style=""width:200px; border:14px solid green;"">","null","","","","","","","","","",""
"","image-keyboard-response","282","151721","0.0-331.0","3SITXWYCNWVKV4QWZ7QEIN8537PXBE","A24LB89P1BPKKF","3THR0FZ95PF7SK0MYRNAOUHTWA4OLV","","286.89999997615814","img/food2.png","76","289.10000002384186","3","1","1","2","1,0.7,0,1,0.7,0,0.7,0,1","0.7,0,1,0.7,0,1,0,1,0.7","2","false",""
"","html-keyboard-response","283","152025","0.0-332.0","3SITXWYCNWVKV4QWZ7QEIN8537PXBE","A24LB89P1BPKKF","3THR0FZ95PF7SK0MYRNAOUHTWA4OLV","","null","<img src=""img/food2.png"" style=""width:200px; border:14px solid green;"">","null","","","","","","","","","",""
"","image-keyboard-response","284","152507","0.0-334.0","3SITXWYCNWVKV4QWZ7QEIN8537PXBE","A24LB89P1BPKKF","3THR0FZ95PF7SK0MYRNAOUHTWA4OLV","","479.7000000476837","img/food1.png","75","481.30000001192093","2","1","3","2","1,0.7,0,1,0.7,0,0.7,0,1","0.7,0,1,0.7,0,1,0,1,0.7","2","false",""
"","html-keyboard-response","285","152809","0.0-335.0","3SITXWYCNWVKV4QWZ7QEIN8537PXBE","A24LB89P1BPKKF","3THR0FZ95PF7SK0MYRNAOUHTWA4OLV","","null","<img src=""img/food1.png"" style=""width:200px; border:14px solid green;"">","null","","","","","","","","","",""
"","image-keyboard-response","286","153298","0.0-337.0","3SITXWYCNWVKV4QWZ7QEIN8537PXBE","A24LB89P1BPKKF","3THR0FZ95PF7SK0MYRNAOUHTWA4OLV","","486.60000002384186","img/food2.png","76","488.5999999642372","3","1","1","2","1,0.7,0,1,0.7,0,0.7,0,1","0.7,0,1,0.7,0,1,0,1,0.7","2","false",""
"","html-keyboard-response","287","153601","0.0-338.0","3SITXWYCNWVKV4QWZ7QEIN8537PXBE","A24LB89P1BPKKF","3THR0FZ95PF7SK0MYRNAOUHTWA4OLV","","null","<img src=""img/food2.png"" style=""width:200px; border:14px solid green;"">","null","","","","","","","","","",""
"","image-keyboard-response","288","153882","0.0-340.0","3SITXWYCNWVKV4QWZ7QEIN8537PXBE","A24LB89P1BPKKF","3THR0FZ95PF7SK0MYRNAOUHTWA4OLV","","278.30000001192093","img/food2.png","76","280.2999999523163","3","1","1","2","1,0.7,0,1,0.7,0,0.7,0,1","0.7,0,1,0.7,0,1,0,1,0.7","2","false",""
"","html-keyboard-response","289","154187","0.0-341.0","3SITXWYCNWVKV4QWZ7QEIN8537PXBE","A24LB89P1BPKKF","3THR0FZ95PF7SK0MYRNAOUHTWA4OLV","","null","<img src=""img/food2.png"" style=""width:200px; border:14px solid green;"">","null","","","","","","","","","",""
"","image-keyboard-response","290","155072","0.0-343.0","3SITXWYCNWVKV4QWZ7QEIN8537PXBE","A24LB89P1BPKKF","3THR0FZ95PF7SK0MYRNAOUHTWA4OLV","","882.5","img/food5.png","76","884.1000000238419","3","1","2","2","1,0.7,0,1,0.7,0,0.7,0,1","0.7,0,1,0.7,0,1,0,1,0.7","2","false",""
"","html-keyboard-response","291","155374","0.0-344.0","3SITXWYCNWVKV4QWZ7QEIN8537PXBE","A24LB89P1BPKKF","3THR0FZ95PF7SK0MYRNAOUHTWA4OLV","","null","<img src=""img/food5.png"" style=""width:200px; border:14px solid green;"">","null","","","","","","","","","",""
"","image-keyboard-response","292","155637","0.0-346.0","3SITXWYCNWVKV4QWZ7QEIN8537PXBE","A24LB89P1BPKKF","3THR0FZ95PF7SK0MYRNAOUHTWA4OLV","","259.7999999523163","img/food5.png","76","262.30000001192093","3","1","2","2","1,0.7,0,1,0.7,0,0.7,0,1","0.7,0,1,0.7,0,1,0,1,0.7","2","false",""
"","html-keyboard-response","293","155940","0.0-347.0","3SITXWYCNWVKV4QWZ7QEIN8537PXBE","A24LB89P1BPKKF","3THR0FZ95PF7SK0MYRNAOUHTWA4OLV","","null","<img src=""img/food5.png"" style=""width:200px; border:14px solid green;"">","null","","","","","","","","","",""
"","image-keyboard-response","294","156391","0.0-349.0","3SITXWYCNWVKV4QWZ7QEIN8537PXBE","A24LB89P1BPKKF","3THR0FZ95PF7SK0MYRNAOUHTWA4OLV","","449.5","img/food2.png","76","450.4000000357628","3","1","1","2","1,0.7,0,1,0.7,0,0.7,0,1","0.7,0,1,0.7,0,1,0,1,0.7","2","false",""
"","html-keyboard-response","295","156698","0.0-350.0","3SITXWYCNWVKV4QWZ7QEIN8537PXBE","A24LB89P1BPKKF","3THR0FZ95PF7SK0MYRNAOUHTWA4OLV","","null","<img src=""img/food2.png"" style=""width:200px; border:14px solid green;"">","null","","","","","","","","","",""
"","image-keyboard-response","296","157081","0.0-352.0","3SITXWYCNWVKV4QWZ7QEIN8537PXBE","A24LB89P1BPKKF","3THR0FZ95PF7SK0MYRNAOUHTWA4OLV","","380.30000001192093","img/food5.png","76","382.5","3","1","2","2","1,0.7,0,1,0.7,0,0.7,0,1","0.7,0,1,0.7,0,1,0,1,0.7","2","false",""
"","html-keyboard-response","297","157384","0.0-353.0","3SITXWYCNWVKV4QWZ7QEIN8537PXBE","A24LB89P1BPKKF","3THR0FZ95PF7SK0MYRNAOUHTWA4OLV","","null","<img src=""img/food5.png"" style=""width:200px; border:14px solid green;"">","null","","","","","","","","","",""
"","image-keyboard-response","298","157757","0.0-355.0","3SITXWYCNWVKV4QWZ7QEIN8537PXBE","A24LB89P1BPKKF","3THR0FZ95PF7SK0MYRNAOUHTWA4OLV","","370.39999997615814","img/food1.png","75","372.39999997615814","2","1","3","2","1,0.7,0,1,0.7,0,0.7,0,1","0.7,0,1,0.7,0,1,0,1,0.7","2","false",""
"","html-keyboard-response","299","158060","0.0-356.0","3SITXWYCNWVKV4QWZ7QEIN8537PXBE","A24LB89P1BPKKF","3THR0FZ95PF7SK0MYRNAOUHTWA4OLV","","null","<img src=""img/food1.png"" style=""width:200px; border:14px solid green;"">","null","","","","","","","","","",""
"","image-keyboard-response","300","158415","0.0-358.0","3SITXWYCNWVKV4QWZ7QEIN8537PXBE","A24LB89P1BPKKF","3THR0FZ95PF7SK0MYRNAOUHTWA4OLV","","352.10000002384186","img/food1.png","75","353.80000001192093","2","1","3","2","1,0.7,0,1,0.7,0,0.7,0,1","0.7,0,1,0.7,0,1,0,1,0.7","2","false",""
"","html-keyboard-response","301","158717","0.0-359.0","3SITXWYCNWVKV4QWZ7QEIN8537PXBE","A24LB89P1BPKKF","3THR0FZ95PF7SK0MYRNAOUHTWA4OLV","","null","<img src=""img/food1.png"" style=""width:200px; border:14px solid green;"">","null","","","","","","","","","",""
"","image-keyboard-response","302","159156","0.0-361.0","3SITXWYCNWVKV4QWZ7QEIN8537PXBE","A24LB89P1BPKKF","3THR0FZ95PF7SK0MYRNAOUHTWA4OLV","","436.80000001192093","img/food5.png","76","439.19999998807907","3","1","2","2","1,0.7,0,1,0.7,0,0.7,0,1","0.7,0,1,0.7,0,1,0,1,0.7","2","false",""
"","html-keyboard-response","303","159461","0.0-362.0","3SITXWYCNWVKV4QWZ7QEIN8537PXBE","A24LB89P1BPKKF","3THR0FZ95PF7SK0MYRNAOUHTWA4OLV","","null","<img src=""img/food5.png"" style=""width:200px; border:14px solid green;"">","null","","","","","","","","","",""
"","image-keyboard-response","304","159764","0.0-364.0","3SITXWYCNWVKV4QWZ7QEIN8537PXBE","A24LB89P1BPKKF","3THR0FZ95PF7SK0MYRNAOUHTWA4OLV","","300.2999999523163","img/food5.png","76","302.5999999642372","3","1","2","2","1,0.7,0,1,0.7,0,0.7,0,1","0.7,0,1,0.7,0,1,0,1,0.7","2","false",""
"","html-keyboard-response","305","160068","0.0-365.0","3SITXWYCNWVKV4QWZ7QEIN8537PXBE","A24LB89P1BPKKF","3THR0FZ95PF7SK0MYRNAOUHTWA4OLV","","null","<img src=""img/food5.png"" style=""width:200px; border:14px solid green;"">","null","","","","","","","","","",""
"","image-keyboard-response","306","160373","0.0-367.0","3SITXWYCNWVKV4QWZ7QEIN8537PXBE","A24LB89P1BPKKF","3THR0FZ95PF7SK0MYRNAOUHTWA4OLV","","303.19999998807907","img/food5.png","76","304.9000000357628","3","1","2","2","1,0.7,0,1,0.7,0,0.7,0,1","0.7,0,1,0.7,0,1,0,1,0.7","2","false",""
"","html-keyboard-response","307","160675","0.0-368.0","3SITXWYCNWVKV4QWZ7QEIN8537PXBE","A24LB89P1BPKKF","3THR0FZ95PF7SK0MYRNAOUHTWA4OLV","","null","<img src=""img/food5.png"" style=""width:200px; border:14px solid green;"">","null","","","","","","","","","",""
"","image-keyboard-response","308","160999","0.0-370.0","3SITXWYCNWVKV4QWZ7QEIN8537PXBE","A24LB89P1BPKKF","3THR0FZ95PF7SK0MYRNAOUHTWA4OLV","","321.19999998807907","img/food5.png","76","322.7999999523163","3","1","2","2","1,0.7,0,1,0.7,0,0.7,0,1","0.7,0,1,0.7,0,1,0,1,0.7","2","false",""
"","html-keyboard-response","309","161301","0.0-371.0","3SITXWYCNWVKV4QWZ7QEIN8537PXBE","A24LB89P1BPKKF","3THR0FZ95PF7SK0MYRNAOUHTWA4OLV","","null","<img src=""img/food5.png"" style=""width:200px; border:14px solid green;"">","null","","","","","","","","","",""
"","image-keyboard-response","310","161745","0.0-373.0","3SITXWYCNWVKV4QWZ7QEIN8537PXBE","A24LB89P1BPKKF","3THR0FZ95PF7SK0MYRNAOUHTWA4OLV","","440.69999998807907","img/food1.png","75","443.2999999523163","2","1","3","2","1,0.7,0,1,0.7,0,0.7,0,1","0.7,0,1,0.7,0,1,0,1,0.7","2","false",""
"","html-keyboard-response","311","162048","0.0-374.0","3SITXWYCNWVKV4QWZ7QEIN8537PXBE","A24LB89P1BPKKF","3THR0FZ95PF7SK0MYRNAOUHTWA4OLV","","null","<img src=""img/food1.png"" style=""width:200px; border:14px solid green;"">","null","","","","","","","","","",""
"","image-keyboard-response","312","162817","0.0-376.0","3SITXWYCNWVKV4QWZ7QEIN8537PXBE","A24LB89P1BPKKF","3THR0FZ95PF7SK0MYRNAOUHTWA4OLV","","766.5999999642372","img/food2.png","76","768.8000000119209","3","1","1","2","1,0.7,0,1,0.7,0,0.7,0,1","0.7,0,1,0.7,0,1,0,1,0.7","2","false",""
"","html-keyboard-response","313","163121","0.0-377.0","3SITXWYCNWVKV4QWZ7QEIN8537PXBE","A24LB89P1BPKKF","3THR0FZ95PF7SK0MYRNAOUHTWA4OLV","","null","<img src=""img/food2.png"" style=""width:200px; border:14px solid green;"">","null","","","","","","","","","",""
"","image-keyboard-response","314","163712","0.0-379.0","3SITXWYCNWVKV4QWZ7QEIN8537PXBE","A24LB89P1BPKKF","3THR0FZ95PF7SK0MYRNAOUHTWA4OLV","","588.7000000476837","img/food1.png","75","590.5","2","1","3","2","1,0.7,0,1,0.7,0,0.7,0,1","0.7,0,1,0.7,0,1,0,1,0.7","2","false",""
"","html-keyboard-response","315","164013","0.0-380.0","3SITXWYCNWVKV4QWZ7QEIN8537PXBE","A24LB89P1BPKKF","3THR0FZ95PF7SK0MYRNAOUHTWA4OLV","","null","<img src=""img/food1.png"" style=""width:200px; border:14px solid green;"">","null","","","","","","","","","",""
"","image-keyboard-response","316","164305","0.0-382.0","3SITXWYCNWVKV4QWZ7QEIN8537PXBE","A24LB89P1BPKKF","3THR0FZ95PF7SK0MYRNAOUHTWA4OLV","","289.69999998807907","img/food1.png","75","291.2999999523163","2","1","3","2","1,0.7,0,1,0.7,0,0.7,0,1","0.7,0,1,0.7,0,1,0,1,0.7","2","false",""
"","html-keyboard-response","317","164609","0.0-383.0","3SITXWYCNWVKV4QWZ7QEIN8537PXBE","A24LB89P1BPKKF","3THR0FZ95PF7SK0MYRNAOUHTWA4OLV","","null","<img src=""img/food1.png"" style=""width:200px; border:14px solid green;"">","null","","","","","","","","","",""
"","image-keyboard-response","318","165072","0.0-385.0","3SITXWYCNWVKV4QWZ7QEIN8537PXBE","A24LB89P1BPKKF","3THR0FZ95PF7SK0MYRNAOUHTWA4OLV","","461.5","img/food5.png","76","462.7000000476837","3","1","2","2","1,0.7,0,1,0.7,0,0.7,0,1","0.7,0,1,0.7,0,1,0,1,0.7","2","false",""
"","html-keyboard-response","319","165375","0.0-386.0","3SITXWYCNWVKV4QWZ7QEIN8537PXBE","A24LB89P1BPKKF","3THR0FZ95PF7SK0MYRNAOUHTWA4OLV","","null","<img src=""img/food5.png"" style=""width:200px; border:14px solid green;"">","null","","","","","","","","","",""
"","image-keyboard-response","320","165645","0.0-388.0","3SITXWYCNWVKV4QWZ7QEIN8537PXBE","A24LB89P1BPKKF","3THR0FZ95PF7SK0MYRNAOUHTWA4OLV","","267","img/food5.png","76","269.0999999642372","3","1","2","2","1,0.7,0,1,0.7,0,0.7,0,1","0.7,0,1,0.7,0,1,0,1,0.7","2","false",""
"","html-keyboard-response","321","165947","0.0-389.0","3SITXWYCNWVKV4QWZ7QEIN8537PXBE","A24LB89P1BPKKF","3THR0FZ95PF7SK0MYRNAOUHTWA4OLV","","null","<img src=""img/food5.png"" style=""width:200px; border:14px solid green;"">","null","","","","","","","","","",""
"","image-keyboard-response","322","166417","0.0-391.0","3SITXWYCNWVKV4QWZ7QEIN8537PXBE","A24LB89P1BPKKF","3THR0FZ95PF7SK0MYRNAOUHTWA4OLV","","467.30000001192093","img/food1.png","75","469.10000002384186","2","1","3","2","1,0.7,0,1,0.7,0,0.7,0,1","0.7,0,1,0.7,0,1,0,1,0.7","2","false",""
"","html-keyboard-response","323","166719","0.0-392.0","3SITXWYCNWVKV4QWZ7QEIN8537PXBE","A24LB89P1BPKKF","3THR0FZ95PF7SK0MYRNAOUHTWA4OLV","","null","<img src=""img/food1.png"" style=""width:200px; border:14px solid green;"">","null","","","","","","","","","",""
"","image-keyboard-response","324","167142","0.0-394.0","3SITXWYCNWVKV4QWZ7QEIN8537PXBE","A24LB89P1BPKKF","3THR0FZ95PF7SK0MYRNAOUHTWA4OLV","","420.69999998807907","img/food5.png","76","422.4000000357628","3","1","2","2","1,0.7,0,1,0.7,0,0.7,0,1","0.7,0,1,0.7,0,1,0,1,0.7","2","false",""
"","html-keyboard-response","325","167445","0.0-395.0","3SITXWYCNWVKV4QWZ7QEIN8537PXBE","A24LB89P1BPKKF","3THR0FZ95PF7SK0MYRNAOUHTWA4OLV","","null","<img src=""img/food5.png"" style=""width:200px; border:14px solid green;"">","null","","","","","","","","","",""
"","image-keyboard-response","326","167942","0.0-397.0","3SITXWYCNWVKV4QWZ7QEIN8537PXBE","A24LB89P1BPKKF","3THR0FZ95PF7SK0MYRNAOUHTWA4OLV","","493.9000000357628","img/food2.png","76","496","3","1","1","2","1,0.7,0,1,0.7,0,0.7,0,1","0.7,0,1,0.7,0,1,0,1,0.7","2","false",""
"","html-keyboard-response","327","168245","0.0-398.0","3SITXWYCNWVKV4QWZ7QEIN8537PXBE","A24LB89P1BPKKF","3THR0FZ95PF7SK0MYRNAOUHTWA4OLV","","null","<img src=""img/food2.png"" style=""width:200px; border:14px solid green;"">","null","","","","","","","","","",""
"","image-keyboard-response","328","168562","0.0-400.0","3SITXWYCNWVKV4QWZ7QEIN8537PXBE","A24LB89P1BPKKF","3THR0FZ95PF7SK0MYRNAOUHTWA4OLV","","314.4000000357628","img/food2.png","76","315.89999997615814","3","1","1","2","1,0.7,0,1,0.7,0,0.7,0,1","0.7,0,1,0.7,0,1,0,1,0.7","2","false",""
"","html-keyboard-response","329","168867","0.0-401.0","3SITXWYCNWVKV4QWZ7QEIN8537PXBE","A24LB89P1BPKKF","3THR0FZ95PF7SK0MYRNAOUHTWA4OLV","","null","<img src=""img/food2.png"" style=""width:200px; border:14px solid green;"">","null","","","","","","","","","",""
"","image-keyboard-response","330","169220","0.0-403.0","3SITXWYCNWVKV4QWZ7QEIN8537PXBE","A24LB89P1BPKKF","3THR0FZ95PF7SK0MYRNAOUHTWA4OLV","","351.60000002384186","img/food1.png","75","352.80000001192093","2","1","3","2","1,0.7,0,1,0.7,0,0.7,0,1","0.7,0,1,0.7,0,1,0,1,0.7","2","false",""
"","html-keyboard-response","331","169521","0.0-404.0","3SITXWYCNWVKV4QWZ7QEIN8537PXBE","A24LB89P1BPKKF","3THR0FZ95PF7SK0MYRNAOUHTWA4OLV","","null","<img src=""img/food1.png"" style=""width:200px; border:14px solid green;"">","null","","","","","","","","","",""
"","image-keyboard-response","332","169970","0.0-406.0","3SITXWYCNWVKV4QWZ7QEIN8537PXBE","A24LB89P1BPKKF","3THR0FZ95PF7SK0MYRNAOUHTWA4OLV","","446.30000001192093","img/food5.png","76","447.69999998807907","3","1","2","2","1,0.7,0,1,0.7,0,0.7,0,1","0.7,0,1,0.7,0,1,0,1,0.7","2","false",""
"","html-keyboard-response","333","170272","0.0-407.0","3SITXWYCNWVKV4QWZ7QEIN8537PXBE","A24LB89P1BPKKF","3THR0FZ95PF7SK0MYRNAOUHTWA4OLV","","null","<img src=""img/food5.png"" style=""width:200px; border:14px solid green;"">","null","","","","","","","","","",""
"","image-keyboard-response","334","170722","0.0-409.0","3SITXWYCNWVKV4QWZ7QEIN8537PXBE","A24LB89P1BPKKF","3THR0FZ95PF7SK0MYRNAOUHTWA4OLV","","448.19999998807907","img/food1.png","76","449.69999998807907","3","0","3","2","1,0.7,0,1,0.7,0,0.7,0,1","0.7,0,1,0.7,0,1,0,1,0.7","2","false",""
"","html-keyboard-response","335","171026","0.0-410.0","3SITXWYCNWVKV4QWZ7QEIN8537PXBE","A24LB89P1BPKKF","3THR0FZ95PF7SK0MYRNAOUHTWA4OLV","","null","<img src=""img/food1.png"" style=""width:200px;border:14px solid red;"">","null","","","","","","","","","",""
"","image-keyboard-response","336","171290","0.0-412.0","3SITXWYCNWVKV4QWZ7QEIN8537PXBE","A24LB89P1BPKKF","3THR0FZ95PF7SK0MYRNAOUHTWA4OLV","","261.80000001192093","img/food1.png","75","264","2","1","3","2","1,0.7,0,1,0.7,0,0.7,0,1","0.7,0,1,0.7,0,1,0,1,0.7","2","false",""
"","html-keyboard-response","337","171594","0.0-413.0","3SITXWYCNWVKV4QWZ7QEIN8537PXBE","A24LB89P1BPKKF","3THR0FZ95PF7SK0MYRNAOUHTWA4OLV","","null","<img src=""img/food1.png"" style=""width:200px; border:14px solid green;"">","null","","","","","","","","","",""
"","image-keyboard-response","338","171918","0.0-415.0","3SITXWYCNWVKV4QWZ7QEIN8537PXBE","A24LB89P1BPKKF","3THR0FZ95PF7SK0MYRNAOUHTWA4OLV","","321.19999998807907","img/food1.png","75","323.30000001192093","2","1","3","2","1,0.7,0,1,0.7,0,0.7,0,1","0.7,0,1,0.7,0,1,0,1,0.7","2","false",""
"","html-keyboard-response","339","172221","0.0-416.0","3SITXWYCNWVKV4QWZ7QEIN8537PXBE","A24LB89P1BPKKF","3THR0FZ95PF7SK0MYRNAOUHTWA4OLV","","null","<img src=""img/food1.png"" style=""width:200px; border:14px solid green;"">","null","","","","","","","","","",""
"","image-keyboard-response","340","172539","0.0-418.0","3SITXWYCNWVKV4QWZ7QEIN8537PXBE","A24LB89P1BPKKF","3THR0FZ95PF7SK0MYRNAOUHTWA4OLV","","315.30000001192093","img/food1.png","75","317.89999997615814","2","1","3","2","1,0.7,0,1,0.7,0,0.7,0,1","0.7,0,1,0.7,0,1,0,1,0.7","2","false",""
"","html-keyboard-response","341","172850","0.0-419.0","3SITXWYCNWVKV4QWZ7QEIN8537PXBE","A24LB89P1BPKKF","3THR0FZ95PF7SK0MYRNAOUHTWA4OLV","","null","<img src=""img/food1.png"" style=""width:200px; border:14px solid green;"">","null","","","","","","","","","",""
"","image-keyboard-response","342","173252","0.0-421.0","3SITXWYCNWVKV4QWZ7QEIN8537PXBE","A24LB89P1BPKKF","3THR0FZ95PF7SK0MYRNAOUHTWA4OLV","","399.5","img/food2.png","76","401.19999998807907","3","1","1","2","1,0.7,0,1,0.7,0,0.7,0,1","0.7,0,1,0.7,0,1,0,1,0.7","2","false",""
"","html-keyboard-response","343","173555","0.0-422.0","3SITXWYCNWVKV4QWZ7QEIN8537PXBE","A24LB89P1BPKKF","3THR0FZ95PF7SK0MYRNAOUHTWA4OLV","","null","<img src=""img/food2.png"" style=""width:200px; border:14px solid green;"">","null","","","","","","","","","",""
"","image-keyboard-response","344","173941","0.0-424.0","3SITXWYCNWVKV4QWZ7QEIN8537PXBE","A24LB89P1BPKKF","3THR0FZ95PF7SK0MYRNAOUHTWA4OLV","","382.7000000476837","img/food5.png","76","385.0999999642372","3","1","2","2","1,0.7,0,1,0.7,0,0.7,0,1","0.7,0,1,0.7,0,1,0,1,0.7","2","false",""
"","html-keyboard-response","345","174245","0.0-425.0","3SITXWYCNWVKV4QWZ7QEIN8537PXBE","A24LB89P1BPKKF","3THR0FZ95PF7SK0MYRNAOUHTWA4OLV","","null","<img src=""img/food5.png"" style=""width:200px; border:14px solid green;"">","null","","","","","","","","","",""
"","image-keyboard-response","346","174670","0.0-427.0","3SITXWYCNWVKV4QWZ7QEIN8537PXBE","A24LB89P1BPKKF","3THR0FZ95PF7SK0MYRNAOUHTWA4OLV","","423.10000002384186","img/food2.png","75","425.30000001192093","2","0","1","2","1,0.7,0,1,0.7,0,0.7,0,1","0.7,0,1,0.7,0,1,0,1,0.7","2","false",""
"","html-keyboard-response","347","174973","0.0-428.0","3SITXWYCNWVKV4QWZ7QEIN8537PXBE","A24LB89P1BPKKF","3THR0FZ95PF7SK0MYRNAOUHTWA4OLV","","null","<img src=""img/food2.png"" style=""width:200px;border:14px solid red;"">","null","","","","","","","","","",""
"","image-keyboard-response","348","175177","0.0-430.0","3SITXWYCNWVKV4QWZ7QEIN8537PXBE","A24LB89P1BPKKF","3THR0FZ95PF7SK0MYRNAOUHTWA4OLV","","202.20000004768372","img/food2.png","76","204.0999999642372","3","1","1","2","1,0.7,0,1,0.7,0,0.7,0,1","0.7,0,1,0.7,0,1,0,1,0.7","2","false",""
"","html-keyboard-response","349","175480","0.0-431.0","3SITXWYCNWVKV4QWZ7QEIN8537PXBE","A24LB89P1BPKKF","3THR0FZ95PF7SK0MYRNAOUHTWA4OLV","","null","<img src=""img/food2.png"" style=""width:200px; border:14px solid green;"">","null","","","","","","","","","",""
"","image-keyboard-response","350","175974","0.0-433.0","3SITXWYCNWVKV4QWZ7QEIN8537PXBE","A24LB89P1BPKKF","3THR0FZ95PF7SK0MYRNAOUHTWA4OLV","","491.39999997615814","img/food1.png","75","493.0999999642372","2","1","3","2","1,0.7,0,1,0.7,0,0.7,0,1","0.7,0,1,0.7,0,1,0,1,0.7","2","false",""
"","html-keyboard-response","351","176280","0.0-434.0","3SITXWYCNWVKV4QWZ7QEIN8537PXBE","A24LB89P1BPKKF","3THR0FZ95PF7SK0MYRNAOUHTWA4OLV","","null","<img src=""img/food1.png"" style=""width:200px; border:14px solid green;"">","null","","","","","","","","","",""
"","image-keyboard-response","352","176618","0.0-436.0","3SITXWYCNWVKV4QWZ7QEIN8537PXBE","A24LB89P1BPKKF","3THR0FZ95PF7SK0MYRNAOUHTWA4OLV","","334.5","img/food1.png","75","336.39999997615814","2","1","3","2","1,0.7,0,1,0.7,0,0.7,0,1","0.7,0,1,0.7,0,1,0,1,0.7","2","false",""
"","html-keyboard-response","353","176920","0.0-437.0","3SITXWYCNWVKV4QWZ7QEIN8537PXBE","A24LB89P1BPKKF","3THR0FZ95PF7SK0MYRNAOUHTWA4OLV","","null","<img src=""img/food1.png"" style=""width:200px; border:14px solid green;"">","null","","","","","","","","","",""
"","image-keyboard-response","354","177340","0.0-439.0","3SITXWYCNWVKV4QWZ7QEIN8537PXBE","A24LB89P1BPKKF","3THR0FZ95PF7SK0MYRNAOUHTWA4OLV","","417.7000000476837","img/food2.png","76","419.30000001192093","3","1","1","2","1,0.7,0,1,0.7,0,0.7,0,1","0.7,0,1,0.7,0,1,0,1,0.7","2","false",""
"","html-keyboard-response","355","177643","0.0-440.0","3SITXWYCNWVKV4QWZ7QEIN8537PXBE","A24LB89P1BPKKF","3THR0FZ95PF7SK0MYRNAOUHTWA4OLV","","null","<img src=""img/food2.png"" style=""width:200px; border:14px solid green;"">","null","","","","","","","","","",""
"","image-keyboard-response","356","178215","0.0-442.0","3SITXWYCNWVKV4QWZ7QEIN8537PXBE","A24LB89P1BPKKF","3THR0FZ95PF7SK0MYRNAOUHTWA4OLV","","569.5","img/food5.png","76","571.3999999761581","3","1","2","2","1,0.7,0,1,0.7,0,0.7,0,1","0.7,0,1,0.7,0,1,0,1,0.7","2","false",""
"","html-keyboard-response","357","178518","0.0-443.0","3SITXWYCNWVKV4QWZ7QEIN8537PXBE","A24LB89P1BPKKF","3THR0FZ95PF7SK0MYRNAOUHTWA4OLV","","null","<img src=""img/food5.png"" style=""width:200px; border:14px solid green;"">","null","","","","","","","","","",""
"","image-keyboard-response","358","178971","0.0-445.0","3SITXWYCNWVKV4QWZ7QEIN8537PXBE","A24LB89P1BPKKF","3THR0FZ95PF7SK0MYRNAOUHTWA4OLV","","450.9000000357628","img/food1.png","75","452.60000002384186","2","1","3","2","1,0.7,0,1,0.7,0,0.7,0,1","0.7,0,1,0.7,0,1,0,1,0.7","2","false",""
"","html-keyboard-response","359","179275","0.0-446.0","3SITXWYCNWVKV4QWZ7QEIN8537PXBE","A24LB89P1BPKKF","3THR0FZ95PF7SK0MYRNAOUHTWA4OLV","","null","<img src=""img/food1.png"" style=""width:200px; border:14px solid green;"">","null","","","","","","","","","",""
"","image-keyboard-response","360","179885","0.0-448.0","3SITXWYCNWVKV4QWZ7QEIN8537PXBE","A24LB89P1BPKKF","3THR0FZ95PF7SK0MYRNAOUHTWA4OLV","","609.5","img/food5.png","76","610.3000000119209","3","1","2","2","1,0.7,0,1,0.7,0,0.7,0,1","0.7,0,1,0.7,0,1,0,1,0.7","2","false",""
"","html-keyboard-response","361","180188","0.0-449.0","3SITXWYCNWVKV4QWZ7QEIN8537PXBE","A24LB89P1BPKKF","3THR0FZ95PF7SK0MYRNAOUHTWA4OLV","","null","<img src=""img/food5.png"" style=""width:200px; border:14px solid green;"">","null","","","","","","","","","",""
"","image-keyboard-response","362","180639","0.0-451.0","3SITXWYCNWVKV4QWZ7QEIN8537PXBE","A24LB89P1BPKKF","3THR0FZ95PF7SK0MYRNAOUHTWA4OLV","","449.39999997615814","img/food2.png","76","450.2999999523163","3","1","1","2","1,0.7,0,1,0.7,0,0.7,0,1","0.7,0,1,0.7,0,1,0,1,0.7","2","false",""
"","html-keyboard-response","363","180941","0.0-452.0","3SITXWYCNWVKV4QWZ7QEIN8537PXBE","A24LB89P1BPKKF","3THR0FZ95PF7SK0MYRNAOUHTWA4OLV","","null","<img src=""img/food2.png"" style=""width:200px; border:14px solid green;"">","null","","","","","","","","","",""
"","instructions","364","182804","0.0-454.0","3SITXWYCNWVKV4QWZ7QEIN8537PXBE","A24LB89P1BPKKF","3THR0FZ95PF7SK0MYRNAOUHTWA4OLV","[{""page_index"":0,""viewing_time"":1861.199999988079}]","1861.5","","","","","","","","","","","",""
"","survey-text","365","187097","0.0-455.0","3SITXWYCNWVKV4QWZ7QEIN8537PXBE","A24LB89P1BPKKF","3THR0FZ95PF7SK0MYRNAOUHTWA4OLV","","4288","","","","","","","","","","","","{""Q0"":""A24LB89P1BPKKF""}"
