"success","trial_type","trial_index","time_elapsed","internal_node_id","assignmentID","mturkID","hitID","view_history","rt","stimulus","key_press","reactionTime","a","r","s","cond","reward_cond","reward_cond_actual","reward_matrix_idx","warning","responses"
"true","fullscreen","0","3146","0.0-0.0","3WRFBPLXRBAAGF8FI8OZ22JVEWJ3NH","A27LCUA35LPVM8","3TKXBROM5TWR181JXBYSOI8FGFVJIU","","","","","","","","","","","","","",""
"","instructions","1","25615","0.0-1.0","3WRFBPLXRBAAGF8FI8OZ22JVEWJ3NH","A27LCUA35LPVM8","3TKXBROM5TWR181JXBYSOI8FGFVJIU","[{""page_index"":0,""viewing_time"":1697.7000000476837},{""page_index"":1,""viewing_time"":1288.0999999046326},{""page_index"":2,""viewing_time"":3351.7000000476837},{""page_index"":3,""viewing_time"":6703.900000095367},{""page_index"":4,""viewing_time"":2671.899999856949},{""page_index"":5,""viewing_time"":5272},{""page_index"":6,""viewing_time"":1480}]","22465.700000047684","","","","","","","","","","","",""
"","image-keyboard-response","2","26391","0.0-2.0","3WRFBPLXRBAAGF8FI8OZ22JVEWJ3NH","A27LCUA35LPVM8","3TKXBROM5TWR181JXBYSOI8FGFVJIU","","774.0999999046326","img/food4.png","74","775.2999999523163","1","0","3","1","1,0.5,0,1,0.5,0,0.5,0,1","0.5,0,1,0.5,0,1,0,1,0.5","2","",""
"","html-keyboard-response","3","26705","0.0-3.0","3WRFBPLXRBAAGF8FI8OZ22JVEWJ3NH","A27LCUA35LPVM8","3TKXBROM5TWR181JXBYSOI8FGFVJIU","","null","<img src=""img/food4.png"" style=""width:200px;border:14px solid red;"">","null","","","","","","","","","",""
"","image-keyboard-response","4","26814","0.0-4.0","3WRFBPLXRBAAGF8FI8OZ22JVEWJ3NH","A27LCUA35LPVM8","3TKXBROM5TWR181JXBYSOI8FGFVJIU","","107.5","img/food4.png","75","108.70000004768372","2","1","3","1","1,0.5,0,1,0.5,0,0.5,0,1","0.5,0,1,0.5,0,1,0,1,0.5","2","",""
"","html-keyboard-response","5","27130","0.0-5.0","3WRFBPLXRBAAGF8FI8OZ22JVEWJ3NH","A27LCUA35LPVM8","3TKXBROM5TWR181JXBYSOI8FGFVJIU","","null","<img src=""img/food4.png"" style=""width:200px; border:14px solid green;"">","null","","","","","","","","","",""
"","image-keyboard-response","6","28095","0.0-6.0","3WRFBPLXRBAAGF8FI8OZ22JVEWJ3NH","A27LCUA35LPVM8","3TKXBROM5TWR181JXBYSOI8FGFVJIU","","963.1999998092651","img/food1.png","74","964.8000001907349","1","0","1","1","1,0.5,0,1,0.5,0,0.5,0,1","0.5,0,1,0.5,0,1,0,1,0.5","2","",""
"","html-keyboard-response","7","28406","0.0-7.0","3WRFBPLXRBAAGF8FI8OZ22JVEWJ3NH","A27LCUA35LPVM8","3TKXBROM5TWR181JXBYSOI8FGFVJIU","","null","<img src=""img/food1.png"" style=""width:200px;border:14px solid red;"">","null","","","","","","","","","",""
"","image-keyboard-response","8","29079","0.0-8.0","3WRFBPLXRBAAGF8FI8OZ22JVEWJ3NH","A27LCUA35LPVM8","3TKXBROM5TWR181JXBYSOI8FGFVJIU","","671.5999999046326","img/food5.png","76","673.0999999046326","3","1","2","1","1,0.5,0,1,0.5,0,0.5,0,1","0.5,0,1,0.5,0,1,0,1,0.5","2","",""
"","html-keyboard-response","9","29382","0.0-9.0","3WRFBPLXRBAAGF8FI8OZ22JVEWJ3NH","A27LCUA35LPVM8","3TKXBROM5TWR181JXBYSOI8FGFVJIU","","null","<img src=""img/food5.png"" style=""width:200px; border:14px solid green;"">","null","","","","","","","","","",""
"","image-keyboard-response","10","30063","0.0-10.0","3WRFBPLXRBAAGF8FI8OZ22JVEWJ3NH","A27LCUA35LPVM8","3TKXBROM5TWR181JXBYSOI8FGFVJIU","","679.7000000476837","img/food5.png","76","681.0999999046326","3","1","2","1","1,0.5,0,1,0.5,0,0.5,0,1","0.5,0,1,0.5,0,1,0,1,0.5","2","",""
"","html-keyboard-response","11","30366","0.0-11.0","3WRFBPLXRBAAGF8FI8OZ22JVEWJ3NH","A27LCUA35LPVM8","3TKXBROM5TWR181JXBYSOI8FGFVJIU","","null","<img src=""img/food5.png"" style=""width:200px; border:14px solid green;"">","null","","","","","","","","","",""
"","image-keyboard-response","12","31278","0.0-12.0","3WRFBPLXRBAAGF8FI8OZ22JVEWJ3NH","A27LCUA35LPVM8","3TKXBROM5TWR181JXBYSOI8FGFVJIU","","911.1000001430511","img/food4.png","75","912.2000000476837","2","1","3","1","1,0.5,0,1,0.5,0,0.5,0,1","0.5,0,1,0.5,0,1,0,1,0.5","2","",""
"","html-keyboard-response","13","31580","0.0-13.0","3WRFBPLXRBAAGF8FI8OZ22JVEWJ3NH","A27LCUA35LPVM8","3TKXBROM5TWR181JXBYSOI8FGFVJIU","","null","<img src=""img/food4.png"" style=""width:200px; border:14px solid green;"">","null","","","","","","","","","",""
"","image-keyboard-response","14","32167","0.0-14.0","3WRFBPLXRBAAGF8FI8OZ22JVEWJ3NH","A27LCUA35LPVM8","3TKXBROM5TWR181JXBYSOI8FGFVJIU","","585.8000001907349","img/food5.png","76","587.2000000476837","3","1","2","1","1,0.5,0,1,0.5,0,0.5,0,1","0.5,0,1,0.5,0,1,0,1,0.5","2","",""
"","html-keyboard-response","15","32470","0.0-15.0","3WRFBPLXRBAAGF8FI8OZ22JVEWJ3NH","A27LCUA35LPVM8","3TKXBROM5TWR181JXBYSOI8FGFVJIU","","null","<img src=""img/food5.png"" style=""width:200px; border:14px solid green;"">","null","","","","","","","","","",""
"","image-keyboard-response","16","33151","0.0-16.0","3WRFBPLXRBAAGF8FI8OZ22JVEWJ3NH","A27LCUA35LPVM8","3TKXBROM5TWR181JXBYSOI8FGFVJIU","","679.3000001907349","img/food5.png","76","680.7000000476837","3","1","2","1","1,0.5,0,1,0.5,0,0.5,0,1","0.5,0,1,0.5,0,1,0,1,0.5","2","",""
"","html-keyboard-response","17","33453","0.0-17.0","3WRFBPLXRBAAGF8FI8OZ22JVEWJ3NH","A27LCUA35LPVM8","3TKXBROM5TWR181JXBYSOI8FGFVJIU","","null","<img src=""img/food5.png"" style=""width:200px; border:14px solid green;"">","null","","","","","","","","","",""
"","image-keyboard-response","18","34023","0.0-18.0","3WRFBPLXRBAAGF8FI8OZ22JVEWJ3NH","A27LCUA35LPVM8","3TKXBROM5TWR181JXBYSOI8FGFVJIU","","568.4000000953674","img/food5.png","76","569.7999999523163","3","1","2","1","1,0.5,0,1,0.5,0,0.5,0,1","0.5,0,1,0.5,0,1,0,1,0.5","2","",""
"","html-keyboard-response","19","34326","0.0-19.0","3WRFBPLXRBAAGF8FI8OZ22JVEWJ3NH","A27LCUA35LPVM8","3TKXBROM5TWR181JXBYSOI8FGFVJIU","","null","<img src=""img/food5.png"" style=""width:200px; border:14px solid green;"">","null","","","","","","","","","",""
"","image-keyboard-response","20","35063","0.0-20.0","3WRFBPLXRBAAGF8FI8OZ22JVEWJ3NH","A27LCUA35LPVM8","3TKXBROM5TWR181JXBYSOI8FGFVJIU","","734.2999999523163","img/food1.png","74","736.7000000476837","1","0","1","1","1,0.5,0,1,0.5,0,0.5,0,1","0.5,0,1,0.5,0,1,0,1,0.5","2","",""
"","html-keyboard-response","21","35365","0.0-21.0","3WRFBPLXRBAAGF8FI8OZ22JVEWJ3NH","A27LCUA35LPVM8","3TKXBROM5TWR181JXBYSOI8FGFVJIU","","null","<img src=""img/food1.png"" style=""width:200px;border:14px solid red;"">","null","","","","","","","","","",""
"","image-keyboard-response","22","36159","0.0-22.0","3WRFBPLXRBAAGF8FI8OZ22JVEWJ3NH","A27LCUA35LPVM8","3TKXBROM5TWR181JXBYSOI8FGFVJIU","","792.2000000476837","img/food5.png","76","793.5","3","1","2","1","1,0.5,0,1,0.5,0,0.5,0,1","0.5,0,1,0.5,0,1,0,1,0.5","2","",""
"","html-keyboard-response","23","36461","0.0-23.0","3WRFBPLXRBAAGF8FI8OZ22JVEWJ3NH","A27LCUA35LPVM8","3TKXBROM5TWR181JXBYSOI8FGFVJIU","","null","<img src=""img/food5.png"" style=""width:200px; border:14px solid green;"">","null","","","","","","","","","",""
"","image-keyboard-response","24","37295","0.0-24.0","3WRFBPLXRBAAGF8FI8OZ22JVEWJ3NH","A27LCUA35LPVM8","3TKXBROM5TWR181JXBYSOI8FGFVJIU","","832.2999999523163","img/food4.png","75","833.3999998569489","2","1","3","1","1,0.5,0,1,0.5,0,0.5,0,1","0.5,0,1,0.5,0,1,0,1,0.5","2","",""
"","html-keyboard-response","25","37607","0.0-25.0","3WRFBPLXRBAAGF8FI8OZ22JVEWJ3NH","A27LCUA35LPVM8","3TKXBROM5TWR181JXBYSOI8FGFVJIU","","null","<img src=""img/food4.png"" style=""width:200px; border:14px solid green;"">","null","","","","","","","","","",""
"","image-keyboard-response","26","38230","0.0-26.0","3WRFBPLXRBAAGF8FI8OZ22JVEWJ3NH","A27LCUA35LPVM8","3TKXBROM5TWR181JXBYSOI8FGFVJIU","","622","img/food5.png","76","623.0999999046326","3","1","2","1","1,0.5,0,1,0.5,0,0.5,0,1","0.5,0,1,0.5,0,1,0,1,0.5","2","",""
"","html-keyboard-response","27","38532","0.0-27.0","3WRFBPLXRBAAGF8FI8OZ22JVEWJ3NH","A27LCUA35LPVM8","3TKXBROM5TWR181JXBYSOI8FGFVJIU","","null","<img src=""img/food5.png"" style=""width:200px; border:14px solid green;"">","null","","","","","","","","","",""
"","image-keyboard-response","28","39278","0.0-28.0","3WRFBPLXRBAAGF8FI8OZ22JVEWJ3NH","A27LCUA35LPVM8","3TKXBROM5TWR181JXBYSOI8FGFVJIU","","745.2000000476837","img/food1.png","76","746.4000000953674","3","1","1","1","1,0.5,0,1,0.5,0,0.5,0,1","0.5,0,1,0.5,0,1,0,1,0.5","2","",""
"","html-keyboard-response","29","39580","0.0-29.0","3WRFBPLXRBAAGF8FI8OZ22JVEWJ3NH","A27LCUA35LPVM8","3TKXBROM5TWR181JXBYSOI8FGFVJIU","","null","<img src=""img/food1.png"" style=""width:200px; border:14px solid green;"">","null","","","","","","","","","",""
"","image-keyboard-response","30","40215","0.0-30.0","3WRFBPLXRBAAGF8FI8OZ22JVEWJ3NH","A27LCUA35LPVM8","3TKXBROM5TWR181JXBYSOI8FGFVJIU","","633.9000000953674","img/food1.png","76","634.7999999523163","3","1","1","1","1,0.5,0,1,0.5,0,0.5,0,1","0.5,0,1,0.5,0,1,0,1,0.5","2","",""
"","html-keyboard-response","31","40519","0.0-31.0","3WRFBPLXRBAAGF8FI8OZ22JVEWJ3NH","A27LCUA35LPVM8","3TKXBROM5TWR181JXBYSOI8FGFVJIU","","null","<img src=""img/food1.png"" style=""width:200px; border:14px solid green;"">","null","","","","","","","","","",""
"","image-keyboard-response","32","41135","0.0-32.0","3WRFBPLXRBAAGF8FI8OZ22JVEWJ3NH","A27LCUA35LPVM8","3TKXBROM5TWR181JXBYSOI8FGFVJIU","","614.2000000476837","img/food4.png","75","615.5","2","1","3","1","1,0.5,0,1,0.5,0,0.5,0,1","0.5,0,1,0.5,0,1,0,1,0.5","2","",""
"","html-keyboard-response","33","41437","0.0-33.0","3WRFBPLXRBAAGF8FI8OZ22JVEWJ3NH","A27LCUA35LPVM8","3TKXBROM5TWR181JXBYSOI8FGFVJIU","","null","<img src=""img/food4.png"" style=""width:200px; border:14px solid green;"">","null","","","","","","","","","",""
"","image-keyboard-response","34","42079","0.0-34.0","3WRFBPLXRBAAGF8FI8OZ22JVEWJ3NH","A27LCUA35LPVM8","3TKXBROM5TWR181JXBYSOI8FGFVJIU","","640.7999999523163","img/food1.png","76","641.7999999523163","3","1","1","1","1,0.5,0,1,0.5,0,0.5,0,1","0.5,0,1,0.5,0,1,0,1,0.5","2","",""
"","html-keyboard-response","35","42382","0.0-35.0","3WRFBPLXRBAAGF8FI8OZ22JVEWJ3NH","A27LCUA35LPVM8","3TKXBROM5TWR181JXBYSOI8FGFVJIU","","null","<img src=""img/food1.png"" style=""width:200px; border:14px solid green;"">","null","","","","","","","","","",""
"","image-keyboard-response","36","43111","0.0-36.0","3WRFBPLXRBAAGF8FI8OZ22JVEWJ3NH","A27LCUA35LPVM8","3TKXBROM5TWR181JXBYSOI8FGFVJIU","","727","img/food5.png","76","728.2999999523163","3","1","2","1","1,0.5,0,1,0.5,0,0.5,0,1","0.5,0,1,0.5,0,1,0,1,0.5","2","",""
"","html-keyboard-response","37","43413","0.0-37.0","3WRFBPLXRBAAGF8FI8OZ22JVEWJ3NH","A27LCUA35LPVM8","3TKXBROM5TWR181JXBYSOI8FGFVJIU","","null","<img src=""img/food5.png"" style=""width:200px; border:14px solid green;"">","null","","","","","","","","","",""
"","image-keyboard-response","38","43903","0.0-38.0","3WRFBPLXRBAAGF8FI8OZ22JVEWJ3NH","A27LCUA35LPVM8","3TKXBROM5TWR181JXBYSOI8FGFVJIU","","488.2999999523163","img/food5.png","76","489.69999980926514","3","1","2","1","1,0.5,0,1,0.5,0,0.5,0,1","0.5,0,1,0.5,0,1,0,1,0.5","2","",""
"","html-keyboard-response","39","44205","0.0-39.0","3WRFBPLXRBAAGF8FI8OZ22JVEWJ3NH","A27LCUA35LPVM8","3TKXBROM5TWR181JXBYSOI8FGFVJIU","","null","<img src=""img/food5.png"" style=""width:200px; border:14px solid green;"">","null","","","","","","","","","",""
"","image-keyboard-response","40","45007","0.0-40.0","3WRFBPLXRBAAGF8FI8OZ22JVEWJ3NH","A27LCUA35LPVM8","3TKXBROM5TWR181JXBYSOI8FGFVJIU","","800.8999998569489","img/food1.png","76","801.8000001907349","3","1","1","1","1,0.5,0,1,0.5,0,0.5,0,1","0.5,0,1,0.5,0,1,0,1,0.5","2","",""
"","html-keyboard-response","41","45309","0.0-41.0","3WRFBPLXRBAAGF8FI8OZ22JVEWJ3NH","A27LCUA35LPVM8","3TKXBROM5TWR181JXBYSOI8FGFVJIU","","null","<img src=""img/food1.png"" style=""width:200px; border:14px solid green;"">","null","","","","","","","","","",""
"","image-keyboard-response","42","46023","0.0-42.0","3WRFBPLXRBAAGF8FI8OZ22JVEWJ3NH","A27LCUA35LPVM8","3TKXBROM5TWR181JXBYSOI8FGFVJIU","","712","img/food5.png","76","713.2999999523163","3","1","2","1","1,0.5,0,1,0.5,0,0.5,0,1","0.5,0,1,0.5,0,1,0,1,0.5","2","",""
"","html-keyboard-response","43","46326","0.0-43.0","3WRFBPLXRBAAGF8FI8OZ22JVEWJ3NH","A27LCUA35LPVM8","3TKXBROM5TWR181JXBYSOI8FGFVJIU","","null","<img src=""img/food5.png"" style=""width:200px; border:14px solid green;"">","null","","","","","","","","","",""
"","image-keyboard-response","44","47087","0.0-44.0","3WRFBPLXRBAAGF8FI8OZ22JVEWJ3NH","A27LCUA35LPVM8","3TKXBROM5TWR181JXBYSOI8FGFVJIU","","758.6999998092651","img/food1.png","76","760.5999999046326","3","1","1","1","1,0.5,0,1,0.5,0,0.5,0,1","0.5,0,1,0.5,0,1,0,1,0.5","2","",""
"","html-keyboard-response","45","47390","0.0-45.0","3WRFBPLXRBAAGF8FI8OZ22JVEWJ3NH","A27LCUA35LPVM8","3TKXBROM5TWR181JXBYSOI8FGFVJIU","","null","<img src=""img/food1.png"" style=""width:200px; border:14px solid green;"">","null","","","","","","","","","",""
"","image-keyboard-response","46","47935","0.0-46.0","3WRFBPLXRBAAGF8FI8OZ22JVEWJ3NH","A27LCUA35LPVM8","3TKXBROM5TWR181JXBYSOI8FGFVJIU","","543.6000001430511","img/food4.png","75","544.8999998569489","2","1","3","1","1,0.5,0,1,0.5,0,0.5,0,1","0.5,0,1,0.5,0,1,0,1,0.5","2","",""
"","html-keyboard-response","47","48239","0.0-47.0","3WRFBPLXRBAAGF8FI8OZ22JVEWJ3NH","A27LCUA35LPVM8","3TKXBROM5TWR181JXBYSOI8FGFVJIU","","null","<img src=""img/food4.png"" style=""width:200px; border:14px solid green;"">","null","","","","","","","","","",""
"","image-keyboard-response","48","48823","0.0-48.0","3WRFBPLXRBAAGF8FI8OZ22JVEWJ3NH","A27LCUA35LPVM8","3TKXBROM5TWR181JXBYSOI8FGFVJIU","","582.1000001430511","img/food4.png","75","583.4000000953674","2","1","3","1","1,0.5,0,1,0.5,0,0.5,0,1","0.5,0,1,0.5,0,1,0,1,0.5","2","",""
"","html-keyboard-response","49","49126","0.0-49.0","3WRFBPLXRBAAGF8FI8OZ22JVEWJ3NH","A27LCUA35LPVM8","3TKXBROM5TWR181JXBYSOI8FGFVJIU","","null","<img src=""img/food4.png"" style=""width:200px; border:14px solid green;"">","null","","","","","","","","","",""
"","image-keyboard-response","50","49702","0.0-50.0","3WRFBPLXRBAAGF8FI8OZ22JVEWJ3NH","A27LCUA35LPVM8","3TKXBROM5TWR181JXBYSOI8FGFVJIU","","574.4000000953674","img/food5.png","76","575.5999999046326","3","1","2","1","1,0.5,0,1,0.5,0,0.5,0,1","0.5,0,1,0.5,0,1,0,1,0.5","2","",""
"","html-keyboard-response","51","50005","0.0-51.0","3WRFBPLXRBAAGF8FI8OZ22JVEWJ3NH","A27LCUA35LPVM8","3TKXBROM5TWR181JXBYSOI8FGFVJIU","","null","<img src=""img/food5.png"" style=""width:200px; border:14px solid green;"">","null","","","","","","","","","",""
"","image-keyboard-response","52","50846","0.0-52.0","3WRFBPLXRBAAGF8FI8OZ22JVEWJ3NH","A27LCUA35LPVM8","3TKXBROM5TWR181JXBYSOI8FGFVJIU","","840.2999999523163","img/food4.png","75","840.9000000953674","2","1","3","1","1,0.5,0,1,0.5,0,0.5,0,1","0.5,0,1,0.5,0,1,0,1,0.5","2","",""
"","html-keyboard-response","53","51148","0.0-53.0","3WRFBPLXRBAAGF8FI8OZ22JVEWJ3NH","A27LCUA35LPVM8","3TKXBROM5TWR181JXBYSOI8FGFVJIU","","null","<img src=""img/food4.png"" style=""width:200px; border:14px solid green;"">","null","","","","","","","","","",""
"","image-keyboard-response","54","51591","0.0-54.0","3WRFBPLXRBAAGF8FI8OZ22JVEWJ3NH","A27LCUA35LPVM8","3TKXBROM5TWR181JXBYSOI8FGFVJIU","","441.19999980926514","img/food4.png","75","442.5","2","1","3","1","1,0.5,0,1,0.5,0,0.5,0,1","0.5,0,1,0.5,0,1,0,1,0.5","2","",""
"","html-keyboard-response","55","51894","0.0-55.0","3WRFBPLXRBAAGF8FI8OZ22JVEWJ3NH","A27LCUA35LPVM8","3TKXBROM5TWR181JXBYSOI8FGFVJIU","","null","<img src=""img/food4.png"" style=""width:200px; border:14px solid green;"">","null","","","","","","","","","",""
"","image-keyboard-response","56","52423","0.0-56.0","3WRFBPLXRBAAGF8FI8OZ22JVEWJ3NH","A27LCUA35LPVM8","3TKXBROM5TWR181JXBYSOI8FGFVJIU","","527.0999999046326","img/food1.png","76","528.2999999523163","3","1","1","1","1,0.5,0,1,0.5,0,0.5,0,1","0.5,0,1,0.5,0,1,0,1,0.5","2","",""
"","html-keyboard-response","57","52727","0.0-57.0","3WRFBPLXRBAAGF8FI8OZ22JVEWJ3NH","A27LCUA35LPVM8","3TKXBROM5TWR181JXBYSOI8FGFVJIU","","null","<img src=""img/food1.png"" style=""width:200px; border:14px solid green;"">","null","","","","","","","","","",""
"","image-keyboard-response","58","53279","0.0-58.0","3WRFBPLXRBAAGF8FI8OZ22JVEWJ3NH","A27LCUA35LPVM8","3TKXBROM5TWR181JXBYSOI8FGFVJIU","","550.4000000953674","img/food1.png","76","551.5","3","1","1","1","1,0.5,0,1,0.5,0,0.5,0,1","0.5,0,1,0.5,0,1,0,1,0.5","2","",""
"","html-keyboard-response","59","53582","0.0-59.0","3WRFBPLXRBAAGF8FI8OZ22JVEWJ3NH","A27LCUA35LPVM8","3TKXBROM5TWR181JXBYSOI8FGFVJIU","","null","<img src=""img/food1.png"" style=""width:200px; border:14px solid green;"">","null","","","","","","","","","",""
"","image-keyboard-response","60","54278","0.0-60.0","3WRFBPLXRBAAGF8FI8OZ22JVEWJ3NH","A27LCUA35LPVM8","3TKXBROM5TWR181JXBYSOI8FGFVJIU","","695","img/food5.png","76","696","3","1","2","1","1,0.5,0,1,0.5,0,0.5,0,1","0.5,0,1,0.5,0,1,0,1,0.5","2","",""
"","html-keyboard-response","61","54580","0.0-61.0","3WRFBPLXRBAAGF8FI8OZ22JVEWJ3NH","A27LCUA35LPVM8","3TKXBROM5TWR181JXBYSOI8FGFVJIU","","null","<img src=""img/food5.png"" style=""width:200px; border:14px solid green;"">","null","","","","","","","","","",""
"","image-keyboard-response","62","55391","0.0-62.0","3WRFBPLXRBAAGF8FI8OZ22JVEWJ3NH","A27LCUA35LPVM8","3TKXBROM5TWR181JXBYSOI8FGFVJIU","","809.4000000953674","img/food4.png","75","810.5999999046326","2","1","3","1","1,0.5,0,1,0.5,0,0.5,0,1","0.5,0,1,0.5,0,1,0,1,0.5","2","",""
"","html-keyboard-response","63","55694","0.0-63.0","3WRFBPLXRBAAGF8FI8OZ22JVEWJ3NH","A27LCUA35LPVM8","3TKXBROM5TWR181JXBYSOI8FGFVJIU","","null","<img src=""img/food4.png"" style=""width:200px; border:14px solid green;"">","null","","","","","","","","","",""
"","image-keyboard-response","64","56510","0.0-64.0","3WRFBPLXRBAAGF8FI8OZ22JVEWJ3NH","A27LCUA35LPVM8","3TKXBROM5TWR181JXBYSOI8FGFVJIU","","815","img/food1.png","76","816.1000001430511","3","1","1","1","1,0.5,0,1,0.5,0,0.5,0,1","0.5,0,1,0.5,0,1,0,1,0.5","2","",""
"","html-keyboard-response","65","56812","0.0-65.0","3WRFBPLXRBAAGF8FI8OZ22JVEWJ3NH","A27LCUA35LPVM8","3TKXBROM5TWR181JXBYSOI8FGFVJIU","","null","<img src=""img/food1.png"" style=""width:200px; border:14px solid green;"">","null","","","","","","","","","",""
"","image-keyboard-response","66","57351","0.0-66.0","3WRFBPLXRBAAGF8FI8OZ22JVEWJ3NH","A27LCUA35LPVM8","3TKXBROM5TWR181JXBYSOI8FGFVJIU","","538.1000001430511","img/food4.png","76","539.2000000476837","3","1","3","1","1,0.5,0,1,0.5,0,0.5,0,1","0.5,0,1,0.5,0,1,0,1,0.5","2","",""
"","html-keyboard-response","67","57653","0.0-67.0","3WRFBPLXRBAAGF8FI8OZ22JVEWJ3NH","A27LCUA35LPVM8","3TKXBROM5TWR181JXBYSOI8FGFVJIU","","null","<img src=""img/food4.png"" style=""width:200px; border:14px solid green;"">","null","","","","","","","","","",""
"","image-keyboard-response","68","58647","0.0-68.0","3WRFBPLXRBAAGF8FI8OZ22JVEWJ3NH","A27LCUA35LPVM8","3TKXBROM5TWR181JXBYSOI8FGFVJIU","","992.1000001430511","img/food4.png","76","993.4000000953674","3","1","3","1","1,0.5,0,1,0.5,0,0.5,0,1","0.5,0,1,0.5,0,1,0,1,0.5","2","",""
"","html-keyboard-response","69","58950","0.0-69.0","3WRFBPLXRBAAGF8FI8OZ22JVEWJ3NH","A27LCUA35LPVM8","3TKXBROM5TWR181JXBYSOI8FGFVJIU","","null","<img src=""img/food4.png"" style=""width:200px; border:14px solid green;"">","null","","","","","","","","","",""
"","image-keyboard-response","70","59447","0.0-70.0","3WRFBPLXRBAAGF8FI8OZ22JVEWJ3NH","A27LCUA35LPVM8","3TKXBROM5TWR181JXBYSOI8FGFVJIU","","496.2999999523163","img/food5.png","76","497.40000009536743","3","1","2","1","1,0.5,0,1,0.5,0,0.5,0,1","0.5,0,1,0.5,0,1,0,1,0.5","2","",""
"","html-keyboard-response","71","59753","0.0-71.0","3WRFBPLXRBAAGF8FI8OZ22JVEWJ3NH","A27LCUA35LPVM8","3TKXBROM5TWR181JXBYSOI8FGFVJIU","","null","<img src=""img/food5.png"" style=""width:200px; border:14px solid green;"">","null","","","","","","","","","",""
"","image-keyboard-response","72","60183","0.0-72.0","3WRFBPLXRBAAGF8FI8OZ22JVEWJ3NH","A27LCUA35LPVM8","3TKXBROM5TWR181JXBYSOI8FGFVJIU","","428.7999999523163","img/food5.png","76","429.60000014305115","3","1","2","1","1,0.5,0,1,0.5,0,0.5,0,1","0.5,0,1,0.5,0,1,0,1,0.5","2","",""
"","html-keyboard-response","73","60486","0.0-73.0","3WRFBPLXRBAAGF8FI8OZ22JVEWJ3NH","A27LCUA35LPVM8","3TKXBROM5TWR181JXBYSOI8FGFVJIU","","null","<img src=""img/food5.png"" style=""width:200px; border:14px solid green;"">","null","","","","","","","","","",""
"","image-keyboard-response","74","60991","0.0-74.0","3WRFBPLXRBAAGF8FI8OZ22JVEWJ3NH","A27LCUA35LPVM8","3TKXBROM5TWR181JXBYSOI8FGFVJIU","","504.5","img/food1.png","76","505.60000014305115","3","1","1","1","1,0.5,0,1,0.5,0,0.5,0,1","0.5,0,1,0.5,0,1,0,1,0.5","2","",""
"","html-keyboard-response","75","61294","0.0-75.0","3WRFBPLXRBAAGF8FI8OZ22JVEWJ3NH","A27LCUA35LPVM8","3TKXBROM5TWR181JXBYSOI8FGFVJIU","","null","<img src=""img/food1.png"" style=""width:200px; border:14px solid green;"">","null","","","","","","","","","",""
"","image-keyboard-response","76","61727","0.0-76.0","3WRFBPLXRBAAGF8FI8OZ22JVEWJ3NH","A27LCUA35LPVM8","3TKXBROM5TWR181JXBYSOI8FGFVJIU","","430.7000000476837","img/food4.png","76","431.89999985694885","3","0","3","1","1,0.5,0,1,0.5,0,0.5,0,1","0.5,0,1,0.5,0,1,0,1,0.5","2","",""
"","html-keyboard-response","77","62029","0.0-77.0","3WRFBPLXRBAAGF8FI8OZ22JVEWJ3NH","A27LCUA35LPVM8","3TKXBROM5TWR181JXBYSOI8FGFVJIU","","null","<img src=""img/food4.png"" style=""width:200px;border:14px solid red;"">","null","","","","","","","","","",""
"","image-keyboard-response","78","62615","0.0-78.0","3WRFBPLXRBAAGF8FI8OZ22JVEWJ3NH","A27LCUA35LPVM8","3TKXBROM5TWR181JXBYSOI8FGFVJIU","","584.4000000953674","img/food4.png","75","585.7000000476837","2","1","3","1","1,0.5,0,1,0.5,0,0.5,0,1","0.5,0,1,0.5,0,1,0,1,0.5","2","",""
"","html-keyboard-response","79","62917","0.0-79.0","3WRFBPLXRBAAGF8FI8OZ22JVEWJ3NH","A27LCUA35LPVM8","3TKXBROM5TWR181JXBYSOI8FGFVJIU","","null","<img src=""img/food4.png"" style=""width:200px; border:14px solid green;"">","null","","","","","","","","","",""
"","image-keyboard-response","80","63479","0.0-80.0","3WRFBPLXRBAAGF8FI8OZ22JVEWJ3NH","A27LCUA35LPVM8","3TKXBROM5TWR181JXBYSOI8FGFVJIU","","560.7999999523163","img/food1.png","76","561.6999998092651","3","1","1","1","1,0.5,0,1,0.5,0,0.5,0,1","0.5,0,1,0.5,0,1,0,1,0.5","2","",""
"","html-keyboard-response","81","63781","0.0-81.0","3WRFBPLXRBAAGF8FI8OZ22JVEWJ3NH","A27LCUA35LPVM8","3TKXBROM5TWR181JXBYSOI8FGFVJIU","","null","<img src=""img/food1.png"" style=""width:200px; border:14px solid green;"">","null","","","","","","","","","",""
"","image-keyboard-response","82","64376","0.0-82.0","3WRFBPLXRBAAGF8FI8OZ22JVEWJ3NH","A27LCUA35LPVM8","3TKXBROM5TWR181JXBYSOI8FGFVJIU","","593","img/food1.png","76","594.0999999046326","3","1","1","1","1,0.5,0,1,0.5,0,0.5,0,1","0.5,0,1,0.5,0,1,0,1,0.5","2","",""
"","html-keyboard-response","83","64679","0.0-83.0","3WRFBPLXRBAAGF8FI8OZ22JVEWJ3NH","A27LCUA35LPVM8","3TKXBROM5TWR181JXBYSOI8FGFVJIU","","null","<img src=""img/food1.png"" style=""width:200px; border:14px solid green;"">","null","","","","","","","","","",""
"","image-keyboard-response","84","65367","0.0-84.0","3WRFBPLXRBAAGF8FI8OZ22JVEWJ3NH","A27LCUA35LPVM8","3TKXBROM5TWR181JXBYSOI8FGFVJIU","","686.6999998092651","img/food1.png","76","687.9000000953674","3","1","1","1","1,0.5,0,1,0.5,0,0.5,0,1","0.5,0,1,0.5,0,1,0,1,0.5","2","",""
"","html-keyboard-response","85","65670","0.0-85.0","3WRFBPLXRBAAGF8FI8OZ22JVEWJ3NH","A27LCUA35LPVM8","3TKXBROM5TWR181JXBYSOI8FGFVJIU","","null","<img src=""img/food1.png"" style=""width:200px; border:14px solid green;"">","null","","","","","","","","","",""
"","image-keyboard-response","86","66223","0.0-86.0","3WRFBPLXRBAAGF8FI8OZ22JVEWJ3NH","A27LCUA35LPVM8","3TKXBROM5TWR181JXBYSOI8FGFVJIU","","551.5999999046326","img/food4.png","75","552.7999999523163","2","1","3","1","1,0.5,0,1,0.5,0,0.5,0,1","0.5,0,1,0.5,0,1,0,1,0.5","2","",""
"","html-keyboard-response","87","66526","0.0-87.0","3WRFBPLXRBAAGF8FI8OZ22JVEWJ3NH","A27LCUA35LPVM8","3TKXBROM5TWR181JXBYSOI8FGFVJIU","","null","<img src=""img/food4.png"" style=""width:200px; border:14px solid green;"">","null","","","","","","","","","",""
"","image-keyboard-response","88","67095","0.0-88.0","3WRFBPLXRBAAGF8FI8OZ22JVEWJ3NH","A27LCUA35LPVM8","3TKXBROM5TWR181JXBYSOI8FGFVJIU","","567","img/food1.png","76","568.3999998569489","3","1","1","1","1,0.5,0,1,0.5,0,0.5,0,1","0.5,0,1,0.5,0,1,0,1,0.5","2","",""
"","html-keyboard-response","89","67398","0.0-89.0","3WRFBPLXRBAAGF8FI8OZ22JVEWJ3NH","A27LCUA35LPVM8","3TKXBROM5TWR181JXBYSOI8FGFVJIU","","null","<img src=""img/food1.png"" style=""width:200px; border:14px solid green;"">","null","","","","","","","","","",""
"","image-keyboard-response","90","68239","0.0-90.0","3WRFBPLXRBAAGF8FI8OZ22JVEWJ3NH","A27LCUA35LPVM8","3TKXBROM5TWR181JXBYSOI8FGFVJIU","","839.3000001907349","img/food5.png","76","840.7000000476837","3","1","2","1","1,0.5,0,1,0.5,0,0.5,0,1","0.5,0,1,0.5,0,1,0,1,0.5","2","",""
"","html-keyboard-response","91","68541","0.0-91.0","3WRFBPLXRBAAGF8FI8OZ22JVEWJ3NH","A27LCUA35LPVM8","3TKXBROM5TWR181JXBYSOI8FGFVJIU","","null","<img src=""img/food5.png"" style=""width:200px; border:14px solid green;"">","null","","","","","","","","","",""
"","image-keyboard-response","92","69295","0.0-92.0","3WRFBPLXRBAAGF8FI8OZ22JVEWJ3NH","A27LCUA35LPVM8","3TKXBROM5TWR181JXBYSOI8FGFVJIU","","751.5999999046326","img/food4.png","76","752.8999998569489","3","1","3","1","1,0.5,0,1,0.5,0,0.5,0,1","0.5,0,1,0.5,0,1,0,1,0.5","2","",""
"","html-keyboard-response","93","69596","0.0-93.0","3WRFBPLXRBAAGF8FI8OZ22JVEWJ3NH","A27LCUA35LPVM8","3TKXBROM5TWR181JXBYSOI8FGFVJIU","","null","<img src=""img/food4.png"" style=""width:200px; border:14px solid green;"">","null","","","","","","","","","",""
"","image-keyboard-response","94","70719","0.0-94.0","3WRFBPLXRBAAGF8FI8OZ22JVEWJ3NH","A27LCUA35LPVM8","3TKXBROM5TWR181JXBYSOI8FGFVJIU","","1121.1000001430511","img/food1.png","76","1122.2000000476837","3","1","1","1","1,0.5,0,1,0.5,0,0.5,0,1","0.5,0,1,0.5,0,1,0,1,0.5","2","",""
"","html-keyboard-response","95","71022","0.0-95.0","3WRFBPLXRBAAGF8FI8OZ22JVEWJ3NH","A27LCUA35LPVM8","3TKXBROM5TWR181JXBYSOI8FGFVJIU","","null","<img src=""img/food1.png"" style=""width:200px; border:14px solid green;"">","null","","","","","","","","","",""
"","image-keyboard-response","96","71767","0.0-96.0","3WRFBPLXRBAAGF8FI8OZ22JVEWJ3NH","A27LCUA35LPVM8","3TKXBROM5TWR181JXBYSOI8FGFVJIU","","743.5","img/food5.png","76","744.5999999046326","3","1","2","1","1,0.5,0,1,0.5,0,0.5,0,1","0.5,0,1,0.5,0,1,0,1,0.5","2","",""
"","html-keyboard-response","97","72068","0.0-97.0","3WRFBPLXRBAAGF8FI8OZ22JVEWJ3NH","A27LCUA35LPVM8","3TKXBROM5TWR181JXBYSOI8FGFVJIU","","null","<img src=""img/food5.png"" style=""width:200px; border:14px solid green;"">","null","","","","","","","","","",""
"","image-keyboard-response","98","72559","0.0-98.0","3WRFBPLXRBAAGF8FI8OZ22JVEWJ3NH","A27LCUA35LPVM8","3TKXBROM5TWR181JXBYSOI8FGFVJIU","","489.09999990463257","img/food5.png","76","490.59999990463257","3","1","2","1","1,0.5,0,1,0.5,0,0.5,0,1","0.5,0,1,0.5,0,1,0,1,0.5","2","",""
"","html-keyboard-response","99","72864","0.0-99.0","3WRFBPLXRBAAGF8FI8OZ22JVEWJ3NH","A27LCUA35LPVM8","3TKXBROM5TWR181JXBYSOI8FGFVJIU","","null","<img src=""img/food5.png"" style=""width:200px; border:14px solid green;"">","null","","","","","","","","","",""
"","image-keyboard-response","100","73382","0.0-100.0","3WRFBPLXRBAAGF8FI8OZ22JVEWJ3NH","A27LCUA35LPVM8","3TKXBROM5TWR181JXBYSOI8FGFVJIU","","517.2000000476837","img/food5.png","76","518.2000000476837","3","1","2","1","1,0.5,0,1,0.5,0,0.5,0,1","0.5,0,1,0.5,0,1,0,1,0.5","2","",""
"","html-keyboard-response","101","73685","0.0-101.0","3WRFBPLXRBAAGF8FI8OZ22JVEWJ3NH","A27LCUA35LPVM8","3TKXBROM5TWR181JXBYSOI8FGFVJIU","","null","<img src=""img/food5.png"" style=""width:200px; border:14px solid green;"">","null","","","","","","","","","",""
"","image-keyboard-response","102","74407","0.0-102.0","3WRFBPLXRBAAGF8FI8OZ22JVEWJ3NH","A27LCUA35LPVM8","3TKXBROM5TWR181JXBYSOI8FGFVJIU","","720","img/food1.png","76","721.0999999046326","3","1","1","1","1,0.5,0,1,0.5,0,0.5,0,1","0.5,0,1,0.5,0,1,0,1,0.5","2","",""
"","html-keyboard-response","103","74709","0.0-103.0","3WRFBPLXRBAAGF8FI8OZ22JVEWJ3NH","A27LCUA35LPVM8","3TKXBROM5TWR181JXBYSOI8FGFVJIU","","null","<img src=""img/food1.png"" style=""width:200px; border:14px solid green;"">","null","","","","","","","","","",""
"","image-keyboard-response","104","75127","0.0-104.0","3WRFBPLXRBAAGF8FI8OZ22JVEWJ3NH","A27LCUA35LPVM8","3TKXBROM5TWR181JXBYSOI8FGFVJIU","","416.39999985694885","img/food1.png","76","417.7999999523163","3","1","1","1","1,0.5,0,1,0.5,0,0.5,0,1","0.5,0,1,0.5,0,1,0,1,0.5","2","",""
"","html-keyboard-response","105","75430","0.0-105.0","3WRFBPLXRBAAGF8FI8OZ22JVEWJ3NH","A27LCUA35LPVM8","3TKXBROM5TWR181JXBYSOI8FGFVJIU","","null","<img src=""img/food1.png"" style=""width:200px; border:14px solid green;"">","null","","","","","","","","","",""
"","image-keyboard-response","106","75967","0.0-106.0","3WRFBPLXRBAAGF8FI8OZ22JVEWJ3NH","A27LCUA35LPVM8","3TKXBROM5TWR181JXBYSOI8FGFVJIU","","535.7999999523163","img/food4.png","75","536.7000000476837","2","1","3","1","1,0.5,0,1,0.5,0,0.5,0,1","0.5,0,1,0.5,0,1,0,1,0.5","2","",""
"","html-keyboard-response","107","76269","0.0-107.0","3WRFBPLXRBAAGF8FI8OZ22JVEWJ3NH","A27LCUA35LPVM8","3TKXBROM5TWR181JXBYSOI8FGFVJIU","","null","<img src=""img/food4.png"" style=""width:200px; border:14px solid green;"">","null","","","","","","","","","",""
"","image-keyboard-response","108","76742","0.0-108.0","3WRFBPLXRBAAGF8FI8OZ22JVEWJ3NH","A27LCUA35LPVM8","3TKXBROM5TWR181JXBYSOI8FGFVJIU","","471.90000009536743","img/food1.png","76","473","3","1","1","1","1,0.5,0,1,0.5,0,0.5,0,1","0.5,0,1,0.5,0,1,0,1,0.5","2","",""
"","html-keyboard-response","109","77051","0.0-109.0","3WRFBPLXRBAAGF8FI8OZ22JVEWJ3NH","A27LCUA35LPVM8","3TKXBROM5TWR181JXBYSOI8FGFVJIU","","null","<img src=""img/food1.png"" style=""width:200px; border:14px solid green;"">","null","","","","","","","","","",""
"","image-keyboard-response","110","77599","0.0-110.0","3WRFBPLXRBAAGF8FI8OZ22JVEWJ3NH","A27LCUA35LPVM8","3TKXBROM5TWR181JXBYSOI8FGFVJIU","","546.2999999523163","img/food1.png","76","547.5","3","1","1","1","1,0.5,0,1,0.5,0,0.5,0,1","0.5,0,1,0.5,0,1,0,1,0.5","2","",""
"","html-keyboard-response","111","77901","0.0-111.0","3WRFBPLXRBAAGF8FI8OZ22JVEWJ3NH","A27LCUA35LPVM8","3TKXBROM5TWR181JXBYSOI8FGFVJIU","","null","<img src=""img/food1.png"" style=""width:200px; border:14px solid green;"">","null","","","","","","","","","",""
"","image-keyboard-response","112","78694","0.0-112.0","3WRFBPLXRBAAGF8FI8OZ22JVEWJ3NH","A27LCUA35LPVM8","3TKXBROM5TWR181JXBYSOI8FGFVJIU","","791.5","img/food5.png","76","792.7999999523163","3","1","2","1","1,0.5,0,1,0.5,0,0.5,0,1","0.5,0,1,0.5,0,1,0,1,0.5","2","",""
"","html-keyboard-response","113","78997","0.0-113.0","3WRFBPLXRBAAGF8FI8OZ22JVEWJ3NH","A27LCUA35LPVM8","3TKXBROM5TWR181JXBYSOI8FGFVJIU","","null","<img src=""img/food5.png"" style=""width:200px; border:14px solid green;"">","null","","","","","","","","","",""
"","image-keyboard-response","114","79758","0.0-114.0","3WRFBPLXRBAAGF8FI8OZ22JVEWJ3NH","A27LCUA35LPVM8","3TKXBROM5TWR181JXBYSOI8FGFVJIU","","760.7000000476837","img/food4.png","75","761.5999999046326","2","1","3","1","1,0.5,0,1,0.5,0,0.5,0,1","0.5,0,1,0.5,0,1,0,1,0.5","2","",""
"","html-keyboard-response","115","80061","0.0-115.0","3WRFBPLXRBAAGF8FI8OZ22JVEWJ3NH","A27LCUA35LPVM8","3TKXBROM5TWR181JXBYSOI8FGFVJIU","","null","<img src=""img/food4.png"" style=""width:200px; border:14px solid green;"">","null","","","","","","","","","",""
"","image-keyboard-response","116","80758","0.0-116.0","3WRFBPLXRBAAGF8FI8OZ22JVEWJ3NH","A27LCUA35LPVM8","3TKXBROM5TWR181JXBYSOI8FGFVJIU","","695.5999999046326","img/food5.png","76","696.6999998092651","3","1","2","1","1,0.5,0,1,0.5,0,0.5,0,1","0.5,0,1,0.5,0,1,0,1,0.5","2","",""
"","html-keyboard-response","117","81060","0.0-117.0","3WRFBPLXRBAAGF8FI8OZ22JVEWJ3NH","A27LCUA35LPVM8","3TKXBROM5TWR181JXBYSOI8FGFVJIU","","null","<img src=""img/food5.png"" style=""width:200px; border:14px solid green;"">","null","","","","","","","","","",""
"","image-keyboard-response","118","81510","0.0-118.0","3WRFBPLXRBAAGF8FI8OZ22JVEWJ3NH","A27LCUA35LPVM8","3TKXBROM5TWR181JXBYSOI8FGFVJIU","","448.5","img/food1.png","76","449.7000000476837","3","1","1","1","1,0.5,0,1,0.5,0,0.5,0,1","0.5,0,1,0.5,0,1,0,1,0.5","2","",""
"","html-keyboard-response","119","81813","0.0-119.0","3WRFBPLXRBAAGF8FI8OZ22JVEWJ3NH","A27LCUA35LPVM8","3TKXBROM5TWR181JXBYSOI8FGFVJIU","","null","<img src=""img/food1.png"" style=""width:200px; border:14px solid green;"">","null","","","","","","","","","",""
"","image-keyboard-response","120","82239","0.0-120.0","3WRFBPLXRBAAGF8FI8OZ22JVEWJ3NH","A27LCUA35LPVM8","3TKXBROM5TWR181JXBYSOI8FGFVJIU","","425.2999999523163","img/food1.png","76","426.19999980926514","3","1","1","1","1,0.5,0,1,0.5,0,0.5,0,1","0.5,0,1,0.5,0,1,0,1,0.5","2","",""
"","html-keyboard-response","121","82541","0.0-121.0","3WRFBPLXRBAAGF8FI8OZ22JVEWJ3NH","A27LCUA35LPVM8","3TKXBROM5TWR181JXBYSOI8FGFVJIU","","null","<img src=""img/food1.png"" style=""width:200px; border:14px solid green;"">","null","","","","","","","","","",""
"","image-keyboard-response","122","82919","0.0-122.0","3WRFBPLXRBAAGF8FI8OZ22JVEWJ3NH","A27LCUA35LPVM8","3TKXBROM5TWR181JXBYSOI8FGFVJIU","","376.2999999523163","img/food1.png","76","377.30000019073486","3","1","1","1","1,0.5,0,1,0.5,0,0.5,0,1","0.5,0,1,0.5,0,1,0,1,0.5","2","",""
"","html-keyboard-response","123","83222","0.0-123.0","3WRFBPLXRBAAGF8FI8OZ22JVEWJ3NH","A27LCUA35LPVM8","3TKXBROM5TWR181JXBYSOI8FGFVJIU","","null","<img src=""img/food1.png"" style=""width:200px; border:14px solid green;"">","null","","","","","","","","","",""
"","image-keyboard-response","124","83655","0.0-124.0","3WRFBPLXRBAAGF8FI8OZ22JVEWJ3NH","A27LCUA35LPVM8","3TKXBROM5TWR181JXBYSOI8FGFVJIU","","431.2999999523163","img/food1.png","76","432.59999990463257","3","1","1","1","1,0.5,0,1,0.5,0,0.5,0,1","0.5,0,1,0.5,0,1,0,1,0.5","2","",""
"","html-keyboard-response","125","83958","0.0-125.0","3WRFBPLXRBAAGF8FI8OZ22JVEWJ3NH","A27LCUA35LPVM8","3TKXBROM5TWR181JXBYSOI8FGFVJIU","","null","<img src=""img/food1.png"" style=""width:200px; border:14px solid green;"">","null","","","","","","","","","",""
"","image-keyboard-response","126","84726","0.0-126.0","3WRFBPLXRBAAGF8FI8OZ22JVEWJ3NH","A27LCUA35LPVM8","3TKXBROM5TWR181JXBYSOI8FGFVJIU","","766.7000000476837","img/food5.png","76","768.5","3","1","2","1","1,0.5,0,1,0.5,0,0.5,0,1","0.5,0,1,0.5,0,1,0,1,0.5","2","",""
"","html-keyboard-response","127","85037","0.0-127.0","3WRFBPLXRBAAGF8FI8OZ22JVEWJ3NH","A27LCUA35LPVM8","3TKXBROM5TWR181JXBYSOI8FGFVJIU","","null","<img src=""img/food5.png"" style=""width:200px; border:14px solid green;"">","null","","","","","","","","","",""
"","image-keyboard-response","128","85615","0.0-128.0","3WRFBPLXRBAAGF8FI8OZ22JVEWJ3NH","A27LCUA35LPVM8","3TKXBROM5TWR181JXBYSOI8FGFVJIU","","576","img/food4.png","75","577.5","2","1","3","1","1,0.5,0,1,0.5,0,0.5,0,1","0.5,0,1,0.5,0,1,0,1,0.5","2","",""
"","html-keyboard-response","129","85918","0.0-129.0","3WRFBPLXRBAAGF8FI8OZ22JVEWJ3NH","A27LCUA35LPVM8","3TKXBROM5TWR181JXBYSOI8FGFVJIU","","null","<img src=""img/food4.png"" style=""width:200px; border:14px solid green;"">","null","","","","","","","","","",""
"","image-keyboard-response","130","86327","0.0-130.0","3WRFBPLXRBAAGF8FI8OZ22JVEWJ3NH","A27LCUA35LPVM8","3TKXBROM5TWR181JXBYSOI8FGFVJIU","","407.59999990463257","img/food5.png","76","409","3","1","2","1","1,0.5,0,1,0.5,0,0.5,0,1","0.5,0,1,0.5,0,1,0,1,0.5","2","",""
"","html-keyboard-response","131","86629","0.0-131.0","3WRFBPLXRBAAGF8FI8OZ22JVEWJ3NH","A27LCUA35LPVM8","3TKXBROM5TWR181JXBYSOI8FGFVJIU","","null","<img src=""img/food5.png"" style=""width:200px; border:14px solid green;"">","null","","","","","","","","","",""
"","image-keyboard-response","132","87247","0.0-132.0","3WRFBPLXRBAAGF8FI8OZ22JVEWJ3NH","A27LCUA35LPVM8","3TKXBROM5TWR181JXBYSOI8FGFVJIU","","616.8999998569489","img/food4.png","76","618.1000001430511","3","0","3","1","1,0.5,0,1,0.5,0,0.5,0,1","0.5,0,1,0.5,0,1,0,1,0.5","2","",""
"","html-keyboard-response","133","87549","0.0-133.0","3WRFBPLXRBAAGF8FI8OZ22JVEWJ3NH","A27LCUA35LPVM8","3TKXBROM5TWR181JXBYSOI8FGFVJIU","","null","<img src=""img/food4.png"" style=""width:200px;border:14px solid red;"">","null","","","","","","","","","",""
"","image-keyboard-response","134","88863","0.0-134.0","3WRFBPLXRBAAGF8FI8OZ22JVEWJ3NH","A27LCUA35LPVM8","3TKXBROM5TWR181JXBYSOI8FGFVJIU","","1312.2999999523163","img/food1.png","76","1313.5","3","1","1","1","1,0.5,0,1,0.5,0,0.5,0,1","0.5,0,1,0.5,0,1,0,1,0.5","2","",""
"","html-keyboard-response","135","89171","0.0-135.0","3WRFBPLXRBAAGF8FI8OZ22JVEWJ3NH","A27LCUA35LPVM8","3TKXBROM5TWR181JXBYSOI8FGFVJIU","","null","<img src=""img/food1.png"" style=""width:200px; border:14px solid green;"">","null","","","","","","","","","",""
"","image-keyboard-response","136","89646","0.0-136.0","3WRFBPLXRBAAGF8FI8OZ22JVEWJ3NH","A27LCUA35LPVM8","3TKXBROM5TWR181JXBYSOI8FGFVJIU","","474.10000014305115","img/food4.png","75","475.2999999523163","2","1","3","1","1,0.5,0,1,0.5,0,0.5,0,1","0.5,0,1,0.5,0,1,0,1,0.5","2","",""
"","html-keyboard-response","137","89949","0.0-137.0","3WRFBPLXRBAAGF8FI8OZ22JVEWJ3NH","A27LCUA35LPVM8","3TKXBROM5TWR181JXBYSOI8FGFVJIU","","null","<img src=""img/food4.png"" style=""width:200px; border:14px solid green;"">","null","","","","","","","","","",""
"","image-keyboard-response","138","90431","0.0-138.0","3WRFBPLXRBAAGF8FI8OZ22JVEWJ3NH","A27LCUA35LPVM8","3TKXBROM5TWR181JXBYSOI8FGFVJIU","","479.09999990463257","img/food1.png","76","480.39999985694885","3","1","1","1","1,0.5,0,1,0.5,0,0.5,0,1","0.5,0,1,0.5,0,1,0,1,0.5","2","",""
"","html-keyboard-response","139","90734","0.0-139.0","3WRFBPLXRBAAGF8FI8OZ22JVEWJ3NH","A27LCUA35LPVM8","3TKXBROM5TWR181JXBYSOI8FGFVJIU","","null","<img src=""img/food1.png"" style=""width:200px; border:14px solid green;"">","null","","","","","","","","","",""
"","image-keyboard-response","140","91311","0.0-140.0","3WRFBPLXRBAAGF8FI8OZ22JVEWJ3NH","A27LCUA35LPVM8","3TKXBROM5TWR181JXBYSOI8FGFVJIU","","576","img/food4.png","75","576.9000000953674","2","1","3","1","1,0.5,0,1,0.5,0,0.5,0,1","0.5,0,1,0.5,0,1,0,1,0.5","2","",""
"","html-keyboard-response","141","91613","0.0-141.0","3WRFBPLXRBAAGF8FI8OZ22JVEWJ3NH","A27LCUA35LPVM8","3TKXBROM5TWR181JXBYSOI8FGFVJIU","","null","<img src=""img/food4.png"" style=""width:200px; border:14px solid green;"">","null","","","","","","","","","",""
"","image-keyboard-response","142","92247","0.0-142.0","3WRFBPLXRBAAGF8FI8OZ22JVEWJ3NH","A27LCUA35LPVM8","3TKXBROM5TWR181JXBYSOI8FGFVJIU","","632.2999999523163","img/food5.png","76","633.6000001430511","3","1","2","1","1,0.5,0,1,0.5,0,0.5,0,1","0.5,0,1,0.5,0,1,0,1,0.5","2","",""
"","html-keyboard-response","143","92549","0.0-143.0","3WRFBPLXRBAAGF8FI8OZ22JVEWJ3NH","A27LCUA35LPVM8","3TKXBROM5TWR181JXBYSOI8FGFVJIU","","null","<img src=""img/food5.png"" style=""width:200px; border:14px solid green;"">","null","","","","","","","","","",""
"","image-keyboard-response","144","93224","0.0-144.0","3WRFBPLXRBAAGF8FI8OZ22JVEWJ3NH","A27LCUA35LPVM8","3TKXBROM5TWR181JXBYSOI8FGFVJIU","","672.9000000953674","img/food5.png","76","674.2000000476837","3","1","2","1","1,0.5,0,1,0.5,0,0.5,0,1","0.5,0,1,0.5,0,1,0,1,0.5","2","",""
"","html-keyboard-response","145","93526","0.0-145.0","3WRFBPLXRBAAGF8FI8OZ22JVEWJ3NH","A27LCUA35LPVM8","3TKXBROM5TWR181JXBYSOI8FGFVJIU","","null","<img src=""img/food5.png"" style=""width:200px; border:14px solid green;"">","null","","","","","","","","","",""
"","image-keyboard-response","146","94207","0.0-146.0","3WRFBPLXRBAAGF8FI8OZ22JVEWJ3NH","A27LCUA35LPVM8","3TKXBROM5TWR181JXBYSOI8FGFVJIU","","680.2000000476837","img/food4.png","75","681.1000001430511","2","1","3","1","1,0.5,0,1,0.5,0,0.5,0,1","0.5,0,1,0.5,0,1,0,1,0.5","2","",""
"","html-keyboard-response","147","94509","0.0-147.0","3WRFBPLXRBAAGF8FI8OZ22JVEWJ3NH","A27LCUA35LPVM8","3TKXBROM5TWR181JXBYSOI8FGFVJIU","","null","<img src=""img/food4.png"" style=""width:200px; border:14px solid green;"">","null","","","","","","","","","",""
"","image-keyboard-response","148","95311","0.0-148.0","3WRFBPLXRBAAGF8FI8OZ22JVEWJ3NH","A27LCUA35LPVM8","3TKXBROM5TWR181JXBYSOI8FGFVJIU","","800.2999999523163","img/food5.png","76","801.5","3","1","2","1","1,0.5,0,1,0.5,0,0.5,0,1","0.5,0,1,0.5,0,1,0,1,0.5","2","",""
"","html-keyboard-response","149","95614","0.0-149.0","3WRFBPLXRBAAGF8FI8OZ22JVEWJ3NH","A27LCUA35LPVM8","3TKXBROM5TWR181JXBYSOI8FGFVJIU","","null","<img src=""img/food5.png"" style=""width:200px; border:14px solid green;"">","null","","","","","","","","","",""
"","image-keyboard-response","150","96103","0.0-150.0","3WRFBPLXRBAAGF8FI8OZ22JVEWJ3NH","A27LCUA35LPVM8","3TKXBROM5TWR181JXBYSOI8FGFVJIU","","487.10000014305115","img/food5.png","76","488.39999985694885","3","1","2","1","1,0.5,0,1,0.5,0,0.5,0,1","0.5,0,1,0.5,0,1,0,1,0.5","2","",""
"","html-keyboard-response","151","96406","0.0-151.0","3WRFBPLXRBAAGF8FI8OZ22JVEWJ3NH","A27LCUA35LPVM8","3TKXBROM5TWR181JXBYSOI8FGFVJIU","","null","<img src=""img/food5.png"" style=""width:200px; border:14px solid green;"">","null","","","","","","","","","",""
"","image-keyboard-response","152","97199","0.0-152.0","3WRFBPLXRBAAGF8FI8OZ22JVEWJ3NH","A27LCUA35LPVM8","3TKXBROM5TWR181JXBYSOI8FGFVJIU","","790","img/food4.png","75","791.4000000953674","2","1","3","1","1,0.5,0,1,0.5,0,0.5,0,1","0.5,0,1,0.5,0,1,0,1,0.5","2","",""
"","html-keyboard-response","153","97500","0.0-153.0","3WRFBPLXRBAAGF8FI8OZ22JVEWJ3NH","A27LCUA35LPVM8","3TKXBROM5TWR181JXBYSOI8FGFVJIU","","null","<img src=""img/food4.png"" style=""width:200px; border:14px solid green;"">","null","","","","","","","","","",""
"","image-keyboard-response","154","98591","0.0-154.0","3WRFBPLXRBAAGF8FI8OZ22JVEWJ3NH","A27LCUA35LPVM8","3TKXBROM5TWR181JXBYSOI8FGFVJIU","","1089.2000000476837","img/food4.png","75","1090.5","2","1","3","1","1,0.5,0,1,0.5,0,0.5,0,1","0.5,0,1,0.5,0,1,0,1,0.5","2","",""
"","html-keyboard-response","155","98893","0.0-155.0","3WRFBPLXRBAAGF8FI8OZ22JVEWJ3NH","A27LCUA35LPVM8","3TKXBROM5TWR181JXBYSOI8FGFVJIU","","null","<img src=""img/food4.png"" style=""width:200px; border:14px solid green;"">","null","","","","","","","","","",""
"","image-keyboard-response","156","99591","0.0-156.0","3WRFBPLXRBAAGF8FI8OZ22JVEWJ3NH","A27LCUA35LPVM8","3TKXBROM5TWR181JXBYSOI8FGFVJIU","","696.3999998569489","img/food4.png","75","697.5","2","1","3","1","1,0.5,0,1,0.5,0,0.5,0,1","0.5,0,1,0.5,0,1,0,1,0.5","2","",""
"","html-keyboard-response","157","99893","0.0-157.0","3WRFBPLXRBAAGF8FI8OZ22JVEWJ3NH","A27LCUA35LPVM8","3TKXBROM5TWR181JXBYSOI8FGFVJIU","","null","<img src=""img/food4.png"" style=""width:200px; border:14px solid green;"">","null","","","","","","","","","",""
"","image-keyboard-response","158","100503","0.0-158.0","3WRFBPLXRBAAGF8FI8OZ22JVEWJ3NH","A27LCUA35LPVM8","3TKXBROM5TWR181JXBYSOI8FGFVJIU","","608.3999998569489","img/food1.png","76","609.7000000476837","3","1","1","1","1,0.5,0,1,0.5,0,0.5,0,1","0.5,0,1,0.5,0,1,0,1,0.5","2","",""
"","html-keyboard-response","159","100805","0.0-159.0","3WRFBPLXRBAAGF8FI8OZ22JVEWJ3NH","A27LCUA35LPVM8","3TKXBROM5TWR181JXBYSOI8FGFVJIU","","null","<img src=""img/food1.png"" style=""width:200px; border:14px solid green;"">","null","","","","","","","","","",""
"","image-keyboard-response","160","101607","0.0-160.0","3WRFBPLXRBAAGF8FI8OZ22JVEWJ3NH","A27LCUA35LPVM8","3TKXBROM5TWR181JXBYSOI8FGFVJIU","","800.9000000953674","img/food4.png","75","801.9000000953674","2","1","3","1","1,0.5,0,1,0.5,0,0.5,0,1","0.5,0,1,0.5,0,1,0,1,0.5","2","",""
"","html-keyboard-response","161","101910","0.0-161.0","3WRFBPLXRBAAGF8FI8OZ22JVEWJ3NH","A27LCUA35LPVM8","3TKXBROM5TWR181JXBYSOI8FGFVJIU","","null","<img src=""img/food4.png"" style=""width:200px; border:14px solid green;"">","null","","","","","","","","","",""
"","image-keyboard-response","162","102558","0.0-162.0","3WRFBPLXRBAAGF8FI8OZ22JVEWJ3NH","A27LCUA35LPVM8","3TKXBROM5TWR181JXBYSOI8FGFVJIU","","647.0999999046326","img/food5.png","76","648.1999998092651","3","1","2","1","1,0.5,0,1,0.5,0,0.5,0,1","0.5,0,1,0.5,0,1,0,1,0.5","2","",""
"","html-keyboard-response","163","102861","0.0-163.0","3WRFBPLXRBAAGF8FI8OZ22JVEWJ3NH","A27LCUA35LPVM8","3TKXBROM5TWR181JXBYSOI8FGFVJIU","","null","<img src=""img/food5.png"" style=""width:200px; border:14px solid green;"">","null","","","","","","","","","",""
"","image-keyboard-response","164","103375","0.0-164.0","3WRFBPLXRBAAGF8FI8OZ22JVEWJ3NH","A27LCUA35LPVM8","3TKXBROM5TWR181JXBYSOI8FGFVJIU","","512.7999999523163","img/food5.png","76","513.8999998569489","3","1","2","1","1,0.5,0,1,0.5,0,0.5,0,1","0.5,0,1,0.5,0,1,0,1,0.5","2","",""
"","html-keyboard-response","165","103678","0.0-165.0","3WRFBPLXRBAAGF8FI8OZ22JVEWJ3NH","A27LCUA35LPVM8","3TKXBROM5TWR181JXBYSOI8FGFVJIU","","null","<img src=""img/food5.png"" style=""width:200px; border:14px solid green;"">","null","","","","","","","","","",""
"","image-keyboard-response","166","104391","0.0-166.0","3WRFBPLXRBAAGF8FI8OZ22JVEWJ3NH","A27LCUA35LPVM8","3TKXBROM5TWR181JXBYSOI8FGFVJIU","","711.0999999046326","img/food1.png","76","712.4000000953674","3","1","1","1","1,0.5,0,1,0.5,0,0.5,0,1","0.5,0,1,0.5,0,1,0,1,0.5","2","",""
"","html-keyboard-response","167","104694","0.0-167.0","3WRFBPLXRBAAGF8FI8OZ22JVEWJ3NH","A27LCUA35LPVM8","3TKXBROM5TWR181JXBYSOI8FGFVJIU","","null","<img src=""img/food1.png"" style=""width:200px; border:14px solid green;"">","null","","","","","","","","","",""
"","image-keyboard-response","168","105302","0.0-168.0","3WRFBPLXRBAAGF8FI8OZ22JVEWJ3NH","A27LCUA35LPVM8","3TKXBROM5TWR181JXBYSOI8FGFVJIU","","606.8999998569489","img/food5.png","76","608","3","1","2","1","1,0.5,0,1,0.5,0,0.5,0,1","0.5,0,1,0.5,0,1,0,1,0.5","2","",""
"","html-keyboard-response","169","105604","0.0-169.0","3WRFBPLXRBAAGF8FI8OZ22JVEWJ3NH","A27LCUA35LPVM8","3TKXBROM5TWR181JXBYSOI8FGFVJIU","","null","<img src=""img/food5.png"" style=""width:200px; border:14px solid green;"">","null","","","","","","","","","",""
"","image-keyboard-response","170","106167","0.0-170.0","3WRFBPLXRBAAGF8FI8OZ22JVEWJ3NH","A27LCUA35LPVM8","3TKXBROM5TWR181JXBYSOI8FGFVJIU","","562","img/food4.png","76","563","3","1","3","1","1,0.5,0,1,0.5,0,0.5,0,1","0.5,0,1,0.5,0,1,0,1,0.5","2","",""
"","html-keyboard-response","171","106470","0.0-171.0","3WRFBPLXRBAAGF8FI8OZ22JVEWJ3NH","A27LCUA35LPVM8","3TKXBROM5TWR181JXBYSOI8FGFVJIU","","null","<img src=""img/food4.png"" style=""width:200px; border:14px solid green;"">","null","","","","","","","","","",""
"","image-keyboard-response","172","107351","0.0-172.0","3WRFBPLXRBAAGF8FI8OZ22JVEWJ3NH","A27LCUA35LPVM8","3TKXBROM5TWR181JXBYSOI8FGFVJIU","","879.3999998569489","img/food1.png","76","880.7000000476837","3","1","1","1","1,0.5,0,1,0.5,0,0.5,0,1","0.5,0,1,0.5,0,1,0,1,0.5","2","",""
"","html-keyboard-response","173","107654","0.0-173.0","3WRFBPLXRBAAGF8FI8OZ22JVEWJ3NH","A27LCUA35LPVM8","3TKXBROM5TWR181JXBYSOI8FGFVJIU","","null","<img src=""img/food1.png"" style=""width:200px; border:14px solid green;"">","null","","","","","","","","","",""
"","image-keyboard-response","174","108295","0.0-174.0","3WRFBPLXRBAAGF8FI8OZ22JVEWJ3NH","A27LCUA35LPVM8","3TKXBROM5TWR181JXBYSOI8FGFVJIU","","639.7999999523163","img/food5.png","76","640.7999999523163","3","1","2","1","1,0.5,0,1,0.5,0,0.5,0,1","0.5,0,1,0.5,0,1,0,1,0.5","2","",""
"","html-keyboard-response","175","108598","0.0-175.0","3WRFBPLXRBAAGF8FI8OZ22JVEWJ3NH","A27LCUA35LPVM8","3TKXBROM5TWR181JXBYSOI8FGFVJIU","","null","<img src=""img/food5.png"" style=""width:200px; border:14px solid green;"">","null","","","","","","","","","",""
"","image-keyboard-response","176","109199","0.0-176.0","3WRFBPLXRBAAGF8FI8OZ22JVEWJ3NH","A27LCUA35LPVM8","3TKXBROM5TWR181JXBYSOI8FGFVJIU","","600.2000000476837","img/food4.png","75","601","2","1","3","1","1,0.5,0,1,0.5,0,0.5,0,1","0.5,0,1,0.5,0,1,0,1,0.5","2","",""
"","html-keyboard-response","177","109502","0.0-177.0","3WRFBPLXRBAAGF8FI8OZ22JVEWJ3NH","A27LCUA35LPVM8","3TKXBROM5TWR181JXBYSOI8FGFVJIU","","null","<img src=""img/food4.png"" style=""width:200px; border:14px solid green;"">","null","","","","","","","","","",""
"","image-keyboard-response","178","110079","0.0-178.0","3WRFBPLXRBAAGF8FI8OZ22JVEWJ3NH","A27LCUA35LPVM8","3TKXBROM5TWR181JXBYSOI8FGFVJIU","","575.2999999523163","img/food1.png","76","576.4000000953674","3","1","1","1","1,0.5,0,1,0.5,0,0.5,0,1","0.5,0,1,0.5,0,1,0,1,0.5","2","",""
"","html-keyboard-response","179","110382","0.0-179.0","3WRFBPLXRBAAGF8FI8OZ22JVEWJ3NH","A27LCUA35LPVM8","3TKXBROM5TWR181JXBYSOI8FGFVJIU","","null","<img src=""img/food1.png"" style=""width:200px; border:14px solid green;"">","null","","","","","","","","","",""
"","image-keyboard-response","180","110942","0.0-180.0","3WRFBPLXRBAAGF8FI8OZ22JVEWJ3NH","A27LCUA35LPVM8","3TKXBROM5TWR181JXBYSOI8FGFVJIU","","559.1000001430511","img/food4.png","76","560","3","0","3","1","1,0.5,0,1,0.5,0,0.5,0,1","0.5,0,1,0.5,0,1,0,1,0.5","2","",""
"","html-keyboard-response","181","111244","0.0-181.0","3WRFBPLXRBAAGF8FI8OZ22JVEWJ3NH","A27LCUA35LPVM8","3TKXBROM5TWR181JXBYSOI8FGFVJIU","","null","<img src=""img/food4.png"" style=""width:200px;border:14px solid red;"">","null","","","","","","","","","",""
"","html-keyboard-response","182","114918","0.0-182.0","3WRFBPLXRBAAGF8FI8OZ22JVEWJ3NH","A27LCUA35LPVM8","3TKXBROM5TWR181JXBYSOI8FGFVJIU","","","","","","","","","","","","","",""
"","instructions","183","129710","0.0-183.0","3WRFBPLXRBAAGF8FI8OZ22JVEWJ3NH","A27LCUA35LPVM8","3TKXBROM5TWR181JXBYSOI8FGFVJIU","[{""page_index"":0,""viewing_time"":13654.900000095367},{""page_index"":1,""viewing_time"":1136}]","14791.299999952316","","","","","","","","","","","",""
"","image-keyboard-response","184","130214","0.0-184.0","3WRFBPLXRBAAGF8FI8OZ22JVEWJ3NH","A27LCUA35LPVM8","3TKXBROM5TWR181JXBYSOI8FGFVJIU","","503.5","img/food2.png","76","504.89999985694885","3","1","2","2","1,0.5,0,1,0.5,0,0.5,0,1","0.5,0,1,0.5,0,1,0,1,0.5","2","false",""
"","html-keyboard-response","185","130518","0.0-185.0","3WRFBPLXRBAAGF8FI8OZ22JVEWJ3NH","A27LCUA35LPVM8","3TKXBROM5TWR181JXBYSOI8FGFVJIU","","null","<img src=""img/food2.png"" style=""width:200px; border:14px solid green;"">","null","","","","","","","","","",""
"","image-keyboard-response","186","131302","0.0-187.0","3WRFBPLXRBAAGF8FI8OZ22JVEWJ3NH","A27LCUA35LPVM8","3TKXBROM5TWR181JXBYSOI8FGFVJIU","","782.5999999046326","img/food6.png","75","783.8999998569489","2","0","1","2","1,0.5,0,1,0.5,0,0.5,0,1","0.5,0,1,0.5,0,1,0,1,0.5","2","false",""
"","html-keyboard-response","187","131606","0.0-188.0","3WRFBPLXRBAAGF8FI8OZ22JVEWJ3NH","A27LCUA35LPVM8","3TKXBROM5TWR181JXBYSOI8FGFVJIU","","null","<img src=""img/food6.png"" style=""width:200px;border:14px solid red;"">","null","","","","","","","","","",""
"","image-keyboard-response","188","131990","0.0-190.0","3WRFBPLXRBAAGF8FI8OZ22JVEWJ3NH","A27LCUA35LPVM8","3TKXBROM5TWR181JXBYSOI8FGFVJIU","","382.5","img/food2.png","76","383.7000000476837","3","1","2","2","1,0.5,0,1,0.5,0,0.5,0,1","0.5,0,1,0.5,0,1,0,1,0.5","2","false",""
"","html-keyboard-response","189","132293","0.0-191.0","3WRFBPLXRBAAGF8FI8OZ22JVEWJ3NH","A27LCUA35LPVM8","3TKXBROM5TWR181JXBYSOI8FGFVJIU","","null","<img src=""img/food2.png"" style=""width:200px; border:14px solid green;"">","null","","","","","","","","","",""
"","image-keyboard-response","190","132830","0.0-193.0","3WRFBPLXRBAAGF8FI8OZ22JVEWJ3NH","A27LCUA35LPVM8","3TKXBROM5TWR181JXBYSOI8FGFVJIU","","535.7999999523163","img/food3.png","76","536.9000000953674","3","1","3","2","1,0.5,0,1,0.5,0,0.5,0,1","0.5,0,1,0.5,0,1,0,1,0.5","2","false",""
"","html-keyboard-response","191","133133","0.0-194.0","3WRFBPLXRBAAGF8FI8OZ22JVEWJ3NH","A27LCUA35LPVM8","3TKXBROM5TWR181JXBYSOI8FGFVJIU","","null","<img src=""img/food3.png"" style=""width:200px; border:14px solid green;"">","null","","","","","","","","","",""
"","image-keyboard-response","192","133613","0.0-196.0","3WRFBPLXRBAAGF8FI8OZ22JVEWJ3NH","A27LCUA35LPVM8","3TKXBROM5TWR181JXBYSOI8FGFVJIU","","478.7999999523163","img/food3.png","76","480","3","1","3","2","1,0.5,0,1,0.5,0,0.5,0,1","0.5,0,1,0.5,0,1,0,1,0.5","2","false",""
"","html-keyboard-response","193","133915","0.0-197.0","3WRFBPLXRBAAGF8FI8OZ22JVEWJ3NH","A27LCUA35LPVM8","3TKXBROM5TWR181JXBYSOI8FGFVJIU","","null","<img src=""img/food3.png"" style=""width:200px; border:14px solid green;"">","null","","","","","","","","","",""
"","image-keyboard-response","194","134302","0.0-199.0","3WRFBPLXRBAAGF8FI8OZ22JVEWJ3NH","A27LCUA35LPVM8","3TKXBROM5TWR181JXBYSOI8FGFVJIU","","384.7000000476837","img/food3.png","76","386.09999990463257","3","0","3","2","1,0.5,0,1,0.5,0,0.5,0,1","0.5,0,1,0.5,0,1,0,1,0.5","2","false",""
"","html-keyboard-response","195","134605","0.0-200.0","3WRFBPLXRBAAGF8FI8OZ22JVEWJ3NH","A27LCUA35LPVM8","3TKXBROM5TWR181JXBYSOI8FGFVJIU","","null","<img src=""img/food3.png"" style=""width:200px;border:14px solid red;"">","null","","","","","","","","","",""
"","image-keyboard-response","196","135607","0.0-202.0","3WRFBPLXRBAAGF8FI8OZ22JVEWJ3NH","A27LCUA35LPVM8","3TKXBROM5TWR181JXBYSOI8FGFVJIU","","","img/food3.png","","1002.2999999523163","-1","0","3","2","1,0.5,0,1,0.5,0,0.5,0,1","0.5,0,1,0.5,0,1,0,1,0.5","2","true",""
"","html-keyboard-response","197","135910","0.0-203.0","3WRFBPLXRBAAGF8FI8OZ22JVEWJ3NH","A27LCUA35LPVM8","3TKXBROM5TWR181JXBYSOI8FGFVJIU","","null","<img src=""img/food3.png"" style=""width:200px;border:14px solid red;"">","null","","","","","","","","","",""
"","html-keyboard-response","198","140533","0.0-204.0-0.0","3WRFBPLXRBAAGF8FI8OZ22JVEWJ3NH","A27LCUA35LPVM8","3TKXBROM5TWR181JXBYSOI8FGFVJIU","","","","","","","","","","","","","",""
"","image-keyboard-response","199","141077","0.0-205.0","3WRFBPLXRBAAGF8FI8OZ22JVEWJ3NH","A27LCUA35LPVM8","3TKXBROM5TWR181JXBYSOI8FGFVJIU","","542.2999999523163","img/food2.png","76","543.3000001907349","3","1","2","2","1,0.5,0,1,0.5,0,0.5,0,1","0.5,0,1,0.5,0,1,0,1,0.5","2","false",""
"","html-keyboard-response","200","141379","0.0-206.0","3WRFBPLXRBAAGF8FI8OZ22JVEWJ3NH","A27LCUA35LPVM8","3TKXBROM5TWR181JXBYSOI8FGFVJIU","","null","<img src=""img/food2.png"" style=""width:200px; border:14px solid green;"">","null","","","","","","","","","",""
"","image-keyboard-response","201","141974","0.0-208.0","3WRFBPLXRBAAGF8FI8OZ22JVEWJ3NH","A27LCUA35LPVM8","3TKXBROM5TWR181JXBYSOI8FGFVJIU","","593.5","img/food6.png","75","594.7999999523163","2","0","1","2","1,0.5,0,1,0.5,0,0.5,0,1","0.5,0,1,0.5,0,1,0,1,0.5","2","false",""
"","html-keyboard-response","202","142276","0.0-209.0","3WRFBPLXRBAAGF8FI8OZ22JVEWJ3NH","A27LCUA35LPVM8","3TKXBROM5TWR181JXBYSOI8FGFVJIU","","null","<img src=""img/food6.png"" style=""width:200px;border:14px solid red;"">","null","","","","","","","","","",""
"","image-keyboard-response","203","142830","0.0-211.0","3WRFBPLXRBAAGF8FI8OZ22JVEWJ3NH","A27LCUA35LPVM8","3TKXBROM5TWR181JXBYSOI8FGFVJIU","","552.2000000476837","img/food6.png","76","553.5","3","1","1","2","1,0.5,0,1,0.5,0,0.5,0,1","0.5,0,1,0.5,0,1,0,1,0.5","2","false",""
"","html-keyboard-response","204","143132","0.0-212.0","3WRFBPLXRBAAGF8FI8OZ22JVEWJ3NH","A27LCUA35LPVM8","3TKXBROM5TWR181JXBYSOI8FGFVJIU","","null","<img src=""img/food6.png"" style=""width:200px; border:14px solid green;"">","null","","","","","","","","","",""
"","image-keyboard-response","205","143733","0.0-214.0","3WRFBPLXRBAAGF8FI8OZ22JVEWJ3NH","A27LCUA35LPVM8","3TKXBROM5TWR181JXBYSOI8FGFVJIU","","599.4000000953674","img/food2.png","76","600.5","3","1","2","2","1,0.5,0,1,0.5,0,0.5,0,1","0.5,0,1,0.5,0,1,0,1,0.5","2","false",""
"","html-keyboard-response","206","144035","0.0-215.0","3WRFBPLXRBAAGF8FI8OZ22JVEWJ3NH","A27LCUA35LPVM8","3TKXBROM5TWR181JXBYSOI8FGFVJIU","","null","<img src=""img/food2.png"" style=""width:200px; border:14px solid green;"">","null","","","","","","","","","",""
"","image-keyboard-response","207","144493","0.0-217.0","3WRFBPLXRBAAGF8FI8OZ22JVEWJ3NH","A27LCUA35LPVM8","3TKXBROM5TWR181JXBYSOI8FGFVJIU","","456.69999980926514","img/food2.png","76","457.7000000476837","3","1","2","2","1,0.5,0,1,0.5,0,0.5,0,1","0.5,0,1,0.5,0,1,0,1,0.5","2","false",""
"","html-keyboard-response","208","144795","0.0-218.0","3WRFBPLXRBAAGF8FI8OZ22JVEWJ3NH","A27LCUA35LPVM8","3TKXBROM5TWR181JXBYSOI8FGFVJIU","","null","<img src=""img/food2.png"" style=""width:200px; border:14px solid green;"">","null","","","","","","","","","",""
"","image-keyboard-response","209","145286","0.0-220.0","3WRFBPLXRBAAGF8FI8OZ22JVEWJ3NH","A27LCUA35LPVM8","3TKXBROM5TWR181JXBYSOI8FGFVJIU","","489.69999980926514","img/food6.png","75","490.59999990463257","2","0","1","2","1,0.5,0,1,0.5,0,0.5,0,1","0.5,0,1,0.5,0,1,0,1,0.5","2","false",""
"","html-keyboard-response","210","145588","0.0-221.0","3WRFBPLXRBAAGF8FI8OZ22JVEWJ3NH","A27LCUA35LPVM8","3TKXBROM5TWR181JXBYSOI8FGFVJIU","","null","<img src=""img/food6.png"" style=""width:200px;border:14px solid red;"">","null","","","","","","","","","",""
"","image-keyboard-response","211","146054","0.0-223.0","3WRFBPLXRBAAGF8FI8OZ22JVEWJ3NH","A27LCUA35LPVM8","3TKXBROM5TWR181JXBYSOI8FGFVJIU","","463.7000000476837","img/food3.png","76","465.19999980926514","3","0","3","2","1,0.5,0,1,0.5,0,0.5,0,1","0.5,0,1,0.5,0,1,0,1,0.5","2","false",""
"","html-keyboard-response","212","146356","0.0-224.0","3WRFBPLXRBAAGF8FI8OZ22JVEWJ3NH","A27LCUA35LPVM8","3TKXBROM5TWR181JXBYSOI8FGFVJIU","","null","<img src=""img/food3.png"" style=""width:200px;border:14px solid red;"">","null","","","","","","","","","",""
"","image-keyboard-response","213","146606","0.0-226.0","3WRFBPLXRBAAGF8FI8OZ22JVEWJ3NH","A27LCUA35LPVM8","3TKXBROM5TWR181JXBYSOI8FGFVJIU","","248.90000009536743","img/food6.png","75","249.90000009536743","2","0","1","2","1,0.5,0,1,0.5,0,0.5,0,1","0.5,0,1,0.5,0,1,0,1,0.5","2","false",""
"","html-keyboard-response","214","146909","0.0-227.0","3WRFBPLXRBAAGF8FI8OZ22JVEWJ3NH","A27LCUA35LPVM8","3TKXBROM5TWR181JXBYSOI8FGFVJIU","","null","<img src=""img/food6.png"" style=""width:200px;border:14px solid red;"">","null","","","","","","","","","",""
"","image-keyboard-response","215","147317","0.0-229.0","3WRFBPLXRBAAGF8FI8OZ22JVEWJ3NH","A27LCUA35LPVM8","3TKXBROM5TWR181JXBYSOI8FGFVJIU","","407.2000000476837","img/food3.png","74","408.2000000476837","1","0","3","2","1,0.5,0,1,0.5,0,0.5,0,1","0.5,0,1,0.5,0,1,0,1,0.5","2","false",""
"","html-keyboard-response","216","147619","0.0-230.0","3WRFBPLXRBAAGF8FI8OZ22JVEWJ3NH","A27LCUA35LPVM8","3TKXBROM5TWR181JXBYSOI8FGFVJIU","","null","<img src=""img/food3.png"" style=""width:200px;border:14px solid red;"">","null","","","","","","","","","",""
"","image-keyboard-response","217","148006","0.0-232.0","3WRFBPLXRBAAGF8FI8OZ22JVEWJ3NH","A27LCUA35LPVM8","3TKXBROM5TWR181JXBYSOI8FGFVJIU","","382.90000009536743","img/food6.png","76","384.2000000476837","3","1","1","2","1,0.5,0,1,0.5,0,0.5,0,1","0.5,0,1,0.5,0,1,0,1,0.5","2","false",""
"","html-keyboard-response","218","148308","0.0-233.0","3WRFBPLXRBAAGF8FI8OZ22JVEWJ3NH","A27LCUA35LPVM8","3TKXBROM5TWR181JXBYSOI8FGFVJIU","","null","<img src=""img/food6.png"" style=""width:200px; border:14px solid green;"">","null","","","","","","","","","",""
"","image-keyboard-response","219","148709","0.0-235.0","3WRFBPLXRBAAGF8FI8OZ22JVEWJ3NH","A27LCUA35LPVM8","3TKXBROM5TWR181JXBYSOI8FGFVJIU","","400.2999999523163","img/food6.png","76","401.30000019073486","3","1","1","2","1,0.5,0,1,0.5,0,0.5,0,1","0.5,0,1,0.5,0,1,0,1,0.5","2","false",""
"","html-keyboard-response","220","149012","0.0-236.0","3WRFBPLXRBAAGF8FI8OZ22JVEWJ3NH","A27LCUA35LPVM8","3TKXBROM5TWR181JXBYSOI8FGFVJIU","","null","<img src=""img/food6.png"" style=""width:200px; border:14px solid green;"">","null","","","","","","","","","",""
"","image-keyboard-response","221","149510","0.0-238.0","3WRFBPLXRBAAGF8FI8OZ22JVEWJ3NH","A27LCUA35LPVM8","3TKXBROM5TWR181JXBYSOI8FGFVJIU","","496.40000009536743","img/food2.png","75","497.7999999523163","2","0","2","2","1,0.5,0,1,0.5,0,0.5,0,1","0.5,0,1,0.5,0,1,0,1,0.5","2","false",""
"","html-keyboard-response","222","149813","0.0-239.0","3WRFBPLXRBAAGF8FI8OZ22JVEWJ3NH","A27LCUA35LPVM8","3TKXBROM5TWR181JXBYSOI8FGFVJIU","","null","<img src=""img/food2.png"" style=""width:200px;border:14px solid red;"">","null","","","","","","","","","",""
"","image-keyboard-response","223","150302","0.0-241.0","3WRFBPLXRBAAGF8FI8OZ22JVEWJ3NH","A27LCUA35LPVM8","3TKXBROM5TWR181JXBYSOI8FGFVJIU","","487.7999999523163","img/food6.png","76","488.7999999523163","3","1","1","2","1,0.5,0,1,0.5,0,0.5,0,1","0.5,0,1,0.5,0,1,0,1,0.5","2","false",""
"","html-keyboard-response","224","150605","0.0-242.0","3WRFBPLXRBAAGF8FI8OZ22JVEWJ3NH","A27LCUA35LPVM8","3TKXBROM5TWR181JXBYSOI8FGFVJIU","","null","<img src=""img/food6.png"" style=""width:200px; border:14px solid green;"">","null","","","","","","","","","",""
"","image-keyboard-response","225","151061","0.0-244.0","3WRFBPLXRBAAGF8FI8OZ22JVEWJ3NH","A27LCUA35LPVM8","3TKXBROM5TWR181JXBYSOI8FGFVJIU","","454.7000000476837","img/food2.png","76","455.7999999523163","3","1","2","2","1,0.5,0,1,0.5,0,0.5,0,1","0.5,0,1,0.5,0,1,0,1,0.5","2","false",""
"","html-keyboard-response","226","151363","0.0-245.0","3WRFBPLXRBAAGF8FI8OZ22JVEWJ3NH","A27LCUA35LPVM8","3TKXBROM5TWR181JXBYSOI8FGFVJIU","","null","<img src=""img/food2.png"" style=""width:200px; border:14px solid green;"">","null","","","","","","","","","",""
"","image-keyboard-response","227","151821","0.0-247.0","3WRFBPLXRBAAGF8FI8OZ22JVEWJ3NH","A27LCUA35LPVM8","3TKXBROM5TWR181JXBYSOI8FGFVJIU","","457.09999990463257","img/food6.png","76","458.40000009536743","3","1","1","2","1,0.5,0,1,0.5,0,0.5,0,1","0.5,0,1,0.5,0,1,0,1,0.5","2","false",""
"","html-keyboard-response","228","152124","0.0-248.0","3WRFBPLXRBAAGF8FI8OZ22JVEWJ3NH","A27LCUA35LPVM8","3TKXBROM5TWR181JXBYSOI8FGFVJIU","","null","<img src=""img/food6.png"" style=""width:200px; border:14px solid green;"">","null","","","","","","","","","",""
"","image-keyboard-response","229","152518","0.0-250.0","3WRFBPLXRBAAGF8FI8OZ22JVEWJ3NH","A27LCUA35LPVM8","3TKXBROM5TWR181JXBYSOI8FGFVJIU","","392.2999999523163","img/food6.png","76","393.69999980926514","3","1","1","2","1,0.5,0,1,0.5,0,0.5,0,1","0.5,0,1,0.5,0,1,0,1,0.5","2","false",""
"","html-keyboard-response","230","152821","0.0-251.0","3WRFBPLXRBAAGF8FI8OZ22JVEWJ3NH","A27LCUA35LPVM8","3TKXBROM5TWR181JXBYSOI8FGFVJIU","","null","<img src=""img/food6.png"" style=""width:200px; border:14px solid green;"">","null","","","","","","","","","",""
"","image-keyboard-response","231","153206","0.0-253.0","3WRFBPLXRBAAGF8FI8OZ22JVEWJ3NH","A27LCUA35LPVM8","3TKXBROM5TWR181JXBYSOI8FGFVJIU","","383.80000019073486","img/food6.png","76","384.80000019073486","3","1","1","2","1,0.5,0,1,0.5,0,0.5,0,1","0.5,0,1,0.5,0,1,0,1,0.5","2","false",""
"","html-keyboard-response","232","153509","0.0-254.0","3WRFBPLXRBAAGF8FI8OZ22JVEWJ3NH","A27LCUA35LPVM8","3TKXBROM5TWR181JXBYSOI8FGFVJIU","","null","<img src=""img/food6.png"" style=""width:200px; border:14px solid green;"">","null","","","","","","","","","",""
"","image-keyboard-response","233","153910","0.0-256.0","3WRFBPLXRBAAGF8FI8OZ22JVEWJ3NH","A27LCUA35LPVM8","3TKXBROM5TWR181JXBYSOI8FGFVJIU","","399.10000014305115","img/food6.png","76","400.2999999523163","3","1","1","2","1,0.5,0,1,0.5,0,0.5,0,1","0.5,0,1,0.5,0,1,0,1,0.5","2","false",""
"","html-keyboard-response","234","154213","0.0-257.0","3WRFBPLXRBAAGF8FI8OZ22JVEWJ3NH","A27LCUA35LPVM8","3TKXBROM5TWR181JXBYSOI8FGFVJIU","","null","<img src=""img/food6.png"" style=""width:200px; border:14px solid green;"">","null","","","","","","","","","",""
"","image-keyboard-response","235","154813","0.0-259.0","3WRFBPLXRBAAGF8FI8OZ22JVEWJ3NH","A27LCUA35LPVM8","3TKXBROM5TWR181JXBYSOI8FGFVJIU","","598.5","img/food2.png","75","599.6000001430511","2","0","2","2","1,0.5,0,1,0.5,0,0.5,0,1","0.5,0,1,0.5,0,1,0,1,0.5","2","false",""
"","html-keyboard-response","236","155115","0.0-260.0","3WRFBPLXRBAAGF8FI8OZ22JVEWJ3NH","A27LCUA35LPVM8","3TKXBROM5TWR181JXBYSOI8FGFVJIU","","null","<img src=""img/food2.png"" style=""width:200px;border:14px solid red;"">","null","","","","","","","","","",""
"","image-keyboard-response","237","155349","0.0-262.0","3WRFBPLXRBAAGF8FI8OZ22JVEWJ3NH","A27LCUA35LPVM8","3TKXBROM5TWR181JXBYSOI8FGFVJIU","","232.90000009536743","img/food6.png","76","234","3","1","1","2","1,0.5,0,1,0.5,0,0.5,0,1","0.5,0,1,0.5,0,1,0,1,0.5","2","false",""
"","html-keyboard-response","238","155652","0.0-263.0","3WRFBPLXRBAAGF8FI8OZ22JVEWJ3NH","A27LCUA35LPVM8","3TKXBROM5TWR181JXBYSOI8FGFVJIU","","null","<img src=""img/food6.png"" style=""width:200px; border:14px solid green;"">","null","","","","","","","","","",""
"","image-keyboard-response","239","156430","0.0-265.0","3WRFBPLXRBAAGF8FI8OZ22JVEWJ3NH","A27LCUA35LPVM8","3TKXBROM5TWR181JXBYSOI8FGFVJIU","","776.2000000476837","img/food3.png","74","777.7000000476837","1","0","3","2","1,0.5,0,1,0.5,0,0.5,0,1","0.5,0,1,0.5,0,1,0,1,0.5","2","false",""
"","html-keyboard-response","240","156733","0.0-266.0","3WRFBPLXRBAAGF8FI8OZ22JVEWJ3NH","A27LCUA35LPVM8","3TKXBROM5TWR181JXBYSOI8FGFVJIU","","null","<img src=""img/food3.png"" style=""width:200px;border:14px solid red;"">","null","","","","","","","","","",""
"","image-keyboard-response","241","157021","0.0-268.0","3WRFBPLXRBAAGF8FI8OZ22JVEWJ3NH","A27LCUA35LPVM8","3TKXBROM5TWR181JXBYSOI8FGFVJIU","","287.30000019073486","img/food6.png","76","288.30000019073486","3","1","1","2","1,0.5,0,1,0.5,0,0.5,0,1","0.5,0,1,0.5,0,1,0,1,0.5","2","false",""
"","html-keyboard-response","242","157323","0.0-269.0","3WRFBPLXRBAAGF8FI8OZ22JVEWJ3NH","A27LCUA35LPVM8","3TKXBROM5TWR181JXBYSOI8FGFVJIU","","null","<img src=""img/food6.png"" style=""width:200px; border:14px solid green;"">","null","","","","","","","","","",""
"","image-keyboard-response","243","157862","0.0-271.0","3WRFBPLXRBAAGF8FI8OZ22JVEWJ3NH","A27LCUA35LPVM8","3TKXBROM5TWR181JXBYSOI8FGFVJIU","","537.6000001430511","img/food2.png","75","538.7999999523163","2","0","2","2","1,0.5,0,1,0.5,0,0.5,0,1","0.5,0,1,0.5,0,1,0,1,0.5","2","false",""
"","html-keyboard-response","244","158164","0.0-272.0","3WRFBPLXRBAAGF8FI8OZ22JVEWJ3NH","A27LCUA35LPVM8","3TKXBROM5TWR181JXBYSOI8FGFVJIU","","null","<img src=""img/food2.png"" style=""width:200px;border:14px solid red;"">","null","","","","","","","","","",""
"","image-keyboard-response","245","158365","0.0-274.0","3WRFBPLXRBAAGF8FI8OZ22JVEWJ3NH","A27LCUA35LPVM8","3TKXBROM5TWR181JXBYSOI8FGFVJIU","","199.70000004768372","img/food6.png","76","201","3","1","1","2","1,0.5,0,1,0.5,0,0.5,0,1","0.5,0,1,0.5,0,1,0,1,0.5","2","false",""
"","html-keyboard-response","246","158667","0.0-275.0","3WRFBPLXRBAAGF8FI8OZ22JVEWJ3NH","A27LCUA35LPVM8","3TKXBROM5TWR181JXBYSOI8FGFVJIU","","null","<img src=""img/food6.png"" style=""width:200px; border:14px solid green;"">","null","","","","","","","","","",""
"","image-keyboard-response","247","159166","0.0-277.0","3WRFBPLXRBAAGF8FI8OZ22JVEWJ3NH","A27LCUA35LPVM8","3TKXBROM5TWR181JXBYSOI8FGFVJIU","","497.2999999523163","img/food3.png","76","498.59999990463257","3","1","3","2","1,0.5,0,1,0.5,0,0.5,0,1","0.5,0,1,0.5,0,1,0,1,0.5","2","false",""
"","html-keyboard-response","248","159468","0.0-278.0","3WRFBPLXRBAAGF8FI8OZ22JVEWJ3NH","A27LCUA35LPVM8","3TKXBROM5TWR181JXBYSOI8FGFVJIU","","null","<img src=""img/food3.png"" style=""width:200px; border:14px solid green;"">","null","","","","","","","","","",""
"","image-keyboard-response","249","159909","0.0-280.0","3WRFBPLXRBAAGF8FI8OZ22JVEWJ3NH","A27LCUA35LPVM8","3TKXBROM5TWR181JXBYSOI8FGFVJIU","","439.2000000476837","img/food3.png","76","441","3","1","3","2","1,0.5,0,1,0.5,0,0.5,0,1","0.5,0,1,0.5,0,1,0,1,0.5","2","false",""
"","html-keyboard-response","250","160211","0.0-281.0","3WRFBPLXRBAAGF8FI8OZ22JVEWJ3NH","A27LCUA35LPVM8","3TKXBROM5TWR181JXBYSOI8FGFVJIU","","null","<img src=""img/food3.png"" style=""width:200px; border:14px solid green;"">","null","","","","","","","","","",""
"","image-keyboard-response","251","160685","0.0-283.0","3WRFBPLXRBAAGF8FI8OZ22JVEWJ3NH","A27LCUA35LPVM8","3TKXBROM5TWR181JXBYSOI8FGFVJIU","","472.7000000476837","img/food2.png","76","474","3","1","2","2","1,0.5,0,1,0.5,0,0.5,0,1","0.5,0,1,0.5,0,1,0,1,0.5","2","false",""
"","html-keyboard-response","252","160987","0.0-284.0","3WRFBPLXRBAAGF8FI8OZ22JVEWJ3NH","A27LCUA35LPVM8","3TKXBROM5TWR181JXBYSOI8FGFVJIU","","null","<img src=""img/food2.png"" style=""width:200px; border:14px solid green;"">","null","","","","","","","","","",""
"","image-keyboard-response","253","161437","0.0-286.0","3WRFBPLXRBAAGF8FI8OZ22JVEWJ3NH","A27LCUA35LPVM8","3TKXBROM5TWR181JXBYSOI8FGFVJIU","","449.2000000476837","img/food6.png","76","450","3","1","1","2","1,0.5,0,1,0.5,0,0.5,0,1","0.5,0,1,0.5,0,1,0,1,0.5","2","false",""
"","html-keyboard-response","254","161741","0.0-287.0","3WRFBPLXRBAAGF8FI8OZ22JVEWJ3NH","A27LCUA35LPVM8","3TKXBROM5TWR181JXBYSOI8FGFVJIU","","null","<img src=""img/food6.png"" style=""width:200px; border:14px solid green;"">","null","","","","","","","","","",""
"","image-keyboard-response","255","162206","0.0-289.0","3WRFBPLXRBAAGF8FI8OZ22JVEWJ3NH","A27LCUA35LPVM8","3TKXBROM5TWR181JXBYSOI8FGFVJIU","","463.5","img/food2.png","76","464.7000000476837","3","1","2","2","1,0.5,0,1,0.5,0,0.5,0,1","0.5,0,1,0.5,0,1,0,1,0.5","2","false",""
"","html-keyboard-response","256","162508","0.0-290.0","3WRFBPLXRBAAGF8FI8OZ22JVEWJ3NH","A27LCUA35LPVM8","3TKXBROM5TWR181JXBYSOI8FGFVJIU","","null","<img src=""img/food2.png"" style=""width:200px; border:14px solid green;"">","null","","","","","","","","","",""
"","image-keyboard-response","257","162958","0.0-292.0","3WRFBPLXRBAAGF8FI8OZ22JVEWJ3NH","A27LCUA35LPVM8","3TKXBROM5TWR181JXBYSOI8FGFVJIU","","448.30000019073486","img/food2.png","76","449.5","3","1","2","2","1,0.5,0,1,0.5,0,0.5,0,1","0.5,0,1,0.5,0,1,0,1,0.5","2","false",""
"","html-keyboard-response","258","163261","0.0-293.0","3WRFBPLXRBAAGF8FI8OZ22JVEWJ3NH","A27LCUA35LPVM8","3TKXBROM5TWR181JXBYSOI8FGFVJIU","","null","<img src=""img/food2.png"" style=""width:200px; border:14px solid green;"">","null","","","","","","","","","",""
"","image-keyboard-response","259","163630","0.0-295.0","3WRFBPLXRBAAGF8FI8OZ22JVEWJ3NH","A27LCUA35LPVM8","3TKXBROM5TWR181JXBYSOI8FGFVJIU","","367.2000000476837","img/food6.png","76","368.59999990463257","3","1","1","2","1,0.5,0,1,0.5,0,0.5,0,1","0.5,0,1,0.5,0,1,0,1,0.5","2","false",""
"","html-keyboard-response","260","163932","0.0-296.0","3WRFBPLXRBAAGF8FI8OZ22JVEWJ3NH","A27LCUA35LPVM8","3TKXBROM5TWR181JXBYSOI8FGFVJIU","","null","<img src=""img/food6.png"" style=""width:200px; border:14px solid green;"">","null","","","","","","","","","",""
"","image-keyboard-response","261","164294","0.0-298.0","3WRFBPLXRBAAGF8FI8OZ22JVEWJ3NH","A27LCUA35LPVM8","3TKXBROM5TWR181JXBYSOI8FGFVJIU","","360.30000019073486","img/food3.png","76","361.7999999523163","3","0","3","2","1,0.5,0,1,0.5,0,0.5,0,1","0.5,0,1,0.5,0,1,0,1,0.5","2","false",""
"","html-keyboard-response","262","164596","0.0-299.0","3WRFBPLXRBAAGF8FI8OZ22JVEWJ3NH","A27LCUA35LPVM8","3TKXBROM5TWR181JXBYSOI8FGFVJIU","","null","<img src=""img/food3.png"" style=""width:200px;border:14px solid red;"">","null","","","","","","","","","",""
"","image-keyboard-response","263","165037","0.0-301.0","3WRFBPLXRBAAGF8FI8OZ22JVEWJ3NH","A27LCUA35LPVM8","3TKXBROM5TWR181JXBYSOI8FGFVJIU","","440.2000000476837","img/food3.png","75","441.2999999523163","2","1","3","2","1,0.5,0,1,0.5,0,0.5,0,1","0.5,0,1,0.5,0,1,0,1,0.5","2","false",""
"","html-keyboard-response","264","165341","0.0-302.0","3WRFBPLXRBAAGF8FI8OZ22JVEWJ3NH","A27LCUA35LPVM8","3TKXBROM5TWR181JXBYSOI8FGFVJIU","","null","<img src=""img/food3.png"" style=""width:200px; border:14px solid green;"">","null","","","","","","","","","",""
"","image-keyboard-response","265","165693","0.0-304.0","3WRFBPLXRBAAGF8FI8OZ22JVEWJ3NH","A27LCUA35LPVM8","3TKXBROM5TWR181JXBYSOI8FGFVJIU","","351.09999990463257","img/food6.png","76","352.39999985694885","3","1","1","2","1,0.5,0,1,0.5,0,0.5,0,1","0.5,0,1,0.5,0,1,0,1,0.5","2","false",""
"","html-keyboard-response","266","165997","0.0-305.0","3WRFBPLXRBAAGF8FI8OZ22JVEWJ3NH","A27LCUA35LPVM8","3TKXBROM5TWR181JXBYSOI8FGFVJIU","","null","<img src=""img/food6.png"" style=""width:200px; border:14px solid green;"">","null","","","","","","","","","",""
"","image-keyboard-response","267","166478","0.0-307.0","3WRFBPLXRBAAGF8FI8OZ22JVEWJ3NH","A27LCUA35LPVM8","3TKXBROM5TWR181JXBYSOI8FGFVJIU","","479.40000009536743","img/food2.png","76","480.7000000476837","3","1","2","2","1,0.5,0,1,0.5,0,0.5,0,1","0.5,0,1,0.5,0,1,0,1,0.5","2","false",""
"","html-keyboard-response","268","166788","0.0-308.0","3WRFBPLXRBAAGF8FI8OZ22JVEWJ3NH","A27LCUA35LPVM8","3TKXBROM5TWR181JXBYSOI8FGFVJIU","","null","<img src=""img/food2.png"" style=""width:200px; border:14px solid green;"">","null","","","","","","","","","",""
"","image-keyboard-response","269","167302","0.0-310.0","3WRFBPLXRBAAGF8FI8OZ22JVEWJ3NH","A27LCUA35LPVM8","3TKXBROM5TWR181JXBYSOI8FGFVJIU","","512.2999999523163","img/food3.png","75","513.5999999046326","2","1","3","2","1,0.5,0,1,0.5,0,0.5,0,1","0.5,0,1,0.5,0,1,0,1,0.5","2","false",""
"","html-keyboard-response","270","167610","0.0-311.0","3WRFBPLXRBAAGF8FI8OZ22JVEWJ3NH","A27LCUA35LPVM8","3TKXBROM5TWR181JXBYSOI8FGFVJIU","","null","<img src=""img/food3.png"" style=""width:200px; border:14px solid green;"">","null","","","","","","","","","",""
"","image-keyboard-response","271","168077","0.0-313.0","3WRFBPLXRBAAGF8FI8OZ22JVEWJ3NH","A27LCUA35LPVM8","3TKXBROM5TWR181JXBYSOI8FGFVJIU","","465.90000009536743","img/food3.png","75","467","2","1","3","2","1,0.5,0,1,0.5,0,0.5,0,1","0.5,0,1,0.5,0,1,0,1,0.5","2","false",""
"","html-keyboard-response","272","168379","0.0-314.0","3WRFBPLXRBAAGF8FI8OZ22JVEWJ3NH","A27LCUA35LPVM8","3TKXBROM5TWR181JXBYSOI8FGFVJIU","","null","<img src=""img/food3.png"" style=""width:200px; border:14px solid green;"">","null","","","","","","","","","",""
"","image-keyboard-response","273","168861","0.0-316.0","3WRFBPLXRBAAGF8FI8OZ22JVEWJ3NH","A27LCUA35LPVM8","3TKXBROM5TWR181JXBYSOI8FGFVJIU","","481.09999990463257","img/food6.png","76","482.5","3","1","1","2","1,0.5,0,1,0.5,0,0.5,0,1","0.5,0,1,0.5,0,1,0,1,0.5","2","false",""
"","html-keyboard-response","274","169165","0.0-317.0","3WRFBPLXRBAAGF8FI8OZ22JVEWJ3NH","A27LCUA35LPVM8","3TKXBROM5TWR181JXBYSOI8FGFVJIU","","null","<img src=""img/food6.png"" style=""width:200px; border:14px solid green;"">","null","","","","","","","","","",""
"","image-keyboard-response","275","169717","0.0-319.0","3WRFBPLXRBAAGF8FI8OZ22JVEWJ3NH","A27LCUA35LPVM8","3TKXBROM5TWR181JXBYSOI8FGFVJIU","","550.9000000953674","img/food3.png","75","552","2","1","3","2","1,0.5,0,1,0.5,0,0.5,0,1","0.5,0,1,0.5,0,1,0,1,0.5","2","false",""
"","html-keyboard-response","276","170019","0.0-320.0","3WRFBPLXRBAAGF8FI8OZ22JVEWJ3NH","A27LCUA35LPVM8","3TKXBROM5TWR181JXBYSOI8FGFVJIU","","null","<img src=""img/food3.png"" style=""width:200px; border:14px solid green;"">","null","","","","","","","","","",""
"","image-keyboard-response","277","170453","0.0-322.0","3WRFBPLXRBAAGF8FI8OZ22JVEWJ3NH","A27LCUA35LPVM8","3TKXBROM5TWR181JXBYSOI8FGFVJIU","","432.09999990463257","img/food2.png","76","433.59999990463257","3","1","2","2","1,0.5,0,1,0.5,0,0.5,0,1","0.5,0,1,0.5,0,1,0,1,0.5","2","false",""
"","html-keyboard-response","278","170756","0.0-323.0","3WRFBPLXRBAAGF8FI8OZ22JVEWJ3NH","A27LCUA35LPVM8","3TKXBROM5TWR181JXBYSOI8FGFVJIU","","null","<img src=""img/food2.png"" style=""width:200px; border:14px solid green;"">","null","","","","","","","","","",""
"","image-keyboard-response","279","171182","0.0-325.0","3WRFBPLXRBAAGF8FI8OZ22JVEWJ3NH","A27LCUA35LPVM8","3TKXBROM5TWR181JXBYSOI8FGFVJIU","","424.69999980926514","img/food3.png","76","425.69999980926514","3","0","3","2","1,0.5,0,1,0.5,0,0.5,0,1","0.5,0,1,0.5,0,1,0,1,0.5","2","false",""
"","html-keyboard-response","280","171484","0.0-326.0","3WRFBPLXRBAAGF8FI8OZ22JVEWJ3NH","A27LCUA35LPVM8","3TKXBROM5TWR181JXBYSOI8FGFVJIU","","null","<img src=""img/food3.png"" style=""width:200px;border:14px solid red;"">","null","","","","","","","","","",""
"","image-keyboard-response","281","171765","0.0-328.0","3WRFBPLXRBAAGF8FI8OZ22JVEWJ3NH","A27LCUA35LPVM8","3TKXBROM5TWR181JXBYSOI8FGFVJIU","","278.90000009536743","img/food2.png","75","280.10000014305115","2","0","2","2","1,0.5,0,1,0.5,0,0.5,0,1","0.5,0,1,0.5,0,1,0,1,0.5","2","false",""
"","html-keyboard-response","282","172066","0.0-329.0","3WRFBPLXRBAAGF8FI8OZ22JVEWJ3NH","A27LCUA35LPVM8","3TKXBROM5TWR181JXBYSOI8FGFVJIU","","null","<img src=""img/food2.png"" style=""width:200px;border:14px solid red;"">","null","","","","","","","","","",""
"","image-keyboard-response","283","172725","0.0-331.0","3WRFBPLXRBAAGF8FI8OZ22JVEWJ3NH","A27LCUA35LPVM8","3TKXBROM5TWR181JXBYSOI8FGFVJIU","","657.6000001430511","img/food6.png","76","658.7000000476837","3","1","1","2","1,0.5,0,1,0.5,0,0.5,0,1","0.5,0,1,0.5,0,1,0,1,0.5","2","false",""
"","html-keyboard-response","284","173027","0.0-332.0","3WRFBPLXRBAAGF8FI8OZ22JVEWJ3NH","A27LCUA35LPVM8","3TKXBROM5TWR181JXBYSOI8FGFVJIU","","null","<img src=""img/food6.png"" style=""width:200px; border:14px solid green;"">","null","","","","","","","","","",""
"","image-keyboard-response","285","173646","0.0-334.0","3WRFBPLXRBAAGF8FI8OZ22JVEWJ3NH","A27LCUA35LPVM8","3TKXBROM5TWR181JXBYSOI8FGFVJIU","","617.2000000476837","img/food3.png","75","618.7000000476837","2","1","3","2","1,0.5,0,1,0.5,0,0.5,0,1","0.5,0,1,0.5,0,1,0,1,0.5","2","false",""
"","html-keyboard-response","286","173948","0.0-335.0","3WRFBPLXRBAAGF8FI8OZ22JVEWJ3NH","A27LCUA35LPVM8","3TKXBROM5TWR181JXBYSOI8FGFVJIU","","null","<img src=""img/food3.png"" style=""width:200px; border:14px solid green;"">","null","","","","","","","","","",""
"","image-keyboard-response","287","174406","0.0-337.0","3WRFBPLXRBAAGF8FI8OZ22JVEWJ3NH","A27LCUA35LPVM8","3TKXBROM5TWR181JXBYSOI8FGFVJIU","","456.19999980926514","img/food3.png","75","457.5","2","1","3","2","1,0.5,0,1,0.5,0,0.5,0,1","0.5,0,1,0.5,0,1,0,1,0.5","2","false",""
"","html-keyboard-response","288","174709","0.0-338.0","3WRFBPLXRBAAGF8FI8OZ22JVEWJ3NH","A27LCUA35LPVM8","3TKXBROM5TWR181JXBYSOI8FGFVJIU","","null","<img src=""img/food3.png"" style=""width:200px; border:14px solid green;"">","null","","","","","","","","","",""
"","image-keyboard-response","289","175149","0.0-340.0","3WRFBPLXRBAAGF8FI8OZ22JVEWJ3NH","A27LCUA35LPVM8","3TKXBROM5TWR181JXBYSOI8FGFVJIU","","439","img/food6.png","76","440.30000019073486","3","1","1","2","1,0.5,0,1,0.5,0,0.5,0,1","0.5,0,1,0.5,0,1,0,1,0.5","2","false",""
"","html-keyboard-response","290","175453","0.0-341.0","3WRFBPLXRBAAGF8FI8OZ22JVEWJ3NH","A27LCUA35LPVM8","3TKXBROM5TWR181JXBYSOI8FGFVJIU","","null","<img src=""img/food6.png"" style=""width:200px; border:14px solid green;"">","null","","","","","","","","","",""
"","image-keyboard-response","291","175933","0.0-343.0","3WRFBPLXRBAAGF8FI8OZ22JVEWJ3NH","A27LCUA35LPVM8","3TKXBROM5TWR181JXBYSOI8FGFVJIU","","479.5","img/food3.png","75","480.5","2","1","3","2","1,0.5,0,1,0.5,0,0.5,0,1","0.5,0,1,0.5,0,1,0,1,0.5","2","false",""
"","html-keyboard-response","292","176236","0.0-344.0","3WRFBPLXRBAAGF8FI8OZ22JVEWJ3NH","A27LCUA35LPVM8","3TKXBROM5TWR181JXBYSOI8FGFVJIU","","null","<img src=""img/food3.png"" style=""width:200px; border:14px solid green;"">","null","","","","","","","","","",""
"","image-keyboard-response","293","176701","0.0-346.0","3WRFBPLXRBAAGF8FI8OZ22JVEWJ3NH","A27LCUA35LPVM8","3TKXBROM5TWR181JXBYSOI8FGFVJIU","","462.90000009536743","img/food2.png","76","464.2000000476837","3","1","2","2","1,0.5,0,1,0.5,0,0.5,0,1","0.5,0,1,0.5,0,1,0,1,0.5","2","false",""
"","html-keyboard-response","294","177004","0.0-347.0","3WRFBPLXRBAAGF8FI8OZ22JVEWJ3NH","A27LCUA35LPVM8","3TKXBROM5TWR181JXBYSOI8FGFVJIU","","null","<img src=""img/food2.png"" style=""width:200px; border:14px solid green;"">","null","","","","","","","","","",""
"","image-keyboard-response","295","177430","0.0-349.0","3WRFBPLXRBAAGF8FI8OZ22JVEWJ3NH","A27LCUA35LPVM8","3TKXBROM5TWR181JXBYSOI8FGFVJIU","","423.69999980926514","img/food2.png","76","425.2000000476837","3","1","2","2","1,0.5,0,1,0.5,0,0.5,0,1","0.5,0,1,0.5,0,1,0,1,0.5","2","false",""
"","html-keyboard-response","296","177732","0.0-350.0","3WRFBPLXRBAAGF8FI8OZ22JVEWJ3NH","A27LCUA35LPVM8","3TKXBROM5TWR181JXBYSOI8FGFVJIU","","null","<img src=""img/food2.png"" style=""width:200px; border:14px solid green;"">","null","","","","","","","","","",""
"","image-keyboard-response","297","178141","0.0-352.0","3WRFBPLXRBAAGF8FI8OZ22JVEWJ3NH","A27LCUA35LPVM8","3TKXBROM5TWR181JXBYSOI8FGFVJIU","","407.7999999523163","img/food2.png","76","409.09999990463257","3","1","2","2","1,0.5,0,1,0.5,0,0.5,0,1","0.5,0,1,0.5,0,1,0,1,0.5","2","false",""
"","html-keyboard-response","298","178444","0.0-353.0","3WRFBPLXRBAAGF8FI8OZ22JVEWJ3NH","A27LCUA35LPVM8","3TKXBROM5TWR181JXBYSOI8FGFVJIU","","null","<img src=""img/food2.png"" style=""width:200px; border:14px solid green;"">","null","","","","","","","","","",""
"","image-keyboard-response","299","178973","0.0-355.0","3WRFBPLXRBAAGF8FI8OZ22JVEWJ3NH","A27LCUA35LPVM8","3TKXBROM5TWR181JXBYSOI8FGFVJIU","","528.0999999046326","img/food6.png","75","529.5999999046326","2","0","1","2","1,0.5,0,1,0.5,0,0.5,0,1","0.5,0,1,0.5,0,1,0,1,0.5","2","false",""
"","html-keyboard-response","300","179277","0.0-356.0","3WRFBPLXRBAAGF8FI8OZ22JVEWJ3NH","A27LCUA35LPVM8","3TKXBROM5TWR181JXBYSOI8FGFVJIU","","null","<img src=""img/food6.png"" style=""width:200px;border:14px solid red;"">","null","","","","","","","","","",""
"","image-keyboard-response","301","179622","0.0-358.0","3WRFBPLXRBAAGF8FI8OZ22JVEWJ3NH","A27LCUA35LPVM8","3TKXBROM5TWR181JXBYSOI8FGFVJIU","","343.69999980926514","img/food3.png","76","344.89999985694885","3","1","3","2","1,0.5,0,1,0.5,0,0.5,0,1","0.5,0,1,0.5,0,1,0,1,0.5","2","false",""
"","html-keyboard-response","302","179924","0.0-359.0","3WRFBPLXRBAAGF8FI8OZ22JVEWJ3NH","A27LCUA35LPVM8","3TKXBROM5TWR181JXBYSOI8FGFVJIU","","null","<img src=""img/food3.png"" style=""width:200px; border:14px solid green;"">","null","","","","","","","","","",""
"","image-keyboard-response","303","180446","0.0-361.0","3WRFBPLXRBAAGF8FI8OZ22JVEWJ3NH","A27LCUA35LPVM8","3TKXBROM5TWR181JXBYSOI8FGFVJIU","","520.5999999046326","img/food6.png","76","521.5","3","1","1","2","1,0.5,0,1,0.5,0,0.5,0,1","0.5,0,1,0.5,0,1,0,1,0.5","2","false",""
"","html-keyboard-response","304","180749","0.0-362.0","3WRFBPLXRBAAGF8FI8OZ22JVEWJ3NH","A27LCUA35LPVM8","3TKXBROM5TWR181JXBYSOI8FGFVJIU","","null","<img src=""img/food6.png"" style=""width:200px; border:14px solid green;"">","null","","","","","","","","","",""
"","image-keyboard-response","305","181254","0.0-364.0","3WRFBPLXRBAAGF8FI8OZ22JVEWJ3NH","A27LCUA35LPVM8","3TKXBROM5TWR181JXBYSOI8FGFVJIU","","503.2000000476837","img/food3.png","75","504.2999999523163","2","1","3","2","1,0.5,0,1,0.5,0,0.5,0,1","0.5,0,1,0.5,0,1,0,1,0.5","2","false",""
"","html-keyboard-response","306","181557","0.0-365.0","3WRFBPLXRBAAGF8FI8OZ22JVEWJ3NH","A27LCUA35LPVM8","3TKXBROM5TWR181JXBYSOI8FGFVJIU","","null","<img src=""img/food3.png"" style=""width:200px; border:14px solid green;"">","null","","","","","","","","","",""
"","image-keyboard-response","307","182039","0.0-367.0","3WRFBPLXRBAAGF8FI8OZ22JVEWJ3NH","A27LCUA35LPVM8","3TKXBROM5TWR181JXBYSOI8FGFVJIU","","479.5","img/food2.png","76","480.80000019073486","3","1","2","2","1,0.5,0,1,0.5,0,0.5,0,1","0.5,0,1,0.5,0,1,0,1,0.5","2","false",""
"","html-keyboard-response","308","182340","0.0-368.0","3WRFBPLXRBAAGF8FI8OZ22JVEWJ3NH","A27LCUA35LPVM8","3TKXBROM5TWR181JXBYSOI8FGFVJIU","","null","<img src=""img/food2.png"" style=""width:200px; border:14px solid green;"">","null","","","","","","","","","",""
"","image-keyboard-response","309","182726","0.0-370.0","3WRFBPLXRBAAGF8FI8OZ22JVEWJ3NH","A27LCUA35LPVM8","3TKXBROM5TWR181JXBYSOI8FGFVJIU","","383.60000014305115","img/food2.png","76","384.89999985694885","3","1","2","2","1,0.5,0,1,0.5,0,0.5,0,1","0.5,0,1,0.5,0,1,0,1,0.5","2","false",""
"","html-keyboard-response","310","183027","0.0-371.0","3WRFBPLXRBAAGF8FI8OZ22JVEWJ3NH","A27LCUA35LPVM8","3TKXBROM5TWR181JXBYSOI8FGFVJIU","","null","<img src=""img/food2.png"" style=""width:200px; border:14px solid green;"">","null","","","","","","","","","",""
"","image-keyboard-response","311","183638","0.0-373.0","3WRFBPLXRBAAGF8FI8OZ22JVEWJ3NH","A27LCUA35LPVM8","3TKXBROM5TWR181JXBYSOI8FGFVJIU","","609","img/food6.png","76","610.3000001907349","3","1","1","2","1,0.5,0,1,0.5,0,0.5,0,1","0.5,0,1,0.5,0,1,0,1,0.5","2","false",""
"","html-keyboard-response","312","183941","0.0-374.0","3WRFBPLXRBAAGF8FI8OZ22JVEWJ3NH","A27LCUA35LPVM8","3TKXBROM5TWR181JXBYSOI8FGFVJIU","","null","<img src=""img/food6.png"" style=""width:200px; border:14px solid green;"">","null","","","","","","","","","",""
"","image-keyboard-response","313","184326","0.0-376.0","3WRFBPLXRBAAGF8FI8OZ22JVEWJ3NH","A27LCUA35LPVM8","3TKXBROM5TWR181JXBYSOI8FGFVJIU","","383.7999999523163","img/food6.png","76","384.90000009536743","3","1","1","2","1,0.5,0,1,0.5,0,0.5,0,1","0.5,0,1,0.5,0,1,0,1,0.5","2","false",""
"","html-keyboard-response","314","184628","0.0-377.0","3WRFBPLXRBAAGF8FI8OZ22JVEWJ3NH","A27LCUA35LPVM8","3TKXBROM5TWR181JXBYSOI8FGFVJIU","","null","<img src=""img/food6.png"" style=""width:200px; border:14px solid green;"">","null","","","","","","","","","",""
"","image-keyboard-response","315","185086","0.0-379.0","3WRFBPLXRBAAGF8FI8OZ22JVEWJ3NH","A27LCUA35LPVM8","3TKXBROM5TWR181JXBYSOI8FGFVJIU","","455.89999985694885","img/food3.png","75","457.2000000476837","2","1","3","2","1,0.5,0,1,0.5,0,0.5,0,1","0.5,0,1,0.5,0,1,0,1,0.5","2","false",""
"","html-keyboard-response","316","185388","0.0-380.0","3WRFBPLXRBAAGF8FI8OZ22JVEWJ3NH","A27LCUA35LPVM8","3TKXBROM5TWR181JXBYSOI8FGFVJIU","","null","<img src=""img/food3.png"" style=""width:200px; border:14px solid green;"">","null","","","","","","","","","",""
"","image-keyboard-response","317","185734","0.0-382.0","3WRFBPLXRBAAGF8FI8OZ22JVEWJ3NH","A27LCUA35LPVM8","3TKXBROM5TWR181JXBYSOI8FGFVJIU","","344.2000000476837","img/food2.png","76","345","3","1","2","2","1,0.5,0,1,0.5,0,0.5,0,1","0.5,0,1,0.5,0,1,0,1,0.5","2","false",""
"","html-keyboard-response","318","186036","0.0-383.0","3WRFBPLXRBAAGF8FI8OZ22JVEWJ3NH","A27LCUA35LPVM8","3TKXBROM5TWR181JXBYSOI8FGFVJIU","","null","<img src=""img/food2.png"" style=""width:200px; border:14px solid green;"">","null","","","","","","","","","",""
"","image-keyboard-response","319","186406","0.0-385.0","3WRFBPLXRBAAGF8FI8OZ22JVEWJ3NH","A27LCUA35LPVM8","3TKXBROM5TWR181JXBYSOI8FGFVJIU","","368.7000000476837","img/food3.png","76","369.90000009536743","3","0","3","2","1,0.5,0,1,0.5,0,0.5,0,1","0.5,0,1,0.5,0,1,0,1,0.5","2","false",""
"","html-keyboard-response","320","186709","0.0-386.0","3WRFBPLXRBAAGF8FI8OZ22JVEWJ3NH","A27LCUA35LPVM8","3TKXBROM5TWR181JXBYSOI8FGFVJIU","","null","<img src=""img/food3.png"" style=""width:200px;border:14px solid red;"">","null","","","","","","","","","",""
"","image-keyboard-response","321","187558","0.0-388.0","3WRFBPLXRBAAGF8FI8OZ22JVEWJ3NH","A27LCUA35LPVM8","3TKXBROM5TWR181JXBYSOI8FGFVJIU","","847.5999999046326","img/food6.png","76","848.8000001907349","3","1","1","2","1,0.5,0,1,0.5,0,0.5,0,1","0.5,0,1,0.5,0,1,0,1,0.5","2","false",""
"","html-keyboard-response","322","187861","0.0-389.0","3WRFBPLXRBAAGF8FI8OZ22JVEWJ3NH","A27LCUA35LPVM8","3TKXBROM5TWR181JXBYSOI8FGFVJIU","","null","<img src=""img/food6.png"" style=""width:200px; border:14px solid green;"">","null","","","","","","","","","",""
"","image-keyboard-response","323","188206","0.0-391.0","3WRFBPLXRBAAGF8FI8OZ22JVEWJ3NH","A27LCUA35LPVM8","3TKXBROM5TWR181JXBYSOI8FGFVJIU","","343.10000014305115","img/food6.png","76","344.40000009536743","3","1","1","2","1,0.5,0,1,0.5,0,0.5,0,1","0.5,0,1,0.5,0,1,0,1,0.5","2","false",""
"","html-keyboard-response","324","188508","0.0-392.0","3WRFBPLXRBAAGF8FI8OZ22JVEWJ3NH","A27LCUA35LPVM8","3TKXBROM5TWR181JXBYSOI8FGFVJIU","","null","<img src=""img/food6.png"" style=""width:200px; border:14px solid green;"">","null","","","","","","","","","",""
"","image-keyboard-response","325","188942","0.0-394.0","3WRFBPLXRBAAGF8FI8OZ22JVEWJ3NH","A27LCUA35LPVM8","3TKXBROM5TWR181JXBYSOI8FGFVJIU","","433.09999990463257","img/food3.png","75","434","2","1","3","2","1,0.5,0,1,0.5,0,0.5,0,1","0.5,0,1,0.5,0,1,0,1,0.5","2","false",""
"","html-keyboard-response","326","189244","0.0-395.0","3WRFBPLXRBAAGF8FI8OZ22JVEWJ3NH","A27LCUA35LPVM8","3TKXBROM5TWR181JXBYSOI8FGFVJIU","","null","<img src=""img/food3.png"" style=""width:200px; border:14px solid green;"">","null","","","","","","","","","",""
"","image-keyboard-response","327","189558","0.0-397.0","3WRFBPLXRBAAGF8FI8OZ22JVEWJ3NH","A27LCUA35LPVM8","3TKXBROM5TWR181JXBYSOI8FGFVJIU","","311.89999985694885","img/food2.png","76","312.89999985694885","3","1","2","2","1,0.5,0,1,0.5,0,0.5,0,1","0.5,0,1,0.5,0,1,0,1,0.5","2","false",""
"","html-keyboard-response","328","189860","0.0-398.0","3WRFBPLXRBAAGF8FI8OZ22JVEWJ3NH","A27LCUA35LPVM8","3TKXBROM5TWR181JXBYSOI8FGFVJIU","","null","<img src=""img/food2.png"" style=""width:200px; border:14px solid green;"">","null","","","","","","","","","",""
"","image-keyboard-response","329","190230","0.0-400.0","3WRFBPLXRBAAGF8FI8OZ22JVEWJ3NH","A27LCUA35LPVM8","3TKXBROM5TWR181JXBYSOI8FGFVJIU","","368.89999985694885","img/food3.png","76","369.7999999523163","3","0","3","2","1,0.5,0,1,0.5,0,0.5,0,1","0.5,0,1,0.5,0,1,0,1,0.5","2","false",""
"","html-keyboard-response","330","190532","0.0-401.0","3WRFBPLXRBAAGF8FI8OZ22JVEWJ3NH","A27LCUA35LPVM8","3TKXBROM5TWR181JXBYSOI8FGFVJIU","","null","<img src=""img/food3.png"" style=""width:200px;border:14px solid red;"">","null","","","","","","","","","",""
"","image-keyboard-response","331","190845","0.0-403.0","3WRFBPLXRBAAGF8FI8OZ22JVEWJ3NH","A27LCUA35LPVM8","3TKXBROM5TWR181JXBYSOI8FGFVJIU","","311.5","img/food3.png","75","312.59999990463257","2","1","3","2","1,0.5,0,1,0.5,0,0.5,0,1","0.5,0,1,0.5,0,1,0,1,0.5","2","false",""
"","html-keyboard-response","332","191147","0.0-404.0","3WRFBPLXRBAAGF8FI8OZ22JVEWJ3NH","A27LCUA35LPVM8","3TKXBROM5TWR181JXBYSOI8FGFVJIU","","null","<img src=""img/food3.png"" style=""width:200px; border:14px solid green;"">","null","","","","","","","","","",""
"","image-keyboard-response","333","191542","0.0-406.0","3WRFBPLXRBAAGF8FI8OZ22JVEWJ3NH","A27LCUA35LPVM8","3TKXBROM5TWR181JXBYSOI8FGFVJIU","","393","img/food6.png","76","394","3","1","1","2","1,0.5,0,1,0.5,0,0.5,0,1","0.5,0,1,0.5,0,1,0,1,0.5","2","false",""
"","html-keyboard-response","334","191843","0.0-407.0","3WRFBPLXRBAAGF8FI8OZ22JVEWJ3NH","A27LCUA35LPVM8","3TKXBROM5TWR181JXBYSOI8FGFVJIU","","null","<img src=""img/food6.png"" style=""width:200px; border:14px solid green;"">","null","","","","","","","","","",""
"","image-keyboard-response","335","192438","0.0-409.0","3WRFBPLXRBAAGF8FI8OZ22JVEWJ3NH","A27LCUA35LPVM8","3TKXBROM5TWR181JXBYSOI8FGFVJIU","","593.2000000476837","img/food3.png","75","594.3999998569489","2","1","3","2","1,0.5,0,1,0.5,0,0.5,0,1","0.5,0,1,0.5,0,1,0,1,0.5","2","false",""
"","html-keyboard-response","336","192741","0.0-410.0","3WRFBPLXRBAAGF8FI8OZ22JVEWJ3NH","A27LCUA35LPVM8","3TKXBROM5TWR181JXBYSOI8FGFVJIU","","null","<img src=""img/food3.png"" style=""width:200px; border:14px solid green;"">","null","","","","","","","","","",""
"","image-keyboard-response","337","193077","0.0-412.0","3WRFBPLXRBAAGF8FI8OZ22JVEWJ3NH","A27LCUA35LPVM8","3TKXBROM5TWR181JXBYSOI8FGFVJIU","","335.2000000476837","img/food3.png","76","336.09999990463257","3","1","3","2","1,0.5,0,1,0.5,0,0.5,0,1","0.5,0,1,0.5,0,1,0,1,0.5","2","false",""
"","html-keyboard-response","338","193380","0.0-413.0","3WRFBPLXRBAAGF8FI8OZ22JVEWJ3NH","A27LCUA35LPVM8","3TKXBROM5TWR181JXBYSOI8FGFVJIU","","null","<img src=""img/food3.png"" style=""width:200px; border:14px solid green;"">","null","","","","","","","","","",""
"","image-keyboard-response","339","193702","0.0-415.0","3WRFBPLXRBAAGF8FI8OZ22JVEWJ3NH","A27LCUA35LPVM8","3TKXBROM5TWR181JXBYSOI8FGFVJIU","","320.7000000476837","img/food2.png","75","322","2","0","2","2","1,0.5,0,1,0.5,0,0.5,0,1","0.5,0,1,0.5,0,1,0,1,0.5","2","false",""
"","html-keyboard-response","340","194004","0.0-416.0","3WRFBPLXRBAAGF8FI8OZ22JVEWJ3NH","A27LCUA35LPVM8","3TKXBROM5TWR181JXBYSOI8FGFVJIU","","null","<img src=""img/food2.png"" style=""width:200px;border:14px solid red;"">","null","","","","","","","","","",""
"","image-keyboard-response","341","194566","0.0-418.0","3WRFBPLXRBAAGF8FI8OZ22JVEWJ3NH","A27LCUA35LPVM8","3TKXBROM5TWR181JXBYSOI8FGFVJIU","","560.0999999046326","img/food2.png","76","561.2999999523163","3","1","2","2","1,0.5,0,1,0.5,0,0.5,0,1","0.5,0,1,0.5,0,1,0,1,0.5","2","false",""
"","html-keyboard-response","342","194868","0.0-419.0","3WRFBPLXRBAAGF8FI8OZ22JVEWJ3NH","A27LCUA35LPVM8","3TKXBROM5TWR181JXBYSOI8FGFVJIU","","null","<img src=""img/food2.png"" style=""width:200px; border:14px solid green;"">","null","","","","","","","","","",""
"","image-keyboard-response","343","195622","0.0-421.0","3WRFBPLXRBAAGF8FI8OZ22JVEWJ3NH","A27LCUA35LPVM8","3TKXBROM5TWR181JXBYSOI8FGFVJIU","","752.5","img/food3.png","75","753.9000000953674","2","1","3","2","1,0.5,0,1,0.5,0,0.5,0,1","0.5,0,1,0.5,0,1,0,1,0.5","2","false",""
"","html-keyboard-response","344","195925","0.0-422.0","3WRFBPLXRBAAGF8FI8OZ22JVEWJ3NH","A27LCUA35LPVM8","3TKXBROM5TWR181JXBYSOI8FGFVJIU","","null","<img src=""img/food3.png"" style=""width:200px; border:14px solid green;"">","null","","","","","","","","","",""
"","image-keyboard-response","345","196398","0.0-424.0","3WRFBPLXRBAAGF8FI8OZ22JVEWJ3NH","A27LCUA35LPVM8","3TKXBROM5TWR181JXBYSOI8FGFVJIU","","471.2999999523163","img/food6.png","76","472.59999990463257","3","1","1","2","1,0.5,0,1,0.5,0,0.5,0,1","0.5,0,1,0.5,0,1,0,1,0.5","2","false",""
"","html-keyboard-response","346","196710","0.0-425.0","3WRFBPLXRBAAGF8FI8OZ22JVEWJ3NH","A27LCUA35LPVM8","3TKXBROM5TWR181JXBYSOI8FGFVJIU","","null","<img src=""img/food6.png"" style=""width:200px; border:14px solid green;"">","null","","","","","","","","","",""
"","image-keyboard-response","347","197382","0.0-427.0","3WRFBPLXRBAAGF8FI8OZ22JVEWJ3NH","A27LCUA35LPVM8","3TKXBROM5TWR181JXBYSOI8FGFVJIU","","670.2000000476837","img/food3.png","75","671.5999999046326","2","1","3","2","1,0.5,0,1,0.5,0,0.5,0,1","0.5,0,1,0.5,0,1,0,1,0.5","2","false",""
"","html-keyboard-response","348","197686","0.0-428.0","3WRFBPLXRBAAGF8FI8OZ22JVEWJ3NH","A27LCUA35LPVM8","3TKXBROM5TWR181JXBYSOI8FGFVJIU","","null","<img src=""img/food3.png"" style=""width:200px; border:14px solid green;"">","null","","","","","","","","","",""
"","image-keyboard-response","349","198030","0.0-430.0","3WRFBPLXRBAAGF8FI8OZ22JVEWJ3NH","A27LCUA35LPVM8","3TKXBROM5TWR181JXBYSOI8FGFVJIU","","342.2000000476837","img/food2.png","76","343.80000019073486","3","1","2","2","1,0.5,0,1,0.5,0,0.5,0,1","0.5,0,1,0.5,0,1,0,1,0.5","2","false",""
"","html-keyboard-response","350","198332","0.0-431.0","3WRFBPLXRBAAGF8FI8OZ22JVEWJ3NH","A27LCUA35LPVM8","3TKXBROM5TWR181JXBYSOI8FGFVJIU","","null","<img src=""img/food2.png"" style=""width:200px; border:14px solid green;"">","null","","","","","","","","","",""
"","image-keyboard-response","351","198710","0.0-433.0","3WRFBPLXRBAAGF8FI8OZ22JVEWJ3NH","A27LCUA35LPVM8","3TKXBROM5TWR181JXBYSOI8FGFVJIU","","374.59999990463257","img/food2.png","76","376.80000019073486","3","1","2","2","1,0.5,0,1,0.5,0,0.5,0,1","0.5,0,1,0.5,0,1,0,1,0.5","2","false",""
"","html-keyboard-response","352","199012","0.0-434.0","3WRFBPLXRBAAGF8FI8OZ22JVEWJ3NH","A27LCUA35LPVM8","3TKXBROM5TWR181JXBYSOI8FGFVJIU","","null","<img src=""img/food2.png"" style=""width:200px; border:14px solid green;"">","null","","","","","","","","","",""
"","image-keyboard-response","353","199542","0.0-436.0","3WRFBPLXRBAAGF8FI8OZ22JVEWJ3NH","A27LCUA35LPVM8","3TKXBROM5TWR181JXBYSOI8FGFVJIU","","528","img/food6.png","75","529.3000001907349","2","0","1","2","1,0.5,0,1,0.5,0,0.5,0,1","0.5,0,1,0.5,0,1,0,1,0.5","2","false",""
"","html-keyboard-response","354","199845","0.0-437.0","3WRFBPLXRBAAGF8FI8OZ22JVEWJ3NH","A27LCUA35LPVM8","3TKXBROM5TWR181JXBYSOI8FGFVJIU","","null","<img src=""img/food6.png"" style=""width:200px;border:14px solid red;"">","null","","","","","","","","","",""
"","image-keyboard-response","355","200166","0.0-439.0","3WRFBPLXRBAAGF8FI8OZ22JVEWJ3NH","A27LCUA35LPVM8","3TKXBROM5TWR181JXBYSOI8FGFVJIU","","318.90000009536743","img/food2.png","76","320.2999999523163","3","1","2","2","1,0.5,0,1,0.5,0,0.5,0,1","0.5,0,1,0.5,0,1,0,1,0.5","2","false",""
"","html-keyboard-response","356","200468","0.0-440.0","3WRFBPLXRBAAGF8FI8OZ22JVEWJ3NH","A27LCUA35LPVM8","3TKXBROM5TWR181JXBYSOI8FGFVJIU","","null","<img src=""img/food2.png"" style=""width:200px; border:14px solid green;"">","null","","","","","","","","","",""
"","image-keyboard-response","357","200966","0.0-442.0","3WRFBPLXRBAAGF8FI8OZ22JVEWJ3NH","A27LCUA35LPVM8","3TKXBROM5TWR181JXBYSOI8FGFVJIU","","495.2999999523163","img/food3.png","76","496.7000000476837","3","1","3","2","1,0.5,0,1,0.5,0,0.5,0,1","0.5,0,1,0.5,0,1,0,1,0.5","2","false",""
"","html-keyboard-response","358","201277","0.0-443.0","3WRFBPLXRBAAGF8FI8OZ22JVEWJ3NH","A27LCUA35LPVM8","3TKXBROM5TWR181JXBYSOI8FGFVJIU","","null","<img src=""img/food3.png"" style=""width:200px; border:14px solid green;"">","null","","","","","","","","","",""
"","image-keyboard-response","359","201725","0.0-445.0","3WRFBPLXRBAAGF8FI8OZ22JVEWJ3NH","A27LCUA35LPVM8","3TKXBROM5TWR181JXBYSOI8FGFVJIU","","446.60000014305115","img/food2.png","76","447.7999999523163","3","1","2","2","1,0.5,0,1,0.5,0,0.5,0,1","0.5,0,1,0.5,0,1,0,1,0.5","2","false",""
"","html-keyboard-response","360","202027","0.0-446.0","3WRFBPLXRBAAGF8FI8OZ22JVEWJ3NH","A27LCUA35LPVM8","3TKXBROM5TWR181JXBYSOI8FGFVJIU","","null","<img src=""img/food2.png"" style=""width:200px; border:14px solid green;"">","null","","","","","","","","","",""
"","image-keyboard-response","361","202493","0.0-448.0","3WRFBPLXRBAAGF8FI8OZ22JVEWJ3NH","A27LCUA35LPVM8","3TKXBROM5TWR181JXBYSOI8FGFVJIU","","464.7000000476837","img/food2.png","76","465.5","3","1","2","2","1,0.5,0,1,0.5,0,0.5,0,1","0.5,0,1,0.5,0,1,0,1,0.5","2","false",""
"","html-keyboard-response","362","202795","0.0-449.0","3WRFBPLXRBAAGF8FI8OZ22JVEWJ3NH","A27LCUA35LPVM8","3TKXBROM5TWR181JXBYSOI8FGFVJIU","","null","<img src=""img/food2.png"" style=""width:200px; border:14px solid green;"">","null","","","","","","","","","",""
"","image-keyboard-response","363","203174","0.0-451.0","3WRFBPLXRBAAGF8FI8OZ22JVEWJ3NH","A27LCUA35LPVM8","3TKXBROM5TWR181JXBYSOI8FGFVJIU","","377.2000000476837","img/food2.png","76","378.60000014305115","3","1","2","2","1,0.5,0,1,0.5,0,0.5,0,1","0.5,0,1,0.5,0,1,0,1,0.5","2","false",""
"","html-keyboard-response","364","203476","0.0-452.0","3WRFBPLXRBAAGF8FI8OZ22JVEWJ3NH","A27LCUA35LPVM8","3TKXBROM5TWR181JXBYSOI8FGFVJIU","","null","<img src=""img/food2.png"" style=""width:200px; border:14px solid green;"">","null","","","","","","","","","",""
"","instructions","365","206470","0.0-454.0","3WRFBPLXRBAAGF8FI8OZ22JVEWJ3NH","A27LCUA35LPVM8","3TKXBROM5TWR181JXBYSOI8FGFVJIU","[{""page_index"":0,""viewing_time"":2992.2999999523163}]","2992.5","","","","","","","","","","","",""
"","survey-text","366","209446","0.0-455.0","3WRFBPLXRBAAGF8FI8OZ22JVEWJ3NH","A27LCUA35LPVM8","3TKXBROM5TWR181JXBYSOI8FGFVJIU","","2973.4000000953674","","","","","","","","","","","","{""Q0"":""A27LCUA35LPVM8""}"
