"success","trial_type","trial_index","time_elapsed","internal_node_id","assignmentID","mturkID","hitID","view_history","rt","stimulus","key_press","reactionTime","a","r","s","cond","reward_cond","reward_cond_actual","reward_matrix_idx","warning","responses"
"true","fullscreen","0","7543","0.0-0.0","","","","","","","","","","","","","","","","",""
"","instructions","1","18795","0.0-1.0","","","","[{""page_index"":0,""viewing_time"":2576.7000007629395},{""page_index"":1,""viewing_time"":1534.5999994277954},{""page_index"":2,""viewing_time"":918.8000001907349},{""page_index"":3,""viewing_time"":1768.6999998092651},{""page_index"":4,""viewing_time"":1488.3000001907349},{""page_index"":5,""viewing_time"":1458},{""page_index"":6,""viewing_time"":1491.1999998092651}]","11242","","","","","","","","","","","",""
"","image-keyboard-response","2","21006","0.0-2.0","","","","","","img/food4.png","","2199.0999994277954","-1","0","1","1","1,0.7,0,1,0.7,0,0.7,0,1","0,1,0.7,0,1,0.7,1,0.7,0","3","",""
"","html-keyboard-response","3","21311","0.0-3.0","","","","","null","<img src=""img/food4.png"" style=""width:200px;border:14px solid red;"">","null","","","","","","","","","",""
"","image-keyboard-response","4","21610","0.0-4.0","","","","","296.80000019073486","img/food4.png","75","298.69999980926514","2","1","1","1","1,0.7,0,1,0.7,0,0.7,0,1","0,1,0.7,0,1,0.7,1,0.7,0","3","",""
"","html-keyboard-response","5","21913","0.0-5.0","","","","","null","<img src=""img/food4.png"" style=""width:200px; border:14px solid green;"">","null","","","","","","","","","",""
"","image-keyboard-response","6","21928","0.0-6.0","","","","","0.20000076293945312","img/food1.png","75","3.1999998092651367","2","1","3","1","1,0.7,0,1,0.7,0,0.7,0,1","0,1,0.7,0,1,0.7,1,0.7,0","3","",""
"","html-keyboard-response","7","22470","0.0-7.0","","","","","null","<img src=""img/food1.png"" style=""width:200px; border:14px solid green;"">","null","","","","","","","","","",""
"","image-keyboard-response","8","22846","0.0-8.0","","","","","374.70000076293945","img/food1.png","74","376","1","1","3","1","1,0.7,0,1,0.7,0,0.7,0,1","0,1,0.7,0,1,0.7,1,0.7,0","3","",""
"","html-keyboard-response","9","23149","0.0-9.0","","","","","null","<img src=""img/food1.png"" style=""width:200px; border:14px solid green;"">","null","","","","","","","","","",""
"","image-keyboard-response","10","23238","0.0-10.0","","","","","87.10000038146973","img/food4.png","74","88.40000057220459","1","0","1","1","1,0.7,0,1,0.7,0,0.7,0,1","0,1,0.7,0,1,0.7,1,0.7,0","3","",""
"","html-keyboard-response","11","23540","0.0-11.0","","","","","null","<img src=""img/food4.png"" style=""width:200px;border:14px solid red;"">","null","","","","","","","","","",""
"","image-keyboard-response","12","23569","0.0-12.0","","","","","26.59999942779541","img/food4.png","74","27.899999618530273","1","0","1","1","1,0.7,0,1,0.7,0,0.7,0,1","0,1,0.7,0,1,0.7,1,0.7,0","3","",""
"","html-keyboard-response","13","23871","0.0-13.0","","","","","null","<img src=""img/food4.png"" style=""width:200px;border:14px solid red;"">","null","","","","","","","","","",""
"","image-keyboard-response","14","24136","0.0-14.0","","","","","249.39999961853027","img/food3.png","74","263.8999996185303","1","0","2","1","1,0.7,0,1,0.7,0,0.7,0,1","0,1,0.7,0,1,0.7,1,0.7,0","3","",""
"","html-keyboard-response","15","24438","0.0-15.0","","","","","null","<img src=""img/food3.png"" style=""width:200px;border:14px solid red;"">","null","","","","","","","","","",""
"","image-keyboard-response","16","24480","0.0-16.0","","","","","40.40000057220459","img/food3.png","74","41.60000038146973","1","0","2","1","1,0.7,0,1,0.7,0,0.7,0,1","0,1,0.7,0,1,0.7,1,0.7,0","3","",""
"","html-keyboard-response","17","25188","0.0-17.0","","","","","null","<img src=""img/food3.png"" style=""width:200px;border:14px solid red;"">","null","","","","","","","","","",""
"","image-keyboard-response","18","25309","0.0-18.0","","","","","106.5","img/food3.png","74","120","1","0","2","1","1,0.7,0,1,0.7,0,0.7,0,1","0,1,0.7,0,1,0.7,1,0.7,0","3","",""
"","html-keyboard-response","19","25647","0.0-19.0","","","","","null","<img src=""img/food3.png"" style=""width:200px;border:14px solid red;"">","null","","","","","","","","","",""
"","image-keyboard-response","20","25810","0.0-20.0","","","","","161.70000076293945","img/food3.png","74","163.10000038146973","1","0","2","1","1,0.7,0,1,0.7,0,0.7,0,1","0,1,0.7,0,1,0.7,1,0.7,0","3","",""
"","html-keyboard-response","21","26113","0.0-21.0","","","","","null","<img src=""img/food3.png"" style=""width:200px;border:14px solid red;"">","null","","","","","","","","","",""
"","image-keyboard-response","22","26232","0.0-22.0","","","","","117.39999961853027","img/food3.png","74","118.89999961853027","1","0","2","1","1,0.7,0,1,0.7,0,0.7,0,1","0,1,0.7,0,1,0.7,1,0.7,0","3","",""
"","html-keyboard-response","23","26535","0.0-23.0","","","","","null","<img src=""img/food3.png"" style=""width:200px;border:14px solid red;"">","null","","","","","","","","","",""
"","image-keyboard-response","24","26639","0.0-24.0","","","","","100.30000019073486","img/food4.png","76","104","3","1","1","1","1,0.7,0,1,0.7,0,0.7,0,1","0,1,0.7,0,1,0.7,1,0.7,0","3","",""
"","html-keyboard-response","25","27070","0.0-25.0","","","","","null","<img src=""img/food4.png"" style=""width:200px; border:14px solid green;"">","null","","","","","","","","","",""
"","image-keyboard-response","26","27257","0.0-26.0","","","","","185.80000019073486","img/food1.png","75","187.19999980926514","2","1","3","1","1,0.7,0,1,0.7,0,0.7,0,1","0,1,0.7,0,1,0.7,1,0.7,0","3","",""
"","html-keyboard-response","27","27725","0.0-27.0","","","","","null","<img src=""img/food1.png"" style=""width:200px; border:14px solid green;"">","null","","","","","","","","","",""
"","image-keyboard-response","28","27828","0.0-28.0","","","","","99.80000019073486","img/food1.png","74","102.89999961853027","1","1","3","1","1,0.7,0,1,0.7,0,0.7,0,1","0,1,0.7,0,1,0.7,1,0.7,0","3","",""
"","html-keyboard-response","29","28320","0.0-29.0","","","","","null","<img src=""img/food1.png"" style=""width:200px; border:14px solid green;"">","null","","","","","","","","","",""
"","image-keyboard-response","30","28362","0.0-30.0","","","","","40.5","img/food3.png","75","41.5","2","1","2","1","1,0.7,0,1,0.7,0,0.7,0,1","0,1,0.7,0,1,0.7,1,0.7,0","3","",""
"","html-keyboard-response","31","28669","0.0-31.0","","","","","null","<img src=""img/food3.png"" style=""width:200px; border:14px solid green;"">","null","","","","","","","","","",""
"","image-keyboard-response","32","28955","0.0-32.0","","","","","253.10000038146973","img/food3.png","75","255.10000038146973","2","1","2","1","1,0.7,0,1,0.7,0,0.7,0,1","0,1,0.7,0,1,0.7,1,0.7,0","3","",""
"","html-keyboard-response","33","29606","0.0-33.0","","","","","null","<img src=""img/food3.png"" style=""width:200px; border:14px solid green;"">","null","","","","","","","","","",""
"","image-keyboard-response","34","29751","0.0-34.0","","","","","143.30000019073486","img/food3.png","74","144.9000005722046","1","0","2","1","1,0.7,0,1,0.7,0,0.7,0,1","0,1,0.7,0,1,0.7,1,0.7,0","3","",""
"","html-keyboard-response","35","30054","0.0-35.0","","","","","null","<img src=""img/food3.png"" style=""width:200px;border:14px solid red;"">","null","","","","","","","","","",""
"","image-keyboard-response","36","30173","0.0-36.0","","","","","116.69999980926514","img/food1.png","76","118.20000076293945","3","0","3","1","1,0.7,0,1,0.7,0,0.7,0,1","0,1,0.7,0,1,0.7,1,0.7,0","3","",""
"","html-keyboard-response","37","30476","0.0-37.0","","","","","null","<img src=""img/food1.png"" style=""width:200px;border:14px solid red;"">","null","","","","","","","","","",""
"","image-keyboard-response","38","30733","0.0-38.0","","","","","254.80000019073486","img/food3.png","74","256","1","0","2","1","1,0.7,0,1,0.7,0,0.7,0,1","0,1,0.7,0,1,0.7,1,0.7,0","3","",""
"","html-keyboard-response","39","31219","0.0-39.0","","","","","null","<img src=""img/food3.png"" style=""width:200px;border:14px solid red;"">","null","","","","","","","","","",""
"","image-keyboard-response","40","31288","0.0-40.0","","","","","67.10000038146973","img/food1.png","74","68.59999942779541","1","1","3","1","1,0.7,0,1,0.7,0,0.7,0,1","0,1,0.7,0,1,0.7,1,0.7,0","3","",""
"","html-keyboard-response","41","31691","0.0-41.0","","","","","null","<img src=""img/food1.png"" style=""width:200px; border:14px solid green;"">","null","","","","","","","","","",""
"","image-keyboard-response","42","31783","0.0-42.0","","","","","90.90000057220459","img/food3.png","74","92","1","0","2","1","1,0.7,0,1,0.7,0,0.7,0,1","0,1,0.7,0,1,0.7,1,0.7,0","3","",""
"","html-keyboard-response","43","32086","0.0-43.0","","","","","null","<img src=""img/food3.png"" style=""width:200px;border:14px solid red;"">","null","","","","","","","","","",""
"","image-keyboard-response","44","32270","0.0-44.0","","","","","182.9000005722046","img/food4.png","75","184.10000038146973","2","1","1","1","1,0.7,0,1,0.7,0,0.7,0,1","0,1,0.7,0,1,0.7,1,0.7,0","3","",""
"","html-keyboard-response","45","32573","0.0-45.0","","","","","null","<img src=""img/food4.png"" style=""width:200px; border:14px solid green;"">","null","","","","","","","","","",""
"","image-keyboard-response","46","32766","0.0-46.0","","","","","182.19999980926514","img/food1.png","75","184","2","1","3","1","1,0.7,0,1,0.7,0,0.7,0,1","0,1,0.7,0,1,0.7,1,0.7,0","3","",""
"","html-keyboard-response","47","33112","0.0-47.0","","","","","null","<img src=""img/food1.png"" style=""width:200px; border:14px solid green;"">","null","","","","","","","","","",""
"","image-keyboard-response","48","33179","0.0-48.0","","","","","64.5","img/food1.png","75","66.19999980926514","2","1","3","1","1,0.7,0,1,0.7,0,0.7,0,1","0,1,0.7,0,1,0.7,1,0.7,0","3","",""
"","html-keyboard-response","49","33482","0.0-49.0","","","","","null","<img src=""img/food1.png"" style=""width:200px; border:14px solid green;"">","null","","","","","","","","","",""
"","image-keyboard-response","50","33686","0.0-50.0","","","","","201.5","img/food4.png","75","202.9000005722046","2","1","1","1","1,0.7,0,1,0.7,0,0.7,0,1","0,1,0.7,0,1,0.7,1,0.7,0","3","",""
"","html-keyboard-response","51","34008","0.0-51.0","","","","","null","<img src=""img/food4.png"" style=""width:200px; border:14px solid green;"">","null","","","","","","","","","",""
"","image-keyboard-response","52","34341","0.0-52.0","","","","","329.69999980926514","img/food1.png","74","332.19999980926514","1","1","3","1","1,0.7,0,1,0.7,0,0.7,0,1","0,1,0.7,0,1,0.7,1,0.7,0","3","",""
"","html-keyboard-response","53","34909","0.0-53.0","","","","","null","<img src=""img/food1.png"" style=""width:200px; border:14px solid green;"">","null","","","","","","","","","",""
"","image-keyboard-response","54","35101","0.0-54.0","","","","","188","img/food3.png","76","191.19999980926514","3","0","2","1","1,0.7,0,1,0.7,0,0.7,0,1","0,1,0.7,0,1,0.7,1,0.7,0","3","",""
"","html-keyboard-response","55","35428","0.0-55.0","","","","","null","<img src=""img/food3.png"" style=""width:200px;border:14px solid red;"">","null","","","","","","","","","",""
"","image-keyboard-response","56","35502","0.0-56.0","","","","","72.10000038146973","img/food4.png","76","73.69999980926514","3","1","1","1","1,0.7,0,1,0.7,0,0.7,0,1","0,1,0.7,0,1,0.7,1,0.7,0","3","",""
"","html-keyboard-response","57","35855","0.0-57.0","","","","","null","<img src=""img/food4.png"" style=""width:200px; border:14px solid green;"">","null","","","","","","","","","",""
"","image-keyboard-response","58","35935","0.0-58.0","","","","","77.89999961853027","img/food1.png","75","79.30000019073486","2","1","3","1","1,0.7,0,1,0.7,0,0.7,0,1","0,1,0.7,0,1,0.7,1,0.7,0","3","",""
"","html-keyboard-response","59","36354","0.0-59.0","","","","","null","<img src=""img/food1.png"" style=""width:200px; border:14px solid green;"">","null","","","","","","","","","",""
"","image-keyboard-response","60","36363","0.0-60.0","","","","","4.199999809265137","img/food3.png","74","12.09999942779541","1","0","2","1","1,0.7,0,1,0.7,0,0.7,0,1","0,1,0.7,0,1,0.7,1,0.7,0","3","",""
"","html-keyboard-response","61","36829","0.0-61.0","","","","","null","<img src=""img/food3.png"" style=""width:200px;border:14px solid red;"">","null","","","","","","","","","",""
"","image-keyboard-response","62","37357","0.0-62.0","","","","","519","img/food1.png","76","520.3999996185303","3","0","3","1","1,0.7,0,1,0.7,0,0.7,0,1","0,1,0.7,0,1,0.7,1,0.7,0","3","",""
"","html-keyboard-response","63","37676","0.0-63.0","","","","","null","<img src=""img/food1.png"" style=""width:200px;border:14px solid red;"">","null","","","","","","","","","",""
"","image-keyboard-response","64","37684","0.0-64.0","","","","","2.3000001907348633","img/food1.png","74","7.90000057220459","1","1","3","1","1,0.7,0,1,0.7,0,0.7,0,1","0,1,0.7,0,1,0.7,1,0.7,0","3","",""
"","html-keyboard-response","65","38067","0.0-65.0","","","","","null","<img src=""img/food1.png"" style=""width:200px; border:14px solid green;"">","null","","","","","","","","","",""
"","image-keyboard-response","66","38487","0.0-66.0","","","","","0.19999980926513672","img/food1.png","74","419.5999994277954","1","1","3","1","1,0.7,0,1,0.7,0,0.7,0,1","0,1,0.7,0,1,0.7,1,0.7,0","3","",""
"","html-keyboard-response","67","38933","0.0-67.0","","","","","null","<img src=""img/food1.png"" style=""width:200px; border:14px solid green;"">","null","","","","","","","","","",""
"","image-keyboard-response","68","38953","0.0-68.0","","","","","13.399999618530273","img/food3.png","75","20","2","1","2","1","1,0.7,0,1,0.7,0,0.7,0,1","0,1,0.7,0,1,0.7,1,0.7,0","3","",""
"","html-keyboard-response","69","39341","0.0-69.0","","","","","null","<img src=""img/food3.png"" style=""width:200px; border:14px solid green;"">","null","","","","","","","","","",""
"","image-keyboard-response","70","39536","0.0-70.0","","","","","190.9000005722046","img/food1.png","75","196.5999994277954","2","1","3","1","1,0.7,0,1,0.7,0,0.7,0,1","0,1,0.7,0,1,0.7,1,0.7,0","3","",""
"","html-keyboard-response","71","39971","0.0-71.0","","","","","null","<img src=""img/food1.png"" style=""width:200px; border:14px solid green;"">","null","","","","","","","","","",""
"","image-keyboard-response","72","40018","0.0-72.0","","","","","45.10000038146973","img/food3.png","74","47.79999923706055","1","0","2","1","1,0.7,0,1,0.7,0,0.7,0,1","0,1,0.7,0,1,0.7,1,0.7,0","3","",""
"","html-keyboard-response","73","40326","0.0-73.0","","","","","null","<img src=""img/food3.png"" style=""width:200px;border:14px solid red;"">","null","","","","","","","","","",""
"","image-keyboard-response","74","40607","0.0-74.0","","","","","278.5999994277954","img/food3.png","74","280.69999980926514","1","0","2","1","1,0.7,0,1,0.7,0,0.7,0,1","0,1,0.7,0,1,0.7,1,0.7,0","3","",""
"","html-keyboard-response","75","40910","0.0-75.0","","","","","null","<img src=""img/food3.png"" style=""width:200px;border:14px solid red;"">","null","","","","","","","","","",""
"","image-keyboard-response","76","41016","0.0-76.0","","","","","104.89999961853027","img/food4.png","75","106.09999942779541","2","1","1","1","1,0.7,0,1,0.7,0,0.7,0,1","0,1,0.7,0,1,0.7,1,0.7,0","3","",""
"","html-keyboard-response","77","41319","0.0-77.0","","","","","null","<img src=""img/food4.png"" style=""width:200px; border:14px solid green;"">","null","","","","","","","","","",""
"","image-keyboard-response","78","41376","0.0-78.0","","","","","54","img/food4.png","74","56.80000019073486","1","0","1","1","1,0.7,0,1,0.7,0,0.7,0,1","0,1,0.7,0,1,0.7,1,0.7,0","3","",""
"","html-keyboard-response","79","41790","0.0-79.0","","","","","null","<img src=""img/food4.png"" style=""width:200px;border:14px solid red;"">","null","","","","","","","","","",""
"","image-keyboard-response","80","41919","0.0-80.0","","","","","126.5","img/food4.png","74","128.0999994277954","1","0","1","1","1,0.7,0,1,0.7,0,0.7,0,1","0,1,0.7,0,1,0.7,1,0.7,0","3","",""
"","html-keyboard-response","81","42327","0.0-81.0","","","","","null","<img src=""img/food4.png"" style=""width:200px;border:14px solid red;"">","null","","","","","","","","","",""
"","image-keyboard-response","82","42468","0.0-82.0","","","","","140.5","img/food4.png","74","141.60000038146973","1","0","1","1","1,0.7,0,1,0.7,0,0.7,0,1","0,1,0.7,0,1,0.7,1,0.7,0","3","",""
"","html-keyboard-response","83","42770","0.0-83.0","","","","","null","<img src=""img/food4.png"" style=""width:200px;border:14px solid red;"">","null","","","","","","","","","",""
"","image-keyboard-response","84","43032","0.0-84.0","","","","","259.69999980926514","img/food3.png","75","261.1000003814697","2","1","2","1","1,0.7,0,1,0.7,0,0.7,0,1","0,1,0.7,0,1,0.7,1,0.7,0","3","",""
"","html-keyboard-response","85","43416","0.0-85.0","","","","","null","<img src=""img/food3.png"" style=""width:200px; border:14px solid green;"">","null","","","","","","","","","",""
"","image-keyboard-response","86","43661","0.0-86.0","","","","","241.69999980926514","img/food1.png","76","244.5999994277954","3","0","3","1","1,0.7,0,1,0.7,0,0.7,0,1","0,1,0.7,0,1,0.7,1,0.7,0","3","",""
"","html-keyboard-response","87","44028","0.0-87.0","","","","","null","<img src=""img/food1.png"" style=""width:200px;border:14px solid red;"">","null","","","","","","","","","",""
"","image-keyboard-response","88","44374","0.0-88.0","","","","","342.9000005722046","img/food3.png","75","346.20000076293945","2","1","2","1","1,0.7,0,1,0.7,0,0.7,0,1","0,1,0.7,0,1,0.7,1,0.7,0","3","",""
"","html-keyboard-response","89","44688","0.0-89.0","","","","","null","<img src=""img/food3.png"" style=""width:200px; border:14px solid green;"">","null","","","","","","","","","",""
"","image-keyboard-response","90","44942","0.0-90.0","","","","","245.39999961853027","img/food3.png","74","253.69999980926514","1","0","2","1","1,0.7,0,1,0.7,0,0.7,0,1","0,1,0.7,0,1,0.7,1,0.7,0","3","",""
"","html-keyboard-response","91","45246","0.0-91.0","","","","","null","<img src=""img/food3.png"" style=""width:200px;border:14px solid red;"">","null","","","","","","","","","",""
"","image-keyboard-response","92","45378","0.0-92.0","","","","","131.10000038146973","img/food4.png","74","132.5","1","0","1","1","1,0.7,0,1,0.7,0,0.7,0,1","0,1,0.7,0,1,0.7,1,0.7,0","3","",""
"","html-keyboard-response","93","45682","0.0-93.0","","","","","null","<img src=""img/food4.png"" style=""width:200px;border:14px solid red;"">","null","","","","","","","","","",""
"","image-keyboard-response","94","45812","0.0-94.0","","","","","128.5999994277954","img/food4.png","76","129.89999961853027","3","1","1","1","1,0.7,0,1,0.7,0,0.7,0,1","0,1,0.7,0,1,0.7,1,0.7,0","3","",""
"","html-keyboard-response","95","46114","0.0-95.0","","","","","null","<img src=""img/food4.png"" style=""width:200px; border:14px solid green;"">","null","","","","","","","","","",""
"","image-keyboard-response","96","46259","0.0-96.0","","","","","142.0999994277954","img/food4.png","76","144.0999994277954","3","1","1","1","1,0.7,0,1,0.7,0,0.7,0,1","0,1,0.7,0,1,0.7,1,0.7,0","3","",""
"","html-keyboard-response","97","46807","0.0-97.0","","","","","null","<img src=""img/food4.png"" style=""width:200px; border:14px solid green;"">","null","","","","","","","","","",""
"","image-keyboard-response","98","47032","0.0-98.0","","","","","222.30000019073486","img/food4.png","76","224.60000038146973","3","1","1","1","1,0.7,0,1,0.7,0,0.7,0,1","0,1,0.7,0,1,0.7,1,0.7,0","3","",""
"","html-keyboard-response","99","47411","0.0-99.0","","","","","null","<img src=""img/food4.png"" style=""width:200px; border:14px solid green;"">","null","","","","","","","","","",""
"","image-keyboard-response","100","47433","0.0-100.0","","","","","19.699999809265137","img/food4.png","76","21","3","0","1","1","1,0.7,0,1,0.7,0,0.7,0,1","0,1,0.7,0,1,0.7,1,0.7,0","3","",""
"","html-keyboard-response","101","47736","0.0-101.0","","","","","null","<img src=""img/food4.png"" style=""width:200px;border:14px solid red;"">","null","","","","","","","","","",""
"","image-keyboard-response","102","47985","0.0-102.0","","","","","246.80000019073486","img/food4.png","75","248.69999980926514","2","1","1","1","1,0.7,0,1,0.7,0,0.7,0,1","0,1,0.7,0,1,0.7,1,0.7,0","3","",""
"","html-keyboard-response","103","48607","0.0-103.0","","","","","null","<img src=""img/food4.png"" style=""width:200px; border:14px solid green;"">","null","","","","","","","","","",""
"","image-keyboard-response","104","48832","0.0-104.0","","","","","223.19999980926514","img/food4.png","74","224.70000076293945","1","0","1","1","1,0.7,0,1,0.7,0,0.7,0,1","0,1,0.7,0,1,0.7,1,0.7,0","3","",""
"","html-keyboard-response","105","49180","0.0-105.0","","","","","null","<img src=""img/food4.png"" style=""width:200px;border:14px solid red;"">","null","","","","","","","","","",""
"","image-keyboard-response","106","49293","0.0-106.0","","","","","110.39999961853027","img/food3.png","74","112.60000038146973","1","0","2","1","1,0.7,0,1,0.7,0,0.7,0,1","0,1,0.7,0,1,0.7,1,0.7,0","3","",""
"","html-keyboard-response","107","49595","0.0-107.0","","","","","null","<img src=""img/food3.png"" style=""width:200px;border:14px solid red;"">","null","","","","","","","","","",""
"","image-keyboard-response","108","49800","0.0-108.0","","","","","202.5","img/food3.png","75","205.5","2","1","2","1","1,0.7,0,1,0.7,0,0.7,0,1","0,1,0.7,0,1,0.7,1,0.7,0","3","",""
"","html-keyboard-response","109","50135","0.0-109.0","","","","","null","<img src=""img/food3.png"" style=""width:200px; border:14px solid green;"">","null","","","","","","","","","",""
"","image-keyboard-response","110","50287","0.0-110.0","","","","","151.10000038146973","img/food1.png","75","152.10000038146973","2","0","3","1","1,0.7,0,1,0.7,0,0.7,0,1","0,1,0.7,0,1,0.7,1,0.7,0","3","",""
"","html-keyboard-response","111","50591","0.0-111.0","","","","","null","<img src=""img/food1.png"" style=""width:200px;border:14px solid red;"">","null","","","","","","","","","",""
"","image-keyboard-response","112","50616","0.0-112.0","","","","","21.800000190734863","img/food4.png","76","24.800000190734863","3","1","1","1","1,0.7,0,1,0.7,0,0.7,0,1","0,1,0.7,0,1,0.7,1,0.7,0","3","",""
"","html-keyboard-response","113","50956","0.0-113.0","","","","","null","<img src=""img/food4.png"" style=""width:200px; border:14px solid green;"">","null","","","","","","","","","",""
"","image-keyboard-response","114","51074","0.0-114.0","","","","","114.89999961853027","img/food3.png","75","117.60000038146973","2","1","2","1","1,0.7,0,1,0.7,0,0.7,0,1","0,1,0.7,0,1,0.7,1,0.7,0","3","",""
"","html-keyboard-response","115","51429","0.0-115.0","","","","","null","<img src=""img/food3.png"" style=""width:200px; border:14px solid green;"">","null","","","","","","","","","",""
"","image-keyboard-response","116","51520","0.0-116.0","","","","","88.80000019073486","img/food1.png","74","90.30000019073486","1","1","3","1","1,0.7,0,1,0.7,0,0.7,0,1","0,1,0.7,0,1,0.7,1,0.7,0","3","",""
"","html-keyboard-response","117","51838","0.0-117.0","","","","","null","<img src=""img/food1.png"" style=""width:200px; border:14px solid green;"">","null","","","","","","","","","",""
"","image-keyboard-response","118","51936","0.0-118.0","","","","","95.69999980926514","img/food1.png","76","97.90000057220459","3","0","3","1","1,0.7,0,1,0.7,0,0.7,0,1","0,1,0.7,0,1,0.7,1,0.7,0","3","",""
"","html-keyboard-response","119","52338","0.0-119.0","","","","","null","<img src=""img/food1.png"" style=""width:200px;border:14px solid red;"">","null","","","","","","","","","",""
"","image-keyboard-response","120","52359","0.0-120.0","","","","","19.300000190734863","img/food3.png","75","21.40000057220459","2","1","2","1","1,0.7,0,1,0.7,0,0.7,0,1","0,1,0.7,0,1,0.7,1,0.7,0","3","",""
"","html-keyboard-response","121","52700","0.0-121.0","","","","","null","<img src=""img/food3.png"" style=""width:200px; border:14px solid green;"">","null","","","","","","","","","",""
"","image-keyboard-response","122","52861","0.0-122.0","","","","","158.80000019073486","img/food4.png","74","160.5","1","0","1","1","1,0.7,0,1,0.7,0,0.7,0,1","0,1,0.7,0,1,0.7,1,0.7,0","3","",""
"","html-keyboard-response","123","53164","0.0-123.0","","","","","null","<img src=""img/food4.png"" style=""width:200px;border:14px solid red;"">","null","","","","","","","","","",""
"","image-keyboard-response","124","53239","0.0-124.0","","","","","72.69999980926514","img/food1.png","74","74.5","1","1","3","1","1,0.7,0,1,0.7,0,0.7,0,1","0,1,0.7,0,1,0.7,1,0.7,0","3","",""
"","html-keyboard-response","125","53571","0.0-125.0","","","","","null","<img src=""img/food1.png"" style=""width:200px; border:14px solid green;"">","null","","","","","","","","","",""
"","image-keyboard-response","126","54229","0.0-126.0","","","","","656.4000005722046","img/food1.png","76","657.7999992370605","3","0","3","1","1,0.7,0,1,0.7,0,0.7,0,1","0,1,0.7,0,1,0.7,1,0.7,0","3","",""
"","html-keyboard-response","127","54531","0.0-127.0","","","","","null","<img src=""img/food1.png"" style=""width:200px;border:14px solid red;"">","null","","","","","","","","","",""
"","image-keyboard-response","128","54677","0.0-128.0","","","","","143.10000038146973","img/food1.png","76","145.60000038146973","3","0","3","1","1,0.7,0,1,0.7,0,0.7,0,1","0,1,0.7,0,1,0.7,1,0.7,0","3","",""
"","html-keyboard-response","129","55228","0.0-129.0","","","","","null","<img src=""img/food1.png"" style=""width:200px;border:14px solid red;"">","null","","","","","","","","","",""
"","image-keyboard-response","130","55311","0.0-130.0","","","","","81","img/food3.png","76","82.80000019073486","3","1","2","1","1,0.7,0,1,0.7,0,0.7,0,1","0,1,0.7,0,1,0.7,1,0.7,0","3","",""
"","html-keyboard-response","131","55735","0.0-131.0","","","","","null","<img src=""img/food3.png"" style=""width:200px; border:14px solid green;"">","null","","","","","","","","","",""
"","image-keyboard-response","132","55743","0.0-132.0","","","","","0.5","img/food1.png","74","5.799999237060547","1","1","3","1","1,0.7,0,1,0.7,0,0.7,0,1","0,1,0.7,0,1,0.7,1,0.7,0","3","",""
"","html-keyboard-response","133","56102","0.0-133.0","","","","","null","<img src=""img/food1.png"" style=""width:200px; border:14px solid green;"">","null","","","","","","","","","",""
"","image-keyboard-response","134","56278","0.0-134.0","","","","","128.60000038146973","img/food4.png","75","166.5","2","1","1","1","1,0.7,0,1,0.7,0,0.7,0,1","0,1,0.7,0,1,0.7,1,0.7,0","3","",""
"","html-keyboard-response","135","56687","0.0-135.0","","","","","null","<img src=""img/food4.png"" style=""width:200px; border:14px solid green;"">","null","","","","","","","","","",""
"","image-keyboard-response","136","56891","0.0-136.0","","","","","198.30000019073486","img/food4.png","75","203.5","2","1","1","1","1,0.7,0,1,0.7,0,0.7,0,1","0,1,0.7,0,1,0.7,1,0.7,0","3","",""
"","html-keyboard-response","137","57434","0.0-137.0","","","","","null","<img src=""img/food4.png"" style=""width:200px; border:14px solid green;"">","null","","","","","","","","","",""
"","image-keyboard-response","138","57643","0.0-138.0","","","","","207.89999961853027","img/food4.png","75","209.39999961853027","2","1","1","1","1,0.7,0,1,0.7,0,0.7,0,1","0,1,0.7,0,1,0.7,1,0.7,0","3","",""
"","html-keyboard-response","139","58088","0.0-139.0","","","","","null","<img src=""img/food4.png"" style=""width:200px; border:14px solid green;"">","null","","","","","","","","","",""
"","image-keyboard-response","140","58563","0.0-140.0","","","","","471.6000003814697","img/food1.png","74","473.19999980926514","1","1","3","1","1,0.7,0,1,0.7,0,0.7,0,1","0,1,0.7,0,1,0.7,1,0.7,0","3","",""
"","html-keyboard-response","141","58869","0.0-141.0","","","","","null","<img src=""img/food1.png"" style=""width:200px; border:14px solid green;"">","null","","","","","","","","","",""
"","image-keyboard-response","142","58899","0.0-142.0","","","","","27.699999809265137","img/food3.png","76","29.200000762939453","3","1","2","1","1,0.7,0,1,0.7,0,0.7,0,1","0,1,0.7,0,1,0.7,1,0.7,0","3","",""
"","html-keyboard-response","143","59286","0.0-143.0","","","","","null","<img src=""img/food3.png"" style=""width:200px; border:14px solid green;"">","null","","","","","","","","","",""
"","image-keyboard-response","144","59641","0.0-144.0","","","","","351.4000005722046","img/food1.png","75","353.3999996185303","2","1","3","1","1,0.7,0,1,0.7,0,0.7,0,1","0,1,0.7,0,1,0.7,1,0.7,0","3","",""
"","html-keyboard-response","145","59944","0.0-145.0","","","","","null","<img src=""img/food1.png"" style=""width:200px; border:14px solid green;"">","null","","","","","","","","","",""
"","image-keyboard-response","146","60018","0.0-146.0","","","","","72.39999961853027","img/food3.png","76","73.80000019073486","3","1","2","1","1,0.7,0,1,0.7,0,0.7,0,1","0,1,0.7,0,1,0.7,1,0.7,0","3","",""
"","html-keyboard-response","147","60320","0.0-147.0","","","","","null","<img src=""img/food3.png"" style=""width:200px; border:14px solid green;"">","null","","","","","","","","","",""
"","image-keyboard-response","148","60449","0.0-148.0","","","","","57.5","img/food4.png","75","128.80000019073486","2","1","1","1","1,0.7,0,1,0.7,0,0.7,0,1","0,1,0.7,0,1,0.7,1,0.7,0","3","",""
"","html-keyboard-response","149","60822","0.0-149.0","","","","","null","<img src=""img/food4.png"" style=""width:200px; border:14px solid green;"">","null","","","","","","","","","",""
"","image-keyboard-response","150","60991","0.0-150.0","","","","","129.19999980926514","img/food4.png","75","168.39999961853027","2","1","1","1","1,0.7,0,1,0.7,0,0.7,0,1","0,1,0.7,0,1,0.7,1,0.7,0","3","",""
"","html-keyboard-response","151","61357","0.0-151.0","","","","","null","<img src=""img/food4.png"" style=""width:200px; border:14px solid green;"">","null","","","","","","","","","",""
"","image-keyboard-response","152","61512","0.0-152.0","","","","","146.30000019073486","img/food1.png","75","149.80000019073486","2","1","3","1","1,0.7,0,1,0.7,0,0.7,0,1","0,1,0.7,0,1,0.7,1,0.7,0","3","",""
"","html-keyboard-response","153","62064","0.0-153.0","","","","","null","<img src=""img/food1.png"" style=""width:200px; border:14px solid green;"">","null","","","","","","","","","",""
"","image-keyboard-response","154","62215","0.0-154.0","","","","","149.4000005722046","img/food3.png","74","150.80000019073486","1","0","2","1","1,0.7,0,1,0.7,0,0.7,0,1","0,1,0.7,0,1,0.7,1,0.7,0","3","",""
"","html-keyboard-response","155","62538","0.0-155.0","","","","","null","<img src=""img/food3.png"" style=""width:200px;border:14px solid red;"">","null","","","","","","","","","",""
"","image-keyboard-response","156","62550","0.0-156.0","","","","","8.800000190734863","img/food1.png","75","10.5","2","1","3","1","1,0.7,0,1,0.7,0,0.7,0,1","0,1,0.7,0,1,0.7,1,0.7,0","3","",""
"","html-keyboard-response","157","62866","0.0-157.0","","","","","null","<img src=""img/food1.png"" style=""width:200px; border:14px solid green;"">","null","","","","","","","","","",""
"","image-keyboard-response","158","63149","0.0-158.0","","","","","273.1000003814697","img/food4.png","76","279.70000076293945","3","1","1","1","1,0.7,0,1,0.7,0,0.7,0,1","0,1,0.7,0,1,0.7,1,0.7,0","3","",""
"","html-keyboard-response","159","63915","0.0-159.0","","","","","null","<img src=""img/food4.png"" style=""width:200px; border:14px solid green;"">","null","","","","","","","","","",""
"","image-keyboard-response","160","63920","0.0-160.0","","","","","3.5","img/food3.png","74","4.59999942779541","1","0","2","1","1,0.7,0,1,0.7,0,0.7,0,1","0,1,0.7,0,1,0.7,1,0.7,0","3","",""
"","html-keyboard-response","161","64503","0.0-161.0","","","","","null","<img src=""img/food3.png"" style=""width:200px;border:14px solid red;"">","null","","","","","","","","","",""
"","image-keyboard-response","162","64899","0.0-162.0","","","","","394.5999994277954","img/food1.png","74","395.8999996185303","1","1","3","1","1,0.7,0,1,0.7,0,0.7,0,1","0,1,0.7,0,1,0.7,1,0.7,0","3","",""
"","html-keyboard-response","163","65235","0.0-163.0","","","","","null","<img src=""img/food1.png"" style=""width:200px; border:14px solid green;"">","null","","","","","","","","","",""
"","image-keyboard-response","164","65634","0.0-164.0","","","","","380","img/food1.png","76","382.9000005722046","3","0","3","1","1,0.7,0,1,0.7,0,0.7,0,1","0,1,0.7,0,1,0.7,1,0.7,0","3","",""
"","html-keyboard-response","165","65936","0.0-165.0","","","","","null","<img src=""img/food1.png"" style=""width:200px;border:14px solid red;"">","null","","","","","","","","","",""
"","image-keyboard-response","166","66221","0.0-166.0","","","","","283.5","img/food4.png","74","284.6000003814697","1","0","1","1","1,0.7,0,1,0.7,0,0.7,0,1","0,1,0.7,0,1,0.7,1,0.7,0","3","",""
"","html-keyboard-response","167","66751","0.0-167.0","","","","","null","<img src=""img/food4.png"" style=""width:200px;border:14px solid red;"">","null","","","","","","","","","",""
"","image-keyboard-response","168","66770","0.0-168.0","","","","","15.5","img/food1.png","76","17.5","3","0","3","1","1,0.7,0,1,0.7,0,0.7,0,1","0,1,0.7,0,1,0.7,1,0.7,0","3","",""
"","html-keyboard-response","169","67072","0.0-169.0","","","","","null","<img src=""img/food1.png"" style=""width:200px;border:14px solid red;"">","null","","","","","","","","","",""
"","image-keyboard-response","170","67514","0.0-170.0","","","","","0.09999942779541016","img/food4.png","74","441.30000019073486","1","0","1","1","1,0.7,0,1,0.7,0,0.7,0,1","0,1,0.7,0,1,0.7,1,0.7,0","3","",""
"","html-keyboard-response","171","67883","0.0-171.0","","","","","null","<img src=""img/food4.png"" style=""width:200px;border:14px solid red;"">","null","","","","","","","","","",""
"","image-keyboard-response","172","68159","0.0-172.0","","","","","274.1000003814697","img/food3.png","74","276.0999994277954","1","0","2","1","1,0.7,0,1,0.7,0,0.7,0,1","0,1,0.7,0,1,0.7,1,0.7,0","3","",""
"","html-keyboard-response","173","68667","0.0-173.0","","","","","null","<img src=""img/food3.png"" style=""width:200px;border:14px solid red;"">","null","","","","","","","","","",""
"","image-keyboard-response","174","68710","0.0-174.0","","","","","40.70000076293945","img/food4.png","75","42.5","2","1","1","1","1,0.7,0,1,0.7,0,0.7,0,1","0,1,0.7,0,1,0.7,1,0.7,0","3","",""
"","html-keyboard-response","175","69353","0.0-175.0","","","","","null","<img src=""img/food4.png"" style=""width:200px; border:14px solid green;"">","null","","","","","","","","","",""
"","image-keyboard-response","176","69393","0.0-176.0","","","","","37","img/food3.png","74","39.30000019073486","1","0","2","1","1,0.7,0,1,0.7,0,0.7,0,1","0,1,0.7,0,1,0.7,1,0.7,0","3","",""
"","html-keyboard-response","177","69890","0.0-177.0","","","","","null","<img src=""img/food3.png"" style=""width:200px;border:14px solid red;"">","null","","","","","","","","","",""
"","image-keyboard-response","178","70234","0.0-178.0","","","","","342.6000003814697","img/food3.png","75","344.19999980926514","2","1","2","1","1,0.7,0,1,0.7,0,0.7,0,1","0,1,0.7,0,1,0.7,1,0.7,0","3","",""
"","html-keyboard-response","179","70572","0.0-179.0","","","","","null","<img src=""img/food3.png"" style=""width:200px; border:14px solid green;"">","null","","","","","","","","","",""
"","image-keyboard-response","180","70652","0.0-180.0","","","","","77.69999980926514","img/food1.png","74","79.90000057220459","1","1","3","1","1,0.7,0,1,0.7,0,0.7,0,1","0,1,0.7,0,1,0.7,1,0.7,0","3","",""
"","html-keyboard-response","181","70955","0.0-181.0","","","","","null","<img src=""img/food1.png"" style=""width:200px; border:14px solid green;"">","null","","","","","","","","","",""
"","html-keyboard-response","182","83734","0.0-182.0","","","","","","","","","","","","","","","","",""
"","instructions","183","86566","0.0-183.0","","","","[{""page_index"":0,""viewing_time"":1270.2000007629395},{""page_index"":1,""viewing_time"":1560}]","2830.800000190735","","","","","","","","","","","",""
"","image-keyboard-response","184","87571","0.0-184.0","","","","","","img/food6.png","","1004.0999994277954","-1","0","1","2","1,0.7,0,1,0.7,0,0.7,0,1","0.7,0,1,0.7,0,1,0,1,0.7","2","true",""
"","html-keyboard-response","185","87873","0.0-185.0","","","","","null","<img src=""img/food6.png"" style=""width:200px;border:14px solid red;"">","null","","","","","","","","","",""
"","html-keyboard-response","186","91548","0.0-186.0-0.0","","","","","","","","","","","","","","","","",""
"","image-keyboard-response","187","92553","0.0-187.0","","","","","","img/food2.png","","1004.5","-1","0","2","2","1,0.7,0,1,0.7,0,0.7,0,1","0.7,0,1,0.7,0,1,0,1,0.7","2","true",""
"","html-keyboard-response","188","92858","0.0-188.0","","","","","null","<img src=""img/food2.png"" style=""width:200px;border:14px solid red;"">","null","","","","","","","","","",""
"","html-keyboard-response","189","95501","0.0-189.0-0.0","","","","","","","","","","","","","","","","",""
"","image-keyboard-response","190","95631","0.0-190.0","","","","","127.70000076293945","img/food5.png","74","129.80000019073486","1","0","3","2","1,0.7,0,1,0.7,0,0.7,0,1","0.7,0,1,0.7,0,1,0,1,0.7","2","false",""
"","html-keyboard-response","191","95934","0.0-191.0","","","","","null","<img src=""img/food5.png"" style=""width:200px;border:14px solid red;"">","null","","","","","","","","","",""
"","image-keyboard-response","192","95954","0.0-193.0","","","","","18.40000057220459","img/food6.png","75","19.899999618530273","2","0","1","2","1,0.7,0,1,0.7,0,0.7,0,1","0.7,0,1,0.7,0,1,0,1,0.7","2","false",""
"","html-keyboard-response","193","96573","0.0-194.0","","","","","null","<img src=""img/food6.png"" style=""width:200px;border:14px solid red;"">","null","","","","","","","","","",""
"","image-keyboard-response","194","96587","0.0-196.0","","","","","12.800000190734863","img/food2.png","74","14.299999237060547","1","1","2","2","1,0.7,0,1,0.7,0,0.7,0,1","0.7,0,1,0.7,0,1,0,1,0.7","2","false",""
"","html-keyboard-response","195","97264","0.0-197.0","","","","","null","<img src=""img/food2.png"" style=""width:200px; border:14px solid green;"">","null","","","","","","","","","",""
"","image-keyboard-response","196","97424","0.0-199.0","","","","","154","img/food5.png","74","157.29999923706055","1","0","3","2","1,0.7,0,1,0.7,0,0.7,0,1","0.7,0,1,0.7,0,1,0,1,0.7","2","false",""
"","html-keyboard-response","197","97727","0.0-200.0","","","","","null","<img src=""img/food5.png"" style=""width:200px;border:14px solid red;"">","null","","","","","","","","","",""
"","image-keyboard-response","198","97854","0.0-202.0","","","","","124.69999980926514","img/food2.png","74","126.39999961853027","1","1","2","2","1,0.7,0,1,0.7,0,0.7,0,1","0.7,0,1,0.7,0,1,0,1,0.7","2","false",""
"","html-keyboard-response","199","98157","0.0-203.0","","","","","null","<img src=""img/food2.png"" style=""width:200px; border:14px solid green;"">","null","","","","","","","","","",""
"","image-keyboard-response","200","98277","0.0-205.0","","","","","117.19999980926514","img/food5.png","74","119","1","0","3","2","1,0.7,0,1,0.7,0,0.7,0,1","0.7,0,1,0.7,0,1,0,1,0.7","2","false",""
"","html-keyboard-response","201","98580","0.0-206.0","","","","","null","<img src=""img/food5.png"" style=""width:200px;border:14px solid red;"">","null","","","","","","","","","",""
"","image-keyboard-response","202","98793","0.0-208.0","","","","","210.10000038146973","img/food6.png","74","212.10000038146973","1","0","1","2","1,0.7,0,1,0.7,0,0.7,0,1","0.7,0,1,0.7,0,1,0,1,0.7","2","false",""
"","html-keyboard-response","203","99256","0.0-209.0","","","","","null","<img src=""img/food6.png"" style=""width:200px;border:14px solid red;"">","null","","","","","","","","","",""
"","image-keyboard-response","204","99630","0.0-211.0","","","","","371.8999996185303","img/food2.png","74","373.6000003814697","1","1","2","2","1,0.7,0,1,0.7,0,0.7,0,1","0.7,0,1,0.7,0,1,0,1,0.7","2","false",""
"","html-keyboard-response","205","99933","0.0-212.0","","","","","null","<img src=""img/food2.png"" style=""width:200px; border:14px solid green;"">","null","","","","","","","","","",""
"","image-keyboard-response","206","100046","0.0-214.0","","","","","112.19999980926514","img/food5.png","76","113.39999961853027","3","0","3","2","1,0.7,0,1,0.7,0,0.7,0,1","0.7,0,1,0.7,0,1,0,1,0.7","2","false",""
"","html-keyboard-response","207","100349","0.0-215.0","","","","","null","<img src=""img/food5.png"" style=""width:200px;border:14px solid red;"">","null","","","","","","","","","",""
"","image-keyboard-response","208","100579","0.0-217.0","","","","","227.39999961853027","img/food6.png","76","228.5999994277954","3","1","1","2","1,0.7,0,1,0.7,0,0.7,0,1","0.7,0,1,0.7,0,1,0,1,0.7","2","false",""
"","html-keyboard-response","209","100883","0.0-218.0","","","","","null","<img src=""img/food6.png"" style=""width:200px; border:14px solid green;"">","null","","","","","","","","","",""
"","image-keyboard-response","210","101011","0.0-220.0","","","","","126.5","img/food5.png","76","127.79999923706055","3","1","3","2","1,0.7,0,1,0.7,0,0.7,0,1","0.7,0,1,0.7,0,1,0,1,0.7","2","false",""
"","html-keyboard-response","211","101314","0.0-221.0","","","","","null","<img src=""img/food5.png"" style=""width:200px; border:14px solid green;"">","null","","","","","","","","","",""
"","image-keyboard-response","212","101415","0.0-223.0","","","","","99","img/food6.png","74","100.39999961853027","1","1","1","2","1,0.7,0,1,0.7,0,0.7,0,1","0.7,0,1,0.7,0,1,0,1,0.7","2","false",""
"","html-keyboard-response","213","101813","0.0-224.0","","","","","null","<img src=""img/food6.png"" style=""width:200px; border:14px solid green;"">","null","","","","","","","","","",""
"","image-keyboard-response","214","102051","0.0-226.0","","","","","235.69999980926514","img/food6.png","75","237.20000076293945","2","0","1","2","1,0.7,0,1,0.7,0,0.7,0,1","0.7,0,1,0.7,0,1,0,1,0.7","2","false",""
"","html-keyboard-response","215","102354","0.0-227.0","","","","","null","<img src=""img/food6.png"" style=""width:200px;border:14px solid red;"">","null","","","","","","","","","",""
"","image-keyboard-response","216","102482","0.0-229.0","","","","","126.19999980926514","img/food2.png","74","127.40000057220459","1","1","2","2","1,0.7,0,1,0.7,0,0.7,0,1","0.7,0,1,0.7,0,1,0,1,0.7","2","false",""
"","html-keyboard-response","217","102785","0.0-230.0","","","","","null","<img src=""img/food2.png"" style=""width:200px; border:14px solid green;"">","null","","","","","","","","","",""
"","image-keyboard-response","218","102879","0.0-232.0","","","","","92.30000019073486","img/food5.png","74","93.40000057220459","1","0","3","2","1,0.7,0,1,0.7,0,0.7,0,1","0.7,0,1,0.7,0,1,0,1,0.7","2","false",""
"","html-keyboard-response","219","103193","0.0-233.0","","","","","null","<img src=""img/food5.png"" style=""width:200px;border:14px solid red;"">","null","","","","","","","","","",""
"","image-keyboard-response","220","103321","0.0-235.0","","","","","126.90000057220459","img/food5.png","75","130","2","1","3","2","1,0.7,0,1,0.7,0,0.7,0,1","0.7,0,1,0.7,0,1,0,1,0.7","2","false",""
"","html-keyboard-response","221","103627","0.0-236.0","","","","","null","<img src=""img/food5.png"" style=""width:200px; border:14px solid green;"">","null","","","","","","","","","",""
"","image-keyboard-response","222","103819","0.0-238.0","","","","","190.10000038146973","img/food2.png","75","191.4000005722046","2","0","2","2","1,0.7,0,1,0.7,0,0.7,0,1","0.7,0,1,0.7,0,1,0,1,0.7","2","false",""
"","html-keyboard-response","223","104169","0.0-239.0","","","","","null","<img src=""img/food2.png"" style=""width:200px;border:14px solid red;"">","null","","","","","","","","","",""
"","image-keyboard-response","224","104213","0.0-241.0","","","","","42.69999980926514","img/food5.png","74","44","1","0","3","2","1,0.7,0,1,0.7,0,0.7,0,1","0.7,0,1,0.7,0,1,0,1,0.7","2","false",""
"","html-keyboard-response","225","104640","0.0-242.0","","","","","null","<img src=""img/food5.png"" style=""width:200px;border:14px solid red;"">","null","","","","","","","","","",""
"","image-keyboard-response","226","104975","0.0-244.0","","","","","332.8999996185303","img/food6.png","76","335.5","3","1","1","2","1,0.7,0,1,0.7,0,0.7,0,1","0.7,0,1,0.7,0,1,0,1,0.7","2","false",""
"","html-keyboard-response","227","105280","0.0-245.0","","","","","null","<img src=""img/food6.png"" style=""width:200px; border:14px solid green;"">","null","","","","","","","","","",""
"","image-keyboard-response","228","105580","0.0-247.0","","","","","298.1000003814697","img/food6.png","74","299.3999996185303","1","1","1","2","1,0.7,0,1,0.7,0,0.7,0,1","0.7,0,1,0.7,0,1,0,1,0.7","2","false",""
"","html-keyboard-response","229","105975","0.0-248.0","","","","","null","<img src=""img/food6.png"" style=""width:200px; border:14px solid green;"">","null","","","","","","","","","",""
"","image-keyboard-response","230","106672","0.0-250.0","","","","","691.8000001907349","img/food5.png","74","694.5999994277954","1","0","3","2","1,0.7,0,1,0.7,0,0.7,0,1","0.7,0,1,0.7,0,1,0,1,0.7","2","false",""
"","html-keyboard-response","231","106989","0.0-251.0","","","","","null","<img src=""img/food5.png"" style=""width:200px;border:14px solid red;"">","null","","","","","","","","","",""
"","image-keyboard-response","232","107037","0.0-253.0","","","","","45.90000057220459","img/food6.png","74","47.5","1","1","1","2","1,0.7,0,1,0.7,0,0.7,0,1","0.7,0,1,0.7,0,1,0,1,0.7","2","false",""
"","html-keyboard-response","233","107356","0.0-254.0","","","","","null","<img src=""img/food6.png"" style=""width:200px; border:14px solid green;"">","null","","","","","","","","","",""
"","image-keyboard-response","234","107432","0.0-256.0","","","","","74","img/food2.png","76","76","3","1","2","2","1,0.7,0,1,0.7,0,0.7,0,1","0.7,0,1,0.7,0,1,0,1,0.7","2","false",""
"","html-keyboard-response","235","107765","0.0-257.0","","","","","null","<img src=""img/food2.png"" style=""width:200px; border:14px solid green;"">","null","","","","","","","","","",""
"","image-keyboard-response","236","107906","0.0-259.0","","","","","98.10000038146973","img/food5.png","76","101.10000038146973","3","1","3","2","1,0.7,0,1,0.7,0,0.7,0,1","0.7,0,1,0.7,0,1,0,1,0.7","2","false",""
"","html-keyboard-response","237","108210","0.0-260.0","","","","","null","<img src=""img/food5.png"" style=""width:200px; border:14px solid green;"">","null","","","","","","","","","",""
"","image-keyboard-response","238","108264","0.0-262.0","","","","","52.39999961853027","img/food2.png","74","53.80000019073486","1","1","2","2","1,0.7,0,1,0.7,0,0.7,0,1","0.7,0,1,0.7,0,1,0,1,0.7","2","false",""
"","html-keyboard-response","239","108572","0.0-263.0","","","","","null","<img src=""img/food2.png"" style=""width:200px; border:14px solid green;"">","null","","","","","","","","","",""
"","image-keyboard-response","240","108720","0.0-265.0","","","","","145.89999961853027","img/food5.png","75","147.69999980926514","2","1","3","2","1,0.7,0,1,0.7,0,0.7,0,1","0.7,0,1,0.7,0,1,0,1,0.7","2","false",""
"","html-keyboard-response","241","109024","0.0-266.0","","","","","null","<img src=""img/food5.png"" style=""width:200px; border:14px solid green;"">","null","","","","","","","","","",""
"","image-keyboard-response","242","109198","0.0-268.0","","","","","172.60000038146973","img/food2.png","74","174.5","1","1","2","2","1,0.7,0,1,0.7,0,0.7,0,1","0.7,0,1,0.7,0,1,0,1,0.7","2","false",""
"","html-keyboard-response","243","109502","0.0-269.0","","","","","null","<img src=""img/food2.png"" style=""width:200px; border:14px solid green;"">","null","","","","","","","","","",""
"","image-keyboard-response","244","109719","0.0-271.0","","","","","215","img/food5.png","75","216.80000019073486","2","1","3","2","1,0.7,0,1,0.7,0,0.7,0,1","0.7,0,1,0.7,0,1,0,1,0.7","2","false",""
"","html-keyboard-response","245","110023","0.0-272.0","","","","","null","<img src=""img/food5.png"" style=""width:200px; border:14px solid green;"">","null","","","","","","","","","",""
"","image-keyboard-response","246","110182","0.0-274.0","","","","","157.4000005722046","img/food6.png","75","159.5","2","0","1","2","1,0.7,0,1,0.7,0,0.7,0,1","0.7,0,1,0.7,0,1,0,1,0.7","2","false",""
"","html-keyboard-response","247","110485","0.0-275.0","","","","","null","<img src=""img/food6.png"" style=""width:200px;border:14px solid red;"">","null","","","","","","","","","",""
"","image-keyboard-response","248","110594","0.0-277.0","","","","","107.10000038146973","img/food2.png","74","108.30000019073486","1","1","2","2","1,0.7,0,1,0.7,0,0.7,0,1","0.7,0,1,0.7,0,1,0,1,0.7","2","false",""
"","html-keyboard-response","249","110928","0.0-278.0","","","","","null","<img src=""img/food2.png"" style=""width:200px; border:14px solid green;"">","null","","","","","","","","","",""
"","image-keyboard-response","250","111006","0.0-280.0","","","","","75.39999961853027","img/food5.png","76","77.10000038146973","3","1","3","2","1,0.7,0,1,0.7,0,0.7,0,1","0.7,0,1,0.7,0,1,0,1,0.7","2","false",""
"","html-keyboard-response","251","111309","0.0-281.0","","","","","null","<img src=""img/food5.png"" style=""width:200px; border:14px solid green;"">","null","","","","","","","","","",""
"","image-keyboard-response","252","111457","0.0-283.0","","","","","146.29999923706055","img/food2.png","75","147.60000038146973","2","0","2","2","1,0.7,0,1,0.7,0,0.7,0,1","0.7,0,1,0.7,0,1,0,1,0.7","2","false",""
"","html-keyboard-response","253","111759","0.0-284.0","","","","","null","<img src=""img/food2.png"" style=""width:200px;border:14px solid red;"">","null","","","","","","","","","",""
"","image-keyboard-response","254","111972","0.0-286.0","","","","","211.5","img/food5.png","74","212.80000019073486","1","0","3","2","1,0.7,0,1,0.7,0,0.7,0,1","0.7,0,1,0.7,0,1,0,1,0.7","2","false",""
"","html-keyboard-response","255","112275","0.0-287.0","","","","","null","<img src=""img/food5.png"" style=""width:200px;border:14px solid red;"">","null","","","","","","","","","",""
"","image-keyboard-response","256","112528","0.0-289.0","","","","","251.80000019073486","img/food5.png","74","253.29999923706055","1","0","3","2","1,0.7,0,1,0.7,0,0.7,0,1","0.7,0,1,0.7,0,1,0,1,0.7","2","false",""
"","html-keyboard-response","257","112832","0.0-290.0","","","","","null","<img src=""img/food5.png"" style=""width:200px;border:14px solid red;"">","null","","","","","","","","","",""
"","image-keyboard-response","258","112998","0.0-292.0","","","","","164.4000005722046","img/food2.png","76","165.5999994277954","3","1","2","2","1,0.7,0,1,0.7,0,0.7,0,1","0.7,0,1,0.7,0,1,0,1,0.7","2","false",""
"","html-keyboard-response","259","113317","0.0-293.0","","","","","null","<img src=""img/food2.png"" style=""width:200px; border:14px solid green;"">","null","","","","","","","","","",""
"","image-keyboard-response","260","113455","0.0-295.0","","","","","133.89999961853027","img/food5.png","75","135.69999980926514","2","1","3","2","1,0.7,0,1,0.7,0,0.7,0,1","0.7,0,1,0.7,0,1,0,1,0.7","2","false",""
"","html-keyboard-response","261","113757","0.0-296.0","","","","","null","<img src=""img/food5.png"" style=""width:200px; border:14px solid green;"">","null","","","","","","","","","",""
"","image-keyboard-response","262","113914","0.0-298.0","","","","","155.10000038146973","img/food5.png","74","156.5","1","0","3","2","1,0.7,0,1,0.7,0,0.7,0,1","0.7,0,1,0.7,0,1,0,1,0.7","2","false",""
"","html-keyboard-response","263","114217","0.0-299.0","","","","","null","<img src=""img/food5.png"" style=""width:200px;border:14px solid red;"">","null","","","","","","","","","",""
"","image-keyboard-response","264","114367","0.0-301.0","","","","","147.9000005722046","img/food6.png","76","149.29999923706055","3","1","1","2","1,0.7,0,1,0.7,0,0.7,0,1","0.7,0,1,0.7,0,1,0,1,0.7","2","false",""
"","html-keyboard-response","265","114670","0.0-302.0","","","","","null","<img src=""img/food6.png"" style=""width:200px; border:14px solid green;"">","null","","","","","","","","","",""
"","image-keyboard-response","266","115064","0.0-304.0","","","","","392.30000019073486","img/food2.png","75","394.3999996185303","2","0","2","2","1,0.7,0,1,0.7,0,0.7,0,1","0.7,0,1,0.7,0,1,0,1,0.7","2","false",""
"","html-keyboard-response","267","115369","0.0-305.0","","","","","null","<img src=""img/food2.png"" style=""width:200px;border:14px solid red;"">","null","","","","","","","","","",""
"","image-keyboard-response","268","115651","0.0-307.0","","","","","279.5999994277954","img/food5.png","74","281.5999994277954","1","0","3","2","1,0.7,0,1,0.7,0,0.7,0,1","0.7,0,1,0.7,0,1,0,1,0.7","2","false",""
"","html-keyboard-response","269","115954","0.0-308.0","","","","","null","<img src=""img/food5.png"" style=""width:200px;border:14px solid red;"">","null","","","","","","","","","",""
"","image-keyboard-response","270","115961","0.0-310.0","","","","","5.5","img/food6.png","74","6.800000190734863","1","1","1","2","1,0.7,0,1,0.7,0,0.7,0,1","0.7,0,1,0.7,0,1,0,1,0.7","2","false",""
"","html-keyboard-response","271","116266","0.0-311.0","","","","","null","<img src=""img/food6.png"" style=""width:200px; border:14px solid green;"">","null","","","","","","","","","",""
"","image-keyboard-response","272","116457","0.0-313.0","","","","","188.80000019073486","img/food2.png","75","190.19999980926514","2","0","2","2","1,0.7,0,1,0.7,0,0.7,0,1","0.7,0,1,0.7,0,1,0,1,0.7","2","false",""
"","html-keyboard-response","273","116759","0.0-314.0","","","","","null","<img src=""img/food2.png"" style=""width:200px;border:14px solid red;"">","null","","","","","","","","","",""
"","image-keyboard-response","274","116922","0.0-316.0","","","","","160.5","img/food6.png","74","162.19999980926514","1","1","1","2","1,0.7,0,1,0.7,0,0.7,0,1","0.7,0,1,0.7,0,1,0,1,0.7","2","false",""
"","html-keyboard-response","275","117225","0.0-317.0","","","","","null","<img src=""img/food6.png"" style=""width:200px; border:14px solid green;"">","null","","","","","","","","","",""
"","image-keyboard-response","276","117383","0.0-319.0","","","","","156","img/food2.png","76","157.69999980926514","3","1","2","2","1,0.7,0,1,0.7,0,0.7,0,1","0.7,0,1,0.7,0,1,0,1,0.7","2","false",""
"","html-keyboard-response","277","117686","0.0-320.0","","","","","null","<img src=""img/food2.png"" style=""width:200px; border:14px solid green;"">","null","","","","","","","","","",""
"","image-keyboard-response","278","117991","0.0-322.0","","","","","303","img/food6.png","75","304.30000019073486","2","0","1","2","1,0.7,0,1,0.7,0,0.7,0,1","0.7,0,1,0.7,0,1,0,1,0.7","2","false",""
"","html-keyboard-response","279","118293","0.0-323.0","","","","","null","<img src=""img/food6.png"" style=""width:200px;border:14px solid red;"">","null","","","","","","","","","",""
"","image-keyboard-response","280","118482","0.0-325.0","","","","","186.80000019073486","img/food5.png","74","188.4000005722046","1","0","3","2","1,0.7,0,1,0.7,0,0.7,0,1","0.7,0,1,0.7,0,1,0,1,0.7","2","false",""
"","html-keyboard-response","281","118786","0.0-326.0","","","","","null","<img src=""img/food5.png"" style=""width:200px;border:14px solid red;"">","null","","","","","","","","","",""
"","image-keyboard-response","282","119060","0.0-328.0","","","","","272.30000019073486","img/food5.png","74","273.80000019073486","1","0","3","2","1,0.7,0,1,0.7,0,0.7,0,1","0.7,0,1,0.7,0,1,0,1,0.7","2","false",""
"","html-keyboard-response","283","119362","0.0-329.0","","","","","null","<img src=""img/food5.png"" style=""width:200px;border:14px solid red;"">","null","","","","","","","","","",""
"","image-keyboard-response","284","119448","0.0-331.0","","","","","84.19999980926514","img/food2.png","76","85.5","3","1","2","2","1,0.7,0,1,0.7,0,0.7,0,1","0.7,0,1,0.7,0,1,0,1,0.7","2","false",""
"","html-keyboard-response","285","119752","0.0-332.0","","","","","null","<img src=""img/food2.png"" style=""width:200px; border:14px solid green;"">","null","","","","","","","","","",""
"","image-keyboard-response","286","120238","0.0-334.0","","","","","484.1000003814697","img/food5.png","74","485.80000019073486","1","0","3","2","1,0.7,0,1,0.7,0,0.7,0,1","0.7,0,1,0.7,0,1,0,1,0.7","2","false",""
"","html-keyboard-response","287","120540","0.0-335.0","","","","","null","<img src=""img/food5.png"" style=""width:200px;border:14px solid red;"">","null","","","","","","","","","",""
"","image-keyboard-response","288","120653","0.0-337.0","","","","","111.79999923706055","img/food6.png","76","113","3","1","1","2","1,0.7,0,1,0.7,0,0.7,0,1","0.7,0,1,0.7,0,1,0,1,0.7","2","false",""
"","html-keyboard-response","289","120956","0.0-338.0","","","","","null","<img src=""img/food6.png"" style=""width:200px; border:14px solid green;"">","null","","","","","","","","","",""
"","image-keyboard-response","290","121110","0.0-340.0","","","","","151.70000076293945","img/food6.png","75","153.19999980926514","2","0","1","2","1,0.7,0,1,0.7,0,0.7,0,1","0.7,0,1,0.7,0,1,0,1,0.7","2","false",""
"","html-keyboard-response","291","121413","0.0-341.0","","","","","null","<img src=""img/food6.png"" style=""width:200px;border:14px solid red;"">","null","","","","","","","","","",""
"","image-keyboard-response","292","121489","0.0-343.0","","","","","74.5","img/food6.png","76","76","3","1","1","2","1,0.7,0,1,0.7,0,0.7,0,1","0.7,0,1,0.7,0,1,0,1,0.7","2","false",""
"","html-keyboard-response","293","121793","0.0-344.0","","","","","null","<img src=""img/food6.png"" style=""width:200px; border:14px solid green;"">","null","","","","","","","","","",""
"","image-keyboard-response","294","122097","0.0-346.0","","","","","269.6000003814697","img/food6.png","74","303.69999980926514","1","0","1","2","1,0.7,0,1,0.7,0,0.7,0,1","0.7,0,1,0.7,0,1,0,1,0.7","2","false",""
"","html-keyboard-response","295","122401","0.0-347.0","","","","","null","<img src=""img/food6.png"" style=""width:200px;border:14px solid red;"">","null","","","","","","","","","",""
"","image-keyboard-response","296","122713","0.0-349.0","","","","","310.6000003814697","img/food6.png","75","312.1000003814697","2","0","1","2","1,0.7,0,1,0.7,0,0.7,0,1","0.7,0,1,0.7,0,1,0,1,0.7","2","false",""
"","html-keyboard-response","297","123017","0.0-350.0","","","","","null","<img src=""img/food6.png"" style=""width:200px;border:14px solid red;"">","null","","","","","","","","","",""
"","image-keyboard-response","298","123138","0.0-352.0","","","","","119.39999961853027","img/food5.png","74","120.59999942779541","1","0","3","2","1,0.7,0,1,0.7,0,0.7,0,1","0.7,0,1,0.7,0,1,0,1,0.7","2","false",""
"","html-keyboard-response","299","123440","0.0-353.0","","","","","null","<img src=""img/food5.png"" style=""width:200px;border:14px solid red;"">","null","","","","","","","","","",""
"","image-keyboard-response","300","123442","0.0-355.0","","","","","0.09999942779541016","img/food5.png","75","1.5","2","1","3","2","1,0.7,0,1,0.7,0,0.7,0,1","0.7,0,1,0.7,0,1,0,1,0.7","2","false",""
"","html-keyboard-response","301","123843","0.0-356.0","","","","","null","<img src=""img/food5.png"" style=""width:200px; border:14px solid green;"">","null","","","","","","","","","",""
"","image-keyboard-response","302","124105","0.0-358.0","","","","","260.4000005722046","img/food6.png","75","261.79999923706055","2","0","1","2","1,0.7,0,1,0.7,0,0.7,0,1","0.7,0,1,0.7,0,1,0,1,0.7","2","false",""
"","html-keyboard-response","303","124408","0.0-359.0","","","","","null","<img src=""img/food6.png"" style=""width:200px;border:14px solid red;"">","null","","","","","","","","","",""
"","image-keyboard-response","304","124585","0.0-361.0","","","","","175","img/food5.png","74","176.5","1","0","3","2","1,0.7,0,1,0.7,0,0.7,0,1","0.7,0,1,0.7,0,1,0,1,0.7","2","false",""
"","html-keyboard-response","305","124888","0.0-362.0","","","","","null","<img src=""img/food5.png"" style=""width:200px;border:14px solid red;"">","null","","","","","","","","","",""
"","image-keyboard-response","306","125096","0.0-364.0","","","","","206.39999961853027","img/food2.png","76","207.69999980926514","3","1","2","2","1,0.7,0,1,0.7,0,0.7,0,1","0.7,0,1,0.7,0,1,0,1,0.7","2","false",""
"","html-keyboard-response","307","125399","0.0-365.0","","","","","null","<img src=""img/food2.png"" style=""width:200px; border:14px solid green;"">","null","","","","","","","","","",""
"","image-keyboard-response","308","125615","0.0-367.0","","","","","214.80000019073486","img/food6.png","75","216.10000038146973","2","0","1","2","1,0.7,0,1,0.7,0,0.7,0,1","0.7,0,1,0.7,0,1,0,1,0.7","2","false",""
"","html-keyboard-response","309","125918","0.0-368.0","","","","","null","<img src=""img/food6.png"" style=""width:200px;border:14px solid red;"">","null","","","","","","","","","",""
"","image-keyboard-response","310","126111","0.0-370.0","","","","","191.10000038146973","img/food6.png","76","192.80000019073486","3","1","1","2","1,0.7,0,1,0.7,0,0.7,0,1","0.7,0,1,0.7,0,1,0,1,0.7","2","false",""
"","html-keyboard-response","311","126414","0.0-371.0","","","","","null","<img src=""img/food6.png"" style=""width:200px; border:14px solid green;"">","null","","","","","","","","","",""
"","image-keyboard-response","312","126429","0.0-373.0","","","","","12.399999618530273","img/food5.png","75","13.699999809265137","2","1","3","2","1,0.7,0,1,0.7,0,0.7,0,1","0.7,0,1,0.7,0,1,0,1,0.7","2","false",""
"","html-keyboard-response","313","126731","0.0-374.0","","","","","null","<img src=""img/food5.png"" style=""width:200px; border:14px solid green;"">","null","","","","","","","","","",""
"","image-keyboard-response","314","126914","0.0-376.0","","","","","178.89999961853027","img/food2.png","74","182.89999961853027","1","0","2","2","1,0.7,0,1,0.7,0,0.7,0,1","0.7,0,1,0.7,0,1,0,1,0.7","2","false",""
"","html-keyboard-response","315","127218","0.0-377.0","","","","","null","<img src=""img/food2.png"" style=""width:200px;border:14px solid red;"">","null","","","","","","","","","",""
"","image-keyboard-response","316","127229","0.0-379.0","","","","","9.5","img/food2.png","75","10.800000190734863","2","0","2","2","1,0.7,0,1,0.7,0,0.7,0,1","0.7,0,1,0.7,0,1,0,1,0.7","2","false",""
"","html-keyboard-response","317","127575","0.0-380.0","","","","","null","<img src=""img/food2.png"" style=""width:200px;border:14px solid red;"">","null","","","","","","","","","",""
"","image-keyboard-response","318","127631","0.0-382.0","","","","","45.60000038146973","img/food6.png","76","54.89999961853027","3","1","1","2","1,0.7,0,1,0.7,0,0.7,0,1","0.7,0,1,0.7,0,1,0,1,0.7","2","false",""
"","html-keyboard-response","319","127934","0.0-383.0","","","","","null","<img src=""img/food6.png"" style=""width:200px; border:14px solid green;"">","null","","","","","","","","","",""
"","image-keyboard-response","320","127966","0.0-385.0","","","","","30.100000381469727","img/food6.png","76","31.5","3","1","1","2","1,0.7,0,1,0.7,0,0.7,0,1","0.7,0,1,0.7,0,1,0,1,0.7","2","false",""
"","html-keyboard-response","321","128268","0.0-386.0","","","","","null","<img src=""img/food6.png"" style=""width:200px; border:14px solid green;"">","null","","","","","","","","","",""
"","image-keyboard-response","322","128286","0.0-388.0","","","","","15.800000190734863","img/food2.png","75","17.40000057220459","2","0","2","2","1,0.7,0,1,0.7,0,0.7,0,1","0.7,0,1,0.7,0,1,0,1,0.7","2","false",""
"","html-keyboard-response","323","128589","0.0-389.0","","","","","null","<img src=""img/food2.png"" style=""width:200px;border:14px solid red;"">","null","","","","","","","","","",""
"","image-keyboard-response","324","128775","0.0-391.0","","","","","184","img/food2.png","76","185.79999923706055","3","1","2","2","1,0.7,0,1,0.7,0,0.7,0,1","0.7,0,1,0.7,0,1,0,1,0.7","2","false",""
"","html-keyboard-response","325","129078","0.0-392.0","","","","","null","<img src=""img/food2.png"" style=""width:200px; border:14px solid green;"">","null","","","","","","","","","",""
"","image-keyboard-response","326","129234","0.0-394.0","","","","","154.19999980926514","img/food6.png","74","155.5","1","1","1","2","1,0.7,0,1,0.7,0,0.7,0,1","0.7,0,1,0.7,0,1,0,1,0.7","2","false",""
"","html-keyboard-response","327","129536","0.0-395.0","","","","","null","<img src=""img/food6.png"" style=""width:200px; border:14px solid green;"">","null","","","","","","","","","",""
"","image-keyboard-response","328","129585","0.0-397.0","","","","","46.69999980926514","img/food6.png","74","48.19999980926514","1","0","1","2","1,0.7,0,1,0.7,0,0.7,0,1","0.7,0,1,0.7,0,1,0,1,0.7","2","false",""
"","html-keyboard-response","329","129921","0.0-398.0","","","","","null","<img src=""img/food6.png"" style=""width:200px;border:14px solid red;"">","null","","","","","","","","","",""
"","image-keyboard-response","330","130089","0.0-400.0","","","","","165.5","img/food6.png","76","166.9000005722046","3","1","1","2","1,0.7,0,1,0.7,0,0.7,0,1","0.7,0,1,0.7,0,1,0,1,0.7","2","false",""
"","html-keyboard-response","331","130392","0.0-401.0","","","","","null","<img src=""img/food6.png"" style=""width:200px; border:14px solid green;"">","null","","","","","","","","","",""
"","image-keyboard-response","332","130613","0.0-403.0","","","","","214.19999980926514","img/food2.png","75","220.20000076293945","2","0","2","2","1,0.7,0,1,0.7,0,0.7,0,1","0.7,0,1,0.7,0,1,0,1,0.7","2","false",""
"","html-keyboard-response","333","130921","0.0-404.0","","","","","null","<img src=""img/food2.png"" style=""width:200px;border:14px solid red;"">","null","","","","","","","","","",""
"","image-keyboard-response","334","130950","0.0-406.0","","","","","18.199999809265137","img/food6.png","76","29.40000057220459","3","1","1","2","1,0.7,0,1,0.7,0,0.7,0,1","0.7,0,1,0.7,0,1,0,1,0.7","2","false",""
"","html-keyboard-response","335","131455","0.0-407.0","","","","","null","<img src=""img/food6.png"" style=""width:200px; border:14px solid green;"">","null","","","","","","","","","",""
"","image-keyboard-response","336","131475","0.0-409.0","","","","","17.09999942779541","img/food2.png","74","19","1","1","2","2","1,0.7,0,1,0.7,0,0.7,0,1","0.7,0,1,0.7,0,1,0,1,0.7","2","false",""
"","html-keyboard-response","337","132144","0.0-410.0","","","","","null","<img src=""img/food2.png"" style=""width:200px; border:14px solid green;"">","null","","","","","","","","","",""
"","image-keyboard-response","338","132215","0.0-412.0","","","","","67.90000057220459","img/food5.png","75","71","2","1","3","2","1,0.7,0,1,0.7,0,0.7,0,1","0.7,0,1,0.7,0,1,0,1,0.7","2","false",""
"","html-keyboard-response","339","132663","0.0-413.0","","","","","null","<img src=""img/food5.png"" style=""width:200px; border:14px solid green;"">","null","","","","","","","","","",""
"","image-keyboard-response","340","132831","0.0-415.0","","","","","155.19999980926514","img/food2.png","74","167.69999980926514","1","1","2","2","1,0.7,0,1,0.7,0,0.7,0,1","0.7,0,1,0.7,0,1,0,1,0.7","2","false",""
"","html-keyboard-response","341","133135","0.0-416.0","","","","","null","<img src=""img/food2.png"" style=""width:200px; border:14px solid green;"">","null","","","","","","","","","",""
"","image-keyboard-response","342","133169","0.0-418.0","","","","","31.300000190734863","img/food2.png","74","32.80000019073486","1","1","2","2","1,0.7,0,1,0.7,0,0.7,0,1","0.7,0,1,0.7,0,1,0,1,0.7","2","false",""
"","html-keyboard-response","343","133516","0.0-419.0","","","","","null","<img src=""img/food2.png"" style=""width:200px; border:14px solid green;"">","null","","","","","","","","","",""
"","image-keyboard-response","344","133813","0.0-421.0","","","","","290.80000019073486","img/food5.png","74","294.80000019073486","1","0","3","2","1,0.7,0,1,0.7,0,0.7,0,1","0.7,0,1,0.7,0,1,0,1,0.7","2","false",""
"","html-keyboard-response","345","134132","0.0-422.0","","","","","null","<img src=""img/food5.png"" style=""width:200px;border:14px solid red;"">","null","","","","","","","","","",""
"","image-keyboard-response","346","134488","0.0-424.0","","","","","353.80000019073486","img/food6.png","75","355.69999980926514","2","0","1","2","1,0.7,0,1,0.7,0,0.7,0,1","0.7,0,1,0.7,0,1,0,1,0.7","2","false",""
"","html-keyboard-response","347","134795","0.0-425.0","","","","","null","<img src=""img/food6.png"" style=""width:200px;border:14px solid red;"">","null","","","","","","","","","",""
"","image-keyboard-response","348","135006","0.0-427.0","","","","","209.69999980926514","img/food2.png","75","211.29999923706055","2","0","2","2","1,0.7,0,1,0.7,0,0.7,0,1","0.7,0,1,0.7,0,1,0,1,0.7","2","false",""
"","html-keyboard-response","349","135310","0.0-428.0","","","","","null","<img src=""img/food2.png"" style=""width:200px;border:14px solid red;"">","null","","","","","","","","","",""
"","image-keyboard-response","350","135326","0.0-430.0","","","","","14.699999809265137","img/food2.png","75","16.100000381469727","2","0","2","2","1,0.7,0,1,0.7,0,0.7,0,1","0.7,0,1,0.7,0,1,0,1,0.7","2","false",""
"","html-keyboard-response","351","135629","0.0-431.0","","","","","null","<img src=""img/food2.png"" style=""width:200px;border:14px solid red;"">","null","","","","","","","","","",""
"","image-keyboard-response","352","135791","0.0-433.0","","","","","159.89999961853027","img/food2.png","76","161.39999961853027","3","1","2","2","1,0.7,0,1,0.7,0,0.7,0,1","0.7,0,1,0.7,0,1,0,1,0.7","2","false",""
"","html-keyboard-response","353","136094","0.0-434.0","","","","","null","<img src=""img/food2.png"" style=""width:200px; border:14px solid green;"">","null","","","","","","","","","",""
"","image-keyboard-response","354","136444","0.0-436.0","","","","","348.1000003814697","img/food5.png","75","349.69999980926514","2","1","3","2","1,0.7,0,1,0.7,0,0.7,0,1","0.7,0,1,0.7,0,1,0,1,0.7","2","false",""
"","html-keyboard-response","355","136751","0.0-437.0","","","","","null","<img src=""img/food5.png"" style=""width:200px; border:14px solid green;"">","null","","","","","","","","","",""
"","image-keyboard-response","356","136934","0.0-439.0","","","","","181.19999980926514","img/food6.png","74","182.5999994277954","1","0","1","2","1,0.7,0,1,0.7,0,0.7,0,1","0.7,0,1,0.7,0,1,0,1,0.7","2","false",""
"","html-keyboard-response","357","137237","0.0-440.0","","","","","null","<img src=""img/food6.png"" style=""width:200px;border:14px solid red;"">","null","","","","","","","","","",""
"","image-keyboard-response","358","137329","0.0-442.0","","","","","89.60000038146973","img/food2.png","75","91.30000019073486","2","0","2","2","1,0.7,0,1,0.7,0,0.7,0,1","0.7,0,1,0.7,0,1,0,1,0.7","2","false",""
"","html-keyboard-response","359","137633","0.0-443.0","","","","","null","<img src=""img/food2.png"" style=""width:200px;border:14px solid red;"">","null","","","","","","","","","",""
"","image-keyboard-response","360","137822","0.0-445.0","","","","","181.9000005722046","img/food2.png","75","188.5","2","0","2","2","1,0.7,0,1,0.7,0,0.7,0,1","0.7,0,1,0.7,0,1,0,1,0.7","2","false",""
"","html-keyboard-response","361","138131","0.0-446.0","","","","","null","<img src=""img/food2.png"" style=""width:200px;border:14px solid red;"">","null","","","","","","","","","",""
"","image-keyboard-response","362","138823","0.0-448.0","","","","","690.3999996185303","img/food5.png","74","692.1999998092651","1","0","3","2","1,0.7,0,1,0.7,0,0.7,0,1","0.7,0,1,0.7,0,1,0,1,0.7","2","false",""
"","html-keyboard-response","363","139126","0.0-449.0","","","","","null","<img src=""img/food5.png"" style=""width:200px;border:14px solid red;"">","null","","","","","","","","","",""
"","image-keyboard-response","364","139505","0.0-451.0","","","","","376.69999980926514","img/food5.png","76","378.5","3","1","3","2","1,0.7,0,1,0.7,0,0.7,0,1","0.7,0,1,0.7,0,1,0,1,0.7","2","false",""
"","html-keyboard-response","365","139808","0.0-452.0","","","","","null","<img src=""img/food5.png"" style=""width:200px; border:14px solid green;"">","null","","","","","","","","","",""
"","instructions","366","142556","0.0-454.0","","","","[{""page_index"":0,""viewing_time"":2746.199999809265}]","2746.6000003814697","","","","","","","","","","","",""
"","survey-text","367","146858","0.0-455.0","","","","","4296.39999961853","","","","","","","","","","","","{""Q0"":""A29N5E8YC6DB9Q""}"
