"success","trial_type","trial_index","time_elapsed","internal_node_id","assignmentID","mturkID","hitID","view_history","rt","stimulus","key_press","reactionTime","a","r","s","cond","reward_cond","reward_cond_actual","reward_matrix_idx","warning","responses"
"true","fullscreen","0","4266","0.0-0.0","3TU5ZICBRENHK9RDAHBCXDMBZVNQ8C","A2AP9F2LCG5GV8","3P7RGTLO6EZ76AO3386R8ZK9IWWKAW","","","","","","","","","","","","","",""
"","instructions","1","15057","0.0-1.0","3TU5ZICBRENHK9RDAHBCXDMBZVNQ8C","A2AP9F2LCG5GV8","3P7RGTLO6EZ76AO3386R8ZK9IWWKAW","[{""page_index"":0,""viewing_time"":1468},{""page_index"":1,""viewing_time"":1161},{""page_index"":2,""viewing_time"":1078},{""page_index"":3,""viewing_time"":2104},{""page_index"":4,""viewing_time"":1505},{""page_index"":5,""viewing_time"":1366},{""page_index"":6,""viewing_time"":2106}]","10789","","","","","","","","","","","",""
"","image-keyboard-response","2","15939","0.0-2.0","3TU5ZICBRENHK9RDAHBCXDMBZVNQ8C","A2AP9F2LCG5GV8","3P7RGTLO6EZ76AO3386R8ZK9IWWKAW","","879","img/food6.png","74","882","1","1","1","1","1,0.5,0,1,0.5,0,0.5,0,1","1,0.5,0,1,0.5,0,0.5,0,1","1","",""
"","html-keyboard-response","3","16241","0.0-3.0","3TU5ZICBRENHK9RDAHBCXDMBZVNQ8C","A2AP9F2LCG5GV8","3P7RGTLO6EZ76AO3386R8ZK9IWWKAW","","null","<img src=""img/food6.png"" style=""width:200px; border:14px solid green;"">","null","","","","","","","","","",""
"","image-keyboard-response","4","16331","0.0-4.0","3TU5ZICBRENHK9RDAHBCXDMBZVNQ8C","A2AP9F2LCG5GV8","3P7RGTLO6EZ76AO3386R8ZK9IWWKAW","","89","img/food6.png","76","90","3","0","1","1","1,0.5,0,1,0.5,0,0.5,0,1","1,0.5,0,1,0.5,0,0.5,0,1","1","",""
"","html-keyboard-response","5","16635","0.0-5.0","3TU5ZICBRENHK9RDAHBCXDMBZVNQ8C","A2AP9F2LCG5GV8","3P7RGTLO6EZ76AO3386R8ZK9IWWKAW","","null","<img src=""img/food6.png"" style=""width:200px;border:14px solid red;"">","null","","","","","","","","","",""
"","image-keyboard-response","6","16731","0.0-6.0","3TU5ZICBRENHK9RDAHBCXDMBZVNQ8C","A2AP9F2LCG5GV8","3P7RGTLO6EZ76AO3386R8ZK9IWWKAW","","94","img/food6.png","75","96","2","1","1","1","1,0.5,0,1,0.5,0,0.5,0,1","1,0.5,0,1,0.5,0,0.5,0,1","1","",""
"","html-keyboard-response","7","17034","0.0-7.0","3TU5ZICBRENHK9RDAHBCXDMBZVNQ8C","A2AP9F2LCG5GV8","3P7RGTLO6EZ76AO3386R8ZK9IWWKAW","","null","<img src=""img/food6.png"" style=""width:200px; border:14px solid green;"">","null","","","","","","","","","",""
"","image-keyboard-response","8","17067","0.0-8.0","3TU5ZICBRENHK9RDAHBCXDMBZVNQ8C","A2AP9F2LCG5GV8","3P7RGTLO6EZ76AO3386R8ZK9IWWKAW","","29","img/food2.png","75","33","2","0","3","1","1,0.5,0,1,0.5,0,0.5,0,1","1,0.5,0,1,0.5,0,0.5,0,1","1","",""
"","html-keyboard-response","9","17375","0.0-9.0","3TU5ZICBRENHK9RDAHBCXDMBZVNQ8C","A2AP9F2LCG5GV8","3P7RGTLO6EZ76AO3386R8ZK9IWWKAW","","null","<img src=""img/food2.png"" style=""width:200px;border:14px solid red;"">","null","","","","","","","","","",""
"","image-keyboard-response","10","17439","0.0-10.0","3TU5ZICBRENHK9RDAHBCXDMBZVNQ8C","A2AP9F2LCG5GV8","3P7RGTLO6EZ76AO3386R8ZK9IWWKAW","","58","img/food6.png","74","61","1","1","1","1","1,0.5,0,1,0.5,0,0.5,0,1","1,0.5,0,1,0.5,0,0.5,0,1","1","",""
"","html-keyboard-response","11","17743","0.0-11.0","3TU5ZICBRENHK9RDAHBCXDMBZVNQ8C","A2AP9F2LCG5GV8","3P7RGTLO6EZ76AO3386R8ZK9IWWKAW","","null","<img src=""img/food6.png"" style=""width:200px; border:14px solid green;"">","null","","","","","","","","","",""
"","image-keyboard-response","12","17765","0.0-12.0","3TU5ZICBRENHK9RDAHBCXDMBZVNQ8C","A2AP9F2LCG5GV8","3P7RGTLO6EZ76AO3386R8ZK9IWWKAW","","20","img/food6.png","74","22","1","1","1","1","1,0.5,0,1,0.5,0,0.5,0,1","1,0.5,0,1,0.5,0,0.5,0,1","1","",""
"","html-keyboard-response","13","18067","0.0-13.0","3TU5ZICBRENHK9RDAHBCXDMBZVNQ8C","A2AP9F2LCG5GV8","3P7RGTLO6EZ76AO3386R8ZK9IWWKAW","","null","<img src=""img/food6.png"" style=""width:200px; border:14px solid green;"">","null","","","","","","","","","",""
"","image-keyboard-response","14","18086","0.0-14.0","3TU5ZICBRENHK9RDAHBCXDMBZVNQ8C","A2AP9F2LCG5GV8","3P7RGTLO6EZ76AO3386R8ZK9IWWKAW","","17","img/food5.png","74","19","1","1","2","1","1,0.5,0,1,0.5,0,0.5,0,1","1,0.5,0,1,0.5,0,0.5,0,1","1","",""
"","html-keyboard-response","15","18393","0.0-15.0","3TU5ZICBRENHK9RDAHBCXDMBZVNQ8C","A2AP9F2LCG5GV8","3P7RGTLO6EZ76AO3386R8ZK9IWWKAW","","null","<img src=""img/food5.png"" style=""width:200px; border:14px solid green;"">","null","","","","","","","","","",""
"","image-keyboard-response","16","18419","0.0-16.0","3TU5ZICBRENHK9RDAHBCXDMBZVNQ8C","A2AP9F2LCG5GV8","3P7RGTLO6EZ76AO3386R8ZK9IWWKAW","","23","img/food2.png","75","26","2","0","3","1","1,0.5,0,1,0.5,0,0.5,0,1","1,0.5,0,1,0.5,0,0.5,0,1","1","",""
"","html-keyboard-response","17","18720","0.0-17.0","3TU5ZICBRENHK9RDAHBCXDMBZVNQ8C","A2AP9F2LCG5GV8","3P7RGTLO6EZ76AO3386R8ZK9IWWKAW","","null","<img src=""img/food2.png"" style=""width:200px;border:14px solid red;"">","null","","","","","","","","","",""
"","image-keyboard-response","18","18762","0.0-18.0","3TU5ZICBRENHK9RDAHBCXDMBZVNQ8C","A2AP9F2LCG5GV8","3P7RGTLO6EZ76AO3386R8ZK9IWWKAW","","41","img/food5.png","76","42","3","0","2","1","1,0.5,0,1,0.5,0,0.5,0,1","1,0.5,0,1,0.5,0,0.5,0,1","1","",""
"","html-keyboard-response","19","19064","0.0-19.0","3TU5ZICBRENHK9RDAHBCXDMBZVNQ8C","A2AP9F2LCG5GV8","3P7RGTLO6EZ76AO3386R8ZK9IWWKAW","","null","<img src=""img/food5.png"" style=""width:200px;border:14px solid red;"">","null","","","","","","","","","",""
"","image-keyboard-response","20","19075","0.0-20.0","3TU5ZICBRENHK9RDAHBCXDMBZVNQ8C","A2AP9F2LCG5GV8","3P7RGTLO6EZ76AO3386R8ZK9IWWKAW","","10","img/food6.png","74","11","1","1","1","1","1,0.5,0,1,0.5,0,0.5,0,1","1,0.5,0,1,0.5,0,0.5,0,1","1","",""
"","html-keyboard-response","21","19379","0.0-21.0","3TU5ZICBRENHK9RDAHBCXDMBZVNQ8C","A2AP9F2LCG5GV8","3P7RGTLO6EZ76AO3386R8ZK9IWWKAW","","null","<img src=""img/food6.png"" style=""width:200px; border:14px solid green;"">","null","","","","","","","","","",""
"","image-keyboard-response","22","19439","0.0-22.0","3TU5ZICBRENHK9RDAHBCXDMBZVNQ8C","A2AP9F2LCG5GV8","3P7RGTLO6EZ76AO3386R8ZK9IWWKAW","","57","img/food6.png","75","60","2","0","1","1","1,0.5,0,1,0.5,0,0.5,0,1","1,0.5,0,1,0.5,0,0.5,0,1","1","",""
"","html-keyboard-response","23","19745","0.0-23.0","3TU5ZICBRENHK9RDAHBCXDMBZVNQ8C","A2AP9F2LCG5GV8","3P7RGTLO6EZ76AO3386R8ZK9IWWKAW","","null","<img src=""img/food6.png"" style=""width:200px;border:14px solid red;"">","null","","","","","","","","","",""
"","image-keyboard-response","24","19875","0.0-24.0","3TU5ZICBRENHK9RDAHBCXDMBZVNQ8C","A2AP9F2LCG5GV8","3P7RGTLO6EZ76AO3386R8ZK9IWWKAW","","128","img/food5.png","74","130","1","1","2","1","1,0.5,0,1,0.5,0,0.5,0,1","1,0.5,0,1,0.5,0,0.5,0,1","1","",""
"","html-keyboard-response","25","20178","0.0-25.0","3TU5ZICBRENHK9RDAHBCXDMBZVNQ8C","A2AP9F2LCG5GV8","3P7RGTLO6EZ76AO3386R8ZK9IWWKAW","","null","<img src=""img/food5.png"" style=""width:200px; border:14px solid green;"">","null","","","","","","","","","",""
"","image-keyboard-response","26","20203","0.0-26.0","3TU5ZICBRENHK9RDAHBCXDMBZVNQ8C","A2AP9F2LCG5GV8","3P7RGTLO6EZ76AO3386R8ZK9IWWKAW","","23","img/food5.png","76","25","3","0","2","1","1,0.5,0,1,0.5,0,0.5,0,1","1,0.5,0,1,0.5,0,0.5,0,1","1","",""
"","html-keyboard-response","27","20505","0.0-27.0","3TU5ZICBRENHK9RDAHBCXDMBZVNQ8C","A2AP9F2LCG5GV8","3P7RGTLO6EZ76AO3386R8ZK9IWWKAW","","null","<img src=""img/food5.png"" style=""width:200px;border:14px solid red;"">","null","","","","","","","","","",""
"","image-keyboard-response","28","20518","0.0-28.0","3TU5ZICBRENHK9RDAHBCXDMBZVNQ8C","A2AP9F2LCG5GV8","3P7RGTLO6EZ76AO3386R8ZK9IWWKAW","","9","img/food5.png","76","13","3","0","2","1","1,0.5,0,1,0.5,0,0.5,0,1","1,0.5,0,1,0.5,0,0.5,0,1","1","",""
"","html-keyboard-response","29","20824","0.0-29.0","3TU5ZICBRENHK9RDAHBCXDMBZVNQ8C","A2AP9F2LCG5GV8","3P7RGTLO6EZ76AO3386R8ZK9IWWKAW","","null","<img src=""img/food5.png"" style=""width:200px;border:14px solid red;"">","null","","","","","","","","","",""
"","image-keyboard-response","30","20874","0.0-30.0","3TU5ZICBRENHK9RDAHBCXDMBZVNQ8C","A2AP9F2LCG5GV8","3P7RGTLO6EZ76AO3386R8ZK9IWWKAW","","47","img/food5.png","74","50","1","1","2","1","1,0.5,0,1,0.5,0,0.5,0,1","1,0.5,0,1,0.5,0,0.5,0,1","1","",""
"","html-keyboard-response","31","21176","0.0-31.0","3TU5ZICBRENHK9RDAHBCXDMBZVNQ8C","A2AP9F2LCG5GV8","3P7RGTLO6EZ76AO3386R8ZK9IWWKAW","","null","<img src=""img/food5.png"" style=""width:200px; border:14px solid green;"">","null","","","","","","","","","",""
"","image-keyboard-response","32","21221","0.0-32.0","3TU5ZICBRENHK9RDAHBCXDMBZVNQ8C","A2AP9F2LCG5GV8","3P7RGTLO6EZ76AO3386R8ZK9IWWKAW","","41","img/food6.png","75","45","2","0","1","1","1,0.5,0,1,0.5,0,0.5,0,1","1,0.5,0,1,0.5,0,0.5,0,1","1","",""
"","html-keyboard-response","33","21525","0.0-33.0","3TU5ZICBRENHK9RDAHBCXDMBZVNQ8C","A2AP9F2LCG5GV8","3P7RGTLO6EZ76AO3386R8ZK9IWWKAW","","null","<img src=""img/food6.png"" style=""width:200px;border:14px solid red;"">","null","","","","","","","","","",""
"","image-keyboard-response","34","21634","0.0-34.0","3TU5ZICBRENHK9RDAHBCXDMBZVNQ8C","A2AP9F2LCG5GV8","3P7RGTLO6EZ76AO3386R8ZK9IWWKAW","","108","img/food6.png","74","110","1","1","1","1","1,0.5,0,1,0.5,0,0.5,0,1","1,0.5,0,1,0.5,0,0.5,0,1","1","",""
"","html-keyboard-response","35","21939","0.0-35.0","3TU5ZICBRENHK9RDAHBCXDMBZVNQ8C","A2AP9F2LCG5GV8","3P7RGTLO6EZ76AO3386R8ZK9IWWKAW","","null","<img src=""img/food6.png"" style=""width:200px; border:14px solid green;"">","null","","","","","","","","","",""
"","image-keyboard-response","36","22018","0.0-36.0","3TU5ZICBRENHK9RDAHBCXDMBZVNQ8C","A2AP9F2LCG5GV8","3P7RGTLO6EZ76AO3386R8ZK9IWWKAW","","74","img/food6.png","75","78","2","1","1","1","1,0.5,0,1,0.5,0,0.5,0,1","1,0.5,0,1,0.5,0,0.5,0,1","1","",""
"","html-keyboard-response","37","22320","0.0-37.0","3TU5ZICBRENHK9RDAHBCXDMBZVNQ8C","A2AP9F2LCG5GV8","3P7RGTLO6EZ76AO3386R8ZK9IWWKAW","","null","<img src=""img/food6.png"" style=""width:200px; border:14px solid green;"">","null","","","","","","","","","",""
"","image-keyboard-response","38","22449","0.0-38.0","3TU5ZICBRENHK9RDAHBCXDMBZVNQ8C","A2AP9F2LCG5GV8","3P7RGTLO6EZ76AO3386R8ZK9IWWKAW","","128","img/food6.png","76","129","3","0","1","1","1,0.5,0,1,0.5,0,0.5,0,1","1,0.5,0,1,0.5,0,0.5,0,1","1","",""
"","html-keyboard-response","39","22752","0.0-39.0","3TU5ZICBRENHK9RDAHBCXDMBZVNQ8C","A2AP9F2LCG5GV8","3P7RGTLO6EZ76AO3386R8ZK9IWWKAW","","null","<img src=""img/food6.png"" style=""width:200px;border:14px solid red;"">","null","","","","","","","","","",""
"","image-keyboard-response","40","22860","0.0-40.0","3TU5ZICBRENHK9RDAHBCXDMBZVNQ8C","A2AP9F2LCG5GV8","3P7RGTLO6EZ76AO3386R8ZK9IWWKAW","","107","img/food6.png","75","109","2","0","1","1","1,0.5,0,1,0.5,0,0.5,0,1","1,0.5,0,1,0.5,0,0.5,0,1","1","",""
"","html-keyboard-response","41","23163","0.0-41.0","3TU5ZICBRENHK9RDAHBCXDMBZVNQ8C","A2AP9F2LCG5GV8","3P7RGTLO6EZ76AO3386R8ZK9IWWKAW","","null","<img src=""img/food6.png"" style=""width:200px;border:14px solid red;"">","null","","","","","","","","","",""
"","image-keyboard-response","42","23283","0.0-42.0","3TU5ZICBRENHK9RDAHBCXDMBZVNQ8C","A2AP9F2LCG5GV8","3P7RGTLO6EZ76AO3386R8ZK9IWWKAW","","118","img/food2.png","74","120","1","0","3","1","1,0.5,0,1,0.5,0,0.5,0,1","1,0.5,0,1,0.5,0,0.5,0,1","1","",""
"","html-keyboard-response","43","23584","0.0-43.0","3TU5ZICBRENHK9RDAHBCXDMBZVNQ8C","A2AP9F2LCG5GV8","3P7RGTLO6EZ76AO3386R8ZK9IWWKAW","","null","<img src=""img/food2.png"" style=""width:200px;border:14px solid red;"">","null","","","","","","","","","",""
"","image-keyboard-response","44","23603","0.0-44.0","3TU5ZICBRENHK9RDAHBCXDMBZVNQ8C","A2AP9F2LCG5GV8","3P7RGTLO6EZ76AO3386R8ZK9IWWKAW","","17","img/food5.png","76","19","3","0","2","1","1,0.5,0,1,0.5,0,0.5,0,1","1,0.5,0,1,0.5,0,0.5,0,1","1","",""
"","html-keyboard-response","45","23905","0.0-45.0","3TU5ZICBRENHK9RDAHBCXDMBZVNQ8C","A2AP9F2LCG5GV8","3P7RGTLO6EZ76AO3386R8ZK9IWWKAW","","null","<img src=""img/food5.png"" style=""width:200px;border:14px solid red;"">","null","","","","","","","","","",""
"","image-keyboard-response","46","23915","0.0-46.0","3TU5ZICBRENHK9RDAHBCXDMBZVNQ8C","A2AP9F2LCG5GV8","3P7RGTLO6EZ76AO3386R8ZK9IWWKAW","","8","img/food2.png","74","10","1","1","3","1","1,0.5,0,1,0.5,0,0.5,0,1","1,0.5,0,1,0.5,0,0.5,0,1","1","",""
"","html-keyboard-response","47","24215","0.0-47.0","3TU5ZICBRENHK9RDAHBCXDMBZVNQ8C","A2AP9F2LCG5GV8","3P7RGTLO6EZ76AO3386R8ZK9IWWKAW","","null","<img src=""img/food2.png"" style=""width:200px; border:14px solid green;"">","null","","","","","","","","","",""
"","image-keyboard-response","48","24339","0.0-48.0","3TU5ZICBRENHK9RDAHBCXDMBZVNQ8C","A2AP9F2LCG5GV8","3P7RGTLO6EZ76AO3386R8ZK9IWWKAW","","123","img/food2.png","75","123","2","0","3","1","1,0.5,0,1,0.5,0,0.5,0,1","1,0.5,0,1,0.5,0,0.5,0,1","1","",""
"","html-keyboard-response","49","24640","0.0-49.0","3TU5ZICBRENHK9RDAHBCXDMBZVNQ8C","A2AP9F2LCG5GV8","3P7RGTLO6EZ76AO3386R8ZK9IWWKAW","","null","<img src=""img/food2.png"" style=""width:200px;border:14px solid red;"">","null","","","","","","","","","",""
"","image-keyboard-response","50","24755","0.0-50.0","3TU5ZICBRENHK9RDAHBCXDMBZVNQ8C","A2AP9F2LCG5GV8","3P7RGTLO6EZ76AO3386R8ZK9IWWKAW","","113","img/food6.png","74","114","1","1","1","1","1,0.5,0,1,0.5,0,0.5,0,1","1,0.5,0,1,0.5,0,0.5,0,1","1","",""
"","html-keyboard-response","51","25057","0.0-51.0","3TU5ZICBRENHK9RDAHBCXDMBZVNQ8C","A2AP9F2LCG5GV8","3P7RGTLO6EZ76AO3386R8ZK9IWWKAW","","null","<img src=""img/food6.png"" style=""width:200px; border:14px solid green;"">","null","","","","","","","","","",""
"","image-keyboard-response","52","25064","0.0-52.0","3TU5ZICBRENHK9RDAHBCXDMBZVNQ8C","A2AP9F2LCG5GV8","3P7RGTLO6EZ76AO3386R8ZK9IWWKAW","","7","img/food6.png","74","7","1","1","1","1","1,0.5,0,1,0.5,0,0.5,0,1","1,0.5,0,1,0.5,0,0.5,0,1","1","",""
"","html-keyboard-response","53","25368","0.0-53.0","3TU5ZICBRENHK9RDAHBCXDMBZVNQ8C","A2AP9F2LCG5GV8","3P7RGTLO6EZ76AO3386R8ZK9IWWKAW","","null","<img src=""img/food6.png"" style=""width:200px; border:14px solid green;"">","null","","","","","","","","","",""
"","image-keyboard-response","54","25448","0.0-54.0","3TU5ZICBRENHK9RDAHBCXDMBZVNQ8C","A2AP9F2LCG5GV8","3P7RGTLO6EZ76AO3386R8ZK9IWWKAW","","75","img/food2.png","76","80","3","1","3","1","1,0.5,0,1,0.5,0,0.5,0,1","1,0.5,0,1,0.5,0,0.5,0,1","1","",""
"","html-keyboard-response","55","25753","0.0-55.0","3TU5ZICBRENHK9RDAHBCXDMBZVNQ8C","A2AP9F2LCG5GV8","3P7RGTLO6EZ76AO3386R8ZK9IWWKAW","","null","<img src=""img/food2.png"" style=""width:200px; border:14px solid green;"">","null","","","","","","","","","",""
"","image-keyboard-response","56","25891","0.0-56.0","3TU5ZICBRENHK9RDAHBCXDMBZVNQ8C","A2AP9F2LCG5GV8","3P7RGTLO6EZ76AO3386R8ZK9IWWKAW","","137","img/food6.png","74","138","1","1","1","1","1,0.5,0,1,0.5,0,0.5,0,1","1,0.5,0,1,0.5,0,0.5,0,1","1","",""
"","html-keyboard-response","57","26192","0.0-57.0","3TU5ZICBRENHK9RDAHBCXDMBZVNQ8C","A2AP9F2LCG5GV8","3P7RGTLO6EZ76AO3386R8ZK9IWWKAW","","null","<img src=""img/food6.png"" style=""width:200px; border:14px solid green;"">","null","","","","","","","","","",""
"","image-keyboard-response","58","26218","0.0-58.0","3TU5ZICBRENHK9RDAHBCXDMBZVNQ8C","A2AP9F2LCG5GV8","3P7RGTLO6EZ76AO3386R8ZK9IWWKAW","","26","img/food5.png","75","26","2","1","2","1","1,0.5,0,1,0.5,0,0.5,0,1","1,0.5,0,1,0.5,0,0.5,0,1","1","",""
"","html-keyboard-response","59","26519","0.0-59.0","3TU5ZICBRENHK9RDAHBCXDMBZVNQ8C","A2AP9F2LCG5GV8","3P7RGTLO6EZ76AO3386R8ZK9IWWKAW","","null","<img src=""img/food5.png"" style=""width:200px; border:14px solid green;"">","null","","","","","","","","","",""
"","image-keyboard-response","60","26521","0.0-60.0","3TU5ZICBRENHK9RDAHBCXDMBZVNQ8C","A2AP9F2LCG5GV8","3P7RGTLO6EZ76AO3386R8ZK9IWWKAW","","0","img/food5.png","75","0","2","1","2","1","1,0.5,0,1,0.5,0,0.5,0,1","1,0.5,0,1,0.5,0,0.5,0,1","1","",""
"","html-keyboard-response","61","26822","0.0-61.0","3TU5ZICBRENHK9RDAHBCXDMBZVNQ8C","A2AP9F2LCG5GV8","3P7RGTLO6EZ76AO3386R8ZK9IWWKAW","","null","<img src=""img/food5.png"" style=""width:200px; border:14px solid green;"">","null","","","","","","","","","",""
"","image-keyboard-response","62","26953","0.0-62.0","3TU5ZICBRENHK9RDAHBCXDMBZVNQ8C","A2AP9F2LCG5GV8","3P7RGTLO6EZ76AO3386R8ZK9IWWKAW","","130","img/food6.png","74","131","1","1","1","1","1,0.5,0,1,0.5,0,0.5,0,1","1,0.5,0,1,0.5,0,0.5,0,1","1","",""
"","html-keyboard-response","63","27254","0.0-63.0","3TU5ZICBRENHK9RDAHBCXDMBZVNQ8C","A2AP9F2LCG5GV8","3P7RGTLO6EZ76AO3386R8ZK9IWWKAW","","null","<img src=""img/food6.png"" style=""width:200px; border:14px solid green;"">","null","","","","","","","","","",""
"","image-keyboard-response","64","27395","0.0-64.0","3TU5ZICBRENHK9RDAHBCXDMBZVNQ8C","A2AP9F2LCG5GV8","3P7RGTLO6EZ76AO3386R8ZK9IWWKAW","","139","img/food5.png","75","140","2","0","2","1","1,0.5,0,1,0.5,0,0.5,0,1","1,0.5,0,1,0.5,0,0.5,0,1","1","",""
"","html-keyboard-response","65","27698","0.0-65.0","3TU5ZICBRENHK9RDAHBCXDMBZVNQ8C","A2AP9F2LCG5GV8","3P7RGTLO6EZ76AO3386R8ZK9IWWKAW","","null","<img src=""img/food5.png"" style=""width:200px;border:14px solid red;"">","null","","","","","","","","","",""
"","image-keyboard-response","66","27796","0.0-66.0","3TU5ZICBRENHK9RDAHBCXDMBZVNQ8C","A2AP9F2LCG5GV8","3P7RGTLO6EZ76AO3386R8ZK9IWWKAW","","97","img/food6.png","76","98","3","0","1","1","1,0.5,0,1,0.5,0,0.5,0,1","1,0.5,0,1,0.5,0,0.5,0,1","1","",""
"","html-keyboard-response","67","28098","0.0-67.0","3TU5ZICBRENHK9RDAHBCXDMBZVNQ8C","A2AP9F2LCG5GV8","3P7RGTLO6EZ76AO3386R8ZK9IWWKAW","","null","<img src=""img/food6.png"" style=""width:200px;border:14px solid red;"">","null","","","","","","","","","",""
"","image-keyboard-response","68","28186","0.0-68.0","3TU5ZICBRENHK9RDAHBCXDMBZVNQ8C","A2AP9F2LCG5GV8","3P7RGTLO6EZ76AO3386R8ZK9IWWKAW","","88","img/food5.png","74","88","1","1","2","1","1,0.5,0,1,0.5,0,0.5,0,1","1,0.5,0,1,0.5,0,0.5,0,1","1","",""
"","html-keyboard-response","69","28489","0.0-69.0","3TU5ZICBRENHK9RDAHBCXDMBZVNQ8C","A2AP9F2LCG5GV8","3P7RGTLO6EZ76AO3386R8ZK9IWWKAW","","null","<img src=""img/food5.png"" style=""width:200px; border:14px solid green;"">","null","","","","","","","","","",""
"","image-keyboard-response","70","28516","0.0-70.0","3TU5ZICBRENHK9RDAHBCXDMBZVNQ8C","A2AP9F2LCG5GV8","3P7RGTLO6EZ76AO3386R8ZK9IWWKAW","","24","img/food5.png","75","26","2","0","2","1","1,0.5,0,1,0.5,0,0.5,0,1","1,0.5,0,1,0.5,0,0.5,0,1","1","",""
"","html-keyboard-response","71","28819","0.0-71.0","3TU5ZICBRENHK9RDAHBCXDMBZVNQ8C","A2AP9F2LCG5GV8","3P7RGTLO6EZ76AO3386R8ZK9IWWKAW","","null","<img src=""img/food5.png"" style=""width:200px;border:14px solid red;"">","null","","","","","","","","","",""
"","image-keyboard-response","72","28947","0.0-72.0","3TU5ZICBRENHK9RDAHBCXDMBZVNQ8C","A2AP9F2LCG5GV8","3P7RGTLO6EZ76AO3386R8ZK9IWWKAW","","127","img/food5.png","76","127","3","0","2","1","1,0.5,0,1,0.5,0,0.5,0,1","1,0.5,0,1,0.5,0,0.5,0,1","1","",""
"","html-keyboard-response","73","29250","0.0-73.0","3TU5ZICBRENHK9RDAHBCXDMBZVNQ8C","A2AP9F2LCG5GV8","3P7RGTLO6EZ76AO3386R8ZK9IWWKAW","","null","<img src=""img/food5.png"" style=""width:200px;border:14px solid red;"">","null","","","","","","","","","",""
"","image-keyboard-response","74","29276","0.0-74.0","3TU5ZICBRENHK9RDAHBCXDMBZVNQ8C","A2AP9F2LCG5GV8","3P7RGTLO6EZ76AO3386R8ZK9IWWKAW","","24","img/food2.png","74","26","1","0","3","1","1,0.5,0,1,0.5,0,0.5,0,1","1,0.5,0,1,0.5,0,0.5,0,1","1","",""
"","html-keyboard-response","75","29577","0.0-75.0","3TU5ZICBRENHK9RDAHBCXDMBZVNQ8C","A2AP9F2LCG5GV8","3P7RGTLO6EZ76AO3386R8ZK9IWWKAW","","null","<img src=""img/food2.png"" style=""width:200px;border:14px solid red;"">","null","","","","","","","","","",""
"","image-keyboard-response","76","29658","0.0-76.0","3TU5ZICBRENHK9RDAHBCXDMBZVNQ8C","A2AP9F2LCG5GV8","3P7RGTLO6EZ76AO3386R8ZK9IWWKAW","","80","img/food5.png","75","81","2","1","2","1","1,0.5,0,1,0.5,0,0.5,0,1","1,0.5,0,1,0.5,0,0.5,0,1","1","",""
"","html-keyboard-response","77","29962","0.0-77.0","3TU5ZICBRENHK9RDAHBCXDMBZVNQ8C","A2AP9F2LCG5GV8","3P7RGTLO6EZ76AO3386R8ZK9IWWKAW","","null","<img src=""img/food5.png"" style=""width:200px; border:14px solid green;"">","null","","","","","","","","","",""
"","image-keyboard-response","78","30107","0.0-78.0","3TU5ZICBRENHK9RDAHBCXDMBZVNQ8C","A2AP9F2LCG5GV8","3P7RGTLO6EZ76AO3386R8ZK9IWWKAW","","143","img/food5.png","74","145","1","1","2","1","1,0.5,0,1,0.5,0,0.5,0,1","1,0.5,0,1,0.5,0,0.5,0,1","1","",""
"","html-keyboard-response","79","30408","0.0-79.0","3TU5ZICBRENHK9RDAHBCXDMBZVNQ8C","A2AP9F2LCG5GV8","3P7RGTLO6EZ76AO3386R8ZK9IWWKAW","","null","<img src=""img/food5.png"" style=""width:200px; border:14px solid green;"">","null","","","","","","","","","",""
"","image-keyboard-response","80","30474","0.0-80.0","3TU5ZICBRENHK9RDAHBCXDMBZVNQ8C","A2AP9F2LCG5GV8","3P7RGTLO6EZ76AO3386R8ZK9IWWKAW","","65","img/food5.png","76","66","3","0","2","1","1,0.5,0,1,0.5,0,0.5,0,1","1,0.5,0,1,0.5,0,0.5,0,1","1","",""
"","html-keyboard-response","81","30775","0.0-81.0","3TU5ZICBRENHK9RDAHBCXDMBZVNQ8C","A2AP9F2LCG5GV8","3P7RGTLO6EZ76AO3386R8ZK9IWWKAW","","null","<img src=""img/food5.png"" style=""width:200px;border:14px solid red;"">","null","","","","","","","","","",""
"","image-keyboard-response","82","30907","0.0-82.0","3TU5ZICBRENHK9RDAHBCXDMBZVNQ8C","A2AP9F2LCG5GV8","3P7RGTLO6EZ76AO3386R8ZK9IWWKAW","","130","img/food6.png","75","132","2","1","1","1","1,0.5,0,1,0.5,0,0.5,0,1","1,0.5,0,1,0.5,0,0.5,0,1","1","",""
"","html-keyboard-response","83","31211","0.0-83.0","3TU5ZICBRENHK9RDAHBCXDMBZVNQ8C","A2AP9F2LCG5GV8","3P7RGTLO6EZ76AO3386R8ZK9IWWKAW","","null","<img src=""img/food6.png"" style=""width:200px; border:14px solid green;"">","null","","","","","","","","","",""
"","image-keyboard-response","84","31289","0.0-84.0","3TU5ZICBRENHK9RDAHBCXDMBZVNQ8C","A2AP9F2LCG5GV8","3P7RGTLO6EZ76AO3386R8ZK9IWWKAW","","78","img/food2.png","74","78","1","1","3","1","1,0.5,0,1,0.5,0,0.5,0,1","1,0.5,0,1,0.5,0,0.5,0,1","1","",""
"","html-keyboard-response","85","31590","0.0-85.0","3TU5ZICBRENHK9RDAHBCXDMBZVNQ8C","A2AP9F2LCG5GV8","3P7RGTLO6EZ76AO3386R8ZK9IWWKAW","","null","<img src=""img/food2.png"" style=""width:200px; border:14px solid green;"">","null","","","","","","","","","",""
"","image-keyboard-response","86","31604","0.0-86.0","3TU5ZICBRENHK9RDAHBCXDMBZVNQ8C","A2AP9F2LCG5GV8","3P7RGTLO6EZ76AO3386R8ZK9IWWKAW","","13","img/food6.png","74","14","1","1","1","1","1,0.5,0,1,0.5,0,0.5,0,1","1,0.5,0,1,0.5,0,0.5,0,1","1","",""
"","html-keyboard-response","87","31906","0.0-87.0","3TU5ZICBRENHK9RDAHBCXDMBZVNQ8C","A2AP9F2LCG5GV8","3P7RGTLO6EZ76AO3386R8ZK9IWWKAW","","null","<img src=""img/food6.png"" style=""width:200px; border:14px solid green;"">","null","","","","","","","","","",""
"","image-keyboard-response","88","31938","0.0-88.0","3TU5ZICBRENHK9RDAHBCXDMBZVNQ8C","A2AP9F2LCG5GV8","3P7RGTLO6EZ76AO3386R8ZK9IWWKAW","","31","img/food5.png","76","32","3","0","2","1","1,0.5,0,1,0.5,0,0.5,0,1","1,0.5,0,1,0.5,0,0.5,0,1","1","",""
"","html-keyboard-response","89","32241","0.0-89.0","3TU5ZICBRENHK9RDAHBCXDMBZVNQ8C","A2AP9F2LCG5GV8","3P7RGTLO6EZ76AO3386R8ZK9IWWKAW","","null","<img src=""img/food5.png"" style=""width:200px;border:14px solid red;"">","null","","","","","","","","","",""
"","image-keyboard-response","90","32249","0.0-90.0","3TU5ZICBRENHK9RDAHBCXDMBZVNQ8C","A2AP9F2LCG5GV8","3P7RGTLO6EZ76AO3386R8ZK9IWWKAW","","7","img/food5.png","76","8","3","0","2","1","1,0.5,0,1,0.5,0,0.5,0,1","1,0.5,0,1,0.5,0,0.5,0,1","1","",""
"","html-keyboard-response","91","32550","0.0-91.0","3TU5ZICBRENHK9RDAHBCXDMBZVNQ8C","A2AP9F2LCG5GV8","3P7RGTLO6EZ76AO3386R8ZK9IWWKAW","","null","<img src=""img/food5.png"" style=""width:200px;border:14px solid red;"">","null","","","","","","","","","",""
"","image-keyboard-response","92","32691","0.0-92.0","3TU5ZICBRENHK9RDAHBCXDMBZVNQ8C","A2AP9F2LCG5GV8","3P7RGTLO6EZ76AO3386R8ZK9IWWKAW","","138","img/food6.png","75","141","2","0","1","1","1,0.5,0,1,0.5,0,0.5,0,1","1,0.5,0,1,0.5,0,0.5,0,1","1","",""
"","html-keyboard-response","93","32993","0.0-93.0","3TU5ZICBRENHK9RDAHBCXDMBZVNQ8C","A2AP9F2LCG5GV8","3P7RGTLO6EZ76AO3386R8ZK9IWWKAW","","null","<img src=""img/food6.png"" style=""width:200px;border:14px solid red;"">","null","","","","","","","","","",""
"","image-keyboard-response","94","33147","0.0-94.0","3TU5ZICBRENHK9RDAHBCXDMBZVNQ8C","A2AP9F2LCG5GV8","3P7RGTLO6EZ76AO3386R8ZK9IWWKAW","","152","img/food5.png","76","154","3","0","2","1","1,0.5,0,1,0.5,0,0.5,0,1","1,0.5,0,1,0.5,0,0.5,0,1","1","",""
"","html-keyboard-response","95","33448","0.0-95.0","3TU5ZICBRENHK9RDAHBCXDMBZVNQ8C","A2AP9F2LCG5GV8","3P7RGTLO6EZ76AO3386R8ZK9IWWKAW","","null","<img src=""img/food5.png"" style=""width:200px;border:14px solid red;"">","null","","","","","","","","","",""
"","image-keyboard-response","96","33516","0.0-96.0","3TU5ZICBRENHK9RDAHBCXDMBZVNQ8C","A2AP9F2LCG5GV8","3P7RGTLO6EZ76AO3386R8ZK9IWWKAW","","65","img/food5.png","74","67","1","1","2","1","1,0.5,0,1,0.5,0,0.5,0,1","1,0.5,0,1,0.5,0,0.5,0,1","1","",""
"","html-keyboard-response","97","33818","0.0-97.0","3TU5ZICBRENHK9RDAHBCXDMBZVNQ8C","A2AP9F2LCG5GV8","3P7RGTLO6EZ76AO3386R8ZK9IWWKAW","","null","<img src=""img/food5.png"" style=""width:200px; border:14px solid green;"">","null","","","","","","","","","",""
"","image-keyboard-response","98","33855","0.0-98.0","3TU5ZICBRENHK9RDAHBCXDMBZVNQ8C","A2AP9F2LCG5GV8","3P7RGTLO6EZ76AO3386R8ZK9IWWKAW","","35","img/food5.png","75","36","2","0","2","1","1,0.5,0,1,0.5,0,0.5,0,1","1,0.5,0,1,0.5,0,0.5,0,1","1","",""
"","html-keyboard-response","99","34157","0.0-99.0","3TU5ZICBRENHK9RDAHBCXDMBZVNQ8C","A2AP9F2LCG5GV8","3P7RGTLO6EZ76AO3386R8ZK9IWWKAW","","null","<img src=""img/food5.png"" style=""width:200px;border:14px solid red;"">","null","","","","","","","","","",""
"","image-keyboard-response","100","34339","0.0-100.0","3TU5ZICBRENHK9RDAHBCXDMBZVNQ8C","A2AP9F2LCG5GV8","3P7RGTLO6EZ76AO3386R8ZK9IWWKAW","","181","img/food2.png","74","182","1","0","3","1","1,0.5,0,1,0.5,0,0.5,0,1","1,0.5,0,1,0.5,0,0.5,0,1","1","",""
"","html-keyboard-response","101","34640","0.0-101.0","3TU5ZICBRENHK9RDAHBCXDMBZVNQ8C","A2AP9F2LCG5GV8","3P7RGTLO6EZ76AO3386R8ZK9IWWKAW","","null","<img src=""img/food2.png"" style=""width:200px;border:14px solid red;"">","null","","","","","","","","","",""
"","image-keyboard-response","102","34658","0.0-102.0","3TU5ZICBRENHK9RDAHBCXDMBZVNQ8C","A2AP9F2LCG5GV8","3P7RGTLO6EZ76AO3386R8ZK9IWWKAW","","17","img/food5.png","76","18","3","0","2","1","1,0.5,0,1,0.5,0,0.5,0,1","1,0.5,0,1,0.5,0,0.5,0,1","1","",""
"","html-keyboard-response","103","34960","0.0-103.0","3TU5ZICBRENHK9RDAHBCXDMBZVNQ8C","A2AP9F2LCG5GV8","3P7RGTLO6EZ76AO3386R8ZK9IWWKAW","","null","<img src=""img/food5.png"" style=""width:200px;border:14px solid red;"">","null","","","","","","","","","",""
"","image-keyboard-response","104","34965","0.0-104.0","3TU5ZICBRENHK9RDAHBCXDMBZVNQ8C","A2AP9F2LCG5GV8","3P7RGTLO6EZ76AO3386R8ZK9IWWKAW","","4","img/food5.png","76","5","3","0","2","1","1,0.5,0,1,0.5,0,0.5,0,1","1,0.5,0,1,0.5,0,0.5,0,1","1","",""
"","html-keyboard-response","105","35267","0.0-105.0","3TU5ZICBRENHK9RDAHBCXDMBZVNQ8C","A2AP9F2LCG5GV8","3P7RGTLO6EZ76AO3386R8ZK9IWWKAW","","null","<img src=""img/food5.png"" style=""width:200px;border:14px solid red;"">","null","","","","","","","","","",""
"","image-keyboard-response","106","35418","0.0-106.0","3TU5ZICBRENHK9RDAHBCXDMBZVNQ8C","A2AP9F2LCG5GV8","3P7RGTLO6EZ76AO3386R8ZK9IWWKAW","","151","img/food2.png","75","151","2","0","3","1","1,0.5,0,1,0.5,0,0.5,0,1","1,0.5,0,1,0.5,0,0.5,0,1","1","",""
"","html-keyboard-response","107","35719","0.0-107.0","3TU5ZICBRENHK9RDAHBCXDMBZVNQ8C","A2AP9F2LCG5GV8","3P7RGTLO6EZ76AO3386R8ZK9IWWKAW","","null","<img src=""img/food2.png"" style=""width:200px;border:14px solid red;"">","null","","","","","","","","","",""
"","image-keyboard-response","108","35739","0.0-108.0","3TU5ZICBRENHK9RDAHBCXDMBZVNQ8C","A2AP9F2LCG5GV8","3P7RGTLO6EZ76AO3386R8ZK9IWWKAW","","19","img/food2.png","75","19","2","0","3","1","1,0.5,0,1,0.5,0,0.5,0,1","1,0.5,0,1,0.5,0,0.5,0,1","1","",""
"","html-keyboard-response","109","36040","0.0-109.0","3TU5ZICBRENHK9RDAHBCXDMBZVNQ8C","A2AP9F2LCG5GV8","3P7RGTLO6EZ76AO3386R8ZK9IWWKAW","","null","<img src=""img/food2.png"" style=""width:200px;border:14px solid red;"">","null","","","","","","","","","",""
"","image-keyboard-response","110","36052","0.0-110.0","3TU5ZICBRENHK9RDAHBCXDMBZVNQ8C","A2AP9F2LCG5GV8","3P7RGTLO6EZ76AO3386R8ZK9IWWKAW","","11","img/food5.png","75","12","2","1","2","1","1,0.5,0,1,0.5,0,0.5,0,1","1,0.5,0,1,0.5,0,0.5,0,1","1","",""
"","html-keyboard-response","111","36355","0.0-111.0","3TU5ZICBRENHK9RDAHBCXDMBZVNQ8C","A2AP9F2LCG5GV8","3P7RGTLO6EZ76AO3386R8ZK9IWWKAW","","null","<img src=""img/food5.png"" style=""width:200px; border:14px solid green;"">","null","","","","","","","","","",""
"","image-keyboard-response","112","36367","0.0-112.0","3TU5ZICBRENHK9RDAHBCXDMBZVNQ8C","A2AP9F2LCG5GV8","3P7RGTLO6EZ76AO3386R8ZK9IWWKAW","","11","img/food2.png","75","12","2","0","3","1","1,0.5,0,1,0.5,0,0.5,0,1","1,0.5,0,1,0.5,0,0.5,0,1","1","",""
"","html-keyboard-response","113","36668","0.0-113.0","3TU5ZICBRENHK9RDAHBCXDMBZVNQ8C","A2AP9F2LCG5GV8","3P7RGTLO6EZ76AO3386R8ZK9IWWKAW","","null","<img src=""img/food2.png"" style=""width:200px;border:14px solid red;"">","null","","","","","","","","","",""
"","image-keyboard-response","114","36705","0.0-114.0","3TU5ZICBRENHK9RDAHBCXDMBZVNQ8C","A2AP9F2LCG5GV8","3P7RGTLO6EZ76AO3386R8ZK9IWWKAW","","36","img/food5.png","75","38","2","0","2","1","1,0.5,0,1,0.5,0,0.5,0,1","1,0.5,0,1,0.5,0,0.5,0,1","1","",""
"","html-keyboard-response","115","37007","0.0-115.0","3TU5ZICBRENHK9RDAHBCXDMBZVNQ8C","A2AP9F2LCG5GV8","3P7RGTLO6EZ76AO3386R8ZK9IWWKAW","","null","<img src=""img/food5.png"" style=""width:200px;border:14px solid red;"">","null","","","","","","","","","",""
"","image-keyboard-response","116","37017","0.0-116.0","3TU5ZICBRENHK9RDAHBCXDMBZVNQ8C","A2AP9F2LCG5GV8","3P7RGTLO6EZ76AO3386R8ZK9IWWKAW","","8","img/food2.png","75","10","2","0","3","1","1,0.5,0,1,0.5,0,0.5,0,1","1,0.5,0,1,0.5,0,0.5,0,1","1","",""
"","html-keyboard-response","117","37319","0.0-117.0","3TU5ZICBRENHK9RDAHBCXDMBZVNQ8C","A2AP9F2LCG5GV8","3P7RGTLO6EZ76AO3386R8ZK9IWWKAW","","null","<img src=""img/food2.png"" style=""width:200px;border:14px solid red;"">","null","","","","","","","","","",""
"","image-keyboard-response","118","37479","0.0-118.0","3TU5ZICBRENHK9RDAHBCXDMBZVNQ8C","A2AP9F2LCG5GV8","3P7RGTLO6EZ76AO3386R8ZK9IWWKAW","","159","img/food5.png","74","160","1","1","2","1","1,0.5,0,1,0.5,0,0.5,0,1","1,0.5,0,1,0.5,0,0.5,0,1","1","",""
"","html-keyboard-response","119","37782","0.0-119.0","3TU5ZICBRENHK9RDAHBCXDMBZVNQ8C","A2AP9F2LCG5GV8","3P7RGTLO6EZ76AO3386R8ZK9IWWKAW","","null","<img src=""img/food5.png"" style=""width:200px; border:14px solid green;"">","null","","","","","","","","","",""
"","image-keyboard-response","120","37898","0.0-120.0","3TU5ZICBRENHK9RDAHBCXDMBZVNQ8C","A2AP9F2LCG5GV8","3P7RGTLO6EZ76AO3386R8ZK9IWWKAW","","116","img/food2.png","75","116","2","0","3","1","1,0.5,0,1,0.5,0,0.5,0,1","1,0.5,0,1,0.5,0,0.5,0,1","1","",""
"","html-keyboard-response","121","38201","0.0-121.0","3TU5ZICBRENHK9RDAHBCXDMBZVNQ8C","A2AP9F2LCG5GV8","3P7RGTLO6EZ76AO3386R8ZK9IWWKAW","","null","<img src=""img/food2.png"" style=""width:200px;border:14px solid red;"">","null","","","","","","","","","",""
"","image-keyboard-response","122","38219","0.0-122.0","3TU5ZICBRENHK9RDAHBCXDMBZVNQ8C","A2AP9F2LCG5GV8","3P7RGTLO6EZ76AO3386R8ZK9IWWKAW","","17","img/food5.png","75","18","2","1","2","1","1,0.5,0,1,0.5,0,0.5,0,1","1,0.5,0,1,0.5,0,0.5,0,1","1","",""
"","html-keyboard-response","123","38521","0.0-123.0","3TU5ZICBRENHK9RDAHBCXDMBZVNQ8C","A2AP9F2LCG5GV8","3P7RGTLO6EZ76AO3386R8ZK9IWWKAW","","null","<img src=""img/food5.png"" style=""width:200px; border:14px solid green;"">","null","","","","","","","","","",""
"","image-keyboard-response","124","38523","0.0-124.0","3TU5ZICBRENHK9RDAHBCXDMBZVNQ8C","A2AP9F2LCG5GV8","3P7RGTLO6EZ76AO3386R8ZK9IWWKAW","","0","img/food6.png","74","1","1","1","1","1","1,0.5,0,1,0.5,0,0.5,0,1","1,0.5,0,1,0.5,0,0.5,0,1","1","",""
"","html-keyboard-response","125","38825","0.0-125.0","3TU5ZICBRENHK9RDAHBCXDMBZVNQ8C","A2AP9F2LCG5GV8","3P7RGTLO6EZ76AO3386R8ZK9IWWKAW","","null","<img src=""img/food6.png"" style=""width:200px; border:14px solid green;"">","null","","","","","","","","","",""
"","image-keyboard-response","126","38867","0.0-126.0","3TU5ZICBRENHK9RDAHBCXDMBZVNQ8C","A2AP9F2LCG5GV8","3P7RGTLO6EZ76AO3386R8ZK9IWWKAW","","41","img/food2.png","75","42","2","0","3","1","1,0.5,0,1,0.5,0,0.5,0,1","1,0.5,0,1,0.5,0,0.5,0,1","1","",""
"","html-keyboard-response","127","39168","0.0-127.0","3TU5ZICBRENHK9RDAHBCXDMBZVNQ8C","A2AP9F2LCG5GV8","3P7RGTLO6EZ76AO3386R8ZK9IWWKAW","","null","<img src=""img/food2.png"" style=""width:200px;border:14px solid red;"">","null","","","","","","","","","",""
"","image-keyboard-response","128","39179","0.0-128.0","3TU5ZICBRENHK9RDAHBCXDMBZVNQ8C","A2AP9F2LCG5GV8","3P7RGTLO6EZ76AO3386R8ZK9IWWKAW","","9","img/food2.png","75","11","2","0","3","1","1,0.5,0,1,0.5,0,0.5,0,1","1,0.5,0,1,0.5,0,0.5,0,1","1","",""
"","html-keyboard-response","129","39479","0.0-129.0","3TU5ZICBRENHK9RDAHBCXDMBZVNQ8C","A2AP9F2LCG5GV8","3P7RGTLO6EZ76AO3386R8ZK9IWWKAW","","null","<img src=""img/food2.png"" style=""width:200px;border:14px solid red;"">","null","","","","","","","","","",""
"","image-keyboard-response","130","39516","0.0-130.0","3TU5ZICBRENHK9RDAHBCXDMBZVNQ8C","A2AP9F2LCG5GV8","3P7RGTLO6EZ76AO3386R8ZK9IWWKAW","","36","img/food2.png","75","38","2","0","3","1","1,0.5,0,1,0.5,0,0.5,0,1","1,0.5,0,1,0.5,0,0.5,0,1","1","",""
"","html-keyboard-response","131","39825","0.0-131.0","3TU5ZICBRENHK9RDAHBCXDMBZVNQ8C","A2AP9F2LCG5GV8","3P7RGTLO6EZ76AO3386R8ZK9IWWKAW","","null","<img src=""img/food2.png"" style=""width:200px;border:14px solid red;"">","null","","","","","","","","","",""
"","image-keyboard-response","132","39842","0.0-132.0","3TU5ZICBRENHK9RDAHBCXDMBZVNQ8C","A2AP9F2LCG5GV8","3P7RGTLO6EZ76AO3386R8ZK9IWWKAW","","17","img/food6.png","75","17","2","1","1","1","1,0.5,0,1,0.5,0,0.5,0,1","1,0.5,0,1,0.5,0,0.5,0,1","1","",""
"","html-keyboard-response","133","40145","0.0-133.0","3TU5ZICBRENHK9RDAHBCXDMBZVNQ8C","A2AP9F2LCG5GV8","3P7RGTLO6EZ76AO3386R8ZK9IWWKAW","","null","<img src=""img/food6.png"" style=""width:200px; border:14px solid green;"">","null","","","","","","","","","",""
"","image-keyboard-response","134","40164","0.0-134.0","3TU5ZICBRENHK9RDAHBCXDMBZVNQ8C","A2AP9F2LCG5GV8","3P7RGTLO6EZ76AO3386R8ZK9IWWKAW","","17","img/food6.png","75","19","2","1","1","1","1,0.5,0,1,0.5,0,0.5,0,1","1,0.5,0,1,0.5,0,0.5,0,1","1","",""
"","html-keyboard-response","135","40467","0.0-135.0","3TU5ZICBRENHK9RDAHBCXDMBZVNQ8C","A2AP9F2LCG5GV8","3P7RGTLO6EZ76AO3386R8ZK9IWWKAW","","null","<img src=""img/food6.png"" style=""width:200px; border:14px solid green;"">","null","","","","","","","","","",""
"","image-keyboard-response","136","40522","0.0-136.0","3TU5ZICBRENHK9RDAHBCXDMBZVNQ8C","A2AP9F2LCG5GV8","3P7RGTLO6EZ76AO3386R8ZK9IWWKAW","","54","img/food6.png","75","55","2","0","1","1","1,0.5,0,1,0.5,0,0.5,0,1","1,0.5,0,1,0.5,0,0.5,0,1","1","",""
"","html-keyboard-response","137","40826","0.0-137.0","3TU5ZICBRENHK9RDAHBCXDMBZVNQ8C","A2AP9F2LCG5GV8","3P7RGTLO6EZ76AO3386R8ZK9IWWKAW","","null","<img src=""img/food6.png"" style=""width:200px;border:14px solid red;"">","null","","","","","","","","","",""
"","image-keyboard-response","138","40844","0.0-138.0","3TU5ZICBRENHK9RDAHBCXDMBZVNQ8C","A2AP9F2LCG5GV8","3P7RGTLO6EZ76AO3386R8ZK9IWWKAW","","16","img/food2.png","75","18","2","0","3","1","1,0.5,0,1,0.5,0,0.5,0,1","1,0.5,0,1,0.5,0,0.5,0,1","1","",""
"","html-keyboard-response","139","41146","0.0-139.0","3TU5ZICBRENHK9RDAHBCXDMBZVNQ8C","A2AP9F2LCG5GV8","3P7RGTLO6EZ76AO3386R8ZK9IWWKAW","","null","<img src=""img/food2.png"" style=""width:200px;border:14px solid red;"">","null","","","","","","","","","",""
"","image-keyboard-response","140","41179","0.0-140.0","3TU5ZICBRENHK9RDAHBCXDMBZVNQ8C","A2AP9F2LCG5GV8","3P7RGTLO6EZ76AO3386R8ZK9IWWKAW","","29","img/food5.png","75","33","2","1","2","1","1,0.5,0,1,0.5,0,0.5,0,1","1,0.5,0,1,0.5,0,0.5,0,1","1","",""
"","html-keyboard-response","141","41484","0.0-141.0","3TU5ZICBRENHK9RDAHBCXDMBZVNQ8C","A2AP9F2LCG5GV8","3P7RGTLO6EZ76AO3386R8ZK9IWWKAW","","null","<img src=""img/food5.png"" style=""width:200px; border:14px solid green;"">","null","","","","","","","","","",""
"","image-keyboard-response","142","41651","0.0-142.0","3TU5ZICBRENHK9RDAHBCXDMBZVNQ8C","A2AP9F2LCG5GV8","3P7RGTLO6EZ76AO3386R8ZK9IWWKAW","","166","img/food2.png","76","167","3","1","3","1","1,0.5,0,1,0.5,0,0.5,0,1","1,0.5,0,1,0.5,0,0.5,0,1","1","",""
"","html-keyboard-response","143","41954","0.0-143.0","3TU5ZICBRENHK9RDAHBCXDMBZVNQ8C","A2AP9F2LCG5GV8","3P7RGTLO6EZ76AO3386R8ZK9IWWKAW","","null","<img src=""img/food2.png"" style=""width:200px; border:14px solid green;"">","null","","","","","","","","","",""
"","image-keyboard-response","144","41986","0.0-144.0","3TU5ZICBRENHK9RDAHBCXDMBZVNQ8C","A2AP9F2LCG5GV8","3P7RGTLO6EZ76AO3386R8ZK9IWWKAW","","31","img/food6.png","76","32","3","0","1","1","1,0.5,0,1,0.5,0,0.5,0,1","1,0.5,0,1,0.5,0,0.5,0,1","1","",""
"","html-keyboard-response","145","42287","0.0-145.0","3TU5ZICBRENHK9RDAHBCXDMBZVNQ8C","A2AP9F2LCG5GV8","3P7RGTLO6EZ76AO3386R8ZK9IWWKAW","","null","<img src=""img/food6.png"" style=""width:200px;border:14px solid red;"">","null","","","","","","","","","",""
"","image-keyboard-response","146","42314","0.0-146.0","3TU5ZICBRENHK9RDAHBCXDMBZVNQ8C","A2AP9F2LCG5GV8","3P7RGTLO6EZ76AO3386R8ZK9IWWKAW","","25","img/food5.png","76","28","3","0","2","1","1,0.5,0,1,0.5,0,0.5,0,1","1,0.5,0,1,0.5,0,0.5,0,1","1","",""
"","html-keyboard-response","147","42617","0.0-147.0","3TU5ZICBRENHK9RDAHBCXDMBZVNQ8C","A2AP9F2LCG5GV8","3P7RGTLO6EZ76AO3386R8ZK9IWWKAW","","null","<img src=""img/food5.png"" style=""width:200px;border:14px solid red;"">","null","","","","","","","","","",""
"","image-keyboard-response","148","42626","0.0-148.0","3TU5ZICBRENHK9RDAHBCXDMBZVNQ8C","A2AP9F2LCG5GV8","3P7RGTLO6EZ76AO3386R8ZK9IWWKAW","","7","img/food2.png","76","8","3","1","3","1","1,0.5,0,1,0.5,0,0.5,0,1","1,0.5,0,1,0.5,0,0.5,0,1","1","",""
"","html-keyboard-response","149","42927","0.0-149.0","3TU5ZICBRENHK9RDAHBCXDMBZVNQ8C","A2AP9F2LCG5GV8","3P7RGTLO6EZ76AO3386R8ZK9IWWKAW","","null","<img src=""img/food2.png"" style=""width:200px; border:14px solid green;"">","null","","","","","","","","","",""
"","image-keyboard-response","150","42954","0.0-150.0","3TU5ZICBRENHK9RDAHBCXDMBZVNQ8C","A2AP9F2LCG5GV8","3P7RGTLO6EZ76AO3386R8ZK9IWWKAW","","26","img/food2.png","76","27","3","1","3","1","1,0.5,0,1,0.5,0,0.5,0,1","1,0.5,0,1,0.5,0,0.5,0,1","1","",""
"","html-keyboard-response","151","43255","0.0-151.0","3TU5ZICBRENHK9RDAHBCXDMBZVNQ8C","A2AP9F2LCG5GV8","3P7RGTLO6EZ76AO3386R8ZK9IWWKAW","","null","<img src=""img/food2.png"" style=""width:200px; border:14px solid green;"">","null","","","","","","","","","",""
"","image-keyboard-response","152","43282","0.0-152.0","3TU5ZICBRENHK9RDAHBCXDMBZVNQ8C","A2AP9F2LCG5GV8","3P7RGTLO6EZ76AO3386R8ZK9IWWKAW","","26","img/food2.png","76","27","3","1","3","1","1,0.5,0,1,0.5,0,0.5,0,1","1,0.5,0,1,0.5,0,0.5,0,1","1","",""
"","html-keyboard-response","153","43584","0.0-153.0","3TU5ZICBRENHK9RDAHBCXDMBZVNQ8C","A2AP9F2LCG5GV8","3P7RGTLO6EZ76AO3386R8ZK9IWWKAW","","null","<img src=""img/food2.png"" style=""width:200px; border:14px solid green;"">","null","","","","","","","","","",""
"","image-keyboard-response","154","43620","0.0-154.0","3TU5ZICBRENHK9RDAHBCXDMBZVNQ8C","A2AP9F2LCG5GV8","3P7RGTLO6EZ76AO3386R8ZK9IWWKAW","","35","img/food6.png","74","36","1","1","1","1","1,0.5,0,1,0.5,0,0.5,0,1","1,0.5,0,1,0.5,0,0.5,0,1","1","",""
"","html-keyboard-response","155","43922","0.0-155.0","3TU5ZICBRENHK9RDAHBCXDMBZVNQ8C","A2AP9F2LCG5GV8","3P7RGTLO6EZ76AO3386R8ZK9IWWKAW","","null","<img src=""img/food6.png"" style=""width:200px; border:14px solid green;"">","null","","","","","","","","","",""
"","image-keyboard-response","156","43931","0.0-156.0","3TU5ZICBRENHK9RDAHBCXDMBZVNQ8C","A2AP9F2LCG5GV8","3P7RGTLO6EZ76AO3386R8ZK9IWWKAW","","9","img/food2.png","76","9","3","1","3","1","1,0.5,0,1,0.5,0,0.5,0,1","1,0.5,0,1,0.5,0,0.5,0,1","1","",""
"","html-keyboard-response","157","44233","0.0-157.0","3TU5ZICBRENHK9RDAHBCXDMBZVNQ8C","A2AP9F2LCG5GV8","3P7RGTLO6EZ76AO3386R8ZK9IWWKAW","","null","<img src=""img/food2.png"" style=""width:200px; border:14px solid green;"">","null","","","","","","","","","",""
"","image-keyboard-response","158","44258","0.0-158.0","3TU5ZICBRENHK9RDAHBCXDMBZVNQ8C","A2AP9F2LCG5GV8","3P7RGTLO6EZ76AO3386R8ZK9IWWKAW","","23","img/food2.png","76","25","3","1","3","1","1,0.5,0,1,0.5,0,0.5,0,1","1,0.5,0,1,0.5,0,0.5,0,1","1","",""
"","html-keyboard-response","159","44560","0.0-159.0","3TU5ZICBRENHK9RDAHBCXDMBZVNQ8C","A2AP9F2LCG5GV8","3P7RGTLO6EZ76AO3386R8ZK9IWWKAW","","null","<img src=""img/food2.png"" style=""width:200px; border:14px solid green;"">","null","","","","","","","","","",""
"","image-keyboard-response","160","44578","0.0-160.0","3TU5ZICBRENHK9RDAHBCXDMBZVNQ8C","A2AP9F2LCG5GV8","3P7RGTLO6EZ76AO3386R8ZK9IWWKAW","","17","img/food6.png","76","18","3","0","1","1","1,0.5,0,1,0.5,0,0.5,0,1","1,0.5,0,1,0.5,0,0.5,0,1","1","",""
"","html-keyboard-response","161","44880","0.0-161.0","3TU5ZICBRENHK9RDAHBCXDMBZVNQ8C","A2AP9F2LCG5GV8","3P7RGTLO6EZ76AO3386R8ZK9IWWKAW","","null","<img src=""img/food6.png"" style=""width:200px;border:14px solid red;"">","null","","","","","","","","","",""
"","image-keyboard-response","162","44882","0.0-162.0","3TU5ZICBRENHK9RDAHBCXDMBZVNQ8C","A2AP9F2LCG5GV8","3P7RGTLO6EZ76AO3386R8ZK9IWWKAW","","1","img/food2.png","76","2","3","1","3","1","1,0.5,0,1,0.5,0,0.5,0,1","1,0.5,0,1,0.5,0,0.5,0,1","1","",""
"","html-keyboard-response","163","45184","0.0-163.0","3TU5ZICBRENHK9RDAHBCXDMBZVNQ8C","A2AP9F2LCG5GV8","3P7RGTLO6EZ76AO3386R8ZK9IWWKAW","","null","<img src=""img/food2.png"" style=""width:200px; border:14px solid green;"">","null","","","","","","","","","",""
"","image-keyboard-response","164","45211","0.0-164.0","3TU5ZICBRENHK9RDAHBCXDMBZVNQ8C","A2AP9F2LCG5GV8","3P7RGTLO6EZ76AO3386R8ZK9IWWKAW","","26","img/food2.png","76","28","3","1","3","1","1,0.5,0,1,0.5,0,0.5,0,1","1,0.5,0,1,0.5,0,0.5,0,1","1","",""
"","html-keyboard-response","165","45514","0.0-165.0","3TU5ZICBRENHK9RDAHBCXDMBZVNQ8C","A2AP9F2LCG5GV8","3P7RGTLO6EZ76AO3386R8ZK9IWWKAW","","null","<img src=""img/food2.png"" style=""width:200px; border:14px solid green;"">","null","","","","","","","","","",""
"","image-keyboard-response","166","45586","0.0-166.0","3TU5ZICBRENHK9RDAHBCXDMBZVNQ8C","A2AP9F2LCG5GV8","3P7RGTLO6EZ76AO3386R8ZK9IWWKAW","","70","img/food2.png","76","71","3","1","3","1","1,0.5,0,1,0.5,0,0.5,0,1","1,0.5,0,1,0.5,0,0.5,0,1","1","",""
"","html-keyboard-response","167","45888","0.0-167.0","3TU5ZICBRENHK9RDAHBCXDMBZVNQ8C","A2AP9F2LCG5GV8","3P7RGTLO6EZ76AO3386R8ZK9IWWKAW","","null","<img src=""img/food2.png"" style=""width:200px; border:14px solid green;"">","null","","","","","","","","","",""
"","image-keyboard-response","168","45997","0.0-168.0","3TU5ZICBRENHK9RDAHBCXDMBZVNQ8C","A2AP9F2LCG5GV8","3P7RGTLO6EZ76AO3386R8ZK9IWWKAW","","108","img/food6.png","74","109","1","1","1","1","1,0.5,0,1,0.5,0,0.5,0,1","1,0.5,0,1,0.5,0,0.5,0,1","1","",""
"","html-keyboard-response","169","46298","0.0-169.0","3TU5ZICBRENHK9RDAHBCXDMBZVNQ8C","A2AP9F2LCG5GV8","3P7RGTLO6EZ76AO3386R8ZK9IWWKAW","","null","<img src=""img/food6.png"" style=""width:200px; border:14px solid green;"">","null","","","","","","","","","",""
"","image-keyboard-response","170","46323","0.0-170.0","3TU5ZICBRENHK9RDAHBCXDMBZVNQ8C","A2AP9F2LCG5GV8","3P7RGTLO6EZ76AO3386R8ZK9IWWKAW","","23","img/food6.png","75","25","2","1","1","1","1,0.5,0,1,0.5,0,0.5,0,1","1,0.5,0,1,0.5,0,0.5,0,1","1","",""
"","html-keyboard-response","171","46624","0.0-171.0","3TU5ZICBRENHK9RDAHBCXDMBZVNQ8C","A2AP9F2LCG5GV8","3P7RGTLO6EZ76AO3386R8ZK9IWWKAW","","null","<img src=""img/food6.png"" style=""width:200px; border:14px solid green;"">","null","","","","","","","","","",""
"","image-keyboard-response","172","46738","0.0-172.0","3TU5ZICBRENHK9RDAHBCXDMBZVNQ8C","A2AP9F2LCG5GV8","3P7RGTLO6EZ76AO3386R8ZK9IWWKAW","","112","img/food2.png","76","114","3","1","3","1","1,0.5,0,1,0.5,0,0.5,0,1","1,0.5,0,1,0.5,0,0.5,0,1","1","",""
"","html-keyboard-response","173","47041","0.0-173.0","3TU5ZICBRENHK9RDAHBCXDMBZVNQ8C","A2AP9F2LCG5GV8","3P7RGTLO6EZ76AO3386R8ZK9IWWKAW","","null","<img src=""img/food2.png"" style=""width:200px; border:14px solid green;"">","null","","","","","","","","","",""
"","image-keyboard-response","174","47082","0.0-174.0","3TU5ZICBRENHK9RDAHBCXDMBZVNQ8C","A2AP9F2LCG5GV8","3P7RGTLO6EZ76AO3386R8ZK9IWWKAW","","40","img/food5.png","74","42","1","1","2","1","1,0.5,0,1,0.5,0,0.5,0,1","1,0.5,0,1,0.5,0,0.5,0,1","1","",""
"","html-keyboard-response","175","47386","0.0-175.0","3TU5ZICBRENHK9RDAHBCXDMBZVNQ8C","A2AP9F2LCG5GV8","3P7RGTLO6EZ76AO3386R8ZK9IWWKAW","","null","<img src=""img/food5.png"" style=""width:200px; border:14px solid green;"">","null","","","","","","","","","",""
"","image-keyboard-response","176","47540","0.0-176.0","3TU5ZICBRENHK9RDAHBCXDMBZVNQ8C","A2AP9F2LCG5GV8","3P7RGTLO6EZ76AO3386R8ZK9IWWKAW","","150","img/food6.png","75","154","2","1","1","1","1,0.5,0,1,0.5,0,0.5,0,1","1,0.5,0,1,0.5,0,0.5,0,1","1","",""
"","html-keyboard-response","177","47841","0.0-177.0","3TU5ZICBRENHK9RDAHBCXDMBZVNQ8C","A2AP9F2LCG5GV8","3P7RGTLO6EZ76AO3386R8ZK9IWWKAW","","null","<img src=""img/food6.png"" style=""width:200px; border:14px solid green;"">","null","","","","","","","","","",""
"","image-keyboard-response","178","47871","0.0-178.0","3TU5ZICBRENHK9RDAHBCXDMBZVNQ8C","A2AP9F2LCG5GV8","3P7RGTLO6EZ76AO3386R8ZK9IWWKAW","","28","img/food2.png","75","29","2","0","3","1","1,0.5,0,1,0.5,0,0.5,0,1","1,0.5,0,1,0.5,0,0.5,0,1","1","",""
"","html-keyboard-response","179","48173","0.0-179.0","3TU5ZICBRENHK9RDAHBCXDMBZVNQ8C","A2AP9F2LCG5GV8","3P7RGTLO6EZ76AO3386R8ZK9IWWKAW","","null","<img src=""img/food2.png"" style=""width:200px;border:14px solid red;"">","null","","","","","","","","","",""
"","image-keyboard-response","180","48355","0.0-180.0","3TU5ZICBRENHK9RDAHBCXDMBZVNQ8C","A2AP9F2LCG5GV8","3P7RGTLO6EZ76AO3386R8ZK9IWWKAW","","181","img/food2.png","76","182","3","1","3","1","1,0.5,0,1,0.5,0,0.5,0,1","1,0.5,0,1,0.5,0,0.5,0,1","1","",""
"","html-keyboard-response","181","48661","0.0-181.0","3TU5ZICBRENHK9RDAHBCXDMBZVNQ8C","A2AP9F2LCG5GV8","3P7RGTLO6EZ76AO3386R8ZK9IWWKAW","","null","<img src=""img/food2.png"" style=""width:200px; border:14px solid green;"">","null","","","","","","","","","",""
"","html-keyboard-response","182","51241","0.0-182.0","3TU5ZICBRENHK9RDAHBCXDMBZVNQ8C","A2AP9F2LCG5GV8","3P7RGTLO6EZ76AO3386R8ZK9IWWKAW","","","","","","","","","","","","","",""
"","instructions","183","56281","0.0-183.0","3TU5ZICBRENHK9RDAHBCXDMBZVNQ8C","A2AP9F2LCG5GV8","3P7RGTLO6EZ76AO3386R8ZK9IWWKAW","[{""page_index"":0,""viewing_time"":2757},{""page_index"":1,""viewing_time"":2281}]","5039","","","","","","","","","","","",""
"","image-keyboard-response","184","56922","0.0-184.0","3TU5ZICBRENHK9RDAHBCXDMBZVNQ8C","A2AP9F2LCG5GV8","3P7RGTLO6EZ76AO3386R8ZK9IWWKAW","","639","img/food4.png","76","641","3","1","3","2","1,0.5,0,1,0.5,0,0.5,0,1","0.5,0,1,0.5,0,1,0,1,0.5","2","false",""
"","html-keyboard-response","185","57225","0.0-185.0","3TU5ZICBRENHK9RDAHBCXDMBZVNQ8C","A2AP9F2LCG5GV8","3P7RGTLO6EZ76AO3386R8ZK9IWWKAW","","null","<img src=""img/food4.png"" style=""width:200px; border:14px solid green;"">","null","","","","","","","","","",""
"","image-keyboard-response","186","57395","0.0-187.0","3TU5ZICBRENHK9RDAHBCXDMBZVNQ8C","A2AP9F2LCG5GV8","3P7RGTLO6EZ76AO3386R8ZK9IWWKAW","","166","img/food1.png","74","169","1","0","2","2","1,0.5,0,1,0.5,0,0.5,0,1","0.5,0,1,0.5,0,1,0,1,0.5","2","false",""
"","html-keyboard-response","187","57698","0.0-188.0","3TU5ZICBRENHK9RDAHBCXDMBZVNQ8C","A2AP9F2LCG5GV8","3P7RGTLO6EZ76AO3386R8ZK9IWWKAW","","null","<img src=""img/food1.png"" style=""width:200px;border:14px solid red;"">","null","","","","","","","","","",""
"","image-keyboard-response","188","57724","0.0-190.0","3TU5ZICBRENHK9RDAHBCXDMBZVNQ8C","A2AP9F2LCG5GV8","3P7RGTLO6EZ76AO3386R8ZK9IWWKAW","","23","img/food4.png","75","25","2","1","3","2","1,0.5,0,1,0.5,0,0.5,0,1","0.5,0,1,0.5,0,1,0,1,0.5","2","false",""
"","html-keyboard-response","189","58026","0.0-191.0","3TU5ZICBRENHK9RDAHBCXDMBZVNQ8C","A2AP9F2LCG5GV8","3P7RGTLO6EZ76AO3386R8ZK9IWWKAW","","null","<img src=""img/food4.png"" style=""width:200px; border:14px solid green;"">","null","","","","","","","","","",""
"","image-keyboard-response","190","58099","0.0-193.0","3TU5ZICBRENHK9RDAHBCXDMBZVNQ8C","A2AP9F2LCG5GV8","3P7RGTLO6EZ76AO3386R8ZK9IWWKAW","","70","img/food1.png","76","72","3","1","2","2","1,0.5,0,1,0.5,0,0.5,0,1","0.5,0,1,0.5,0,1,0,1,0.5","2","false",""
"","html-keyboard-response","191","58402","0.0-194.0","3TU5ZICBRENHK9RDAHBCXDMBZVNQ8C","A2AP9F2LCG5GV8","3P7RGTLO6EZ76AO3386R8ZK9IWWKAW","","null","<img src=""img/food1.png"" style=""width:200px; border:14px solid green;"">","null","","","","","","","","","",""
"","image-keyboard-response","192","58479","0.0-196.0","3TU5ZICBRENHK9RDAHBCXDMBZVNQ8C","A2AP9F2LCG5GV8","3P7RGTLO6EZ76AO3386R8ZK9IWWKAW","","74","img/food4.png","75","76","2","1","3","2","1,0.5,0,1,0.5,0,0.5,0,1","0.5,0,1,0.5,0,1,0,1,0.5","2","false",""
"","html-keyboard-response","193","58782","0.0-197.0","3TU5ZICBRENHK9RDAHBCXDMBZVNQ8C","A2AP9F2LCG5GV8","3P7RGTLO6EZ76AO3386R8ZK9IWWKAW","","null","<img src=""img/food4.png"" style=""width:200px; border:14px solid green;"">","null","","","","","","","","","",""
"","image-keyboard-response","194","58860","0.0-199.0","3TU5ZICBRENHK9RDAHBCXDMBZVNQ8C","A2AP9F2LCG5GV8","3P7RGTLO6EZ76AO3386R8ZK9IWWKAW","","75","img/food3.png","74","77","1","0","1","2","1,0.5,0,1,0.5,0,0.5,0,1","0.5,0,1,0.5,0,1,0,1,0.5","2","false",""
"","html-keyboard-response","195","59163","0.0-200.0","3TU5ZICBRENHK9RDAHBCXDMBZVNQ8C","A2AP9F2LCG5GV8","3P7RGTLO6EZ76AO3386R8ZK9IWWKAW","","null","<img src=""img/food3.png"" style=""width:200px;border:14px solid red;"">","null","","","","","","","","","",""
"","image-keyboard-response","196","59218","0.0-202.0","3TU5ZICBRENHK9RDAHBCXDMBZVNQ8C","A2AP9F2LCG5GV8","3P7RGTLO6EZ76AO3386R8ZK9IWWKAW","","53","img/food1.png","75","55","2","0","2","2","1,0.5,0,1,0.5,0,0.5,0,1","0.5,0,1,0.5,0,1,0,1,0.5","2","false",""
"","html-keyboard-response","197","59520","0.0-203.0","3TU5ZICBRENHK9RDAHBCXDMBZVNQ8C","A2AP9F2LCG5GV8","3P7RGTLO6EZ76AO3386R8ZK9IWWKAW","","null","<img src=""img/food1.png"" style=""width:200px;border:14px solid red;"">","null","","","","","","","","","",""
"","image-keyboard-response","198","59594","0.0-205.0","3TU5ZICBRENHK9RDAHBCXDMBZVNQ8C","A2AP9F2LCG5GV8","3P7RGTLO6EZ76AO3386R8ZK9IWWKAW","","72","img/food3.png","74","73","1","1","1","2","1,0.5,0,1,0.5,0,0.5,0,1","0.5,0,1,0.5,0,1,0,1,0.5","2","false",""
"","html-keyboard-response","199","59897","0.0-206.0","3TU5ZICBRENHK9RDAHBCXDMBZVNQ8C","A2AP9F2LCG5GV8","3P7RGTLO6EZ76AO3386R8ZK9IWWKAW","","null","<img src=""img/food3.png"" style=""width:200px; border:14px solid green;"">","null","","","","","","","","","",""
"","image-keyboard-response","200","59922","0.0-208.0","3TU5ZICBRENHK9RDAHBCXDMBZVNQ8C","A2AP9F2LCG5GV8","3P7RGTLO6EZ76AO3386R8ZK9IWWKAW","","22","img/food3.png","76","24","3","1","1","2","1,0.5,0,1,0.5,0,0.5,0,1","0.5,0,1,0.5,0,1,0,1,0.5","2","false",""
"","html-keyboard-response","201","60224","0.0-209.0","3TU5ZICBRENHK9RDAHBCXDMBZVNQ8C","A2AP9F2LCG5GV8","3P7RGTLO6EZ76AO3386R8ZK9IWWKAW","","null","<img src=""img/food3.png"" style=""width:200px; border:14px solid green;"">","null","","","","","","","","","",""
"","image-keyboard-response","202","60290","0.0-211.0","3TU5ZICBRENHK9RDAHBCXDMBZVNQ8C","A2AP9F2LCG5GV8","3P7RGTLO6EZ76AO3386R8ZK9IWWKAW","","65","img/food1.png","74","65","1","0","2","2","1,0.5,0,1,0.5,0,0.5,0,1","0.5,0,1,0.5,0,1,0,1,0.5","2","false",""
"","html-keyboard-response","203","60592","0.0-212.0","3TU5ZICBRENHK9RDAHBCXDMBZVNQ8C","A2AP9F2LCG5GV8","3P7RGTLO6EZ76AO3386R8ZK9IWWKAW","","null","<img src=""img/food1.png"" style=""width:200px;border:14px solid red;"">","null","","","","","","","","","",""
"","image-keyboard-response","204","60625","0.0-214.0","3TU5ZICBRENHK9RDAHBCXDMBZVNQ8C","A2AP9F2LCG5GV8","3P7RGTLO6EZ76AO3386R8ZK9IWWKAW","","32","img/food3.png","75","33","2","0","1","2","1,0.5,0,1,0.5,0,0.5,0,1","0.5,0,1,0.5,0,1,0,1,0.5","2","false",""
"","html-keyboard-response","205","60927","0.0-215.0","3TU5ZICBRENHK9RDAHBCXDMBZVNQ8C","A2AP9F2LCG5GV8","3P7RGTLO6EZ76AO3386R8ZK9IWWKAW","","null","<img src=""img/food3.png"" style=""width:200px;border:14px solid red;"">","null","","","","","","","","","",""
"","image-keyboard-response","206","61051","0.0-217.0","3TU5ZICBRENHK9RDAHBCXDMBZVNQ8C","A2AP9F2LCG5GV8","3P7RGTLO6EZ76AO3386R8ZK9IWWKAW","","122","img/food4.png","74","123","1","0","3","2","1,0.5,0,1,0.5,0,0.5,0,1","0.5,0,1,0.5,0,1,0,1,0.5","2","false",""
"","html-keyboard-response","207","61356","0.0-218.0","3TU5ZICBRENHK9RDAHBCXDMBZVNQ8C","A2AP9F2LCG5GV8","3P7RGTLO6EZ76AO3386R8ZK9IWWKAW","","null","<img src=""img/food4.png"" style=""width:200px;border:14px solid red;"">","null","","","","","","","","","",""
"","image-keyboard-response","208","61491","0.0-220.0","3TU5ZICBRENHK9RDAHBCXDMBZVNQ8C","A2AP9F2LCG5GV8","3P7RGTLO6EZ76AO3386R8ZK9IWWKAW","","132","img/food1.png","75","133","2","0","2","2","1,0.5,0,1,0.5,0,0.5,0,1","0.5,0,1,0.5,0,1,0,1,0.5","2","false",""
"","html-keyboard-response","209","61791","0.0-221.0","3TU5ZICBRENHK9RDAHBCXDMBZVNQ8C","A2AP9F2LCG5GV8","3P7RGTLO6EZ76AO3386R8ZK9IWWKAW","","null","<img src=""img/food1.png"" style=""width:200px;border:14px solid red;"">","null","","","","","","","","","",""
"","image-keyboard-response","210","61938","0.0-223.0","3TU5ZICBRENHK9RDAHBCXDMBZVNQ8C","A2AP9F2LCG5GV8","3P7RGTLO6EZ76AO3386R8ZK9IWWKAW","","146","img/food3.png","76","148","3","1","1","2","1,0.5,0,1,0.5,0,0.5,0,1","0.5,0,1,0.5,0,1,0,1,0.5","2","false",""
"","html-keyboard-response","211","62241","0.0-224.0","3TU5ZICBRENHK9RDAHBCXDMBZVNQ8C","A2AP9F2LCG5GV8","3P7RGTLO6EZ76AO3386R8ZK9IWWKAW","","null","<img src=""img/food3.png"" style=""width:200px; border:14px solid green;"">","null","","","","","","","","","",""
"","image-keyboard-response","212","62266","0.0-226.0","3TU5ZICBRENHK9RDAHBCXDMBZVNQ8C","A2AP9F2LCG5GV8","3P7RGTLO6EZ76AO3386R8ZK9IWWKAW","","24","img/food3.png","74","25","1","1","1","2","1,0.5,0,1,0.5,0,0.5,0,1","0.5,0,1,0.5,0,1,0,1,0.5","2","false",""
"","html-keyboard-response","213","62567","0.0-227.0","3TU5ZICBRENHK9RDAHBCXDMBZVNQ8C","A2AP9F2LCG5GV8","3P7RGTLO6EZ76AO3386R8ZK9IWWKAW","","null","<img src=""img/food3.png"" style=""width:200px; border:14px solid green;"">","null","","","","","","","","","",""
"","image-keyboard-response","214","62625","0.0-229.0","3TU5ZICBRENHK9RDAHBCXDMBZVNQ8C","A2AP9F2LCG5GV8","3P7RGTLO6EZ76AO3386R8ZK9IWWKAW","","56","img/food3.png","75","57","2","0","1","2","1,0.5,0,1,0.5,0,0.5,0,1","0.5,0,1,0.5,0,1,0,1,0.5","2","false",""
"","html-keyboard-response","215","62928","0.0-230.0","3TU5ZICBRENHK9RDAHBCXDMBZVNQ8C","A2AP9F2LCG5GV8","3P7RGTLO6EZ76AO3386R8ZK9IWWKAW","","null","<img src=""img/food3.png"" style=""width:200px;border:14px solid red;"">","null","","","","","","","","","",""
"","image-keyboard-response","216","63018","0.0-232.0","3TU5ZICBRENHK9RDAHBCXDMBZVNQ8C","A2AP9F2LCG5GV8","3P7RGTLO6EZ76AO3386R8ZK9IWWKAW","","85","img/food4.png","74","88","1","0","3","2","1,0.5,0,1,0.5,0,0.5,0,1","0.5,0,1,0.5,0,1,0,1,0.5","2","false",""
"","html-keyboard-response","217","63321","0.0-233.0","3TU5ZICBRENHK9RDAHBCXDMBZVNQ8C","A2AP9F2LCG5GV8","3P7RGTLO6EZ76AO3386R8ZK9IWWKAW","","null","<img src=""img/food4.png"" style=""width:200px;border:14px solid red;"">","null","","","","","","","","","",""
"","image-keyboard-response","218","63340","0.0-235.0","3TU5ZICBRENHK9RDAHBCXDMBZVNQ8C","A2AP9F2LCG5GV8","3P7RGTLO6EZ76AO3386R8ZK9IWWKAW","","17","img/food4.png","76","19","3","1","3","2","1,0.5,0,1,0.5,0,0.5,0,1","0.5,0,1,0.5,0,1,0,1,0.5","2","false",""
"","html-keyboard-response","219","63643","0.0-236.0","3TU5ZICBRENHK9RDAHBCXDMBZVNQ8C","A2AP9F2LCG5GV8","3P7RGTLO6EZ76AO3386R8ZK9IWWKAW","","null","<img src=""img/food4.png"" style=""width:200px; border:14px solid green;"">","null","","","","","","","","","",""
"","image-keyboard-response","220","63787","0.0-238.0","3TU5ZICBRENHK9RDAHBCXDMBZVNQ8C","A2AP9F2LCG5GV8","3P7RGTLO6EZ76AO3386R8ZK9IWWKAW","","142","img/food1.png","74","143","1","0","2","2","1,0.5,0,1,0.5,0,0.5,0,1","0.5,0,1,0.5,0,1,0,1,0.5","2","false",""
"","html-keyboard-response","221","64089","0.0-239.0","3TU5ZICBRENHK9RDAHBCXDMBZVNQ8C","A2AP9F2LCG5GV8","3P7RGTLO6EZ76AO3386R8ZK9IWWKAW","","null","<img src=""img/food1.png"" style=""width:200px;border:14px solid red;"">","null","","","","","","","","","",""
"","image-keyboard-response","222","64099","0.0-241.0","3TU5ZICBRENHK9RDAHBCXDMBZVNQ8C","A2AP9F2LCG5GV8","3P7RGTLO6EZ76AO3386R8ZK9IWWKAW","","9","img/food3.png","75","9","2","0","1","2","1,0.5,0,1,0.5,0,0.5,0,1","0.5,0,1,0.5,0,1,0,1,0.5","2","false",""
"","html-keyboard-response","223","64401","0.0-242.0","3TU5ZICBRENHK9RDAHBCXDMBZVNQ8C","A2AP9F2LCG5GV8","3P7RGTLO6EZ76AO3386R8ZK9IWWKAW","","null","<img src=""img/food3.png"" style=""width:200px;border:14px solid red;"">","null","","","","","","","","","",""
"","image-keyboard-response","224","64498","0.0-244.0","3TU5ZICBRENHK9RDAHBCXDMBZVNQ8C","A2AP9F2LCG5GV8","3P7RGTLO6EZ76AO3386R8ZK9IWWKAW","","94","img/food3.png","74","95","1","0","1","2","1,0.5,0,1,0.5,0,0.5,0,1","0.5,0,1,0.5,0,1,0,1,0.5","2","false",""
"","html-keyboard-response","225","64801","0.0-245.0","3TU5ZICBRENHK9RDAHBCXDMBZVNQ8C","A2AP9F2LCG5GV8","3P7RGTLO6EZ76AO3386R8ZK9IWWKAW","","null","<img src=""img/food3.png"" style=""width:200px;border:14px solid red;"">","null","","","","","","","","","",""
"","image-keyboard-response","226","64827","0.0-247.0","3TU5ZICBRENHK9RDAHBCXDMBZVNQ8C","A2AP9F2LCG5GV8","3P7RGTLO6EZ76AO3386R8ZK9IWWKAW","","24","img/food3.png","76","25","3","1","1","2","1,0.5,0,1,0.5,0,0.5,0,1","0.5,0,1,0.5,0,1,0,1,0.5","2","false",""
"","html-keyboard-response","227","65130","0.0-248.0","3TU5ZICBRENHK9RDAHBCXDMBZVNQ8C","A2AP9F2LCG5GV8","3P7RGTLO6EZ76AO3386R8ZK9IWWKAW","","null","<img src=""img/food3.png"" style=""width:200px; border:14px solid green;"">","null","","","","","","","","","",""
"","image-keyboard-response","228","65235","0.0-250.0","3TU5ZICBRENHK9RDAHBCXDMBZVNQ8C","A2AP9F2LCG5GV8","3P7RGTLO6EZ76AO3386R8ZK9IWWKAW","","103","img/food1.png","74","105","1","1","2","2","1,0.5,0,1,0.5,0,0.5,0,1","0.5,0,1,0.5,0,1,0,1,0.5","2","false",""
"","html-keyboard-response","229","65537","0.0-251.0","3TU5ZICBRENHK9RDAHBCXDMBZVNQ8C","A2AP9F2LCG5GV8","3P7RGTLO6EZ76AO3386R8ZK9IWWKAW","","null","<img src=""img/food1.png"" style=""width:200px; border:14px solid green;"">","null","","","","","","","","","",""
"","image-keyboard-response","230","65611","0.0-253.0","3TU5ZICBRENHK9RDAHBCXDMBZVNQ8C","A2AP9F2LCG5GV8","3P7RGTLO6EZ76AO3386R8ZK9IWWKAW","","73","img/food4.png","75","74","2","1","3","2","1,0.5,0,1,0.5,0,0.5,0,1","0.5,0,1,0.5,0,1,0,1,0.5","2","false",""
"","html-keyboard-response","231","65912","0.0-254.0","3TU5ZICBRENHK9RDAHBCXDMBZVNQ8C","A2AP9F2LCG5GV8","3P7RGTLO6EZ76AO3386R8ZK9IWWKAW","","null","<img src=""img/food4.png"" style=""width:200px; border:14px solid green;"">","null","","","","","","","","","",""
"","image-keyboard-response","232","66035","0.0-256.0","3TU5ZICBRENHK9RDAHBCXDMBZVNQ8C","A2AP9F2LCG5GV8","3P7RGTLO6EZ76AO3386R8ZK9IWWKAW","","121","img/food4.png","74","123","1","0","3","2","1,0.5,0,1,0.5,0,0.5,0,1","0.5,0,1,0.5,0,1,0,1,0.5","2","false",""
"","html-keyboard-response","233","66338","0.0-257.0","3TU5ZICBRENHK9RDAHBCXDMBZVNQ8C","A2AP9F2LCG5GV8","3P7RGTLO6EZ76AO3386R8ZK9IWWKAW","","null","<img src=""img/food4.png"" style=""width:200px;border:14px solid red;"">","null","","","","","","","","","",""
"","image-keyboard-response","234","66394","0.0-259.0","3TU5ZICBRENHK9RDAHBCXDMBZVNQ8C","A2AP9F2LCG5GV8","3P7RGTLO6EZ76AO3386R8ZK9IWWKAW","","54","img/food3.png","76","57","3","1","1","2","1,0.5,0,1,0.5,0,0.5,0,1","0.5,0,1,0.5,0,1,0,1,0.5","2","false",""
"","html-keyboard-response","235","66699","0.0-260.0","3TU5ZICBRENHK9RDAHBCXDMBZVNQ8C","A2AP9F2LCG5GV8","3P7RGTLO6EZ76AO3386R8ZK9IWWKAW","","null","<img src=""img/food3.png"" style=""width:200px; border:14px solid green;"">","null","","","","","","","","","",""
"","image-keyboard-response","236","66708","0.0-262.0","3TU5ZICBRENHK9RDAHBCXDMBZVNQ8C","A2AP9F2LCG5GV8","3P7RGTLO6EZ76AO3386R8ZK9IWWKAW","","8","img/food3.png","76","8","3","1","1","2","1,0.5,0,1,0.5,0,0.5,0,1","0.5,0,1,0.5,0,1,0,1,0.5","2","false",""
"","html-keyboard-response","237","67009","0.0-263.0","3TU5ZICBRENHK9RDAHBCXDMBZVNQ8C","A2AP9F2LCG5GV8","3P7RGTLO6EZ76AO3386R8ZK9IWWKAW","","null","<img src=""img/food3.png"" style=""width:200px; border:14px solid green;"">","null","","","","","","","","","",""
"","image-keyboard-response","238","67020","0.0-265.0","3TU5ZICBRENHK9RDAHBCXDMBZVNQ8C","A2AP9F2LCG5GV8","3P7RGTLO6EZ76AO3386R8ZK9IWWKAW","","9","img/food3.png","76","11","3","1","1","2","1,0.5,0,1,0.5,0,0.5,0,1","0.5,0,1,0.5,0,1,0,1,0.5","2","false",""
"","html-keyboard-response","239","67323","0.0-266.0","3TU5ZICBRENHK9RDAHBCXDMBZVNQ8C","A2AP9F2LCG5GV8","3P7RGTLO6EZ76AO3386R8ZK9IWWKAW","","null","<img src=""img/food3.png"" style=""width:200px; border:14px solid green;"">","null","","","","","","","","","",""
"","image-keyboard-response","240","67346","0.0-268.0","3TU5ZICBRENHK9RDAHBCXDMBZVNQ8C","A2AP9F2LCG5GV8","3P7RGTLO6EZ76AO3386R8ZK9IWWKAW","","21","img/food1.png","74","22","1","0","2","2","1,0.5,0,1,0.5,0,0.5,0,1","0.5,0,1,0.5,0,1,0,1,0.5","2","false",""
"","html-keyboard-response","241","67648","0.0-269.0","3TU5ZICBRENHK9RDAHBCXDMBZVNQ8C","A2AP9F2LCG5GV8","3P7RGTLO6EZ76AO3386R8ZK9IWWKAW","","null","<img src=""img/food1.png"" style=""width:200px;border:14px solid red;"">","null","","","","","","","","","",""
"","image-keyboard-response","242","67723","0.0-271.0","3TU5ZICBRENHK9RDAHBCXDMBZVNQ8C","A2AP9F2LCG5GV8","3P7RGTLO6EZ76AO3386R8ZK9IWWKAW","","74","img/food1.png","75","74","2","0","2","2","1,0.5,0,1,0.5,0,0.5,0,1","0.5,0,1,0.5,0,1,0,1,0.5","2","false",""
"","html-keyboard-response","243","68025","0.0-272.0","3TU5ZICBRENHK9RDAHBCXDMBZVNQ8C","A2AP9F2LCG5GV8","3P7RGTLO6EZ76AO3386R8ZK9IWWKAW","","null","<img src=""img/food1.png"" style=""width:200px;border:14px solid red;"">","null","","","","","","","","","",""
"","image-keyboard-response","244","68155","0.0-274.0","3TU5ZICBRENHK9RDAHBCXDMBZVNQ8C","A2AP9F2LCG5GV8","3P7RGTLO6EZ76AO3386R8ZK9IWWKAW","","129","img/food3.png","74","130","1","0","1","2","1,0.5,0,1,0.5,0,0.5,0,1","0.5,0,1,0.5,0,1,0,1,0.5","2","false",""
"","html-keyboard-response","245","68457","0.0-275.0","3TU5ZICBRENHK9RDAHBCXDMBZVNQ8C","A2AP9F2LCG5GV8","3P7RGTLO6EZ76AO3386R8ZK9IWWKAW","","null","<img src=""img/food3.png"" style=""width:200px;border:14px solid red;"">","null","","","","","","","","","",""
"","image-keyboard-response","246","68499","0.0-277.0","3TU5ZICBRENHK9RDAHBCXDMBZVNQ8C","A2AP9F2LCG5GV8","3P7RGTLO6EZ76AO3386R8ZK9IWWKAW","","40","img/food1.png","76","42","3","1","2","2","1,0.5,0,1,0.5,0,0.5,0,1","0.5,0,1,0.5,0,1,0,1,0.5","2","false",""
"","html-keyboard-response","247","68802","0.0-278.0","3TU5ZICBRENHK9RDAHBCXDMBZVNQ8C","A2AP9F2LCG5GV8","3P7RGTLO6EZ76AO3386R8ZK9IWWKAW","","null","<img src=""img/food1.png"" style=""width:200px; border:14px solid green;"">","null","","","","","","","","","",""
"","image-keyboard-response","248","68812","0.0-280.0","3TU5ZICBRENHK9RDAHBCXDMBZVNQ8C","A2AP9F2LCG5GV8","3P7RGTLO6EZ76AO3386R8ZK9IWWKAW","","9","img/food3.png","76","9","3","1","1","2","1,0.5,0,1,0.5,0,0.5,0,1","0.5,0,1,0.5,0,1,0,1,0.5","2","false",""
"","html-keyboard-response","249","69117","0.0-281.0","3TU5ZICBRENHK9RDAHBCXDMBZVNQ8C","A2AP9F2LCG5GV8","3P7RGTLO6EZ76AO3386R8ZK9IWWKAW","","null","<img src=""img/food3.png"" style=""width:200px; border:14px solid green;"">","null","","","","","","","","","",""
"","image-keyboard-response","250","69155","0.0-283.0","3TU5ZICBRENHK9RDAHBCXDMBZVNQ8C","A2AP9F2LCG5GV8","3P7RGTLO6EZ76AO3386R8ZK9IWWKAW","","36","img/food4.png","74","37","1","0","3","2","1,0.5,0,1,0.5,0,0.5,0,1","0.5,0,1,0.5,0,1,0,1,0.5","2","false",""
"","html-keyboard-response","251","69458","0.0-284.0","3TU5ZICBRENHK9RDAHBCXDMBZVNQ8C","A2AP9F2LCG5GV8","3P7RGTLO6EZ76AO3386R8ZK9IWWKAW","","null","<img src=""img/food4.png"" style=""width:200px;border:14px solid red;"">","null","","","","","","","","","",""
"","image-keyboard-response","252","69541","0.0-286.0","3TU5ZICBRENHK9RDAHBCXDMBZVNQ8C","A2AP9F2LCG5GV8","3P7RGTLO6EZ76AO3386R8ZK9IWWKAW","","83","img/food3.png","75","83","2","0","1","2","1,0.5,0,1,0.5,0,0.5,0,1","0.5,0,1,0.5,0,1,0,1,0.5","2","false",""
"","html-keyboard-response","253","69843","0.0-287.0","3TU5ZICBRENHK9RDAHBCXDMBZVNQ8C","A2AP9F2LCG5GV8","3P7RGTLO6EZ76AO3386R8ZK9IWWKAW","","null","<img src=""img/food3.png"" style=""width:200px;border:14px solid red;"">","null","","","","","","","","","",""
"","image-keyboard-response","254","69922","0.0-289.0","3TU5ZICBRENHK9RDAHBCXDMBZVNQ8C","A2AP9F2LCG5GV8","3P7RGTLO6EZ76AO3386R8ZK9IWWKAW","","77","img/food1.png","74","78","1","0","2","2","1,0.5,0,1,0.5,0,0.5,0,1","0.5,0,1,0.5,0,1,0,1,0.5","2","false",""
"","html-keyboard-response","255","70225","0.0-290.0","3TU5ZICBRENHK9RDAHBCXDMBZVNQ8C","A2AP9F2LCG5GV8","3P7RGTLO6EZ76AO3386R8ZK9IWWKAW","","null","<img src=""img/food1.png"" style=""width:200px;border:14px solid red;"">","null","","","","","","","","","",""
"","image-keyboard-response","256","70298","0.0-292.0","3TU5ZICBRENHK9RDAHBCXDMBZVNQ8C","A2AP9F2LCG5GV8","3P7RGTLO6EZ76AO3386R8ZK9IWWKAW","","71","img/food4.png","76","72","3","0","3","2","1,0.5,0,1,0.5,0,0.5,0,1","0.5,0,1,0.5,0,1,0,1,0.5","2","false",""
"","html-keyboard-response","257","70600","0.0-293.0","3TU5ZICBRENHK9RDAHBCXDMBZVNQ8C","A2AP9F2LCG5GV8","3P7RGTLO6EZ76AO3386R8ZK9IWWKAW","","null","<img src=""img/food4.png"" style=""width:200px;border:14px solid red;"">","null","","","","","","","","","",""
"","image-keyboard-response","258","70634","0.0-295.0","3TU5ZICBRENHK9RDAHBCXDMBZVNQ8C","A2AP9F2LCG5GV8","3P7RGTLO6EZ76AO3386R8ZK9IWWKAW","","32","img/food4.png","74","33","1","0","3","2","1,0.5,0,1,0.5,0,0.5,0,1","0.5,0,1,0.5,0,1,0,1,0.5","2","false",""
"","html-keyboard-response","259","70936","0.0-296.0","3TU5ZICBRENHK9RDAHBCXDMBZVNQ8C","A2AP9F2LCG5GV8","3P7RGTLO6EZ76AO3386R8ZK9IWWKAW","","null","<img src=""img/food4.png"" style=""width:200px;border:14px solid red;"">","null","","","","","","","","","",""
"","image-keyboard-response","260","71035","0.0-298.0","3TU5ZICBRENHK9RDAHBCXDMBZVNQ8C","A2AP9F2LCG5GV8","3P7RGTLO6EZ76AO3386R8ZK9IWWKAW","","97","img/food1.png","75","98","2","0","2","2","1,0.5,0,1,0.5,0,0.5,0,1","0.5,0,1,0.5,0,1,0,1,0.5","2","false",""
"","html-keyboard-response","261","71338","0.0-299.0","3TU5ZICBRENHK9RDAHBCXDMBZVNQ8C","A2AP9F2LCG5GV8","3P7RGTLO6EZ76AO3386R8ZK9IWWKAW","","null","<img src=""img/food1.png"" style=""width:200px;border:14px solid red;"">","null","","","","","","","","","",""
"","image-keyboard-response","262","71516","0.0-301.0","3TU5ZICBRENHK9RDAHBCXDMBZVNQ8C","A2AP9F2LCG5GV8","3P7RGTLO6EZ76AO3386R8ZK9IWWKAW","","175","img/food3.png","76","177","3","1","1","2","1,0.5,0,1,0.5,0,0.5,0,1","0.5,0,1,0.5,0,1,0,1,0.5","2","false",""
"","html-keyboard-response","263","71820","0.0-302.0","3TU5ZICBRENHK9RDAHBCXDMBZVNQ8C","A2AP9F2LCG5GV8","3P7RGTLO6EZ76AO3386R8ZK9IWWKAW","","null","<img src=""img/food3.png"" style=""width:200px; border:14px solid green;"">","null","","","","","","","","","",""
"","image-keyboard-response","264","71842","0.0-304.0","3TU5ZICBRENHK9RDAHBCXDMBZVNQ8C","A2AP9F2LCG5GV8","3P7RGTLO6EZ76AO3386R8ZK9IWWKAW","","20","img/food3.png","74","22","1","0","1","2","1,0.5,0,1,0.5,0,0.5,0,1","0.5,0,1,0.5,0,1,0,1,0.5","2","false",""
"","html-keyboard-response","265","72144","0.0-305.0","3TU5ZICBRENHK9RDAHBCXDMBZVNQ8C","A2AP9F2LCG5GV8","3P7RGTLO6EZ76AO3386R8ZK9IWWKAW","","null","<img src=""img/food3.png"" style=""width:200px;border:14px solid red;"">","null","","","","","","","","","",""
"","image-keyboard-response","266","72163","0.0-307.0","3TU5ZICBRENHK9RDAHBCXDMBZVNQ8C","A2AP9F2LCG5GV8","3P7RGTLO6EZ76AO3386R8ZK9IWWKAW","","19","img/food3.png","74","19","1","0","1","2","1,0.5,0,1,0.5,0,0.5,0,1","0.5,0,1,0.5,0,1,0,1,0.5","2","false",""
"","html-keyboard-response","267","72465","0.0-308.0","3TU5ZICBRENHK9RDAHBCXDMBZVNQ8C","A2AP9F2LCG5GV8","3P7RGTLO6EZ76AO3386R8ZK9IWWKAW","","null","<img src=""img/food3.png"" style=""width:200px;border:14px solid red;"">","null","","","","","","","","","",""
"","image-keyboard-response","268","72594","0.0-310.0","3TU5ZICBRENHK9RDAHBCXDMBZVNQ8C","A2AP9F2LCG5GV8","3P7RGTLO6EZ76AO3386R8ZK9IWWKAW","","126","img/food4.png","75","128","2","1","3","2","1,0.5,0,1,0.5,0,0.5,0,1","0.5,0,1,0.5,0,1,0,1,0.5","2","false",""
"","html-keyboard-response","269","72896","0.0-311.0","3TU5ZICBRENHK9RDAHBCXDMBZVNQ8C","A2AP9F2LCG5GV8","3P7RGTLO6EZ76AO3386R8ZK9IWWKAW","","null","<img src=""img/food4.png"" style=""width:200px; border:14px solid green;"">","null","","","","","","","","","",""
"","image-keyboard-response","270","73002","0.0-313.0","3TU5ZICBRENHK9RDAHBCXDMBZVNQ8C","A2AP9F2LCG5GV8","3P7RGTLO6EZ76AO3386R8ZK9IWWKAW","","105","img/food4.png","74","106","1","0","3","2","1,0.5,0,1,0.5,0,0.5,0,1","0.5,0,1,0.5,0,1,0,1,0.5","2","false",""
"","html-keyboard-response","271","73306","0.0-314.0","3TU5ZICBRENHK9RDAHBCXDMBZVNQ8C","A2AP9F2LCG5GV8","3P7RGTLO6EZ76AO3386R8ZK9IWWKAW","","null","<img src=""img/food4.png"" style=""width:200px;border:14px solid red;"">","null","","","","","","","","","",""
"","image-keyboard-response","272","73330","0.0-316.0","3TU5ZICBRENHK9RDAHBCXDMBZVNQ8C","A2AP9F2LCG5GV8","3P7RGTLO6EZ76AO3386R8ZK9IWWKAW","","22","img/food1.png","76","23","3","1","2","2","1,0.5,0,1,0.5,0,0.5,0,1","0.5,0,1,0.5,0,1,0,1,0.5","2","false",""
"","html-keyboard-response","273","73633","0.0-317.0","3TU5ZICBRENHK9RDAHBCXDMBZVNQ8C","A2AP9F2LCG5GV8","3P7RGTLO6EZ76AO3386R8ZK9IWWKAW","","null","<img src=""img/food1.png"" style=""width:200px; border:14px solid green;"">","null","","","","","","","","","",""
"","image-keyboard-response","274","73647","0.0-319.0","3TU5ZICBRENHK9RDAHBCXDMBZVNQ8C","A2AP9F2LCG5GV8","3P7RGTLO6EZ76AO3386R8ZK9IWWKAW","","13","img/food1.png","76","13","3","1","2","2","1,0.5,0,1,0.5,0,0.5,0,1","0.5,0,1,0.5,0,1,0,1,0.5","2","false",""
"","html-keyboard-response","275","73952","0.0-320.0","3TU5ZICBRENHK9RDAHBCXDMBZVNQ8C","A2AP9F2LCG5GV8","3P7RGTLO6EZ76AO3386R8ZK9IWWKAW","","null","<img src=""img/food1.png"" style=""width:200px; border:14px solid green;"">","null","","","","","","","","","",""
"","image-keyboard-response","276","74042","0.0-322.0","3TU5ZICBRENHK9RDAHBCXDMBZVNQ8C","A2AP9F2LCG5GV8","3P7RGTLO6EZ76AO3386R8ZK9IWWKAW","","89","img/food1.png","75","89","2","0","2","2","1,0.5,0,1,0.5,0,0.5,0,1","0.5,0,1,0.5,0,1,0,1,0.5","2","false",""
"","html-keyboard-response","277","74343","0.0-323.0","3TU5ZICBRENHK9RDAHBCXDMBZVNQ8C","A2AP9F2LCG5GV8","3P7RGTLO6EZ76AO3386R8ZK9IWWKAW","","null","<img src=""img/food1.png"" style=""width:200px;border:14px solid red;"">","null","","","","","","","","","",""
"","image-keyboard-response","278","74348","0.0-325.0","3TU5ZICBRENHK9RDAHBCXDMBZVNQ8C","A2AP9F2LCG5GV8","3P7RGTLO6EZ76AO3386R8ZK9IWWKAW","","0","img/food1.png","75","4","2","0","2","2","1,0.5,0,1,0.5,0,0.5,0,1","0.5,0,1,0.5,0,1,0,1,0.5","2","false",""
"","html-keyboard-response","279","74648","0.0-326.0","3TU5ZICBRENHK9RDAHBCXDMBZVNQ8C","A2AP9F2LCG5GV8","3P7RGTLO6EZ76AO3386R8ZK9IWWKAW","","null","<img src=""img/food1.png"" style=""width:200px;border:14px solid red;"">","null","","","","","","","","","",""
"","image-keyboard-response","280","74662","0.0-328.0","3TU5ZICBRENHK9RDAHBCXDMBZVNQ8C","A2AP9F2LCG5GV8","3P7RGTLO6EZ76AO3386R8ZK9IWWKAW","","13","img/food3.png","75","14","2","0","1","2","1,0.5,0,1,0.5,0,0.5,0,1","0.5,0,1,0.5,0,1,0,1,0.5","2","false",""
"","html-keyboard-response","281","74963","0.0-329.0","3TU5ZICBRENHK9RDAHBCXDMBZVNQ8C","A2AP9F2LCG5GV8","3P7RGTLO6EZ76AO3386R8ZK9IWWKAW","","null","<img src=""img/food3.png"" style=""width:200px;border:14px solid red;"">","null","","","","","","","","","",""
"","image-keyboard-response","282","74971","0.0-331.0","3TU5ZICBRENHK9RDAHBCXDMBZVNQ8C","A2AP9F2LCG5GV8","3P7RGTLO6EZ76AO3386R8ZK9IWWKAW","","7","img/food4.png","75","8","2","1","3","2","1,0.5,0,1,0.5,0,0.5,0,1","0.5,0,1,0.5,0,1,0,1,0.5","2","false",""
"","html-keyboard-response","283","75272","0.0-332.0","3TU5ZICBRENHK9RDAHBCXDMBZVNQ8C","A2AP9F2LCG5GV8","3P7RGTLO6EZ76AO3386R8ZK9IWWKAW","","null","<img src=""img/food4.png"" style=""width:200px; border:14px solid green;"">","null","","","","","","","","","",""
"","image-keyboard-response","284","75314","0.0-334.0","3TU5ZICBRENHK9RDAHBCXDMBZVNQ8C","A2AP9F2LCG5GV8","3P7RGTLO6EZ76AO3386R8ZK9IWWKAW","","41","img/food3.png","75","42","2","0","1","2","1,0.5,0,1,0.5,0,0.5,0,1","0.5,0,1,0.5,0,1,0,1,0.5","2","false",""
"","html-keyboard-response","285","75619","0.0-335.0","3TU5ZICBRENHK9RDAHBCXDMBZVNQ8C","A2AP9F2LCG5GV8","3P7RGTLO6EZ76AO3386R8ZK9IWWKAW","","null","<img src=""img/food3.png"" style=""width:200px;border:14px solid red;"">","null","","","","","","","","","",""
"","image-keyboard-response","286","75643","0.0-337.0","3TU5ZICBRENHK9RDAHBCXDMBZVNQ8C","A2AP9F2LCG5GV8","3P7RGTLO6EZ76AO3386R8ZK9IWWKAW","","22","img/food3.png","75","23","2","0","1","2","1,0.5,0,1,0.5,0,0.5,0,1","0.5,0,1,0.5,0,1,0,1,0.5","2","false",""
"","html-keyboard-response","287","75951","0.0-338.0","3TU5ZICBRENHK9RDAHBCXDMBZVNQ8C","A2AP9F2LCG5GV8","3P7RGTLO6EZ76AO3386R8ZK9IWWKAW","","null","<img src=""img/food3.png"" style=""width:200px;border:14px solid red;"">","null","","","","","","","","","",""
"","image-keyboard-response","288","75986","0.0-340.0","3TU5ZICBRENHK9RDAHBCXDMBZVNQ8C","A2AP9F2LCG5GV8","3P7RGTLO6EZ76AO3386R8ZK9IWWKAW","","33","img/food1.png","75","34","2","0","2","2","1,0.5,0,1,0.5,0,0.5,0,1","0.5,0,1,0.5,0,1,0,1,0.5","2","false",""
"","html-keyboard-response","289","76287","0.0-341.0","3TU5ZICBRENHK9RDAHBCXDMBZVNQ8C","A2AP9F2LCG5GV8","3P7RGTLO6EZ76AO3386R8ZK9IWWKAW","","null","<img src=""img/food1.png"" style=""width:200px;border:14px solid red;"">","null","","","","","","","","","",""
"","image-keyboard-response","290","76307","0.0-343.0","3TU5ZICBRENHK9RDAHBCXDMBZVNQ8C","A2AP9F2LCG5GV8","3P7RGTLO6EZ76AO3386R8ZK9IWWKAW","","17","img/food3.png","75","19","2","0","1","2","1,0.5,0,1,0.5,0,0.5,0,1","0.5,0,1,0.5,0,1,0,1,0.5","2","false",""
"","html-keyboard-response","291","76611","0.0-344.0","3TU5ZICBRENHK9RDAHBCXDMBZVNQ8C","A2AP9F2LCG5GV8","3P7RGTLO6EZ76AO3386R8ZK9IWWKAW","","null","<img src=""img/food3.png"" style=""width:200px;border:14px solid red;"">","null","","","","","","","","","",""
"","image-keyboard-response","292","76682","0.0-346.0","3TU5ZICBRENHK9RDAHBCXDMBZVNQ8C","A2AP9F2LCG5GV8","3P7RGTLO6EZ76AO3386R8ZK9IWWKAW","","70","img/food1.png","75","70","2","0","2","2","1,0.5,0,1,0.5,0,0.5,0,1","0.5,0,1,0.5,0,1,0,1,0.5","2","false",""
"","html-keyboard-response","293","76985","0.0-347.0","3TU5ZICBRENHK9RDAHBCXDMBZVNQ8C","A2AP9F2LCG5GV8","3P7RGTLO6EZ76AO3386R8ZK9IWWKAW","","null","<img src=""img/food1.png"" style=""width:200px;border:14px solid red;"">","null","","","","","","","","","",""
"","image-keyboard-response","294","77131","0.0-349.0","3TU5ZICBRENHK9RDAHBCXDMBZVNQ8C","A2AP9F2LCG5GV8","3P7RGTLO6EZ76AO3386R8ZK9IWWKAW","","145","img/food4.png","74","145","1","0","3","2","1,0.5,0,1,0.5,0,0.5,0,1","0.5,0,1,0.5,0,1,0,1,0.5","2","false",""
"","html-keyboard-response","295","77433","0.0-350.0","3TU5ZICBRENHK9RDAHBCXDMBZVNQ8C","A2AP9F2LCG5GV8","3P7RGTLO6EZ76AO3386R8ZK9IWWKAW","","null","<img src=""img/food4.png"" style=""width:200px;border:14px solid red;"">","null","","","","","","","","","",""
"","image-keyboard-response","296","77529","0.0-352.0","3TU5ZICBRENHK9RDAHBCXDMBZVNQ8C","A2AP9F2LCG5GV8","3P7RGTLO6EZ76AO3386R8ZK9IWWKAW","","93","img/food3.png","75","95","2","0","1","2","1,0.5,0,1,0.5,0,0.5,0,1","0.5,0,1,0.5,0,1,0,1,0.5","2","false",""
"","html-keyboard-response","297","77832","0.0-353.0","3TU5ZICBRENHK9RDAHBCXDMBZVNQ8C","A2AP9F2LCG5GV8","3P7RGTLO6EZ76AO3386R8ZK9IWWKAW","","null","<img src=""img/food3.png"" style=""width:200px;border:14px solid red;"">","null","","","","","","","","","",""
"","image-keyboard-response","298","77867","0.0-355.0","3TU5ZICBRENHK9RDAHBCXDMBZVNQ8C","A2AP9F2LCG5GV8","3P7RGTLO6EZ76AO3386R8ZK9IWWKAW","","31","img/food3.png","75","35","2","0","1","2","1,0.5,0,1,0.5,0,0.5,0,1","0.5,0,1,0.5,0,1,0,1,0.5","2","false",""
"","html-keyboard-response","299","78170","0.0-356.0","3TU5ZICBRENHK9RDAHBCXDMBZVNQ8C","A2AP9F2LCG5GV8","3P7RGTLO6EZ76AO3386R8ZK9IWWKAW","","null","<img src=""img/food3.png"" style=""width:200px;border:14px solid red;"">","null","","","","","","","","","",""
"","image-keyboard-response","300","78380","0.0-358.0","3TU5ZICBRENHK9RDAHBCXDMBZVNQ8C","A2AP9F2LCG5GV8","3P7RGTLO6EZ76AO3386R8ZK9IWWKAW","","208","img/food1.png","76","210","3","1","2","2","1,0.5,0,1,0.5,0,0.5,0,1","0.5,0,1,0.5,0,1,0,1,0.5","2","false",""
"","html-keyboard-response","301","78682","0.0-359.0","3TU5ZICBRENHK9RDAHBCXDMBZVNQ8C","A2AP9F2LCG5GV8","3P7RGTLO6EZ76AO3386R8ZK9IWWKAW","","null","<img src=""img/food1.png"" style=""width:200px; border:14px solid green;"">","null","","","","","","","","","",""
"","image-keyboard-response","302","78730","0.0-361.0","3TU5ZICBRENHK9RDAHBCXDMBZVNQ8C","A2AP9F2LCG5GV8","3P7RGTLO6EZ76AO3386R8ZK9IWWKAW","","47","img/food4.png","75","47","2","1","3","2","1,0.5,0,1,0.5,0,0.5,0,1","0.5,0,1,0.5,0,1,0,1,0.5","2","false",""
"","html-keyboard-response","303","79032","0.0-362.0","3TU5ZICBRENHK9RDAHBCXDMBZVNQ8C","A2AP9F2LCG5GV8","3P7RGTLO6EZ76AO3386R8ZK9IWWKAW","","null","<img src=""img/food4.png"" style=""width:200px; border:14px solid green;"">","null","","","","","","","","","",""
"","image-keyboard-response","304","79170","0.0-364.0","3TU5ZICBRENHK9RDAHBCXDMBZVNQ8C","A2AP9F2LCG5GV8","3P7RGTLO6EZ76AO3386R8ZK9IWWKAW","","137","img/food4.png","74","138","1","0","3","2","1,0.5,0,1,0.5,0,0.5,0,1","0.5,0,1,0.5,0,1,0,1,0.5","2","false",""
"","html-keyboard-response","305","79472","0.0-365.0","3TU5ZICBRENHK9RDAHBCXDMBZVNQ8C","A2AP9F2LCG5GV8","3P7RGTLO6EZ76AO3386R8ZK9IWWKAW","","null","<img src=""img/food4.png"" style=""width:200px;border:14px solid red;"">","null","","","","","","","","","",""
"","image-keyboard-response","306","79493","0.0-367.0","3TU5ZICBRENHK9RDAHBCXDMBZVNQ8C","A2AP9F2LCG5GV8","3P7RGTLO6EZ76AO3386R8ZK9IWWKAW","","18","img/food1.png","74","20","1","0","2","2","1,0.5,0,1,0.5,0,0.5,0,1","0.5,0,1,0.5,0,1,0,1,0.5","2","false",""
"","html-keyboard-response","307","79803","0.0-368.0","3TU5ZICBRENHK9RDAHBCXDMBZVNQ8C","A2AP9F2LCG5GV8","3P7RGTLO6EZ76AO3386R8ZK9IWWKAW","","null","<img src=""img/food1.png"" style=""width:200px;border:14px solid red;"">","null","","","","","","","","","",""
"","image-keyboard-response","308","79807","0.0-370.0","3TU5ZICBRENHK9RDAHBCXDMBZVNQ8C","A2AP9F2LCG5GV8","3P7RGTLO6EZ76AO3386R8ZK9IWWKAW","","2","img/food4.png","74","3","1","0","3","2","1,0.5,0,1,0.5,0,0.5,0,1","0.5,0,1,0.5,0,1,0,1,0.5","2","false",""
"","html-keyboard-response","309","80110","0.0-371.0","3TU5ZICBRENHK9RDAHBCXDMBZVNQ8C","A2AP9F2LCG5GV8","3P7RGTLO6EZ76AO3386R8ZK9IWWKAW","","null","<img src=""img/food4.png"" style=""width:200px;border:14px solid red;"">","null","","","","","","","","","",""
"","image-keyboard-response","310","80176","0.0-373.0","3TU5ZICBRENHK9RDAHBCXDMBZVNQ8C","A2AP9F2LCG5GV8","3P7RGTLO6EZ76AO3386R8ZK9IWWKAW","","64","img/food3.png","75","65","2","0","1","2","1,0.5,0,1,0.5,0,0.5,0,1","0.5,0,1,0.5,0,1,0,1,0.5","2","false",""
"","html-keyboard-response","311","80477","0.0-374.0","3TU5ZICBRENHK9RDAHBCXDMBZVNQ8C","A2AP9F2LCG5GV8","3P7RGTLO6EZ76AO3386R8ZK9IWWKAW","","null","<img src=""img/food3.png"" style=""width:200px;border:14px solid red;"">","null","","","","","","","","","",""
"","image-keyboard-response","312","80586","0.0-376.0","3TU5ZICBRENHK9RDAHBCXDMBZVNQ8C","A2AP9F2LCG5GV8","3P7RGTLO6EZ76AO3386R8ZK9IWWKAW","","105","img/food1.png","76","106","3","1","2","2","1,0.5,0,1,0.5,0,0.5,0,1","0.5,0,1,0.5,0,1,0,1,0.5","2","false",""
"","html-keyboard-response","313","80888","0.0-377.0","3TU5ZICBRENHK9RDAHBCXDMBZVNQ8C","A2AP9F2LCG5GV8","3P7RGTLO6EZ76AO3386R8ZK9IWWKAW","","null","<img src=""img/food1.png"" style=""width:200px; border:14px solid green;"">","null","","","","","","","","","",""
"","image-keyboard-response","314","80906","0.0-379.0","3TU5ZICBRENHK9RDAHBCXDMBZVNQ8C","A2AP9F2LCG5GV8","3P7RGTLO6EZ76AO3386R8ZK9IWWKAW","","16","img/food1.png","76","17","3","1","2","2","1,0.5,0,1,0.5,0,0.5,0,1","0.5,0,1,0.5,0,1,0,1,0.5","2","false",""
"","html-keyboard-response","315","81207","0.0-380.0","3TU5ZICBRENHK9RDAHBCXDMBZVNQ8C","A2AP9F2LCG5GV8","3P7RGTLO6EZ76AO3386R8ZK9IWWKAW","","null","<img src=""img/food1.png"" style=""width:200px; border:14px solid green;"">","null","","","","","","","","","",""
"","image-keyboard-response","316","81315","0.0-382.0","3TU5ZICBRENHK9RDAHBCXDMBZVNQ8C","A2AP9F2LCG5GV8","3P7RGTLO6EZ76AO3386R8ZK9IWWKAW","","106","img/food1.png","75","107","2","0","2","2","1,0.5,0,1,0.5,0,0.5,0,1","0.5,0,1,0.5,0,1,0,1,0.5","2","false",""
"","html-keyboard-response","317","81618","0.0-383.0","3TU5ZICBRENHK9RDAHBCXDMBZVNQ8C","A2AP9F2LCG5GV8","3P7RGTLO6EZ76AO3386R8ZK9IWWKAW","","null","<img src=""img/food1.png"" style=""width:200px;border:14px solid red;"">","null","","","","","","","","","",""
"","image-keyboard-response","318","81747","0.0-385.0","3TU5ZICBRENHK9RDAHBCXDMBZVNQ8C","A2AP9F2LCG5GV8","3P7RGTLO6EZ76AO3386R8ZK9IWWKAW","","128","img/food4.png","76","129","3","1","3","2","1,0.5,0,1,0.5,0,0.5,0,1","0.5,0,1,0.5,0,1,0,1,0.5","2","false",""
"","html-keyboard-response","319","82049","0.0-386.0","3TU5ZICBRENHK9RDAHBCXDMBZVNQ8C","A2AP9F2LCG5GV8","3P7RGTLO6EZ76AO3386R8ZK9IWWKAW","","null","<img src=""img/food4.png"" style=""width:200px; border:14px solid green;"">","null","","","","","","","","","",""
"","image-keyboard-response","320","82059","0.0-388.0","3TU5ZICBRENHK9RDAHBCXDMBZVNQ8C","A2AP9F2LCG5GV8","3P7RGTLO6EZ76AO3386R8ZK9IWWKAW","","8","img/food4.png","76","10","3","0","3","2","1,0.5,0,1,0.5,0,0.5,0,1","0.5,0,1,0.5,0,1,0,1,0.5","2","false",""
"","html-keyboard-response","321","82361","0.0-389.0","3TU5ZICBRENHK9RDAHBCXDMBZVNQ8C","A2AP9F2LCG5GV8","3P7RGTLO6EZ76AO3386R8ZK9IWWKAW","","null","<img src=""img/food4.png"" style=""width:200px;border:14px solid red;"">","null","","","","","","","","","",""
"","image-keyboard-response","322","82412","0.0-391.0","3TU5ZICBRENHK9RDAHBCXDMBZVNQ8C","A2AP9F2LCG5GV8","3P7RGTLO6EZ76AO3386R8ZK9IWWKAW","","50","img/food4.png","74","51","1","0","3","2","1,0.5,0,1,0.5,0,0.5,0,1","0.5,0,1,0.5,0,1,0,1,0.5","2","false",""
"","html-keyboard-response","323","82714","0.0-392.0","3TU5ZICBRENHK9RDAHBCXDMBZVNQ8C","A2AP9F2LCG5GV8","3P7RGTLO6EZ76AO3386R8ZK9IWWKAW","","null","<img src=""img/food4.png"" style=""width:200px;border:14px solid red;"">","null","","","","","","","","","",""
"","image-keyboard-response","324","82755","0.0-394.0","3TU5ZICBRENHK9RDAHBCXDMBZVNQ8C","A2AP9F2LCG5GV8","3P7RGTLO6EZ76AO3386R8ZK9IWWKAW","","39","img/food4.png","75","40","2","1","3","2","1,0.5,0,1,0.5,0,0.5,0,1","0.5,0,1,0.5,0,1,0,1,0.5","2","false",""
"","html-keyboard-response","325","83058","0.0-395.0","3TU5ZICBRENHK9RDAHBCXDMBZVNQ8C","A2AP9F2LCG5GV8","3P7RGTLO6EZ76AO3386R8ZK9IWWKAW","","null","<img src=""img/food4.png"" style=""width:200px; border:14px solid green;"">","null","","","","","","","","","",""
"","image-keyboard-response","326","83210","0.0-397.0","3TU5ZICBRENHK9RDAHBCXDMBZVNQ8C","A2AP9F2LCG5GV8","3P7RGTLO6EZ76AO3386R8ZK9IWWKAW","","150","img/food3.png","75","151","2","0","1","2","1,0.5,0,1,0.5,0,0.5,0,1","0.5,0,1,0.5,0,1,0,1,0.5","2","false",""
"","html-keyboard-response","327","83512","0.0-398.0","3TU5ZICBRENHK9RDAHBCXDMBZVNQ8C","A2AP9F2LCG5GV8","3P7RGTLO6EZ76AO3386R8ZK9IWWKAW","","null","<img src=""img/food3.png"" style=""width:200px;border:14px solid red;"">","null","","","","","","","","","",""
"","image-keyboard-response","328","83658","0.0-400.0","3TU5ZICBRENHK9RDAHBCXDMBZVNQ8C","A2AP9F2LCG5GV8","3P7RGTLO6EZ76AO3386R8ZK9IWWKAW","","144","img/food4.png","76","145","3","1","3","2","1,0.5,0,1,0.5,0,0.5,0,1","0.5,0,1,0.5,0,1,0,1,0.5","2","false",""
"","html-keyboard-response","329","83959","0.0-401.0","3TU5ZICBRENHK9RDAHBCXDMBZVNQ8C","A2AP9F2LCG5GV8","3P7RGTLO6EZ76AO3386R8ZK9IWWKAW","","null","<img src=""img/food4.png"" style=""width:200px; border:14px solid green;"">","null","","","","","","","","","",""
"","image-keyboard-response","330","83974","0.0-403.0","3TU5ZICBRENHK9RDAHBCXDMBZVNQ8C","A2AP9F2LCG5GV8","3P7RGTLO6EZ76AO3386R8ZK9IWWKAW","","12","img/food3.png","74","14","1","0","1","2","1,0.5,0,1,0.5,0,0.5,0,1","0.5,0,1,0.5,0,1,0,1,0.5","2","false",""
"","html-keyboard-response","331","84278","0.0-404.0","3TU5ZICBRENHK9RDAHBCXDMBZVNQ8C","A2AP9F2LCG5GV8","3P7RGTLO6EZ76AO3386R8ZK9IWWKAW","","null","<img src=""img/food3.png"" style=""width:200px;border:14px solid red;"">","null","","","","","","","","","",""
"","image-keyboard-response","332","84312","0.0-406.0","3TU5ZICBRENHK9RDAHBCXDMBZVNQ8C","A2AP9F2LCG5GV8","3P7RGTLO6EZ76AO3386R8ZK9IWWKAW","","33","img/food1.png","75","33","2","0","2","2","1,0.5,0,1,0.5,0,0.5,0,1","0.5,0,1,0.5,0,1,0,1,0.5","2","false",""
"","html-keyboard-response","333","84615","0.0-407.0","3TU5ZICBRENHK9RDAHBCXDMBZVNQ8C","A2AP9F2LCG5GV8","3P7RGTLO6EZ76AO3386R8ZK9IWWKAW","","null","<img src=""img/food1.png"" style=""width:200px;border:14px solid red;"">","null","","","","","","","","","",""
"","image-keyboard-response","334","84722","0.0-409.0","3TU5ZICBRENHK9RDAHBCXDMBZVNQ8C","A2AP9F2LCG5GV8","3P7RGTLO6EZ76AO3386R8ZK9IWWKAW","","104","img/food4.png","76","106","3","1","3","2","1,0.5,0,1,0.5,0,0.5,0,1","0.5,0,1,0.5,0,1,0,1,0.5","2","false",""
"","html-keyboard-response","335","85023","0.0-410.0","3TU5ZICBRENHK9RDAHBCXDMBZVNQ8C","A2AP9F2LCG5GV8","3P7RGTLO6EZ76AO3386R8ZK9IWWKAW","","null","<img src=""img/food4.png"" style=""width:200px; border:14px solid green;"">","null","","","","","","","","","",""
"","image-keyboard-response","336","85067","0.0-412.0","3TU5ZICBRENHK9RDAHBCXDMBZVNQ8C","A2AP9F2LCG5GV8","3P7RGTLO6EZ76AO3386R8ZK9IWWKAW","","43","img/food3.png","74","44","1","0","1","2","1,0.5,0,1,0.5,0,0.5,0,1","0.5,0,1,0.5,0,1,0,1,0.5","2","false",""
"","html-keyboard-response","337","85369","0.0-413.0","3TU5ZICBRENHK9RDAHBCXDMBZVNQ8C","A2AP9F2LCG5GV8","3P7RGTLO6EZ76AO3386R8ZK9IWWKAW","","null","<img src=""img/food3.png"" style=""width:200px;border:14px solid red;"">","null","","","","","","","","","",""
"","image-keyboard-response","338","85390","0.0-415.0","3TU5ZICBRENHK9RDAHBCXDMBZVNQ8C","A2AP9F2LCG5GV8","3P7RGTLO6EZ76AO3386R8ZK9IWWKAW","","17","img/food4.png","75","20","2","1","3","2","1,0.5,0,1,0.5,0,0.5,0,1","0.5,0,1,0.5,0,1,0,1,0.5","2","false",""
"","html-keyboard-response","339","85692","0.0-416.0","3TU5ZICBRENHK9RDAHBCXDMBZVNQ8C","A2AP9F2LCG5GV8","3P7RGTLO6EZ76AO3386R8ZK9IWWKAW","","null","<img src=""img/food4.png"" style=""width:200px; border:14px solid green;"">","null","","","","","","","","","",""
"","image-keyboard-response","340","85811","0.0-418.0","3TU5ZICBRENHK9RDAHBCXDMBZVNQ8C","A2AP9F2LCG5GV8","3P7RGTLO6EZ76AO3386R8ZK9IWWKAW","","117","img/food1.png","76","119","3","1","2","2","1,0.5,0,1,0.5,0,0.5,0,1","0.5,0,1,0.5,0,1,0,1,0.5","2","false",""
"","html-keyboard-response","341","86114","0.0-419.0","3TU5ZICBRENHK9RDAHBCXDMBZVNQ8C","A2AP9F2LCG5GV8","3P7RGTLO6EZ76AO3386R8ZK9IWWKAW","","null","<img src=""img/food1.png"" style=""width:200px; border:14px solid green;"">","null","","","","","","","","","",""
"","image-keyboard-response","342","86124","0.0-421.0","3TU5ZICBRENHK9RDAHBCXDMBZVNQ8C","A2AP9F2LCG5GV8","3P7RGTLO6EZ76AO3386R8ZK9IWWKAW","","9","img/food4.png","74","9","1","0","3","2","1,0.5,0,1,0.5,0,0.5,0,1","0.5,0,1,0.5,0,1,0,1,0.5","2","false",""
"","html-keyboard-response","343","86426","0.0-422.0","3TU5ZICBRENHK9RDAHBCXDMBZVNQ8C","A2AP9F2LCG5GV8","3P7RGTLO6EZ76AO3386R8ZK9IWWKAW","","null","<img src=""img/food4.png"" style=""width:200px;border:14px solid red;"">","null","","","","","","","","","",""
"","image-keyboard-response","344","86446","0.0-424.0","3TU5ZICBRENHK9RDAHBCXDMBZVNQ8C","A2AP9F2LCG5GV8","3P7RGTLO6EZ76AO3386R8ZK9IWWKAW","","18","img/food4.png","75","19","2","1","3","2","1,0.5,0,1,0.5,0,0.5,0,1","0.5,0,1,0.5,0,1,0,1,0.5","2","false",""
"","html-keyboard-response","345","86748","0.0-425.0","3TU5ZICBRENHK9RDAHBCXDMBZVNQ8C","A2AP9F2LCG5GV8","3P7RGTLO6EZ76AO3386R8ZK9IWWKAW","","null","<img src=""img/food4.png"" style=""width:200px; border:14px solid green;"">","null","","","","","","","","","",""
"","image-keyboard-response","346","86874","0.0-427.0","3TU5ZICBRENHK9RDAHBCXDMBZVNQ8C","A2AP9F2LCG5GV8","3P7RGTLO6EZ76AO3386R8ZK9IWWKAW","","123","img/food1.png","76","125","3","1","2","2","1,0.5,0,1,0.5,0,0.5,0,1","0.5,0,1,0.5,0,1,0,1,0.5","2","false",""
"","html-keyboard-response","347","87177","0.0-428.0","3TU5ZICBRENHK9RDAHBCXDMBZVNQ8C","A2AP9F2LCG5GV8","3P7RGTLO6EZ76AO3386R8ZK9IWWKAW","","null","<img src=""img/food1.png"" style=""width:200px; border:14px solid green;"">","null","","","","","","","","","",""
"","image-keyboard-response","348","87188","0.0-430.0","3TU5ZICBRENHK9RDAHBCXDMBZVNQ8C","A2AP9F2LCG5GV8","3P7RGTLO6EZ76AO3386R8ZK9IWWKAW","","9","img/food4.png","74","10","1","0","3","2","1,0.5,0,1,0.5,0,0.5,0,1","0.5,0,1,0.5,0,1,0,1,0.5","2","false",""
"","html-keyboard-response","349","87491","0.0-431.0","3TU5ZICBRENHK9RDAHBCXDMBZVNQ8C","A2AP9F2LCG5GV8","3P7RGTLO6EZ76AO3386R8ZK9IWWKAW","","null","<img src=""img/food4.png"" style=""width:200px;border:14px solid red;"">","null","","","","","","","","","",""
"","image-keyboard-response","350","87500","0.0-433.0","3TU5ZICBRENHK9RDAHBCXDMBZVNQ8C","A2AP9F2LCG5GV8","3P7RGTLO6EZ76AO3386R8ZK9IWWKAW","","8","img/food1.png","75","9","2","0","2","2","1,0.5,0,1,0.5,0,0.5,0,1","0.5,0,1,0.5,0,1,0,1,0.5","2","false",""
"","html-keyboard-response","351","87801","0.0-434.0","3TU5ZICBRENHK9RDAHBCXDMBZVNQ8C","A2AP9F2LCG5GV8","3P7RGTLO6EZ76AO3386R8ZK9IWWKAW","","null","<img src=""img/food1.png"" style=""width:200px;border:14px solid red;"">","null","","","","","","","","","",""
"","image-keyboard-response","352","87923","0.0-436.0","3TU5ZICBRENHK9RDAHBCXDMBZVNQ8C","A2AP9F2LCG5GV8","3P7RGTLO6EZ76AO3386R8ZK9IWWKAW","","120","img/food1.png","76","122","3","1","2","2","1,0.5,0,1,0.5,0,0.5,0,1","0.5,0,1,0.5,0,1,0,1,0.5","2","false",""
"","html-keyboard-response","353","88226","0.0-437.0","3TU5ZICBRENHK9RDAHBCXDMBZVNQ8C","A2AP9F2LCG5GV8","3P7RGTLO6EZ76AO3386R8ZK9IWWKAW","","null","<img src=""img/food1.png"" style=""width:200px; border:14px solid green;"">","null","","","","","","","","","",""
"","image-keyboard-response","354","88283","0.0-439.0","3TU5ZICBRENHK9RDAHBCXDMBZVNQ8C","A2AP9F2LCG5GV8","3P7RGTLO6EZ76AO3386R8ZK9IWWKAW","","54","img/food4.png","74","56","1","0","3","2","1,0.5,0,1,0.5,0,0.5,0,1","0.5,0,1,0.5,0,1,0,1,0.5","2","false",""
"","html-keyboard-response","355","88584","0.0-440.0","3TU5ZICBRENHK9RDAHBCXDMBZVNQ8C","A2AP9F2LCG5GV8","3P7RGTLO6EZ76AO3386R8ZK9IWWKAW","","null","<img src=""img/food4.png"" style=""width:200px;border:14px solid red;"">","null","","","","","","","","","",""
"","image-keyboard-response","356","88643","0.0-442.0","3TU5ZICBRENHK9RDAHBCXDMBZVNQ8C","A2AP9F2LCG5GV8","3P7RGTLO6EZ76AO3386R8ZK9IWWKAW","","58","img/food1.png","75","58","2","0","2","2","1,0.5,0,1,0.5,0,0.5,0,1","0.5,0,1,0.5,0,1,0,1,0.5","2","false",""
"","html-keyboard-response","357","88952","0.0-443.0","3TU5ZICBRENHK9RDAHBCXDMBZVNQ8C","A2AP9F2LCG5GV8","3P7RGTLO6EZ76AO3386R8ZK9IWWKAW","","null","<img src=""img/food1.png"" style=""width:200px;border:14px solid red;"">","null","","","","","","","","","",""
"","image-keyboard-response","358","89116","0.0-445.0","3TU5ZICBRENHK9RDAHBCXDMBZVNQ8C","A2AP9F2LCG5GV8","3P7RGTLO6EZ76AO3386R8ZK9IWWKAW","","163","img/food4.png","74","163","1","0","3","2","1,0.5,0,1,0.5,0,0.5,0,1","0.5,0,1,0.5,0,1,0,1,0.5","2","false",""
"","html-keyboard-response","359","89417","0.0-446.0","3TU5ZICBRENHK9RDAHBCXDMBZVNQ8C","A2AP9F2LCG5GV8","3P7RGTLO6EZ76AO3386R8ZK9IWWKAW","","null","<img src=""img/food4.png"" style=""width:200px;border:14px solid red;"">","null","","","","","","","","","",""
"","image-keyboard-response","360","89484","0.0-448.0","3TU5ZICBRENHK9RDAHBCXDMBZVNQ8C","A2AP9F2LCG5GV8","3P7RGTLO6EZ76AO3386R8ZK9IWWKAW","","65","img/food1.png","76","67","3","1","2","2","1,0.5,0,1,0.5,0,0.5,0,1","0.5,0,1,0.5,0,1,0,1,0.5","2","false",""
"","html-keyboard-response","361","89787","0.0-449.0","3TU5ZICBRENHK9RDAHBCXDMBZVNQ8C","A2AP9F2LCG5GV8","3P7RGTLO6EZ76AO3386R8ZK9IWWKAW","","null","<img src=""img/food1.png"" style=""width:200px; border:14px solid green;"">","null","","","","","","","","","",""
"","image-keyboard-response","362","89860","0.0-451.0","3TU5ZICBRENHK9RDAHBCXDMBZVNQ8C","A2AP9F2LCG5GV8","3P7RGTLO6EZ76AO3386R8ZK9IWWKAW","","72","img/food3.png","76","73","3","1","1","2","1,0.5,0,1,0.5,0,0.5,0,1","0.5,0,1,0.5,0,1,0,1,0.5","2","false",""
"","html-keyboard-response","363","90163","0.0-452.0","3TU5ZICBRENHK9RDAHBCXDMBZVNQ8C","A2AP9F2LCG5GV8","3P7RGTLO6EZ76AO3386R8ZK9IWWKAW","","null","<img src=""img/food3.png"" style=""width:200px; border:14px solid green;"">","null","","","","","","","","","",""
"","instructions","364","101733","0.0-454.0","3TU5ZICBRENHK9RDAHBCXDMBZVNQ8C","A2AP9F2LCG5GV8","3P7RGTLO6EZ76AO3386R8ZK9IWWKAW","[{""page_index"":0,""viewing_time"":11568}]","11569","","","","","","","","","","","",""
"","survey-text","365","105455","0.0-455.0","3TU5ZICBRENHK9RDAHBCXDMBZVNQ8C","A2AP9F2LCG5GV8","3P7RGTLO6EZ76AO3386R8ZK9IWWKAW","","3703","","","","","","","","","","","","{""Q0"":""A2AP9F2LCG5GV8""}"
