"success","trial_type","trial_index","time_elapsed","internal_node_id","assignmentID","mturkID","hitID","view_history","rt","stimulus","key_press","reactionTime","a","r","warning","s","cond","reward_cond","reward_cond_actual","reward_matrix_idx","responses"
"true","fullscreen","0","3072","0.0-0.0","3X3OR7WPZ0M6TCB0IC3GGRNHPU2L8U","A2APG8MSLJ6G2K","3THR0FZ95PF7SK0MYRNAOUHTWDJOLG","","","","","","","","","","","","","",""
"","instructions","1","50344","0.0-1.0","3X3OR7WPZ0M6TCB0IC3GGRNHPU2L8U","A2APG8MSLJ6G2K","3THR0FZ95PF7SK0MYRNAOUHTWDJOLG","[{""page_index"":0,""viewing_time"":5837.100000143051},{""page_index"":1,""viewing_time"":3146.2000000476837},{""page_index"":2,""viewing_time"":4850.699999809265},{""page_index"":3,""viewing_time"":9637.5},{""page_index"":4,""viewing_time"":1970},{""page_index"":5,""viewing_time"":16954.400000095367},{""page_index"":6,""viewing_time"":4875.200000047684}]","47271.40000009537","","","","","","","","","","","",""
"","instructions","2","65046","0.0-2.0","3X3OR7WPZ0M6TCB0IC3GGRNHPU2L8U","A2APG8MSLJ6G2K","3THR0FZ95PF7SK0MYRNAOUHTWDJOLG","[{""page_index"":0,""viewing_time"":13008.799999952316},{""page_index"":1,""viewing_time"":1692.3999998569489}]","14701.399999856949","","","","","","","","","","","",""
"","image-keyboard-response","3","66049","0.0-3.0","3X3OR7WPZ0M6TCB0IC3GGRNHPU2L8U","A2APG8MSLJ6G2K","3THR0FZ95PF7SK0MYRNAOUHTWDJOLG","","","img/food1.png","","1002.9000000953674","-1","0","true","2","2","1,0.5,0,1,0.5,0,0.5,0,1","0,1,0.5,0,1,0.5,1,0.5,0","3",""
"","html-keyboard-response","4","66351","0.0-4.0","3X3OR7WPZ0M6TCB0IC3GGRNHPU2L8U","A2APG8MSLJ6G2K","3THR0FZ95PF7SK0MYRNAOUHTWDJOLG","","null","<img src=""img/food1.png"" style=""width:200px;border:14px solid red;"">","null","","","","","","","","","",""
"","html-keyboard-response","5","68806","0.0-5.0-0.0","3X3OR7WPZ0M6TCB0IC3GGRNHPU2L8U","A2APG8MSLJ6G2K","3THR0FZ95PF7SK0MYRNAOUHTWDJOLG","","","","","","","","","","","","","",""
"","image-keyboard-response","6","69253","0.0-6.0","3X3OR7WPZ0M6TCB0IC3GGRNHPU2L8U","A2APG8MSLJ6G2K","3THR0FZ95PF7SK0MYRNAOUHTWDJOLG","","446","img/food1.png","76","446.7999999523163","3","0","false","2","2","1,0.5,0,1,0.5,0,0.5,0,1","0,1,0.5,0,1,0.5,1,0.5,0","3",""
"","html-keyboard-response","7","69555","0.0-7.0","3X3OR7WPZ0M6TCB0IC3GGRNHPU2L8U","A2APG8MSLJ6G2K","3THR0FZ95PF7SK0MYRNAOUHTWDJOLG","","null","<img src=""img/food1.png"" style=""width:200px;border:14px solid red;"">","null","","","","","","","","","",""
"","image-keyboard-response","8","69725","0.0-9.0","3X3OR7WPZ0M6TCB0IC3GGRNHPU2L8U","A2APG8MSLJ6G2K","3THR0FZ95PF7SK0MYRNAOUHTWDJOLG","","168.90000009536743","img/food1.png","75","169.79999995231628","2","1","false","2","2","1,0.5,0,1,0.5,0,0.5,0,1","0,1,0.5,0,1,0.5,1,0.5,0","3",""
"","html-keyboard-response","9","70027","0.0-10.0","3X3OR7WPZ0M6TCB0IC3GGRNHPU2L8U","A2APG8MSLJ6G2K","3THR0FZ95PF7SK0MYRNAOUHTWDJOLG","","null","<img src=""img/food1.png"" style=""width:200px; border:14px solid green;"">","null","","","","","","","","","",""
"","image-keyboard-response","10","70533","0.0-12.0","3X3OR7WPZ0M6TCB0IC3GGRNHPU2L8U","A2APG8MSLJ6G2K","3THR0FZ95PF7SK0MYRNAOUHTWDJOLG","","505","img/food6.png","75","505.60000014305115","2","1","false","1","2","1,0.5,0,1,0.5,0,0.5,0,1","0,1,0.5,0,1,0.5,1,0.5,0","3",""
"","html-keyboard-response","11","70835","0.0-13.0","3X3OR7WPZ0M6TCB0IC3GGRNHPU2L8U","A2APG8MSLJ6G2K","3THR0FZ95PF7SK0MYRNAOUHTWDJOLG","","null","<img src=""img/food6.png"" style=""width:200px; border:14px solid green;"">","null","","","","","","","","","",""
"","image-keyboard-response","12","71268","0.0-15.0","3X3OR7WPZ0M6TCB0IC3GGRNHPU2L8U","A2APG8MSLJ6G2K","3THR0FZ95PF7SK0MYRNAOUHTWDJOLG","","432.5","img/food6.png","75","433.09999990463257","2","1","false","1","2","1,0.5,0,1,0.5,0,0.5,0,1","0,1,0.5,0,1,0.5,1,0.5,0","3",""
"","html-keyboard-response","13","71570","0.0-16.0","3X3OR7WPZ0M6TCB0IC3GGRNHPU2L8U","A2APG8MSLJ6G2K","3THR0FZ95PF7SK0MYRNAOUHTWDJOLG","","null","<img src=""img/food6.png"" style=""width:200px; border:14px solid green;"">","null","","","","","","","","","",""
"","image-keyboard-response","14","72573","0.0-18.0","3X3OR7WPZ0M6TCB0IC3GGRNHPU2L8U","A2APG8MSLJ6G2K","3THR0FZ95PF7SK0MYRNAOUHTWDJOLG","","","img/food2.png","","1002.0999999046326","-1","0","true","3","2","1,0.5,0,1,0.5,0,0.5,0,1","0,1,0.5,0,1,0.5,1,0.5,0","3",""
"","html-keyboard-response","15","72874","0.0-19.0","3X3OR7WPZ0M6TCB0IC3GGRNHPU2L8U","A2APG8MSLJ6G2K","3THR0FZ95PF7SK0MYRNAOUHTWDJOLG","","null","<img src=""img/food2.png"" style=""width:200px;border:14px solid red;"">","null","","","","","","","","","",""
"","html-keyboard-response","16","75040","0.0-20.0-0.0","3X3OR7WPZ0M6TCB0IC3GGRNHPU2L8U","A2APG8MSLJ6G2K","3THR0FZ95PF7SK0MYRNAOUHTWDJOLG","","","","","","","","","","","","","",""
"","image-keyboard-response","17","75501","0.0-21.0","3X3OR7WPZ0M6TCB0IC3GGRNHPU2L8U","A2APG8MSLJ6G2K","3THR0FZ95PF7SK0MYRNAOUHTWDJOLG","","459.7000000476837","img/food6.png","74","460.5","1","0","false","1","2","1,0.5,0,1,0.5,0,0.5,0,1","0,1,0.5,0,1,0.5,1,0.5,0","3",""
"","html-keyboard-response","18","75802","0.0-22.0","3X3OR7WPZ0M6TCB0IC3GGRNHPU2L8U","A2APG8MSLJ6G2K","3THR0FZ95PF7SK0MYRNAOUHTWDJOLG","","null","<img src=""img/food6.png"" style=""width:200px;border:14px solid red;"">","null","","","","","","","","","",""
"","image-keyboard-response","19","76102","0.0-24.0","3X3OR7WPZ0M6TCB0IC3GGRNHPU2L8U","A2APG8MSLJ6G2K","3THR0FZ95PF7SK0MYRNAOUHTWDJOLG","","298.40000009536743","img/food2.png","75","299.2000000476837","2","1","false","3","2","1,0.5,0,1,0.5,0,0.5,0,1","0,1,0.5,0,1,0.5,1,0.5,0","3",""
"","html-keyboard-response","20","76402","0.0-25.0","3X3OR7WPZ0M6TCB0IC3GGRNHPU2L8U","A2APG8MSLJ6G2K","3THR0FZ95PF7SK0MYRNAOUHTWDJOLG","","null","<img src=""img/food2.png"" style=""width:200px; border:14px solid green;"">","null","","","","","","","","","",""
"","image-keyboard-response","21","76741","0.0-27.0","3X3OR7WPZ0M6TCB0IC3GGRNHPU2L8U","A2APG8MSLJ6G2K","3THR0FZ95PF7SK0MYRNAOUHTWDJOLG","","337.09999990463257","img/food6.png","75","337.7999999523163","2","1","false","1","2","1,0.5,0,1,0.5,0,0.5,0,1","0,1,0.5,0,1,0.5,1,0.5,0","3",""
"","html-keyboard-response","22","77042","0.0-28.0","3X3OR7WPZ0M6TCB0IC3GGRNHPU2L8U","A2APG8MSLJ6G2K","3THR0FZ95PF7SK0MYRNAOUHTWDJOLG","","null","<img src=""img/food6.png"" style=""width:200px; border:14px solid green;"">","null","","","","","","","","","",""
"","image-keyboard-response","23","77245","0.0-30.0","3X3OR7WPZ0M6TCB0IC3GGRNHPU2L8U","A2APG8MSLJ6G2K","3THR0FZ95PF7SK0MYRNAOUHTWDJOLG","","201.5","img/food2.png","75","202.29999995231628","2","0","false","3","2","1,0.5,0,1,0.5,0,0.5,0,1","0,1,0.5,0,1,0.5,1,0.5,0","3",""
"","html-keyboard-response","24","77546","0.0-31.0","3X3OR7WPZ0M6TCB0IC3GGRNHPU2L8U","A2APG8MSLJ6G2K","3THR0FZ95PF7SK0MYRNAOUHTWDJOLG","","null","<img src=""img/food2.png"" style=""width:200px;border:14px solid red;"">","null","","","","","","","","","",""
"","image-keyboard-response","25","77788","0.0-33.0","3X3OR7WPZ0M6TCB0IC3GGRNHPU2L8U","A2APG8MSLJ6G2K","3THR0FZ95PF7SK0MYRNAOUHTWDJOLG","","241.20000004768372","img/food2.png","76","241.90000009536743","3","0","false","3","2","1,0.5,0,1,0.5,0,0.5,0,1","0,1,0.5,0,1,0.5,1,0.5,0","3",""
"","html-keyboard-response","26","78090","0.0-34.0","3X3OR7WPZ0M6TCB0IC3GGRNHPU2L8U","A2APG8MSLJ6G2K","3THR0FZ95PF7SK0MYRNAOUHTWDJOLG","","null","<img src=""img/food2.png"" style=""width:200px;border:14px solid red;"">","null","","","","","","","","","",""
"","image-keyboard-response","27","78604","0.0-36.0","3X3OR7WPZ0M6TCB0IC3GGRNHPU2L8U","A2APG8MSLJ6G2K","3THR0FZ95PF7SK0MYRNAOUHTWDJOLG","","513.6999998092651","img/food2.png","76","514.5999999046326","3","0","false","3","2","1,0.5,0,1,0.5,0,0.5,0,1","0,1,0.5,0,1,0.5,1,0.5,0","3",""
"","html-keyboard-response","28","78906","0.0-37.0","3X3OR7WPZ0M6TCB0IC3GGRNHPU2L8U","A2APG8MSLJ6G2K","3THR0FZ95PF7SK0MYRNAOUHTWDJOLG","","null","<img src=""img/food2.png"" style=""width:200px;border:14px solid red;"">","null","","","","","","","","","",""
"","image-keyboard-response","29","79044","0.0-39.0","3X3OR7WPZ0M6TCB0IC3GGRNHPU2L8U","A2APG8MSLJ6G2K","3THR0FZ95PF7SK0MYRNAOUHTWDJOLG","","137.70000004768372","img/food6.png","74","138.29999995231628","1","0","false","1","2","1,0.5,0,1,0.5,0,0.5,0,1","0,1,0.5,0,1,0.5,1,0.5,0","3",""
"","html-keyboard-response","30","79346","0.0-40.0","3X3OR7WPZ0M6TCB0IC3GGRNHPU2L8U","A2APG8MSLJ6G2K","3THR0FZ95PF7SK0MYRNAOUHTWDJOLG","","null","<img src=""img/food6.png"" style=""width:200px;border:14px solid red;"">","null","","","","","","","","","",""
"","image-keyboard-response","31","79732","0.0-42.0","3X3OR7WPZ0M6TCB0IC3GGRNHPU2L8U","A2APG8MSLJ6G2K","3THR0FZ95PF7SK0MYRNAOUHTWDJOLG","","384.60000014305115","img/food1.png","75","385.2000000476837","2","1","false","2","2","1,0.5,0,1,0.5,0,0.5,0,1","0,1,0.5,0,1,0.5,1,0.5,0","3",""
"","html-keyboard-response","32","80034","0.0-43.0","3X3OR7WPZ0M6TCB0IC3GGRNHPU2L8U","A2APG8MSLJ6G2K","3THR0FZ95PF7SK0MYRNAOUHTWDJOLG","","null","<img src=""img/food1.png"" style=""width:200px; border:14px solid green;"">","null","","","","","","","","","",""
"","image-keyboard-response","33","80317","0.0-45.0","3X3OR7WPZ0M6TCB0IC3GGRNHPU2L8U","A2APG8MSLJ6G2K","3THR0FZ95PF7SK0MYRNAOUHTWDJOLG","","281.89999985694885","img/food1.png","75","282.5","2","1","false","2","2","1,0.5,0,1,0.5,0,0.5,0,1","0,1,0.5,0,1,0.5,1,0.5,0","3",""
"","html-keyboard-response","34","80619","0.0-46.0","3X3OR7WPZ0M6TCB0IC3GGRNHPU2L8U","A2APG8MSLJ6G2K","3THR0FZ95PF7SK0MYRNAOUHTWDJOLG","","null","<img src=""img/food1.png"" style=""width:200px; border:14px solid green;"">","null","","","","","","","","","",""
"","image-keyboard-response","35","80852","0.0-48.0","3X3OR7WPZ0M6TCB0IC3GGRNHPU2L8U","A2APG8MSLJ6G2K","3THR0FZ95PF7SK0MYRNAOUHTWDJOLG","","232.90000009536743","img/food2.png","75","233.5","2","1","false","3","2","1,0.5,0,1,0.5,0,0.5,0,1","0,1,0.5,0,1,0.5,1,0.5,0","3",""
"","html-keyboard-response","36","81154","0.0-49.0","3X3OR7WPZ0M6TCB0IC3GGRNHPU2L8U","A2APG8MSLJ6G2K","3THR0FZ95PF7SK0MYRNAOUHTWDJOLG","","null","<img src=""img/food2.png"" style=""width:200px; border:14px solid green;"">","null","","","","","","","","","",""
"","image-keyboard-response","37","81477","0.0-51.0","3X3OR7WPZ0M6TCB0IC3GGRNHPU2L8U","A2APG8MSLJ6G2K","3THR0FZ95PF7SK0MYRNAOUHTWDJOLG","","321.2000000476837","img/food6.png","75","321.90000009536743","2","1","false","1","2","1,0.5,0,1,0.5,0,0.5,0,1","0,1,0.5,0,1,0.5,1,0.5,0","3",""
"","html-keyboard-response","38","81779","0.0-52.0","3X3OR7WPZ0M6TCB0IC3GGRNHPU2L8U","A2APG8MSLJ6G2K","3THR0FZ95PF7SK0MYRNAOUHTWDJOLG","","null","<img src=""img/food6.png"" style=""width:200px; border:14px solid green;"">","null","","","","","","","","","",""
"","image-keyboard-response","39","82061","0.0-54.0","3X3OR7WPZ0M6TCB0IC3GGRNHPU2L8U","A2APG8MSLJ6G2K","3THR0FZ95PF7SK0MYRNAOUHTWDJOLG","","281.09999990463257","img/food1.png","75","281.7999999523163","2","1","false","2","2","1,0.5,0,1,0.5,0,0.5,0,1","0,1,0.5,0,1,0.5,1,0.5,0","3",""
"","html-keyboard-response","40","82362","0.0-55.0","3X3OR7WPZ0M6TCB0IC3GGRNHPU2L8U","A2APG8MSLJ6G2K","3THR0FZ95PF7SK0MYRNAOUHTWDJOLG","","null","<img src=""img/food1.png"" style=""width:200px; border:14px solid green;"">","null","","","","","","","","","",""
"","image-keyboard-response","41","82580","0.0-57.0","3X3OR7WPZ0M6TCB0IC3GGRNHPU2L8U","A2APG8MSLJ6G2K","3THR0FZ95PF7SK0MYRNAOUHTWDJOLG","","217.39999985694885","img/food1.png","75","218.09999990463257","2","1","false","2","2","1,0.5,0,1,0.5,0,0.5,0,1","0,1,0.5,0,1,0.5,1,0.5,0","3",""
"","html-keyboard-response","42","82883","0.0-58.0","3X3OR7WPZ0M6TCB0IC3GGRNHPU2L8U","A2APG8MSLJ6G2K","3THR0FZ95PF7SK0MYRNAOUHTWDJOLG","","null","<img src=""img/food1.png"" style=""width:200px; border:14px solid green;"">","null","","","","","","","","","",""
"","image-keyboard-response","43","82965","0.0-60.0","3X3OR7WPZ0M6TCB0IC3GGRNHPU2L8U","A2APG8MSLJ6G2K","3THR0FZ95PF7SK0MYRNAOUHTWDJOLG","","80.90000009536743","img/food2.png","75","81.60000014305115","2","1","false","3","2","1,0.5,0,1,0.5,0,0.5,0,1","0,1,0.5,0,1,0.5,1,0.5,0","3",""
"","html-keyboard-response","44","83266","0.0-61.0","3X3OR7WPZ0M6TCB0IC3GGRNHPU2L8U","A2APG8MSLJ6G2K","3THR0FZ95PF7SK0MYRNAOUHTWDJOLG","","null","<img src=""img/food2.png"" style=""width:200px; border:14px solid green;"">","null","","","","","","","","","",""
"","image-keyboard-response","45","83389","0.0-63.0","3X3OR7WPZ0M6TCB0IC3GGRNHPU2L8U","A2APG8MSLJ6G2K","3THR0FZ95PF7SK0MYRNAOUHTWDJOLG","","121.20000004768372","img/food1.png","75","121.79999995231628","2","1","false","2","2","1,0.5,0,1,0.5,0,0.5,0,1","0,1,0.5,0,1,0.5,1,0.5,0","3",""
"","html-keyboard-response","46","83690","0.0-64.0","3X3OR7WPZ0M6TCB0IC3GGRNHPU2L8U","A2APG8MSLJ6G2K","3THR0FZ95PF7SK0MYRNAOUHTWDJOLG","","null","<img src=""img/food1.png"" style=""width:200px; border:14px solid green;"">","null","","","","","","","","","",""
"","image-keyboard-response","47","83940","0.0-66.0","3X3OR7WPZ0M6TCB0IC3GGRNHPU2L8U","A2APG8MSLJ6G2K","3THR0FZ95PF7SK0MYRNAOUHTWDJOLG","","249.5","img/food6.png","75","250.20000004768372","2","1","false","1","2","1,0.5,0,1,0.5,0,0.5,0,1","0,1,0.5,0,1,0.5,1,0.5,0","3",""
"","html-keyboard-response","48","84242","0.0-67.0","3X3OR7WPZ0M6TCB0IC3GGRNHPU2L8U","A2APG8MSLJ6G2K","3THR0FZ95PF7SK0MYRNAOUHTWDJOLG","","null","<img src=""img/food6.png"" style=""width:200px; border:14px solid green;"">","null","","","","","","","","","",""
"","image-keyboard-response","49","84484","0.0-69.0","3X3OR7WPZ0M6TCB0IC3GGRNHPU2L8U","A2APG8MSLJ6G2K","3THR0FZ95PF7SK0MYRNAOUHTWDJOLG","","241","img/food2.png","75","241.5","2","0","false","3","2","1,0.5,0,1,0.5,0,0.5,0,1","0,1,0.5,0,1,0.5,1,0.5,0","3",""
"","html-keyboard-response","50","84786","0.0-70.0","3X3OR7WPZ0M6TCB0IC3GGRNHPU2L8U","A2APG8MSLJ6G2K","3THR0FZ95PF7SK0MYRNAOUHTWDJOLG","","null","<img src=""img/food2.png"" style=""width:200px;border:14px solid red;"">","null","","","","","","","","","",""
"","image-keyboard-response","51","85117","0.0-72.0","3X3OR7WPZ0M6TCB0IC3GGRNHPU2L8U","A2APG8MSLJ6G2K","3THR0FZ95PF7SK0MYRNAOUHTWDJOLG","","329.90000009536743","img/food2.png","76","330.59999990463257","3","0","false","3","2","1,0.5,0,1,0.5,0,0.5,0,1","0,1,0.5,0,1,0.5,1,0.5,0","3",""
"","html-keyboard-response","52","85418","0.0-73.0","3X3OR7WPZ0M6TCB0IC3GGRNHPU2L8U","A2APG8MSLJ6G2K","3THR0FZ95PF7SK0MYRNAOUHTWDJOLG","","null","<img src=""img/food2.png"" style=""width:200px;border:14px solid red;"">","null","","","","","","","","","",""
"","image-keyboard-response","53","85668","0.0-75.0","3X3OR7WPZ0M6TCB0IC3GGRNHPU2L8U","A2APG8MSLJ6G2K","3THR0FZ95PF7SK0MYRNAOUHTWDJOLG","","248.89999985694885","img/food6.png","75","249.60000014305115","2","1","false","1","2","1,0.5,0,1,0.5,0,0.5,0,1","0,1,0.5,0,1,0.5,1,0.5,0","3",""
"","html-keyboard-response","54","85970","0.0-76.0","3X3OR7WPZ0M6TCB0IC3GGRNHPU2L8U","A2APG8MSLJ6G2K","3THR0FZ95PF7SK0MYRNAOUHTWDJOLG","","null","<img src=""img/food6.png"" style=""width:200px; border:14px solid green;"">","null","","","","","","","","","",""
"","image-keyboard-response","55","86173","0.0-78.0","3X3OR7WPZ0M6TCB0IC3GGRNHPU2L8U","A2APG8MSLJ6G2K","3THR0FZ95PF7SK0MYRNAOUHTWDJOLG","","202","img/food1.png","75","202.59999990463257","2","1","false","2","2","1,0.5,0,1,0.5,0,0.5,0,1","0,1,0.5,0,1,0.5,1,0.5,0","3",""
"","html-keyboard-response","56","86474","0.0-79.0","3X3OR7WPZ0M6TCB0IC3GGRNHPU2L8U","A2APG8MSLJ6G2K","3THR0FZ95PF7SK0MYRNAOUHTWDJOLG","","null","<img src=""img/food1.png"" style=""width:200px; border:14px solid green;"">","null","","","","","","","","","",""
"","image-keyboard-response","57","86701","0.0-81.0","3X3OR7WPZ0M6TCB0IC3GGRNHPU2L8U","A2APG8MSLJ6G2K","3THR0FZ95PF7SK0MYRNAOUHTWDJOLG","","225.89999985694885","img/food2.png","75","226.69999980926514","2","0","false","3","2","1,0.5,0,1,0.5,0,0.5,0,1","0,1,0.5,0,1,0.5,1,0.5,0","3",""
"","html-keyboard-response","58","87001","0.0-82.0","3X3OR7WPZ0M6TCB0IC3GGRNHPU2L8U","A2APG8MSLJ6G2K","3THR0FZ95PF7SK0MYRNAOUHTWDJOLG","","null","<img src=""img/food2.png"" style=""width:200px;border:14px solid red;"">","null","","","","","","","","","",""
"","image-keyboard-response","59","87389","0.0-84.0","3X3OR7WPZ0M6TCB0IC3GGRNHPU2L8U","A2APG8MSLJ6G2K","3THR0FZ95PF7SK0MYRNAOUHTWDJOLG","","386.5","img/food6.png","75","387.10000014305115","2","1","false","1","2","1,0.5,0,1,0.5,0,0.5,0,1","0,1,0.5,0,1,0.5,1,0.5,0","3",""
"","html-keyboard-response","60","87690","0.0-85.0","3X3OR7WPZ0M6TCB0IC3GGRNHPU2L8U","A2APG8MSLJ6G2K","3THR0FZ95PF7SK0MYRNAOUHTWDJOLG","","null","<img src=""img/food6.png"" style=""width:200px; border:14px solid green;"">","null","","","","","","","","","",""
"","image-keyboard-response","61","87917","0.0-87.0","3X3OR7WPZ0M6TCB0IC3GGRNHPU2L8U","A2APG8MSLJ6G2K","3THR0FZ95PF7SK0MYRNAOUHTWDJOLG","","225.40000009536743","img/food2.png","75","226.09999990463257","2","0","false","3","2","1,0.5,0,1,0.5,0,0.5,0,1","0,1,0.5,0,1,0.5,1,0.5,0","3",""
"","html-keyboard-response","62","88219","0.0-88.0","3X3OR7WPZ0M6TCB0IC3GGRNHPU2L8U","A2APG8MSLJ6G2K","3THR0FZ95PF7SK0MYRNAOUHTWDJOLG","","null","<img src=""img/food2.png"" style=""width:200px;border:14px solid red;"">","null","","","","","","","","","",""
"","image-keyboard-response","63","88941","0.0-90.0","3X3OR7WPZ0M6TCB0IC3GGRNHPU2L8U","A2APG8MSLJ6G2K","3THR0FZ95PF7SK0MYRNAOUHTWDJOLG","","721","img/food6.png","74","721.5999999046326","1","0","false","1","2","1,0.5,0,1,0.5,0,0.5,0,1","0,1,0.5,0,1,0.5,1,0.5,0","3",""
"","html-keyboard-response","64","89242","0.0-91.0","3X3OR7WPZ0M6TCB0IC3GGRNHPU2L8U","A2APG8MSLJ6G2K","3THR0FZ95PF7SK0MYRNAOUHTWDJOLG","","null","<img src=""img/food6.png"" style=""width:200px;border:14px solid red;"">","null","","","","","","","","","",""
"","image-keyboard-response","65","89509","0.0-93.0","3X3OR7WPZ0M6TCB0IC3GGRNHPU2L8U","A2APG8MSLJ6G2K","3THR0FZ95PF7SK0MYRNAOUHTWDJOLG","","265.7000000476837","img/food2.png","75","266.19999980926514","2","0","false","3","2","1,0.5,0,1,0.5,0,0.5,0,1","0,1,0.5,0,1,0.5,1,0.5,0","3",""
"","html-keyboard-response","66","89810","0.0-94.0","3X3OR7WPZ0M6TCB0IC3GGRNHPU2L8U","A2APG8MSLJ6G2K","3THR0FZ95PF7SK0MYRNAOUHTWDJOLG","","null","<img src=""img/food2.png"" style=""width:200px;border:14px solid red;"">","null","","","","","","","","","",""
"","image-keyboard-response","67","90157","0.0-96.0","3X3OR7WPZ0M6TCB0IC3GGRNHPU2L8U","A2APG8MSLJ6G2K","3THR0FZ95PF7SK0MYRNAOUHTWDJOLG","","346.09999990463257","img/food2.png","76","346.59999990463257","3","0","false","3","2","1,0.5,0,1,0.5,0,0.5,0,1","0,1,0.5,0,1,0.5,1,0.5,0","3",""
"","html-keyboard-response","68","90459","0.0-97.0","3X3OR7WPZ0M6TCB0IC3GGRNHPU2L8U","A2APG8MSLJ6G2K","3THR0FZ95PF7SK0MYRNAOUHTWDJOLG","","null","<img src=""img/food2.png"" style=""width:200px;border:14px solid red;"">","null","","","","","","","","","",""
"","image-keyboard-response","69","90661","0.0-99.0","3X3OR7WPZ0M6TCB0IC3GGRNHPU2L8U","A2APG8MSLJ6G2K","3THR0FZ95PF7SK0MYRNAOUHTWDJOLG","","200.80000019073486","img/food6.png","75","201.79999995231628","2","1","false","1","2","1,0.5,0,1,0.5,0,0.5,0,1","0,1,0.5,0,1,0.5,1,0.5,0","3",""
"","html-keyboard-response","70","90962","0.0-100.0","3X3OR7WPZ0M6TCB0IC3GGRNHPU2L8U","A2APG8MSLJ6G2K","3THR0FZ95PF7SK0MYRNAOUHTWDJOLG","","null","<img src=""img/food6.png"" style=""width:200px; border:14px solid green;"">","null","","","","","","","","","",""
"","image-keyboard-response","71","91205","0.0-102.0","3X3OR7WPZ0M6TCB0IC3GGRNHPU2L8U","A2APG8MSLJ6G2K","3THR0FZ95PF7SK0MYRNAOUHTWDJOLG","","241.90000009536743","img/food6.png","75","242.39999985694885","2","1","false","1","2","1,0.5,0,1,0.5,0,0.5,0,1","0,1,0.5,0,1,0.5,1,0.5,0","3",""
"","html-keyboard-response","72","91507","0.0-103.0","3X3OR7WPZ0M6TCB0IC3GGRNHPU2L8U","A2APG8MSLJ6G2K","3THR0FZ95PF7SK0MYRNAOUHTWDJOLG","","null","<img src=""img/food6.png"" style=""width:200px; border:14px solid green;"">","null","","","","","","","","","",""
"","image-keyboard-response","73","91757","0.0-105.0","3X3OR7WPZ0M6TCB0IC3GGRNHPU2L8U","A2APG8MSLJ6G2K","3THR0FZ95PF7SK0MYRNAOUHTWDJOLG","","249.70000004768372","img/food2.png","75","250.29999995231628","2","1","false","3","2","1,0.5,0,1,0.5,0,0.5,0,1","0,1,0.5,0,1,0.5,1,0.5,0","3",""
"","html-keyboard-response","74","92059","0.0-106.0","3X3OR7WPZ0M6TCB0IC3GGRNHPU2L8U","A2APG8MSLJ6G2K","3THR0FZ95PF7SK0MYRNAOUHTWDJOLG","","null","<img src=""img/food2.png"" style=""width:200px; border:14px solid green;"">","null","","","","","","","","","",""
"","image-keyboard-response","75","92268","0.0-108.0","3X3OR7WPZ0M6TCB0IC3GGRNHPU2L8U","A2APG8MSLJ6G2K","3THR0FZ95PF7SK0MYRNAOUHTWDJOLG","","208.89999985694885","img/food1.png","75","209.5","2","1","false","2","2","1,0.5,0,1,0.5,0,0.5,0,1","0,1,0.5,0,1,0.5,1,0.5,0","3",""
"","html-keyboard-response","76","92570","0.0-109.0","3X3OR7WPZ0M6TCB0IC3GGRNHPU2L8U","A2APG8MSLJ6G2K","3THR0FZ95PF7SK0MYRNAOUHTWDJOLG","","null","<img src=""img/food1.png"" style=""width:200px; border:14px solid green;"">","null","","","","","","","","","",""
"","image-keyboard-response","77","92748","0.0-111.0","3X3OR7WPZ0M6TCB0IC3GGRNHPU2L8U","A2APG8MSLJ6G2K","3THR0FZ95PF7SK0MYRNAOUHTWDJOLG","","177.90000009536743","img/food6.png","75","178.40000009536743","2","1","false","1","2","1,0.5,0,1,0.5,0,0.5,0,1","0,1,0.5,0,1,0.5,1,0.5,0","3",""
"","html-keyboard-response","78","93050","0.0-112.0","3X3OR7WPZ0M6TCB0IC3GGRNHPU2L8U","A2APG8MSLJ6G2K","3THR0FZ95PF7SK0MYRNAOUHTWDJOLG","","null","<img src=""img/food6.png"" style=""width:200px; border:14px solid green;"">","null","","","","","","","","","",""
"","image-keyboard-response","79","93189","0.0-114.0","3X3OR7WPZ0M6TCB0IC3GGRNHPU2L8U","A2APG8MSLJ6G2K","3THR0FZ95PF7SK0MYRNAOUHTWDJOLG","","138.20000004768372","img/food1.png","75","138.90000009536743","2","1","false","2","2","1,0.5,0,1,0.5,0,0.5,0,1","0,1,0.5,0,1,0.5,1,0.5,0","3",""
"","html-keyboard-response","80","93492","0.0-115.0","3X3OR7WPZ0M6TCB0IC3GGRNHPU2L8U","A2APG8MSLJ6G2K","3THR0FZ95PF7SK0MYRNAOUHTWDJOLG","","null","<img src=""img/food1.png"" style=""width:200px; border:14px solid green;"">","null","","","","","","","","","",""
"","image-keyboard-response","81","93653","0.0-117.0","3X3OR7WPZ0M6TCB0IC3GGRNHPU2L8U","A2APG8MSLJ6G2K","3THR0FZ95PF7SK0MYRNAOUHTWDJOLG","","160.09999990463257","img/food2.png","75","160.89999985694885","2","0","false","3","2","1,0.5,0,1,0.5,0,0.5,0,1","0,1,0.5,0,1,0.5,1,0.5,0","3",""
"","html-keyboard-response","82","93955","0.0-118.0","3X3OR7WPZ0M6TCB0IC3GGRNHPU2L8U","A2APG8MSLJ6G2K","3THR0FZ95PF7SK0MYRNAOUHTWDJOLG","","null","<img src=""img/food2.png"" style=""width:200px;border:14px solid red;"">","null","","","","","","","","","",""
"","image-keyboard-response","83","94477","0.0-120.0","3X3OR7WPZ0M6TCB0IC3GGRNHPU2L8U","A2APG8MSLJ6G2K","3THR0FZ95PF7SK0MYRNAOUHTWDJOLG","","521.2000000476837","img/food2.png","74","521.9000000953674","1","1","false","3","2","1,0.5,0,1,0.5,0,0.5,0,1","0,1,0.5,0,1,0.5,1,0.5,0","3",""
"","html-keyboard-response","84","94778","0.0-121.0","3X3OR7WPZ0M6TCB0IC3GGRNHPU2L8U","A2APG8MSLJ6G2K","3THR0FZ95PF7SK0MYRNAOUHTWDJOLG","","null","<img src=""img/food2.png"" style=""width:200px; border:14px solid green;"">","null","","","","","","","","","",""
"","image-keyboard-response","85","95108","0.0-123.0","3X3OR7WPZ0M6TCB0IC3GGRNHPU2L8U","A2APG8MSLJ6G2K","3THR0FZ95PF7SK0MYRNAOUHTWDJOLG","","329.5","img/food1.png","74","330.2000000476837","1","0","false","2","2","1,0.5,0,1,0.5,0,0.5,0,1","0,1,0.5,0,1,0.5,1,0.5,0","3",""
"","html-keyboard-response","86","95410","0.0-124.0","3X3OR7WPZ0M6TCB0IC3GGRNHPU2L8U","A2APG8MSLJ6G2K","3THR0FZ95PF7SK0MYRNAOUHTWDJOLG","","null","<img src=""img/food1.png"" style=""width:200px;border:14px solid red;"">","null","","","","","","","","","",""
"","image-keyboard-response","87","95757","0.0-126.0","3X3OR7WPZ0M6TCB0IC3GGRNHPU2L8U","A2APG8MSLJ6G2K","3THR0FZ95PF7SK0MYRNAOUHTWDJOLG","","346.2999999523163","img/food2.png","76","346.89999985694885","3","0","false","3","2","1,0.5,0,1,0.5,0,0.5,0,1","0,1,0.5,0,1,0.5,1,0.5,0","3",""
"","html-keyboard-response","88","96058","0.0-127.0","3X3OR7WPZ0M6TCB0IC3GGRNHPU2L8U","A2APG8MSLJ6G2K","3THR0FZ95PF7SK0MYRNAOUHTWDJOLG","","null","<img src=""img/food2.png"" style=""width:200px;border:14px solid red;"">","null","","","","","","","","","",""
"","image-keyboard-response","89","96149","0.0-129.0","3X3OR7WPZ0M6TCB0IC3GGRNHPU2L8U","A2APG8MSLJ6G2K","3THR0FZ95PF7SK0MYRNAOUHTWDJOLG","","89.79999995231628","img/food1.png","75","90.60000014305115","2","1","false","2","2","1,0.5,0,1,0.5,0,0.5,0,1","0,1,0.5,0,1,0.5,1,0.5,0","3",""
"","html-keyboard-response","90","96450","0.0-130.0","3X3OR7WPZ0M6TCB0IC3GGRNHPU2L8U","A2APG8MSLJ6G2K","3THR0FZ95PF7SK0MYRNAOUHTWDJOLG","","null","<img src=""img/food1.png"" style=""width:200px; border:14px solid green;"">","null","","","","","","","","","",""
"","image-keyboard-response","91","96788","0.0-132.0","3X3OR7WPZ0M6TCB0IC3GGRNHPU2L8U","A2APG8MSLJ6G2K","3THR0FZ95PF7SK0MYRNAOUHTWDJOLG","","337","img/food6.png","75","337.7999999523163","2","1","false","1","2","1,0.5,0,1,0.5,0,0.5,0,1","0,1,0.5,0,1,0.5,1,0.5,0","3",""
"","html-keyboard-response","92","97090","0.0-133.0","3X3OR7WPZ0M6TCB0IC3GGRNHPU2L8U","A2APG8MSLJ6G2K","3THR0FZ95PF7SK0MYRNAOUHTWDJOLG","","null","<img src=""img/food6.png"" style=""width:200px; border:14px solid green;"">","null","","","","","","","","","",""
"","image-keyboard-response","93","97173","0.0-135.0","3X3OR7WPZ0M6TCB0IC3GGRNHPU2L8U","A2APG8MSLJ6G2K","3THR0FZ95PF7SK0MYRNAOUHTWDJOLG","","82.19999980926514","img/food1.png","75","82.80000019073486","2","1","false","2","2","1,0.5,0,1,0.5,0,0.5,0,1","0,1,0.5,0,1,0.5,1,0.5,0","3",""
"","html-keyboard-response","94","97475","0.0-136.0","3X3OR7WPZ0M6TCB0IC3GGRNHPU2L8U","A2APG8MSLJ6G2K","3THR0FZ95PF7SK0MYRNAOUHTWDJOLG","","null","<img src=""img/food1.png"" style=""width:200px; border:14px solid green;"">","null","","","","","","","","","",""
"","image-keyboard-response","95","97692","0.0-138.0","3X3OR7WPZ0M6TCB0IC3GGRNHPU2L8U","A2APG8MSLJ6G2K","3THR0FZ95PF7SK0MYRNAOUHTWDJOLG","","216.70000004768372","img/food2.png","75","217.29999995231628","2","1","false","3","2","1,0.5,0,1,0.5,0,0.5,0,1","0,1,0.5,0,1,0.5,1,0.5,0","3",""
"","html-keyboard-response","96","97994","0.0-139.0","3X3OR7WPZ0M6TCB0IC3GGRNHPU2L8U","A2APG8MSLJ6G2K","3THR0FZ95PF7SK0MYRNAOUHTWDJOLG","","null","<img src=""img/food2.png"" style=""width:200px; border:14px solid green;"">","null","","","","","","","","","",""
"","image-keyboard-response","97","98252","0.0-141.0","3X3OR7WPZ0M6TCB0IC3GGRNHPU2L8U","A2APG8MSLJ6G2K","3THR0FZ95PF7SK0MYRNAOUHTWDJOLG","","257.59999990463257","img/food1.png","75","258","2","1","false","2","2","1,0.5,0,1,0.5,0,0.5,0,1","0,1,0.5,0,1,0.5,1,0.5,0","3",""
"","html-keyboard-response","98","98553","0.0-142.0","3X3OR7WPZ0M6TCB0IC3GGRNHPU2L8U","A2APG8MSLJ6G2K","3THR0FZ95PF7SK0MYRNAOUHTWDJOLG","","null","<img src=""img/food1.png"" style=""width:200px; border:14px solid green;"">","null","","","","","","","","","",""
"","image-keyboard-response","99","98797","0.0-144.0","3X3OR7WPZ0M6TCB0IC3GGRNHPU2L8U","A2APG8MSLJ6G2K","3THR0FZ95PF7SK0MYRNAOUHTWDJOLG","","242.10000014305115","img/food2.png","75","242.90000009536743","2","0","false","3","2","1,0.5,0,1,0.5,0,0.5,0,1","0,1,0.5,0,1,0.5,1,0.5,0","3",""
"","html-keyboard-response","100","99099","0.0-145.0","3X3OR7WPZ0M6TCB0IC3GGRNHPU2L8U","A2APG8MSLJ6G2K","3THR0FZ95PF7SK0MYRNAOUHTWDJOLG","","null","<img src=""img/food2.png"" style=""width:200px;border:14px solid red;"">","null","","","","","","","","","",""
"","image-keyboard-response","101","99549","0.0-147.0","3X3OR7WPZ0M6TCB0IC3GGRNHPU2L8U","A2APG8MSLJ6G2K","3THR0FZ95PF7SK0MYRNAOUHTWDJOLG","","449.09999990463257","img/food2.png","74","449.5","1","1","false","3","2","1,0.5,0,1,0.5,0,0.5,0,1","0,1,0.5,0,1,0.5,1,0.5,0","3",""
"","html-keyboard-response","102","99850","0.0-148.0","3X3OR7WPZ0M6TCB0IC3GGRNHPU2L8U","A2APG8MSLJ6G2K","3THR0FZ95PF7SK0MYRNAOUHTWDJOLG","","null","<img src=""img/food2.png"" style=""width:200px; border:14px solid green;"">","null","","","","","","","","","",""
"","image-keyboard-response","103","100149","0.0-150.0","3X3OR7WPZ0M6TCB0IC3GGRNHPU2L8U","A2APG8MSLJ6G2K","3THR0FZ95PF7SK0MYRNAOUHTWDJOLG","","297.59999990463257","img/food6.png","74","298.2000000476837","1","0","false","1","2","1,0.5,0,1,0.5,0,0.5,0,1","0,1,0.5,0,1,0.5,1,0.5,0","3",""
"","html-keyboard-response","104","100451","0.0-151.0","3X3OR7WPZ0M6TCB0IC3GGRNHPU2L8U","A2APG8MSLJ6G2K","3THR0FZ95PF7SK0MYRNAOUHTWDJOLG","","null","<img src=""img/food6.png"" style=""width:200px;border:14px solid red;"">","null","","","","","","","","","",""
"","image-keyboard-response","105","100717","0.0-153.0","3X3OR7WPZ0M6TCB0IC3GGRNHPU2L8U","A2APG8MSLJ6G2K","3THR0FZ95PF7SK0MYRNAOUHTWDJOLG","","264.7999999523163","img/food6.png","76","265.40000009536743","3","1","false","1","2","1,0.5,0,1,0.5,0,0.5,0,1","0,1,0.5,0,1,0.5,1,0.5,0","3",""
"","html-keyboard-response","106","101018","0.0-154.0","3X3OR7WPZ0M6TCB0IC3GGRNHPU2L8U","A2APG8MSLJ6G2K","3THR0FZ95PF7SK0MYRNAOUHTWDJOLG","","null","<img src=""img/food6.png"" style=""width:200px; border:14px solid green;"">","null","","","","","","","","","",""
"","image-keyboard-response","107","101308","0.0-156.0","3X3OR7WPZ0M6TCB0IC3GGRNHPU2L8U","A2APG8MSLJ6G2K","3THR0FZ95PF7SK0MYRNAOUHTWDJOLG","","288.5","img/food2.png","76","289.2999999523163","3","0","false","3","2","1,0.5,0,1,0.5,0,0.5,0,1","0,1,0.5,0,1,0.5,1,0.5,0","3",""
"","html-keyboard-response","108","101609","0.0-157.0","3X3OR7WPZ0M6TCB0IC3GGRNHPU2L8U","A2APG8MSLJ6G2K","3THR0FZ95PF7SK0MYRNAOUHTWDJOLG","","null","<img src=""img/food2.png"" style=""width:200px;border:14px solid red;"">","null","","","","","","","","","",""
"","image-keyboard-response","109","101685","0.0-159.0","3X3OR7WPZ0M6TCB0IC3GGRNHPU2L8U","A2APG8MSLJ6G2K","3THR0FZ95PF7SK0MYRNAOUHTWDJOLG","","74.40000009536743","img/food6.png","75","75","2","1","false","1","2","1,0.5,0,1,0.5,0,0.5,0,1","0,1,0.5,0,1,0.5,1,0.5,0","3",""
"","html-keyboard-response","110","101987","0.0-160.0","3X3OR7WPZ0M6TCB0IC3GGRNHPU2L8U","A2APG8MSLJ6G2K","3THR0FZ95PF7SK0MYRNAOUHTWDJOLG","","null","<img src=""img/food6.png"" style=""width:200px; border:14px solid green;"">","null","","","","","","","","","",""
"","image-keyboard-response","111","102117","0.0-162.0","3X3OR7WPZ0M6TCB0IC3GGRNHPU2L8U","A2APG8MSLJ6G2K","3THR0FZ95PF7SK0MYRNAOUHTWDJOLG","","129.10000014305115","img/food2.png","75","129.59999990463257","2","1","false","3","2","1,0.5,0,1,0.5,0,0.5,0,1","0,1,0.5,0,1,0.5,1,0.5,0","3",""
"","html-keyboard-response","112","102419","0.0-163.0","3X3OR7WPZ0M6TCB0IC3GGRNHPU2L8U","A2APG8MSLJ6G2K","3THR0FZ95PF7SK0MYRNAOUHTWDJOLG","","null","<img src=""img/food2.png"" style=""width:200px; border:14px solid green;"">","null","","","","","","","","","",""
"","image-keyboard-response","113","102781","0.0-165.0","3X3OR7WPZ0M6TCB0IC3GGRNHPU2L8U","A2APG8MSLJ6G2K","3THR0FZ95PF7SK0MYRNAOUHTWDJOLG","","360.80000019073486","img/food1.png","75","361.5","2","1","false","2","2","1,0.5,0,1,0.5,0,0.5,0,1","0,1,0.5,0,1,0.5,1,0.5,0","3",""
"","html-keyboard-response","114","103082","0.0-166.0","3X3OR7WPZ0M6TCB0IC3GGRNHPU2L8U","A2APG8MSLJ6G2K","3THR0FZ95PF7SK0MYRNAOUHTWDJOLG","","null","<img src=""img/food1.png"" style=""width:200px; border:14px solid green;"">","null","","","","","","","","","",""
"","image-keyboard-response","115","103293","0.0-168.0","3X3OR7WPZ0M6TCB0IC3GGRNHPU2L8U","A2APG8MSLJ6G2K","3THR0FZ95PF7SK0MYRNAOUHTWDJOLG","","210.19999980926514","img/food2.png","75","210.79999995231628","2","0","false","3","2","1,0.5,0,1,0.5,0,0.5,0,1","0,1,0.5,0,1,0.5,1,0.5,0","3",""
"","html-keyboard-response","116","103595","0.0-169.0","3X3OR7WPZ0M6TCB0IC3GGRNHPU2L8U","A2APG8MSLJ6G2K","3THR0FZ95PF7SK0MYRNAOUHTWDJOLG","","null","<img src=""img/food2.png"" style=""width:200px;border:14px solid red;"">","null","","","","","","","","","",""
"","image-keyboard-response","117","104268","0.0-171.0","3X3OR7WPZ0M6TCB0IC3GGRNHPU2L8U","A2APG8MSLJ6G2K","3THR0FZ95PF7SK0MYRNAOUHTWDJOLG","","672.3999998569489","img/food6.png","74","673","1","0","false","1","2","1,0.5,0,1,0.5,0,0.5,0,1","0,1,0.5,0,1,0.5,1,0.5,0","3",""
"","html-keyboard-response","118","104570","0.0-172.0","3X3OR7WPZ0M6TCB0IC3GGRNHPU2L8U","A2APG8MSLJ6G2K","3THR0FZ95PF7SK0MYRNAOUHTWDJOLG","","null","<img src=""img/food6.png"" style=""width:200px;border:14px solid red;"">","null","","","","","","","","","",""
"","image-keyboard-response","119","104861","0.0-174.0","3X3OR7WPZ0M6TCB0IC3GGRNHPU2L8U","A2APG8MSLJ6G2K","3THR0FZ95PF7SK0MYRNAOUHTWDJOLG","","289.80000019073486","img/food1.png","76","290.39999985694885","3","0","false","2","2","1,0.5,0,1,0.5,0,0.5,0,1","0,1,0.5,0,1,0.5,1,0.5,0","3",""
"","html-keyboard-response","120","105162","0.0-175.0","3X3OR7WPZ0M6TCB0IC3GGRNHPU2L8U","A2APG8MSLJ6G2K","3THR0FZ95PF7SK0MYRNAOUHTWDJOLG","","null","<img src=""img/food1.png"" style=""width:200px;border:14px solid red;"">","null","","","","","","","","","",""
"","image-keyboard-response","121","105308","0.0-177.0","3X3OR7WPZ0M6TCB0IC3GGRNHPU2L8U","A2APG8MSLJ6G2K","3THR0FZ95PF7SK0MYRNAOUHTWDJOLG","","145.5","img/food6.png","76","146.10000014305115","3","0","false","1","2","1,0.5,0,1,0.5,0,0.5,0,1","0,1,0.5,0,1,0.5,1,0.5,0","3",""
"","html-keyboard-response","122","105611","0.0-178.0","3X3OR7WPZ0M6TCB0IC3GGRNHPU2L8U","A2APG8MSLJ6G2K","3THR0FZ95PF7SK0MYRNAOUHTWDJOLG","","null","<img src=""img/food6.png"" style=""width:200px;border:14px solid red;"">","null","","","","","","","","","",""
"","image-keyboard-response","123","105637","0.0-180.0","3X3OR7WPZ0M6TCB0IC3GGRNHPU2L8U","A2APG8MSLJ6G2K","3THR0FZ95PF7SK0MYRNAOUHTWDJOLG","","23.299999952316284","img/food6.png","75","23.899999856948853","2","1","false","1","2","1,0.5,0,1,0.5,0,0.5,0,1","0,1,0.5,0,1,0.5,1,0.5,0","3",""
"","html-keyboard-response","124","105938","0.0-181.0","3X3OR7WPZ0M6TCB0IC3GGRNHPU2L8U","A2APG8MSLJ6G2K","3THR0FZ95PF7SK0MYRNAOUHTWDJOLG","","null","<img src=""img/food6.png"" style=""width:200px; border:14px solid green;"">","null","","","","","","","","","",""
"","image-keyboard-response","125","106252","0.0-183.0","3X3OR7WPZ0M6TCB0IC3GGRNHPU2L8U","A2APG8MSLJ6G2K","3THR0FZ95PF7SK0MYRNAOUHTWDJOLG","","313.7999999523163","img/food6.png","75","314.40000009536743","2","1","false","1","2","1,0.5,0,1,0.5,0,0.5,0,1","0,1,0.5,0,1,0.5,1,0.5,0","3",""
"","html-keyboard-response","126","106554","0.0-184.0","3X3OR7WPZ0M6TCB0IC3GGRNHPU2L8U","A2APG8MSLJ6G2K","3THR0FZ95PF7SK0MYRNAOUHTWDJOLG","","null","<img src=""img/food6.png"" style=""width:200px; border:14px solid green;"">","null","","","","","","","","","",""
"","image-keyboard-response","127","106804","0.0-186.0","3X3OR7WPZ0M6TCB0IC3GGRNHPU2L8U","A2APG8MSLJ6G2K","3THR0FZ95PF7SK0MYRNAOUHTWDJOLG","","249.79999995231628","img/food6.png","75","250.5","2","1","false","1","2","1,0.5,0,1,0.5,0,0.5,0,1","0,1,0.5,0,1,0.5,1,0.5,0","3",""
"","html-keyboard-response","128","107106","0.0-187.0","3X3OR7WPZ0M6TCB0IC3GGRNHPU2L8U","A2APG8MSLJ6G2K","3THR0FZ95PF7SK0MYRNAOUHTWDJOLG","","null","<img src=""img/food6.png"" style=""width:200px; border:14px solid green;"">","null","","","","","","","","","",""
"","image-keyboard-response","129","107340","0.0-189.0","3X3OR7WPZ0M6TCB0IC3GGRNHPU2L8U","A2APG8MSLJ6G2K","3THR0FZ95PF7SK0MYRNAOUHTWDJOLG","","233.90000009536743","img/food1.png","75","234.5","2","1","false","2","2","1,0.5,0,1,0.5,0,0.5,0,1","0,1,0.5,0,1,0.5,1,0.5,0","3",""
"","html-keyboard-response","130","107642","0.0-190.0","3X3OR7WPZ0M6TCB0IC3GGRNHPU2L8U","A2APG8MSLJ6G2K","3THR0FZ95PF7SK0MYRNAOUHTWDJOLG","","null","<img src=""img/food1.png"" style=""width:200px; border:14px solid green;"">","null","","","","","","","","","",""
"","image-keyboard-response","131","108141","0.0-192.0","3X3OR7WPZ0M6TCB0IC3GGRNHPU2L8U","A2APG8MSLJ6G2K","3THR0FZ95PF7SK0MYRNAOUHTWDJOLG","","497.7999999523163","img/food1.png","75","498.40000009536743","2","1","false","2","2","1,0.5,0,1,0.5,0,0.5,0,1","0,1,0.5,0,1,0.5,1,0.5,0","3",""
"","html-keyboard-response","132","108442","0.0-193.0","3X3OR7WPZ0M6TCB0IC3GGRNHPU2L8U","A2APG8MSLJ6G2K","3THR0FZ95PF7SK0MYRNAOUHTWDJOLG","","null","<img src=""img/food1.png"" style=""width:200px; border:14px solid green;"">","null","","","","","","","","","",""
"","image-keyboard-response","133","108604","0.0-195.0","3X3OR7WPZ0M6TCB0IC3GGRNHPU2L8U","A2APG8MSLJ6G2K","3THR0FZ95PF7SK0MYRNAOUHTWDJOLG","","161.20000004768372","img/food1.png","75","161.70000004768372","2","1","false","2","2","1,0.5,0,1,0.5,0,0.5,0,1","0,1,0.5,0,1,0.5,1,0.5,0","3",""
"","html-keyboard-response","134","108905","0.0-196.0","3X3OR7WPZ0M6TCB0IC3GGRNHPU2L8U","A2APG8MSLJ6G2K","3THR0FZ95PF7SK0MYRNAOUHTWDJOLG","","null","<img src=""img/food1.png"" style=""width:200px; border:14px solid green;"">","null","","","","","","","","","",""
"","image-keyboard-response","135","109181","0.0-198.0","3X3OR7WPZ0M6TCB0IC3GGRNHPU2L8U","A2APG8MSLJ6G2K","3THR0FZ95PF7SK0MYRNAOUHTWDJOLG","","274.09999990463257","img/food1.png","75","274.89999985694885","2","1","false","2","2","1,0.5,0,1,0.5,0,0.5,0,1","0,1,0.5,0,1,0.5,1,0.5,0","3",""
"","html-keyboard-response","136","109482","0.0-199.0","3X3OR7WPZ0M6TCB0IC3GGRNHPU2L8U","A2APG8MSLJ6G2K","3THR0FZ95PF7SK0MYRNAOUHTWDJOLG","","null","<img src=""img/food1.png"" style=""width:200px; border:14px solid green;"">","null","","","","","","","","","",""
"","image-keyboard-response","137","109653","0.0-201.0","3X3OR7WPZ0M6TCB0IC3GGRNHPU2L8U","A2APG8MSLJ6G2K","3THR0FZ95PF7SK0MYRNAOUHTWDJOLG","","169.09999990463257","img/food2.png","75","169.89999985694885","2","1","false","3","2","1,0.5,0,1,0.5,0,0.5,0,1","0,1,0.5,0,1,0.5,1,0.5,0","3",""
"","html-keyboard-response","138","109954","0.0-202.0","3X3OR7WPZ0M6TCB0IC3GGRNHPU2L8U","A2APG8MSLJ6G2K","3THR0FZ95PF7SK0MYRNAOUHTWDJOLG","","null","<img src=""img/food2.png"" style=""width:200px; border:14px solid green;"">","null","","","","","","","","","",""
"","image-keyboard-response","139","110357","0.0-204.0","3X3OR7WPZ0M6TCB0IC3GGRNHPU2L8U","A2APG8MSLJ6G2K","3THR0FZ95PF7SK0MYRNAOUHTWDJOLG","","402.2000000476837","img/food1.png","75","402.90000009536743","2","1","false","2","2","1,0.5,0,1,0.5,0,0.5,0,1","0,1,0.5,0,1,0.5,1,0.5,0","3",""
"","html-keyboard-response","140","110658","0.0-205.0","3X3OR7WPZ0M6TCB0IC3GGRNHPU2L8U","A2APG8MSLJ6G2K","3THR0FZ95PF7SK0MYRNAOUHTWDJOLG","","null","<img src=""img/food1.png"" style=""width:200px; border:14px solid green;"">","null","","","","","","","","","",""
"","image-keyboard-response","141","111652","0.0-207.0","3X3OR7WPZ0M6TCB0IC3GGRNHPU2L8U","A2APG8MSLJ6G2K","3THR0FZ95PF7SK0MYRNAOUHTWDJOLG","","992.7999999523163","img/food6.png","75","993.7000000476837","2","1","false","1","2","1,0.5,0,1,0.5,0,0.5,0,1","0,1,0.5,0,1,0.5,1,0.5,0","3",""
"","html-keyboard-response","142","111953","0.0-208.0","3X3OR7WPZ0M6TCB0IC3GGRNHPU2L8U","A2APG8MSLJ6G2K","3THR0FZ95PF7SK0MYRNAOUHTWDJOLG","","null","<img src=""img/food6.png"" style=""width:200px; border:14px solid green;"">","null","","","","","","","","","",""
"","image-keyboard-response","143","112429","0.0-210.0","3X3OR7WPZ0M6TCB0IC3GGRNHPU2L8U","A2APG8MSLJ6G2K","3THR0FZ95PF7SK0MYRNAOUHTWDJOLG","","474.2000000476837","img/food1.png","75","474.7999999523163","2","1","false","2","2","1,0.5,0,1,0.5,0,0.5,0,1","0,1,0.5,0,1,0.5,1,0.5,0","3",""
"","html-keyboard-response","144","112730","0.0-211.0","3X3OR7WPZ0M6TCB0IC3GGRNHPU2L8U","A2APG8MSLJ6G2K","3THR0FZ95PF7SK0MYRNAOUHTWDJOLG","","null","<img src=""img/food1.png"" style=""width:200px; border:14px solid green;"">","null","","","","","","","","","",""
"","image-keyboard-response","145","112789","0.0-213.0","3X3OR7WPZ0M6TCB0IC3GGRNHPU2L8U","A2APG8MSLJ6G2K","3THR0FZ95PF7SK0MYRNAOUHTWDJOLG","","58.59999990463257","img/food1.png","75","59.200000047683716","2","1","false","2","2","1,0.5,0,1,0.5,0,0.5,0,1","0,1,0.5,0,1,0.5,1,0.5,0","3",""
"","html-keyboard-response","146","113091","0.0-214.0","3X3OR7WPZ0M6TCB0IC3GGRNHPU2L8U","A2APG8MSLJ6G2K","3THR0FZ95PF7SK0MYRNAOUHTWDJOLG","","null","<img src=""img/food1.png"" style=""width:200px; border:14px solid green;"">","null","","","","","","","","","",""
"","image-keyboard-response","147","113541","0.0-216.0","3X3OR7WPZ0M6TCB0IC3GGRNHPU2L8U","A2APG8MSLJ6G2K","3THR0FZ95PF7SK0MYRNAOUHTWDJOLG","","449.2000000476837","img/food6.png","75","449.7999999523163","2","1","false","1","2","1,0.5,0,1,0.5,0,0.5,0,1","0,1,0.5,0,1,0.5,1,0.5,0","3",""
"","html-keyboard-response","148","113842","0.0-217.0","3X3OR7WPZ0M6TCB0IC3GGRNHPU2L8U","A2APG8MSLJ6G2K","3THR0FZ95PF7SK0MYRNAOUHTWDJOLG","","null","<img src=""img/food6.png"" style=""width:200px; border:14px solid green;"">","null","","","","","","","","","",""
"","image-keyboard-response","149","113973","0.0-219.0","3X3OR7WPZ0M6TCB0IC3GGRNHPU2L8U","A2APG8MSLJ6G2K","3THR0FZ95PF7SK0MYRNAOUHTWDJOLG","","129.70000004768372","img/food2.png","75","130.29999995231628","2","0","false","3","2","1,0.5,0,1,0.5,0,0.5,0,1","0,1,0.5,0,1,0.5,1,0.5,0","3",""
"","html-keyboard-response","150","114275","0.0-220.0","3X3OR7WPZ0M6TCB0IC3GGRNHPU2L8U","A2APG8MSLJ6G2K","3THR0FZ95PF7SK0MYRNAOUHTWDJOLG","","null","<img src=""img/food2.png"" style=""width:200px;border:14px solid red;"">","null","","","","","","","","","",""
"","image-keyboard-response","151","115277","0.0-222.0","3X3OR7WPZ0M6TCB0IC3GGRNHPU2L8U","A2APG8MSLJ6G2K","3THR0FZ95PF7SK0MYRNAOUHTWDJOLG","","","img/food6.png","","1001.5","-1","0","true","1","2","1,0.5,0,1,0.5,0,0.5,0,1","0,1,0.5,0,1,0.5,1,0.5,0","3",""
"","html-keyboard-response","152","115579","0.0-223.0","3X3OR7WPZ0M6TCB0IC3GGRNHPU2L8U","A2APG8MSLJ6G2K","3THR0FZ95PF7SK0MYRNAOUHTWDJOLG","","null","<img src=""img/food6.png"" style=""width:200px;border:14px solid red;"">","null","","","","","","","","","",""
"","html-keyboard-response","153","117999","0.0-224.0-0.0","3X3OR7WPZ0M6TCB0IC3GGRNHPU2L8U","A2APG8MSLJ6G2K","3THR0FZ95PF7SK0MYRNAOUHTWDJOLG","","","","","","","","","","","","","",""
"","image-keyboard-response","154","118668","0.0-225.0","3X3OR7WPZ0M6TCB0IC3GGRNHPU2L8U","A2APG8MSLJ6G2K","3THR0FZ95PF7SK0MYRNAOUHTWDJOLG","","668.3999998569489","img/food2.png","76","669","3","0","false","3","2","1,0.5,0,1,0.5,0,0.5,0,1","0,1,0.5,0,1,0.5,1,0.5,0","3",""
"","html-keyboard-response","155","118971","0.0-226.0","3X3OR7WPZ0M6TCB0IC3GGRNHPU2L8U","A2APG8MSLJ6G2K","3THR0FZ95PF7SK0MYRNAOUHTWDJOLG","","null","<img src=""img/food2.png"" style=""width:200px;border:14px solid red;"">","null","","","","","","","","","",""
"","image-keyboard-response","156","119309","0.0-228.0","3X3OR7WPZ0M6TCB0IC3GGRNHPU2L8U","A2APG8MSLJ6G2K","3THR0FZ95PF7SK0MYRNAOUHTWDJOLG","","337.80000019073486","img/food1.png","74","338.2999999523163","1","0","false","2","2","1,0.5,0,1,0.5,0,0.5,0,1","0,1,0.5,0,1,0.5,1,0.5,0","3",""
"","html-keyboard-response","157","119611","0.0-229.0","3X3OR7WPZ0M6TCB0IC3GGRNHPU2L8U","A2APG8MSLJ6G2K","3THR0FZ95PF7SK0MYRNAOUHTWDJOLG","","null","<img src=""img/food1.png"" style=""width:200px;border:14px solid red;"">","null","","","","","","","","","",""
"","image-keyboard-response","158","119869","0.0-231.0","3X3OR7WPZ0M6TCB0IC3GGRNHPU2L8U","A2APG8MSLJ6G2K","3THR0FZ95PF7SK0MYRNAOUHTWDJOLG","","256.90000009536743","img/food2.png","75","257.59999990463257","2","1","false","3","2","1,0.5,0,1,0.5,0,0.5,0,1","0,1,0.5,0,1,0.5,1,0.5,0","3",""
"","html-keyboard-response","159","120171","0.0-232.0","3X3OR7WPZ0M6TCB0IC3GGRNHPU2L8U","A2APG8MSLJ6G2K","3THR0FZ95PF7SK0MYRNAOUHTWDJOLG","","null","<img src=""img/food2.png"" style=""width:200px; border:14px solid green;"">","null","","","","","","","","","",""
"","image-keyboard-response","160","120541","0.0-234.0","3X3OR7WPZ0M6TCB0IC3GGRNHPU2L8U","A2APG8MSLJ6G2K","3THR0FZ95PF7SK0MYRNAOUHTWDJOLG","","369.60000014305115","img/food1.png","75","370.2000000476837","2","1","false","2","2","1,0.5,0,1,0.5,0,0.5,0,1","0,1,0.5,0,1,0.5,1,0.5,0","3",""
"","html-keyboard-response","161","120843","0.0-235.0","3X3OR7WPZ0M6TCB0IC3GGRNHPU2L8U","A2APG8MSLJ6G2K","3THR0FZ95PF7SK0MYRNAOUHTWDJOLG","","null","<img src=""img/food1.png"" style=""width:200px; border:14px solid green;"">","null","","","","","","","","","",""
"","image-keyboard-response","162","121101","0.0-237.0","3X3OR7WPZ0M6TCB0IC3GGRNHPU2L8U","A2APG8MSLJ6G2K","3THR0FZ95PF7SK0MYRNAOUHTWDJOLG","","257.7999999523163","img/food2.png","75","258.40000009536743","2","0","false","3","2","1,0.5,0,1,0.5,0,0.5,0,1","0,1,0.5,0,1,0.5,1,0.5,0","3",""
"","html-keyboard-response","163","121403","0.0-238.0","3X3OR7WPZ0M6TCB0IC3GGRNHPU2L8U","A2APG8MSLJ6G2K","3THR0FZ95PF7SK0MYRNAOUHTWDJOLG","","null","<img src=""img/food2.png"" style=""width:200px;border:14px solid red;"">","null","","","","","","","","","",""
"","image-keyboard-response","164","121549","0.0-240.0","3X3OR7WPZ0M6TCB0IC3GGRNHPU2L8U","A2APG8MSLJ6G2K","3THR0FZ95PF7SK0MYRNAOUHTWDJOLG","","145.5","img/food6.png","75","146.20000004768372","2","1","false","1","2","1,0.5,0,1,0.5,0,0.5,0,1","0,1,0.5,0,1,0.5,1,0.5,0","3",""
"","html-keyboard-response","165","121850","0.0-241.0","3X3OR7WPZ0M6TCB0IC3GGRNHPU2L8U","A2APG8MSLJ6G2K","3THR0FZ95PF7SK0MYRNAOUHTWDJOLG","","null","<img src=""img/food6.png"" style=""width:200px; border:14px solid green;"">","null","","","","","","","","","",""
"","image-keyboard-response","166","122061","0.0-243.0","3X3OR7WPZ0M6TCB0IC3GGRNHPU2L8U","A2APG8MSLJ6G2K","3THR0FZ95PF7SK0MYRNAOUHTWDJOLG","","210.09999990463257","img/food1.png","75","210.69999980926514","2","1","false","2","2","1,0.5,0,1,0.5,0,0.5,0,1","0,1,0.5,0,1,0.5,1,0.5,0","3",""
"","html-keyboard-response","167","122362","0.0-244.0","3X3OR7WPZ0M6TCB0IC3GGRNHPU2L8U","A2APG8MSLJ6G2K","3THR0FZ95PF7SK0MYRNAOUHTWDJOLG","","null","<img src=""img/food1.png"" style=""width:200px; border:14px solid green;"">","null","","","","","","","","","",""
"","image-keyboard-response","168","122645","0.0-246.0","3X3OR7WPZ0M6TCB0IC3GGRNHPU2L8U","A2APG8MSLJ6G2K","3THR0FZ95PF7SK0MYRNAOUHTWDJOLG","","282.2000000476837","img/food2.png","75","282.7999999523163","2","1","false","3","2","1,0.5,0,1,0.5,0,0.5,0,1","0,1,0.5,0,1,0.5,1,0.5,0","3",""
"","html-keyboard-response","169","122947","0.0-247.0","3X3OR7WPZ0M6TCB0IC3GGRNHPU2L8U","A2APG8MSLJ6G2K","3THR0FZ95PF7SK0MYRNAOUHTWDJOLG","","null","<img src=""img/food2.png"" style=""width:200px; border:14px solid green;"">","null","","","","","","","","","",""
"","image-keyboard-response","170","123221","0.0-249.0","3X3OR7WPZ0M6TCB0IC3GGRNHPU2L8U","A2APG8MSLJ6G2K","3THR0FZ95PF7SK0MYRNAOUHTWDJOLG","","273.2999999523163","img/food1.png","75","273.80000019073486","2","1","false","2","2","1,0.5,0,1,0.5,0,0.5,0,1","0,1,0.5,0,1,0.5,1,0.5,0","3",""
"","html-keyboard-response","171","123522","0.0-250.0","3X3OR7WPZ0M6TCB0IC3GGRNHPU2L8U","A2APG8MSLJ6G2K","3THR0FZ95PF7SK0MYRNAOUHTWDJOLG","","null","<img src=""img/food1.png"" style=""width:200px; border:14px solid green;"">","null","","","","","","","","","",""
"","image-keyboard-response","172","123773","0.0-252.0","3X3OR7WPZ0M6TCB0IC3GGRNHPU2L8U","A2APG8MSLJ6G2K","3THR0FZ95PF7SK0MYRNAOUHTWDJOLG","","249.70000004768372","img/food6.png","75","250.30000019073486","2","1","false","1","2","1,0.5,0,1,0.5,0,0.5,0,1","0,1,0.5,0,1,0.5,1,0.5,0","3",""
"","html-keyboard-response","173","124075","0.0-253.0","3X3OR7WPZ0M6TCB0IC3GGRNHPU2L8U","A2APG8MSLJ6G2K","3THR0FZ95PF7SK0MYRNAOUHTWDJOLG","","null","<img src=""img/food6.png"" style=""width:200px; border:14px solid green;"">","null","","","","","","","","","",""
"","image-keyboard-response","174","124349","0.0-255.0","3X3OR7WPZ0M6TCB0IC3GGRNHPU2L8U","A2APG8MSLJ6G2K","3THR0FZ95PF7SK0MYRNAOUHTWDJOLG","","273","img/food6.png","75","274","2","1","false","1","2","1,0.5,0,1,0.5,0,0.5,0,1","0,1,0.5,0,1,0.5,1,0.5,0","3",""
"","html-keyboard-response","175","124652","0.0-256.0","3X3OR7WPZ0M6TCB0IC3GGRNHPU2L8U","A2APG8MSLJ6G2K","3THR0FZ95PF7SK0MYRNAOUHTWDJOLG","","null","<img src=""img/food6.png"" style=""width:200px; border:14px solid green;"">","null","","","","","","","","","",""
"","image-keyboard-response","176","124861","0.0-258.0","3X3OR7WPZ0M6TCB0IC3GGRNHPU2L8U","A2APG8MSLJ6G2K","3THR0FZ95PF7SK0MYRNAOUHTWDJOLG","","208.70000004768372","img/food6.png","75","209.20000004768372","2","1","false","1","2","1,0.5,0,1,0.5,0,0.5,0,1","0,1,0.5,0,1,0.5,1,0.5,0","3",""
"","html-keyboard-response","177","125163","0.0-259.0","3X3OR7WPZ0M6TCB0IC3GGRNHPU2L8U","A2APG8MSLJ6G2K","3THR0FZ95PF7SK0MYRNAOUHTWDJOLG","","null","<img src=""img/food6.png"" style=""width:200px; border:14px solid green;"">","null","","","","","","","","","",""
"","image-keyboard-response","178","125349","0.0-261.0","3X3OR7WPZ0M6TCB0IC3GGRNHPU2L8U","A2APG8MSLJ6G2K","3THR0FZ95PF7SK0MYRNAOUHTWDJOLG","","185.29999995231628","img/food6.png","75","186.10000014305115","2","1","false","1","2","1,0.5,0,1,0.5,0,0.5,0,1","0,1,0.5,0,1,0.5,1,0.5,0","3",""
"","html-keyboard-response","179","125650","0.0-262.0","3X3OR7WPZ0M6TCB0IC3GGRNHPU2L8U","A2APG8MSLJ6G2K","3THR0FZ95PF7SK0MYRNAOUHTWDJOLG","","null","<img src=""img/food6.png"" style=""width:200px; border:14px solid green;"">","null","","","","","","","","","",""
"","image-keyboard-response","180","125821","0.0-264.0","3X3OR7WPZ0M6TCB0IC3GGRNHPU2L8U","A2APG8MSLJ6G2K","3THR0FZ95PF7SK0MYRNAOUHTWDJOLG","","170.59999990463257","img/food2.png","75","171.10000014305115","2","0","false","3","2","1,0.5,0,1,0.5,0,0.5,0,1","0,1,0.5,0,1,0.5,1,0.5,0","3",""
"","html-keyboard-response","181","126123","0.0-265.0","3X3OR7WPZ0M6TCB0IC3GGRNHPU2L8U","A2APG8MSLJ6G2K","3THR0FZ95PF7SK0MYRNAOUHTWDJOLG","","null","<img src=""img/food2.png"" style=""width:200px;border:14px solid red;"">","null","","","","","","","","","",""
"","image-keyboard-response","182","126421","0.0-267.0","3X3OR7WPZ0M6TCB0IC3GGRNHPU2L8U","A2APG8MSLJ6G2K","3THR0FZ95PF7SK0MYRNAOUHTWDJOLG","","297.80000019073486","img/food1.png","76","298.39999985694885","3","1","false","2","2","1,0.5,0,1,0.5,0,0.5,0,1","0,1,0.5,0,1,0.5,1,0.5,0","3",""
"","html-keyboard-response","183","126723","0.0-268.0","3X3OR7WPZ0M6TCB0IC3GGRNHPU2L8U","A2APG8MSLJ6G2K","3THR0FZ95PF7SK0MYRNAOUHTWDJOLG","","null","<img src=""img/food1.png"" style=""width:200px; border:14px solid green;"">","null","","","","","","","","","",""
"","image-keyboard-response","184","126853","0.0-270.0","3X3OR7WPZ0M6TCB0IC3GGRNHPU2L8U","A2APG8MSLJ6G2K","3THR0FZ95PF7SK0MYRNAOUHTWDJOLG","","129.40000009536743","img/food1.png","74","130.09999990463257","1","0","false","2","2","1,0.5,0,1,0.5,0,0.5,0,1","0,1,0.5,0,1,0.5,1,0.5,0","3",""
"","html-keyboard-response","185","127154","0.0-271.0","3X3OR7WPZ0M6TCB0IC3GGRNHPU2L8U","A2APG8MSLJ6G2K","3THR0FZ95PF7SK0MYRNAOUHTWDJOLG","","null","<img src=""img/food1.png"" style=""width:200px;border:14px solid red;"">","null","","","","","","","","","",""
"","instructions","186","133703","0.0-273.0","3X3OR7WPZ0M6TCB0IC3GGRNHPU2L8U","A2APG8MSLJ6G2K","3THR0FZ95PF7SK0MYRNAOUHTWDJOLG","[{""page_index"":0,""viewing_time"":3995.7999999523163},{""page_index"":1,""viewing_time"":2551.7999999523163}]","6547.799999952316","","","","","","","","","","","",""
"","image-keyboard-response","187","134901","0.0-274.0","3X3OR7WPZ0M6TCB0IC3GGRNHPU2L8U","A2APG8MSLJ6G2K","3THR0FZ95PF7SK0MYRNAOUHTWDJOLG","","1197.9000000953674","img/food5.png","74","1198.4000000953674","1","1","","1","1","1,0.5,0,1,0.5,0,0.5,0,1","1,0.5,0,1,0.5,0,0.5,0,1","1",""
"","html-keyboard-response","188","135203","0.0-275.0","3X3OR7WPZ0M6TCB0IC3GGRNHPU2L8U","A2APG8MSLJ6G2K","3THR0FZ95PF7SK0MYRNAOUHTWDJOLG","","null","<img src=""img/food5.png"" style=""width:200px; border:14px solid green;"">","null","","","","","","","","","",""
"","image-keyboard-response","189","137293","0.0-276.0","3X3OR7WPZ0M6TCB0IC3GGRNHPU2L8U","A2APG8MSLJ6G2K","3THR0FZ95PF7SK0MYRNAOUHTWDJOLG","","2089","img/food3.png","75","2089.9000000953674","2","0","","3","1","1,0.5,0,1,0.5,0,0.5,0,1","1,0.5,0,1,0.5,0,0.5,0,1","1",""
"","html-keyboard-response","190","137595","0.0-277.0","3X3OR7WPZ0M6TCB0IC3GGRNHPU2L8U","A2APG8MSLJ6G2K","3THR0FZ95PF7SK0MYRNAOUHTWDJOLG","","null","<img src=""img/food3.png"" style=""width:200px;border:14px solid red;"">","null","","","","","","","","","",""
"","image-keyboard-response","191","139109","0.0-278.0","3X3OR7WPZ0M6TCB0IC3GGRNHPU2L8U","A2APG8MSLJ6G2K","3THR0FZ95PF7SK0MYRNAOUHTWDJOLG","","1513.1999998092651","img/food4.png","75","1513.8000001907349","2","1","","2","1","1,0.5,0,1,0.5,0,0.5,0,1","1,0.5,0,1,0.5,0,0.5,0,1","1",""
"","html-keyboard-response","192","139411","0.0-279.0","3X3OR7WPZ0M6TCB0IC3GGRNHPU2L8U","A2APG8MSLJ6G2K","3THR0FZ95PF7SK0MYRNAOUHTWDJOLG","","null","<img src=""img/food4.png"" style=""width:200px; border:14px solid green;"">","null","","","","","","","","","",""
"","image-keyboard-response","193","140829","0.0-280.0","3X3OR7WPZ0M6TCB0IC3GGRNHPU2L8U","A2APG8MSLJ6G2K","3THR0FZ95PF7SK0MYRNAOUHTWDJOLG","","1417.9000000953674","img/food4.png","76","1418.4000000953674","3","0","","2","1","1,0.5,0,1,0.5,0,0.5,0,1","1,0.5,0,1,0.5,0,0.5,0,1","1",""
"","html-keyboard-response","194","141131","0.0-281.0","3X3OR7WPZ0M6TCB0IC3GGRNHPU2L8U","A2APG8MSLJ6G2K","3THR0FZ95PF7SK0MYRNAOUHTWDJOLG","","null","<img src=""img/food4.png"" style=""width:200px;border:14px solid red;"">","null","","","","","","","","","",""
"","image-keyboard-response","195","142173","0.0-282.0","3X3OR7WPZ0M6TCB0IC3GGRNHPU2L8U","A2APG8MSLJ6G2K","3THR0FZ95PF7SK0MYRNAOUHTWDJOLG","","1042","img/food4.png","75","1042.7000000476837","2","0","","2","1","1,0.5,0,1,0.5,0,0.5,0,1","1,0.5,0,1,0.5,0,0.5,0,1","1",""
"","html-keyboard-response","196","142476","0.0-283.0","3X3OR7WPZ0M6TCB0IC3GGRNHPU2L8U","A2APG8MSLJ6G2K","3THR0FZ95PF7SK0MYRNAOUHTWDJOLG","","null","<img src=""img/food4.png"" style=""width:200px;border:14px solid red;"">","null","","","","","","","","","",""
"","image-keyboard-response","197","143453","0.0-284.0","3X3OR7WPZ0M6TCB0IC3GGRNHPU2L8U","A2APG8MSLJ6G2K","3THR0FZ95PF7SK0MYRNAOUHTWDJOLG","","975.2999999523163","img/food5.png","74","975.8999998569489","1","1","","1","1","1,0.5,0,1,0.5,0,0.5,0,1","1,0.5,0,1,0.5,0,0.5,0,1","1",""
"","html-keyboard-response","198","143755","0.0-285.0","3X3OR7WPZ0M6TCB0IC3GGRNHPU2L8U","A2APG8MSLJ6G2K","3THR0FZ95PF7SK0MYRNAOUHTWDJOLG","","null","<img src=""img/food5.png"" style=""width:200px; border:14px solid green;"">","null","","","","","","","","","",""
"","image-keyboard-response","199","144557","0.0-286.0","3X3OR7WPZ0M6TCB0IC3GGRNHPU2L8U","A2APG8MSLJ6G2K","3THR0FZ95PF7SK0MYRNAOUHTWDJOLG","","801.2999999523163","img/food4.png","75","801.9000000953674","2","0","","2","1","1,0.5,0,1,0.5,0,0.5,0,1","1,0.5,0,1,0.5,0,0.5,0,1","1",""
"","html-keyboard-response","200","144859","0.0-287.0","3X3OR7WPZ0M6TCB0IC3GGRNHPU2L8U","A2APG8MSLJ6G2K","3THR0FZ95PF7SK0MYRNAOUHTWDJOLG","","null","<img src=""img/food4.png"" style=""width:200px;border:14px solid red;"">","null","","","","","","","","","",""
"","image-keyboard-response","201","146157","0.0-288.0","3X3OR7WPZ0M6TCB0IC3GGRNHPU2L8U","A2APG8MSLJ6G2K","3THR0FZ95PF7SK0MYRNAOUHTWDJOLG","","1297.2000000476837","img/food5.png","74","1297.7999999523163","1","1","","1","1","1,0.5,0,1,0.5,0,0.5,0,1","1,0.5,0,1,0.5,0,0.5,0,1","1",""
"","html-keyboard-response","202","146459","0.0-289.0","3X3OR7WPZ0M6TCB0IC3GGRNHPU2L8U","A2APG8MSLJ6G2K","3THR0FZ95PF7SK0MYRNAOUHTWDJOLG","","null","<img src=""img/food5.png"" style=""width:200px; border:14px solid green;"">","null","","","","","","","","","",""
"","image-keyboard-response","203","148021","0.0-290.0","3X3OR7WPZ0M6TCB0IC3GGRNHPU2L8U","A2APG8MSLJ6G2K","3THR0FZ95PF7SK0MYRNAOUHTWDJOLG","","1560.7999999523163","img/food3.png","75","1561.3999998569489","2","0","","3","1","1,0.5,0,1,0.5,0,0.5,0,1","1,0.5,0,1,0.5,0,0.5,0,1","1",""
"","html-keyboard-response","204","148322","0.0-291.0","3X3OR7WPZ0M6TCB0IC3GGRNHPU2L8U","A2APG8MSLJ6G2K","3THR0FZ95PF7SK0MYRNAOUHTWDJOLG","","null","<img src=""img/food3.png"" style=""width:200px;border:14px solid red;"">","null","","","","","","","","","",""
"","image-keyboard-response","205","148877","0.0-292.0","3X3OR7WPZ0M6TCB0IC3GGRNHPU2L8U","A2APG8MSLJ6G2K","3THR0FZ95PF7SK0MYRNAOUHTWDJOLG","","554.2999999523163","img/food3.png","76","554.8999998569489","3","1","","3","1","1,0.5,0,1,0.5,0,0.5,0,1","1,0.5,0,1,0.5,0,0.5,0,1","1",""
"","html-keyboard-response","206","149179","0.0-293.0","3X3OR7WPZ0M6TCB0IC3GGRNHPU2L8U","A2APG8MSLJ6G2K","3THR0FZ95PF7SK0MYRNAOUHTWDJOLG","","null","<img src=""img/food3.png"" style=""width:200px; border:14px solid green;"">","null","","","","","","","","","",""
"","image-keyboard-response","207","150205","0.0-294.0","3X3OR7WPZ0M6TCB0IC3GGRNHPU2L8U","A2APG8MSLJ6G2K","3THR0FZ95PF7SK0MYRNAOUHTWDJOLG","","1025.1999998092651","img/food4.png","75","1025.8000001907349","2","1","","2","1","1,0.5,0,1,0.5,0,0.5,0,1","1,0.5,0,1,0.5,0,0.5,0,1","1",""
"","html-keyboard-response","208","150507","0.0-295.0","3X3OR7WPZ0M6TCB0IC3GGRNHPU2L8U","A2APG8MSLJ6G2K","3THR0FZ95PF7SK0MYRNAOUHTWDJOLG","","null","<img src=""img/food4.png"" style=""width:200px; border:14px solid green;"">","null","","","","","","","","","",""
"","image-keyboard-response","209","151301","0.0-296.0","3X3OR7WPZ0M6TCB0IC3GGRNHPU2L8U","A2APG8MSLJ6G2K","3THR0FZ95PF7SK0MYRNAOUHTWDJOLG","","793.7000000476837","img/food4.png","75","794.3999998569489","2","1","","2","1","1,0.5,0,1,0.5,0,0.5,0,1","1,0.5,0,1,0.5,0,0.5,0,1","1",""
"","html-keyboard-response","210","151603","0.0-297.0","3X3OR7WPZ0M6TCB0IC3GGRNHPU2L8U","A2APG8MSLJ6G2K","3THR0FZ95PF7SK0MYRNAOUHTWDJOLG","","null","<img src=""img/food4.png"" style=""width:200px; border:14px solid green;"">","null","","","","","","","","","",""
"","image-keyboard-response","211","152581","0.0-298.0","3X3OR7WPZ0M6TCB0IC3GGRNHPU2L8U","A2APG8MSLJ6G2K","3THR0FZ95PF7SK0MYRNAOUHTWDJOLG","","977.5","img/food3.png","76","978.1000001430511","3","1","","3","1","1,0.5,0,1,0.5,0,0.5,0,1","1,0.5,0,1,0.5,0,0.5,0,1","1",""
"","html-keyboard-response","212","152882","0.0-299.0","3X3OR7WPZ0M6TCB0IC3GGRNHPU2L8U","A2APG8MSLJ6G2K","3THR0FZ95PF7SK0MYRNAOUHTWDJOLG","","null","<img src=""img/food3.png"" style=""width:200px; border:14px solid green;"">","null","","","","","","","","","",""
"","image-keyboard-response","213","153453","0.0-300.0","3X3OR7WPZ0M6TCB0IC3GGRNHPU2L8U","A2APG8MSLJ6G2K","3THR0FZ95PF7SK0MYRNAOUHTWDJOLG","","570","img/food4.png","75","570.5","2","1","","2","1","1,0.5,0,1,0.5,0,0.5,0,1","1,0.5,0,1,0.5,0,0.5,0,1","1",""
"","html-keyboard-response","214","153755","0.0-301.0","3X3OR7WPZ0M6TCB0IC3GGRNHPU2L8U","A2APG8MSLJ6G2K","3THR0FZ95PF7SK0MYRNAOUHTWDJOLG","","null","<img src=""img/food4.png"" style=""width:200px; border:14px solid green;"">","null","","","","","","","","","",""
"","image-keyboard-response","215","154485","0.0-302.0","3X3OR7WPZ0M6TCB0IC3GGRNHPU2L8U","A2APG8MSLJ6G2K","3THR0FZ95PF7SK0MYRNAOUHTWDJOLG","","729.9000000953674","img/food4.png","75","730.2999999523163","2","0","","2","1","1,0.5,0,1,0.5,0,0.5,0,1","1,0.5,0,1,0.5,0,0.5,0,1","1",""
"","html-keyboard-response","216","154787","0.0-303.0","3X3OR7WPZ0M6TCB0IC3GGRNHPU2L8U","A2APG8MSLJ6G2K","3THR0FZ95PF7SK0MYRNAOUHTWDJOLG","","null","<img src=""img/food4.png"" style=""width:200px;border:14px solid red;"">","null","","","","","","","","","",""
"","image-keyboard-response","217","156149","0.0-304.0","3X3OR7WPZ0M6TCB0IC3GGRNHPU2L8U","A2APG8MSLJ6G2K","3THR0FZ95PF7SK0MYRNAOUHTWDJOLG","","1361.4000000953674","img/food3.png","76","1362","3","1","","3","1","1,0.5,0,1,0.5,0,0.5,0,1","1,0.5,0,1,0.5,0,0.5,0,1","1",""
"","html-keyboard-response","218","156453","0.0-305.0","3X3OR7WPZ0M6TCB0IC3GGRNHPU2L8U","A2APG8MSLJ6G2K","3THR0FZ95PF7SK0MYRNAOUHTWDJOLG","","null","<img src=""img/food3.png"" style=""width:200px; border:14px solid green;"">","null","","","","","","","","","",""
"","image-keyboard-response","219","157341","0.0-306.0","3X3OR7WPZ0M6TCB0IC3GGRNHPU2L8U","A2APG8MSLJ6G2K","3THR0FZ95PF7SK0MYRNAOUHTWDJOLG","","887.5","img/food3.png","76","888","3","1","","3","1","1,0.5,0,1,0.5,0,0.5,0,1","1,0.5,0,1,0.5,0,0.5,0,1","1",""
"","html-keyboard-response","220","157643","0.0-307.0","3X3OR7WPZ0M6TCB0IC3GGRNHPU2L8U","A2APG8MSLJ6G2K","3THR0FZ95PF7SK0MYRNAOUHTWDJOLG","","null","<img src=""img/food3.png"" style=""width:200px; border:14px solid green;"">","null","","","","","","","","","",""
"","image-keyboard-response","221","158405","0.0-308.0","3X3OR7WPZ0M6TCB0IC3GGRNHPU2L8U","A2APG8MSLJ6G2K","3THR0FZ95PF7SK0MYRNAOUHTWDJOLG","","761.3999998569489","img/food4.png","75","762","2","0","","2","1","1,0.5,0,1,0.5,0,0.5,0,1","1,0.5,0,1,0.5,0,0.5,0,1","1",""
"","html-keyboard-response","222","158706","0.0-309.0","3X3OR7WPZ0M6TCB0IC3GGRNHPU2L8U","A2APG8MSLJ6G2K","3THR0FZ95PF7SK0MYRNAOUHTWDJOLG","","null","<img src=""img/food4.png"" style=""width:200px;border:14px solid red;"">","null","","","","","","","","","",""
"","image-keyboard-response","223","159845","0.0-310.0","3X3OR7WPZ0M6TCB0IC3GGRNHPU2L8U","A2APG8MSLJ6G2K","3THR0FZ95PF7SK0MYRNAOUHTWDJOLG","","1137.9000000953674","img/food4.png","74","1138.4000000953674","1","1","","2","1","1,0.5,0,1,0.5,0,0.5,0,1","1,0.5,0,1,0.5,0,0.5,0,1","1",""
"","html-keyboard-response","224","160147","0.0-311.0","3X3OR7WPZ0M6TCB0IC3GGRNHPU2L8U","A2APG8MSLJ6G2K","3THR0FZ95PF7SK0MYRNAOUHTWDJOLG","","null","<img src=""img/food4.png"" style=""width:200px; border:14px solid green;"">","null","","","","","","","","","",""
"","image-keyboard-response","225","161509","0.0-312.0","3X3OR7WPZ0M6TCB0IC3GGRNHPU2L8U","A2APG8MSLJ6G2K","3THR0FZ95PF7SK0MYRNAOUHTWDJOLG","","1361.5","img/food4.png","74","1362","1","1","","2","1","1,0.5,0,1,0.5,0,0.5,0,1","1,0.5,0,1,0.5,0,0.5,0,1","1",""
"","html-keyboard-response","226","161811","0.0-313.0","3X3OR7WPZ0M6TCB0IC3GGRNHPU2L8U","A2APG8MSLJ6G2K","3THR0FZ95PF7SK0MYRNAOUHTWDJOLG","","null","<img src=""img/food4.png"" style=""width:200px; border:14px solid green;"">","null","","","","","","","","","",""
"","image-keyboard-response","227","163077","0.0-314.0","3X3OR7WPZ0M6TCB0IC3GGRNHPU2L8U","A2APG8MSLJ6G2K","3THR0FZ95PF7SK0MYRNAOUHTWDJOLG","","1265.1000001430511","img/food3.png","76","1265.7000000476837","3","1","","3","1","1,0.5,0,1,0.5,0,0.5,0,1","1,0.5,0,1,0.5,0,0.5,0,1","1",""
"","html-keyboard-response","228","163379","0.0-315.0","3X3OR7WPZ0M6TCB0IC3GGRNHPU2L8U","A2APG8MSLJ6G2K","3THR0FZ95PF7SK0MYRNAOUHTWDJOLG","","null","<img src=""img/food3.png"" style=""width:200px; border:14px solid green;"">","null","","","","","","","","","",""
"","image-keyboard-response","229","164069","0.0-316.0","3X3OR7WPZ0M6TCB0IC3GGRNHPU2L8U","A2APG8MSLJ6G2K","3THR0FZ95PF7SK0MYRNAOUHTWDJOLG","","688.8999998569489","img/food4.png","75","689.7000000476837","2","0","","2","1","1,0.5,0,1,0.5,0,0.5,0,1","1,0.5,0,1,0.5,0,0.5,0,1","1",""
"","html-keyboard-response","230","164371","0.0-317.0","3X3OR7WPZ0M6TCB0IC3GGRNHPU2L8U","A2APG8MSLJ6G2K","3THR0FZ95PF7SK0MYRNAOUHTWDJOLG","","null","<img src=""img/food4.png"" style=""width:200px;border:14px solid red;"">","null","","","","","","","","","",""
"","image-keyboard-response","231","164829","0.0-318.0","3X3OR7WPZ0M6TCB0IC3GGRNHPU2L8U","A2APG8MSLJ6G2K","3THR0FZ95PF7SK0MYRNAOUHTWDJOLG","","457.09999990463257","img/food4.png","74","457.90000009536743","1","1","","2","1","1,0.5,0,1,0.5,0,0.5,0,1","1,0.5,0,1,0.5,0,0.5,0,1","1",""
"","html-keyboard-response","232","165130","0.0-319.0","3X3OR7WPZ0M6TCB0IC3GGRNHPU2L8U","A2APG8MSLJ6G2K","3THR0FZ95PF7SK0MYRNAOUHTWDJOLG","","null","<img src=""img/food4.png"" style=""width:200px; border:14px solid green;"">","null","","","","","","","","","",""
"","image-keyboard-response","233","165805","0.0-320.0","3X3OR7WPZ0M6TCB0IC3GGRNHPU2L8U","A2APG8MSLJ6G2K","3THR0FZ95PF7SK0MYRNAOUHTWDJOLG","","674.2999999523163","img/food4.png","74","675","1","1","","2","1","1,0.5,0,1,0.5,0,0.5,0,1","1,0.5,0,1,0.5,0,0.5,0,1","1",""
"","html-keyboard-response","234","166107","0.0-321.0","3X3OR7WPZ0M6TCB0IC3GGRNHPU2L8U","A2APG8MSLJ6G2K","3THR0FZ95PF7SK0MYRNAOUHTWDJOLG","","null","<img src=""img/food4.png"" style=""width:200px; border:14px solid green;"">","null","","","","","","","","","",""
"","image-keyboard-response","235","167317","0.0-322.0","3X3OR7WPZ0M6TCB0IC3GGRNHPU2L8U","A2APG8MSLJ6G2K","3THR0FZ95PF7SK0MYRNAOUHTWDJOLG","","1209.2999999523163","img/food3.png","76","1209.7999999523163","3","1","","3","1","1,0.5,0,1,0.5,0,0.5,0,1","1,0.5,0,1,0.5,0,0.5,0,1","1",""
"","html-keyboard-response","236","167619","0.0-323.0","3X3OR7WPZ0M6TCB0IC3GGRNHPU2L8U","A2APG8MSLJ6G2K","3THR0FZ95PF7SK0MYRNAOUHTWDJOLG","","null","<img src=""img/food3.png"" style=""width:200px; border:14px solid green;"">","null","","","","","","","","","",""
"","image-keyboard-response","237","168325","0.0-324.0","3X3OR7WPZ0M6TCB0IC3GGRNHPU2L8U","A2APG8MSLJ6G2K","3THR0FZ95PF7SK0MYRNAOUHTWDJOLG","","705.2000000476837","img/food4.png","74","705.6999998092651","1","1","","2","1","1,0.5,0,1,0.5,0,0.5,0,1","1,0.5,0,1,0.5,0,0.5,0,1","1",""
"","html-keyboard-response","238","168628","0.0-325.0","3X3OR7WPZ0M6TCB0IC3GGRNHPU2L8U","A2APG8MSLJ6G2K","3THR0FZ95PF7SK0MYRNAOUHTWDJOLG","","null","<img src=""img/food4.png"" style=""width:200px; border:14px solid green;"">","null","","","","","","","","","",""
"","image-keyboard-response","239","169525","0.0-326.0","3X3OR7WPZ0M6TCB0IC3GGRNHPU2L8U","A2APG8MSLJ6G2K","3THR0FZ95PF7SK0MYRNAOUHTWDJOLG","","896.4000000953674","img/food4.png","74","896.9000000953674","1","1","","2","1","1,0.5,0,1,0.5,0,0.5,0,1","1,0.5,0,1,0.5,0,0.5,0,1","1",""
"","html-keyboard-response","240","169827","0.0-327.0","3X3OR7WPZ0M6TCB0IC3GGRNHPU2L8U","A2APG8MSLJ6G2K","3THR0FZ95PF7SK0MYRNAOUHTWDJOLG","","null","<img src=""img/food4.png"" style=""width:200px; border:14px solid green;"">","null","","","","","","","","","",""
"","image-keyboard-response","241","170669","0.0-328.0","3X3OR7WPZ0M6TCB0IC3GGRNHPU2L8U","A2APG8MSLJ6G2K","3THR0FZ95PF7SK0MYRNAOUHTWDJOLG","","841","img/food3.png","76","841.5999999046326","3","1","","3","1","1,0.5,0,1,0.5,0,0.5,0,1","1,0.5,0,1,0.5,0,0.5,0,1","1",""
"","html-keyboard-response","242","170970","0.0-329.0","3X3OR7WPZ0M6TCB0IC3GGRNHPU2L8U","A2APG8MSLJ6G2K","3THR0FZ95PF7SK0MYRNAOUHTWDJOLG","","null","<img src=""img/food3.png"" style=""width:200px; border:14px solid green;"">","null","","","","","","","","","",""
"","image-keyboard-response","243","171661","0.0-330.0","3X3OR7WPZ0M6TCB0IC3GGRNHPU2L8U","A2APG8MSLJ6G2K","3THR0FZ95PF7SK0MYRNAOUHTWDJOLG","","690.5","img/food4.png","74","691.2999999523163","1","1","","2","1","1,0.5,0,1,0.5,0,0.5,0,1","1,0.5,0,1,0.5,0,0.5,0,1","1",""
"","html-keyboard-response","244","171963","0.0-331.0","3X3OR7WPZ0M6TCB0IC3GGRNHPU2L8U","A2APG8MSLJ6G2K","3THR0FZ95PF7SK0MYRNAOUHTWDJOLG","","null","<img src=""img/food4.png"" style=""width:200px; border:14px solid green;"">","null","","","","","","","","","",""
"","image-keyboard-response","245","172901","0.0-332.0","3X3OR7WPZ0M6TCB0IC3GGRNHPU2L8U","A2APG8MSLJ6G2K","3THR0FZ95PF7SK0MYRNAOUHTWDJOLG","","938.2000000476837","img/food3.png","76","938.7000000476837","3","1","","3","1","1,0.5,0,1,0.5,0,0.5,0,1","1,0.5,0,1,0.5,0,0.5,0,1","1",""
"","html-keyboard-response","246","173203","0.0-333.0","3X3OR7WPZ0M6TCB0IC3GGRNHPU2L8U","A2APG8MSLJ6G2K","3THR0FZ95PF7SK0MYRNAOUHTWDJOLG","","null","<img src=""img/food3.png"" style=""width:200px; border:14px solid green;"">","null","","","","","","","","","",""
"","image-keyboard-response","247","173886","0.0-334.0","3X3OR7WPZ0M6TCB0IC3GGRNHPU2L8U","A2APG8MSLJ6G2K","3THR0FZ95PF7SK0MYRNAOUHTWDJOLG","","681.6999998092651","img/food5.png","75","682.5","2","0","","1","1","1,0.5,0,1,0.5,0,0.5,0,1","1,0.5,0,1,0.5,0,0.5,0,1","1",""
"","html-keyboard-response","248","174187","0.0-335.0","3X3OR7WPZ0M6TCB0IC3GGRNHPU2L8U","A2APG8MSLJ6G2K","3THR0FZ95PF7SK0MYRNAOUHTWDJOLG","","null","<img src=""img/food5.png"" style=""width:200px;border:14px solid red;"">","null","","","","","","","","","",""
"","image-keyboard-response","249","174997","0.0-336.0","3X3OR7WPZ0M6TCB0IC3GGRNHPU2L8U","A2APG8MSLJ6G2K","3THR0FZ95PF7SK0MYRNAOUHTWDJOLG","","809.6000001430511","img/food5.png","75","810.3999998569489","2","1","","1","1","1,0.5,0,1,0.5,0,0.5,0,1","1,0.5,0,1,0.5,0,0.5,0,1","1",""
"","html-keyboard-response","250","175299","0.0-337.0","3X3OR7WPZ0M6TCB0IC3GGRNHPU2L8U","A2APG8MSLJ6G2K","3THR0FZ95PF7SK0MYRNAOUHTWDJOLG","","null","<img src=""img/food5.png"" style=""width:200px; border:14px solid green;"">","null","","","","","","","","","",""
"","image-keyboard-response","251","176357","0.0-338.0","3X3OR7WPZ0M6TCB0IC3GGRNHPU2L8U","A2APG8MSLJ6G2K","3THR0FZ95PF7SK0MYRNAOUHTWDJOLG","","1056.7999999523163","img/food3.png","76","1057.4000000953674","3","1","","3","1","1,0.5,0,1,0.5,0,0.5,0,1","1,0.5,0,1,0.5,0,0.5,0,1","1",""
"","html-keyboard-response","252","176659","0.0-339.0","3X3OR7WPZ0M6TCB0IC3GGRNHPU2L8U","A2APG8MSLJ6G2K","3THR0FZ95PF7SK0MYRNAOUHTWDJOLG","","null","<img src=""img/food3.png"" style=""width:200px; border:14px solid green;"">","null","","","","","","","","","",""
"","image-keyboard-response","253","177413","0.0-340.0","3X3OR7WPZ0M6TCB0IC3GGRNHPU2L8U","A2APG8MSLJ6G2K","3THR0FZ95PF7SK0MYRNAOUHTWDJOLG","","753.3999998569489","img/food3.png","76","754","3","1","","3","1","1,0.5,0,1,0.5,0,0.5,0,1","1,0.5,0,1,0.5,0,0.5,0,1","1",""
"","html-keyboard-response","254","177715","0.0-341.0","3X3OR7WPZ0M6TCB0IC3GGRNHPU2L8U","A2APG8MSLJ6G2K","3THR0FZ95PF7SK0MYRNAOUHTWDJOLG","","null","<img src=""img/food3.png"" style=""width:200px; border:14px solid green;"">","null","","","","","","","","","",""
"","image-keyboard-response","255","178205","0.0-342.0","3X3OR7WPZ0M6TCB0IC3GGRNHPU2L8U","A2APG8MSLJ6G2K","3THR0FZ95PF7SK0MYRNAOUHTWDJOLG","","489.10000014305115","img/food3.png","76","489.7999999523163","3","1","","3","1","1,0.5,0,1,0.5,0,0.5,0,1","1,0.5,0,1,0.5,0,0.5,0,1","1",""
"","html-keyboard-response","256","178506","0.0-343.0","3X3OR7WPZ0M6TCB0IC3GGRNHPU2L8U","A2APG8MSLJ6G2K","3THR0FZ95PF7SK0MYRNAOUHTWDJOLG","","null","<img src=""img/food3.png"" style=""width:200px; border:14px solid green;"">","null","","","","","","","","","",""
"","image-keyboard-response","257","179525","0.0-344.0","3X3OR7WPZ0M6TCB0IC3GGRNHPU2L8U","A2APG8MSLJ6G2K","3THR0FZ95PF7SK0MYRNAOUHTWDJOLG","","1017.5","img/food5.png","75","1018.0999999046326","2","0","","1","1","1,0.5,0,1,0.5,0,0.5,0,1","1,0.5,0,1,0.5,0,0.5,0,1","1",""
"","html-keyboard-response","258","179826","0.0-345.0","3X3OR7WPZ0M6TCB0IC3GGRNHPU2L8U","A2APG8MSLJ6G2K","3THR0FZ95PF7SK0MYRNAOUHTWDJOLG","","null","<img src=""img/food5.png"" style=""width:200px;border:14px solid red;"">","null","","","","","","","","","",""
"","image-keyboard-response","259","180805","0.0-346.0","3X3OR7WPZ0M6TCB0IC3GGRNHPU2L8U","A2APG8MSLJ6G2K","3THR0FZ95PF7SK0MYRNAOUHTWDJOLG","","978.4000000953674","img/food5.png","75","979.0999999046326","2","1","","1","1","1,0.5,0,1,0.5,0,0.5,0,1","1,0.5,0,1,0.5,0,0.5,0,1","1",""
"","html-keyboard-response","260","181107","0.0-347.0","3X3OR7WPZ0M6TCB0IC3GGRNHPU2L8U","A2APG8MSLJ6G2K","3THR0FZ95PF7SK0MYRNAOUHTWDJOLG","","null","<img src=""img/food5.png"" style=""width:200px; border:14px solid green;"">","null","","","","","","","","","",""
"","image-keyboard-response","261","182021","0.0-348.0","3X3OR7WPZ0M6TCB0IC3GGRNHPU2L8U","A2APG8MSLJ6G2K","3THR0FZ95PF7SK0MYRNAOUHTWDJOLG","","912.7000000476837","img/food3.png","76","913.3999998569489","3","1","","3","1","1,0.5,0,1,0.5,0,0.5,0,1","1,0.5,0,1,0.5,0,0.5,0,1","1",""
"","html-keyboard-response","262","182323","0.0-349.0","3X3OR7WPZ0M6TCB0IC3GGRNHPU2L8U","A2APG8MSLJ6G2K","3THR0FZ95PF7SK0MYRNAOUHTWDJOLG","","null","<img src=""img/food3.png"" style=""width:200px; border:14px solid green;"">","null","","","","","","","","","",""
"","image-keyboard-response","263","183325","0.0-350.0","3X3OR7WPZ0M6TCB0IC3GGRNHPU2L8U","A2APG8MSLJ6G2K","3THR0FZ95PF7SK0MYRNAOUHTWDJOLG","","1001.7000000476837","img/food4.png","74","1002.0999999046326","1","1","","2","1","1,0.5,0,1,0.5,0,0.5,0,1","1,0.5,0,1,0.5,0,0.5,0,1","1",""
"","html-keyboard-response","264","183626","0.0-351.0","3X3OR7WPZ0M6TCB0IC3GGRNHPU2L8U","A2APG8MSLJ6G2K","3THR0FZ95PF7SK0MYRNAOUHTWDJOLG","","null","<img src=""img/food4.png"" style=""width:200px; border:14px solid green;"">","null","","","","","","","","","",""
"","image-keyboard-response","265","184229","0.0-352.0","3X3OR7WPZ0M6TCB0IC3GGRNHPU2L8U","A2APG8MSLJ6G2K","3THR0FZ95PF7SK0MYRNAOUHTWDJOLG","","602","img/food4.png","74","602.5","1","1","","2","1","1,0.5,0,1,0.5,0,0.5,0,1","1,0.5,0,1,0.5,0,0.5,0,1","1",""
"","html-keyboard-response","266","184530","0.0-353.0","3X3OR7WPZ0M6TCB0IC3GGRNHPU2L8U","A2APG8MSLJ6G2K","3THR0FZ95PF7SK0MYRNAOUHTWDJOLG","","null","<img src=""img/food4.png"" style=""width:200px; border:14px solid green;"">","null","","","","","","","","","",""
"","image-keyboard-response","267","185117","0.0-354.0","3X3OR7WPZ0M6TCB0IC3GGRNHPU2L8U","A2APG8MSLJ6G2K","3THR0FZ95PF7SK0MYRNAOUHTWDJOLG","","586.1000001430511","img/food4.png","74","586.6999998092651","1","1","","2","1","1,0.5,0,1,0.5,0,0.5,0,1","1,0.5,0,1,0.5,0,0.5,0,1","1",""
"","html-keyboard-response","268","185418","0.0-355.0","3X3OR7WPZ0M6TCB0IC3GGRNHPU2L8U","A2APG8MSLJ6G2K","3THR0FZ95PF7SK0MYRNAOUHTWDJOLG","","null","<img src=""img/food4.png"" style=""width:200px; border:14px solid green;"">","null","","","","","","","","","",""
"","image-keyboard-response","269","186468","0.0-356.0","3X3OR7WPZ0M6TCB0IC3GGRNHPU2L8U","A2APG8MSLJ6G2K","3THR0FZ95PF7SK0MYRNAOUHTWDJOLG","","1050.2000000476837","img/food3.png","76","1050.6000001430511","3","1","","3","1","1,0.5,0,1,0.5,0,0.5,0,1","1,0.5,0,1,0.5,0,0.5,0,1","1",""
"","html-keyboard-response","270","186770","0.0-357.0","3X3OR7WPZ0M6TCB0IC3GGRNHPU2L8U","A2APG8MSLJ6G2K","3THR0FZ95PF7SK0MYRNAOUHTWDJOLG","","null","<img src=""img/food3.png"" style=""width:200px; border:14px solid green;"">","null","","","","","","","","","",""
"","image-keyboard-response","271","187597","0.0-358.0","3X3OR7WPZ0M6TCB0IC3GGRNHPU2L8U","A2APG8MSLJ6G2K","3THR0FZ95PF7SK0MYRNAOUHTWDJOLG","","825.9000000953674","img/food5.png","75","826.5","2","0","","1","1","1,0.5,0,1,0.5,0,0.5,0,1","1,0.5,0,1,0.5,0,0.5,0,1","1",""
"","html-keyboard-response","272","187899","0.0-359.0","3X3OR7WPZ0M6TCB0IC3GGRNHPU2L8U","A2APG8MSLJ6G2K","3THR0FZ95PF7SK0MYRNAOUHTWDJOLG","","null","<img src=""img/food5.png"" style=""width:200px;border:14px solid red;"">","null","","","","","","","","","",""
"","image-keyboard-response","273","188468","0.0-360.0","3X3OR7WPZ0M6TCB0IC3GGRNHPU2L8U","A2APG8MSLJ6G2K","3THR0FZ95PF7SK0MYRNAOUHTWDJOLG","","568.2999999523163","img/food5.png","75","568.7999999523163","2","1","","1","1","1,0.5,0,1,0.5,0,0.5,0,1","1,0.5,0,1,0.5,0,0.5,0,1","1",""
"","html-keyboard-response","274","188769","0.0-361.0","3X3OR7WPZ0M6TCB0IC3GGRNHPU2L8U","A2APG8MSLJ6G2K","3THR0FZ95PF7SK0MYRNAOUHTWDJOLG","","null","<img src=""img/food5.png"" style=""width:200px; border:14px solid green;"">","null","","","","","","","","","",""
"","image-keyboard-response","275","189732","0.0-362.0","3X3OR7WPZ0M6TCB0IC3GGRNHPU2L8U","A2APG8MSLJ6G2K","3THR0FZ95PF7SK0MYRNAOUHTWDJOLG","","961.6000001430511","img/food5.png","75","962.5","2","1","","1","1","1,0.5,0,1,0.5,0,0.5,0,1","1,0.5,0,1,0.5,0,0.5,0,1","1",""
"","html-keyboard-response","276","190034","0.0-363.0","3X3OR7WPZ0M6TCB0IC3GGRNHPU2L8U","A2APG8MSLJ6G2K","3THR0FZ95PF7SK0MYRNAOUHTWDJOLG","","null","<img src=""img/food5.png"" style=""width:200px; border:14px solid green;"">","null","","","","","","","","","",""
"","image-keyboard-response","277","190628","0.0-364.0","3X3OR7WPZ0M6TCB0IC3GGRNHPU2L8U","A2APG8MSLJ6G2K","3THR0FZ95PF7SK0MYRNAOUHTWDJOLG","","593.2999999523163","img/food5.png","75","593.8999998569489","2","1","","1","1","1,0.5,0,1,0.5,0,0.5,0,1","1,0.5,0,1,0.5,0,0.5,0,1","1",""
"","html-keyboard-response","278","190931","0.0-365.0","3X3OR7WPZ0M6TCB0IC3GGRNHPU2L8U","A2APG8MSLJ6G2K","3THR0FZ95PF7SK0MYRNAOUHTWDJOLG","","null","<img src=""img/food5.png"" style=""width:200px; border:14px solid green;"">","null","","","","","","","","","",""
"","image-keyboard-response","279","192452","0.0-366.0","3X3OR7WPZ0M6TCB0IC3GGRNHPU2L8U","A2APG8MSLJ6G2K","3THR0FZ95PF7SK0MYRNAOUHTWDJOLG","","1520.7000000476837","img/food4.png","74","1521.2000000476837","1","1","","2","1","1,0.5,0,1,0.5,0,0.5,0,1","1,0.5,0,1,0.5,0,0.5,0,1","1",""
"","html-keyboard-response","280","192754","0.0-367.0","3X3OR7WPZ0M6TCB0IC3GGRNHPU2L8U","A2APG8MSLJ6G2K","3THR0FZ95PF7SK0MYRNAOUHTWDJOLG","","null","<img src=""img/food4.png"" style=""width:200px; border:14px solid green;"">","null","","","","","","","","","",""
"","image-keyboard-response","281","193540","0.0-368.0","3X3OR7WPZ0M6TCB0IC3GGRNHPU2L8U","A2APG8MSLJ6G2K","3THR0FZ95PF7SK0MYRNAOUHTWDJOLG","","785.5999999046326","img/food4.png","74","786.2000000476837","1","1","","2","1","1,0.5,0,1,0.5,0,0.5,0,1","1,0.5,0,1,0.5,0,0.5,0,1","1",""
"","html-keyboard-response","282","193843","0.0-369.0","3X3OR7WPZ0M6TCB0IC3GGRNHPU2L8U","A2APG8MSLJ6G2K","3THR0FZ95PF7SK0MYRNAOUHTWDJOLG","","null","<img src=""img/food4.png"" style=""width:200px; border:14px solid green;"">","null","","","","","","","","","",""
"","image-keyboard-response","283","194839","0.0-370.0","3X3OR7WPZ0M6TCB0IC3GGRNHPU2L8U","A2APG8MSLJ6G2K","3THR0FZ95PF7SK0MYRNAOUHTWDJOLG","","996","img/food5.png","75","996.6000001430511","2","0","","1","1","1,0.5,0,1,0.5,0,0.5,0,1","1,0.5,0,1,0.5,0,0.5,0,1","1",""
"","html-keyboard-response","284","195140","0.0-371.0","3X3OR7WPZ0M6TCB0IC3GGRNHPU2L8U","A2APG8MSLJ6G2K","3THR0FZ95PF7SK0MYRNAOUHTWDJOLG","","null","<img src=""img/food5.png"" style=""width:200px;border:14px solid red;"">","null","","","","","","","","","",""
"","image-keyboard-response","285","196333","0.0-372.0","3X3OR7WPZ0M6TCB0IC3GGRNHPU2L8U","A2APG8MSLJ6G2K","3THR0FZ95PF7SK0MYRNAOUHTWDJOLG","","1191.6000001430511","img/food4.png","74","1192.0999999046326","1","1","","2","1","1,0.5,0,1,0.5,0,0.5,0,1","1,0.5,0,1,0.5,0,0.5,0,1","1",""
"","html-keyboard-response","286","196635","0.0-373.0","3X3OR7WPZ0M6TCB0IC3GGRNHPU2L8U","A2APG8MSLJ6G2K","3THR0FZ95PF7SK0MYRNAOUHTWDJOLG","","null","<img src=""img/food4.png"" style=""width:200px; border:14px solid green;"">","null","","","","","","","","","",""
"","image-keyboard-response","287","197276","0.0-374.0","3X3OR7WPZ0M6TCB0IC3GGRNHPU2L8U","A2APG8MSLJ6G2K","3THR0FZ95PF7SK0MYRNAOUHTWDJOLG","","641.2000000476837","img/food5.png","75","641.7000000476837","2","1","","1","1","1,0.5,0,1,0.5,0,0.5,0,1","1,0.5,0,1,0.5,0,0.5,0,1","1",""
"","html-keyboard-response","288","197578","0.0-375.0","3X3OR7WPZ0M6TCB0IC3GGRNHPU2L8U","A2APG8MSLJ6G2K","3THR0FZ95PF7SK0MYRNAOUHTWDJOLG","","null","<img src=""img/food5.png"" style=""width:200px; border:14px solid green;"">","null","","","","","","","","","",""
"","image-keyboard-response","289","198029","0.0-376.0","3X3OR7WPZ0M6TCB0IC3GGRNHPU2L8U","A2APG8MSLJ6G2K","3THR0FZ95PF7SK0MYRNAOUHTWDJOLG","","450.60000014305115","img/food5.png","75","451","2","0","","1","1","1,0.5,0,1,0.5,0,0.5,0,1","1,0.5,0,1,0.5,0,0.5,0,1","1",""
"","html-keyboard-response","290","198330","0.0-377.0","3X3OR7WPZ0M6TCB0IC3GGRNHPU2L8U","A2APG8MSLJ6G2K","3THR0FZ95PF7SK0MYRNAOUHTWDJOLG","","null","<img src=""img/food5.png"" style=""width:200px;border:14px solid red;"">","null","","","","","","","","","",""
"","image-keyboard-response","291","199148","0.0-378.0","3X3OR7WPZ0M6TCB0IC3GGRNHPU2L8U","A2APG8MSLJ6G2K","3THR0FZ95PF7SK0MYRNAOUHTWDJOLG","","817.4000000953674","img/food4.png","74","818","1","1","","2","1","1,0.5,0,1,0.5,0,0.5,0,1","1,0.5,0,1,0.5,0,0.5,0,1","1",""
"","html-keyboard-response","292","199450","0.0-379.0","3X3OR7WPZ0M6TCB0IC3GGRNHPU2L8U","A2APG8MSLJ6G2K","3THR0FZ95PF7SK0MYRNAOUHTWDJOLG","","null","<img src=""img/food4.png"" style=""width:200px; border:14px solid green;"">","null","","","","","","","","","",""
"","image-keyboard-response","293","200268","0.0-380.0","3X3OR7WPZ0M6TCB0IC3GGRNHPU2L8U","A2APG8MSLJ6G2K","3THR0FZ95PF7SK0MYRNAOUHTWDJOLG","","817.5","img/food4.png","74","817.9000000953674","1","1","","2","1","1,0.5,0,1,0.5,0,0.5,0,1","1,0.5,0,1,0.5,0,0.5,0,1","1",""
"","html-keyboard-response","294","200570","0.0-381.0","3X3OR7WPZ0M6TCB0IC3GGRNHPU2L8U","A2APG8MSLJ6G2K","3THR0FZ95PF7SK0MYRNAOUHTWDJOLG","","null","<img src=""img/food4.png"" style=""width:200px; border:14px solid green;"">","null","","","","","","","","","",""
"","image-keyboard-response","295","201300","0.0-382.0","3X3OR7WPZ0M6TCB0IC3GGRNHPU2L8U","A2APG8MSLJ6G2K","3THR0FZ95PF7SK0MYRNAOUHTWDJOLG","","728.6000001430511","img/food3.png","76","729.1999998092651","3","1","","3","1","1,0.5,0,1,0.5,0,0.5,0,1","1,0.5,0,1,0.5,0,0.5,0,1","1",""
"","html-keyboard-response","296","201601","0.0-383.0","3X3OR7WPZ0M6TCB0IC3GGRNHPU2L8U","A2APG8MSLJ6G2K","3THR0FZ95PF7SK0MYRNAOUHTWDJOLG","","null","<img src=""img/food3.png"" style=""width:200px; border:14px solid green;"">","null","","","","","","","","","",""
"","image-keyboard-response","297","202012","0.0-384.0","3X3OR7WPZ0M6TCB0IC3GGRNHPU2L8U","A2APG8MSLJ6G2K","3THR0FZ95PF7SK0MYRNAOUHTWDJOLG","","411.40000009536743","img/food3.png","76","411.90000009536743","3","1","","3","1","1,0.5,0,1,0.5,0,0.5,0,1","1,0.5,0,1,0.5,0,0.5,0,1","1",""
"","html-keyboard-response","298","202314","0.0-385.0","3X3OR7WPZ0M6TCB0IC3GGRNHPU2L8U","A2APG8MSLJ6G2K","3THR0FZ95PF7SK0MYRNAOUHTWDJOLG","","null","<img src=""img/food3.png"" style=""width:200px; border:14px solid green;"">","null","","","","","","","","","",""
"","image-keyboard-response","299","202917","0.0-386.0","3X3OR7WPZ0M6TCB0IC3GGRNHPU2L8U","A2APG8MSLJ6G2K","3THR0FZ95PF7SK0MYRNAOUHTWDJOLG","","602.5999999046326","img/food3.png","76","603","3","1","","3","1","1,0.5,0,1,0.5,0,0.5,0,1","1,0.5,0,1,0.5,0,0.5,0,1","1",""
"","html-keyboard-response","300","203218","0.0-387.0","3X3OR7WPZ0M6TCB0IC3GGRNHPU2L8U","A2APG8MSLJ6G2K","3THR0FZ95PF7SK0MYRNAOUHTWDJOLG","","null","<img src=""img/food3.png"" style=""width:200px; border:14px solid green;"">","null","","","","","","","","","",""
"","image-keyboard-response","301","203844","0.0-388.0","3X3OR7WPZ0M6TCB0IC3GGRNHPU2L8U","A2APG8MSLJ6G2K","3THR0FZ95PF7SK0MYRNAOUHTWDJOLG","","625.3999998569489","img/food3.png","76","626.0999999046326","3","1","","3","1","1,0.5,0,1,0.5,0,0.5,0,1","1,0.5,0,1,0.5,0,0.5,0,1","1",""
"","html-keyboard-response","302","204147","0.0-389.0","3X3OR7WPZ0M6TCB0IC3GGRNHPU2L8U","A2APG8MSLJ6G2K","3THR0FZ95PF7SK0MYRNAOUHTWDJOLG","","null","<img src=""img/food3.png"" style=""width:200px; border:14px solid green;"">","null","","","","","","","","","",""
"","image-keyboard-response","303","205397","0.0-390.0","3X3OR7WPZ0M6TCB0IC3GGRNHPU2L8U","A2APG8MSLJ6G2K","3THR0FZ95PF7SK0MYRNAOUHTWDJOLG","","1249.6000001430511","img/food5.png","75","1250.2000000476837","2","1","","1","1","1,0.5,0,1,0.5,0,0.5,0,1","1,0.5,0,1,0.5,0,0.5,0,1","1",""
"","html-keyboard-response","304","205699","0.0-391.0","3X3OR7WPZ0M6TCB0IC3GGRNHPU2L8U","A2APG8MSLJ6G2K","3THR0FZ95PF7SK0MYRNAOUHTWDJOLG","","null","<img src=""img/food5.png"" style=""width:200px; border:14px solid green;"">","null","","","","","","","","","",""
"","image-keyboard-response","305","206413","0.0-392.0","3X3OR7WPZ0M6TCB0IC3GGRNHPU2L8U","A2APG8MSLJ6G2K","3THR0FZ95PF7SK0MYRNAOUHTWDJOLG","","713.3000001907349","img/food4.png","74","713.7999999523163","1","1","","2","1","1,0.5,0,1,0.5,0,0.5,0,1","1,0.5,0,1,0.5,0,0.5,0,1","1",""
"","html-keyboard-response","306","206713","0.0-393.0","3X3OR7WPZ0M6TCB0IC3GGRNHPU2L8U","A2APG8MSLJ6G2K","3THR0FZ95PF7SK0MYRNAOUHTWDJOLG","","null","<img src=""img/food4.png"" style=""width:200px; border:14px solid green;"">","null","","","","","","","","","",""
"","image-keyboard-response","307","207149","0.0-394.0","3X3OR7WPZ0M6TCB0IC3GGRNHPU2L8U","A2APG8MSLJ6G2K","3THR0FZ95PF7SK0MYRNAOUHTWDJOLG","","434.7999999523163","img/food4.png","74","435.39999985694885","1","1","","2","1","1,0.5,0,1,0.5,0,0.5,0,1","1,0.5,0,1,0.5,0,0.5,0,1","1",""
"","html-keyboard-response","308","207451","0.0-395.0","3X3OR7WPZ0M6TCB0IC3GGRNHPU2L8U","A2APG8MSLJ6G2K","3THR0FZ95PF7SK0MYRNAOUHTWDJOLG","","null","<img src=""img/food4.png"" style=""width:200px; border:14px solid green;"">","null","","","","","","","","","",""
"","image-keyboard-response","309","208044","0.0-396.0","3X3OR7WPZ0M6TCB0IC3GGRNHPU2L8U","A2APG8MSLJ6G2K","3THR0FZ95PF7SK0MYRNAOUHTWDJOLG","","591.9000000953674","img/food5.png","75","592.5","2","1","","1","1","1,0.5,0,1,0.5,0,0.5,0,1","1,0.5,0,1,0.5,0,0.5,0,1","1",""
"","html-keyboard-response","310","208345","0.0-397.0","3X3OR7WPZ0M6TCB0IC3GGRNHPU2L8U","A2APG8MSLJ6G2K","3THR0FZ95PF7SK0MYRNAOUHTWDJOLG","","null","<img src=""img/food5.png"" style=""width:200px; border:14px solid green;"">","null","","","","","","","","","",""
"","image-keyboard-response","311","209117","0.0-398.0","3X3OR7WPZ0M6TCB0IC3GGRNHPU2L8U","A2APG8MSLJ6G2K","3THR0FZ95PF7SK0MYRNAOUHTWDJOLG","","770.6000001430511","img/food3.png","76","771.1000001430511","3","1","","3","1","1,0.5,0,1,0.5,0,0.5,0,1","1,0.5,0,1,0.5,0,0.5,0,1","1",""
"","html-keyboard-response","312","209419","0.0-399.0","3X3OR7WPZ0M6TCB0IC3GGRNHPU2L8U","A2APG8MSLJ6G2K","3THR0FZ95PF7SK0MYRNAOUHTWDJOLG","","null","<img src=""img/food3.png"" style=""width:200px; border:14px solid green;"">","null","","","","","","","","","",""
"","image-keyboard-response","313","210460","0.0-400.0","3X3OR7WPZ0M6TCB0IC3GGRNHPU2L8U","A2APG8MSLJ6G2K","3THR0FZ95PF7SK0MYRNAOUHTWDJOLG","","1040.9000000953674","img/food4.png","75","1041.4000000953674","2","0","","2","1","1,0.5,0,1,0.5,0,0.5,0,1","1,0.5,0,1,0.5,0,0.5,0,1","1",""
"","html-keyboard-response","314","210762","0.0-401.0","3X3OR7WPZ0M6TCB0IC3GGRNHPU2L8U","A2APG8MSLJ6G2K","3THR0FZ95PF7SK0MYRNAOUHTWDJOLG","","null","<img src=""img/food4.png"" style=""width:200px;border:14px solid red;"">","null","","","","","","","","","",""
"","image-keyboard-response","315","212372","0.0-402.0","3X3OR7WPZ0M6TCB0IC3GGRNHPU2L8U","A2APG8MSLJ6G2K","3THR0FZ95PF7SK0MYRNAOUHTWDJOLG","","1609.7999999523163","img/food5.png","75","1610.3000001907349","2","0","","1","1","1,0.5,0,1,0.5,0,0.5,0,1","1,0.5,0,1,0.5,0,0.5,0,1","1",""
"","html-keyboard-response","316","212674","0.0-403.0","3X3OR7WPZ0M6TCB0IC3GGRNHPU2L8U","A2APG8MSLJ6G2K","3THR0FZ95PF7SK0MYRNAOUHTWDJOLG","","null","<img src=""img/food5.png"" style=""width:200px;border:14px solid red;"">","null","","","","","","","","","",""
"","image-keyboard-response","317","213141","0.0-404.0","3X3OR7WPZ0M6TCB0IC3GGRNHPU2L8U","A2APG8MSLJ6G2K","3THR0FZ95PF7SK0MYRNAOUHTWDJOLG","","465.7999999523163","img/food4.png","75","466.2999999523163","2","0","","2","1","1,0.5,0,1,0.5,0,0.5,0,1","1,0.5,0,1,0.5,0,0.5,0,1","1",""
"","html-keyboard-response","318","213442","0.0-405.0","3X3OR7WPZ0M6TCB0IC3GGRNHPU2L8U","A2APG8MSLJ6G2K","3THR0FZ95PF7SK0MYRNAOUHTWDJOLG","","null","<img src=""img/food4.png"" style=""width:200px;border:14px solid red;"">","null","","","","","","","","","",""
"","image-keyboard-response","319","214229","0.0-406.0","3X3OR7WPZ0M6TCB0IC3GGRNHPU2L8U","A2APG8MSLJ6G2K","3THR0FZ95PF7SK0MYRNAOUHTWDJOLG","","785.7999999523163","img/food5.png","75","786.6000001430511","2","1","","1","1","1,0.5,0,1,0.5,0,0.5,0,1","1,0.5,0,1,0.5,0,0.5,0,1","1",""
"","html-keyboard-response","320","214530","0.0-407.0","3X3OR7WPZ0M6TCB0IC3GGRNHPU2L8U","A2APG8MSLJ6G2K","3THR0FZ95PF7SK0MYRNAOUHTWDJOLG","","null","<img src=""img/food5.png"" style=""width:200px; border:14px solid green;"">","null","","","","","","","","","",""
"","image-keyboard-response","321","215397","0.0-408.0","3X3OR7WPZ0M6TCB0IC3GGRNHPU2L8U","A2APG8MSLJ6G2K","3THR0FZ95PF7SK0MYRNAOUHTWDJOLG","","865.9000000953674","img/food3.png","76","866.5","3","1","","3","1","1,0.5,0,1,0.5,0,0.5,0,1","1,0.5,0,1,0.5,0,0.5,0,1","1",""
"","html-keyboard-response","322","215697","0.0-409.0","3X3OR7WPZ0M6TCB0IC3GGRNHPU2L8U","A2APG8MSLJ6G2K","3THR0FZ95PF7SK0MYRNAOUHTWDJOLG","","null","<img src=""img/food3.png"" style=""width:200px; border:14px solid green;"">","null","","","","","","","","","",""
"","image-keyboard-response","323","216701","0.0-410.0","3X3OR7WPZ0M6TCB0IC3GGRNHPU2L8U","A2APG8MSLJ6G2K","3THR0FZ95PF7SK0MYRNAOUHTWDJOLG","","1002.6999998092651","img/food5.png","75","1003.3000001907349","2","0","","1","1","1,0.5,0,1,0.5,0,0.5,0,1","1,0.5,0,1,0.5,0,0.5,0,1","1",""
"","html-keyboard-response","324","217002","0.0-411.0","3X3OR7WPZ0M6TCB0IC3GGRNHPU2L8U","A2APG8MSLJ6G2K","3THR0FZ95PF7SK0MYRNAOUHTWDJOLG","","null","<img src=""img/food5.png"" style=""width:200px;border:14px solid red;"">","null","","","","","","","","","",""
"","image-keyboard-response","325","217462","0.0-412.0","3X3OR7WPZ0M6TCB0IC3GGRNHPU2L8U","A2APG8MSLJ6G2K","3THR0FZ95PF7SK0MYRNAOUHTWDJOLG","","459","img/food5.png","75","459.39999985694885","2","0","","1","1","1,0.5,0,1,0.5,0,0.5,0,1","1,0.5,0,1,0.5,0,0.5,0,1","1",""
"","html-keyboard-response","326","217763","0.0-413.0","3X3OR7WPZ0M6TCB0IC3GGRNHPU2L8U","A2APG8MSLJ6G2K","3THR0FZ95PF7SK0MYRNAOUHTWDJOLG","","null","<img src=""img/food5.png"" style=""width:200px;border:14px solid red;"">","null","","","","","","","","","",""
"","image-keyboard-response","327","219701","0.0-414.0","3X3OR7WPZ0M6TCB0IC3GGRNHPU2L8U","A2APG8MSLJ6G2K","3THR0FZ95PF7SK0MYRNAOUHTWDJOLG","","1937.3999998569489","img/food5.png","74","1937.8999998569489","1","1","","1","1","1,0.5,0,1,0.5,0,0.5,0,1","1,0.5,0,1,0.5,0,0.5,0,1","1",""
"","html-keyboard-response","328","220002","0.0-415.0","3X3OR7WPZ0M6TCB0IC3GGRNHPU2L8U","A2APG8MSLJ6G2K","3THR0FZ95PF7SK0MYRNAOUHTWDJOLG","","null","<img src=""img/food5.png"" style=""width:200px; border:14px solid green;"">","null","","","","","","","","","",""
"","image-keyboard-response","329","221333","0.0-416.0","3X3OR7WPZ0M6TCB0IC3GGRNHPU2L8U","A2APG8MSLJ6G2K","3THR0FZ95PF7SK0MYRNAOUHTWDJOLG","","1329.6000001430511","img/food5.png","74","1330.0999999046326","1","1","","1","1","1,0.5,0,1,0.5,0,0.5,0,1","1,0.5,0,1,0.5,0,0.5,0,1","1",""
"","html-keyboard-response","330","221633","0.0-417.0","3X3OR7WPZ0M6TCB0IC3GGRNHPU2L8U","A2APG8MSLJ6G2K","3THR0FZ95PF7SK0MYRNAOUHTWDJOLG","","null","<img src=""img/food5.png"" style=""width:200px; border:14px solid green;"">","null","","","","","","","","","",""
"","image-keyboard-response","331","222308","0.0-418.0","3X3OR7WPZ0M6TCB0IC3GGRNHPU2L8U","A2APG8MSLJ6G2K","3THR0FZ95PF7SK0MYRNAOUHTWDJOLG","","674.1999998092651","img/food5.png","74","674.8000001907349","1","1","","1","1","1,0.5,0,1,0.5,0,0.5,0,1","1,0.5,0,1,0.5,0,0.5,0,1","1",""
"","html-keyboard-response","332","222610","0.0-419.0","3X3OR7WPZ0M6TCB0IC3GGRNHPU2L8U","A2APG8MSLJ6G2K","3THR0FZ95PF7SK0MYRNAOUHTWDJOLG","","null","<img src=""img/food5.png"" style=""width:200px; border:14px solid green;"">","null","","","","","","","","","",""
"","image-keyboard-response","333","223460","0.0-420.0","3X3OR7WPZ0M6TCB0IC3GGRNHPU2L8U","A2APG8MSLJ6G2K","3THR0FZ95PF7SK0MYRNAOUHTWDJOLG","","849.2000000476837","img/food3.png","76","850","3","1","","3","1","1,0.5,0,1,0.5,0,0.5,0,1","1,0.5,0,1,0.5,0,0.5,0,1","1",""
"","html-keyboard-response","334","223761","0.0-421.0","3X3OR7WPZ0M6TCB0IC3GGRNHPU2L8U","A2APG8MSLJ6G2K","3THR0FZ95PF7SK0MYRNAOUHTWDJOLG","","null","<img src=""img/food3.png"" style=""width:200px; border:14px solid green;"">","null","","","","","","","","","",""
"","image-keyboard-response","335","224533","0.0-422.0","3X3OR7WPZ0M6TCB0IC3GGRNHPU2L8U","A2APG8MSLJ6G2K","3THR0FZ95PF7SK0MYRNAOUHTWDJOLG","","770.8999998569489","img/food4.png","75","771.5999999046326","2","1","","2","1","1,0.5,0,1,0.5,0,0.5,0,1","1,0.5,0,1,0.5,0,0.5,0,1","1",""
"","html-keyboard-response","336","224834","0.0-423.0","3X3OR7WPZ0M6TCB0IC3GGRNHPU2L8U","A2APG8MSLJ6G2K","3THR0FZ95PF7SK0MYRNAOUHTWDJOLG","","null","<img src=""img/food4.png"" style=""width:200px; border:14px solid green;"">","null","","","","","","","","","",""
"","image-keyboard-response","337","227469","0.0-424.0","3X3OR7WPZ0M6TCB0IC3GGRNHPU2L8U","A2APG8MSLJ6G2K","3THR0FZ95PF7SK0MYRNAOUHTWDJOLG","","2634.600000143051","img/food5.png","75","2635.100000143051","2","0","","1","1","1,0.5,0,1,0.5,0,0.5,0,1","1,0.5,0,1,0.5,0,0.5,0,1","1",""
"","html-keyboard-response","338","227770","0.0-425.0","3X3OR7WPZ0M6TCB0IC3GGRNHPU2L8U","A2APG8MSLJ6G2K","3THR0FZ95PF7SK0MYRNAOUHTWDJOLG","","null","<img src=""img/food5.png"" style=""width:200px;border:14px solid red;"">","null","","","","","","","","","",""
"","image-keyboard-response","339","228549","0.0-426.0","3X3OR7WPZ0M6TCB0IC3GGRNHPU2L8U","A2APG8MSLJ6G2K","3THR0FZ95PF7SK0MYRNAOUHTWDJOLG","","777.5","img/food3.png","76","778","3","1","","3","1","1,0.5,0,1,0.5,0,0.5,0,1","1,0.5,0,1,0.5,0,0.5,0,1","1",""
"","html-keyboard-response","340","228850","0.0-427.0","3X3OR7WPZ0M6TCB0IC3GGRNHPU2L8U","A2APG8MSLJ6G2K","3THR0FZ95PF7SK0MYRNAOUHTWDJOLG","","null","<img src=""img/food3.png"" style=""width:200px; border:14px solid green;"">","null","","","","","","","","","",""
"","image-keyboard-response","341","229933","0.0-428.0","3X3OR7WPZ0M6TCB0IC3GGRNHPU2L8U","A2APG8MSLJ6G2K","3THR0FZ95PF7SK0MYRNAOUHTWDJOLG","","1081.2999999523163","img/food5.png","74","1081.7999999523163","1","1","","1","1","1,0.5,0,1,0.5,0,0.5,0,1","1,0.5,0,1,0.5,0,0.5,0,1","1",""
"","html-keyboard-response","342","230234","0.0-429.0","3X3OR7WPZ0M6TCB0IC3GGRNHPU2L8U","A2APG8MSLJ6G2K","3THR0FZ95PF7SK0MYRNAOUHTWDJOLG","","null","<img src=""img/food5.png"" style=""width:200px; border:14px solid green;"">","null","","","","","","","","","",""
"","image-keyboard-response","343","230933","0.0-430.0","3X3OR7WPZ0M6TCB0IC3GGRNHPU2L8U","A2APG8MSLJ6G2K","3THR0FZ95PF7SK0MYRNAOUHTWDJOLG","","698.3000001907349","img/food5.png","74","698.7999999523163","1","1","","1","1","1,0.5,0,1,0.5,0,0.5,0,1","1,0.5,0,1,0.5,0,0.5,0,1","1",""
"","html-keyboard-response","344","231234","0.0-431.0","3X3OR7WPZ0M6TCB0IC3GGRNHPU2L8U","A2APG8MSLJ6G2K","3THR0FZ95PF7SK0MYRNAOUHTWDJOLG","","null","<img src=""img/food5.png"" style=""width:200px; border:14px solid green;"">","null","","","","","","","","","",""
"","image-keyboard-response","345","231740","0.0-432.0","3X3OR7WPZ0M6TCB0IC3GGRNHPU2L8U","A2APG8MSLJ6G2K","3THR0FZ95PF7SK0MYRNAOUHTWDJOLG","","505.7999999523163","img/food5.png","74","506.40000009536743","1","1","","1","1","1,0.5,0,1,0.5,0,0.5,0,1","1,0.5,0,1,0.5,0,0.5,0,1","1",""
"","html-keyboard-response","346","232041","0.0-433.0","3X3OR7WPZ0M6TCB0IC3GGRNHPU2L8U","A2APG8MSLJ6G2K","3THR0FZ95PF7SK0MYRNAOUHTWDJOLG","","null","<img src=""img/food5.png"" style=""width:200px; border:14px solid green;"">","null","","","","","","","","","",""
"","image-keyboard-response","347","232821","0.0-434.0","3X3OR7WPZ0M6TCB0IC3GGRNHPU2L8U","A2APG8MSLJ6G2K","3THR0FZ95PF7SK0MYRNAOUHTWDJOLG","","778.3999998569489","img/food3.png","76","779.0999999046326","3","1","","3","1","1,0.5,0,1,0.5,0,0.5,0,1","1,0.5,0,1,0.5,0,0.5,0,1","1",""
"","html-keyboard-response","348","233122","0.0-435.0","3X3OR7WPZ0M6TCB0IC3GGRNHPU2L8U","A2APG8MSLJ6G2K","3THR0FZ95PF7SK0MYRNAOUHTWDJOLG","","null","<img src=""img/food3.png"" style=""width:200px; border:14px solid green;"">","null","","","","","","","","","",""
"","image-keyboard-response","349","233645","0.0-436.0","3X3OR7WPZ0M6TCB0IC3GGRNHPU2L8U","A2APG8MSLJ6G2K","3THR0FZ95PF7SK0MYRNAOUHTWDJOLG","","522.4000000953674","img/food3.png","76","523","3","1","","3","1","1,0.5,0,1,0.5,0,0.5,0,1","1,0.5,0,1,0.5,0,0.5,0,1","1",""
"","html-keyboard-response","350","233947","0.0-437.0","3X3OR7WPZ0M6TCB0IC3GGRNHPU2L8U","A2APG8MSLJ6G2K","3THR0FZ95PF7SK0MYRNAOUHTWDJOLG","","null","<img src=""img/food3.png"" style=""width:200px; border:14px solid green;"">","null","","","","","","","","","",""
"","image-keyboard-response","351","234692","0.0-438.0","3X3OR7WPZ0M6TCB0IC3GGRNHPU2L8U","A2APG8MSLJ6G2K","3THR0FZ95PF7SK0MYRNAOUHTWDJOLG","","744.8999998569489","img/food5.png","74","745.5","1","1","","1","1","1,0.5,0,1,0.5,0,0.5,0,1","1,0.5,0,1,0.5,0,0.5,0,1","1",""
"","html-keyboard-response","352","234994","0.0-439.0","3X3OR7WPZ0M6TCB0IC3GGRNHPU2L8U","A2APG8MSLJ6G2K","3THR0FZ95PF7SK0MYRNAOUHTWDJOLG","","null","<img src=""img/food5.png"" style=""width:200px; border:14px solid green;"">","null","","","","","","","","","",""
"","image-keyboard-response","353","235747","0.0-440.0","3X3OR7WPZ0M6TCB0IC3GGRNHPU2L8U","A2APG8MSLJ6G2K","3THR0FZ95PF7SK0MYRNAOUHTWDJOLG","","752.7000000476837","img/food3.png","76","753.2000000476837","3","1","","3","1","1,0.5,0,1,0.5,0,0.5,0,1","1,0.5,0,1,0.5,0,0.5,0,1","1",""
"","html-keyboard-response","354","236049","0.0-441.0","3X3OR7WPZ0M6TCB0IC3GGRNHPU2L8U","A2APG8MSLJ6G2K","3THR0FZ95PF7SK0MYRNAOUHTWDJOLG","","null","<img src=""img/food3.png"" style=""width:200px; border:14px solid green;"">","null","","","","","","","","","",""
"","image-keyboard-response","355","236629","0.0-442.0","3X3OR7WPZ0M6TCB0IC3GGRNHPU2L8U","A2APG8MSLJ6G2K","3THR0FZ95PF7SK0MYRNAOUHTWDJOLG","","579.5999999046326","img/food3.png","76","580.1999998092651","3","1","","3","1","1,0.5,0,1,0.5,0,0.5,0,1","1,0.5,0,1,0.5,0,0.5,0,1","1",""
"","html-keyboard-response","356","236930","0.0-443.0","3X3OR7WPZ0M6TCB0IC3GGRNHPU2L8U","A2APG8MSLJ6G2K","3THR0FZ95PF7SK0MYRNAOUHTWDJOLG","","null","<img src=""img/food3.png"" style=""width:200px; border:14px solid green;"">","null","","","","","","","","","",""
"","image-keyboard-response","357","237364","0.0-444.0","3X3OR7WPZ0M6TCB0IC3GGRNHPU2L8U","A2APG8MSLJ6G2K","3THR0FZ95PF7SK0MYRNAOUHTWDJOLG","","432.5","img/food3.png","76","432.89999985694885","3","1","","3","1","1,0.5,0,1,0.5,0,0.5,0,1","1,0.5,0,1,0.5,0,0.5,0,1","1",""
"","html-keyboard-response","358","237665","0.0-445.0","3X3OR7WPZ0M6TCB0IC3GGRNHPU2L8U","A2APG8MSLJ6G2K","3THR0FZ95PF7SK0MYRNAOUHTWDJOLG","","null","<img src=""img/food3.png"" style=""width:200px; border:14px solid green;"">","null","","","","","","","","","",""
"","image-keyboard-response","359","238181","0.0-446.0","3X3OR7WPZ0M6TCB0IC3GGRNHPU2L8U","A2APG8MSLJ6G2K","3THR0FZ95PF7SK0MYRNAOUHTWDJOLG","","514.7000000476837","img/food3.png","76","515.2999999523163","3","1","","3","1","1,0.5,0,1,0.5,0,0.5,0,1","1,0.5,0,1,0.5,0,0.5,0,1","1",""
"","html-keyboard-response","360","238482","0.0-447.0","3X3OR7WPZ0M6TCB0IC3GGRNHPU2L8U","A2APG8MSLJ6G2K","3THR0FZ95PF7SK0MYRNAOUHTWDJOLG","","null","<img src=""img/food3.png"" style=""width:200px; border:14px solid green;"">","null","","","","","","","","","",""
"","image-keyboard-response","361","238917","0.0-448.0","3X3OR7WPZ0M6TCB0IC3GGRNHPU2L8U","A2APG8MSLJ6G2K","3THR0FZ95PF7SK0MYRNAOUHTWDJOLG","","433.80000019073486","img/food3.png","76","434.19999980926514","3","1","","3","1","1,0.5,0,1,0.5,0,0.5,0,1","1,0.5,0,1,0.5,0,0.5,0,1","1",""
"","html-keyboard-response","362","239219","0.0-449.0","3X3OR7WPZ0M6TCB0IC3GGRNHPU2L8U","A2APG8MSLJ6G2K","3THR0FZ95PF7SK0MYRNAOUHTWDJOLG","","null","<img src=""img/food3.png"" style=""width:200px; border:14px solid green;"">","null","","","","","","","","","",""
"","image-keyboard-response","363","240117","0.0-450.0","3X3OR7WPZ0M6TCB0IC3GGRNHPU2L8U","A2APG8MSLJ6G2K","3THR0FZ95PF7SK0MYRNAOUHTWDJOLG","","897","img/food5.png","74","897.7000000476837","1","1","","1","1","1,0.5,0,1,0.5,0,0.5,0,1","1,0.5,0,1,0.5,0,0.5,0,1","1",""
"","html-keyboard-response","364","240419","0.0-451.0","3X3OR7WPZ0M6TCB0IC3GGRNHPU2L8U","A2APG8MSLJ6G2K","3THR0FZ95PF7SK0MYRNAOUHTWDJOLG","","null","<img src=""img/food5.png"" style=""width:200px; border:14px solid green;"">","null","","","","","","","","","",""
"","image-keyboard-response","365","240925","0.0-452.0","3X3OR7WPZ0M6TCB0IC3GGRNHPU2L8U","A2APG8MSLJ6G2K","3THR0FZ95PF7SK0MYRNAOUHTWDJOLG","","504.5","img/food5.png","74","505.2000000476837","1","1","","1","1","1,0.5,0,1,0.5,0,0.5,0,1","1,0.5,0,1,0.5,0,0.5,0,1","1",""
"","html-keyboard-response","366","241226","0.0-453.0","3X3OR7WPZ0M6TCB0IC3GGRNHPU2L8U","A2APG8MSLJ6G2K","3THR0FZ95PF7SK0MYRNAOUHTWDJOLG","","null","<img src=""img/food5.png"" style=""width:200px; border:14px solid green;"">","null","","","","","","","","","",""
"","html-keyboard-response","367","243799","0.0-454.0","3X3OR7WPZ0M6TCB0IC3GGRNHPU2L8U","A2APG8MSLJ6G2K","3THR0FZ95PF7SK0MYRNAOUHTWDJOLG","","","","","","","","","","","","","",""
"","instructions","368","246172","0.0-455.0","3X3OR7WPZ0M6TCB0IC3GGRNHPU2L8U","A2APG8MSLJ6G2K","3THR0FZ95PF7SK0MYRNAOUHTWDJOLG","[{""page_index"":0,""viewing_time"":2371.9000000953674}]","2372","","","","","","","","","","","",""
"","survey-text","369","249673","0.0-456.0","3X3OR7WPZ0M6TCB0IC3GGRNHPU2L8U","A2APG8MSLJ6G2K","3THR0FZ95PF7SK0MYRNAOUHTWDJOLG","","3499","","","","","","","","","","","","{""Q0"":""A2APG8MSLJ6G2K""}"
