"success","trial_type","trial_index","time_elapsed","internal_node_id","assignmentID","mturkID","hitID","view_history","rt","stimulus","key_press","reactionTime","a","r","s","cond","reward_cond","reward_cond_actual","reward_matrix_idx","warning","responses"
"true","fullscreen","0","6614","0.0-0.0","39GAF6DQWSMREH39XVW7OQYB2J2V11","A2BABL5AHUOYC7","3FVBZG9CLJ0K37PD5L6161S4HTM0HN","","","","","","","","","","","","","",""
"","instructions","1","39015","0.0-1.0","39GAF6DQWSMREH39XVW7OQYB2J2V11","A2BABL5AHUOYC7","3FVBZG9CLJ0K37PD5L6161S4HTM0HN","[{""page_index"":0,""viewing_time"":2353.7999999821186},{""page_index"":1,""viewing_time"":1416.1000000238419},{""page_index"":2,""viewing_time"":1854.2999999821186},{""page_index"":1,""viewing_time"":1078},{""page_index"":0,""viewing_time"":2758.0999999940395},{""page_index"":1,""viewing_time"":964.4000000059605},{""page_index"":2,""viewing_time"":1403.4000000059605},{""page_index"":3,""viewing_time"":3609.699999988079},{""page_index"":4,""viewing_time"":13800},{""page_index"":5,""viewing_time"":1829.300000011921},{""page_index"":6,""viewing_time"":1328.699999988079}]","32396.90000000596","","","","","","","","","","","",""
"","image-keyboard-response","2","41052","0.0-2.0","39GAF6DQWSMREH39XVW7OQYB2J2V11","A2BABL5AHUOYC7","3FVBZG9CLJ0K37PD5L6161S4HTM0HN","","2034.199999988079","img/food2.png","75","2036.5999999940395","2","1","1","1","1,0.5,0,1,0.5,0,0.5,0,1","0,1,0.5,0,1,0.5,1,0.5,0","3","",""
"","html-keyboard-response","3","41367","0.0-3.0","39GAF6DQWSMREH39XVW7OQYB2J2V11","A2BABL5AHUOYC7","3FVBZG9CLJ0K37PD5L6161S4HTM0HN","","null","<img src=""img/food2.png"" style=""width:200px; border:14px solid green;"">","null","","","","","","","","","",""
"","image-keyboard-response","4","41912","0.0-4.0","39GAF6DQWSMREH39XVW7OQYB2J2V11","A2BABL5AHUOYC7","3FVBZG9CLJ0K37PD5L6161S4HTM0HN","","542.5999999940395","img/food3.png","74","544.9000000059605","1","1","3","1","1,0.5,0,1,0.5,0,0.5,0,1","0,1,0.5,0,1,0.5,1,0.5,0","3","",""
"","html-keyboard-response","5","42232","0.0-5.0","39GAF6DQWSMREH39XVW7OQYB2J2V11","A2BABL5AHUOYC7","3FVBZG9CLJ0K37PD5L6161S4HTM0HN","","null","<img src=""img/food3.png"" style=""width:200px; border:14px solid green;"">","null","","","","","","","","","",""
"","image-keyboard-response","6","43129","0.0-6.0","39GAF6DQWSMREH39XVW7OQYB2J2V11","A2BABL5AHUOYC7","3FVBZG9CLJ0K37PD5L6161S4HTM0HN","","895.6999999880791","img/food3.png","74","896.6999999880791","1","1","3","1","1,0.5,0,1,0.5,0,0.5,0,1","0,1,0.5,0,1,0.5,1,0.5,0","3","",""
"","html-keyboard-response","7","43437","0.0-7.0","39GAF6DQWSMREH39XVW7OQYB2J2V11","A2BABL5AHUOYC7","3FVBZG9CLJ0K37PD5L6161S4HTM0HN","","null","<img src=""img/food3.png"" style=""width:200px; border:14px solid green;"">","null","","","","","","","","","",""
"","image-keyboard-response","8","44500","0.0-8.0","39GAF6DQWSMREH39XVW7OQYB2J2V11","A2BABL5AHUOYC7","3FVBZG9CLJ0K37PD5L6161S4HTM0HN","","1061.0999999940395","img/food1.png","75","1062.5999999940395","2","1","2","1","1,0.5,0,1,0.5,0,0.5,0,1","0,1,0.5,0,1,0.5,1,0.5,0","3","",""
"","html-keyboard-response","9","44819","0.0-9.0","39GAF6DQWSMREH39XVW7OQYB2J2V11","A2BABL5AHUOYC7","3FVBZG9CLJ0K37PD5L6161S4HTM0HN","","null","<img src=""img/food1.png"" style=""width:200px; border:14px solid green;"">","null","","","","","","","","","",""
"","image-keyboard-response","10","45402","0.0-10.0","39GAF6DQWSMREH39XVW7OQYB2J2V11","A2BABL5AHUOYC7","3FVBZG9CLJ0K37PD5L6161S4HTM0HN","","580.5","img/food3.png","74","582.5999999940395","1","1","3","1","1,0.5,0,1,0.5,0,0.5,0,1","0,1,0.5,0,1,0.5,1,0.5,0","3","",""
"","html-keyboard-response","11","45714","0.0-11.0","39GAF6DQWSMREH39XVW7OQYB2J2V11","A2BABL5AHUOYC7","3FVBZG9CLJ0K37PD5L6161S4HTM0HN","","null","<img src=""img/food3.png"" style=""width:200px; border:14px solid green;"">","null","","","","","","","","","",""
"","image-keyboard-response","12","46488","0.0-12.0","39GAF6DQWSMREH39XVW7OQYB2J2V11","A2BABL5AHUOYC7","3FVBZG9CLJ0K37PD5L6161S4HTM0HN","","771.8000000119209","img/food3.png","74","773.2000000178814","1","1","3","1","1,0.5,0,1,0.5,0,0.5,0,1","0,1,0.5,0,1,0.5,1,0.5,0","3","",""
"","html-keyboard-response","13","46806","0.0-13.0","39GAF6DQWSMREH39XVW7OQYB2J2V11","A2BABL5AHUOYC7","3FVBZG9CLJ0K37PD5L6161S4HTM0HN","","null","<img src=""img/food3.png"" style=""width:200px; border:14px solid green;"">","null","","","","","","","","","",""
"","image-keyboard-response","14","47563","0.0-14.0","39GAF6DQWSMREH39XVW7OQYB2J2V11","A2BABL5AHUOYC7","3FVBZG9CLJ0K37PD5L6161S4HTM0HN","","755.2999999821186","img/food1.png","75","756.9000000059605","2","1","2","1","1,0.5,0,1,0.5,0,0.5,0,1","0,1,0.5,0,1,0.5,1,0.5,0","3","",""
"","html-keyboard-response","15","47875","0.0-15.0","39GAF6DQWSMREH39XVW7OQYB2J2V11","A2BABL5AHUOYC7","3FVBZG9CLJ0K37PD5L6161S4HTM0HN","","null","<img src=""img/food1.png"" style=""width:200px; border:14px solid green;"">","null","","","","","","","","","",""
"","image-keyboard-response","16","48496","0.0-16.0","39GAF6DQWSMREH39XVW7OQYB2J2V11","A2BABL5AHUOYC7","3FVBZG9CLJ0K37PD5L6161S4HTM0HN","","620.2000000178814","img/food3.png","74","621.3000000119209","1","1","3","1","1,0.5,0,1,0.5,0,0.5,0,1","0,1,0.5,0,1,0.5,1,0.5,0","3","",""
"","html-keyboard-response","17","48801","0.0-17.0","39GAF6DQWSMREH39XVW7OQYB2J2V11","A2BABL5AHUOYC7","3FVBZG9CLJ0K37PD5L6161S4HTM0HN","","null","<img src=""img/food3.png"" style=""width:200px; border:14px solid green;"">","null","","","","","","","","","",""
"","image-keyboard-response","18","49251","0.0-18.0","39GAF6DQWSMREH39XVW7OQYB2J2V11","A2BABL5AHUOYC7","3FVBZG9CLJ0K37PD5L6161S4HTM0HN","","447.40000000596046","img/food1.png","75","448.90000000596046","2","1","2","1","1,0.5,0,1,0.5,0,0.5,0,1","0,1,0.5,0,1,0.5,1,0.5,0","3","",""
"","html-keyboard-response","19","49561","0.0-19.0","39GAF6DQWSMREH39XVW7OQYB2J2V11","A2BABL5AHUOYC7","3FVBZG9CLJ0K37PD5L6161S4HTM0HN","","null","<img src=""img/food1.png"" style=""width:200px; border:14px solid green;"">","null","","","","","","","","","",""
"","image-keyboard-response","20","49813","0.0-20.0","39GAF6DQWSMREH39XVW7OQYB2J2V11","A2BABL5AHUOYC7","3FVBZG9CLJ0K37PD5L6161S4HTM0HN","","250.7000000178814","img/food2.png","74","252.09999999403954","1","0","1","1","1,0.5,0,1,0.5,0,0.5,0,1","0,1,0.5,0,1,0.5,1,0.5,0","3","",""
"","html-keyboard-response","21","50125","0.0-21.0","39GAF6DQWSMREH39XVW7OQYB2J2V11","A2BABL5AHUOYC7","3FVBZG9CLJ0K37PD5L6161S4HTM0HN","","null","<img src=""img/food2.png"" style=""width:200px;border:14px solid red;"">","null","","","","","","","","","",""
"","image-keyboard-response","22","50540","0.0-22.0","39GAF6DQWSMREH39XVW7OQYB2J2V11","A2BABL5AHUOYC7","3FVBZG9CLJ0K37PD5L6161S4HTM0HN","","413.90000000596046","img/food3.png","75","415.10000002384186","2","0","3","1","1,0.5,0,1,0.5,0,0.5,0,1","0,1,0.5,0,1,0.5,1,0.5,0","3","",""
"","html-keyboard-response","23","50847","0.0-23.0","39GAF6DQWSMREH39XVW7OQYB2J2V11","A2BABL5AHUOYC7","3FVBZG9CLJ0K37PD5L6161S4HTM0HN","","null","<img src=""img/food3.png"" style=""width:200px;border:14px solid red;"">","null","","","","","","","","","",""
"","image-keyboard-response","24","51274","0.0-24.0","39GAF6DQWSMREH39XVW7OQYB2J2V11","A2BABL5AHUOYC7","3FVBZG9CLJ0K37PD5L6161S4HTM0HN","","425.40000000596046","img/food2.png","76","426.69999998807907","3","0","1","1","1,0.5,0,1,0.5,0,0.5,0,1","0,1,0.5,0,1,0.5,1,0.5,0","3","",""
"","html-keyboard-response","25","51594","0.0-25.0","39GAF6DQWSMREH39XVW7OQYB2J2V11","A2BABL5AHUOYC7","3FVBZG9CLJ0K37PD5L6161S4HTM0HN","","null","<img src=""img/food2.png"" style=""width:200px;border:14px solid red;"">","null","","","","","","","","","",""
"","image-keyboard-response","26","51847","0.0-26.0","39GAF6DQWSMREH39XVW7OQYB2J2V11","A2BABL5AHUOYC7","3FVBZG9CLJ0K37PD5L6161S4HTM0HN","","250.09999999403954","img/food2.png","74","252.19999998807907","1","0","1","1","1,0.5,0,1,0.5,0,0.5,0,1","0,1,0.5,0,1,0.5,1,0.5,0","3","",""
"","html-keyboard-response","27","52150","0.0-27.0","39GAF6DQWSMREH39XVW7OQYB2J2V11","A2BABL5AHUOYC7","3FVBZG9CLJ0K37PD5L6161S4HTM0HN","","null","<img src=""img/food2.png"" style=""width:200px;border:14px solid red;"">","null","","","","","","","","","",""
"","image-keyboard-response","28","52732","0.0-28.0","39GAF6DQWSMREH39XVW7OQYB2J2V11","A2BABL5AHUOYC7","3FVBZG9CLJ0K37PD5L6161S4HTM0HN","","580.3999999761581","img/food3.png","74","581.5999999940395","1","1","3","1","1,0.5,0,1,0.5,0,0.5,0,1","0,1,0.5,0,1,0.5,1,0.5,0","3","",""
"","html-keyboard-response","29","53054","0.0-29.0","39GAF6DQWSMREH39XVW7OQYB2J2V11","A2BABL5AHUOYC7","3FVBZG9CLJ0K37PD5L6161S4HTM0HN","","null","<img src=""img/food3.png"" style=""width:200px; border:14px solid green;"">","null","","","","","","","","","",""
"","image-keyboard-response","30","53319","0.0-30.0","39GAF6DQWSMREH39XVW7OQYB2J2V11","A2BABL5AHUOYC7","3FVBZG9CLJ0K37PD5L6161S4HTM0HN","","262.90000000596046","img/food2.png","74","264.40000000596046","1","0","1","1","1,0.5,0,1,0.5,0,0.5,0,1","0,1,0.5,0,1,0.5,1,0.5,0","3","",""
"","html-keyboard-response","31","53624","0.0-31.0","39GAF6DQWSMREH39XVW7OQYB2J2V11","A2BABL5AHUOYC7","3FVBZG9CLJ0K37PD5L6161S4HTM0HN","","null","<img src=""img/food2.png"" style=""width:200px;border:14px solid red;"">","null","","","","","","","","","",""
"","image-keyboard-response","32","54308","0.0-32.0","39GAF6DQWSMREH39XVW7OQYB2J2V11","A2BABL5AHUOYC7","3FVBZG9CLJ0K37PD5L6161S4HTM0HN","","681.8999999761581","img/food1.png","75","683.0999999940395","2","1","2","1","1,0.5,0,1,0.5,0,0.5,0,1","0,1,0.5,0,1,0.5,1,0.5,0","3","",""
"","html-keyboard-response","33","54617","0.0-33.0","39GAF6DQWSMREH39XVW7OQYB2J2V11","A2BABL5AHUOYC7","3FVBZG9CLJ0K37PD5L6161S4HTM0HN","","null","<img src=""img/food1.png"" style=""width:200px; border:14px solid green;"">","null","","","","","","","","","",""
"","image-keyboard-response","34","55256","0.0-34.0","39GAF6DQWSMREH39XVW7OQYB2J2V11","A2BABL5AHUOYC7","3FVBZG9CLJ0K37PD5L6161S4HTM0HN","","637","img/food3.png","74","638.1999999880791","1","1","3","1","1,0.5,0,1,0.5,0,0.5,0,1","0,1,0.5,0,1,0.5,1,0.5,0","3","",""
"","html-keyboard-response","35","55565","0.0-35.0","39GAF6DQWSMREH39XVW7OQYB2J2V11","A2BABL5AHUOYC7","3FVBZG9CLJ0K37PD5L6161S4HTM0HN","","null","<img src=""img/food3.png"" style=""width:200px; border:14px solid green;"">","null","","","","","","","","","",""
"","image-keyboard-response","36","56362","0.0-36.0","39GAF6DQWSMREH39XVW7OQYB2J2V11","A2BABL5AHUOYC7","3FVBZG9CLJ0K37PD5L6161S4HTM0HN","","795.9000000059605","img/food2.png","74","796.9000000059605","1","0","1","1","1,0.5,0,1,0.5,0,0.5,0,1","0,1,0.5,0,1,0.5,1,0.5,0","3","",""
"","html-keyboard-response","37","56668","0.0-37.0","39GAF6DQWSMREH39XVW7OQYB2J2V11","A2BABL5AHUOYC7","3FVBZG9CLJ0K37PD5L6161S4HTM0HN","","null","<img src=""img/food2.png"" style=""width:200px;border:14px solid red;"">","null","","","","","","","","","",""
"","image-keyboard-response","38","56833","0.0-38.0","39GAF6DQWSMREH39XVW7OQYB2J2V11","A2BABL5AHUOYC7","3FVBZG9CLJ0K37PD5L6161S4HTM0HN","","162.39999997615814","img/food2.png","75","164.09999999403954","2","1","1","1","1,0.5,0,1,0.5,0,0.5,0,1","0,1,0.5,0,1,0.5,1,0.5,0","3","",""
"","html-keyboard-response","39","57143","0.0-39.0","39GAF6DQWSMREH39XVW7OQYB2J2V11","A2BABL5AHUOYC7","3FVBZG9CLJ0K37PD5L6161S4HTM0HN","","null","<img src=""img/food2.png"" style=""width:200px; border:14px solid green;"">","null","","","","","","","","","",""
"","image-keyboard-response","40","57860","0.0-40.0","39GAF6DQWSMREH39XVW7OQYB2J2V11","A2BABL5AHUOYC7","3FVBZG9CLJ0K37PD5L6161S4HTM0HN","","716.6000000238419","img/food3.png","74","717.8000000119209","1","1","3","1","1,0.5,0,1,0.5,0,0.5,0,1","0,1,0.5,0,1,0.5,1,0.5,0","3","",""
"","html-keyboard-response","41","58171","0.0-41.0","39GAF6DQWSMREH39XVW7OQYB2J2V11","A2BABL5AHUOYC7","3FVBZG9CLJ0K37PD5L6161S4HTM0HN","","null","<img src=""img/food3.png"" style=""width:200px; border:14px solid green;"">","null","","","","","","","","","",""
"","image-keyboard-response","42","58487","0.0-42.0","39GAF6DQWSMREH39XVW7OQYB2J2V11","A2BABL5AHUOYC7","3FVBZG9CLJ0K37PD5L6161S4HTM0HN","","315","img/food2.png","74","316.39999997615814","1","0","1","1","1,0.5,0,1,0.5,0,0.5,0,1","0,1,0.5,0,1,0.5,1,0.5,0","3","",""
"","html-keyboard-response","43","58801","0.0-43.0","39GAF6DQWSMREH39XVW7OQYB2J2V11","A2BABL5AHUOYC7","3FVBZG9CLJ0K37PD5L6161S4HTM0HN","","null","<img src=""img/food2.png"" style=""width:200px;border:14px solid red;"">","null","","","","","","","","","",""
"","image-keyboard-response","44","58876","0.0-44.0","39GAF6DQWSMREH39XVW7OQYB2J2V11","A2BABL5AHUOYC7","3FVBZG9CLJ0K37PD5L6161S4HTM0HN","","72.69999998807907","img/food2.png","75","74.40000000596046","2","1","1","1","1,0.5,0,1,0.5,0,0.5,0,1","0,1,0.5,0,1,0.5,1,0.5,0","3","",""
"","html-keyboard-response","45","59194","0.0-45.0","39GAF6DQWSMREH39XVW7OQYB2J2V11","A2BABL5AHUOYC7","3FVBZG9CLJ0K37PD5L6161S4HTM0HN","","null","<img src=""img/food2.png"" style=""width:200px; border:14px solid green;"">","null","","","","","","","","","",""
"","image-keyboard-response","46","59405","0.0-46.0","39GAF6DQWSMREH39XVW7OQYB2J2V11","A2BABL5AHUOYC7","3FVBZG9CLJ0K37PD5L6161S4HTM0HN","","209.7999999821186","img/food3.png","74","210.7999999821186","1","1","3","1","1,0.5,0,1,0.5,0,0.5,0,1","0,1,0.5,0,1,0.5,1,0.5,0","3","",""
"","html-keyboard-response","47","59707","0.0-47.0","39GAF6DQWSMREH39XVW7OQYB2J2V11","A2BABL5AHUOYC7","3FVBZG9CLJ0K37PD5L6161S4HTM0HN","","null","<img src=""img/food3.png"" style=""width:200px; border:14px solid green;"">","null","","","","","","","","","",""
"","image-keyboard-response","48","59717","0.0-48.0","39GAF6DQWSMREH39XVW7OQYB2J2V11","A2BABL5AHUOYC7","3FVBZG9CLJ0K37PD5L6161S4HTM0HN","","8.799999982118607","img/food1.png","75","10.300000011920929","2","1","2","1","1,0.5,0,1,0.5,0,0.5,0,1","0,1,0.5,0,1,0.5,1,0.5,0","3","",""
"","html-keyboard-response","49","60024","0.0-49.0","39GAF6DQWSMREH39XVW7OQYB2J2V11","A2BABL5AHUOYC7","3FVBZG9CLJ0K37PD5L6161S4HTM0HN","","null","<img src=""img/food1.png"" style=""width:200px; border:14px solid green;"">","null","","","","","","","","","",""
"","image-keyboard-response","50","60201","0.0-50.0","39GAF6DQWSMREH39XVW7OQYB2J2V11","A2BABL5AHUOYC7","3FVBZG9CLJ0K37PD5L6161S4HTM0HN","","174.5","img/food2.png","75","176","2","1","1","1","1,0.5,0,1,0.5,0,0.5,0,1","0,1,0.5,0,1,0.5,1,0.5,0","3","",""
"","html-keyboard-response","51","60517","0.0-51.0","39GAF6DQWSMREH39XVW7OQYB2J2V11","A2BABL5AHUOYC7","3FVBZG9CLJ0K37PD5L6161S4HTM0HN","","null","<img src=""img/food2.png"" style=""width:200px; border:14px solid green;"">","null","","","","","","","","","",""
"","image-keyboard-response","52","60552","0.0-52.0","39GAF6DQWSMREH39XVW7OQYB2J2V11","A2BABL5AHUOYC7","3FVBZG9CLJ0K37PD5L6161S4HTM0HN","","33.29999998211861","img/food1.png","74","34.69999998807907","1","0","2","1","1,0.5,0,1,0.5,0,0.5,0,1","0,1,0.5,0,1,0.5,1,0.5,0","3","",""
"","html-keyboard-response","53","60864","0.0-53.0","39GAF6DQWSMREH39XVW7OQYB2J2V11","A2BABL5AHUOYC7","3FVBZG9CLJ0K37PD5L6161S4HTM0HN","","null","<img src=""img/food1.png"" style=""width:200px;border:14px solid red;"">","null","","","","","","","","","",""
"","image-keyboard-response","54","61032","0.0-54.0","39GAF6DQWSMREH39XVW7OQYB2J2V11","A2BABL5AHUOYC7","3FVBZG9CLJ0K37PD5L6161S4HTM0HN","","166.69999998807907","img/food1.png","74","168.30000001192093","1","0","2","1","1,0.5,0,1,0.5,0,0.5,0,1","0,1,0.5,0,1,0.5,1,0.5,0","3","",""
"","html-keyboard-response","55","61343","0.0-55.0","39GAF6DQWSMREH39XVW7OQYB2J2V11","A2BABL5AHUOYC7","3FVBZG9CLJ0K37PD5L6161S4HTM0HN","","null","<img src=""img/food1.png"" style=""width:200px;border:14px solid red;"">","null","","","","","","","","","",""
"","image-keyboard-response","56","61480","0.0-56.0","39GAF6DQWSMREH39XVW7OQYB2J2V11","A2BABL5AHUOYC7","3FVBZG9CLJ0K37PD5L6161S4HTM0HN","","135.2000000178814","img/food2.png","75","136.5","2","1","1","1","1,0.5,0,1,0.5,0,0.5,0,1","0,1,0.5,0,1,0.5,1,0.5,0","3","",""
"","html-keyboard-response","57","61791","0.0-57.0","39GAF6DQWSMREH39XVW7OQYB2J2V11","A2BABL5AHUOYC7","3FVBZG9CLJ0K37PD5L6161S4HTM0HN","","null","<img src=""img/food2.png"" style=""width:200px; border:14px solid green;"">","null","","","","","","","","","",""
"","image-keyboard-response","58","62083","0.0-58.0","39GAF6DQWSMREH39XVW7OQYB2J2V11","A2BABL5AHUOYC7","3FVBZG9CLJ0K37PD5L6161S4HTM0HN","","289.90000000596046","img/food1.png","74","291.40000000596046","1","0","2","1","1,0.5,0,1,0.5,0,0.5,0,1","0,1,0.5,0,1,0.5,1,0.5,0","3","",""
"","html-keyboard-response","59","62391","0.0-59.0","39GAF6DQWSMREH39XVW7OQYB2J2V11","A2BABL5AHUOYC7","3FVBZG9CLJ0K37PD5L6161S4HTM0HN","","null","<img src=""img/food1.png"" style=""width:200px;border:14px solid red;"">","null","","","","","","","","","",""
"","image-keyboard-response","60","62484","0.0-60.0","39GAF6DQWSMREH39XVW7OQYB2J2V11","A2BABL5AHUOYC7","3FVBZG9CLJ0K37PD5L6161S4HTM0HN","","91.69999998807907","img/food2.png","75","92.90000000596046","2","1","1","1","1,0.5,0,1,0.5,0,0.5,0,1","0,1,0.5,0,1,0.5,1,0.5,0","3","",""
"","html-keyboard-response","61","62801","0.0-61.0","39GAF6DQWSMREH39XVW7OQYB2J2V11","A2BABL5AHUOYC7","3FVBZG9CLJ0K37PD5L6161S4HTM0HN","","null","<img src=""img/food2.png"" style=""width:200px; border:14px solid green;"">","null","","","","","","","","","",""
"","image-keyboard-response","62","62803","0.0-62.0","39GAF6DQWSMREH39XVW7OQYB2J2V11","A2BABL5AHUOYC7","3FVBZG9CLJ0K37PD5L6161S4HTM0HN","","0.30000001192092896","img/food1.png","75","1.699999988079071","2","1","2","1","1,0.5,0,1,0.5,0,0.5,0,1","0,1,0.5,0,1,0.5,1,0.5,0","3","",""
"","html-keyboard-response","63","63109","0.0-63.0","39GAF6DQWSMREH39XVW7OQYB2J2V11","A2BABL5AHUOYC7","3FVBZG9CLJ0K37PD5L6161S4HTM0HN","","null","<img src=""img/food1.png"" style=""width:200px; border:14px solid green;"">","null","","","","","","","","","",""
"","image-keyboard-response","64","63462","0.0-64.0","39GAF6DQWSMREH39XVW7OQYB2J2V11","A2BABL5AHUOYC7","3FVBZG9CLJ0K37PD5L6161S4HTM0HN","","351.80000001192093","img/food1.png","75","353","2","1","2","1","1,0.5,0,1,0.5,0,0.5,0,1","0,1,0.5,0,1,0.5,1,0.5,0","3","",""
"","html-keyboard-response","65","63769","0.0-65.0","39GAF6DQWSMREH39XVW7OQYB2J2V11","A2BABL5AHUOYC7","3FVBZG9CLJ0K37PD5L6161S4HTM0HN","","null","<img src=""img/food1.png"" style=""width:200px; border:14px solid green;"">","null","","","","","","","","","",""
"","image-keyboard-response","66","63824","0.0-66.0","39GAF6DQWSMREH39XVW7OQYB2J2V11","A2BABL5AHUOYC7","3FVBZG9CLJ0K37PD5L6161S4HTM0HN","","53.39999997615814","img/food1.png","74","54.69999998807907","1","0","2","1","1,0.5,0,1,0.5,0,0.5,0,1","0,1,0.5,0,1,0.5,1,0.5,0","3","",""
"","html-keyboard-response","67","64127","0.0-67.0","39GAF6DQWSMREH39XVW7OQYB2J2V11","A2BABL5AHUOYC7","3FVBZG9CLJ0K37PD5L6161S4HTM0HN","","null","<img src=""img/food1.png"" style=""width:200px;border:14px solid red;"">","null","","","","","","","","","",""
"","image-keyboard-response","68","64314","0.0-68.0","39GAF6DQWSMREH39XVW7OQYB2J2V11","A2BABL5AHUOYC7","3FVBZG9CLJ0K37PD5L6161S4HTM0HN","","184.5","img/food1.png","74","186.09999999403954","1","0","2","1","1,0.5,0,1,0.5,0,0.5,0,1","0,1,0.5,0,1,0.5,1,0.5,0","3","",""
"","html-keyboard-response","69","64628","0.0-69.0","39GAF6DQWSMREH39XVW7OQYB2J2V11","A2BABL5AHUOYC7","3FVBZG9CLJ0K37PD5L6161S4HTM0HN","","null","<img src=""img/food1.png"" style=""width:200px;border:14px solid red;"">","null","","","","","","","","","",""
"","image-keyboard-response","70","64697","0.0-70.0","39GAF6DQWSMREH39XVW7OQYB2J2V11","A2BABL5AHUOYC7","3FVBZG9CLJ0K37PD5L6161S4HTM0HN","","67.5","img/food1.png","74","69.10000002384186","1","0","2","1","1,0.5,0,1,0.5,0,0.5,0,1","0,1,0.5,0,1,0.5,1,0.5,0","3","",""
"","html-keyboard-response","71","65010","0.0-71.0","39GAF6DQWSMREH39XVW7OQYB2J2V11","A2BABL5AHUOYC7","3FVBZG9CLJ0K37PD5L6161S4HTM0HN","","null","<img src=""img/food1.png"" style=""width:200px;border:14px solid red;"">","null","","","","","","","","","",""
"","image-keyboard-response","72","65028","0.0-72.0","39GAF6DQWSMREH39XVW7OQYB2J2V11","A2BABL5AHUOYC7","3FVBZG9CLJ0K37PD5L6161S4HTM0HN","","16.80000001192093","img/food1.png","75","18.30000001192093","2","1","2","1","1,0.5,0,1,0.5,0,0.5,0,1","0,1,0.5,0,1,0.5,1,0.5,0","3","",""
"","html-keyboard-response","73","65337","0.0-73.0","39GAF6DQWSMREH39XVW7OQYB2J2V11","A2BABL5AHUOYC7","3FVBZG9CLJ0K37PD5L6161S4HTM0HN","","null","<img src=""img/food1.png"" style=""width:200px; border:14px solid green;"">","null","","","","","","","","","",""
"","image-keyboard-response","74","65440","0.0-74.0","39GAF6DQWSMREH39XVW7OQYB2J2V11","A2BABL5AHUOYC7","3FVBZG9CLJ0K37PD5L6161S4HTM0HN","","101.40000000596046","img/food3.png","75","102.7000000178814","2","0","3","1","1,0.5,0,1,0.5,0,0.5,0,1","0,1,0.5,0,1,0.5,1,0.5,0","3","",""
"","html-keyboard-response","75","65760","0.0-75.0","39GAF6DQWSMREH39XVW7OQYB2J2V11","A2BABL5AHUOYC7","3FVBZG9CLJ0K37PD5L6161S4HTM0HN","","null","<img src=""img/food3.png"" style=""width:200px;border:14px solid red;"">","null","","","","","","","","","",""
"","image-keyboard-response","76","65875","0.0-76.0","39GAF6DQWSMREH39XVW7OQYB2J2V11","A2BABL5AHUOYC7","3FVBZG9CLJ0K37PD5L6161S4HTM0HN","","112.7999999821186","img/food1.png","75","114.5","2","1","2","1","1,0.5,0,1,0.5,0,0.5,0,1","0,1,0.5,0,1,0.5,1,0.5,0","3","",""
"","html-keyboard-response","77","66209","0.0-77.0","39GAF6DQWSMREH39XVW7OQYB2J2V11","A2BABL5AHUOYC7","3FVBZG9CLJ0K37PD5L6161S4HTM0HN","","null","<img src=""img/food1.png"" style=""width:200px; border:14px solid green;"">","null","","","","","","","","","",""
"","image-keyboard-response","78","66292","0.0-78.0","39GAF6DQWSMREH39XVW7OQYB2J2V11","A2BABL5AHUOYC7","3FVBZG9CLJ0K37PD5L6161S4HTM0HN","","80.7999999821186","img/food2.png","74","82.09999999403954","1","0","1","1","1,0.5,0,1,0.5,0,0.5,0,1","0,1,0.5,0,1,0.5,1,0.5,0","3","",""
"","html-keyboard-response","79","66595","0.0-79.0","39GAF6DQWSMREH39XVW7OQYB2J2V11","A2BABL5AHUOYC7","3FVBZG9CLJ0K37PD5L6161S4HTM0HN","","null","<img src=""img/food2.png"" style=""width:200px;border:14px solid red;"">","null","","","","","","","","","",""
"","image-keyboard-response","80","66710","0.0-80.0","39GAF6DQWSMREH39XVW7OQYB2J2V11","A2BABL5AHUOYC7","3FVBZG9CLJ0K37PD5L6161S4HTM0HN","","113.2999999821186","img/food3.png","74","114.69999998807907","1","1","3","1","1,0.5,0,1,0.5,0,0.5,0,1","0,1,0.5,0,1,0.5,1,0.5,0","3","",""
"","html-keyboard-response","81","67018","0.0-81.0","39GAF6DQWSMREH39XVW7OQYB2J2V11","A2BABL5AHUOYC7","3FVBZG9CLJ0K37PD5L6161S4HTM0HN","","null","<img src=""img/food3.png"" style=""width:200px; border:14px solid green;"">","null","","","","","","","","","",""
"","image-keyboard-response","82","67139","0.0-82.0","39GAF6DQWSMREH39XVW7OQYB2J2V11","A2BABL5AHUOYC7","3FVBZG9CLJ0K37PD5L6161S4HTM0HN","","118.2999999821186","img/food1.png","74","120.59999999403954","1","0","2","1","1,0.5,0,1,0.5,0,0.5,0,1","0,1,0.5,0,1,0.5,1,0.5,0","3","",""
"","html-keyboard-response","83","67443","0.0-83.0","39GAF6DQWSMREH39XVW7OQYB2J2V11","A2BABL5AHUOYC7","3FVBZG9CLJ0K37PD5L6161S4HTM0HN","","null","<img src=""img/food1.png"" style=""width:200px;border:14px solid red;"">","null","","","","","","","","","",""
"","image-keyboard-response","84","67515","0.0-84.0","39GAF6DQWSMREH39XVW7OQYB2J2V11","A2BABL5AHUOYC7","3FVBZG9CLJ0K37PD5L6161S4HTM0HN","","70.89999997615814","img/food3.png","74","71.89999997615814","1","1","3","1","1,0.5,0,1,0.5,0,0.5,0,1","0,1,0.5,0,1,0.5,1,0.5,0","3","",""
"","html-keyboard-response","85","67822","0.0-85.0","39GAF6DQWSMREH39XVW7OQYB2J2V11","A2BABL5AHUOYC7","3FVBZG9CLJ0K37PD5L6161S4HTM0HN","","null","<img src=""img/food3.png"" style=""width:200px; border:14px solid green;"">","null","","","","","","","","","",""
"","image-keyboard-response","86","67933","0.0-86.0","39GAF6DQWSMREH39XVW7OQYB2J2V11","A2BABL5AHUOYC7","3FVBZG9CLJ0K37PD5L6161S4HTM0HN","","109.39999997615814","img/food1.png","75","110.59999999403954","2","1","2","1","1,0.5,0,1,0.5,0,0.5,0,1","0,1,0.5,0,1,0.5,1,0.5,0","3","",""
"","html-keyboard-response","87","68240","0.0-87.0","39GAF6DQWSMREH39XVW7OQYB2J2V11","A2BABL5AHUOYC7","3FVBZG9CLJ0K37PD5L6161S4HTM0HN","","null","<img src=""img/food1.png"" style=""width:200px; border:14px solid green;"">","null","","","","","","","","","",""
"","image-keyboard-response","88","68438","0.0-88.0","39GAF6DQWSMREH39XVW7OQYB2J2V11","A2BABL5AHUOYC7","3FVBZG9CLJ0K37PD5L6161S4HTM0HN","","196.69999998807907","img/food1.png","75","198.5","2","1","2","1","1,0.5,0,1,0.5,0,0.5,0,1","0,1,0.5,0,1,0.5,1,0.5,0","3","",""
"","html-keyboard-response","89","68748","0.0-89.0","39GAF6DQWSMREH39XVW7OQYB2J2V11","A2BABL5AHUOYC7","3FVBZG9CLJ0K37PD5L6161S4HTM0HN","","null","<img src=""img/food1.png"" style=""width:200px; border:14px solid green;"">","null","","","","","","","","","",""
"","image-keyboard-response","90","68923","0.0-90.0","39GAF6DQWSMREH39XVW7OQYB2J2V11","A2BABL5AHUOYC7","3FVBZG9CLJ0K37PD5L6161S4HTM0HN","","172.89999997615814","img/food1.png","74","174.7000000178814","1","0","2","1","1,0.5,0,1,0.5,0,0.5,0,1","0,1,0.5,0,1,0.5,1,0.5,0","3","",""
"","html-keyboard-response","91","69231","0.0-91.0","39GAF6DQWSMREH39XVW7OQYB2J2V11","A2BABL5AHUOYC7","3FVBZG9CLJ0K37PD5L6161S4HTM0HN","","null","<img src=""img/food1.png"" style=""width:200px;border:14px solid red;"">","null","","","","","","","","","",""
"","image-keyboard-response","92","69284","0.0-92.0","39GAF6DQWSMREH39XVW7OQYB2J2V11","A2BABL5AHUOYC7","3FVBZG9CLJ0K37PD5L6161S4HTM0HN","","50.900000005960464","img/food2.png","75","52.099999994039536","2","1","1","1","1,0.5,0,1,0.5,0,0.5,0,1","0,1,0.5,0,1,0.5,1,0.5,0","3","",""
"","html-keyboard-response","93","69586","0.0-93.0","39GAF6DQWSMREH39XVW7OQYB2J2V11","A2BABL5AHUOYC7","3FVBZG9CLJ0K37PD5L6161S4HTM0HN","","null","<img src=""img/food2.png"" style=""width:200px; border:14px solid green;"">","null","","","","","","","","","",""
"","image-keyboard-response","94","69778","0.0-94.0","39GAF6DQWSMREH39XVW7OQYB2J2V11","A2BABL5AHUOYC7","3FVBZG9CLJ0K37PD5L6161S4HTM0HN","","189.7000000178814","img/food2.png","74","191.09999999403954","1","0","1","1","1,0.5,0,1,0.5,0,0.5,0,1","0,1,0.5,0,1,0.5,1,0.5,0","3","",""
"","html-keyboard-response","95","70084","0.0-95.0","39GAF6DQWSMREH39XVW7OQYB2J2V11","A2BABL5AHUOYC7","3FVBZG9CLJ0K37PD5L6161S4HTM0HN","","null","<img src=""img/food2.png"" style=""width:200px;border:14px solid red;"">","null","","","","","","","","","",""
"","image-keyboard-response","96","70202","0.0-96.0","39GAF6DQWSMREH39XVW7OQYB2J2V11","A2BABL5AHUOYC7","3FVBZG9CLJ0K37PD5L6161S4HTM0HN","","115.40000000596046","img/food1.png","74","117.5","1","0","2","1","1,0.5,0,1,0.5,0,0.5,0,1","0,1,0.5,0,1,0.5,1,0.5,0","3","",""
"","html-keyboard-response","97","70508","0.0-97.0","39GAF6DQWSMREH39XVW7OQYB2J2V11","A2BABL5AHUOYC7","3FVBZG9CLJ0K37PD5L6161S4HTM0HN","","null","<img src=""img/food1.png"" style=""width:200px;border:14px solid red;"">","null","","","","","","","","","",""
"","image-keyboard-response","98","70702","0.0-98.0","39GAF6DQWSMREH39XVW7OQYB2J2V11","A2BABL5AHUOYC7","3FVBZG9CLJ0K37PD5L6161S4HTM0HN","","192.30000001192093","img/food3.png","75","193.69999998807907","2","0","3","1","1,0.5,0,1,0.5,0,0.5,0,1","0,1,0.5,0,1,0.5,1,0.5,0","3","",""
"","html-keyboard-response","99","71012","0.0-99.0","39GAF6DQWSMREH39XVW7OQYB2J2V11","A2BABL5AHUOYC7","3FVBZG9CLJ0K37PD5L6161S4HTM0HN","","null","<img src=""img/food3.png"" style=""width:200px;border:14px solid red;"">","null","","","","","","","","","",""
"","image-keyboard-response","100","71119","0.0-100.0","39GAF6DQWSMREH39XVW7OQYB2J2V11","A2BABL5AHUOYC7","3FVBZG9CLJ0K37PD5L6161S4HTM0HN","","104.40000000596046","img/food3.png","75","105.69999998807907","2","1","3","1","1,0.5,0,1,0.5,0,0.5,0,1","0,1,0.5,0,1,0.5,1,0.5,0","3","",""
"","html-keyboard-response","101","71435","0.0-101.0","39GAF6DQWSMREH39XVW7OQYB2J2V11","A2BABL5AHUOYC7","3FVBZG9CLJ0K37PD5L6161S4HTM0HN","","null","<img src=""img/food3.png"" style=""width:200px; border:14px solid green;"">","null","","","","","","","","","",""
"","image-keyboard-response","102","71460","0.0-102.0","39GAF6DQWSMREH39XVW7OQYB2J2V11","A2BABL5AHUOYC7","3FVBZG9CLJ0K37PD5L6161S4HTM0HN","","23.80000001192093","img/food1.png","74","24.799999982118607","1","0","2","1","1,0.5,0,1,0.5,0,0.5,0,1","0,1,0.5,0,1,0.5,1,0.5,0","3","",""
"","html-keyboard-response","103","71778","0.0-103.0","39GAF6DQWSMREH39XVW7OQYB2J2V11","A2BABL5AHUOYC7","3FVBZG9CLJ0K37PD5L6161S4HTM0HN","","null","<img src=""img/food1.png"" style=""width:200px;border:14px solid red;"">","null","","","","","","","","","",""
"","image-keyboard-response","104","71874","0.0-104.0","39GAF6DQWSMREH39XVW7OQYB2J2V11","A2BABL5AHUOYC7","3FVBZG9CLJ0K37PD5L6161S4HTM0HN","","93.40000000596046","img/food2.png","74","95.40000000596046","1","0","1","1","1,0.5,0,1,0.5,0,0.5,0,1","0,1,0.5,0,1,0.5,1,0.5,0","3","",""
"","html-keyboard-response","105","72179","0.0-105.0","39GAF6DQWSMREH39XVW7OQYB2J2V11","A2BABL5AHUOYC7","3FVBZG9CLJ0K37PD5L6161S4HTM0HN","","null","<img src=""img/food2.png"" style=""width:200px;border:14px solid red;"">","null","","","","","","","","","",""
"","image-keyboard-response","106","72265","0.0-106.0","39GAF6DQWSMREH39XVW7OQYB2J2V11","A2BABL5AHUOYC7","3FVBZG9CLJ0K37PD5L6161S4HTM0HN","","85.40000000596046","img/food2.png","74","86.30000001192093","1","0","1","1","1,0.5,0,1,0.5,0,0.5,0,1","0,1,0.5,0,1,0.5,1,0.5,0","3","",""
"","html-keyboard-response","107","72578","0.0-107.0","39GAF6DQWSMREH39XVW7OQYB2J2V11","A2BABL5AHUOYC7","3FVBZG9CLJ0K37PD5L6161S4HTM0HN","","null","<img src=""img/food2.png"" style=""width:200px;border:14px solid red;"">","null","","","","","","","","","",""
"","image-keyboard-response","108","72633","0.0-108.0","39GAF6DQWSMREH39XVW7OQYB2J2V11","A2BABL5AHUOYC7","3FVBZG9CLJ0K37PD5L6161S4HTM0HN","","54.30000001192093","img/food3.png","74","55.599999994039536","1","1","3","1","1,0.5,0,1,0.5,0,0.5,0,1","0,1,0.5,0,1,0.5,1,0.5,0","3","",""
"","html-keyboard-response","109","72947","0.0-109.0","39GAF6DQWSMREH39XVW7OQYB2J2V11","A2BABL5AHUOYC7","3FVBZG9CLJ0K37PD5L6161S4HTM0HN","","null","<img src=""img/food3.png"" style=""width:200px; border:14px solid green;"">","null","","","","","","","","","",""
"","image-keyboard-response","110","72980","0.0-110.0","39GAF6DQWSMREH39XVW7OQYB2J2V11","A2BABL5AHUOYC7","3FVBZG9CLJ0K37PD5L6161S4HTM0HN","","31.200000017881393","img/food1.png","74","32.70000001788139","1","0","2","1","1,0.5,0,1,0.5,0,0.5,0,1","0,1,0.5,0,1,0.5,1,0.5,0","3","",""
"","html-keyboard-response","111","73285","0.0-111.0","39GAF6DQWSMREH39XVW7OQYB2J2V11","A2BABL5AHUOYC7","3FVBZG9CLJ0K37PD5L6161S4HTM0HN","","null","<img src=""img/food1.png"" style=""width:200px;border:14px solid red;"">","null","","","","","","","","","",""
"","image-keyboard-response","112","73408","0.0-112.0","39GAF6DQWSMREH39XVW7OQYB2J2V11","A2BABL5AHUOYC7","3FVBZG9CLJ0K37PD5L6161S4HTM0HN","","120.40000000596046","img/food3.png","75","122.09999999403954","2","0","3","1","1,0.5,0,1,0.5,0,0.5,0,1","0,1,0.5,0,1,0.5,1,0.5,0","3","",""
"","html-keyboard-response","113","73711","0.0-113.0","39GAF6DQWSMREH39XVW7OQYB2J2V11","A2BABL5AHUOYC7","3FVBZG9CLJ0K37PD5L6161S4HTM0HN","","null","<img src=""img/food3.png"" style=""width:200px;border:14px solid red;"">","null","","","","","","","","","",""
"","image-keyboard-response","114","74177","0.0-114.0","39GAF6DQWSMREH39XVW7OQYB2J2V11","A2BABL5AHUOYC7","3FVBZG9CLJ0K37PD5L6161S4HTM0HN","","463.7999999821186","img/food1.png","75","465.09999999403954","2","1","2","1","1,0.5,0,1,0.5,0,0.5,0,1","0,1,0.5,0,1,0.5,1,0.5,0","3","",""
"","html-keyboard-response","115","74482","0.0-115.0","39GAF6DQWSMREH39XVW7OQYB2J2V11","A2BABL5AHUOYC7","3FVBZG9CLJ0K37PD5L6161S4HTM0HN","","null","<img src=""img/food1.png"" style=""width:200px; border:14px solid green;"">","null","","","","","","","","","",""
"","image-keyboard-response","116","74790","0.0-116.0","39GAF6DQWSMREH39XVW7OQYB2J2V11","A2BABL5AHUOYC7","3FVBZG9CLJ0K37PD5L6161S4HTM0HN","","306.40000000596046","img/food2.png","74","307.69999998807907","1","0","1","1","1,0.5,0,1,0.5,0,0.5,0,1","0,1,0.5,0,1,0.5,1,0.5,0","3","",""
"","html-keyboard-response","117","75097","0.0-117.0","39GAF6DQWSMREH39XVW7OQYB2J2V11","A2BABL5AHUOYC7","3FVBZG9CLJ0K37PD5L6161S4HTM0HN","","null","<img src=""img/food2.png"" style=""width:200px;border:14px solid red;"">","null","","","","","","","","","",""
"","image-keyboard-response","118","75191","0.0-118.0","39GAF6DQWSMREH39XVW7OQYB2J2V11","A2BABL5AHUOYC7","3FVBZG9CLJ0K37PD5L6161S4HTM0HN","","92.69999998807907","img/food3.png","75","94.19999998807907","2","1","3","1","1,0.5,0,1,0.5,0,0.5,0,1","0,1,0.5,0,1,0.5,1,0.5,0","3","",""
"","html-keyboard-response","119","75498","0.0-119.0","39GAF6DQWSMREH39XVW7OQYB2J2V11","A2BABL5AHUOYC7","3FVBZG9CLJ0K37PD5L6161S4HTM0HN","","null","<img src=""img/food3.png"" style=""width:200px; border:14px solid green;"">","null","","","","","","","","","",""
"","image-keyboard-response","120","75538","0.0-120.0","39GAF6DQWSMREH39XVW7OQYB2J2V11","A2BABL5AHUOYC7","3FVBZG9CLJ0K37PD5L6161S4HTM0HN","","38.19999998807907","img/food1.png","74","39.39999997615814","1","0","2","1","1,0.5,0,1,0.5,0,0.5,0,1","0,1,0.5,0,1,0.5,1,0.5,0","3","",""
"","html-keyboard-response","121","75852","0.0-121.0","39GAF6DQWSMREH39XVW7OQYB2J2V11","A2BABL5AHUOYC7","3FVBZG9CLJ0K37PD5L6161S4HTM0HN","","null","<img src=""img/food1.png"" style=""width:200px;border:14px solid red;"">","null","","","","","","","","","",""
"","image-keyboard-response","122","75865","0.0-122.0","39GAF6DQWSMREH39XVW7OQYB2J2V11","A2BABL5AHUOYC7","3FVBZG9CLJ0K37PD5L6161S4HTM0HN","","10.200000017881393","img/food3.png","75","12.100000023841858","2","1","3","1","1,0.5,0,1,0.5,0,0.5,0,1","0,1,0.5,0,1,0.5,1,0.5,0","3","",""
"","html-keyboard-response","123","76175","0.0-123.0","39GAF6DQWSMREH39XVW7OQYB2J2V11","A2BABL5AHUOYC7","3FVBZG9CLJ0K37PD5L6161S4HTM0HN","","null","<img src=""img/food3.png"" style=""width:200px; border:14px solid green;"">","null","","","","","","","","","",""
"","image-keyboard-response","124","76283","0.0-124.0","39GAF6DQWSMREH39XVW7OQYB2J2V11","A2BABL5AHUOYC7","3FVBZG9CLJ0K37PD5L6161S4HTM0HN","","105.90000000596046","img/food3.png","74","107.30000001192093","1","1","3","1","1,0.5,0,1,0.5,0,0.5,0,1","0,1,0.5,0,1,0.5,1,0.5,0","3","",""
"","html-keyboard-response","125","76593","0.0-125.0","39GAF6DQWSMREH39XVW7OQYB2J2V11","A2BABL5AHUOYC7","3FVBZG9CLJ0K37PD5L6161S4HTM0HN","","null","<img src=""img/food3.png"" style=""width:200px; border:14px solid green;"">","null","","","","","","","","","",""
"","image-keyboard-response","126","76671","0.0-126.0","39GAF6DQWSMREH39XVW7OQYB2J2V11","A2BABL5AHUOYC7","3FVBZG9CLJ0K37PD5L6161S4HTM0HN","","75.2000000178814","img/food3.png","75","76.90000000596046","2","1","3","1","1,0.5,0,1,0.5,0,0.5,0,1","0,1,0.5,0,1,0.5,1,0.5,0","3","",""
"","html-keyboard-response","127","76976","0.0-127.0","39GAF6DQWSMREH39XVW7OQYB2J2V11","A2BABL5AHUOYC7","3FVBZG9CLJ0K37PD5L6161S4HTM0HN","","null","<img src=""img/food3.png"" style=""width:200px; border:14px solid green;"">","null","","","","","","","","","",""
"","image-keyboard-response","128","77072","0.0-128.0","39GAF6DQWSMREH39XVW7OQYB2J2V11","A2BABL5AHUOYC7","3FVBZG9CLJ0K37PD5L6161S4HTM0HN","","94.69999998807907","img/food1.png","75","96.09999999403954","2","1","2","1","1,0.5,0,1,0.5,0,0.5,0,1","0,1,0.5,0,1,0.5,1,0.5,0","3","",""
"","html-keyboard-response","129","77388","0.0-129.0","39GAF6DQWSMREH39XVW7OQYB2J2V11","A2BABL5AHUOYC7","3FVBZG9CLJ0K37PD5L6161S4HTM0HN","","null","<img src=""img/food1.png"" style=""width:200px; border:14px solid green;"">","null","","","","","","","","","",""
"","image-keyboard-response","130","77481","0.0-130.0","39GAF6DQWSMREH39XVW7OQYB2J2V11","A2BABL5AHUOYC7","3FVBZG9CLJ0K37PD5L6161S4HTM0HN","","90.80000001192093","img/food1.png","75","92.2999999821186","2","1","2","1","1,0.5,0,1,0.5,0,0.5,0,1","0,1,0.5,0,1,0.5,1,0.5,0","3","",""
"","html-keyboard-response","131","77792","0.0-131.0","39GAF6DQWSMREH39XVW7OQYB2J2V11","A2BABL5AHUOYC7","3FVBZG9CLJ0K37PD5L6161S4HTM0HN","","null","<img src=""img/food1.png"" style=""width:200px; border:14px solid green;"">","null","","","","","","","","","",""
"","image-keyboard-response","132","77868","0.0-132.0","39GAF6DQWSMREH39XVW7OQYB2J2V11","A2BABL5AHUOYC7","3FVBZG9CLJ0K37PD5L6161S4HTM0HN","","73.90000000596046","img/food2.png","75","75.60000002384186","2","1","1","1","1,0.5,0,1,0.5,0,0.5,0,1","0,1,0.5,0,1,0.5,1,0.5,0","3","",""
"","html-keyboard-response","133","78177","0.0-133.0","39GAF6DQWSMREH39XVW7OQYB2J2V11","A2BABL5AHUOYC7","3FVBZG9CLJ0K37PD5L6161S4HTM0HN","","null","<img src=""img/food2.png"" style=""width:200px; border:14px solid green;"">","null","","","","","","","","","",""
"","image-keyboard-response","134","78209","0.0-134.0","39GAF6DQWSMREH39XVW7OQYB2J2V11","A2BABL5AHUOYC7","3FVBZG9CLJ0K37PD5L6161S4HTM0HN","","30.599999994039536","img/food3.png","74","31.799999982118607","1","1","3","1","1,0.5,0,1,0.5,0,0.5,0,1","0,1,0.5,0,1,0.5,1,0.5,0","3","",""
"","html-keyboard-response","135","78517","0.0-135.0","39GAF6DQWSMREH39XVW7OQYB2J2V11","A2BABL5AHUOYC7","3FVBZG9CLJ0K37PD5L6161S4HTM0HN","","null","<img src=""img/food3.png"" style=""width:200px; border:14px solid green;"">","null","","","","","","","","","",""
"","image-keyboard-response","136","78637","0.0-136.0","39GAF6DQWSMREH39XVW7OQYB2J2V11","A2BABL5AHUOYC7","3FVBZG9CLJ0K37PD5L6161S4HTM0HN","","118.7999999821186","img/food2.png","75","119.69999998807907","2","1","1","1","1,0.5,0,1,0.5,0,0.5,0,1","0,1,0.5,0,1,0.5,1,0.5,0","3","",""
"","html-keyboard-response","137","78948","0.0-137.0","39GAF6DQWSMREH39XVW7OQYB2J2V11","A2BABL5AHUOYC7","3FVBZG9CLJ0K37PD5L6161S4HTM0HN","","null","<img src=""img/food2.png"" style=""width:200px; border:14px solid green;"">","null","","","","","","","","","",""
"","image-keyboard-response","138","79021","0.0-138.0","39GAF6DQWSMREH39XVW7OQYB2J2V11","A2BABL5AHUOYC7","3FVBZG9CLJ0K37PD5L6161S4HTM0HN","","70.90000000596046","img/food3.png","74","72.69999998807907","1","1","3","1","1,0.5,0,1,0.5,0,0.5,0,1","0,1,0.5,0,1,0.5,1,0.5,0","3","",""
"","html-keyboard-response","139","79330","0.0-139.0","39GAF6DQWSMREH39XVW7OQYB2J2V11","A2BABL5AHUOYC7","3FVBZG9CLJ0K37PD5L6161S4HTM0HN","","null","<img src=""img/food3.png"" style=""width:200px; border:14px solid green;"">","null","","","","","","","","","",""
"","image-keyboard-response","140","79428","0.0-140.0","39GAF6DQWSMREH39XVW7OQYB2J2V11","A2BABL5AHUOYC7","3FVBZG9CLJ0K37PD5L6161S4HTM0HN","","96.19999998807907","img/food1.png","75","97.5","2","1","2","1","1,0.5,0,1,0.5,0,0.5,0,1","0,1,0.5,0,1,0.5,1,0.5,0","3","",""
"","html-keyboard-response","141","79732","0.0-141.0","39GAF6DQWSMREH39XVW7OQYB2J2V11","A2BABL5AHUOYC7","3FVBZG9CLJ0K37PD5L6161S4HTM0HN","","null","<img src=""img/food1.png"" style=""width:200px; border:14px solid green;"">","null","","","","","","","","","",""
"","image-keyboard-response","142","79874","0.0-142.0","39GAF6DQWSMREH39XVW7OQYB2J2V11","A2BABL5AHUOYC7","3FVBZG9CLJ0K37PD5L6161S4HTM0HN","","139.90000000596046","img/food1.png","75","141.09999999403954","2","1","2","1","1,0.5,0,1,0.5,0,0.5,0,1","0,1,0.5,0,1,0.5,1,0.5,0","3","",""
"","html-keyboard-response","143","80177","0.0-143.0","39GAF6DQWSMREH39XVW7OQYB2J2V11","A2BABL5AHUOYC7","3FVBZG9CLJ0K37PD5L6161S4HTM0HN","","null","<img src=""img/food1.png"" style=""width:200px; border:14px solid green;"">","null","","","","","","","","","",""
"","image-keyboard-response","144","80355","0.0-144.0","39GAF6DQWSMREH39XVW7OQYB2J2V11","A2BABL5AHUOYC7","3FVBZG9CLJ0K37PD5L6161S4HTM0HN","","177","img/food3.png","74","178.2000000178814","1","1","3","1","1,0.5,0,1,0.5,0,0.5,0,1","0,1,0.5,0,1,0.5,1,0.5,0","3","",""
"","html-keyboard-response","145","80672","0.0-145.0","39GAF6DQWSMREH39XVW7OQYB2J2V11","A2BABL5AHUOYC7","3FVBZG9CLJ0K37PD5L6161S4HTM0HN","","null","<img src=""img/food3.png"" style=""width:200px; border:14px solid green;"">","null","","","","","","","","","",""
"","image-keyboard-response","146","80722","0.0-146.0","39GAF6DQWSMREH39XVW7OQYB2J2V11","A2BABL5AHUOYC7","3FVBZG9CLJ0K37PD5L6161S4HTM0HN","","48.400000005960464","img/food2.png","74","49.900000005960464","1","0","1","1","1,0.5,0,1,0.5,0,0.5,0,1","0,1,0.5,0,1,0.5,1,0.5,0","3","",""
"","html-keyboard-response","147","81037","0.0-147.0","39GAF6DQWSMREH39XVW7OQYB2J2V11","A2BABL5AHUOYC7","3FVBZG9CLJ0K37PD5L6161S4HTM0HN","","null","<img src=""img/food2.png"" style=""width:200px;border:14px solid red;"">","null","","","","","","","","","",""
"","image-keyboard-response","148","81173","0.0-148.0","39GAF6DQWSMREH39XVW7OQYB2J2V11","A2BABL5AHUOYC7","3FVBZG9CLJ0K37PD5L6161S4HTM0HN","","134.2999999821186","img/food2.png","75","135.7999999821186","2","1","1","1","1,0.5,0,1,0.5,0,0.5,0,1","0,1,0.5,0,1,0.5,1,0.5,0","3","",""
"","html-keyboard-response","149","81481","0.0-149.0","39GAF6DQWSMREH39XVW7OQYB2J2V11","A2BABL5AHUOYC7","3FVBZG9CLJ0K37PD5L6161S4HTM0HN","","null","<img src=""img/food2.png"" style=""width:200px; border:14px solid green;"">","null","","","","","","","","","",""
"","image-keyboard-response","150","81507","0.0-150.0","39GAF6DQWSMREH39XVW7OQYB2J2V11","A2BABL5AHUOYC7","3FVBZG9CLJ0K37PD5L6161S4HTM0HN","","24.5","img/food2.png","75","25.599999994039536","2","1","1","1","1,0.5,0,1,0.5,0,0.5,0,1","0,1,0.5,0,1,0.5,1,0.5,0","3","",""
"","html-keyboard-response","151","81815","0.0-151.0","39GAF6DQWSMREH39XVW7OQYB2J2V11","A2BABL5AHUOYC7","3FVBZG9CLJ0K37PD5L6161S4HTM0HN","","null","<img src=""img/food2.png"" style=""width:200px; border:14px solid green;"">","null","","","","","","","","","",""
"","image-keyboard-response","152","82307","0.0-152.0","39GAF6DQWSMREH39XVW7OQYB2J2V11","A2BABL5AHUOYC7","3FVBZG9CLJ0K37PD5L6161S4HTM0HN","","490.5","img/food3.png","75","491.59999999403954","2","0","3","1","1,0.5,0,1,0.5,0,0.5,0,1","0,1,0.5,0,1,0.5,1,0.5,0","3","",""
"","html-keyboard-response","153","82612","0.0-153.0","39GAF6DQWSMREH39XVW7OQYB2J2V11","A2BABL5AHUOYC7","3FVBZG9CLJ0K37PD5L6161S4HTM0HN","","null","<img src=""img/food3.png"" style=""width:200px;border:14px solid red;"">","null","","","","","","","","","",""
"","image-keyboard-response","154","82786","0.0-154.0","39GAF6DQWSMREH39XVW7OQYB2J2V11","A2BABL5AHUOYC7","3FVBZG9CLJ0K37PD5L6161S4HTM0HN","","173.30000001192093","img/food2.png","74","174.60000002384186","1","0","1","1","1,0.5,0,1,0.5,0,0.5,0,1","0,1,0.5,0,1,0.5,1,0.5,0","3","",""
"","html-keyboard-response","155","83088","0.0-155.0","39GAF6DQWSMREH39XVW7OQYB2J2V11","A2BABL5AHUOYC7","3FVBZG9CLJ0K37PD5L6161S4HTM0HN","","null","<img src=""img/food2.png"" style=""width:200px;border:14px solid red;"">","null","","","","","","","","","",""
"","image-keyboard-response","156","83225","0.0-156.0","39GAF6DQWSMREH39XVW7OQYB2J2V11","A2BABL5AHUOYC7","3FVBZG9CLJ0K37PD5L6161S4HTM0HN","","134","img/food3.png","74","135.89999997615814","1","1","3","1","1,0.5,0,1,0.5,0,0.5,0,1","0,1,0.5,0,1,0.5,1,0.5,0","3","",""
"","html-keyboard-response","157","83535","0.0-157.0","39GAF6DQWSMREH39XVW7OQYB2J2V11","A2BABL5AHUOYC7","3FVBZG9CLJ0K37PD5L6161S4HTM0HN","","null","<img src=""img/food3.png"" style=""width:200px; border:14px solid green;"">","null","","","","","","","","","",""
"","image-keyboard-response","158","83617","0.0-158.0","39GAF6DQWSMREH39XVW7OQYB2J2V11","A2BABL5AHUOYC7","3FVBZG9CLJ0K37PD5L6161S4HTM0HN","","80.80000001192093","img/food2.png","74","82.09999999403954","1","0","1","1","1,0.5,0,1,0.5,0,0.5,0,1","0,1,0.5,0,1,0.5,1,0.5,0","3","",""
"","html-keyboard-response","159","83928","0.0-159.0","39GAF6DQWSMREH39XVW7OQYB2J2V11","A2BABL5AHUOYC7","3FVBZG9CLJ0K37PD5L6161S4HTM0HN","","null","<img src=""img/food2.png"" style=""width:200px;border:14px solid red;"">","null","","","","","","","","","",""
"","image-keyboard-response","160","84057","0.0-160.0","39GAF6DQWSMREH39XVW7OQYB2J2V11","A2BABL5AHUOYC7","3FVBZG9CLJ0K37PD5L6161S4HTM0HN","","127.69999998807907","img/food3.png","74","129.40000000596046","1","1","3","1","1,0.5,0,1,0.5,0,0.5,0,1","0,1,0.5,0,1,0.5,1,0.5,0","3","",""
"","html-keyboard-response","161","84366","0.0-161.0","39GAF6DQWSMREH39XVW7OQYB2J2V11","A2BABL5AHUOYC7","3FVBZG9CLJ0K37PD5L6161S4HTM0HN","","null","<img src=""img/food3.png"" style=""width:200px; border:14px solid green;"">","null","","","","","","","","","",""
"","image-keyboard-response","162","84530","0.0-162.0","39GAF6DQWSMREH39XVW7OQYB2J2V11","A2BABL5AHUOYC7","3FVBZG9CLJ0K37PD5L6161S4HTM0HN","","162.69999998807907","img/food2.png","74","163.89999997615814","1","0","1","1","1,0.5,0,1,0.5,0,0.5,0,1","0,1,0.5,0,1,0.5,1,0.5,0","3","",""
"","html-keyboard-response","163","84842","0.0-163.0","39GAF6DQWSMREH39XVW7OQYB2J2V11","A2BABL5AHUOYC7","3FVBZG9CLJ0K37PD5L6161S4HTM0HN","","null","<img src=""img/food2.png"" style=""width:200px;border:14px solid red;"">","null","","","","","","","","","",""
"","image-keyboard-response","164","84845","0.0-164.0","39GAF6DQWSMREH39XVW7OQYB2J2V11","A2BABL5AHUOYC7","3FVBZG9CLJ0K37PD5L6161S4HTM0HN","","1.100000023841858","img/food1.png","75","3","2","1","2","1","1,0.5,0,1,0.5,0,0.5,0,1","0,1,0.5,0,1,0.5,1,0.5,0","3","",""
"","html-keyboard-response","165","85154","0.0-165.0","39GAF6DQWSMREH39XVW7OQYB2J2V11","A2BABL5AHUOYC7","3FVBZG9CLJ0K37PD5L6161S4HTM0HN","","null","<img src=""img/food1.png"" style=""width:200px; border:14px solid green;"">","null","","","","","","","","","",""
"","image-keyboard-response","166","85305","0.0-166.0","39GAF6DQWSMREH39XVW7OQYB2J2V11","A2BABL5AHUOYC7","3FVBZG9CLJ0K37PD5L6161S4HTM0HN","","149.40000000596046","img/food2.png","74","150.40000000596046","1","0","1","1","1,0.5,0,1,0.5,0,0.5,0,1","0,1,0.5,0,1,0.5,1,0.5,0","3","",""
"","html-keyboard-response","167","85613","0.0-167.0","39GAF6DQWSMREH39XVW7OQYB2J2V11","A2BABL5AHUOYC7","3FVBZG9CLJ0K37PD5L6161S4HTM0HN","","null","<img src=""img/food2.png"" style=""width:200px;border:14px solid red;"">","null","","","","","","","","","",""
"","image-keyboard-response","168","85641","0.0-168.0","39GAF6DQWSMREH39XVW7OQYB2J2V11","A2BABL5AHUOYC7","3FVBZG9CLJ0K37PD5L6161S4HTM0HN","","26.599999994039536","img/food1.png","74","27.900000005960464","1","0","2","1","1,0.5,0,1,0.5,0,0.5,0,1","0,1,0.5,0,1,0.5,1,0.5,0","3","",""
"","html-keyboard-response","169","85945","0.0-169.0","39GAF6DQWSMREH39XVW7OQYB2J2V11","A2BABL5AHUOYC7","3FVBZG9CLJ0K37PD5L6161S4HTM0HN","","null","<img src=""img/food1.png"" style=""width:200px;border:14px solid red;"">","null","","","","","","","","","",""
"","image-keyboard-response","170","86071","0.0-170.0","39GAF6DQWSMREH39XVW7OQYB2J2V11","A2BABL5AHUOYC7","3FVBZG9CLJ0K37PD5L6161S4HTM0HN","","124.19999998807907","img/food2.png","75","125.7000000178814","2","1","1","1","1,0.5,0,1,0.5,0,0.5,0,1","0,1,0.5,0,1,0.5,1,0.5,0","3","",""
"","html-keyboard-response","171","86384","0.0-171.0","39GAF6DQWSMREH39XVW7OQYB2J2V11","A2BABL5AHUOYC7","3FVBZG9CLJ0K37PD5L6161S4HTM0HN","","null","<img src=""img/food2.png"" style=""width:200px; border:14px solid green;"">","null","","","","","","","","","",""
"","image-keyboard-response","172","86431","0.0-172.0","39GAF6DQWSMREH39XVW7OQYB2J2V11","A2BABL5AHUOYC7","3FVBZG9CLJ0K37PD5L6161S4HTM0HN","","45.5","img/food3.png","75","46.400000005960464","2","0","3","1","1,0.5,0,1,0.5,0,0.5,0,1","0,1,0.5,0,1,0.5,1,0.5,0","3","",""
"","html-keyboard-response","173","86736","0.0-173.0","39GAF6DQWSMREH39XVW7OQYB2J2V11","A2BABL5AHUOYC7","3FVBZG9CLJ0K37PD5L6161S4HTM0HN","","null","<img src=""img/food3.png"" style=""width:200px;border:14px solid red;"">","null","","","","","","","","","",""
"","image-keyboard-response","174","87085","0.0-174.0","39GAF6DQWSMREH39XVW7OQYB2J2V11","A2BABL5AHUOYC7","3FVBZG9CLJ0K37PD5L6161S4HTM0HN","","347.09999999403954","img/food3.png","74","349.2999999821186","1","1","3","1","1,0.5,0,1,0.5,0,0.5,0,1","0,1,0.5,0,1,0.5,1,0.5,0","3","",""
"","html-keyboard-response","175","87393","0.0-175.0","39GAF6DQWSMREH39XVW7OQYB2J2V11","A2BABL5AHUOYC7","3FVBZG9CLJ0K37PD5L6161S4HTM0HN","","null","<img src=""img/food3.png"" style=""width:200px; border:14px solid green;"">","null","","","","","","","","","",""
"","image-keyboard-response","176","87824","0.0-176.0","39GAF6DQWSMREH39XVW7OQYB2J2V11","A2BABL5AHUOYC7","3FVBZG9CLJ0K37PD5L6161S4HTM0HN","","429","img/food2.png","74","430.39999997615814","1","0","1","1","1,0.5,0,1,0.5,0,0.5,0,1","0,1,0.5,0,1,0.5,1,0.5,0","3","",""
"","html-keyboard-response","177","88132","0.0-177.0","39GAF6DQWSMREH39XVW7OQYB2J2V11","A2BABL5AHUOYC7","3FVBZG9CLJ0K37PD5L6161S4HTM0HN","","null","<img src=""img/food2.png"" style=""width:200px;border:14px solid red;"">","null","","","","","","","","","",""
"","image-keyboard-response","178","88874","0.0-178.0","39GAF6DQWSMREH39XVW7OQYB2J2V11","A2BABL5AHUOYC7","3FVBZG9CLJ0K37PD5L6161S4HTM0HN","","739.1999999880791","img/food3.png","75","741.4000000059605","2","1","3","1","1,0.5,0,1,0.5,0,0.5,0,1","0,1,0.5,0,1,0.5,1,0.5,0","3","",""
"","html-keyboard-response","179","89184","0.0-179.0","39GAF6DQWSMREH39XVW7OQYB2J2V11","A2BABL5AHUOYC7","3FVBZG9CLJ0K37PD5L6161S4HTM0HN","","null","<img src=""img/food3.png"" style=""width:200px; border:14px solid green;"">","null","","","","","","","","","",""
"","image-keyboard-response","180","89336","0.0-180.0","39GAF6DQWSMREH39XVW7OQYB2J2V11","A2BABL5AHUOYC7","3FVBZG9CLJ0K37PD5L6161S4HTM0HN","","149.90000000596046","img/food2.png","74","151","1","0","1","1","1,0.5,0,1,0.5,0,0.5,0,1","0,1,0.5,0,1,0.5,1,0.5,0","3","",""
"","html-keyboard-response","181","89644","0.0-181.0","39GAF6DQWSMREH39XVW7OQYB2J2V11","A2BABL5AHUOYC7","3FVBZG9CLJ0K37PD5L6161S4HTM0HN","","null","<img src=""img/food2.png"" style=""width:200px;border:14px solid red;"">","null","","","","","","","","","",""
"","html-keyboard-response","182","135991","0.0-182.0","39GAF6DQWSMREH39XVW7OQYB2J2V11","A2BABL5AHUOYC7","3FVBZG9CLJ0K37PD5L6161S4HTM0HN","","","","","","","","","","","","","",""
"","instructions","183","151159","0.0-183.0","39GAF6DQWSMREH39XVW7OQYB2J2V11","A2BABL5AHUOYC7","3FVBZG9CLJ0K37PD5L6161S4HTM0HN","[{""page_index"":0,""viewing_time"":12498.200000017881},{""page_index"":1,""viewing_time"":2668.5}]","15167","","","","","","","","","","","",""
"","image-keyboard-response","184","151211","0.0-184.0","39GAF6DQWSMREH39XVW7OQYB2J2V11","A2BABL5AHUOYC7","3FVBZG9CLJ0K37PD5L6161S4HTM0HN","","50","img/food5.png","74","51.89999997615814","1","0","3","2","1,0.5,0,1,0.5,0,0.5,0,1","1,0.5,0,1,0.5,0,0.5,0,1","1","false",""
"","html-keyboard-response","185","151516","0.0-185.0","39GAF6DQWSMREH39XVW7OQYB2J2V11","A2BABL5AHUOYC7","3FVBZG9CLJ0K37PD5L6161S4HTM0HN","","null","<img src=""img/food5.png"" style=""width:200px;border:14px solid red;"">","null","","","","","","","","","",""
"","image-keyboard-response","186","151547","0.0-187.0","39GAF6DQWSMREH39XVW7OQYB2J2V11","A2BABL5AHUOYC7","3FVBZG9CLJ0K37PD5L6161S4HTM0HN","","29.80000001192093","img/food4.png","74","30.900000005960464","1","1","2","2","1,0.5,0,1,0.5,0,0.5,0,1","1,0.5,0,1,0.5,0,0.5,0,1","1","false",""
"","html-keyboard-response","187","151856","0.0-188.0","39GAF6DQWSMREH39XVW7OQYB2J2V11","A2BABL5AHUOYC7","3FVBZG9CLJ0K37PD5L6161S4HTM0HN","","null","<img src=""img/food4.png"" style=""width:200px; border:14px solid green;"">","null","","","","","","","","","",""
"","image-keyboard-response","188","152038","0.0-190.0","39GAF6DQWSMREH39XVW7OQYB2J2V11","A2BABL5AHUOYC7","3FVBZG9CLJ0K37PD5L6161S4HTM0HN","","179.60000002384186","img/food5.png","74","181.5","1","0","3","2","1,0.5,0,1,0.5,0,0.5,0,1","1,0.5,0,1,0.5,0,0.5,0,1","1","false",""
"","html-keyboard-response","189","152358","0.0-191.0","39GAF6DQWSMREH39XVW7OQYB2J2V11","A2BABL5AHUOYC7","3FVBZG9CLJ0K37PD5L6161S4HTM0HN","","null","<img src=""img/food5.png"" style=""width:200px;border:14px solid red;"">","null","","","","","","","","","",""
"","image-keyboard-response","190","152587","0.0-193.0","39GAF6DQWSMREH39XVW7OQYB2J2V11","A2BABL5AHUOYC7","3FVBZG9CLJ0K37PD5L6161S4HTM0HN","","227.5","img/food5.png","74","229.2000000178814","1","0","3","2","1,0.5,0,1,0.5,0,0.5,0,1","1,0.5,0,1,0.5,0,0.5,0,1","1","false",""
"","html-keyboard-response","191","152895","0.0-194.0","39GAF6DQWSMREH39XVW7OQYB2J2V11","A2BABL5AHUOYC7","3FVBZG9CLJ0K37PD5L6161S4HTM0HN","","null","<img src=""img/food5.png"" style=""width:200px;border:14px solid red;"">","null","","","","","","","","","",""
"","image-keyboard-response","192","153057","0.0-196.0","39GAF6DQWSMREH39XVW7OQYB2J2V11","A2BABL5AHUOYC7","3FVBZG9CLJ0K37PD5L6161S4HTM0HN","","159.90000000596046","img/food5.png","74","161.90000000596046","1","0","3","2","1,0.5,0,1,0.5,0,0.5,0,1","1,0.5,0,1,0.5,0,0.5,0,1","1","false",""
"","html-keyboard-response","193","153361","0.0-197.0","39GAF6DQWSMREH39XVW7OQYB2J2V11","A2BABL5AHUOYC7","3FVBZG9CLJ0K37PD5L6161S4HTM0HN","","null","<img src=""img/food5.png"" style=""width:200px;border:14px solid red;"">","null","","","","","","","","","",""
"","image-keyboard-response","194","153485","0.0-199.0","39GAF6DQWSMREH39XVW7OQYB2J2V11","A2BABL5AHUOYC7","3FVBZG9CLJ0K37PD5L6161S4HTM0HN","","122","img/food6.png","75","123.5","2","1","1","2","1,0.5,0,1,0.5,0,0.5,0,1","1,0.5,0,1,0.5,0,0.5,0,1","1","false",""
"","html-keyboard-response","195","153791","0.0-200.0","39GAF6DQWSMREH39XVW7OQYB2J2V11","A2BABL5AHUOYC7","3FVBZG9CLJ0K37PD5L6161S4HTM0HN","","null","<img src=""img/food6.png"" style=""width:200px; border:14px solid green;"">","null","","","","","","","","","",""
"","image-keyboard-response","196","153852","0.0-202.0","39GAF6DQWSMREH39XVW7OQYB2J2V11","A2BABL5AHUOYC7","3FVBZG9CLJ0K37PD5L6161S4HTM0HN","","58.80000001192093","img/food4.png","74","60.70000001788139","1","1","2","2","1,0.5,0,1,0.5,0,0.5,0,1","1,0.5,0,1,0.5,0,0.5,0,1","1","false",""
"","html-keyboard-response","197","154157","0.0-203.0","39GAF6DQWSMREH39XVW7OQYB2J2V11","A2BABL5AHUOYC7","3FVBZG9CLJ0K37PD5L6161S4HTM0HN","","null","<img src=""img/food4.png"" style=""width:200px; border:14px solid green;"">","null","","","","","","","","","",""
"","image-keyboard-response","198","154198","0.0-205.0","39GAF6DQWSMREH39XVW7OQYB2J2V11","A2BABL5AHUOYC7","3FVBZG9CLJ0K37PD5L6161S4HTM0HN","","38.900000005960464","img/food4.png","74","40.20000001788139","1","1","2","2","1,0.5,0,1,0.5,0,0.5,0,1","1,0.5,0,1,0.5,0,0.5,0,1","1","false",""
"","html-keyboard-response","199","154503","0.0-206.0","39GAF6DQWSMREH39XVW7OQYB2J2V11","A2BABL5AHUOYC7","3FVBZG9CLJ0K37PD5L6161S4HTM0HN","","null","<img src=""img/food4.png"" style=""width:200px; border:14px solid green;"">","null","","","","","","","","","",""
"","image-keyboard-response","200","154938","0.0-208.0","39GAF6DQWSMREH39XVW7OQYB2J2V11","A2BABL5AHUOYC7","3FVBZG9CLJ0K37PD5L6161S4HTM0HN","","432.69999998807907","img/food5.png","75","434.40000000596046","2","0","3","2","1,0.5,0,1,0.5,0,0.5,0,1","1,0.5,0,1,0.5,0,0.5,0,1","1","false",""
"","html-keyboard-response","201","155243","0.0-209.0","39GAF6DQWSMREH39XVW7OQYB2J2V11","A2BABL5AHUOYC7","3FVBZG9CLJ0K37PD5L6161S4HTM0HN","","null","<img src=""img/food5.png"" style=""width:200px;border:14px solid red;"">","null","","","","","","","","","",""
"","image-keyboard-response","202","155244","0.0-211.0","39GAF6DQWSMREH39XVW7OQYB2J2V11","A2BABL5AHUOYC7","3FVBZG9CLJ0K37PD5L6161S4HTM0HN","","0.19999998807907104","img/food4.png","75","1.300000011920929","2","0","2","2","1,0.5,0,1,0.5,0,0.5,0,1","1,0.5,0,1,0.5,0,0.5,0,1","1","false",""
"","html-keyboard-response","203","155551","0.0-212.0","39GAF6DQWSMREH39XVW7OQYB2J2V11","A2BABL5AHUOYC7","3FVBZG9CLJ0K37PD5L6161S4HTM0HN","","null","<img src=""img/food4.png"" style=""width:200px;border:14px solid red;"">","null","","","","","","","","","",""
"","image-keyboard-response","204","155696","0.0-214.0","39GAF6DQWSMREH39XVW7OQYB2J2V11","A2BABL5AHUOYC7","3FVBZG9CLJ0K37PD5L6161S4HTM0HN","","144.09999999403954","img/food6.png","75","145.19999998807907","2","1","1","2","1,0.5,0,1,0.5,0,0.5,0,1","1,0.5,0,1,0.5,0,0.5,0,1","1","false",""
"","html-keyboard-response","205","156004","0.0-215.0","39GAF6DQWSMREH39XVW7OQYB2J2V11","A2BABL5AHUOYC7","3FVBZG9CLJ0K37PD5L6161S4HTM0HN","","null","<img src=""img/food6.png"" style=""width:200px; border:14px solid green;"">","null","","","","","","","","","",""
"","image-keyboard-response","206","156055","0.0-217.0","39GAF6DQWSMREH39XVW7OQYB2J2V11","A2BABL5AHUOYC7","3FVBZG9CLJ0K37PD5L6161S4HTM0HN","","48.19999998807907","img/food5.png","75","49.900000005960464","2","0","3","2","1,0.5,0,1,0.5,0,0.5,0,1","1,0.5,0,1,0.5,0,0.5,0,1","1","false",""
"","html-keyboard-response","207","156370","0.0-218.0","39GAF6DQWSMREH39XVW7OQYB2J2V11","A2BABL5AHUOYC7","3FVBZG9CLJ0K37PD5L6161S4HTM0HN","","null","<img src=""img/food5.png"" style=""width:200px;border:14px solid red;"">","null","","","","","","","","","",""
"","image-keyboard-response","208","156526","0.0-220.0","39GAF6DQWSMREH39XVW7OQYB2J2V11","A2BABL5AHUOYC7","3FVBZG9CLJ0K37PD5L6161S4HTM0HN","","154.5","img/food6.png","75","155.59999999403954","2","1","1","2","1,0.5,0,1,0.5,0,0.5,0,1","1,0.5,0,1,0.5,0,0.5,0,1","1","false",""
"","html-keyboard-response","209","156831","0.0-221.0","39GAF6DQWSMREH39XVW7OQYB2J2V11","A2BABL5AHUOYC7","3FVBZG9CLJ0K37PD5L6161S4HTM0HN","","null","<img src=""img/food6.png"" style=""width:200px; border:14px solid green;"">","null","","","","","","","","","",""
"","image-keyboard-response","210","156887","0.0-223.0","39GAF6DQWSMREH39XVW7OQYB2J2V11","A2BABL5AHUOYC7","3FVBZG9CLJ0K37PD5L6161S4HTM0HN","","54.400000005960464","img/food4.png","74","55.70000001788139","1","1","2","2","1,0.5,0,1,0.5,0,0.5,0,1","1,0.5,0,1,0.5,0,0.5,0,1","1","false",""
"","html-keyboard-response","211","157195","0.0-224.0","39GAF6DQWSMREH39XVW7OQYB2J2V11","A2BABL5AHUOYC7","3FVBZG9CLJ0K37PD5L6161S4HTM0HN","","null","<img src=""img/food4.png"" style=""width:200px; border:14px solid green;"">","null","","","","","","","","","",""
"","image-keyboard-response","212","157264","0.0-226.0","39GAF6DQWSMREH39XVW7OQYB2J2V11","A2BABL5AHUOYC7","3FVBZG9CLJ0K37PD5L6161S4HTM0HN","","67.30000001192093","img/food6.png","74","68.7000000178814","1","1","1","2","1,0.5,0,1,0.5,0,0.5,0,1","1,0.5,0,1,0.5,0,0.5,0,1","1","false",""
"","html-keyboard-response","213","157582","0.0-227.0","39GAF6DQWSMREH39XVW7OQYB2J2V11","A2BABL5AHUOYC7","3FVBZG9CLJ0K37PD5L6161S4HTM0HN","","null","<img src=""img/food6.png"" style=""width:200px; border:14px solid green;"">","null","","","","","","","","","",""
"","image-keyboard-response","214","157636","0.0-229.0","39GAF6DQWSMREH39XVW7OQYB2J2V11","A2BABL5AHUOYC7","3FVBZG9CLJ0K37PD5L6161S4HTM0HN","","53","img/food6.png","74","53.89999997615814","1","1","1","2","1,0.5,0,1,0.5,0,0.5,0,1","1,0.5,0,1,0.5,0,0.5,0,1","1","false",""
"","html-keyboard-response","215","157943","0.0-230.0","39GAF6DQWSMREH39XVW7OQYB2J2V11","A2BABL5AHUOYC7","3FVBZG9CLJ0K37PD5L6161S4HTM0HN","","null","<img src=""img/food6.png"" style=""width:200px; border:14px solid green;"">","null","","","","","","","","","",""
"","image-keyboard-response","216","158014","0.0-232.0","39GAF6DQWSMREH39XVW7OQYB2J2V11","A2BABL5AHUOYC7","3FVBZG9CLJ0K37PD5L6161S4HTM0HN","","68.2000000178814","img/food4.png","74","70","1","1","2","2","1,0.5,0,1,0.5,0,0.5,0,1","1,0.5,0,1,0.5,0,0.5,0,1","1","false",""
"","html-keyboard-response","217","158320","0.0-233.0","39GAF6DQWSMREH39XVW7OQYB2J2V11","A2BABL5AHUOYC7","3FVBZG9CLJ0K37PD5L6161S4HTM0HN","","null","<img src=""img/food4.png"" style=""width:200px; border:14px solid green;"">","null","","","","","","","","","",""
"","image-keyboard-response","218","158375","0.0-235.0","39GAF6DQWSMREH39XVW7OQYB2J2V11","A2BABL5AHUOYC7","3FVBZG9CLJ0K37PD5L6161S4HTM0HN","","53.20000001788139","img/food4.png","74","54.80000001192093","1","1","2","2","1,0.5,0,1,0.5,0,0.5,0,1","1,0.5,0,1,0.5,0,0.5,0,1","1","false",""
"","html-keyboard-response","219","158680","0.0-236.0","39GAF6DQWSMREH39XVW7OQYB2J2V11","A2BABL5AHUOYC7","3FVBZG9CLJ0K37PD5L6161S4HTM0HN","","null","<img src=""img/food4.png"" style=""width:200px; border:14px solid green;"">","null","","","","","","","","","",""
"","image-keyboard-response","220","158728","0.0-238.0","39GAF6DQWSMREH39XVW7OQYB2J2V11","A2BABL5AHUOYC7","3FVBZG9CLJ0K37PD5L6161S4HTM0HN","","44.69999998807907","img/food5.png","74","47","1","1","3","2","1,0.5,0,1,0.5,0,0.5,0,1","1,0.5,0,1,0.5,0,0.5,0,1","1","false",""
"","html-keyboard-response","221","159037","0.0-239.0","39GAF6DQWSMREH39XVW7OQYB2J2V11","A2BABL5AHUOYC7","3FVBZG9CLJ0K37PD5L6161S4HTM0HN","","null","<img src=""img/food5.png"" style=""width:200px; border:14px solid green;"">","null","","","","","","","","","",""
"","image-keyboard-response","222","159075","0.0-241.0","39GAF6DQWSMREH39XVW7OQYB2J2V11","A2BABL5AHUOYC7","3FVBZG9CLJ0K37PD5L6161S4HTM0HN","","36","img/food4.png","74","37.69999998807907","1","1","2","2","1,0.5,0,1,0.5,0,0.5,0,1","1,0.5,0,1,0.5,0,0.5,0,1","1","false",""
"","html-keyboard-response","223","159386","0.0-242.0","39GAF6DQWSMREH39XVW7OQYB2J2V11","A2BABL5AHUOYC7","3FVBZG9CLJ0K37PD5L6161S4HTM0HN","","null","<img src=""img/food4.png"" style=""width:200px; border:14px solid green;"">","null","","","","","","","","","",""
"","image-keyboard-response","224","159441","0.0-244.0","39GAF6DQWSMREH39XVW7OQYB2J2V11","A2BABL5AHUOYC7","3FVBZG9CLJ0K37PD5L6161S4HTM0HN","","52.30000001192093","img/food4.png","74","54.099999994039536","1","1","2","2","1,0.5,0,1,0.5,0,0.5,0,1","1,0.5,0,1,0.5,0,0.5,0,1","1","false",""
"","html-keyboard-response","225","159746","0.0-245.0","39GAF6DQWSMREH39XVW7OQYB2J2V11","A2BABL5AHUOYC7","3FVBZG9CLJ0K37PD5L6161S4HTM0HN","","null","<img src=""img/food4.png"" style=""width:200px; border:14px solid green;"">","null","","","","","","","","","",""
"","image-keyboard-response","226","159799","0.0-247.0","39GAF6DQWSMREH39XVW7OQYB2J2V11","A2BABL5AHUOYC7","3FVBZG9CLJ0K37PD5L6161S4HTM0HN","","50.599999994039536","img/food6.png","74","52.30000001192093","1","1","1","2","1,0.5,0,1,0.5,0,0.5,0,1","1,0.5,0,1,0.5,0,0.5,0,1","1","false",""
"","html-keyboard-response","227","160104","0.0-248.0","39GAF6DQWSMREH39XVW7OQYB2J2V11","A2BABL5AHUOYC7","3FVBZG9CLJ0K37PD5L6161S4HTM0HN","","null","<img src=""img/food6.png"" style=""width:200px; border:14px solid green;"">","null","","","","","","","","","",""
"","image-keyboard-response","228","160165","0.0-250.0","39GAF6DQWSMREH39XVW7OQYB2J2V11","A2BABL5AHUOYC7","3FVBZG9CLJ0K37PD5L6161S4HTM0HN","","58.69999998807907","img/food6.png","74","60.69999998807907","1","1","1","2","1,0.5,0,1,0.5,0,0.5,0,1","1,0.5,0,1,0.5,0,0.5,0,1","1","false",""
"","html-keyboard-response","229","160474","0.0-251.0","39GAF6DQWSMREH39XVW7OQYB2J2V11","A2BABL5AHUOYC7","3FVBZG9CLJ0K37PD5L6161S4HTM0HN","","null","<img src=""img/food6.png"" style=""width:200px; border:14px solid green;"">","null","","","","","","","","","",""
"","image-keyboard-response","230","160517","0.0-253.0","39GAF6DQWSMREH39XVW7OQYB2J2V11","A2BABL5AHUOYC7","3FVBZG9CLJ0K37PD5L6161S4HTM0HN","","41.29999998211861","img/food5.png","74","42.5","1","1","3","2","1,0.5,0,1,0.5,0,0.5,0,1","1,0.5,0,1,0.5,0,0.5,0,1","1","false",""
"","html-keyboard-response","231","160820","0.0-254.0","39GAF6DQWSMREH39XVW7OQYB2J2V11","A2BABL5AHUOYC7","3FVBZG9CLJ0K37PD5L6161S4HTM0HN","","null","<img src=""img/food5.png"" style=""width:200px; border:14px solid green;"">","null","","","","","","","","","",""
"","image-keyboard-response","232","160895","0.0-256.0","39GAF6DQWSMREH39XVW7OQYB2J2V11","A2BABL5AHUOYC7","3FVBZG9CLJ0K37PD5L6161S4HTM0HN","","72.40000000596046","img/food6.png","74","74.09999999403954","1","1","1","2","1,0.5,0,1,0.5,0,0.5,0,1","1,0.5,0,1,0.5,0,0.5,0,1","1","false",""
"","html-keyboard-response","233","161201","0.0-257.0","39GAF6DQWSMREH39XVW7OQYB2J2V11","A2BABL5AHUOYC7","3FVBZG9CLJ0K37PD5L6161S4HTM0HN","","null","<img src=""img/food6.png"" style=""width:200px; border:14px solid green;"">","null","","","","","","","","","",""
"","image-keyboard-response","234","161261","0.0-259.0","39GAF6DQWSMREH39XVW7OQYB2J2V11","A2BABL5AHUOYC7","3FVBZG9CLJ0K37PD5L6161S4HTM0HN","","58.099999994039536","img/food5.png","74","59.900000005960464","1","0","3","2","1,0.5,0,1,0.5,0,0.5,0,1","1,0.5,0,1,0.5,0,0.5,0,1","1","false",""
"","html-keyboard-response","235","161574","0.0-260.0","39GAF6DQWSMREH39XVW7OQYB2J2V11","A2BABL5AHUOYC7","3FVBZG9CLJ0K37PD5L6161S4HTM0HN","","null","<img src=""img/food5.png"" style=""width:200px;border:14px solid red;"">","null","","","","","","","","","",""
"","image-keyboard-response","236","161617","0.0-262.0","39GAF6DQWSMREH39XVW7OQYB2J2V11","A2BABL5AHUOYC7","3FVBZG9CLJ0K37PD5L6161S4HTM0HN","","41.69999998807907","img/food5.png","74","42.599999994039536","1","0","3","2","1,0.5,0,1,0.5,0,0.5,0,1","1,0.5,0,1,0.5,0,0.5,0,1","1","false",""
"","html-keyboard-response","237","161920","0.0-263.0","39GAF6DQWSMREH39XVW7OQYB2J2V11","A2BABL5AHUOYC7","3FVBZG9CLJ0K37PD5L6161S4HTM0HN","","null","<img src=""img/food5.png"" style=""width:200px;border:14px solid red;"">","null","","","","","","","","","",""
"","image-keyboard-response","238","161976","0.0-265.0","39GAF6DQWSMREH39XVW7OQYB2J2V11","A2BABL5AHUOYC7","3FVBZG9CLJ0K37PD5L6161S4HTM0HN","","53.30000001192093","img/food6.png","74","55","1","1","1","2","1,0.5,0,1,0.5,0,0.5,0,1","1,0.5,0,1,0.5,0,0.5,0,1","1","false",""
"","html-keyboard-response","239","162282","0.0-266.0","39GAF6DQWSMREH39XVW7OQYB2J2V11","A2BABL5AHUOYC7","3FVBZG9CLJ0K37PD5L6161S4HTM0HN","","null","<img src=""img/food6.png"" style=""width:200px; border:14px solid green;"">","null","","","","","","","","","",""
"","image-keyboard-response","240","162320","0.0-268.0","39GAF6DQWSMREH39XVW7OQYB2J2V11","A2BABL5AHUOYC7","3FVBZG9CLJ0K37PD5L6161S4HTM0HN","","36.30000001192093","img/food5.png","74","37.599999994039536","1","0","3","2","1,0.5,0,1,0.5,0,0.5,0,1","1,0.5,0,1,0.5,0,0.5,0,1","1","false",""
"","html-keyboard-response","241","162632","0.0-269.0","39GAF6DQWSMREH39XVW7OQYB2J2V11","A2BABL5AHUOYC7","3FVBZG9CLJ0K37PD5L6161S4HTM0HN","","null","<img src=""img/food5.png"" style=""width:200px;border:14px solid red;"">","null","","","","","","","","","",""
"","image-keyboard-response","242","162672","0.0-271.0","39GAF6DQWSMREH39XVW7OQYB2J2V11","A2BABL5AHUOYC7","3FVBZG9CLJ0K37PD5L6161S4HTM0HN","","37.69999998807907","img/food6.png","74","39.099999994039536","1","1","1","2","1,0.5,0,1,0.5,0,0.5,0,1","1,0.5,0,1,0.5,0,0.5,0,1","1","false",""
"","html-keyboard-response","243","162974","0.0-272.0","39GAF6DQWSMREH39XVW7OQYB2J2V11","A2BABL5AHUOYC7","3FVBZG9CLJ0K37PD5L6161S4HTM0HN","","null","<img src=""img/food6.png"" style=""width:200px; border:14px solid green;"">","null","","","","","","","","","",""
"","image-keyboard-response","244","163025","0.0-274.0","39GAF6DQWSMREH39XVW7OQYB2J2V11","A2BABL5AHUOYC7","3FVBZG9CLJ0K37PD5L6161S4HTM0HN","","48.29999998211861","img/food5.png","74","50.30000001192093","1","1","3","2","1,0.5,0,1,0.5,0,0.5,0,1","1,0.5,0,1,0.5,0,0.5,0,1","1","false",""
"","html-keyboard-response","245","163336","0.0-275.0","39GAF6DQWSMREH39XVW7OQYB2J2V11","A2BABL5AHUOYC7","3FVBZG9CLJ0K37PD5L6161S4HTM0HN","","null","<img src=""img/food5.png"" style=""width:200px; border:14px solid green;"">","null","","","","","","","","","",""
"","image-keyboard-response","246","163365","0.0-277.0","39GAF6DQWSMREH39XVW7OQYB2J2V11","A2BABL5AHUOYC7","3FVBZG9CLJ0K37PD5L6161S4HTM0HN","","27.400000005960464","img/food4.png","74","28.599999994039536","1","1","2","2","1,0.5,0,1,0.5,0,0.5,0,1","1,0.5,0,1,0.5,0,0.5,0,1","1","false",""
"","html-keyboard-response","247","163674","0.0-278.0","39GAF6DQWSMREH39XVW7OQYB2J2V11","A2BABL5AHUOYC7","3FVBZG9CLJ0K37PD5L6161S4HTM0HN","","null","<img src=""img/food4.png"" style=""width:200px; border:14px solid green;"">","null","","","","","","","","","",""
"","image-keyboard-response","248","163717","0.0-280.0","39GAF6DQWSMREH39XVW7OQYB2J2V11","A2BABL5AHUOYC7","3FVBZG9CLJ0K37PD5L6161S4HTM0HN","","41.80000001192093","img/food6.png","74","42.69999998807907","1","1","1","2","1,0.5,0,1,0.5,0,0.5,0,1","1,0.5,0,1,0.5,0,0.5,0,1","1","false",""
"","html-keyboard-response","249","164018","0.0-281.0","39GAF6DQWSMREH39XVW7OQYB2J2V11","A2BABL5AHUOYC7","3FVBZG9CLJ0K37PD5L6161S4HTM0HN","","null","<img src=""img/food6.png"" style=""width:200px; border:14px solid green;"">","null","","","","","","","","","",""
"","image-keyboard-response","250","164075","0.0-283.0","39GAF6DQWSMREH39XVW7OQYB2J2V11","A2BABL5AHUOYC7","3FVBZG9CLJ0K37PD5L6161S4HTM0HN","","54.599999994039536","img/food6.png","74","56.5","1","1","1","2","1,0.5,0,1,0.5,0,0.5,0,1","1,0.5,0,1,0.5,0,0.5,0,1","1","false",""
"","html-keyboard-response","251","164379","0.0-284.0","39GAF6DQWSMREH39XVW7OQYB2J2V11","A2BABL5AHUOYC7","3FVBZG9CLJ0K37PD5L6161S4HTM0HN","","null","<img src=""img/food6.png"" style=""width:200px; border:14px solid green;"">","null","","","","","","","","","",""
"","image-keyboard-response","252","164446","0.0-286.0","39GAF6DQWSMREH39XVW7OQYB2J2V11","A2BABL5AHUOYC7","3FVBZG9CLJ0K37PD5L6161S4HTM0HN","","64.69999998807907","img/food5.png","74","66.40000000596046","1","1","3","2","1,0.5,0,1,0.5,0,0.5,0,1","1,0.5,0,1,0.5,0,0.5,0,1","1","false",""
"","html-keyboard-response","253","164760","0.0-287.0","39GAF6DQWSMREH39XVW7OQYB2J2V11","A2BABL5AHUOYC7","3FVBZG9CLJ0K37PD5L6161S4HTM0HN","","null","<img src=""img/food5.png"" style=""width:200px; border:14px solid green;"">","null","","","","","","","","","",""
"","image-keyboard-response","254","164787","0.0-289.0","39GAF6DQWSMREH39XVW7OQYB2J2V11","A2BABL5AHUOYC7","3FVBZG9CLJ0K37PD5L6161S4HTM0HN","","25.400000005960464","img/food5.png","74","26.399999976158142","1","1","3","2","1,0.5,0,1,0.5,0,0.5,0,1","1,0.5,0,1,0.5,0,0.5,0,1","1","false",""
"","html-keyboard-response","255","165095","0.0-290.0","39GAF6DQWSMREH39XVW7OQYB2J2V11","A2BABL5AHUOYC7","3FVBZG9CLJ0K37PD5L6161S4HTM0HN","","null","<img src=""img/food5.png"" style=""width:200px; border:14px solid green;"">","null","","","","","","","","","",""
"","image-keyboard-response","256","165196","0.0-292.0","39GAF6DQWSMREH39XVW7OQYB2J2V11","A2BABL5AHUOYC7","3FVBZG9CLJ0K37PD5L6161S4HTM0HN","","98.30000001192093","img/food4.png","75","100.30000001192093","2","1","2","2","1,0.5,0,1,0.5,0,0.5,0,1","1,0.5,0,1,0.5,0,0.5,0,1","1","false",""
"","html-keyboard-response","257","165504","0.0-293.0","39GAF6DQWSMREH39XVW7OQYB2J2V11","A2BABL5AHUOYC7","3FVBZG9CLJ0K37PD5L6161S4HTM0HN","","null","<img src=""img/food4.png"" style=""width:200px; border:14px solid green;"">","null","","","","","","","","","",""
"","image-keyboard-response","258","165531","0.0-295.0","39GAF6DQWSMREH39XVW7OQYB2J2V11","A2BABL5AHUOYC7","3FVBZG9CLJ0K37PD5L6161S4HTM0HN","","25.900000005960464","img/food6.png","75","27","2","0","1","2","1,0.5,0,1,0.5,0,0.5,0,1","1,0.5,0,1,0.5,0,0.5,0,1","1","false",""
"","html-keyboard-response","259","165837","0.0-296.0","39GAF6DQWSMREH39XVW7OQYB2J2V11","A2BABL5AHUOYC7","3FVBZG9CLJ0K37PD5L6161S4HTM0HN","","null","<img src=""img/food6.png"" style=""width:200px;border:14px solid red;"">","null","","","","","","","","","",""
"","image-keyboard-response","260","165890","0.0-298.0","39GAF6DQWSMREH39XVW7OQYB2J2V11","A2BABL5AHUOYC7","3FVBZG9CLJ0K37PD5L6161S4HTM0HN","","51","img/food6.png","75","52.79999998211861","2","1","1","2","1,0.5,0,1,0.5,0,0.5,0,1","1,0.5,0,1,0.5,0,0.5,0,1","1","false",""
"","html-keyboard-response","261","166206","0.0-299.0","39GAF6DQWSMREH39XVW7OQYB2J2V11","A2BABL5AHUOYC7","3FVBZG9CLJ0K37PD5L6161S4HTM0HN","","null","<img src=""img/food6.png"" style=""width:200px; border:14px solid green;"">","null","","","","","","","","","",""
"","image-keyboard-response","262","166240","0.0-301.0","39GAF6DQWSMREH39XVW7OQYB2J2V11","A2BABL5AHUOYC7","3FVBZG9CLJ0K37PD5L6161S4HTM0HN","","32","img/food4.png","75","33.400000005960464","2","0","2","2","1,0.5,0,1,0.5,0,0.5,0,1","1,0.5,0,1,0.5,0,0.5,0,1","1","false",""
"","html-keyboard-response","263","166551","0.0-302.0","39GAF6DQWSMREH39XVW7OQYB2J2V11","A2BABL5AHUOYC7","3FVBZG9CLJ0K37PD5L6161S4HTM0HN","","null","<img src=""img/food4.png"" style=""width:200px;border:14px solid red;"">","null","","","","","","","","","",""
"","image-keyboard-response","264","166587","0.0-304.0","39GAF6DQWSMREH39XVW7OQYB2J2V11","A2BABL5AHUOYC7","3FVBZG9CLJ0K37PD5L6161S4HTM0HN","","33.60000002384186","img/food6.png","75","34.69999998807907","2","0","1","2","1,0.5,0,1,0.5,0,0.5,0,1","1,0.5,0,1,0.5,0,0.5,0,1","1","false",""
"","html-keyboard-response","265","166895","0.0-305.0","39GAF6DQWSMREH39XVW7OQYB2J2V11","A2BABL5AHUOYC7","3FVBZG9CLJ0K37PD5L6161S4HTM0HN","","null","<img src=""img/food6.png"" style=""width:200px;border:14px solid red;"">","null","","","","","","","","","",""
"","image-keyboard-response","266","166960","0.0-307.0","39GAF6DQWSMREH39XVW7OQYB2J2V11","A2BABL5AHUOYC7","3FVBZG9CLJ0K37PD5L6161S4HTM0HN","","63.19999998807907","img/food5.png","75","64.90000000596046","2","0","3","2","1,0.5,0,1,0.5,0,0.5,0,1","1,0.5,0,1,0.5,0,0.5,0,1","1","false",""
"","html-keyboard-response","267","167266","0.0-308.0","39GAF6DQWSMREH39XVW7OQYB2J2V11","A2BABL5AHUOYC7","3FVBZG9CLJ0K37PD5L6161S4HTM0HN","","null","<img src=""img/food5.png"" style=""width:200px;border:14px solid red;"">","null","","","","","","","","","",""
"","image-keyboard-response","268","167310","0.0-310.0","39GAF6DQWSMREH39XVW7OQYB2J2V11","A2BABL5AHUOYC7","3FVBZG9CLJ0K37PD5L6161S4HTM0HN","","42.80000001192093","img/food5.png","75","44","2","0","3","2","1,0.5,0,1,0.5,0,0.5,0,1","1,0.5,0,1,0.5,0,0.5,0,1","1","false",""
"","html-keyboard-response","269","167627","0.0-311.0","39GAF6DQWSMREH39XVW7OQYB2J2V11","A2BABL5AHUOYC7","3FVBZG9CLJ0K37PD5L6161S4HTM0HN","","null","<img src=""img/food5.png"" style=""width:200px;border:14px solid red;"">","null","","","","","","","","","",""
"","image-keyboard-response","270","167728","0.0-313.0","39GAF6DQWSMREH39XVW7OQYB2J2V11","A2BABL5AHUOYC7","3FVBZG9CLJ0K37PD5L6161S4HTM0HN","","99.10000002384186","img/food6.png","74","101.5","1","1","1","2","1,0.5,0,1,0.5,0,0.5,0,1","1,0.5,0,1,0.5,0,0.5,0,1","1","false",""
"","html-keyboard-response","271","168031","0.0-314.0","39GAF6DQWSMREH39XVW7OQYB2J2V11","A2BABL5AHUOYC7","3FVBZG9CLJ0K37PD5L6161S4HTM0HN","","null","<img src=""img/food6.png"" style=""width:200px; border:14px solid green;"">","null","","","","","","","","","",""
"","image-keyboard-response","272","168202","0.0-316.0","39GAF6DQWSMREH39XVW7OQYB2J2V11","A2BABL5AHUOYC7","3FVBZG9CLJ0K37PD5L6161S4HTM0HN","","169","img/food5.png","74","170.40000000596046","1","0","3","2","1,0.5,0,1,0.5,0,0.5,0,1","1,0.5,0,1,0.5,0,0.5,0,1","1","false",""
"","html-keyboard-response","273","168514","0.0-317.0","39GAF6DQWSMREH39XVW7OQYB2J2V11","A2BABL5AHUOYC7","3FVBZG9CLJ0K37PD5L6161S4HTM0HN","","null","<img src=""img/food5.png"" style=""width:200px;border:14px solid red;"">","null","","","","","","","","","",""
"","image-keyboard-response","274","168554","0.0-319.0","39GAF6DQWSMREH39XVW7OQYB2J2V11","A2BABL5AHUOYC7","3FVBZG9CLJ0K37PD5L6161S4HTM0HN","","38.599999994039536","img/food4.png","75","39.79999998211861","2","0","2","2","1,0.5,0,1,0.5,0,0.5,0,1","1,0.5,0,1,0.5,0,0.5,0,1","1","false",""
"","html-keyboard-response","275","168857","0.0-320.0","39GAF6DQWSMREH39XVW7OQYB2J2V11","A2BABL5AHUOYC7","3FVBZG9CLJ0K37PD5L6161S4HTM0HN","","null","<img src=""img/food4.png"" style=""width:200px;border:14px solid red;"">","null","","","","","","","","","",""
"","image-keyboard-response","276","168867","0.0-322.0","39GAF6DQWSMREH39XVW7OQYB2J2V11","A2BABL5AHUOYC7","3FVBZG9CLJ0K37PD5L6161S4HTM0HN","","6.9000000059604645","img/food4.png","74","9.199999988079071","1","1","2","2","1,0.5,0,1,0.5,0,0.5,0,1","1,0.5,0,1,0.5,0,0.5,0,1","1","false",""
"","html-keyboard-response","277","169186","0.0-323.0","39GAF6DQWSMREH39XVW7OQYB2J2V11","A2BABL5AHUOYC7","3FVBZG9CLJ0K37PD5L6161S4HTM0HN","","null","<img src=""img/food4.png"" style=""width:200px; border:14px solid green;"">","null","","","","","","","","","",""
"","image-keyboard-response","278","169227","0.0-325.0","39GAF6DQWSMREH39XVW7OQYB2J2V11","A2BABL5AHUOYC7","3FVBZG9CLJ0K37PD5L6161S4HTM0HN","","38.80000001192093","img/food4.png","74","40","1","1","2","2","1,0.5,0,1,0.5,0,0.5,0,1","1,0.5,0,1,0.5,0,0.5,0,1","1","false",""
"","html-keyboard-response","279","169534","0.0-326.0","39GAF6DQWSMREH39XVW7OQYB2J2V11","A2BABL5AHUOYC7","3FVBZG9CLJ0K37PD5L6161S4HTM0HN","","null","<img src=""img/food4.png"" style=""width:200px; border:14px solid green;"">","null","","","","","","","","","",""
"","image-keyboard-response","280","169594","0.0-328.0","39GAF6DQWSMREH39XVW7OQYB2J2V11","A2BABL5AHUOYC7","3FVBZG9CLJ0K37PD5L6161S4HTM0HN","","57.80000001192093","img/food5.png","74","59.099999994039536","1","1","3","2","1,0.5,0,1,0.5,0,0.5,0,1","1,0.5,0,1,0.5,0,0.5,0,1","1","false",""
"","html-keyboard-response","281","169903","0.0-329.0","39GAF6DQWSMREH39XVW7OQYB2J2V11","A2BABL5AHUOYC7","3FVBZG9CLJ0K37PD5L6161S4HTM0HN","","null","<img src=""img/food5.png"" style=""width:200px; border:14px solid green;"">","null","","","","","","","","","",""
"","image-keyboard-response","282","169957","0.0-331.0","39GAF6DQWSMREH39XVW7OQYB2J2V11","A2BABL5AHUOYC7","3FVBZG9CLJ0K37PD5L6161S4HTM0HN","","52.10000002384186","img/food4.png","74","54","1","1","2","2","1,0.5,0,1,0.5,0,0.5,0,1","1,0.5,0,1,0.5,0,0.5,0,1","1","false",""
"","html-keyboard-response","283","170266","0.0-332.0","39GAF6DQWSMREH39XVW7OQYB2J2V11","A2BABL5AHUOYC7","3FVBZG9CLJ0K37PD5L6161S4HTM0HN","","null","<img src=""img/food4.png"" style=""width:200px; border:14px solid green;"">","null","","","","","","","","","",""
"","image-keyboard-response","284","170328","0.0-334.0","39GAF6DQWSMREH39XVW7OQYB2J2V11","A2BABL5AHUOYC7","3FVBZG9CLJ0K37PD5L6161S4HTM0HN","","60.20000001788139","img/food6.png","74","61.599999994039536","1","1","1","2","1,0.5,0,1,0.5,0,0.5,0,1","1,0.5,0,1,0.5,0,0.5,0,1","1","false",""
"","html-keyboard-response","285","170636","0.0-335.0","39GAF6DQWSMREH39XVW7OQYB2J2V11","A2BABL5AHUOYC7","3FVBZG9CLJ0K37PD5L6161S4HTM0HN","","null","<img src=""img/food6.png"" style=""width:200px; border:14px solid green;"">","null","","","","","","","","","",""
"","image-keyboard-response","286","170681","0.0-337.0","39GAF6DQWSMREH39XVW7OQYB2J2V11","A2BABL5AHUOYC7","3FVBZG9CLJ0K37PD5L6161S4HTM0HN","","42.5","img/food5.png","74","44.20000001788139","1","0","3","2","1,0.5,0,1,0.5,0,0.5,0,1","1,0.5,0,1,0.5,0,0.5,0,1","1","false",""
"","html-keyboard-response","287","170989","0.0-338.0","39GAF6DQWSMREH39XVW7OQYB2J2V11","A2BABL5AHUOYC7","3FVBZG9CLJ0K37PD5L6161S4HTM0HN","","null","<img src=""img/food5.png"" style=""width:200px;border:14px solid red;"">","null","","","","","","","","","",""
"","image-keyboard-response","288","171048","0.0-340.0","39GAF6DQWSMREH39XVW7OQYB2J2V11","A2BABL5AHUOYC7","3FVBZG9CLJ0K37PD5L6161S4HTM0HN","","56.20000001788139","img/food5.png","74","57.900000005960464","1","1","3","2","1,0.5,0,1,0.5,0,0.5,0,1","1,0.5,0,1,0.5,0,0.5,0,1","1","false",""
"","html-keyboard-response","289","171353","0.0-341.0","39GAF6DQWSMREH39XVW7OQYB2J2V11","A2BABL5AHUOYC7","3FVBZG9CLJ0K37PD5L6161S4HTM0HN","","null","<img src=""img/food5.png"" style=""width:200px; border:14px solid green;"">","null","","","","","","","","","",""
"","image-keyboard-response","290","171383","0.0-343.0","39GAF6DQWSMREH39XVW7OQYB2J2V11","A2BABL5AHUOYC7","3FVBZG9CLJ0K37PD5L6161S4HTM0HN","","27.69999998807907","img/food4.png","74","29.19999998807907","1","1","2","2","1,0.5,0,1,0.5,0,0.5,0,1","1,0.5,0,1,0.5,0,0.5,0,1","1","false",""
"","html-keyboard-response","291","171692","0.0-344.0","39GAF6DQWSMREH39XVW7OQYB2J2V11","A2BABL5AHUOYC7","3FVBZG9CLJ0K37PD5L6161S4HTM0HN","","null","<img src=""img/food4.png"" style=""width:200px; border:14px solid green;"">","null","","","","","","","","","",""
"","image-keyboard-response","292","171715","0.0-346.0","39GAF6DQWSMREH39XVW7OQYB2J2V11","A2BABL5AHUOYC7","3FVBZG9CLJ0K37PD5L6161S4HTM0HN","","21","img/food5.png","74","22.5","1","0","3","2","1,0.5,0,1,0.5,0,0.5,0,1","1,0.5,0,1,0.5,0,0.5,0,1","1","false",""
"","html-keyboard-response","293","172031","0.0-347.0","39GAF6DQWSMREH39XVW7OQYB2J2V11","A2BABL5AHUOYC7","3FVBZG9CLJ0K37PD5L6161S4HTM0HN","","null","<img src=""img/food5.png"" style=""width:200px;border:14px solid red;"">","null","","","","","","","","","",""
"","image-keyboard-response","294","172062","0.0-349.0","39GAF6DQWSMREH39XVW7OQYB2J2V11","A2BABL5AHUOYC7","3FVBZG9CLJ0K37PD5L6161S4HTM0HN","","28.69999998807907","img/food4.png","74","30.19999998807907","1","1","2","2","1,0.5,0,1,0.5,0,0.5,0,1","1,0.5,0,1,0.5,0,0.5,0,1","1","false",""
"","html-keyboard-response","295","172369","0.0-350.0","39GAF6DQWSMREH39XVW7OQYB2J2V11","A2BABL5AHUOYC7","3FVBZG9CLJ0K37PD5L6161S4HTM0HN","","null","<img src=""img/food4.png"" style=""width:200px; border:14px solid green;"">","null","","","","","","","","","",""
"","image-keyboard-response","296","172397","0.0-352.0","39GAF6DQWSMREH39XVW7OQYB2J2V11","A2BABL5AHUOYC7","3FVBZG9CLJ0K37PD5L6161S4HTM0HN","","25.80000001192093","img/food4.png","74","27.099999994039536","1","1","2","2","1,0.5,0,1,0.5,0,0.5,0,1","1,0.5,0,1,0.5,0,0.5,0,1","1","false",""
"","html-keyboard-response","297","172712","0.0-353.0","39GAF6DQWSMREH39XVW7OQYB2J2V11","A2BABL5AHUOYC7","3FVBZG9CLJ0K37PD5L6161S4HTM0HN","","null","<img src=""img/food4.png"" style=""width:200px; border:14px solid green;"">","null","","","","","","","","","",""
"","image-keyboard-response","298","172801","0.0-355.0","39GAF6DQWSMREH39XVW7OQYB2J2V11","A2BABL5AHUOYC7","3FVBZG9CLJ0K37PD5L6161S4HTM0HN","","86.09999999403954","img/food6.png","74","87.80000001192093","1","1","1","2","1,0.5,0,1,0.5,0,0.5,0,1","1,0.5,0,1,0.5,0,0.5,0,1","1","false",""
"","html-keyboard-response","299","173112","0.0-356.0","39GAF6DQWSMREH39XVW7OQYB2J2V11","A2BABL5AHUOYC7","3FVBZG9CLJ0K37PD5L6161S4HTM0HN","","null","<img src=""img/food6.png"" style=""width:200px; border:14px solid green;"">","null","","","","","","","","","",""
"","image-keyboard-response","300","173142","0.0-358.0","39GAF6DQWSMREH39XVW7OQYB2J2V11","A2BABL5AHUOYC7","3FVBZG9CLJ0K37PD5L6161S4HTM0HN","","27.700000017881393","img/food6.png","74","29.5","1","1","1","2","1,0.5,0,1,0.5,0,0.5,0,1","1,0.5,0,1,0.5,0,0.5,0,1","1","false",""
"","html-keyboard-response","301","173448","0.0-359.0","39GAF6DQWSMREH39XVW7OQYB2J2V11","A2BABL5AHUOYC7","3FVBZG9CLJ0K37PD5L6161S4HTM0HN","","null","<img src=""img/food6.png"" style=""width:200px; border:14px solid green;"">","null","","","","","","","","","",""
"","image-keyboard-response","302","173492","0.0-361.0","39GAF6DQWSMREH39XVW7OQYB2J2V11","A2BABL5AHUOYC7","3FVBZG9CLJ0K37PD5L6161S4HTM0HN","","42.5","img/food4.png","74","43.79999998211861","1","1","2","2","1,0.5,0,1,0.5,0,0.5,0,1","1,0.5,0,1,0.5,0,0.5,0,1","1","false",""
"","html-keyboard-response","303","173798","0.0-362.0","39GAF6DQWSMREH39XVW7OQYB2J2V11","A2BABL5AHUOYC7","3FVBZG9CLJ0K37PD5L6161S4HTM0HN","","null","<img src=""img/food4.png"" style=""width:200px; border:14px solid green;"">","null","","","","","","","","","",""
"","image-keyboard-response","304","173926","0.0-364.0","39GAF6DQWSMREH39XVW7OQYB2J2V11","A2BABL5AHUOYC7","3FVBZG9CLJ0K37PD5L6161S4HTM0HN","","125.59999999403954","img/food5.png","75","127","2","0","3","2","1,0.5,0,1,0.5,0,0.5,0,1","1,0.5,0,1,0.5,0,0.5,0,1","1","false",""
"","html-keyboard-response","305","174234","0.0-365.0","39GAF6DQWSMREH39XVW7OQYB2J2V11","A2BABL5AHUOYC7","3FVBZG9CLJ0K37PD5L6161S4HTM0HN","","null","<img src=""img/food5.png"" style=""width:200px;border:14px solid red;"">","null","","","","","","","","","",""
"","image-keyboard-response","306","174253","0.0-367.0","39GAF6DQWSMREH39XVW7OQYB2J2V11","A2BABL5AHUOYC7","3FVBZG9CLJ0K37PD5L6161S4HTM0HN","","17.599999994039536","img/food5.png","75","18.700000017881393","2","0","3","2","1,0.5,0,1,0.5,0,0.5,0,1","1,0.5,0,1,0.5,0,0.5,0,1","1","false",""
"","html-keyboard-response","307","174556","0.0-368.0","39GAF6DQWSMREH39XVW7OQYB2J2V11","A2BABL5AHUOYC7","3FVBZG9CLJ0K37PD5L6161S4HTM0HN","","null","<img src=""img/food5.png"" style=""width:200px;border:14px solid red;"">","null","","","","","","","","","",""
"","image-keyboard-response","308","174604","0.0-370.0","39GAF6DQWSMREH39XVW7OQYB2J2V11","A2BABL5AHUOYC7","3FVBZG9CLJ0K37PD5L6161S4HTM0HN","","45.80000001192093","img/food5.png","75","46.89999997615814","2","0","3","2","1,0.5,0,1,0.5,0,0.5,0,1","1,0.5,0,1,0.5,0,0.5,0,1","1","false",""
"","html-keyboard-response","309","174911","0.0-371.0","39GAF6DQWSMREH39XVW7OQYB2J2V11","A2BABL5AHUOYC7","3FVBZG9CLJ0K37PD5L6161S4HTM0HN","","null","<img src=""img/food5.png"" style=""width:200px;border:14px solid red;"">","null","","","","","","","","","",""
"","image-keyboard-response","310","174993","0.0-373.0","39GAF6DQWSMREH39XVW7OQYB2J2V11","A2BABL5AHUOYC7","3FVBZG9CLJ0K37PD5L6161S4HTM0HN","","78.69999998807907","img/food4.png","75","80.40000000596046","2","1","2","2","1,0.5,0,1,0.5,0,0.5,0,1","1,0.5,0,1,0.5,0,0.5,0,1","1","false",""
"","html-keyboard-response","311","175308","0.0-374.0","39GAF6DQWSMREH39XVW7OQYB2J2V11","A2BABL5AHUOYC7","3FVBZG9CLJ0K37PD5L6161S4HTM0HN","","null","<img src=""img/food4.png"" style=""width:200px; border:14px solid green;"">","null","","","","","","","","","",""
"","image-keyboard-response","312","175343","0.0-376.0","39GAF6DQWSMREH39XVW7OQYB2J2V11","A2BABL5AHUOYC7","3FVBZG9CLJ0K37PD5L6161S4HTM0HN","","33.69999998807907","img/food4.png","75","34.80000001192093","2","1","2","2","1,0.5,0,1,0.5,0,0.5,0,1","1,0.5,0,1,0.5,0,0.5,0,1","1","false",""
"","html-keyboard-response","313","175646","0.0-377.0","39GAF6DQWSMREH39XVW7OQYB2J2V11","A2BABL5AHUOYC7","3FVBZG9CLJ0K37PD5L6161S4HTM0HN","","null","<img src=""img/food4.png"" style=""width:200px; border:14px solid green;"">","null","","","","","","","","","",""
"","image-keyboard-response","314","175697","0.0-379.0","39GAF6DQWSMREH39XVW7OQYB2J2V11","A2BABL5AHUOYC7","3FVBZG9CLJ0K37PD5L6161S4HTM0HN","","49.099999994039536","img/food6.png","75","50.69999998807907","2","0","1","2","1,0.5,0,1,0.5,0,0.5,0,1","1,0.5,0,1,0.5,0,0.5,0,1","1","false",""
"","html-keyboard-response","315","176003","0.0-380.0","39GAF6DQWSMREH39XVW7OQYB2J2V11","A2BABL5AHUOYC7","3FVBZG9CLJ0K37PD5L6161S4HTM0HN","","null","<img src=""img/food6.png"" style=""width:200px;border:14px solid red;"">","null","","","","","","","","","",""
"","image-keyboard-response","316","176052","0.0-382.0","39GAF6DQWSMREH39XVW7OQYB2J2V11","A2BABL5AHUOYC7","3FVBZG9CLJ0K37PD5L6161S4HTM0HN","","46","img/food5.png","75","48","2","0","3","2","1,0.5,0,1,0.5,0,0.5,0,1","1,0.5,0,1,0.5,0,0.5,0,1","1","false",""
"","html-keyboard-response","317","176360","0.0-383.0","39GAF6DQWSMREH39XVW7OQYB2J2V11","A2BABL5AHUOYC7","3FVBZG9CLJ0K37PD5L6161S4HTM0HN","","null","<img src=""img/food5.png"" style=""width:200px;border:14px solid red;"">","null","","","","","","","","","",""
"","image-keyboard-response","318","176408","0.0-385.0","39GAF6DQWSMREH39XVW7OQYB2J2V11","A2BABL5AHUOYC7","3FVBZG9CLJ0K37PD5L6161S4HTM0HN","","44.900000005960464","img/food4.png","75","46.900000005960464","2","1","2","2","1,0.5,0,1,0.5,0,0.5,0,1","1,0.5,0,1,0.5,0,0.5,0,1","1","false",""
"","html-keyboard-response","319","176723","0.0-386.0","39GAF6DQWSMREH39XVW7OQYB2J2V11","A2BABL5AHUOYC7","3FVBZG9CLJ0K37PD5L6161S4HTM0HN","","null","<img src=""img/food4.png"" style=""width:200px; border:14px solid green;"">","null","","","","","","","","","",""
"","image-keyboard-response","320","176730","0.0-388.0","39GAF6DQWSMREH39XVW7OQYB2J2V11","A2BABL5AHUOYC7","3FVBZG9CLJ0K37PD5L6161S4HTM0HN","","5.699999988079071","img/food6.png","74","7","1","1","1","2","1,0.5,0,1,0.5,0,0.5,0,1","1,0.5,0,1,0.5,0,0.5,0,1","1","false",""
"","html-keyboard-response","321","177048","0.0-389.0","39GAF6DQWSMREH39XVW7OQYB2J2V11","A2BABL5AHUOYC7","3FVBZG9CLJ0K37PD5L6161S4HTM0HN","","null","<img src=""img/food6.png"" style=""width:200px; border:14px solid green;"">","null","","","","","","","","","",""
"","image-keyboard-response","322","177108","0.0-391.0","39GAF6DQWSMREH39XVW7OQYB2J2V11","A2BABL5AHUOYC7","3FVBZG9CLJ0K37PD5L6161S4HTM0HN","","57.20000001788139","img/food6.png","74","59.20000001788139","1","1","1","2","1,0.5,0,1,0.5,0,0.5,0,1","1,0.5,0,1,0.5,0,0.5,0,1","1","false",""
"","html-keyboard-response","323","177417","0.0-392.0","39GAF6DQWSMREH39XVW7OQYB2J2V11","A2BABL5AHUOYC7","3FVBZG9CLJ0K37PD5L6161S4HTM0HN","","null","<img src=""img/food6.png"" style=""width:200px; border:14px solid green;"">","null","","","","","","","","","",""
"","image-keyboard-response","324","177489","0.0-394.0","39GAF6DQWSMREH39XVW7OQYB2J2V11","A2BABL5AHUOYC7","3FVBZG9CLJ0K37PD5L6161S4HTM0HN","","69.7999999821186","img/food6.png","74","71.30000001192093","1","1","1","2","1,0.5,0,1,0.5,0,0.5,0,1","1,0.5,0,1,0.5,0,0.5,0,1","1","false",""
"","html-keyboard-response","325","177797","0.0-395.0","39GAF6DQWSMREH39XVW7OQYB2J2V11","A2BABL5AHUOYC7","3FVBZG9CLJ0K37PD5L6161S4HTM0HN","","null","<img src=""img/food6.png"" style=""width:200px; border:14px solid green;"">","null","","","","","","","","","",""
"","image-keyboard-response","326","177882","0.0-397.0","39GAF6DQWSMREH39XVW7OQYB2J2V11","A2BABL5AHUOYC7","3FVBZG9CLJ0K37PD5L6161S4HTM0HN","","83.39999997615814","img/food4.png","74","85.19999998807907","1","1","2","2","1,0.5,0,1,0.5,0,0.5,0,1","1,0.5,0,1,0.5,0,0.5,0,1","1","false",""
"","html-keyboard-response","327","178185","0.0-398.0","39GAF6DQWSMREH39XVW7OQYB2J2V11","A2BABL5AHUOYC7","3FVBZG9CLJ0K37PD5L6161S4HTM0HN","","null","<img src=""img/food4.png"" style=""width:200px; border:14px solid green;"">","null","","","","","","","","","",""
"","image-keyboard-response","328","178238","0.0-400.0","39GAF6DQWSMREH39XVW7OQYB2J2V11","A2BABL5AHUOYC7","3FVBZG9CLJ0K37PD5L6161S4HTM0HN","","50.099999994039536","img/food6.png","74","51.400000005960464","1","1","1","2","1,0.5,0,1,0.5,0,0.5,0,1","1,0.5,0,1,0.5,0,0.5,0,1","1","false",""
"","html-keyboard-response","329","178540","0.0-401.0","39GAF6DQWSMREH39XVW7OQYB2J2V11","A2BABL5AHUOYC7","3FVBZG9CLJ0K37PD5L6161S4HTM0HN","","null","<img src=""img/food6.png"" style=""width:200px; border:14px solid green;"">","null","","","","","","","","","",""
"","image-keyboard-response","330","178615","0.0-403.0","39GAF6DQWSMREH39XVW7OQYB2J2V11","A2BABL5AHUOYC7","3FVBZG9CLJ0K37PD5L6161S4HTM0HN","","73.2000000178814","img/food5.png","74","74.5","1","0","3","2","1,0.5,0,1,0.5,0,0.5,0,1","1,0.5,0,1,0.5,0,0.5,0,1","1","false",""
"","html-keyboard-response","331","178926","0.0-404.0","39GAF6DQWSMREH39XVW7OQYB2J2V11","A2BABL5AHUOYC7","3FVBZG9CLJ0K37PD5L6161S4HTM0HN","","null","<img src=""img/food5.png"" style=""width:200px;border:14px solid red;"">","null","","","","","","","","","",""
"","image-keyboard-response","332","179000","0.0-406.0","39GAF6DQWSMREH39XVW7OQYB2J2V11","A2BABL5AHUOYC7","3FVBZG9CLJ0K37PD5L6161S4HTM0HN","","70.59999999403954","img/food5.png","74","72.7999999821186","1","0","3","2","1,0.5,0,1,0.5,0,0.5,0,1","1,0.5,0,1,0.5,0,0.5,0,1","1","false",""
"","html-keyboard-response","333","179304","0.0-407.0","39GAF6DQWSMREH39XVW7OQYB2J2V11","A2BABL5AHUOYC7","3FVBZG9CLJ0K37PD5L6161S4HTM0HN","","null","<img src=""img/food5.png"" style=""width:200px;border:14px solid red;"">","null","","","","","","","","","",""
"","image-keyboard-response","334","179369","0.0-409.0","39GAF6DQWSMREH39XVW7OQYB2J2V11","A2BABL5AHUOYC7","3FVBZG9CLJ0K37PD5L6161S4HTM0HN","","63.5","img/food6.png","75","64.7000000178814","2","0","1","2","1,0.5,0,1,0.5,0,0.5,0,1","1,0.5,0,1,0.5,0,0.5,0,1","1","false",""
"","html-keyboard-response","335","179679","0.0-410.0","39GAF6DQWSMREH39XVW7OQYB2J2V11","A2BABL5AHUOYC7","3FVBZG9CLJ0K37PD5L6161S4HTM0HN","","null","<img src=""img/food6.png"" style=""width:200px;border:14px solid red;"">","null","","","","","","","","","",""
"","image-keyboard-response","336","179744","0.0-412.0","39GAF6DQWSMREH39XVW7OQYB2J2V11","A2BABL5AHUOYC7","3FVBZG9CLJ0K37PD5L6161S4HTM0HN","","62.099999994039536","img/food4.png","74","64.09999999403954","1","1","2","2","1,0.5,0,1,0.5,0,0.5,0,1","1,0.5,0,1,0.5,0,0.5,0,1","1","false",""
"","html-keyboard-response","337","180050","0.0-413.0","39GAF6DQWSMREH39XVW7OQYB2J2V11","A2BABL5AHUOYC7","3FVBZG9CLJ0K37PD5L6161S4HTM0HN","","null","<img src=""img/food4.png"" style=""width:200px; border:14px solid green;"">","null","","","","","","","","","",""
"","image-keyboard-response","338","180100","0.0-415.0","39GAF6DQWSMREH39XVW7OQYB2J2V11","A2BABL5AHUOYC7","3FVBZG9CLJ0K37PD5L6161S4HTM0HN","","47.099999994039536","img/food6.png","75","48.900000005960464","2","1","1","2","1,0.5,0,1,0.5,0,0.5,0,1","1,0.5,0,1,0.5,0,0.5,0,1","1","false",""
"","html-keyboard-response","339","180411","0.0-416.0","39GAF6DQWSMREH39XVW7OQYB2J2V11","A2BABL5AHUOYC7","3FVBZG9CLJ0K37PD5L6161S4HTM0HN","","null","<img src=""img/food6.png"" style=""width:200px; border:14px solid green;"">","null","","","","","","","","","",""
"","image-keyboard-response","340","180416","0.0-418.0","39GAF6DQWSMREH39XVW7OQYB2J2V11","A2BABL5AHUOYC7","3FVBZG9CLJ0K37PD5L6161S4HTM0HN","","3.199999988079071","img/food4.png","75","4.299999982118607","2","1","2","2","1,0.5,0,1,0.5,0,0.5,0,1","1,0.5,0,1,0.5,0,0.5,0,1","1","false",""
"","html-keyboard-response","341","180721","0.0-419.0","39GAF6DQWSMREH39XVW7OQYB2J2V11","A2BABL5AHUOYC7","3FVBZG9CLJ0K37PD5L6161S4HTM0HN","","null","<img src=""img/food4.png"" style=""width:200px; border:14px solid green;"">","null","","","","","","","","","",""
"","image-keyboard-response","342","180799","0.0-421.0","39GAF6DQWSMREH39XVW7OQYB2J2V11","A2BABL5AHUOYC7","3FVBZG9CLJ0K37PD5L6161S4HTM0HN","","74.89999997615814","img/food4.png","75","76.7999999821186","2","0","2","2","1,0.5,0,1,0.5,0,0.5,0,1","1,0.5,0,1,0.5,0,0.5,0,1","1","false",""
"","html-keyboard-response","343","181114","0.0-422.0","39GAF6DQWSMREH39XVW7OQYB2J2V11","A2BABL5AHUOYC7","3FVBZG9CLJ0K37PD5L6161S4HTM0HN","","null","<img src=""img/food4.png"" style=""width:200px;border:14px solid red;"">","null","","","","","","","","","",""
"","image-keyboard-response","344","181155","0.0-424.0","39GAF6DQWSMREH39XVW7OQYB2J2V11","A2BABL5AHUOYC7","3FVBZG9CLJ0K37PD5L6161S4HTM0HN","","38.19999998807907","img/food4.png","75","39.69999998807907","2","1","2","2","1,0.5,0,1,0.5,0,0.5,0,1","1,0.5,0,1,0.5,0,0.5,0,1","1","false",""
"","html-keyboard-response","345","181467","0.0-425.0","39GAF6DQWSMREH39XVW7OQYB2J2V11","A2BABL5AHUOYC7","3FVBZG9CLJ0K37PD5L6161S4HTM0HN","","null","<img src=""img/food4.png"" style=""width:200px; border:14px solid green;"">","null","","","","","","","","","",""
"","image-keyboard-response","346","181501","0.0-427.0","39GAF6DQWSMREH39XVW7OQYB2J2V11","A2BABL5AHUOYC7","3FVBZG9CLJ0K37PD5L6161S4HTM0HN","","32.400000005960464","img/food6.png","75","33.69999998807907","2","1","1","2","1,0.5,0,1,0.5,0,0.5,0,1","1,0.5,0,1,0.5,0,0.5,0,1","1","false",""
"","html-keyboard-response","347","181805","0.0-428.0","39GAF6DQWSMREH39XVW7OQYB2J2V11","A2BABL5AHUOYC7","3FVBZG9CLJ0K37PD5L6161S4HTM0HN","","null","<img src=""img/food6.png"" style=""width:200px; border:14px solid green;"">","null","","","","","","","","","",""
"","image-keyboard-response","348","181848","0.0-430.0","39GAF6DQWSMREH39XVW7OQYB2J2V11","A2BABL5AHUOYC7","3FVBZG9CLJ0K37PD5L6161S4HTM0HN","","40.099999994039536","img/food4.png","75","41.79999998211861","2","0","2","2","1,0.5,0,1,0.5,0,0.5,0,1","1,0.5,0,1,0.5,0,0.5,0,1","1","false",""
"","html-keyboard-response","349","182151","0.0-431.0","39GAF6DQWSMREH39XVW7OQYB2J2V11","A2BABL5AHUOYC7","3FVBZG9CLJ0K37PD5L6161S4HTM0HN","","null","<img src=""img/food4.png"" style=""width:200px;border:14px solid red;"">","null","","","","","","","","","",""
"","image-keyboard-response","350","182230","0.0-433.0","39GAF6DQWSMREH39XVW7OQYB2J2V11","A2BABL5AHUOYC7","3FVBZG9CLJ0K37PD5L6161S4HTM0HN","","77.09999999403954","img/food6.png","75","78.30000001192093","2","0","1","2","1,0.5,0,1,0.5,0,0.5,0,1","1,0.5,0,1,0.5,0,0.5,0,1","1","false",""
"","html-keyboard-response","351","182535","0.0-434.0","39GAF6DQWSMREH39XVW7OQYB2J2V11","A2BABL5AHUOYC7","3FVBZG9CLJ0K37PD5L6161S4HTM0HN","","null","<img src=""img/food6.png"" style=""width:200px;border:14px solid red;"">","null","","","","","","","","","",""
"","image-keyboard-response","352","182575","0.0-436.0","39GAF6DQWSMREH39XVW7OQYB2J2V11","A2BABL5AHUOYC7","3FVBZG9CLJ0K37PD5L6161S4HTM0HN","","38.80000001192093","img/food5.png","75","40.099999994039536","2","0","3","2","1,0.5,0,1,0.5,0,0.5,0,1","1,0.5,0,1,0.5,0,0.5,0,1","1","false",""
"","html-keyboard-response","353","182888","0.0-437.0","39GAF6DQWSMREH39XVW7OQYB2J2V11","A2BABL5AHUOYC7","3FVBZG9CLJ0K37PD5L6161S4HTM0HN","","null","<img src=""img/food5.png"" style=""width:200px;border:14px solid red;"">","null","","","","","","","","","",""
"","image-keyboard-response","354","182912","0.0-439.0","39GAF6DQWSMREH39XVW7OQYB2J2V11","A2BABL5AHUOYC7","3FVBZG9CLJ0K37PD5L6161S4HTM0HN","","22.900000005960464","img/food6.png","74","23.69999998807907","1","1","1","2","1,0.5,0,1,0.5,0,0.5,0,1","1,0.5,0,1,0.5,0,0.5,0,1","1","false",""
"","html-keyboard-response","355","183221","0.0-440.0","39GAF6DQWSMREH39XVW7OQYB2J2V11","A2BABL5AHUOYC7","3FVBZG9CLJ0K37PD5L6161S4HTM0HN","","null","<img src=""img/food6.png"" style=""width:200px; border:14px solid green;"">","null","","","","","","","","","",""
"","image-keyboard-response","356","183258","0.0-442.0","39GAF6DQWSMREH39XVW7OQYB2J2V11","A2BABL5AHUOYC7","3FVBZG9CLJ0K37PD5L6161S4HTM0HN","","35.5","img/food5.png","74","37","1","1","3","2","1,0.5,0,1,0.5,0,0.5,0,1","1,0.5,0,1,0.5,0,0.5,0,1","1","false",""
"","html-keyboard-response","357","183564","0.0-443.0","39GAF6DQWSMREH39XVW7OQYB2J2V11","A2BABL5AHUOYC7","3FVBZG9CLJ0K37PD5L6161S4HTM0HN","","null","<img src=""img/food5.png"" style=""width:200px; border:14px solid green;"">","null","","","","","","","","","",""
"","image-keyboard-response","358","183657","0.0-445.0","39GAF6DQWSMREH39XVW7OQYB2J2V11","A2BABL5AHUOYC7","3FVBZG9CLJ0K37PD5L6161S4HTM0HN","","91.5","img/food4.png","74","93.09999999403954","1","1","2","2","1,0.5,0,1,0.5,0,0.5,0,1","1,0.5,0,1,0.5,0,0.5,0,1","1","false",""
"","html-keyboard-response","359","183975","0.0-446.0","39GAF6DQWSMREH39XVW7OQYB2J2V11","A2BABL5AHUOYC7","3FVBZG9CLJ0K37PD5L6161S4HTM0HN","","null","<img src=""img/food4.png"" style=""width:200px; border:14px solid green;"">","null","","","","","","","","","",""
"","image-keyboard-response","360","184048","0.0-448.0","39GAF6DQWSMREH39XVW7OQYB2J2V11","A2BABL5AHUOYC7","3FVBZG9CLJ0K37PD5L6161S4HTM0HN","","71","img/food6.png","74","72.30000001192093","1","1","1","2","1,0.5,0,1,0.5,0,0.5,0,1","1,0.5,0,1,0.5,0,0.5,0,1","1","false",""
"","html-keyboard-response","361","184351","0.0-449.0","39GAF6DQWSMREH39XVW7OQYB2J2V11","A2BABL5AHUOYC7","3FVBZG9CLJ0K37PD5L6161S4HTM0HN","","null","<img src=""img/food6.png"" style=""width:200px; border:14px solid green;"">","null","","","","","","","","","",""
"","image-keyboard-response","362","184411","0.0-451.0","39GAF6DQWSMREH39XVW7OQYB2J2V11","A2BABL5AHUOYC7","3FVBZG9CLJ0K37PD5L6161S4HTM0HN","","57.599999994039536","img/food5.png","75","59.5","2","0","3","2","1,0.5,0,1,0.5,0,0.5,0,1","1,0.5,0,1,0.5,0,0.5,0,1","1","false",""
"","html-keyboard-response","363","184714","0.0-452.0","39GAF6DQWSMREH39XVW7OQYB2J2V11","A2BABL5AHUOYC7","3FVBZG9CLJ0K37PD5L6161S4HTM0HN","","null","<img src=""img/food5.png"" style=""width:200px;border:14px solid red;"">","null","","","","","","","","","",""
"","instructions","364","187063","0.0-454.0","39GAF6DQWSMREH39XVW7OQYB2J2V11","A2BABL5AHUOYC7","3FVBZG9CLJ0K37PD5L6161S4HTM0HN","[{""page_index"":0,""viewing_time"":2347.5}]","2347.800000011921","","","","","","","","","","","",""
"","survey-text","365","192002","0.0-455.0","39GAF6DQWSMREH39XVW7OQYB2J2V11","A2BABL5AHUOYC7","3FVBZG9CLJ0K37PD5L6161S4HTM0HN","","4932.700000017881","","","","","","","","","","","","{""Q0"":""A2BABL5AHUOYC7""}"
