"success","trial_type","trial_index","time_elapsed","internal_node_id","assignmentID","mturkID","hitID","view_history","rt","stimulus","key_press","reactionTime","a","r","s","reward_cond","responses"
"true","fullscreen","0","9722","0.0-0.0","3DIP6YHAPDESN6181QGC3WXXCDQ8EB","A2BK9RMC0NOIH8","3TZDZ3Y0JSSRVQSC3SM97PDQ3Z7196","","","","","","","","","",""
"","instructions","1","60920","0.0-1.0","3DIP6YHAPDESN6181QGC3WXXCDQ8EB","A2BK9RMC0NOIH8","3TZDZ3Y0JSSRVQSC3SM97PDQ3Z7196","[{""page_index"":0,""viewing_time"":16107.79999999702},{""page_index"":1,""viewing_time"":3785.9000000059605},{""page_index"":2,""viewing_time"":1939.9000000059605},{""page_index"":3,""viewing_time"":914.0999999940395},{""page_index"":4,""viewing_time"":5637.9000000059605},{""page_index"":5,""viewing_time"":3058.8999999910593},{""page_index"":6,""viewing_time"":15495.90000000596},{""page_index"":7,""viewing_time"":4256.20000000298}]","51197.10000000894","","","","","","","",""
"","image-keyboard-response","2","61456","0.0-2.0","3DIP6YHAPDESN6181QGC3WXXCDQ8EB","A2BK9RMC0NOIH8","3TZDZ3Y0JSSRVQSC3SM97PDQ3Z7196","","535.9000000059605","img/food8.png","76","536.5","2","0","2","0.8,0.2,0.8,0.2,0.2,0.8,0.2,0.8",""
"","html-keyboard-response","3","61759","0.0-3.0","3DIP6YHAPDESN6181QGC3WXXCDQ8EB","A2BK9RMC0NOIH8","3TZDZ3Y0JSSRVQSC3SM97PDQ3Z7196","","null","<img src=""img/food8.png"" style=""width:200px;border:14px solid red;"">","null","","","","","",""
"","image-keyboard-response","4","61776","0.0-4.0","3DIP6YHAPDESN6181QGC3WXXCDQ8EB","A2BK9RMC0NOIH8","3TZDZ3Y0JSSRVQSC3SM97PDQ3Z7196","","16.099999994039536","img/food3.png","76","16.899999991059303","2","1","4","0.8,0.2,0.8,0.2,0.2,0.8,0.2,0.8",""
"","html-keyboard-response","5","62078","0.0-5.0","3DIP6YHAPDESN6181QGC3WXXCDQ8EB","A2BK9RMC0NOIH8","3TZDZ3Y0JSSRVQSC3SM97PDQ3Z7196","","null","<img src=""img/food3.png"" style=""width:200px; border:14px solid green;"">","null","","","","","",""
"","image-keyboard-response","6","62392","0.0-6.0","3DIP6YHAPDESN6181QGC3WXXCDQ8EB","A2BK9RMC0NOIH8","3TZDZ3Y0JSSRVQSC3SM97PDQ3Z7196","","313.30000001192093","img/food8.png","75","313.8999999910593","1","1","2","0.8,0.2,0.8,0.2,0.2,0.8,0.2,0.8",""
"","html-keyboard-response","7","62694","0.0-7.0","3DIP6YHAPDESN6181QGC3WXXCDQ8EB","A2BK9RMC0NOIH8","3TZDZ3Y0JSSRVQSC3SM97PDQ3Z7196","","null","<img src=""img/food8.png"" style=""width:200px; border:14px solid green;"">","null","","","","","",""
"","image-keyboard-response","8","62968","0.0-8.0","3DIP6YHAPDESN6181QGC3WXXCDQ8EB","A2BK9RMC0NOIH8","3TZDZ3Y0JSSRVQSC3SM97PDQ3Z7196","","273.5","img/food8.png","76","274","2","0","2","0.8,0.2,0.8,0.2,0.2,0.8,0.2,0.8",""
"","html-keyboard-response","9","63271","0.0-9.0","3DIP6YHAPDESN6181QGC3WXXCDQ8EB","A2BK9RMC0NOIH8","3TZDZ3Y0JSSRVQSC3SM97PDQ3Z7196","","null","<img src=""img/food8.png"" style=""width:200px;border:14px solid red;"">","null","","","","","",""
"","image-keyboard-response","10","63278","0.0-10.0","3DIP6YHAPDESN6181QGC3WXXCDQ8EB","A2BK9RMC0NOIH8","3TZDZ3Y0JSSRVQSC3SM97PDQ3Z7196","","5.200000002980232","img/food5.png","75","6.5","1","0","1","0.8,0.2,0.8,0.2,0.2,0.8,0.2,0.8",""
"","html-keyboard-response","11","63580","0.0-11.0","3DIP6YHAPDESN6181QGC3WXXCDQ8EB","A2BK9RMC0NOIH8","3TZDZ3Y0JSSRVQSC3SM97PDQ3Z7196","","null","<img src=""img/food5.png"" style=""width:200px;border:14px solid red;"">","null","","","","","",""
"","image-keyboard-response","12","63585","0.0-12.0","3DIP6YHAPDESN6181QGC3WXXCDQ8EB","A2BK9RMC0NOIH8","3TZDZ3Y0JSSRVQSC3SM97PDQ3Z7196","","3.7999999970197678","img/food5.png","76","4.299999997019768","2","1","1","0.8,0.2,0.8,0.2,0.2,0.8,0.2,0.8",""
"","html-keyboard-response","13","63885","0.0-13.0","3DIP6YHAPDESN6181QGC3WXXCDQ8EB","A2BK9RMC0NOIH8","3TZDZ3Y0JSSRVQSC3SM97PDQ3Z7196","","null","<img src=""img/food5.png"" style=""width:200px; border:14px solid green;"">","null","","","","","",""
"","image-keyboard-response","14","63888","0.0-14.0","3DIP6YHAPDESN6181QGC3WXXCDQ8EB","A2BK9RMC0NOIH8","3TZDZ3Y0JSSRVQSC3SM97PDQ3Z7196","","2.2000000029802322","img/food8.png","76","2.7000000029802322","2","0","2","0.8,0.2,0.8,0.2,0.2,0.8,0.2,0.8",""
"","html-keyboard-response","15","64190","0.0-15.0","3DIP6YHAPDESN6181QGC3WXXCDQ8EB","A2BK9RMC0NOIH8","3TZDZ3Y0JSSRVQSC3SM97PDQ3Z7196","","null","<img src=""img/food8.png"" style=""width:200px;border:14px solid red;"">","null","","","","","",""
"","image-keyboard-response","16","64200","0.0-16.0","3DIP6YHAPDESN6181QGC3WXXCDQ8EB","A2BK9RMC0NOIH8","3TZDZ3Y0JSSRVQSC3SM97PDQ3Z7196","","10","img/food8.png","76","10.5","2","0","2","0.8,0.2,0.8,0.2,0.2,0.8,0.2,0.8",""
"","html-keyboard-response","17","64502","0.0-17.0","3DIP6YHAPDESN6181QGC3WXXCDQ8EB","A2BK9RMC0NOIH8","3TZDZ3Y0JSSRVQSC3SM97PDQ3Z7196","","null","<img src=""img/food8.png"" style=""width:200px;border:14px solid red;"">","null","","","","","",""
"","image-keyboard-response","18","64816","0.0-18.0","3DIP6YHAPDESN6181QGC3WXXCDQ8EB","A2BK9RMC0NOIH8","3TZDZ3Y0JSSRVQSC3SM97PDQ3Z7196","","314.20000000298023","img/food1.png","75","314.59999999403954","1","0","3","0.8,0.2,0.8,0.2,0.2,0.8,0.2,0.8",""
"","html-keyboard-response","19","65118","0.0-19.0","3DIP6YHAPDESN6181QGC3WXXCDQ8EB","A2BK9RMC0NOIH8","3TZDZ3Y0JSSRVQSC3SM97PDQ3Z7196","","null","<img src=""img/food1.png"" style=""width:200px;border:14px solid red;"">","null","","","","","",""
"","image-keyboard-response","20","65392","0.0-20.0","3DIP6YHAPDESN6181QGC3WXXCDQ8EB","A2BK9RMC0NOIH8","3TZDZ3Y0JSSRVQSC3SM97PDQ3Z7196","","273.6000000089407","img/food1.png","75","274.09999999403954","1","0","3","0.8,0.2,0.8,0.2,0.2,0.8,0.2,0.8",""
"","html-keyboard-response","21","65693","0.0-21.0","3DIP6YHAPDESN6181QGC3WXXCDQ8EB","A2BK9RMC0NOIH8","3TZDZ3Y0JSSRVQSC3SM97PDQ3Z7196","","null","<img src=""img/food1.png"" style=""width:200px;border:14px solid red;"">","null","","","","","",""
"","image-keyboard-response","22","66040","0.0-22.0","3DIP6YHAPDESN6181QGC3WXXCDQ8EB","A2BK9RMC0NOIH8","3TZDZ3Y0JSSRVQSC3SM97PDQ3Z7196","","346.79999999701977","img/food3.png","76","347.40000000596046","2","1","4","0.8,0.2,0.8,0.2,0.2,0.8,0.2,0.8",""
"","html-keyboard-response","23","66342","0.0-23.0","3DIP6YHAPDESN6181QGC3WXXCDQ8EB","A2BK9RMC0NOIH8","3TZDZ3Y0JSSRVQSC3SM97PDQ3Z7196","","null","<img src=""img/food3.png"" style=""width:200px; border:14px solid green;"">","null","","","","","",""
"","image-keyboard-response","24","66608","0.0-24.0","3DIP6YHAPDESN6181QGC3WXXCDQ8EB","A2BK9RMC0NOIH8","3TZDZ3Y0JSSRVQSC3SM97PDQ3Z7196","","265.79999999701977","img/food1.png","76","266.29999999701977","2","1","3","0.8,0.2,0.8,0.2,0.2,0.8,0.2,0.8",""
"","html-keyboard-response","25","66910","0.0-25.0","3DIP6YHAPDESN6181QGC3WXXCDQ8EB","A2BK9RMC0NOIH8","3TZDZ3Y0JSSRVQSC3SM97PDQ3Z7196","","null","<img src=""img/food1.png"" style=""width:200px; border:14px solid green;"">","null","","","","","",""
"","image-keyboard-response","26","66960","0.0-26.0","3DIP6YHAPDESN6181QGC3WXXCDQ8EB","A2BK9RMC0NOIH8","3TZDZ3Y0JSSRVQSC3SM97PDQ3Z7196","","49.5","img/food5.png","75","50.1000000089407","1","1","1","0.8,0.2,0.8,0.2,0.2,0.8,0.2,0.8",""
"","html-keyboard-response","27","67262","0.0-27.0","3DIP6YHAPDESN6181QGC3WXXCDQ8EB","A2BK9RMC0NOIH8","3TZDZ3Y0JSSRVQSC3SM97PDQ3Z7196","","null","<img src=""img/food5.png"" style=""width:200px; border:14px solid green;"">","null","","","","","",""
"","image-keyboard-response","28","67264","0.0-28.0","3DIP6YHAPDESN6181QGC3WXXCDQ8EB","A2BK9RMC0NOIH8","3TZDZ3Y0JSSRVQSC3SM97PDQ3Z7196","","1.4000000059604645","img/food3.png","76","2","2","1","4","0.8,0.2,0.8,0.2,0.2,0.8,0.2,0.8",""
"","html-keyboard-response","29","67566","0.0-29.0","3DIP6YHAPDESN6181QGC3WXXCDQ8EB","A2BK9RMC0NOIH8","3TZDZ3Y0JSSRVQSC3SM97PDQ3Z7196","","null","<img src=""img/food3.png"" style=""width:200px; border:14px solid green;"">","null","","","","","",""
"","image-keyboard-response","30","67592","0.0-30.0","3DIP6YHAPDESN6181QGC3WXXCDQ8EB","A2BK9RMC0NOIH8","3TZDZ3Y0JSSRVQSC3SM97PDQ3Z7196","","25.600000008940697","img/food1.png","75","26","1","1","3","0.8,0.2,0.8,0.2,0.2,0.8,0.2,0.8",""
"","html-keyboard-response","31","67894","0.0-31.0","3DIP6YHAPDESN6181QGC3WXXCDQ8EB","A2BK9RMC0NOIH8","3TZDZ3Y0JSSRVQSC3SM97PDQ3Z7196","","null","<img src=""img/food1.png"" style=""width:200px; border:14px solid green;"">","null","","","","","",""
"","image-keyboard-response","32","67896","0.0-32.0","3DIP6YHAPDESN6181QGC3WXXCDQ8EB","A2BK9RMC0NOIH8","3TZDZ3Y0JSSRVQSC3SM97PDQ3Z7196","","1.8999999910593033","img/food1.png","76","2.300000011920929","2","1","3","0.8,0.2,0.8,0.2,0.2,0.8,0.2,0.8",""
"","html-keyboard-response","33","68198","0.0-33.0","3DIP6YHAPDESN6181QGC3WXXCDQ8EB","A2BK9RMC0NOIH8","3TZDZ3Y0JSSRVQSC3SM97PDQ3Z7196","","null","<img src=""img/food1.png"" style=""width:200px; border:14px solid green;"">","null","","","","","",""
"","image-keyboard-response","34","68200","0.0-34.0","3DIP6YHAPDESN6181QGC3WXXCDQ8EB","A2BK9RMC0NOIH8","3TZDZ3Y0JSSRVQSC3SM97PDQ3Z7196","","1.8999999910593033","img/food3.png","76","2.5","2","0","4","0.8,0.2,0.8,0.2,0.2,0.8,0.2,0.8",""
"","html-keyboard-response","35","68502","0.0-35.0","3DIP6YHAPDESN6181QGC3WXXCDQ8EB","A2BK9RMC0NOIH8","3TZDZ3Y0JSSRVQSC3SM97PDQ3Z7196","","null","<img src=""img/food3.png"" style=""width:200px;border:14px solid red;"">","null","","","","","",""
"","image-keyboard-response","36","68536","0.0-36.0","3DIP6YHAPDESN6181QGC3WXXCDQ8EB","A2BK9RMC0NOIH8","3TZDZ3Y0JSSRVQSC3SM97PDQ3Z7196","","33.29999999701977","img/food1.png","75","33.6000000089407","1","0","3","0.8,0.2,0.8,0.2,0.2,0.8,0.2,0.8",""
"","html-keyboard-response","37","68837","0.0-37.0","3DIP6YHAPDESN6181QGC3WXXCDQ8EB","A2BK9RMC0NOIH8","3TZDZ3Y0JSSRVQSC3SM97PDQ3Z7196","","null","<img src=""img/food1.png"" style=""width:200px;border:14px solid red;"">","null","","","","","",""
"","image-keyboard-response","38","68848","0.0-38.0","3DIP6YHAPDESN6181QGC3WXXCDQ8EB","A2BK9RMC0NOIH8","3TZDZ3Y0JSSRVQSC3SM97PDQ3Z7196","","10.599999994039536","img/food5.png","75","11","1","1","1","0.8,0.2,0.8,0.2,0.2,0.8,0.2,0.8",""
"","html-keyboard-response","39","69150","0.0-39.0","3DIP6YHAPDESN6181QGC3WXXCDQ8EB","A2BK9RMC0NOIH8","3TZDZ3Y0JSSRVQSC3SM97PDQ3Z7196","","null","<img src=""img/food5.png"" style=""width:200px; border:14px solid green;"">","null","","","","","",""
"","image-keyboard-response","40","69209","0.0-40.0","3DIP6YHAPDESN6181QGC3WXXCDQ8EB","A2BK9RMC0NOIH8","3TZDZ3Y0JSSRVQSC3SM97PDQ3Z7196","","58.70000000298023","img/food1.png","76","59.099999994039536","2","0","3","0.8,0.2,0.8,0.2,0.2,0.8,0.2,0.8",""
"","html-keyboard-response","41","69510","0.0-41.0","3DIP6YHAPDESN6181QGC3WXXCDQ8EB","A2BK9RMC0NOIH8","3TZDZ3Y0JSSRVQSC3SM97PDQ3Z7196","","null","<img src=""img/food1.png"" style=""width:200px;border:14px solid red;"">","null","","","","","",""
"","image-keyboard-response","42","69544","0.0-42.0","3DIP6YHAPDESN6181QGC3WXXCDQ8EB","A2BK9RMC0NOIH8","3TZDZ3Y0JSSRVQSC3SM97PDQ3Z7196","","33.5","img/food1.png","76","34","2","0","3","0.8,0.2,0.8,0.2,0.2,0.8,0.2,0.8",""
"","html-keyboard-response","43","69846","0.0-43.0","3DIP6YHAPDESN6181QGC3WXXCDQ8EB","A2BK9RMC0NOIH8","3TZDZ3Y0JSSRVQSC3SM97PDQ3Z7196","","null","<img src=""img/food1.png"" style=""width:200px;border:14px solid red;"">","null","","","","","",""
"","image-keyboard-response","44","70176","0.0-44.0","3DIP6YHAPDESN6181QGC3WXXCDQ8EB","A2BK9RMC0NOIH8","3TZDZ3Y0JSSRVQSC3SM97PDQ3Z7196","","330.1000000089407","img/food5.png","75","330.40000000596046","1","1","1","0.8,0.2,0.8,0.2,0.2,0.8,0.2,0.8",""
"","html-keyboard-response","45","70477","0.0-45.0","3DIP6YHAPDESN6181QGC3WXXCDQ8EB","A2BK9RMC0NOIH8","3TZDZ3Y0JSSRVQSC3SM97PDQ3Z7196","","null","<img src=""img/food5.png"" style=""width:200px; border:14px solid green;"">","null","","","","","",""
"","image-keyboard-response","46","70800","0.0-46.0","3DIP6YHAPDESN6181QGC3WXXCDQ8EB","A2BK9RMC0NOIH8","3TZDZ3Y0JSSRVQSC3SM97PDQ3Z7196","","322.5","img/food5.png","76","322.90000000596046","2","0","1","0.8,0.2,0.8,0.2,0.2,0.8,0.2,0.8",""
"","html-keyboard-response","47","71102","0.0-47.0","3DIP6YHAPDESN6181QGC3WXXCDQ8EB","A2BK9RMC0NOIH8","3TZDZ3Y0JSSRVQSC3SM97PDQ3Z7196","","null","<img src=""img/food5.png"" style=""width:200px;border:14px solid red;"">","null","","","","","",""
"","image-keyboard-response","48","71120","0.0-48.0","3DIP6YHAPDESN6181QGC3WXXCDQ8EB","A2BK9RMC0NOIH8","3TZDZ3Y0JSSRVQSC3SM97PDQ3Z7196","","17.80000001192093","img/food3.png","75","18.299999997019768","1","1","4","0.8,0.2,0.8,0.2,0.2,0.8,0.2,0.8",""
"","html-keyboard-response","49","71422","0.0-49.0","3DIP6YHAPDESN6181QGC3WXXCDQ8EB","A2BK9RMC0NOIH8","3TZDZ3Y0JSSRVQSC3SM97PDQ3Z7196","","null","<img src=""img/food3.png"" style=""width:200px; border:14px solid green;"">","null","","","","","",""
"","image-keyboard-response","50","71744","0.0-50.0","3DIP6YHAPDESN6181QGC3WXXCDQ8EB","A2BK9RMC0NOIH8","3TZDZ3Y0JSSRVQSC3SM97PDQ3Z7196","","321.70000000298023","img/food3.png","76","322.20000000298023","2","1","4","0.8,0.2,0.8,0.2,0.2,0.8,0.2,0.8",""
"","html-keyboard-response","51","72047","0.0-51.0","3DIP6YHAPDESN6181QGC3WXXCDQ8EB","A2BK9RMC0NOIH8","3TZDZ3Y0JSSRVQSC3SM97PDQ3Z7196","","null","<img src=""img/food3.png"" style=""width:200px; border:14px solid green;"">","null","","","","","",""
"","image-keyboard-response","52","72048","0.0-52.0","3DIP6YHAPDESN6181QGC3WXXCDQ8EB","A2BK9RMC0NOIH8","3TZDZ3Y0JSSRVQSC3SM97PDQ3Z7196","","1","img/food3.png","75","1.4000000059604645","1","0","4","0.8,0.2,0.8,0.2,0.2,0.8,0.2,0.8",""
"","html-keyboard-response","53","72350","0.0-53.0","3DIP6YHAPDESN6181QGC3WXXCDQ8EB","A2BK9RMC0NOIH8","3TZDZ3Y0JSSRVQSC3SM97PDQ3Z7196","","null","<img src=""img/food3.png"" style=""width:200px;border:14px solid red;"">","null","","","","","",""
"","image-keyboard-response","54","72384","0.0-54.0","3DIP6YHAPDESN6181QGC3WXXCDQ8EB","A2BK9RMC0NOIH8","3TZDZ3Y0JSSRVQSC3SM97PDQ3Z7196","","33.6000000089407","img/food8.png","76","34.5","2","0","2","0.8,0.2,0.8,0.2,0.2,0.8,0.2,0.8",""
"","html-keyboard-response","55","72686","0.0-55.0","3DIP6YHAPDESN6181QGC3WXXCDQ8EB","A2BK9RMC0NOIH8","3TZDZ3Y0JSSRVQSC3SM97PDQ3Z7196","","null","<img src=""img/food8.png"" style=""width:200px;border:14px solid red;"">","null","","","","","",""
"","image-keyboard-response","56","72784","0.0-56.0","3DIP6YHAPDESN6181QGC3WXXCDQ8EB","A2BK9RMC0NOIH8","3TZDZ3Y0JSSRVQSC3SM97PDQ3Z7196","","97.70000000298023","img/food8.png","76","98.19999998807907","2","1","2","0.8,0.2,0.8,0.2,0.2,0.8,0.2,0.8",""
"","html-keyboard-response","57","73086","0.0-57.0","3DIP6YHAPDESN6181QGC3WXXCDQ8EB","A2BK9RMC0NOIH8","3TZDZ3Y0JSSRVQSC3SM97PDQ3Z7196","","null","<img src=""img/food8.png"" style=""width:200px; border:14px solid green;"">","null","","","","","",""
"","image-keyboard-response","58","73216","0.0-58.0","3DIP6YHAPDESN6181QGC3WXXCDQ8EB","A2BK9RMC0NOIH8","3TZDZ3Y0JSSRVQSC3SM97PDQ3Z7196","","129.80000001192093","img/food3.png","76","130.09999999403954","2","1","4","0.8,0.2,0.8,0.2,0.2,0.8,0.2,0.8",""
"","html-keyboard-response","59","73517","0.0-59.0","3DIP6YHAPDESN6181QGC3WXXCDQ8EB","A2BK9RMC0NOIH8","3TZDZ3Y0JSSRVQSC3SM97PDQ3Z7196","","null","<img src=""img/food3.png"" style=""width:200px; border:14px solid green;"">","null","","","","","",""
"","image-keyboard-response","60","73634","0.0-60.0","3DIP6YHAPDESN6181QGC3WXXCDQ8EB","A2BK9RMC0NOIH8","3TZDZ3Y0JSSRVQSC3SM97PDQ3Z7196","","115.70000000298023","img/food3.png","75","116.40000000596046","1","0","4","0.8,0.2,0.8,0.2,0.2,0.8,0.2,0.8",""
"","html-keyboard-response","61","73935","0.0-61.0","3DIP6YHAPDESN6181QGC3WXXCDQ8EB","A2BK9RMC0NOIH8","3TZDZ3Y0JSSRVQSC3SM97PDQ3Z7196","","null","<img src=""img/food3.png"" style=""width:200px;border:14px solid red;"">","null","","","","","",""
"","image-keyboard-response","62","74008","0.0-62.0","3DIP6YHAPDESN6181QGC3WXXCDQ8EB","A2BK9RMC0NOIH8","3TZDZ3Y0JSSRVQSC3SM97PDQ3Z7196","","72.59999999403954","img/food8.png","75","73.09999999403954","1","1","2","0.8,0.2,0.8,0.2,0.2,0.8,0.2,0.8",""
"","html-keyboard-response","63","74310","0.0-63.0","3DIP6YHAPDESN6181QGC3WXXCDQ8EB","A2BK9RMC0NOIH8","3TZDZ3Y0JSSRVQSC3SM97PDQ3Z7196","","null","<img src=""img/food8.png"" style=""width:200px; border:14px solid green;"">","null","","","","","",""
"","image-keyboard-response","64","74392","0.0-64.0","3DIP6YHAPDESN6181QGC3WXXCDQ8EB","A2BK9RMC0NOIH8","3TZDZ3Y0JSSRVQSC3SM97PDQ3Z7196","","82","img/food8.png","75","82.70000000298023","1","1","2","0.8,0.2,0.8,0.2,0.2,0.8,0.2,0.8",""
"","html-keyboard-response","65","74693","0.0-65.0","3DIP6YHAPDESN6181QGC3WXXCDQ8EB","A2BK9RMC0NOIH8","3TZDZ3Y0JSSRVQSC3SM97PDQ3Z7196","","null","<img src=""img/food8.png"" style=""width:200px; border:14px solid green;"">","null","","","","","",""
"","image-keyboard-response","66","74776","0.0-66.0","3DIP6YHAPDESN6181QGC3WXXCDQ8EB","A2BK9RMC0NOIH8","3TZDZ3Y0JSSRVQSC3SM97PDQ3Z7196","","82.70000000298023","img/food8.png","76","83.09999999403954","2","0","2","0.8,0.2,0.8,0.2,0.2,0.8,0.2,0.8",""
"","html-keyboard-response","67","75078","0.0-67.0","3DIP6YHAPDESN6181QGC3WXXCDQ8EB","A2BK9RMC0NOIH8","3TZDZ3Y0JSSRVQSC3SM97PDQ3Z7196","","null","<img src=""img/food8.png"" style=""width:200px;border:14px solid red;"">","null","","","","","",""
"","image-keyboard-response","68","75160","0.0-68.0","3DIP6YHAPDESN6181QGC3WXXCDQ8EB","A2BK9RMC0NOIH8","3TZDZ3Y0JSSRVQSC3SM97PDQ3Z7196","","81.5","img/food5.png","75","82","1","1","1","0.8,0.2,0.8,0.2,0.2,0.8,0.2,0.8",""
"","html-keyboard-response","69","75461","0.0-69.0","3DIP6YHAPDESN6181QGC3WXXCDQ8EB","A2BK9RMC0NOIH8","3TZDZ3Y0JSSRVQSC3SM97PDQ3Z7196","","null","<img src=""img/food5.png"" style=""width:200px; border:14px solid green;"">","null","","","","","",""
"","image-keyboard-response","70","75608","0.0-70.0","3DIP6YHAPDESN6181QGC3WXXCDQ8EB","A2BK9RMC0NOIH8","3TZDZ3Y0JSSRVQSC3SM97PDQ3Z7196","","146.69999998807907","img/food5.png","76","147.1000000089407","2","0","1","0.8,0.2,0.8,0.2,0.2,0.8,0.2,0.8",""
"","html-keyboard-response","71","75911","0.0-71.0","3DIP6YHAPDESN6181QGC3WXXCDQ8EB","A2BK9RMC0NOIH8","3TZDZ3Y0JSSRVQSC3SM97PDQ3Z7196","","null","<img src=""img/food5.png"" style=""width:200px;border:14px solid red;"">","null","","","","","",""
"","image-keyboard-response","72","76048","0.0-72.0","3DIP6YHAPDESN6181QGC3WXXCDQ8EB","A2BK9RMC0NOIH8","3TZDZ3Y0JSSRVQSC3SM97PDQ3Z7196","","136.90000000596046","img/food5.png","75","137.30000001192093","1","1","1","0.8,0.2,0.8,0.2,0.2,0.8,0.2,0.8",""
"","html-keyboard-response","73","76349","0.0-73.0","3DIP6YHAPDESN6181QGC3WXXCDQ8EB","A2BK9RMC0NOIH8","3TZDZ3Y0JSSRVQSC3SM97PDQ3Z7196","","null","<img src=""img/food5.png"" style=""width:200px; border:14px solid green;"">","null","","","","","",""
"","image-keyboard-response","74","76416","0.0-74.0","3DIP6YHAPDESN6181QGC3WXXCDQ8EB","A2BK9RMC0NOIH8","3TZDZ3Y0JSSRVQSC3SM97PDQ3Z7196","","66.1000000089407","img/food1.png","75","66.59999999403954","1","0","3","0.8,0.2,0.8,0.2,0.2,0.8,0.2,0.8",""
"","html-keyboard-response","75","76718","0.0-75.0","3DIP6YHAPDESN6181QGC3WXXCDQ8EB","A2BK9RMC0NOIH8","3TZDZ3Y0JSSRVQSC3SM97PDQ3Z7196","","null","<img src=""img/food1.png"" style=""width:200px;border:14px solid red;"">","null","","","","","",""
"","image-keyboard-response","76","76792","0.0-76.0","3DIP6YHAPDESN6181QGC3WXXCDQ8EB","A2BK9RMC0NOIH8","3TZDZ3Y0JSSRVQSC3SM97PDQ3Z7196","","73.90000000596046","img/food3.png","75","74.20000000298023","1","0","4","0.8,0.2,0.8,0.2,0.2,0.8,0.2,0.8",""
"","html-keyboard-response","77","77094","0.0-77.0","3DIP6YHAPDESN6181QGC3WXXCDQ8EB","A2BK9RMC0NOIH8","3TZDZ3Y0JSSRVQSC3SM97PDQ3Z7196","","null","<img src=""img/food3.png"" style=""width:200px;border:14px solid red;"">","null","","","","","",""
"","image-keyboard-response","78","77217","0.0-78.0","3DIP6YHAPDESN6181QGC3WXXCDQ8EB","A2BK9RMC0NOIH8","3TZDZ3Y0JSSRVQSC3SM97PDQ3Z7196","","122.09999999403954","img/food8.png","76","122.70000000298023","2","0","2","0.8,0.2,0.8,0.2,0.2,0.8,0.2,0.8",""
"","html-keyboard-response","79","77522","0.0-79.0","3DIP6YHAPDESN6181QGC3WXXCDQ8EB","A2BK9RMC0NOIH8","3TZDZ3Y0JSSRVQSC3SM97PDQ3Z7196","","null","<img src=""img/food8.png"" style=""width:200px;border:14px solid red;"">","null","","","","","",""
"","image-keyboard-response","80","77609","0.0-80.0","3DIP6YHAPDESN6181QGC3WXXCDQ8EB","A2BK9RMC0NOIH8","3TZDZ3Y0JSSRVQSC3SM97PDQ3Z7196","","85.5","img/food5.png","76","86.70000000298023","2","1","1","0.8,0.2,0.8,0.2,0.2,0.8,0.2,0.8",""
"","html-keyboard-response","81","77910","0.0-81.0","3DIP6YHAPDESN6181QGC3WXXCDQ8EB","A2BK9RMC0NOIH8","3TZDZ3Y0JSSRVQSC3SM97PDQ3Z7196","","null","<img src=""img/food5.png"" style=""width:200px; border:14px solid green;"">","null","","","","","",""
"","image-keyboard-response","82","78016","0.0-82.0","3DIP6YHAPDESN6181QGC3WXXCDQ8EB","A2BK9RMC0NOIH8","3TZDZ3Y0JSSRVQSC3SM97PDQ3Z7196","","105.90000000596046","img/food3.png","75","106.5","1","0","4","0.8,0.2,0.8,0.2,0.2,0.8,0.2,0.8",""
"","html-keyboard-response","83","78319","0.0-83.0","3DIP6YHAPDESN6181QGC3WXXCDQ8EB","A2BK9RMC0NOIH8","3TZDZ3Y0JSSRVQSC3SM97PDQ3Z7196","","null","<img src=""img/food3.png"" style=""width:200px;border:14px solid red;"">","null","","","","","",""
"","image-keyboard-response","84","78392","0.0-84.0","3DIP6YHAPDESN6181QGC3WXXCDQ8EB","A2BK9RMC0NOIH8","3TZDZ3Y0JSSRVQSC3SM97PDQ3Z7196","","73.1000000089407","img/food5.png","75","73.59999999403954","1","1","1","0.8,0.2,0.8,0.2,0.2,0.8,0.2,0.8",""
"","html-keyboard-response","85","78694","0.0-85.0","3DIP6YHAPDESN6181QGC3WXXCDQ8EB","A2BK9RMC0NOIH8","3TZDZ3Y0JSSRVQSC3SM97PDQ3Z7196","","null","<img src=""img/food5.png"" style=""width:200px; border:14px solid green;"">","null","","","","","",""
"","image-keyboard-response","86","78769","0.0-86.0","3DIP6YHAPDESN6181QGC3WXXCDQ8EB","A2BK9RMC0NOIH8","3TZDZ3Y0JSSRVQSC3SM97PDQ3Z7196","","73.6000000089407","img/food5.png","75","73.8999999910593","1","1","1","0.8,0.2,0.8,0.2,0.2,0.8,0.2,0.8",""
"","html-keyboard-response","87","79071","0.0-87.0","3DIP6YHAPDESN6181QGC3WXXCDQ8EB","A2BK9RMC0NOIH8","3TZDZ3Y0JSSRVQSC3SM97PDQ3Z7196","","null","<img src=""img/food5.png"" style=""width:200px; border:14px solid green;"">","null","","","","","",""
"","image-keyboard-response","88","79200","0.0-88.0","3DIP6YHAPDESN6181QGC3WXXCDQ8EB","A2BK9RMC0NOIH8","3TZDZ3Y0JSSRVQSC3SM97PDQ3Z7196","","129.1000000089407","img/food8.png","76","129.59999999403954","2","0","2","0.8,0.2,0.8,0.2,0.2,0.8,0.2,0.8",""
"","html-keyboard-response","89","79501","0.0-89.0","3DIP6YHAPDESN6181QGC3WXXCDQ8EB","A2BK9RMC0NOIH8","3TZDZ3Y0JSSRVQSC3SM97PDQ3Z7196","","null","<img src=""img/food8.png"" style=""width:200px;border:14px solid red;"">","null","","","","","",""
"","image-keyboard-response","90","79544","0.0-90.0","3DIP6YHAPDESN6181QGC3WXXCDQ8EB","A2BK9RMC0NOIH8","3TZDZ3Y0JSSRVQSC3SM97PDQ3Z7196","","42.5","img/food3.png","75","42.79999999701977","1","0","4","0.8,0.2,0.8,0.2,0.2,0.8,0.2,0.8",""
"","html-keyboard-response","91","79845","0.0-91.0","3DIP6YHAPDESN6181QGC3WXXCDQ8EB","A2BK9RMC0NOIH8","3TZDZ3Y0JSSRVQSC3SM97PDQ3Z7196","","null","<img src=""img/food3.png"" style=""width:200px;border:14px solid red;"">","null","","","","","",""
"","image-keyboard-response","92","79960","0.0-92.0","3DIP6YHAPDESN6181QGC3WXXCDQ8EB","A2BK9RMC0NOIH8","3TZDZ3Y0JSSRVQSC3SM97PDQ3Z7196","","114.90000000596046","img/food3.png","76","115.5","2","1","4","0.8,0.2,0.8,0.2,0.2,0.8,0.2,0.8",""
"","html-keyboard-response","93","80263","0.0-93.0","3DIP6YHAPDESN6181QGC3WXXCDQ8EB","A2BK9RMC0NOIH8","3TZDZ3Y0JSSRVQSC3SM97PDQ3Z7196","","null","<img src=""img/food3.png"" style=""width:200px; border:14px solid green;"">","null","","","","","",""
"","image-keyboard-response","94","80392","0.0-94.0","3DIP6YHAPDESN6181QGC3WXXCDQ8EB","A2BK9RMC0NOIH8","3TZDZ3Y0JSSRVQSC3SM97PDQ3Z7196","","129","img/food3.png","76","129.59999999403954","2","1","4","0.8,0.2,0.8,0.2,0.2,0.8,0.2,0.8",""
"","html-keyboard-response","95","80694","0.0-95.0","3DIP6YHAPDESN6181QGC3WXXCDQ8EB","A2BK9RMC0NOIH8","3TZDZ3Y0JSSRVQSC3SM97PDQ3Z7196","","null","<img src=""img/food3.png"" style=""width:200px; border:14px solid green;"">","null","","","","","",""
"","image-keyboard-response","96","80816","0.0-96.0","3DIP6YHAPDESN6181QGC3WXXCDQ8EB","A2BK9RMC0NOIH8","3TZDZ3Y0JSSRVQSC3SM97PDQ3Z7196","","121.40000000596046","img/food3.png","75","121.70000000298023","1","0","4","0.8,0.2,0.8,0.2,0.2,0.8,0.2,0.8",""
"","html-keyboard-response","97","81118","0.0-97.0","3DIP6YHAPDESN6181QGC3WXXCDQ8EB","A2BK9RMC0NOIH8","3TZDZ3Y0JSSRVQSC3SM97PDQ3Z7196","","null","<img src=""img/food3.png"" style=""width:200px;border:14px solid red;"">","null","","","","","",""
"","image-keyboard-response","98","81200","0.0-98.0","3DIP6YHAPDESN6181QGC3WXXCDQ8EB","A2BK9RMC0NOIH8","3TZDZ3Y0JSSRVQSC3SM97PDQ3Z7196","","81.6000000089407","img/food5.png","76","82.09999999403954","2","1","1","0.8,0.2,0.8,0.2,0.2,0.8,0.2,0.8",""
"","html-keyboard-response","99","81502","0.0-99.0","3DIP6YHAPDESN6181QGC3WXXCDQ8EB","A2BK9RMC0NOIH8","3TZDZ3Y0JSSRVQSC3SM97PDQ3Z7196","","null","<img src=""img/food5.png"" style=""width:200px; border:14px solid green;"">","null","","","","","",""
"","image-keyboard-response","100","81592","0.0-100.0","3DIP6YHAPDESN6181QGC3WXXCDQ8EB","A2BK9RMC0NOIH8","3TZDZ3Y0JSSRVQSC3SM97PDQ3Z7196","","90.1000000089407","img/food1.png","75","90.5","1","0","3","0.8,0.2,0.8,0.2,0.2,0.8,0.2,0.8",""
"","html-keyboard-response","101","81894","0.0-101.0","3DIP6YHAPDESN6181QGC3WXXCDQ8EB","A2BK9RMC0NOIH8","3TZDZ3Y0JSSRVQSC3SM97PDQ3Z7196","","null","<img src=""img/food1.png"" style=""width:200px;border:14px solid red;"">","null","","","","","",""
"","image-keyboard-response","102","82009","0.0-102.0","3DIP6YHAPDESN6181QGC3WXXCDQ8EB","A2BK9RMC0NOIH8","3TZDZ3Y0JSSRVQSC3SM97PDQ3Z7196","","113.79999999701977","img/food3.png","76","114.30000001192093","2","1","4","0.8,0.2,0.8,0.2,0.2,0.8,0.2,0.8",""
"","html-keyboard-response","103","82311","0.0-103.0","3DIP6YHAPDESN6181QGC3WXXCDQ8EB","A2BK9RMC0NOIH8","3TZDZ3Y0JSSRVQSC3SM97PDQ3Z7196","","null","<img src=""img/food3.png"" style=""width:200px; border:14px solid green;"">","null","","","","","",""
"","image-keyboard-response","104","82408","0.0-104.0","3DIP6YHAPDESN6181QGC3WXXCDQ8EB","A2BK9RMC0NOIH8","3TZDZ3Y0JSSRVQSC3SM97PDQ3Z7196","","96.6000000089407","img/food1.png","75","97.19999998807907","1","0","3","0.8,0.2,0.8,0.2,0.2,0.8,0.2,0.8",""
"","html-keyboard-response","105","82710","0.0-105.0","3DIP6YHAPDESN6181QGC3WXXCDQ8EB","A2BK9RMC0NOIH8","3TZDZ3Y0JSSRVQSC3SM97PDQ3Z7196","","null","<img src=""img/food1.png"" style=""width:200px;border:14px solid red;"">","null","","","","","",""
"","image-keyboard-response","106","82808","0.0-106.0","3DIP6YHAPDESN6181QGC3WXXCDQ8EB","A2BK9RMC0NOIH8","3TZDZ3Y0JSSRVQSC3SM97PDQ3Z7196","","97.70000000298023","img/food8.png","75","98.09999999403954","1","1","2","0.8,0.2,0.8,0.2,0.2,0.8,0.2,0.8",""
"","html-keyboard-response","107","83110","0.0-107.0","3DIP6YHAPDESN6181QGC3WXXCDQ8EB","A2BK9RMC0NOIH8","3TZDZ3Y0JSSRVQSC3SM97PDQ3Z7196","","null","<img src=""img/food8.png"" style=""width:200px; border:14px solid green;"">","null","","","","","",""
"","image-keyboard-response","108","83200","0.0-108.0","3DIP6YHAPDESN6181QGC3WXXCDQ8EB","A2BK9RMC0NOIH8","3TZDZ3Y0JSSRVQSC3SM97PDQ3Z7196","","90","img/food5.png","76","90.29999999701977","2","0","1","0.8,0.2,0.8,0.2,0.2,0.8,0.2,0.8",""
"","html-keyboard-response","109","83508","0.0-109.0","3DIP6YHAPDESN6181QGC3WXXCDQ8EB","A2BK9RMC0NOIH8","3TZDZ3Y0JSSRVQSC3SM97PDQ3Z7196","","null","<img src=""img/food5.png"" style=""width:200px;border:14px solid red;"">","null","","","","","",""
"","image-keyboard-response","110","83616","0.0-110.0","3DIP6YHAPDESN6181QGC3WXXCDQ8EB","A2BK9RMC0NOIH8","3TZDZ3Y0JSSRVQSC3SM97PDQ3Z7196","","107.6000000089407","img/food5.png","76","108","2","0","1","0.8,0.2,0.8,0.2,0.2,0.8,0.2,0.8",""
"","html-keyboard-response","111","83918","0.0-111.0","3DIP6YHAPDESN6181QGC3WXXCDQ8EB","A2BK9RMC0NOIH8","3TZDZ3Y0JSSRVQSC3SM97PDQ3Z7196","","null","<img src=""img/food5.png"" style=""width:200px;border:14px solid red;"">","null","","","","","",""
"","image-keyboard-response","112","84025","0.0-112.0","3DIP6YHAPDESN6181QGC3WXXCDQ8EB","A2BK9RMC0NOIH8","3TZDZ3Y0JSSRVQSC3SM97PDQ3Z7196","","106.69999998807907","img/food5.png","76","107","2","0","1","0.8,0.2,0.8,0.2,0.2,0.8,0.2,0.8",""
"","html-keyboard-response","113","84327","0.0-113.0","3DIP6YHAPDESN6181QGC3WXXCDQ8EB","A2BK9RMC0NOIH8","3TZDZ3Y0JSSRVQSC3SM97PDQ3Z7196","","null","<img src=""img/food5.png"" style=""width:200px;border:14px solid red;"">","null","","","","","",""
"","image-keyboard-response","114","84408","0.0-114.0","3DIP6YHAPDESN6181QGC3WXXCDQ8EB","A2BK9RMC0NOIH8","3TZDZ3Y0JSSRVQSC3SM97PDQ3Z7196","","80.80000001192093","img/food1.png","75","81.3999999910593","1","0","3","0.8,0.2,0.8,0.2,0.2,0.8,0.2,0.8",""
"","html-keyboard-response","115","84710","0.0-115.0","3DIP6YHAPDESN6181QGC3WXXCDQ8EB","A2BK9RMC0NOIH8","3TZDZ3Y0JSSRVQSC3SM97PDQ3Z7196","","null","<img src=""img/food1.png"" style=""width:200px;border:14px solid red;"">","null","","","","","",""
"","image-keyboard-response","116","84816","0.0-116.0","3DIP6YHAPDESN6181QGC3WXXCDQ8EB","A2BK9RMC0NOIH8","3TZDZ3Y0JSSRVQSC3SM97PDQ3Z7196","","105.80000001192093","img/food1.png","76","106.20000000298023","2","1","3","0.8,0.2,0.8,0.2,0.2,0.8,0.2,0.8",""
"","html-keyboard-response","117","85117","0.0-117.0","3DIP6YHAPDESN6181QGC3WXXCDQ8EB","A2BK9RMC0NOIH8","3TZDZ3Y0JSSRVQSC3SM97PDQ3Z7196","","null","<img src=""img/food1.png"" style=""width:200px; border:14px solid green;"">","null","","","","","",""
"","image-keyboard-response","118","85216","0.0-118.0","3DIP6YHAPDESN6181QGC3WXXCDQ8EB","A2BK9RMC0NOIH8","3TZDZ3Y0JSSRVQSC3SM97PDQ3Z7196","","98.6000000089407","img/food3.png","75","99.19999998807907","1","1","4","0.8,0.2,0.8,0.2,0.2,0.8,0.2,0.8",""
"","html-keyboard-response","119","85518","0.0-119.0","3DIP6YHAPDESN6181QGC3WXXCDQ8EB","A2BK9RMC0NOIH8","3TZDZ3Y0JSSRVQSC3SM97PDQ3Z7196","","null","<img src=""img/food3.png"" style=""width:200px; border:14px solid green;"">","null","","","","","",""
"","image-keyboard-response","120","85616","0.0-120.0","3DIP6YHAPDESN6181QGC3WXXCDQ8EB","A2BK9RMC0NOIH8","3TZDZ3Y0JSSRVQSC3SM97PDQ3Z7196","","97.40000000596046","img/food1.png","76","97.79999999701977","2","1","3","0.8,0.2,0.8,0.2,0.2,0.8,0.2,0.8",""
"","html-keyboard-response","121","85918","0.0-121.0","3DIP6YHAPDESN6181QGC3WXXCDQ8EB","A2BK9RMC0NOIH8","3TZDZ3Y0JSSRVQSC3SM97PDQ3Z7196","","null","<img src=""img/food1.png"" style=""width:200px; border:14px solid green;"">","null","","","","","",""
"","image-keyboard-response","122","86033","0.0-122.0","3DIP6YHAPDESN6181QGC3WXXCDQ8EB","A2BK9RMC0NOIH8","3TZDZ3Y0JSSRVQSC3SM97PDQ3Z7196","","113.70000000298023","img/food1.png","76","114.40000000596046","2","1","3","0.8,0.2,0.8,0.2,0.2,0.8,0.2,0.8",""
"","html-keyboard-response","123","86335","0.0-123.0","3DIP6YHAPDESN6181QGC3WXXCDQ8EB","A2BK9RMC0NOIH8","3TZDZ3Y0JSSRVQSC3SM97PDQ3Z7196","","null","<img src=""img/food1.png"" style=""width:200px; border:14px solid green;"">","null","","","","","",""
"","image-keyboard-response","124","86408","0.0-124.0","3DIP6YHAPDESN6181QGC3WXXCDQ8EB","A2BK9RMC0NOIH8","3TZDZ3Y0JSSRVQSC3SM97PDQ3Z7196","","72.79999999701977","img/food1.png","76","73.40000000596046","2","1","3","0.8,0.2,0.8,0.2,0.2,0.8,0.2,0.8",""
"","html-keyboard-response","125","86710","0.0-125.0","3DIP6YHAPDESN6181QGC3WXXCDQ8EB","A2BK9RMC0NOIH8","3TZDZ3Y0JSSRVQSC3SM97PDQ3Z7196","","null","<img src=""img/food1.png"" style=""width:200px; border:14px solid green;"">","null","","","","","",""
"","image-keyboard-response","126","86824","0.0-126.0","3DIP6YHAPDESN6181QGC3WXXCDQ8EB","A2BK9RMC0NOIH8","3TZDZ3Y0JSSRVQSC3SM97PDQ3Z7196","","113.70000000298023","img/food5.png","75","114","1","1","1","0.8,0.2,0.8,0.2,0.2,0.8,0.2,0.8",""
"","html-keyboard-response","127","87126","0.0-127.0","3DIP6YHAPDESN6181QGC3WXXCDQ8EB","A2BK9RMC0NOIH8","3TZDZ3Y0JSSRVQSC3SM97PDQ3Z7196","","null","<img src=""img/food5.png"" style=""width:200px; border:14px solid green;"">","null","","","","","",""
"","image-keyboard-response","128","87224","0.0-128.0","3DIP6YHAPDESN6181QGC3WXXCDQ8EB","A2BK9RMC0NOIH8","3TZDZ3Y0JSSRVQSC3SM97PDQ3Z7196","","97.79999999701977","img/food8.png","75","98.29999999701977","1","1","2","0.8,0.2,0.8,0.2,0.2,0.8,0.2,0.8",""
"","html-keyboard-response","129","87526","0.0-129.0","3DIP6YHAPDESN6181QGC3WXXCDQ8EB","A2BK9RMC0NOIH8","3TZDZ3Y0JSSRVQSC3SM97PDQ3Z7196","","null","<img src=""img/food8.png"" style=""width:200px; border:14px solid green;"">","null","","","","","",""
"","image-keyboard-response","130","87592","0.0-130.0","3DIP6YHAPDESN6181QGC3WXXCDQ8EB","A2BK9RMC0NOIH8","3TZDZ3Y0JSSRVQSC3SM97PDQ3Z7196","","65.90000000596046","img/food8.png","75","66.1000000089407","1","1","2","0.8,0.2,0.8,0.2,0.2,0.8,0.2,0.8",""
"","html-keyboard-response","131","87895","0.0-131.0","3DIP6YHAPDESN6181QGC3WXXCDQ8EB","A2BK9RMC0NOIH8","3TZDZ3Y0JSSRVQSC3SM97PDQ3Z7196","","null","<img src=""img/food8.png"" style=""width:200px; border:14px solid green;"">","null","","","","","",""
"","image-keyboard-response","132","88016","0.0-132.0","3DIP6YHAPDESN6181QGC3WXXCDQ8EB","A2BK9RMC0NOIH8","3TZDZ3Y0JSSRVQSC3SM97PDQ3Z7196","","121.20000000298023","img/food8.png","76","121.59999999403954","2","0","2","0.8,0.2,0.8,0.2,0.2,0.8,0.2,0.8",""
"","html-keyboard-response","133","88318","0.0-133.0","3DIP6YHAPDESN6181QGC3WXXCDQ8EB","A2BK9RMC0NOIH8","3TZDZ3Y0JSSRVQSC3SM97PDQ3Z7196","","null","<img src=""img/food8.png"" style=""width:200px;border:14px solid red;"">","null","","","","","",""
"","image-keyboard-response","134","88768","0.0-134.0","3DIP6YHAPDESN6181QGC3WXXCDQ8EB","A2BK9RMC0NOIH8","3TZDZ3Y0JSSRVQSC3SM97PDQ3Z7196","","450","img/food1.png","75","450.5","1","1","3","0.8,0.2,0.8,0.2,0.2,0.8,0.2,0.8",""
"","html-keyboard-response","135","89070","0.0-135.0","3DIP6YHAPDESN6181QGC3WXXCDQ8EB","A2BK9RMC0NOIH8","3TZDZ3Y0JSSRVQSC3SM97PDQ3Z7196","","null","<img src=""img/food1.png"" style=""width:200px; border:14px solid green;"">","null","","","","","",""
"","image-keyboard-response","136","89208","0.0-136.0","3DIP6YHAPDESN6181QGC3WXXCDQ8EB","A2BK9RMC0NOIH8","3TZDZ3Y0JSSRVQSC3SM97PDQ3Z7196","","137.5","img/food1.png","76","137.8999999910593","2","1","3","0.8,0.2,0.8,0.2,0.2,0.8,0.2,0.8",""
"","html-keyboard-response","137","89509","0.0-137.0","3DIP6YHAPDESN6181QGC3WXXCDQ8EB","A2BK9RMC0NOIH8","3TZDZ3Y0JSSRVQSC3SM97PDQ3Z7196","","null","<img src=""img/food1.png"" style=""width:200px; border:14px solid green;"">","null","","","","","",""
"","image-keyboard-response","138","89616","0.0-138.0","3DIP6YHAPDESN6181QGC3WXXCDQ8EB","A2BK9RMC0NOIH8","3TZDZ3Y0JSSRVQSC3SM97PDQ3Z7196","","106.40000000596046","img/food1.png","76","106.79999999701977","2","1","3","0.8,0.2,0.8,0.2,0.2,0.8,0.2,0.8",""
"","html-keyboard-response","139","89918","0.0-139.0","3DIP6YHAPDESN6181QGC3WXXCDQ8EB","A2BK9RMC0NOIH8","3TZDZ3Y0JSSRVQSC3SM97PDQ3Z7196","","null","<img src=""img/food1.png"" style=""width:200px; border:14px solid green;"">","null","","","","","",""
"","image-keyboard-response","140","90008","0.0-140.0","3DIP6YHAPDESN6181QGC3WXXCDQ8EB","A2BK9RMC0NOIH8","3TZDZ3Y0JSSRVQSC3SM97PDQ3Z7196","","89.40000000596046","img/food5.png","75","89.79999999701977","1","1","1","0.8,0.2,0.8,0.2,0.2,0.8,0.2,0.8",""
"","html-keyboard-response","141","90310","0.0-141.0","3DIP6YHAPDESN6181QGC3WXXCDQ8EB","A2BK9RMC0NOIH8","3TZDZ3Y0JSSRVQSC3SM97PDQ3Z7196","","null","<img src=""img/food5.png"" style=""width:200px; border:14px solid green;"">","null","","","","","",""
"","image-keyboard-response","142","90409","0.0-142.0","3DIP6YHAPDESN6181QGC3WXXCDQ8EB","A2BK9RMC0NOIH8","3TZDZ3Y0JSSRVQSC3SM97PDQ3Z7196","","98.5","img/food5.png","75","98.90000000596046","1","1","1","0.8,0.2,0.8,0.2,0.2,0.8,0.2,0.8",""
"","html-keyboard-response","143","90710","0.0-143.0","3DIP6YHAPDESN6181QGC3WXXCDQ8EB","A2BK9RMC0NOIH8","3TZDZ3Y0JSSRVQSC3SM97PDQ3Z7196","","null","<img src=""img/food5.png"" style=""width:200px; border:14px solid green;"">","null","","","","","",""
"","image-keyboard-response","144","90784","0.0-144.0","3DIP6YHAPDESN6181QGC3WXXCDQ8EB","A2BK9RMC0NOIH8","3TZDZ3Y0JSSRVQSC3SM97PDQ3Z7196","","73.70000000298023","img/food8.png","76","74.09999999403954","2","0","2","0.8,0.2,0.8,0.2,0.2,0.8,0.2,0.8",""
"","html-keyboard-response","145","91085","0.0-145.0","3DIP6YHAPDESN6181QGC3WXXCDQ8EB","A2BK9RMC0NOIH8","3TZDZ3Y0JSSRVQSC3SM97PDQ3Z7196","","null","<img src=""img/food8.png"" style=""width:200px;border:14px solid red;"">","null","","","","","",""
"","image-keyboard-response","146","91216","0.0-146.0","3DIP6YHAPDESN6181QGC3WXXCDQ8EB","A2BK9RMC0NOIH8","3TZDZ3Y0JSSRVQSC3SM97PDQ3Z7196","","130.70000000298023","img/food5.png","76","131.09999999403954","2","0","1","0.8,0.2,0.8,0.2,0.2,0.8,0.2,0.8",""
"","html-keyboard-response","147","91517","0.0-147.0","3DIP6YHAPDESN6181QGC3WXXCDQ8EB","A2BK9RMC0NOIH8","3TZDZ3Y0JSSRVQSC3SM97PDQ3Z7196","","null","<img src=""img/food5.png"" style=""width:200px;border:14px solid red;"">","null","","","","","",""
"","image-keyboard-response","148","91584","0.0-148.0","3DIP6YHAPDESN6181QGC3WXXCDQ8EB","A2BK9RMC0NOIH8","3TZDZ3Y0JSSRVQSC3SM97PDQ3Z7196","","66.59999999403954","img/food1.png","75","67","1","1","3","0.8,0.2,0.8,0.2,0.2,0.8,0.2,0.8",""
"","html-keyboard-response","149","91886","0.0-149.0","3DIP6YHAPDESN6181QGC3WXXCDQ8EB","A2BK9RMC0NOIH8","3TZDZ3Y0JSSRVQSC3SM97PDQ3Z7196","","null","<img src=""img/food1.png"" style=""width:200px; border:14px solid green;"">","null","","","","","",""
"","image-keyboard-response","150","91984","0.0-150.0","3DIP6YHAPDESN6181QGC3WXXCDQ8EB","A2BK9RMC0NOIH8","3TZDZ3Y0JSSRVQSC3SM97PDQ3Z7196","","98.09999999403954","img/food3.png","76","98.5","2","1","4","0.8,0.2,0.8,0.2,0.2,0.8,0.2,0.8",""
"","html-keyboard-response","151","92285","0.0-151.0","3DIP6YHAPDESN6181QGC3WXXCDQ8EB","A2BK9RMC0NOIH8","3TZDZ3Y0JSSRVQSC3SM97PDQ3Z7196","","null","<img src=""img/food3.png"" style=""width:200px; border:14px solid green;"">","null","","","","","",""
"","image-keyboard-response","152","92360","0.0-152.0","3DIP6YHAPDESN6181QGC3WXXCDQ8EB","A2BK9RMC0NOIH8","3TZDZ3Y0JSSRVQSC3SM97PDQ3Z7196","","74.59999999403954","img/food1.png","75","75","1","0","3","0.8,0.2,0.8,0.2,0.2,0.8,0.2,0.8",""
"","html-keyboard-response","153","92663","0.0-153.0","3DIP6YHAPDESN6181QGC3WXXCDQ8EB","A2BK9RMC0NOIH8","3TZDZ3Y0JSSRVQSC3SM97PDQ3Z7196","","null","<img src=""img/food1.png"" style=""width:200px;border:14px solid red;"">","null","","","","","",""
"","image-keyboard-response","154","92832","0.0-154.0","3DIP6YHAPDESN6181QGC3WXXCDQ8EB","A2BK9RMC0NOIH8","3TZDZ3Y0JSSRVQSC3SM97PDQ3Z7196","","166.90000000596046","img/food5.png","76","169.29999999701977","2","0","1","0.8,0.2,0.8,0.2,0.2,0.8,0.2,0.8",""
"","html-keyboard-response","155","93134","0.0-155.0","3DIP6YHAPDESN6181QGC3WXXCDQ8EB","A2BK9RMC0NOIH8","3TZDZ3Y0JSSRVQSC3SM97PDQ3Z7196","","null","<img src=""img/food5.png"" style=""width:200px;border:14px solid red;"">","null","","","","","",""
"","image-keyboard-response","156","93258","0.0-156.0","3DIP6YHAPDESN6181QGC3WXXCDQ8EB","A2BK9RMC0NOIH8","3TZDZ3Y0JSSRVQSC3SM97PDQ3Z7196","","123.5","img/food3.png","76","124","2","1","4","0.8,0.2,0.8,0.2,0.2,0.8,0.2,0.8",""
"","html-keyboard-response","157","93560","0.0-157.0","3DIP6YHAPDESN6181QGC3WXXCDQ8EB","A2BK9RMC0NOIH8","3TZDZ3Y0JSSRVQSC3SM97PDQ3Z7196","","null","<img src=""img/food3.png"" style=""width:200px; border:14px solid green;"">","null","","","","","",""
"","image-keyboard-response","158","93609","0.0-158.0","3DIP6YHAPDESN6181QGC3WXXCDQ8EB","A2BK9RMC0NOIH8","3TZDZ3Y0JSSRVQSC3SM97PDQ3Z7196","","48","img/food3.png","76","48.400000005960464","2","1","4","0.8,0.2,0.8,0.2,0.2,0.8,0.2,0.8",""
"","html-keyboard-response","159","93910","0.0-159.0","3DIP6YHAPDESN6181QGC3WXXCDQ8EB","A2BK9RMC0NOIH8","3TZDZ3Y0JSSRVQSC3SM97PDQ3Z7196","","null","<img src=""img/food3.png"" style=""width:200px; border:14px solid green;"">","null","","","","","",""
"","image-keyboard-response","160","94016","0.0-160.0","3DIP6YHAPDESN6181QGC3WXXCDQ8EB","A2BK9RMC0NOIH8","3TZDZ3Y0JSSRVQSC3SM97PDQ3Z7196","","105.40000000596046","img/food8.png","75","105.8999999910593","1","1","2","0.8,0.2,0.8,0.2,0.2,0.8,0.2,0.8",""
"","html-keyboard-response","161","94319","0.0-161.0","3DIP6YHAPDESN6181QGC3WXXCDQ8EB","A2BK9RMC0NOIH8","3TZDZ3Y0JSSRVQSC3SM97PDQ3Z7196","","null","<img src=""img/food8.png"" style=""width:200px; border:14px solid green;"">","null","","","","","",""
"","image-keyboard-response","162","94433","0.0-162.0","3DIP6YHAPDESN6181QGC3WXXCDQ8EB","A2BK9RMC0NOIH8","3TZDZ3Y0JSSRVQSC3SM97PDQ3Z7196","","113.70000000298023","img/food5.png","75","114","1","1","1","0.8,0.2,0.8,0.2,0.2,0.8,0.2,0.8",""
"","html-keyboard-response","163","94734","0.0-163.0","3DIP6YHAPDESN6181QGC3WXXCDQ8EB","A2BK9RMC0NOIH8","3TZDZ3Y0JSSRVQSC3SM97PDQ3Z7196","","null","<img src=""img/food5.png"" style=""width:200px; border:14px solid green;"">","null","","","","","",""
"","image-keyboard-response","164","94801","0.0-164.0","3DIP6YHAPDESN6181QGC3WXXCDQ8EB","A2BK9RMC0NOIH8","3TZDZ3Y0JSSRVQSC3SM97PDQ3Z7196","","65.90000000596046","img/food5.png","76","66.20000000298023","2","0","1","0.8,0.2,0.8,0.2,0.2,0.8,0.2,0.8",""
"","html-keyboard-response","165","95102","0.0-165.0","3DIP6YHAPDESN6181QGC3WXXCDQ8EB","A2BK9RMC0NOIH8","3TZDZ3Y0JSSRVQSC3SM97PDQ3Z7196","","null","<img src=""img/food5.png"" style=""width:200px;border:14px solid red;"">","null","","","","","",""
"","image-keyboard-response","166","95224","0.0-166.0","3DIP6YHAPDESN6181QGC3WXXCDQ8EB","A2BK9RMC0NOIH8","3TZDZ3Y0JSSRVQSC3SM97PDQ3Z7196","","121.30000001192093","img/food8.png","75","121.79999999701977","1","1","2","0.8,0.2,0.8,0.2,0.2,0.8,0.2,0.8",""
"","html-keyboard-response","167","95525","0.0-167.0","3DIP6YHAPDESN6181QGC3WXXCDQ8EB","A2BK9RMC0NOIH8","3TZDZ3Y0JSSRVQSC3SM97PDQ3Z7196","","null","<img src=""img/food8.png"" style=""width:200px; border:14px solid green;"">","null","","","","","",""
"","image-keyboard-response","168","95672","0.0-168.0","3DIP6YHAPDESN6181QGC3WXXCDQ8EB","A2BK9RMC0NOIH8","3TZDZ3Y0JSSRVQSC3SM97PDQ3Z7196","","146.40000000596046","img/food8.png","75","146.8999999910593","1","1","2","0.8,0.2,0.8,0.2,0.2,0.8,0.2,0.8",""
"","html-keyboard-response","169","95973","0.0-169.0","3DIP6YHAPDESN6181QGC3WXXCDQ8EB","A2BK9RMC0NOIH8","3TZDZ3Y0JSSRVQSC3SM97PDQ3Z7196","","null","<img src=""img/food8.png"" style=""width:200px; border:14px solid green;"">","null","","","","","",""
"","image-keyboard-response","170","96400","0.0-170.0","3DIP6YHAPDESN6181QGC3WXXCDQ8EB","A2BK9RMC0NOIH8","3TZDZ3Y0JSSRVQSC3SM97PDQ3Z7196","","426.59999999403954","img/food5.png","76","427.20000000298023","2","1","1","0.8,0.2,0.8,0.2,0.2,0.8,0.2,0.8",""
"","html-keyboard-response","171","96701","0.0-171.0","3DIP6YHAPDESN6181QGC3WXXCDQ8EB","A2BK9RMC0NOIH8","3TZDZ3Y0JSSRVQSC3SM97PDQ3Z7196","","null","<img src=""img/food5.png"" style=""width:200px; border:14px solid green;"">","null","","","","","",""
"","image-keyboard-response","172","96792","0.0-172.0","3DIP6YHAPDESN6181QGC3WXXCDQ8EB","A2BK9RMC0NOIH8","3TZDZ3Y0JSSRVQSC3SM97PDQ3Z7196","","90.30000001192093","img/food8.png","75","90.70000000298023","1","1","2","0.8,0.2,0.8,0.2,0.2,0.8,0.2,0.8",""
"","html-keyboard-response","173","97094","0.0-173.0","3DIP6YHAPDESN6181QGC3WXXCDQ8EB","A2BK9RMC0NOIH8","3TZDZ3Y0JSSRVQSC3SM97PDQ3Z7196","","null","<img src=""img/food8.png"" style=""width:200px; border:14px solid green;"">","null","","","","","",""
"","image-keyboard-response","174","97224","0.0-174.0","3DIP6YHAPDESN6181QGC3WXXCDQ8EB","A2BK9RMC0NOIH8","3TZDZ3Y0JSSRVQSC3SM97PDQ3Z7196","","130","img/food3.png","76","130.5","2","1","4","0.8,0.2,0.8,0.2,0.2,0.8,0.2,0.8",""
"","html-keyboard-response","175","97527","0.0-175.0","3DIP6YHAPDESN6181QGC3WXXCDQ8EB","A2BK9RMC0NOIH8","3TZDZ3Y0JSSRVQSC3SM97PDQ3Z7196","","null","<img src=""img/food3.png"" style=""width:200px; border:14px solid green;"">","null","","","","","",""
"","image-keyboard-response","176","97584","0.0-176.0","3DIP6YHAPDESN6181QGC3WXXCDQ8EB","A2BK9RMC0NOIH8","3TZDZ3Y0JSSRVQSC3SM97PDQ3Z7196","","57.1000000089407","img/food3.png","75","57.5","1","0","4","0.8,0.2,0.8,0.2,0.2,0.8,0.2,0.8",""
"","html-keyboard-response","177","97893","0.0-177.0","3DIP6YHAPDESN6181QGC3WXXCDQ8EB","A2BK9RMC0NOIH8","3TZDZ3Y0JSSRVQSC3SM97PDQ3Z7196","","null","<img src=""img/food3.png"" style=""width:200px;border:14px solid red;"">","null","","","","","",""
"","image-keyboard-response","178","98049","0.0-178.0","3DIP6YHAPDESN6181QGC3WXXCDQ8EB","A2BK9RMC0NOIH8","3TZDZ3Y0JSSRVQSC3SM97PDQ3Z7196","","155","img/food3.png","76","155.5","2","1","4","0.8,0.2,0.8,0.2,0.2,0.8,0.2,0.8",""
"","html-keyboard-response","179","98350","0.0-179.0","3DIP6YHAPDESN6181QGC3WXXCDQ8EB","A2BK9RMC0NOIH8","3TZDZ3Y0JSSRVQSC3SM97PDQ3Z7196","","null","<img src=""img/food3.png"" style=""width:200px; border:14px solid green;"">","null","","","","","",""
"","image-keyboard-response","180","98496","0.0-180.0","3DIP6YHAPDESN6181QGC3WXXCDQ8EB","A2BK9RMC0NOIH8","3TZDZ3Y0JSSRVQSC3SM97PDQ3Z7196","","145.40000000596046","img/food5.png","76","146","2","0","1","0.8,0.2,0.8,0.2,0.2,0.8,0.2,0.8",""
"","html-keyboard-response","181","98797","0.0-181.0","3DIP6YHAPDESN6181QGC3WXXCDQ8EB","A2BK9RMC0NOIH8","3TZDZ3Y0JSSRVQSC3SM97PDQ3Z7196","","null","<img src=""img/food5.png"" style=""width:200px;border:14px solid red;"">","null","","","","","",""
"","image-keyboard-response","182","98800","0.0-182.0","3DIP6YHAPDESN6181QGC3WXXCDQ8EB","A2BK9RMC0NOIH8","3TZDZ3Y0JSSRVQSC3SM97PDQ3Z7196","","2.4000000059604645","img/food5.png","76","2.7999999970197678","2","0","1","0.8,0.2,0.8,0.2,0.2,0.8,0.2,0.8",""
"","html-keyboard-response","183","99102","0.0-183.0","3DIP6YHAPDESN6181QGC3WXXCDQ8EB","A2BK9RMC0NOIH8","3TZDZ3Y0JSSRVQSC3SM97PDQ3Z7196","","null","<img src=""img/food5.png"" style=""width:200px;border:14px solid red;"">","null","","","","","",""
"","image-keyboard-response","184","99208","0.0-184.0","3DIP6YHAPDESN6181QGC3WXXCDQ8EB","A2BK9RMC0NOIH8","3TZDZ3Y0JSSRVQSC3SM97PDQ3Z7196","","105.80000001192093","img/food8.png","75","106.20000000298023","1","1","2","0.8,0.2,0.8,0.2,0.2,0.8,0.2,0.8",""
"","html-keyboard-response","185","99510","0.0-185.0","3DIP6YHAPDESN6181QGC3WXXCDQ8EB","A2BK9RMC0NOIH8","3TZDZ3Y0JSSRVQSC3SM97PDQ3Z7196","","null","<img src=""img/food8.png"" style=""width:200px; border:14px solid green;"">","null","","","","","",""
"","image-keyboard-response","186","99608","0.0-186.0","3DIP6YHAPDESN6181QGC3WXXCDQ8EB","A2BK9RMC0NOIH8","3TZDZ3Y0JSSRVQSC3SM97PDQ3Z7196","","98.20000000298023","img/food1.png","76","98.59999999403954","2","0","3","0.8,0.2,0.8,0.2,0.2,0.8,0.2,0.8",""
"","html-keyboard-response","187","99910","0.0-187.0","3DIP6YHAPDESN6181QGC3WXXCDQ8EB","A2BK9RMC0NOIH8","3TZDZ3Y0JSSRVQSC3SM97PDQ3Z7196","","null","<img src=""img/food1.png"" style=""width:200px;border:14px solid red;"">","null","","","","","",""
"","image-keyboard-response","188","99992","0.0-188.0","3DIP6YHAPDESN6181QGC3WXXCDQ8EB","A2BK9RMC0NOIH8","3TZDZ3Y0JSSRVQSC3SM97PDQ3Z7196","","81.90000000596046","img/food1.png","75","82.30000001192093","1","0","3","0.8,0.2,0.8,0.2,0.2,0.8,0.2,0.8",""
"","html-keyboard-response","189","100294","0.0-189.0","3DIP6YHAPDESN6181QGC3WXXCDQ8EB","A2BK9RMC0NOIH8","3TZDZ3Y0JSSRVQSC3SM97PDQ3Z7196","","null","<img src=""img/food1.png"" style=""width:200px;border:14px solid red;"">","null","","","","","",""
"","image-keyboard-response","190","100376","0.0-190.0","3DIP6YHAPDESN6181QGC3WXXCDQ8EB","A2BK9RMC0NOIH8","3TZDZ3Y0JSSRVQSC3SM97PDQ3Z7196","","81.90000000596046","img/food3.png","75","82.40000000596046","1","0","4","0.8,0.2,0.8,0.2,0.2,0.8,0.2,0.8",""
"","html-keyboard-response","191","100677","0.0-191.0","3DIP6YHAPDESN6181QGC3WXXCDQ8EB","A2BK9RMC0NOIH8","3TZDZ3Y0JSSRVQSC3SM97PDQ3Z7196","","null","<img src=""img/food3.png"" style=""width:200px;border:14px solid red;"">","null","","","","","",""
"","image-keyboard-response","192","100792","0.0-192.0","3DIP6YHAPDESN6181QGC3WXXCDQ8EB","A2BK9RMC0NOIH8","3TZDZ3Y0JSSRVQSC3SM97PDQ3Z7196","","114.69999998807907","img/food1.png","76","115.09999999403954","2","1","3","0.8,0.2,0.8,0.2,0.2,0.8,0.2,0.8",""
"","html-keyboard-response","193","101093","0.0-193.0","3DIP6YHAPDESN6181QGC3WXXCDQ8EB","A2BK9RMC0NOIH8","3TZDZ3Y0JSSRVQSC3SM97PDQ3Z7196","","null","<img src=""img/food1.png"" style=""width:200px; border:14px solid green;"">","null","","","","","",""
"","image-keyboard-response","194","101224","0.0-194.0","3DIP6YHAPDESN6181QGC3WXXCDQ8EB","A2BK9RMC0NOIH8","3TZDZ3Y0JSSRVQSC3SM97PDQ3Z7196","","130.79999999701977","img/food3.png","75","131.20000000298023","1","1","4","0.8,0.2,0.8,0.2,0.2,0.8,0.2,0.8",""
"","html-keyboard-response","195","101526","0.0-195.0","3DIP6YHAPDESN6181QGC3WXXCDQ8EB","A2BK9RMC0NOIH8","3TZDZ3Y0JSSRVQSC3SM97PDQ3Z7196","","null","<img src=""img/food3.png"" style=""width:200px; border:14px solid green;"">","null","","","","","",""
"","image-keyboard-response","196","101609","0.0-196.0","3DIP6YHAPDESN6181QGC3WXXCDQ8EB","A2BK9RMC0NOIH8","3TZDZ3Y0JSSRVQSC3SM97PDQ3Z7196","","81.79999999701977","img/food8.png","75","82.30000001192093","1","1","2","0.8,0.2,0.8,0.2,0.2,0.8,0.2,0.8",""
"","html-keyboard-response","197","101909","0.0-197.0","3DIP6YHAPDESN6181QGC3WXXCDQ8EB","A2BK9RMC0NOIH8","3TZDZ3Y0JSSRVQSC3SM97PDQ3Z7196","","null","<img src=""img/food8.png"" style=""width:200px; border:14px solid green;"">","null","","","","","",""
"","image-keyboard-response","198","101993","0.0-198.0","3DIP6YHAPDESN6181QGC3WXXCDQ8EB","A2BK9RMC0NOIH8","3TZDZ3Y0JSSRVQSC3SM97PDQ3Z7196","","83","img/food3.png","76","83.3999999910593","2","1","4","0.8,0.2,0.8,0.2,0.2,0.8,0.2,0.8",""
"","html-keyboard-response","199","102294","0.0-199.0","3DIP6YHAPDESN6181QGC3WXXCDQ8EB","A2BK9RMC0NOIH8","3TZDZ3Y0JSSRVQSC3SM97PDQ3Z7196","","null","<img src=""img/food3.png"" style=""width:200px; border:14px solid green;"">","null","","","","","",""
"","image-keyboard-response","200","102432","0.0-200.0","3DIP6YHAPDESN6181QGC3WXXCDQ8EB","A2BK9RMC0NOIH8","3TZDZ3Y0JSSRVQSC3SM97PDQ3Z7196","","137.79999999701977","img/food5.png","76","138.09999999403954","2","1","1","0.8,0.2,0.8,0.2,0.2,0.8,0.2,0.8",""
"","html-keyboard-response","201","102733","0.0-201.0","3DIP6YHAPDESN6181QGC3WXXCDQ8EB","A2BK9RMC0NOIH8","3TZDZ3Y0JSSRVQSC3SM97PDQ3Z7196","","null","<img src=""img/food5.png"" style=""width:200px; border:14px solid green;"">","null","","","","","",""
"","image-keyboard-response","202","102792","0.0-202.0","3DIP6YHAPDESN6181QGC3WXXCDQ8EB","A2BK9RMC0NOIH8","3TZDZ3Y0JSSRVQSC3SM97PDQ3Z7196","","58.30000001192093","img/food1.png","75","58.70000000298023","1","0","3","0.8,0.2,0.8,0.2,0.2,0.8,0.2,0.8",""
"","html-keyboard-response","203","103094","0.0-203.0","3DIP6YHAPDESN6181QGC3WXXCDQ8EB","A2BK9RMC0NOIH8","3TZDZ3Y0JSSRVQSC3SM97PDQ3Z7196","","null","<img src=""img/food1.png"" style=""width:200px;border:14px solid red;"">","null","","","","","",""
"","image-keyboard-response","204","103224","0.0-204.0","3DIP6YHAPDESN6181QGC3WXXCDQ8EB","A2BK9RMC0NOIH8","3TZDZ3Y0JSSRVQSC3SM97PDQ3Z7196","","129.90000000596046","img/food3.png","75","130.3999999910593","1","1","4","0.8,0.2,0.8,0.2,0.2,0.8,0.2,0.8",""
"","html-keyboard-response","205","103526","0.0-205.0","3DIP6YHAPDESN6181QGC3WXXCDQ8EB","A2BK9RMC0NOIH8","3TZDZ3Y0JSSRVQSC3SM97PDQ3Z7196","","null","<img src=""img/food3.png"" style=""width:200px; border:14px solid green;"">","null","","","","","",""
"","image-keyboard-response","206","103632","0.0-206.0","3DIP6YHAPDESN6181QGC3WXXCDQ8EB","A2BK9RMC0NOIH8","3TZDZ3Y0JSSRVQSC3SM97PDQ3Z7196","","106","img/food8.png","76","106.59999999403954","2","1","2","0.8,0.2,0.8,0.2,0.2,0.8,0.2,0.8",""
"","html-keyboard-response","207","103933","0.0-207.0","3DIP6YHAPDESN6181QGC3WXXCDQ8EB","A2BK9RMC0NOIH8","3TZDZ3Y0JSSRVQSC3SM97PDQ3Z7196","","null","<img src=""img/food8.png"" style=""width:200px; border:14px solid green;"">","null","","","","","",""
"","image-keyboard-response","208","104009","0.0-208.0","3DIP6YHAPDESN6181QGC3WXXCDQ8EB","A2BK9RMC0NOIH8","3TZDZ3Y0JSSRVQSC3SM97PDQ3Z7196","","75","img/food3.png","76","75.59999999403954","2","0","4","0.8,0.2,0.8,0.2,0.2,0.8,0.2,0.8",""
"","html-keyboard-response","209","104310","0.0-209.0","3DIP6YHAPDESN6181QGC3WXXCDQ8EB","A2BK9RMC0NOIH8","3TZDZ3Y0JSSRVQSC3SM97PDQ3Z7196","","null","<img src=""img/food3.png"" style=""width:200px;border:14px solid red;"">","null","","","","","",""
"","image-keyboard-response","210","104408","0.0-210.0","3DIP6YHAPDESN6181QGC3WXXCDQ8EB","A2BK9RMC0NOIH8","3TZDZ3Y0JSSRVQSC3SM97PDQ3Z7196","","97.59999999403954","img/food8.png","75","98","1","1","2","0.8,0.2,0.8,0.2,0.2,0.8,0.2,0.8",""
"","html-keyboard-response","211","104717","0.0-211.0","3DIP6YHAPDESN6181QGC3WXXCDQ8EB","A2BK9RMC0NOIH8","3TZDZ3Y0JSSRVQSC3SM97PDQ3Z7196","","null","<img src=""img/food8.png"" style=""width:200px; border:14px solid green;"">","null","","","","","",""
"","image-keyboard-response","212","104849","0.0-212.0","3DIP6YHAPDESN6181QGC3WXXCDQ8EB","A2BK9RMC0NOIH8","3TZDZ3Y0JSSRVQSC3SM97PDQ3Z7196","","130.6000000089407","img/food3.png","76","131.29999999701977","2","1","4","0.8,0.2,0.8,0.2,0.2,0.8,0.2,0.8",""
"","html-keyboard-response","213","105151","0.0-213.0","3DIP6YHAPDESN6181QGC3WXXCDQ8EB","A2BK9RMC0NOIH8","3TZDZ3Y0JSSRVQSC3SM97PDQ3Z7196","","null","<img src=""img/food3.png"" style=""width:200px; border:14px solid green;"">","null","","","","","",""
"","image-keyboard-response","214","105200","0.0-214.0","3DIP6YHAPDESN6181QGC3WXXCDQ8EB","A2BK9RMC0NOIH8","3TZDZ3Y0JSSRVQSC3SM97PDQ3Z7196","","47.8999999910593","img/food8.png","75","49","1","1","2","0.8,0.2,0.8,0.2,0.2,0.8,0.2,0.8",""
"","html-keyboard-response","215","105502","0.0-215.0","3DIP6YHAPDESN6181QGC3WXXCDQ8EB","A2BK9RMC0NOIH8","3TZDZ3Y0JSSRVQSC3SM97PDQ3Z7196","","null","<img src=""img/food8.png"" style=""width:200px; border:14px solid green;"">","null","","","","","",""
"","image-keyboard-response","216","105640","0.0-216.0","3DIP6YHAPDESN6181QGC3WXXCDQ8EB","A2BK9RMC0NOIH8","3TZDZ3Y0JSSRVQSC3SM97PDQ3Z7196","","138.40000000596046","img/food8.png","76","138.69999998807907","2","0","2","0.8,0.2,0.8,0.2,0.2,0.8,0.2,0.8",""
"","html-keyboard-response","217","105941","0.0-217.0","3DIP6YHAPDESN6181QGC3WXXCDQ8EB","A2BK9RMC0NOIH8","3TZDZ3Y0JSSRVQSC3SM97PDQ3Z7196","","null","<img src=""img/food8.png"" style=""width:200px;border:14px solid red;"">","null","","","","","",""
"","image-keyboard-response","218","106016","0.0-218.0","3DIP6YHAPDESN6181QGC3WXXCDQ8EB","A2BK9RMC0NOIH8","3TZDZ3Y0JSSRVQSC3SM97PDQ3Z7196","","74.59999999403954","img/food1.png","76","75.20000000298023","2","0","3","0.8,0.2,0.8,0.2,0.2,0.8,0.2,0.8",""
"","html-keyboard-response","219","106318","0.0-219.0","3DIP6YHAPDESN6181QGC3WXXCDQ8EB","A2BK9RMC0NOIH8","3TZDZ3Y0JSSRVQSC3SM97PDQ3Z7196","","null","<img src=""img/food1.png"" style=""width:200px;border:14px solid red;"">","null","","","","","",""
"","image-keyboard-response","220","106473","0.0-220.0","3DIP6YHAPDESN6181QGC3WXXCDQ8EB","A2BK9RMC0NOIH8","3TZDZ3Y0JSSRVQSC3SM97PDQ3Z7196","","154.6000000089407","img/food5.png","75","155.29999999701977","1","1","1","0.8,0.2,0.8,0.2,0.2,0.8,0.2,0.8",""
"","html-keyboard-response","221","106776","0.0-221.0","3DIP6YHAPDESN6181QGC3WXXCDQ8EB","A2BK9RMC0NOIH8","3TZDZ3Y0JSSRVQSC3SM97PDQ3Z7196","","null","<img src=""img/food5.png"" style=""width:200px; border:14px solid green;"">","null","","","","","",""
"","image-keyboard-response","222","106832","0.0-222.0","3DIP6YHAPDESN6181QGC3WXXCDQ8EB","A2BK9RMC0NOIH8","3TZDZ3Y0JSSRVQSC3SM97PDQ3Z7196","","55.80000001192093","img/food1.png","75","56.400000005960464","1","0","3","0.8,0.2,0.8,0.2,0.2,0.8,0.2,0.8",""
"","html-keyboard-response","223","107134","0.0-223.0","3DIP6YHAPDESN6181QGC3WXXCDQ8EB","A2BK9RMC0NOIH8","3TZDZ3Y0JSSRVQSC3SM97PDQ3Z7196","","null","<img src=""img/food1.png"" style=""width:200px;border:14px solid red;"">","null","","","","","",""
"","image-keyboard-response","224","107160","0.0-224.0","3DIP6YHAPDESN6181QGC3WXXCDQ8EB","A2BK9RMC0NOIH8","3TZDZ3Y0JSSRVQSC3SM97PDQ3Z7196","","26","img/food8.png","76","26.399999991059303","2","0","2","0.8,0.2,0.8,0.2,0.2,0.8,0.2,0.8",""
"","html-keyboard-response","225","107462","0.0-225.0","3DIP6YHAPDESN6181QGC3WXXCDQ8EB","A2BK9RMC0NOIH8","3TZDZ3Y0JSSRVQSC3SM97PDQ3Z7196","","null","<img src=""img/food8.png"" style=""width:200px;border:14px solid red;"">","null","","","","","",""
"","image-keyboard-response","226","107608","0.0-226.0","3DIP6YHAPDESN6181QGC3WXXCDQ8EB","A2BK9RMC0NOIH8","3TZDZ3Y0JSSRVQSC3SM97PDQ3Z7196","","145.5","img/food1.png","75","146","1","1","3","0.8,0.2,0.8,0.2,0.2,0.8,0.2,0.8",""
"","html-keyboard-response","227","107910","0.0-227.0","3DIP6YHAPDESN6181QGC3WXXCDQ8EB","A2BK9RMC0NOIH8","3TZDZ3Y0JSSRVQSC3SM97PDQ3Z7196","","null","<img src=""img/food1.png"" style=""width:200px; border:14px solid green;"">","null","","","","","",""
"","image-keyboard-response","228","108080","0.0-228.0","3DIP6YHAPDESN6181QGC3WXXCDQ8EB","A2BK9RMC0NOIH8","3TZDZ3Y0JSSRVQSC3SM97PDQ3Z7196","","169.20000000298023","img/food8.png","76","169.70000000298023","2","0","2","0.8,0.2,0.8,0.2,0.2,0.8,0.2,0.8",""
"","html-keyboard-response","229","108382","0.0-229.0","3DIP6YHAPDESN6181QGC3WXXCDQ8EB","A2BK9RMC0NOIH8","3TZDZ3Y0JSSRVQSC3SM97PDQ3Z7196","","null","<img src=""img/food8.png"" style=""width:200px;border:14px solid red;"">","null","","","","","",""
"","image-keyboard-response","230","108424","0.0-230.0","3DIP6YHAPDESN6181QGC3WXXCDQ8EB","A2BK9RMC0NOIH8","3TZDZ3Y0JSSRVQSC3SM97PDQ3Z7196","","42","img/food5.png","76","42.6000000089407","2","0","1","0.8,0.2,0.8,0.2,0.2,0.8,0.2,0.8",""
"","html-keyboard-response","231","108726","0.0-231.0","3DIP6YHAPDESN6181QGC3WXXCDQ8EB","A2BK9RMC0NOIH8","3TZDZ3Y0JSSRVQSC3SM97PDQ3Z7196","","null","<img src=""img/food5.png"" style=""width:200px;border:14px solid red;"">","null","","","","","",""
"","image-keyboard-response","232","108832","0.0-232.0","3DIP6YHAPDESN6181QGC3WXXCDQ8EB","A2BK9RMC0NOIH8","3TZDZ3Y0JSSRVQSC3SM97PDQ3Z7196","","106.09999999403954","img/food1.png","75","106.5","1","1","3","0.8,0.2,0.8,0.2,0.2,0.8,0.2,0.8",""
"","html-keyboard-response","233","109134","0.0-233.0","3DIP6YHAPDESN6181QGC3WXXCDQ8EB","A2BK9RMC0NOIH8","3TZDZ3Y0JSSRVQSC3SM97PDQ3Z7196","","null","<img src=""img/food1.png"" style=""width:200px; border:14px solid green;"">","null","","","","","",""
"","image-keyboard-response","234","109224","0.0-234.0","3DIP6YHAPDESN6181QGC3WXXCDQ8EB","A2BK9RMC0NOIH8","3TZDZ3Y0JSSRVQSC3SM97PDQ3Z7196","","90.1000000089407","img/food1.png","76","90.59999999403954","2","1","3","0.8,0.2,0.8,0.2,0.2,0.8,0.2,0.8",""
"","html-keyboard-response","235","109526","0.0-235.0","3DIP6YHAPDESN6181QGC3WXXCDQ8EB","A2BK9RMC0NOIH8","3TZDZ3Y0JSSRVQSC3SM97PDQ3Z7196","","null","<img src=""img/food1.png"" style=""width:200px; border:14px solid green;"">","null","","","","","",""
"","image-keyboard-response","236","109640","0.0-236.0","3DIP6YHAPDESN6181QGC3WXXCDQ8EB","A2BK9RMC0NOIH8","3TZDZ3Y0JSSRVQSC3SM97PDQ3Z7196","","113.6000000089407","img/food3.png","76","114","2","1","4","0.8,0.2,0.8,0.2,0.2,0.8,0.2,0.8",""
"","html-keyboard-response","237","109941","0.0-237.0","3DIP6YHAPDESN6181QGC3WXXCDQ8EB","A2BK9RMC0NOIH8","3TZDZ3Y0JSSRVQSC3SM97PDQ3Z7196","","null","<img src=""img/food3.png"" style=""width:200px; border:14px solid green;"">","null","","","","","",""
"","image-keyboard-response","238","110065","0.0-238.0","3DIP6YHAPDESN6181QGC3WXXCDQ8EB","A2BK9RMC0NOIH8","3TZDZ3Y0JSSRVQSC3SM97PDQ3Z7196","","122.6000000089407","img/food5.png","75","123.1000000089407","1","0","1","0.8,0.2,0.8,0.2,0.2,0.8,0.2,0.8",""
"","html-keyboard-response","239","110367","0.0-239.0","3DIP6YHAPDESN6181QGC3WXXCDQ8EB","A2BK9RMC0NOIH8","3TZDZ3Y0JSSRVQSC3SM97PDQ3Z7196","","null","<img src=""img/food5.png"" style=""width:200px;border:14px solid red;"">","null","","","","","",""
"","image-keyboard-response","240","110424","0.0-240.0","3DIP6YHAPDESN6181QGC3WXXCDQ8EB","A2BK9RMC0NOIH8","3TZDZ3Y0JSSRVQSC3SM97PDQ3Z7196","","57","img/food8.png","75","57.5","1","0","2","0.8,0.2,0.8,0.2,0.2,0.8,0.2,0.8",""
"","html-keyboard-response","241","110725","0.0-241.0","3DIP6YHAPDESN6181QGC3WXXCDQ8EB","A2BK9RMC0NOIH8","3TZDZ3Y0JSSRVQSC3SM97PDQ3Z7196","","null","<img src=""img/food8.png"" style=""width:200px;border:14px solid red;"">","null","","","","","",""
"","html-keyboard-response","242","113921","0.0-242.0","3DIP6YHAPDESN6181QGC3WXXCDQ8EB","A2BK9RMC0NOIH8","3TZDZ3Y0JSSRVQSC3SM97PDQ3Z7196","","","","","","","","","",""
"","image-keyboard-response","243","114304","0.0-243.0","3DIP6YHAPDESN6181QGC3WXXCDQ8EB","A2BK9RMC0NOIH8","3TZDZ3Y0JSSRVQSC3SM97PDQ3Z7196","","382.40000000596046","img/food6.png","76","383","2","1","2","0.2,0.8,0.2,0.8,0.2,0.8,0.8,0.2",""
"","html-keyboard-response","244","114606","0.0-244.0","3DIP6YHAPDESN6181QGC3WXXCDQ8EB","A2BK9RMC0NOIH8","3TZDZ3Y0JSSRVQSC3SM97PDQ3Z7196","","null","<img src=""img/food6.png"" style=""width:200px; border:14px solid green;"">","null","","","","","",""
"","image-keyboard-response","245","114656","0.0-245.0","3DIP6YHAPDESN6181QGC3WXXCDQ8EB","A2BK9RMC0NOIH8","3TZDZ3Y0JSSRVQSC3SM97PDQ3Z7196","","49.400000005960464","img/food4.png","76","50","2","1","1","0.2,0.8,0.2,0.8,0.2,0.8,0.8,0.2",""
"","html-keyboard-response","246","114958","0.0-246.0","3DIP6YHAPDESN6181QGC3WXXCDQ8EB","A2BK9RMC0NOIH8","3TZDZ3Y0JSSRVQSC3SM97PDQ3Z7196","","null","<img src=""img/food4.png"" style=""width:200px; border:14px solid green;"">","null","","","","","",""
"","image-keyboard-response","247","115065","0.0-247.0","3DIP6YHAPDESN6181QGC3WXXCDQ8EB","A2BK9RMC0NOIH8","3TZDZ3Y0JSSRVQSC3SM97PDQ3Z7196","","106.29999999701977","img/food2.png","75","106.79999999701977","1","0","3","0.2,0.8,0.2,0.8,0.2,0.8,0.8,0.2",""
"","html-keyboard-response","248","115367","0.0-248.0","3DIP6YHAPDESN6181QGC3WXXCDQ8EB","A2BK9RMC0NOIH8","3TZDZ3Y0JSSRVQSC3SM97PDQ3Z7196","","null","<img src=""img/food2.png"" style=""width:200px;border:14px solid red;"">","null","","","","","",""
"","image-keyboard-response","249","115440","0.0-249.0","3DIP6YHAPDESN6181QGC3WXXCDQ8EB","A2BK9RMC0NOIH8","3TZDZ3Y0JSSRVQSC3SM97PDQ3Z7196","","73.29999999701977","img/food4.png","75","73.70000000298023","1","0","1","0.2,0.8,0.2,0.8,0.2,0.8,0.8,0.2",""
"","html-keyboard-response","250","115742","0.0-250.0","3DIP6YHAPDESN6181QGC3WXXCDQ8EB","A2BK9RMC0NOIH8","3TZDZ3Y0JSSRVQSC3SM97PDQ3Z7196","","null","<img src=""img/food4.png"" style=""width:200px;border:14px solid red;"">","null","","","","","",""
"","image-keyboard-response","251","115832","0.0-251.0","3DIP6YHAPDESN6181QGC3WXXCDQ8EB","A2BK9RMC0NOIH8","3TZDZ3Y0JSSRVQSC3SM97PDQ3Z7196","","89.80000001192093","img/food4.png","75","90.29999999701977","1","0","1","0.2,0.8,0.2,0.8,0.2,0.8,0.8,0.2",""
"","html-keyboard-response","252","116134","0.0-252.0","3DIP6YHAPDESN6181QGC3WXXCDQ8EB","A2BK9RMC0NOIH8","3TZDZ3Y0JSSRVQSC3SM97PDQ3Z7196","","null","<img src=""img/food4.png"" style=""width:200px;border:14px solid red;"">","null","","","","","",""
"","image-keyboard-response","253","116160","0.0-253.0","3DIP6YHAPDESN6181QGC3WXXCDQ8EB","A2BK9RMC0NOIH8","3TZDZ3Y0JSSRVQSC3SM97PDQ3Z7196","","25.900000005960464","img/food4.png","76","26.400000005960464","2","0","1","0.2,0.8,0.2,0.8,0.2,0.8,0.8,0.2",""
"","html-keyboard-response","254","116461","0.0-254.0","3DIP6YHAPDESN6181QGC3WXXCDQ8EB","A2BK9RMC0NOIH8","3TZDZ3Y0JSSRVQSC3SM97PDQ3Z7196","","null","<img src=""img/food4.png"" style=""width:200px;border:14px solid red;"">","null","","","","","",""
"","image-keyboard-response","255","116512","0.0-255.0","3DIP6YHAPDESN6181QGC3WXXCDQ8EB","A2BK9RMC0NOIH8","3TZDZ3Y0JSSRVQSC3SM97PDQ3Z7196","","50.70000000298023","img/food4.png","75","51.1000000089407","1","0","1","0.2,0.8,0.2,0.8,0.2,0.8,0.8,0.2",""
"","html-keyboard-response","256","116814","0.0-256.0","3DIP6YHAPDESN6181QGC3WXXCDQ8EB","A2BK9RMC0NOIH8","3TZDZ3Y0JSSRVQSC3SM97PDQ3Z7196","","null","<img src=""img/food4.png"" style=""width:200px;border:14px solid red;"">","null","","","","","",""
"","image-keyboard-response","257","116872","0.0-257.0","3DIP6YHAPDESN6181QGC3WXXCDQ8EB","A2BK9RMC0NOIH8","3TZDZ3Y0JSSRVQSC3SM97PDQ3Z7196","","58.20000000298023","img/food7.png","76","58.70000000298023","2","0","4","0.2,0.8,0.2,0.8,0.2,0.8,0.8,0.2",""
"","html-keyboard-response","258","117175","0.0-258.0","3DIP6YHAPDESN6181QGC3WXXCDQ8EB","A2BK9RMC0NOIH8","3TZDZ3Y0JSSRVQSC3SM97PDQ3Z7196","","null","<img src=""img/food7.png"" style=""width:200px;border:14px solid red;"">","null","","","","","",""
"","image-keyboard-response","259","117200","0.0-259.0","3DIP6YHAPDESN6181QGC3WXXCDQ8EB","A2BK9RMC0NOIH8","3TZDZ3Y0JSSRVQSC3SM97PDQ3Z7196","","25.299999997019768","img/food6.png","75","25.799999997019768","1","0","2","0.2,0.8,0.2,0.8,0.2,0.8,0.8,0.2",""
"","html-keyboard-response","260","117502","0.0-260.0","3DIP6YHAPDESN6181QGC3WXXCDQ8EB","A2BK9RMC0NOIH8","3TZDZ3Y0JSSRVQSC3SM97PDQ3Z7196","","null","<img src=""img/food6.png"" style=""width:200px;border:14px solid red;"">","null","","","","","",""
"","image-keyboard-response","261","117560","0.0-261.0","3DIP6YHAPDESN6181QGC3WXXCDQ8EB","A2BK9RMC0NOIH8","3TZDZ3Y0JSSRVQSC3SM97PDQ3Z7196","","58.1000000089407","img/food6.png","75","58.5","1","0","2","0.2,0.8,0.2,0.8,0.2,0.8,0.8,0.2",""
"","html-keyboard-response","262","117861","0.0-262.0","3DIP6YHAPDESN6181QGC3WXXCDQ8EB","A2BK9RMC0NOIH8","3TZDZ3Y0JSSRVQSC3SM97PDQ3Z7196","","null","<img src=""img/food6.png"" style=""width:200px;border:14px solid red;"">","null","","","","","",""
"","image-keyboard-response","263","117888","0.0-263.0","3DIP6YHAPDESN6181QGC3WXXCDQ8EB","A2BK9RMC0NOIH8","3TZDZ3Y0JSSRVQSC3SM97PDQ3Z7196","","26.200000002980232","img/food6.png","76","26.700000002980232","2","1","2","0.2,0.8,0.2,0.8,0.2,0.8,0.8,0.2",""
"","html-keyboard-response","264","118198","0.0-264.0","3DIP6YHAPDESN6181QGC3WXXCDQ8EB","A2BK9RMC0NOIH8","3TZDZ3Y0JSSRVQSC3SM97PDQ3Z7196","","null","<img src=""img/food6.png"" style=""width:200px; border:14px solid green;"">","null","","","","","",""
"","image-keyboard-response","265","118248","0.0-265.0","3DIP6YHAPDESN6181QGC3WXXCDQ8EB","A2BK9RMC0NOIH8","3TZDZ3Y0JSSRVQSC3SM97PDQ3Z7196","","49.29999999701977","img/food2.png","76","49.79999999701977","2","0","3","0.2,0.8,0.2,0.8,0.2,0.8,0.8,0.2",""
"","html-keyboard-response","266","118550","0.0-266.0","3DIP6YHAPDESN6181QGC3WXXCDQ8EB","A2BK9RMC0NOIH8","3TZDZ3Y0JSSRVQSC3SM97PDQ3Z7196","","null","<img src=""img/food2.png"" style=""width:200px;border:14px solid red;"">","null","","","","","",""
"","image-keyboard-response","267","118600","0.0-267.0","3DIP6YHAPDESN6181QGC3WXXCDQ8EB","A2BK9RMC0NOIH8","3TZDZ3Y0JSSRVQSC3SM97PDQ3Z7196","","50","img/food7.png","76","50.3999999910593","2","1","4","0.2,0.8,0.2,0.8,0.2,0.8,0.8,0.2",""
"","html-keyboard-response","268","118902","0.0-268.0","3DIP6YHAPDESN6181QGC3WXXCDQ8EB","A2BK9RMC0NOIH8","3TZDZ3Y0JSSRVQSC3SM97PDQ3Z7196","","null","<img src=""img/food7.png"" style=""width:200px; border:14px solid green;"">","null","","","","","",""
"","image-keyboard-response","269","118912","0.0-269.0","3DIP6YHAPDESN6181QGC3WXXCDQ8EB","A2BK9RMC0NOIH8","3TZDZ3Y0JSSRVQSC3SM97PDQ3Z7196","","9.299999997019768","img/food4.png","75","10","1","0","1","0.2,0.8,0.2,0.8,0.2,0.8,0.8,0.2",""
"","html-keyboard-response","270","119215","0.0-270.0","3DIP6YHAPDESN6181QGC3WXXCDQ8EB","A2BK9RMC0NOIH8","3TZDZ3Y0JSSRVQSC3SM97PDQ3Z7196","","null","<img src=""img/food4.png"" style=""width:200px;border:14px solid red;"">","null","","","","","",""
"","image-keyboard-response","271","119272","0.0-271.0","3DIP6YHAPDESN6181QGC3WXXCDQ8EB","A2BK9RMC0NOIH8","3TZDZ3Y0JSSRVQSC3SM97PDQ3Z7196","","56.6000000089407","img/food6.png","75","57.20000000298023","1","0","2","0.2,0.8,0.2,0.8,0.2,0.8,0.8,0.2",""
"","html-keyboard-response","272","119573","0.0-272.0","3DIP6YHAPDESN6181QGC3WXXCDQ8EB","A2BK9RMC0NOIH8","3TZDZ3Y0JSSRVQSC3SM97PDQ3Z7196","","null","<img src=""img/food6.png"" style=""width:200px;border:14px solid red;"">","null","","","","","",""
"","image-keyboard-response","273","119624","0.0-273.0","3DIP6YHAPDESN6181QGC3WXXCDQ8EB","A2BK9RMC0NOIH8","3TZDZ3Y0JSSRVQSC3SM97PDQ3Z7196","","50.400000005960464","img/food7.png","76","51","2","0","4","0.2,0.8,0.2,0.8,0.2,0.8,0.8,0.2",""
"","html-keyboard-response","274","119926","0.0-274.0","3DIP6YHAPDESN6181QGC3WXXCDQ8EB","A2BK9RMC0NOIH8","3TZDZ3Y0JSSRVQSC3SM97PDQ3Z7196","","null","<img src=""img/food7.png"" style=""width:200px;border:14px solid red;"">","null","","","","","",""
"","image-keyboard-response","275","119928","0.0-275.0","3DIP6YHAPDESN6181QGC3WXXCDQ8EB","A2BK9RMC0NOIH8","3TZDZ3Y0JSSRVQSC3SM97PDQ3Z7196","","2","img/food6.png","76","2.4000000059604645","2","1","2","0.2,0.8,0.2,0.8,0.2,0.8,0.8,0.2",""
"","html-keyboard-response","276","120231","0.0-276.0","3DIP6YHAPDESN6181QGC3WXXCDQ8EB","A2BK9RMC0NOIH8","3TZDZ3Y0JSSRVQSC3SM97PDQ3Z7196","","null","<img src=""img/food6.png"" style=""width:200px; border:14px solid green;"">","null","","","","","",""
"","image-keyboard-response","277","120248","0.0-277.0","3DIP6YHAPDESN6181QGC3WXXCDQ8EB","A2BK9RMC0NOIH8","3TZDZ3Y0JSSRVQSC3SM97PDQ3Z7196","","17.099999994039536","img/food7.png","75","17.599999994039536","1","1","4","0.2,0.8,0.2,0.8,0.2,0.8,0.8,0.2",""
"","html-keyboard-response","278","120549","0.0-278.0","3DIP6YHAPDESN6181QGC3WXXCDQ8EB","A2BK9RMC0NOIH8","3TZDZ3Y0JSSRVQSC3SM97PDQ3Z7196","","null","<img src=""img/food7.png"" style=""width:200px; border:14px solid green;"">","null","","","","","",""
"","image-keyboard-response","279","120794","0.0-279.0","3DIP6YHAPDESN6181QGC3WXXCDQ8EB","A2BK9RMC0NOIH8","3TZDZ3Y0JSSRVQSC3SM97PDQ3Z7196","","243.5","img/food2.png","76","244.3999999910593","2","1","3","0.2,0.8,0.2,0.8,0.2,0.8,0.8,0.2",""
"","html-keyboard-response","280","121096","0.0-280.0","3DIP6YHAPDESN6181QGC3WXXCDQ8EB","A2BK9RMC0NOIH8","3TZDZ3Y0JSSRVQSC3SM97PDQ3Z7196","","null","<img src=""img/food2.png"" style=""width:200px; border:14px solid green;"">","null","","","","","",""
"","image-keyboard-response","281","121193","0.0-281.0","3DIP6YHAPDESN6181QGC3WXXCDQ8EB","A2BK9RMC0NOIH8","3TZDZ3Y0JSSRVQSC3SM97PDQ3Z7196","","95.79999999701977","img/food4.png","76","96.29999999701977","2","1","1","0.2,0.8,0.2,0.8,0.2,0.8,0.8,0.2",""
"","html-keyboard-response","282","121494","0.0-282.0","3DIP6YHAPDESN6181QGC3WXXCDQ8EB","A2BK9RMC0NOIH8","3TZDZ3Y0JSSRVQSC3SM97PDQ3Z7196","","null","<img src=""img/food4.png"" style=""width:200px; border:14px solid green;"">","null","","","","","",""
"","image-keyboard-response","283","121538","0.0-283.0","3DIP6YHAPDESN6181QGC3WXXCDQ8EB","A2BK9RMC0NOIH8","3TZDZ3Y0JSSRVQSC3SM97PDQ3Z7196","","43.29999999701977","img/food2.png","75","44","1","0","3","0.2,0.8,0.2,0.8,0.2,0.8,0.8,0.2",""
"","html-keyboard-response","284","121841","0.0-284.0","3DIP6YHAPDESN6181QGC3WXXCDQ8EB","A2BK9RMC0NOIH8","3TZDZ3Y0JSSRVQSC3SM97PDQ3Z7196","","null","<img src=""img/food2.png"" style=""width:200px;border:14px solid red;"">","null","","","","","",""
"","image-keyboard-response","285","121944","0.0-285.0","3DIP6YHAPDESN6181QGC3WXXCDQ8EB","A2BK9RMC0NOIH8","3TZDZ3Y0JSSRVQSC3SM97PDQ3Z7196","","103.20000000298023","img/food7.png","76","103.70000000298023","2","1","4","0.2,0.8,0.2,0.8,0.2,0.8,0.8,0.2",""
"","html-keyboard-response","286","122245","0.0-286.0","3DIP6YHAPDESN6181QGC3WXXCDQ8EB","A2BK9RMC0NOIH8","3TZDZ3Y0JSSRVQSC3SM97PDQ3Z7196","","null","<img src=""img/food7.png"" style=""width:200px; border:14px solid green;"">","null","","","","","",""
"","image-keyboard-response","287","122248","0.0-287.0","3DIP6YHAPDESN6181QGC3WXXCDQ8EB","A2BK9RMC0NOIH8","3TZDZ3Y0JSSRVQSC3SM97PDQ3Z7196","","2.5999999940395355","img/food4.png","75","3","1","0","1","0.2,0.8,0.2,0.8,0.2,0.8,0.8,0.2",""
"","html-keyboard-response","288","122550","0.0-288.0","3DIP6YHAPDESN6181QGC3WXXCDQ8EB","A2BK9RMC0NOIH8","3TZDZ3Y0JSSRVQSC3SM97PDQ3Z7196","","null","<img src=""img/food4.png"" style=""width:200px;border:14px solid red;"">","null","","","","","",""
"","image-keyboard-response","289","122640","0.0-289.0","3DIP6YHAPDESN6181QGC3WXXCDQ8EB","A2BK9RMC0NOIH8","3TZDZ3Y0JSSRVQSC3SM97PDQ3Z7196","","89.70000000298023","img/food6.png","76","90.20000000298023","2","1","2","0.2,0.8,0.2,0.8,0.2,0.8,0.8,0.2",""
"","html-keyboard-response","290","122942","0.0-290.0","3DIP6YHAPDESN6181QGC3WXXCDQ8EB","A2BK9RMC0NOIH8","3TZDZ3Y0JSSRVQSC3SM97PDQ3Z7196","","null","<img src=""img/food6.png"" style=""width:200px; border:14px solid green;"">","null","","","","","",""
"","image-keyboard-response","291","123025","0.0-291.0","3DIP6YHAPDESN6181QGC3WXXCDQ8EB","A2BK9RMC0NOIH8","3TZDZ3Y0JSSRVQSC3SM97PDQ3Z7196","","82.59999999403954","img/food7.png","75","83.19999998807907","1","1","4","0.2,0.8,0.2,0.8,0.2,0.8,0.8,0.2",""
"","html-keyboard-response","292","123326","0.0-292.0","3DIP6YHAPDESN6181QGC3WXXCDQ8EB","A2BK9RMC0NOIH8","3TZDZ3Y0JSSRVQSC3SM97PDQ3Z7196","","null","<img src=""img/food7.png"" style=""width:200px; border:14px solid green;"">","null","","","","","",""
"","image-keyboard-response","293","123456","0.0-293.0","3DIP6YHAPDESN6181QGC3WXXCDQ8EB","A2BK9RMC0NOIH8","3TZDZ3Y0JSSRVQSC3SM97PDQ3Z7196","","129.40000000596046","img/food2.png","75","129.90000000596046","1","0","3","0.2,0.8,0.2,0.8,0.2,0.8,0.8,0.2",""
"","html-keyboard-response","294","123759","0.0-294.0","3DIP6YHAPDESN6181QGC3WXXCDQ8EB","A2BK9RMC0NOIH8","3TZDZ3Y0JSSRVQSC3SM97PDQ3Z7196","","null","<img src=""img/food2.png"" style=""width:200px;border:14px solid red;"">","null","","","","","",""
"","image-keyboard-response","295","123808","0.0-295.0","3DIP6YHAPDESN6181QGC3WXXCDQ8EB","A2BK9RMC0NOIH8","3TZDZ3Y0JSSRVQSC3SM97PDQ3Z7196","","49.3999999910593","img/food4.png","76","49.70000000298023","2","0","1","0.2,0.8,0.2,0.8,0.2,0.8,0.8,0.2",""
"","html-keyboard-response","296","124109","0.0-296.0","3DIP6YHAPDESN6181QGC3WXXCDQ8EB","A2BK9RMC0NOIH8","3TZDZ3Y0JSSRVQSC3SM97PDQ3Z7196","","null","<img src=""img/food4.png"" style=""width:200px;border:14px solid red;"">","null","","","","","",""
"","image-keyboard-response","297","124193","0.0-297.0","3DIP6YHAPDESN6181QGC3WXXCDQ8EB","A2BK9RMC0NOIH8","3TZDZ3Y0JSSRVQSC3SM97PDQ3Z7196","","83.20000000298023","img/food4.png","76","83.70000000298023","2","1","1","0.2,0.8,0.2,0.8,0.2,0.8,0.8,0.2",""
"","html-keyboard-response","298","124494","0.0-298.0","3DIP6YHAPDESN6181QGC3WXXCDQ8EB","A2BK9RMC0NOIH8","3TZDZ3Y0JSSRVQSC3SM97PDQ3Z7196","","null","<img src=""img/food4.png"" style=""width:200px; border:14px solid green;"">","null","","","","","",""
"","image-keyboard-response","299","124849","0.0-299.0","3DIP6YHAPDESN6181QGC3WXXCDQ8EB","A2BK9RMC0NOIH8","3TZDZ3Y0JSSRVQSC3SM97PDQ3Z7196","","353.79999999701977","img/food4.png","76","354.20000000298023","2","1","1","0.2,0.8,0.2,0.8,0.2,0.8,0.8,0.2",""
"","html-keyboard-response","300","125151","0.0-300.0","3DIP6YHAPDESN6181QGC3WXXCDQ8EB","A2BK9RMC0NOIH8","3TZDZ3Y0JSSRVQSC3SM97PDQ3Z7196","","null","<img src=""img/food4.png"" style=""width:200px; border:14px solid green;"">","null","","","","","",""
"","image-keyboard-response","301","125169","0.0-301.0","3DIP6YHAPDESN6181QGC3WXXCDQ8EB","A2BK9RMC0NOIH8","3TZDZ3Y0JSSRVQSC3SM97PDQ3Z7196","","17.599999994039536","img/food7.png","75","18.5","1","1","4","0.2,0.8,0.2,0.8,0.2,0.8,0.8,0.2",""
"","html-keyboard-response","302","125471","0.0-302.0","3DIP6YHAPDESN6181QGC3WXXCDQ8EB","A2BK9RMC0NOIH8","3TZDZ3Y0JSSRVQSC3SM97PDQ3Z7196","","null","<img src=""img/food7.png"" style=""width:200px; border:14px solid green;"">","null","","","","","",""
"","image-keyboard-response","303","125544","0.0-303.0","3DIP6YHAPDESN6181QGC3WXXCDQ8EB","A2BK9RMC0NOIH8","3TZDZ3Y0JSSRVQSC3SM97PDQ3Z7196","","72.20000000298023","img/food4.png","76","72.79999999701977","2","1","1","0.2,0.8,0.2,0.8,0.2,0.8,0.8,0.2",""
"","html-keyboard-response","304","125855","0.0-304.0","3DIP6YHAPDESN6181QGC3WXXCDQ8EB","A2BK9RMC0NOIH8","3TZDZ3Y0JSSRVQSC3SM97PDQ3Z7196","","null","<img src=""img/food4.png"" style=""width:200px; border:14px solid green;"">","null","","","","","",""
"","image-keyboard-response","305","125880","0.0-305.0","3DIP6YHAPDESN6181QGC3WXXCDQ8EB","A2BK9RMC0NOIH8","3TZDZ3Y0JSSRVQSC3SM97PDQ3Z7196","","24.799999997019768","img/food7.png","75","25.19999998807907","1","1","4","0.2,0.8,0.2,0.8,0.2,0.8,0.8,0.2",""
"","html-keyboard-response","306","126181","0.0-306.0","3DIP6YHAPDESN6181QGC3WXXCDQ8EB","A2BK9RMC0NOIH8","3TZDZ3Y0JSSRVQSC3SM97PDQ3Z7196","","null","<img src=""img/food7.png"" style=""width:200px; border:14px solid green;"">","null","","","","","",""
"","image-keyboard-response","307","126288","0.0-307.0","3DIP6YHAPDESN6181QGC3WXXCDQ8EB","A2BK9RMC0NOIH8","3TZDZ3Y0JSSRVQSC3SM97PDQ3Z7196","","106.69999998807907","img/food2.png","75","107.1000000089407","1","0","3","0.2,0.8,0.2,0.8,0.2,0.8,0.8,0.2",""
"","html-keyboard-response","308","126601","0.0-308.0","3DIP6YHAPDESN6181QGC3WXXCDQ8EB","A2BK9RMC0NOIH8","3TZDZ3Y0JSSRVQSC3SM97PDQ3Z7196","","null","<img src=""img/food2.png"" style=""width:200px;border:14px solid red;"">","null","","","","","",""
"","image-keyboard-response","309","126624","0.0-309.0","3DIP6YHAPDESN6181QGC3WXXCDQ8EB","A2BK9RMC0NOIH8","3TZDZ3Y0JSSRVQSC3SM97PDQ3Z7196","","22.5","img/food6.png","75","22.899999991059303","1","0","2","0.2,0.8,0.2,0.8,0.2,0.8,0.8,0.2",""
"","html-keyboard-response","310","126926","0.0-310.0","3DIP6YHAPDESN6181QGC3WXXCDQ8EB","A2BK9RMC0NOIH8","3TZDZ3Y0JSSRVQSC3SM97PDQ3Z7196","","null","<img src=""img/food6.png"" style=""width:200px;border:14px solid red;"">","null","","","","","",""
"","image-keyboard-response","311","127008","0.0-311.0","3DIP6YHAPDESN6181QGC3WXXCDQ8EB","A2BK9RMC0NOIH8","3TZDZ3Y0JSSRVQSC3SM97PDQ3Z7196","","82.40000000596046","img/food4.png","76","82.79999999701977","2","1","1","0.2,0.8,0.2,0.8,0.2,0.8,0.8,0.2",""
"","html-keyboard-response","312","127310","0.0-312.0","3DIP6YHAPDESN6181QGC3WXXCDQ8EB","A2BK9RMC0NOIH8","3TZDZ3Y0JSSRVQSC3SM97PDQ3Z7196","","null","<img src=""img/food4.png"" style=""width:200px; border:14px solid green;"">","null","","","","","",""
"","image-keyboard-response","313","127328","0.0-313.0","3DIP6YHAPDESN6181QGC3WXXCDQ8EB","A2BK9RMC0NOIH8","3TZDZ3Y0JSSRVQSC3SM97PDQ3Z7196","","17.299999997019768","img/food2.png","76","18","2","1","3","0.2,0.8,0.2,0.8,0.2,0.8,0.8,0.2",""
"","html-keyboard-response","314","127629","0.0-314.0","3DIP6YHAPDESN6181QGC3WXXCDQ8EB","A2BK9RMC0NOIH8","3TZDZ3Y0JSSRVQSC3SM97PDQ3Z7196","","null","<img src=""img/food2.png"" style=""width:200px; border:14px solid green;"">","null","","","","","",""
"","image-keyboard-response","315","127682","0.0-315.0","3DIP6YHAPDESN6181QGC3WXXCDQ8EB","A2BK9RMC0NOIH8","3TZDZ3Y0JSSRVQSC3SM97PDQ3Z7196","","51.3999999910593","img/food6.png","75","52.29999999701977","1","0","2","0.2,0.8,0.2,0.8,0.2,0.8,0.8,0.2",""
"","html-keyboard-response","316","127984","0.0-316.0","3DIP6YHAPDESN6181QGC3WXXCDQ8EB","A2BK9RMC0NOIH8","3TZDZ3Y0JSSRVQSC3SM97PDQ3Z7196","","null","<img src=""img/food6.png"" style=""width:200px;border:14px solid red;"">","null","","","","","",""
"","image-keyboard-response","317","128072","0.0-317.0","3DIP6YHAPDESN6181QGC3WXXCDQ8EB","A2BK9RMC0NOIH8","3TZDZ3Y0JSSRVQSC3SM97PDQ3Z7196","","87.6000000089407","img/food2.png","75","88","1","0","3","0.2,0.8,0.2,0.8,0.2,0.8,0.8,0.2",""
"","html-keyboard-response","318","128374","0.0-318.0","3DIP6YHAPDESN6181QGC3WXXCDQ8EB","A2BK9RMC0NOIH8","3TZDZ3Y0JSSRVQSC3SM97PDQ3Z7196","","null","<img src=""img/food2.png"" style=""width:200px;border:14px solid red;"">","null","","","","","",""
"","image-keyboard-response","319","128784","0.0-319.0","3DIP6YHAPDESN6181QGC3WXXCDQ8EB","A2BK9RMC0NOIH8","3TZDZ3Y0JSSRVQSC3SM97PDQ3Z7196","","409.20000000298023","img/food4.png","76","409.79999999701977","2","1","1","0.2,0.8,0.2,0.8,0.2,0.8,0.8,0.2",""
"","html-keyboard-response","320","129086","0.0-320.0","3DIP6YHAPDESN6181QGC3WXXCDQ8EB","A2BK9RMC0NOIH8","3TZDZ3Y0JSSRVQSC3SM97PDQ3Z7196","","null","<img src=""img/food4.png"" style=""width:200px; border:14px solid green;"">","null","","","","","",""
"","image-keyboard-response","321","129112","0.0-321.0","3DIP6YHAPDESN6181QGC3WXXCDQ8EB","A2BK9RMC0NOIH8","3TZDZ3Y0JSSRVQSC3SM97PDQ3Z7196","","25.5","img/food7.png","75","26","1","1","4","0.2,0.8,0.2,0.8,0.2,0.8,0.8,0.2",""
"","html-keyboard-response","322","129414","0.0-322.0","3DIP6YHAPDESN6181QGC3WXXCDQ8EB","A2BK9RMC0NOIH8","3TZDZ3Y0JSSRVQSC3SM97PDQ3Z7196","","null","<img src=""img/food7.png"" style=""width:200px; border:14px solid green;"">","null","","","","","",""
"","image-keyboard-response","323","129456","0.0-323.0","3DIP6YHAPDESN6181QGC3WXXCDQ8EB","A2BK9RMC0NOIH8","3TZDZ3Y0JSSRVQSC3SM97PDQ3Z7196","","41.29999999701977","img/food7.png","75","41.900000005960464","1","1","4","0.2,0.8,0.2,0.8,0.2,0.8,0.8,0.2",""
"","html-keyboard-response","324","129764","0.0-324.0","3DIP6YHAPDESN6181QGC3WXXCDQ8EB","A2BK9RMC0NOIH8","3TZDZ3Y0JSSRVQSC3SM97PDQ3Z7196","","null","<img src=""img/food7.png"" style=""width:200px; border:14px solid green;"">","null","","","","","",""
"","image-keyboard-response","325","129888","0.0-325.0","3DIP6YHAPDESN6181QGC3WXXCDQ8EB","A2BK9RMC0NOIH8","3TZDZ3Y0JSSRVQSC3SM97PDQ3Z7196","","123.5","img/food7.png","76","123.90000000596046","2","0","4","0.2,0.8,0.2,0.8,0.2,0.8,0.8,0.2",""
"","html-keyboard-response","326","130189","0.0-326.0","3DIP6YHAPDESN6181QGC3WXXCDQ8EB","A2BK9RMC0NOIH8","3TZDZ3Y0JSSRVQSC3SM97PDQ3Z7196","","null","<img src=""img/food7.png"" style=""width:200px;border:14px solid red;"">","null","","","","","",""
"","image-keyboard-response","327","130240","0.0-327.0","3DIP6YHAPDESN6181QGC3WXXCDQ8EB","A2BK9RMC0NOIH8","3TZDZ3Y0JSSRVQSC3SM97PDQ3Z7196","","50.69999998807907","img/food2.png","75","51.1000000089407","1","0","3","0.2,0.8,0.2,0.8,0.2,0.8,0.8,0.2",""
"","html-keyboard-response","328","130543","0.0-328.0","3DIP6YHAPDESN6181QGC3WXXCDQ8EB","A2BK9RMC0NOIH8","3TZDZ3Y0JSSRVQSC3SM97PDQ3Z7196","","null","<img src=""img/food2.png"" style=""width:200px;border:14px solid red;"">","null","","","","","",""
"","image-keyboard-response","329","130656","0.0-329.0","3DIP6YHAPDESN6181QGC3WXXCDQ8EB","A2BK9RMC0NOIH8","3TZDZ3Y0JSSRVQSC3SM97PDQ3Z7196","","113.09999999403954","img/food2.png","76","113.5","2","0","3","0.2,0.8,0.2,0.8,0.2,0.8,0.8,0.2",""
"","html-keyboard-response","330","130972","0.0-330.0","3DIP6YHAPDESN6181QGC3WXXCDQ8EB","A2BK9RMC0NOIH8","3TZDZ3Y0JSSRVQSC3SM97PDQ3Z7196","","null","<img src=""img/food2.png"" style=""width:200px;border:14px solid red;"">","null","","","","","",""
"","image-keyboard-response","331","131024","0.0-331.0","3DIP6YHAPDESN6181QGC3WXXCDQ8EB","A2BK9RMC0NOIH8","3TZDZ3Y0JSSRVQSC3SM97PDQ3Z7196","","51.5","img/food6.png","75","51.79999999701977","1","0","2","0.2,0.8,0.2,0.8,0.2,0.8,0.8,0.2",""
"","html-keyboard-response","332","131326","0.0-332.0","3DIP6YHAPDESN6181QGC3WXXCDQ8EB","A2BK9RMC0NOIH8","3TZDZ3Y0JSSRVQSC3SM97PDQ3Z7196","","null","<img src=""img/food6.png"" style=""width:200px;border:14px solid red;"">","null","","","","","",""
"","image-keyboard-response","333","131352","0.0-333.0","3DIP6YHAPDESN6181QGC3WXXCDQ8EB","A2BK9RMC0NOIH8","3TZDZ3Y0JSSRVQSC3SM97PDQ3Z7196","","26","img/food6.png","75","26.5","1","0","2","0.2,0.8,0.2,0.8,0.2,0.8,0.8,0.2",""
"","html-keyboard-response","334","131654","0.0-334.0","3DIP6YHAPDESN6181QGC3WXXCDQ8EB","A2BK9RMC0NOIH8","3TZDZ3Y0JSSRVQSC3SM97PDQ3Z7196","","null","<img src=""img/food6.png"" style=""width:200px;border:14px solid red;"">","null","","","","","",""
"","image-keyboard-response","335","131744","0.0-335.0","3DIP6YHAPDESN6181QGC3WXXCDQ8EB","A2BK9RMC0NOIH8","3TZDZ3Y0JSSRVQSC3SM97PDQ3Z7196","","89.5","img/food6.png","76","89.8999999910593","2","0","2","0.2,0.8,0.2,0.8,0.2,0.8,0.8,0.2",""
"","html-keyboard-response","336","132045","0.0-336.0","3DIP6YHAPDESN6181QGC3WXXCDQ8EB","A2BK9RMC0NOIH8","3TZDZ3Y0JSSRVQSC3SM97PDQ3Z7196","","null","<img src=""img/food6.png"" style=""width:200px;border:14px solid red;"">","null","","","","","",""
"","image-keyboard-response","337","132128","0.0-337.0","3DIP6YHAPDESN6181QGC3WXXCDQ8EB","A2BK9RMC0NOIH8","3TZDZ3Y0JSSRVQSC3SM97PDQ3Z7196","","82.40000000596046","img/food4.png","76","82.70000000298023","2","1","1","0.2,0.8,0.2,0.8,0.2,0.8,0.8,0.2",""
"","html-keyboard-response","338","132435","0.0-338.0","3DIP6YHAPDESN6181QGC3WXXCDQ8EB","A2BK9RMC0NOIH8","3TZDZ3Y0JSSRVQSC3SM97PDQ3Z7196","","null","<img src=""img/food4.png"" style=""width:200px; border:14px solid green;"">","null","","","","","",""
"","image-keyboard-response","339","132456","0.0-339.0","3DIP6YHAPDESN6181QGC3WXXCDQ8EB","A2BK9RMC0NOIH8","3TZDZ3Y0JSSRVQSC3SM97PDQ3Z7196","","20.5","img/food7.png","75","20.799999997019768","1","1","4","0.2,0.8,0.2,0.8,0.2,0.8,0.8,0.2",""
"","html-keyboard-response","340","132758","0.0-340.0","3DIP6YHAPDESN6181QGC3WXXCDQ8EB","A2BK9RMC0NOIH8","3TZDZ3Y0JSSRVQSC3SM97PDQ3Z7196","","null","<img src=""img/food7.png"" style=""width:200px; border:14px solid green;"">","null","","","","","",""
"","image-keyboard-response","341","132816","0.0-341.0","3DIP6YHAPDESN6181QGC3WXXCDQ8EB","A2BK9RMC0NOIH8","3TZDZ3Y0JSSRVQSC3SM97PDQ3Z7196","","58","img/food7.png","76","58.5","2","0","4","0.2,0.8,0.2,0.8,0.2,0.8,0.8,0.2",""
"","html-keyboard-response","342","133119","0.0-342.0","3DIP6YHAPDESN6181QGC3WXXCDQ8EB","A2BK9RMC0NOIH8","3TZDZ3Y0JSSRVQSC3SM97PDQ3Z7196","","null","<img src=""img/food7.png"" style=""width:200px;border:14px solid red;"">","null","","","","","",""
"","image-keyboard-response","343","133168","0.0-343.0","3DIP6YHAPDESN6181QGC3WXXCDQ8EB","A2BK9RMC0NOIH8","3TZDZ3Y0JSSRVQSC3SM97PDQ3Z7196","","49.099999994039536","img/food4.png","75","49.70000000298023","1","0","1","0.2,0.8,0.2,0.8,0.2,0.8,0.8,0.2",""
"","html-keyboard-response","344","133469","0.0-344.0","3DIP6YHAPDESN6181QGC3WXXCDQ8EB","A2BK9RMC0NOIH8","3TZDZ3Y0JSSRVQSC3SM97PDQ3Z7196","","null","<img src=""img/food4.png"" style=""width:200px;border:14px solid red;"">","null","","","","","",""
"","image-keyboard-response","345","133552","0.0-345.0","3DIP6YHAPDESN6181QGC3WXXCDQ8EB","A2BK9RMC0NOIH8","3TZDZ3Y0JSSRVQSC3SM97PDQ3Z7196","","82.3999999910593","img/food6.png","75","82.79999999701977","1","1","2","0.2,0.8,0.2,0.8,0.2,0.8,0.8,0.2",""
"","html-keyboard-response","346","133854","0.0-346.0","3DIP6YHAPDESN6181QGC3WXXCDQ8EB","A2BK9RMC0NOIH8","3TZDZ3Y0JSSRVQSC3SM97PDQ3Z7196","","null","<img src=""img/food6.png"" style=""width:200px; border:14px solid green;"">","null","","","","","",""
"","image-keyboard-response","347","133880","0.0-347.0","3DIP6YHAPDESN6181QGC3WXXCDQ8EB","A2BK9RMC0NOIH8","3TZDZ3Y0JSSRVQSC3SM97PDQ3Z7196","","26.099999994039536","img/food2.png","76","26.700000002980232","2","1","3","0.2,0.8,0.2,0.8,0.2,0.8,0.8,0.2",""
"","html-keyboard-response","348","134182","0.0-348.0","3DIP6YHAPDESN6181QGC3WXXCDQ8EB","A2BK9RMC0NOIH8","3TZDZ3Y0JSSRVQSC3SM97PDQ3Z7196","","null","<img src=""img/food2.png"" style=""width:200px; border:14px solid green;"">","null","","","","","",""
"","image-keyboard-response","349","134304","0.0-349.0","3DIP6YHAPDESN6181QGC3WXXCDQ8EB","A2BK9RMC0NOIH8","3TZDZ3Y0JSSRVQSC3SM97PDQ3Z7196","","122","img/food2.png","76","122.3999999910593","2","1","3","0.2,0.8,0.2,0.8,0.2,0.8,0.8,0.2",""
"","html-keyboard-response","350","134605","0.0-350.0","3DIP6YHAPDESN6181QGC3WXXCDQ8EB","A2BK9RMC0NOIH8","3TZDZ3Y0JSSRVQSC3SM97PDQ3Z7196","","null","<img src=""img/food2.png"" style=""width:200px; border:14px solid green;"">","null","","","","","",""
"","image-keyboard-response","351","134624","0.0-351.0","3DIP6YHAPDESN6181QGC3WXXCDQ8EB","A2BK9RMC0NOIH8","3TZDZ3Y0JSSRVQSC3SM97PDQ3Z7196","","18.799999997019768","img/food7.png","75","19.299999997019768","1","1","4","0.2,0.8,0.2,0.8,0.2,0.8,0.8,0.2",""
"","html-keyboard-response","352","134926","0.0-352.0","3DIP6YHAPDESN6181QGC3WXXCDQ8EB","A2BK9RMC0NOIH8","3TZDZ3Y0JSSRVQSC3SM97PDQ3Z7196","","null","<img src=""img/food7.png"" style=""width:200px; border:14px solid green;"">","null","","","","","",""
"","image-keyboard-response","353","134976","0.0-353.0","3DIP6YHAPDESN6181QGC3WXXCDQ8EB","A2BK9RMC0NOIH8","3TZDZ3Y0JSSRVQSC3SM97PDQ3Z7196","","49.400000005960464","img/food7.png","75","49.79999999701977","1","1","4","0.2,0.8,0.2,0.8,0.2,0.8,0.8,0.2",""
"","html-keyboard-response","354","135277","0.0-354.0","3DIP6YHAPDESN6181QGC3WXXCDQ8EB","A2BK9RMC0NOIH8","3TZDZ3Y0JSSRVQSC3SM97PDQ3Z7196","","null","<img src=""img/food7.png"" style=""width:200px; border:14px solid green;"">","null","","","","","",""
"","image-keyboard-response","355","136129","0.0-355.0","3DIP6YHAPDESN6181QGC3WXXCDQ8EB","A2BK9RMC0NOIH8","3TZDZ3Y0JSSRVQSC3SM97PDQ3Z7196","","850.1000000089407","img/food4.png","75","851","1","0","1","0.2,0.8,0.2,0.8,0.2,0.8,0.8,0.2",""
"","html-keyboard-response","356","136430","0.0-356.0","3DIP6YHAPDESN6181QGC3WXXCDQ8EB","A2BK9RMC0NOIH8","3TZDZ3Y0JSSRVQSC3SM97PDQ3Z7196","","null","<img src=""img/food4.png"" style=""width:200px;border:14px solid red;"">","null","","","","","",""
"","image-keyboard-response","357","137256","0.0-357.0","3DIP6YHAPDESN6181QGC3WXXCDQ8EB","A2BK9RMC0NOIH8","3TZDZ3Y0JSSRVQSC3SM97PDQ3Z7196","","825.5999999940395","img/food7.png","75","826.1000000089407","1","1","4","0.2,0.8,0.2,0.8,0.2,0.8,0.8,0.2",""
"","html-keyboard-response","358","137557","0.0-358.0","3DIP6YHAPDESN6181QGC3WXXCDQ8EB","A2BK9RMC0NOIH8","3TZDZ3Y0JSSRVQSC3SM97PDQ3Z7196","","null","<img src=""img/food7.png"" style=""width:200px; border:14px solid green;"">","null","","","","","",""
"","image-keyboard-response","359","138009","0.0-359.0","3DIP6YHAPDESN6181QGC3WXXCDQ8EB","A2BK9RMC0NOIH8","3TZDZ3Y0JSSRVQSC3SM97PDQ3Z7196","","450.70000000298023","img/food2.png","75","451.20000000298023","1","0","3","0.2,0.8,0.2,0.8,0.2,0.8,0.8,0.2",""
"","html-keyboard-response","360","138310","0.0-360.0","3DIP6YHAPDESN6181QGC3WXXCDQ8EB","A2BK9RMC0NOIH8","3TZDZ3Y0JSSRVQSC3SM97PDQ3Z7196","","null","<img src=""img/food2.png"" style=""width:200px;border:14px solid red;"">","null","","","","","",""
"","image-keyboard-response","361","138320","0.0-361.0","3DIP6YHAPDESN6181QGC3WXXCDQ8EB","A2BK9RMC0NOIH8","3TZDZ3Y0JSSRVQSC3SM97PDQ3Z7196","","9.700000002980232","img/food6.png","75","10.099999994039536","1","0","2","0.2,0.8,0.2,0.8,0.2,0.8,0.8,0.2",""
"","html-keyboard-response","362","138622","0.0-362.0","3DIP6YHAPDESN6181QGC3WXXCDQ8EB","A2BK9RMC0NOIH8","3TZDZ3Y0JSSRVQSC3SM97PDQ3Z7196","","null","<img src=""img/food6.png"" style=""width:200px;border:14px solid red;"">","null","","","","","",""
"","image-keyboard-response","363","138736","0.0-363.0","3DIP6YHAPDESN6181QGC3WXXCDQ8EB","A2BK9RMC0NOIH8","3TZDZ3Y0JSSRVQSC3SM97PDQ3Z7196","","114.09999999403954","img/food6.png","76","114.6000000089407","2","1","2","0.2,0.8,0.2,0.8,0.2,0.8,0.8,0.2",""
"","html-keyboard-response","364","139040","0.0-364.0","3DIP6YHAPDESN6181QGC3WXXCDQ8EB","A2BK9RMC0NOIH8","3TZDZ3Y0JSSRVQSC3SM97PDQ3Z7196","","null","<img src=""img/food6.png"" style=""width:200px; border:14px solid green;"">","null","","","","","",""
"","image-keyboard-response","365","139368","0.0-365.0","3DIP6YHAPDESN6181QGC3WXXCDQ8EB","A2BK9RMC0NOIH8","3TZDZ3Y0JSSRVQSC3SM97PDQ3Z7196","","327.5","img/food4.png","75","327.90000000596046","1","0","1","0.2,0.8,0.2,0.8,0.2,0.8,0.8,0.2",""
"","html-keyboard-response","366","139670","0.0-366.0","3DIP6YHAPDESN6181QGC3WXXCDQ8EB","A2BK9RMC0NOIH8","3TZDZ3Y0JSSRVQSC3SM97PDQ3Z7196","","null","<img src=""img/food4.png"" style=""width:200px;border:14px solid red;"">","null","","","","","",""
"","image-keyboard-response","367","139744","0.0-367.0","3DIP6YHAPDESN6181QGC3WXXCDQ8EB","A2BK9RMC0NOIH8","3TZDZ3Y0JSSRVQSC3SM97PDQ3Z7196","","73.6000000089407","img/food6.png","76","74","2","1","2","0.2,0.8,0.2,0.8,0.2,0.8,0.8,0.2",""
"","html-keyboard-response","368","140046","0.0-368.0","3DIP6YHAPDESN6181QGC3WXXCDQ8EB","A2BK9RMC0NOIH8","3TZDZ3Y0JSSRVQSC3SM97PDQ3Z7196","","null","<img src=""img/food6.png"" style=""width:200px; border:14px solid green;"">","null","","","","","",""
"","image-keyboard-response","369","140049","0.0-369.0","3DIP6YHAPDESN6181QGC3WXXCDQ8EB","A2BK9RMC0NOIH8","3TZDZ3Y0JSSRVQSC3SM97PDQ3Z7196","","2.7000000029802322","img/food7.png","76","3.199999988079071","2","0","4","0.2,0.8,0.2,0.8,0.2,0.8,0.8,0.2",""
"","html-keyboard-response","370","140349","0.0-370.0","3DIP6YHAPDESN6181QGC3WXXCDQ8EB","A2BK9RMC0NOIH8","3TZDZ3Y0JSSRVQSC3SM97PDQ3Z7196","","null","<img src=""img/food7.png"" style=""width:200px;border:14px solid red;"">","null","","","","","",""
"","image-keyboard-response","371","140696","0.0-371.0","3DIP6YHAPDESN6181QGC3WXXCDQ8EB","A2BK9RMC0NOIH8","3TZDZ3Y0JSSRVQSC3SM97PDQ3Z7196","","346.29999999701977","img/food7.png","76","346.79999999701977","2","0","4","0.2,0.8,0.2,0.8,0.2,0.8,0.8,0.2",""
"","html-keyboard-response","372","140997","0.0-372.0","3DIP6YHAPDESN6181QGC3WXXCDQ8EB","A2BK9RMC0NOIH8","3TZDZ3Y0JSSRVQSC3SM97PDQ3Z7196","","null","<img src=""img/food7.png"" style=""width:200px;border:14px solid red;"">","null","","","","","",""
"","image-keyboard-response","373","141144","0.0-373.0","3DIP6YHAPDESN6181QGC3WXXCDQ8EB","A2BK9RMC0NOIH8","3TZDZ3Y0JSSRVQSC3SM97PDQ3Z7196","","146.20000000298023","img/food7.png","75","146.90000000596046","1","1","4","0.2,0.8,0.2,0.8,0.2,0.8,0.8,0.2",""
"","html-keyboard-response","374","141445","0.0-374.0","3DIP6YHAPDESN6181QGC3WXXCDQ8EB","A2BK9RMC0NOIH8","3TZDZ3Y0JSSRVQSC3SM97PDQ3Z7196","","null","<img src=""img/food7.png"" style=""width:200px; border:14px solid green;"">","null","","","","","",""
"","image-keyboard-response","375","141488","0.0-375.0","3DIP6YHAPDESN6181QGC3WXXCDQ8EB","A2BK9RMC0NOIH8","3TZDZ3Y0JSSRVQSC3SM97PDQ3Z7196","","42.599999994039536","img/food6.png","76","43.099999994039536","2","1","2","0.2,0.8,0.2,0.8,0.2,0.8,0.8,0.2",""
"","html-keyboard-response","376","141789","0.0-376.0","3DIP6YHAPDESN6181QGC3WXXCDQ8EB","A2BK9RMC0NOIH8","3TZDZ3Y0JSSRVQSC3SM97PDQ3Z7196","","null","<img src=""img/food6.png"" style=""width:200px; border:14px solid green;"">","null","","","","","",""
"","image-keyboard-response","377","141952","0.0-377.0","3DIP6YHAPDESN6181QGC3WXXCDQ8EB","A2BK9RMC0NOIH8","3TZDZ3Y0JSSRVQSC3SM97PDQ3Z7196","","162.5","img/food2.png","76","163.1000000089407","2","1","3","0.2,0.8,0.2,0.8,0.2,0.8,0.8,0.2",""
"","html-keyboard-response","378","142254","0.0-378.0","3DIP6YHAPDESN6181QGC3WXXCDQ8EB","A2BK9RMC0NOIH8","3TZDZ3Y0JSSRVQSC3SM97PDQ3Z7196","","null","<img src=""img/food2.png"" style=""width:200px; border:14px solid green;"">","null","","","","","",""
"","image-keyboard-response","379","142376","0.0-379.0","3DIP6YHAPDESN6181QGC3WXXCDQ8EB","A2BK9RMC0NOIH8","3TZDZ3Y0JSSRVQSC3SM97PDQ3Z7196","","121.5","img/food4.png","75","121.8999999910593","1","0","1","0.2,0.8,0.2,0.8,0.2,0.8,0.8,0.2",""
"","html-keyboard-response","380","142678","0.0-380.0","3DIP6YHAPDESN6181QGC3WXXCDQ8EB","A2BK9RMC0NOIH8","3TZDZ3Y0JSSRVQSC3SM97PDQ3Z7196","","null","<img src=""img/food4.png"" style=""width:200px;border:14px solid red;"">","null","","","","","",""
"","image-keyboard-response","381","142833","0.0-381.0","3DIP6YHAPDESN6181QGC3WXXCDQ8EB","A2BK9RMC0NOIH8","3TZDZ3Y0JSSRVQSC3SM97PDQ3Z7196","","154.5","img/food6.png","76","155.09999999403954","2","1","2","0.2,0.8,0.2,0.8,0.2,0.8,0.8,0.2",""
"","html-keyboard-response","382","143134","0.0-382.0","3DIP6YHAPDESN6181QGC3WXXCDQ8EB","A2BK9RMC0NOIH8","3TZDZ3Y0JSSRVQSC3SM97PDQ3Z7196","","null","<img src=""img/food6.png"" style=""width:200px; border:14px solid green;"">","null","","","","","",""
"","image-keyboard-response","383","143456","0.0-383.0","3DIP6YHAPDESN6181QGC3WXXCDQ8EB","A2BK9RMC0NOIH8","3TZDZ3Y0JSSRVQSC3SM97PDQ3Z7196","","321.29999999701977","img/food7.png","75","321.79999999701977","1","1","4","0.2,0.8,0.2,0.8,0.2,0.8,0.8,0.2",""
"","html-keyboard-response","384","143757","0.0-384.0","3DIP6YHAPDESN6181QGC3WXXCDQ8EB","A2BK9RMC0NOIH8","3TZDZ3Y0JSSRVQSC3SM97PDQ3Z7196","","null","<img src=""img/food7.png"" style=""width:200px; border:14px solid green;"">","null","","","","","",""
"","image-keyboard-response","385","143993","0.0-385.0","3DIP6YHAPDESN6181QGC3WXXCDQ8EB","A2BK9RMC0NOIH8","3TZDZ3Y0JSSRVQSC3SM97PDQ3Z7196","","235.29999999701977","img/food6.png","76","235.59999999403954","2","0","2","0.2,0.8,0.2,0.8,0.2,0.8,0.8,0.2",""
"","html-keyboard-response","386","144294","0.0-386.0","3DIP6YHAPDESN6181QGC3WXXCDQ8EB","A2BK9RMC0NOIH8","3TZDZ3Y0JSSRVQSC3SM97PDQ3Z7196","","null","<img src=""img/food6.png"" style=""width:200px;border:14px solid red;"">","null","","","","","",""
"","image-keyboard-response","387","144504","0.0-387.0","3DIP6YHAPDESN6181QGC3WXXCDQ8EB","A2BK9RMC0NOIH8","3TZDZ3Y0JSSRVQSC3SM97PDQ3Z7196","","209.70000000298023","img/food7.png","75","210.29999999701977","1","1","4","0.2,0.8,0.2,0.8,0.2,0.8,0.8,0.2",""
"","html-keyboard-response","388","144805","0.0-388.0","3DIP6YHAPDESN6181QGC3WXXCDQ8EB","A2BK9RMC0NOIH8","3TZDZ3Y0JSSRVQSC3SM97PDQ3Z7196","","null","<img src=""img/food7.png"" style=""width:200px; border:14px solid green;"">","null","","","","","",""
"","image-keyboard-response","389","144920","0.0-389.0","3DIP6YHAPDESN6181QGC3WXXCDQ8EB","A2BK9RMC0NOIH8","3TZDZ3Y0JSSRVQSC3SM97PDQ3Z7196","","115","img/food4.png","76","115.40000000596046","2","0","1","0.2,0.8,0.2,0.8,0.2,0.8,0.8,0.2",""
"","html-keyboard-response","390","145221","0.0-390.0","3DIP6YHAPDESN6181QGC3WXXCDQ8EB","A2BK9RMC0NOIH8","3TZDZ3Y0JSSRVQSC3SM97PDQ3Z7196","","null","<img src=""img/food4.png"" style=""width:200px;border:14px solid red;"">","null","","","","","",""
"","image-keyboard-response","391","145424","0.0-391.0","3DIP6YHAPDESN6181QGC3WXXCDQ8EB","A2BK9RMC0NOIH8","3TZDZ3Y0JSSRVQSC3SM97PDQ3Z7196","","202.59999999403954","img/food4.png","75","203.20000000298023","1","0","1","0.2,0.8,0.2,0.8,0.2,0.8,0.8,0.2",""
"","html-keyboard-response","392","145726","0.0-392.0","3DIP6YHAPDESN6181QGC3WXXCDQ8EB","A2BK9RMC0NOIH8","3TZDZ3Y0JSSRVQSC3SM97PDQ3Z7196","","null","<img src=""img/food4.png"" style=""width:200px;border:14px solid red;"">","null","","","","","",""
"","image-keyboard-response","393","145920","0.0-393.0","3DIP6YHAPDESN6181QGC3WXXCDQ8EB","A2BK9RMC0NOIH8","3TZDZ3Y0JSSRVQSC3SM97PDQ3Z7196","","193.59999999403954","img/food6.png","76","194.09999999403954","2","0","2","0.2,0.8,0.2,0.8,0.2,0.8,0.8,0.2",""
"","html-keyboard-response","394","146221","0.0-394.0","3DIP6YHAPDESN6181QGC3WXXCDQ8EB","A2BK9RMC0NOIH8","3TZDZ3Y0JSSRVQSC3SM97PDQ3Z7196","","null","<img src=""img/food6.png"" style=""width:200px;border:14px solid red;"">","null","","","","","",""
"","image-keyboard-response","395","146400","0.0-395.0","3DIP6YHAPDESN6181QGC3WXXCDQ8EB","A2BK9RMC0NOIH8","3TZDZ3Y0JSSRVQSC3SM97PDQ3Z7196","","178.59999999403954","img/food6.png","75","178.8999999910593","1","0","2","0.2,0.8,0.2,0.8,0.2,0.8,0.8,0.2",""
"","html-keyboard-response","396","146701","0.0-396.0","3DIP6YHAPDESN6181QGC3WXXCDQ8EB","A2BK9RMC0NOIH8","3TZDZ3Y0JSSRVQSC3SM97PDQ3Z7196","","null","<img src=""img/food6.png"" style=""width:200px;border:14px solid red;"">","null","","","","","",""
"","image-keyboard-response","397","146960","0.0-397.0","3DIP6YHAPDESN6181QGC3WXXCDQ8EB","A2BK9RMC0NOIH8","3TZDZ3Y0JSSRVQSC3SM97PDQ3Z7196","","258.40000000596046","img/food2.png","76","258.8999999910593","2","1","3","0.2,0.8,0.2,0.8,0.2,0.8,0.8,0.2",""
"","html-keyboard-response","398","147262","0.0-398.0","3DIP6YHAPDESN6181QGC3WXXCDQ8EB","A2BK9RMC0NOIH8","3TZDZ3Y0JSSRVQSC3SM97PDQ3Z7196","","null","<img src=""img/food2.png"" style=""width:200px; border:14px solid green;"">","null","","","","","",""
"","image-keyboard-response","399","147424","0.0-399.0","3DIP6YHAPDESN6181QGC3WXXCDQ8EB","A2BK9RMC0NOIH8","3TZDZ3Y0JSSRVQSC3SM97PDQ3Z7196","","161.70000000298023","img/food6.png","75","162.09999999403954","1","1","2","0.2,0.8,0.2,0.8,0.2,0.8,0.8,0.2",""
"","html-keyboard-response","400","147726","0.0-400.0","3DIP6YHAPDESN6181QGC3WXXCDQ8EB","A2BK9RMC0NOIH8","3TZDZ3Y0JSSRVQSC3SM97PDQ3Z7196","","null","<img src=""img/food6.png"" style=""width:200px; border:14px solid green;"">","null","","","","","",""
"","image-keyboard-response","401","147776","0.0-401.0","3DIP6YHAPDESN6181QGC3WXXCDQ8EB","A2BK9RMC0NOIH8","3TZDZ3Y0JSSRVQSC3SM97PDQ3Z7196","","49.5","img/food6.png","76","49.79999999701977","2","1","2","0.2,0.8,0.2,0.8,0.2,0.8,0.8,0.2",""
"","html-keyboard-response","402","148078","0.0-402.0","3DIP6YHAPDESN6181QGC3WXXCDQ8EB","A2BK9RMC0NOIH8","3TZDZ3Y0JSSRVQSC3SM97PDQ3Z7196","","null","<img src=""img/food6.png"" style=""width:200px; border:14px solid green;"">","null","","","","","",""
