"success","trial_type","trial_index","time_elapsed","internal_node_id","assignmentID","mturkID","hitID","view_history","rt","stimulus","key_press","reactionTime","a","r","warning","s","cond","reward_cond","reward_cond_actual","reward_matrix_idx","responses"
"true","fullscreen","0","2597","0.0-0.0","3EO896NRAXHJW6FOIP2YR86CZIJTJQ","A2CDPJ7FMJ4WHG","3HUR21WDDUBEMSLDIXZW1FAIHWSYXN","","","","","","","","","","","","","",""
"","instructions","1","14192","0.0-1.0","3EO896NRAXHJW6FOIP2YR86CZIJTJQ","A2CDPJ7FMJ4WHG","3HUR21WDDUBEMSLDIXZW1FAIHWSYXN","[{""page_index"":0,""viewing_time"":959.2000000029802},{""page_index"":1,""viewing_time"":1233.2999999970198},{""page_index"":2,""viewing_time"":300.79999999701977},{""page_index"":3,""viewing_time"":2582.300000011921},{""page_index"":4,""viewing_time"":2616.5999999940395},{""page_index"":5,""viewing_time"":2866.9000000059605},{""page_index"":6,""viewing_time"":1033}]","11592.79999999702","","","","","","","","","","","",""
"","instructions","2","31307","0.0-2.0","3EO896NRAXHJW6FOIP2YR86CZIJTJQ","A2CDPJ7FMJ4WHG","3HUR21WDDUBEMSLDIXZW1FAIHWSYXN","[{""page_index"":0,""viewing_time"":15147.59999999404},{""page_index"":1,""viewing_time"":1966.1000000089407}]","17114","","","","","","","","","","","",""
"","image-keyboard-response","3","31839","0.0-3.0","3EO896NRAXHJW6FOIP2YR86CZIJTJQ","A2CDPJ7FMJ4WHG","3HUR21WDDUBEMSLDIXZW1FAIHWSYXN","","530.2000000029802","img/food5.png","75","531.9000000059605","2","1","false","3","2","1,0.5,0,1,0.5,0,0.5,0,1","0.5,0,1,0.5,0,1,0,1,0.5","2",""
"","html-keyboard-response","4","32147","0.0-4.0","3EO896NRAXHJW6FOIP2YR86CZIJTJQ","A2CDPJ7FMJ4WHG","3HUR21WDDUBEMSLDIXZW1FAIHWSYXN","","null","<img src=""img/food5.png"" style=""width:200px; border:14px solid green;"">","null","","","","","","","","","",""
"","image-keyboard-response","5","32303","0.0-6.0","3EO896NRAXHJW6FOIP2YR86CZIJTJQ","A2CDPJ7FMJ4WHG","3HUR21WDDUBEMSLDIXZW1FAIHWSYXN","","153.5","img/food3.png","75","154.80000001192093","2","0","false","1","2","1,0.5,0,1,0.5,0,0.5,0,1","0.5,0,1,0.5,0,1,0,1,0.5","2",""
"","html-keyboard-response","6","32610","0.0-7.0","3EO896NRAXHJW6FOIP2YR86CZIJTJQ","A2CDPJ7FMJ4WHG","3HUR21WDDUBEMSLDIXZW1FAIHWSYXN","","null","<img src=""img/food3.png"" style=""width:200px;border:14px solid red;"">","null","","","","","","","","","",""
"","image-keyboard-response","7","32730","0.0-9.0","3EO896NRAXHJW6FOIP2YR86CZIJTJQ","A2CDPJ7FMJ4WHG","3HUR21WDDUBEMSLDIXZW1FAIHWSYXN","","118.6000000089407","img/food3.png","76","119.80000001192093","3","1","false","1","2","1,0.5,0,1,0.5,0,0.5,0,1","0.5,0,1,0.5,0,1,0,1,0.5","2",""
"","html-keyboard-response","8","33034","0.0-10.0","3EO896NRAXHJW6FOIP2YR86CZIJTJQ","A2CDPJ7FMJ4WHG","3HUR21WDDUBEMSLDIXZW1FAIHWSYXN","","null","<img src=""img/food3.png"" style=""width:200px; border:14px solid green;"">","null","","","","","","","","","",""
"","image-keyboard-response","9","33162","0.0-12.0","3EO896NRAXHJW6FOIP2YR86CZIJTJQ","A2CDPJ7FMJ4WHG","3HUR21WDDUBEMSLDIXZW1FAIHWSYXN","","125.79999999701977","img/food1.png","76","127.29999999701977","3","1","false","2","2","1,0.5,0,1,0.5,0,0.5,0,1","0.5,0,1,0.5,0,1,0,1,0.5","2",""
"","html-keyboard-response","10","33468","0.0-13.0","3EO896NRAXHJW6FOIP2YR86CZIJTJQ","A2CDPJ7FMJ4WHG","3HUR21WDDUBEMSLDIXZW1FAIHWSYXN","","null","<img src=""img/food1.png"" style=""width:200px; border:14px solid green;"">","null","","","","","","","","","",""
"","image-keyboard-response","11","33580","0.0-15.0","3EO896NRAXHJW6FOIP2YR86CZIJTJQ","A2CDPJ7FMJ4WHG","3HUR21WDDUBEMSLDIXZW1FAIHWSYXN","","110.3999999910593","img/food1.png","75","111.70000000298023","2","0","false","2","2","1,0.5,0,1,0.5,0,0.5,0,1","0.5,0,1,0.5,0,1,0,1,0.5","2",""
"","html-keyboard-response","12","33885","0.0-16.0","3EO896NRAXHJW6FOIP2YR86CZIJTJQ","A2CDPJ7FMJ4WHG","3HUR21WDDUBEMSLDIXZW1FAIHWSYXN","","null","<img src=""img/food1.png"" style=""width:200px;border:14px solid red;"">","null","","","","","","","","","",""
"","image-keyboard-response","13","34017","0.0-18.0","3EO896NRAXHJW6FOIP2YR86CZIJTJQ","A2CDPJ7FMJ4WHG","3HUR21WDDUBEMSLDIXZW1FAIHWSYXN","","130.20000000298023","img/food1.png","75","131.5","2","0","false","2","2","1,0.5,0,1,0.5,0,0.5,0,1","0.5,0,1,0.5,0,1,0,1,0.5","2",""
"","html-keyboard-response","14","34319","0.0-19.0","3EO896NRAXHJW6FOIP2YR86CZIJTJQ","A2CDPJ7FMJ4WHG","3HUR21WDDUBEMSLDIXZW1FAIHWSYXN","","null","<img src=""img/food1.png"" style=""width:200px;border:14px solid red;"">","null","","","","","","","","","",""
"","image-keyboard-response","15","34378","0.0-21.0","3EO896NRAXHJW6FOIP2YR86CZIJTJQ","A2CDPJ7FMJ4WHG","3HUR21WDDUBEMSLDIXZW1FAIHWSYXN","","56.70000000298023","img/food3.png","76","58","3","1","false","1","2","1,0.5,0,1,0.5,0,0.5,0,1","0.5,0,1,0.5,0,1,0,1,0.5","2",""
"","html-keyboard-response","16","34684","0.0-22.0","3EO896NRAXHJW6FOIP2YR86CZIJTJQ","A2CDPJ7FMJ4WHG","3HUR21WDDUBEMSLDIXZW1FAIHWSYXN","","null","<img src=""img/food3.png"" style=""width:200px; border:14px solid green;"">","null","","","","","","","","","",""
"","image-keyboard-response","17","34833","0.0-24.0","3EO896NRAXHJW6FOIP2YR86CZIJTJQ","A2CDPJ7FMJ4WHG","3HUR21WDDUBEMSLDIXZW1FAIHWSYXN","","146.8999999910593","img/food3.png","76","148.09999999403954","3","1","false","1","2","1,0.5,0,1,0.5,0,0.5,0,1","0.5,0,1,0.5,0,1,0,1,0.5","2",""
"","html-keyboard-response","18","35139","0.0-25.0","3EO896NRAXHJW6FOIP2YR86CZIJTJQ","A2CDPJ7FMJ4WHG","3HUR21WDDUBEMSLDIXZW1FAIHWSYXN","","null","<img src=""img/food3.png"" style=""width:200px; border:14px solid green;"">","null","","","","","","","","","",""
"","image-keyboard-response","19","35248","0.0-27.0","3EO896NRAXHJW6FOIP2YR86CZIJTJQ","A2CDPJ7FMJ4WHG","3HUR21WDDUBEMSLDIXZW1FAIHWSYXN","","106.59999999403954","img/food3.png","76","107.90000000596046","3","1","false","1","2","1,0.5,0,1,0.5,0,0.5,0,1","0.5,0,1,0.5,0,1,0,1,0.5","2",""
"","html-keyboard-response","20","35554","0.0-28.0","3EO896NRAXHJW6FOIP2YR86CZIJTJQ","A2CDPJ7FMJ4WHG","3HUR21WDDUBEMSLDIXZW1FAIHWSYXN","","null","<img src=""img/food3.png"" style=""width:200px; border:14px solid green;"">","null","","","","","","","","","",""
"","image-keyboard-response","21","35592","0.0-30.0","3EO896NRAXHJW6FOIP2YR86CZIJTJQ","A2CDPJ7FMJ4WHG","3HUR21WDDUBEMSLDIXZW1FAIHWSYXN","","35.70000000298023","img/food1.png","74","37.099999994039536","1","1","false","2","2","1,0.5,0,1,0.5,0,0.5,0,1","0.5,0,1,0.5,0,1,0,1,0.5","2",""
"","html-keyboard-response","22","35899","0.0-31.0","3EO896NRAXHJW6FOIP2YR86CZIJTJQ","A2CDPJ7FMJ4WHG","3HUR21WDDUBEMSLDIXZW1FAIHWSYXN","","null","<img src=""img/food1.png"" style=""width:200px; border:14px solid green;"">","null","","","","","","","","","",""
"","image-keyboard-response","23","35992","0.0-33.0","3EO896NRAXHJW6FOIP2YR86CZIJTJQ","A2CDPJ7FMJ4WHG","3HUR21WDDUBEMSLDIXZW1FAIHWSYXN","","91.59999999403954","img/food5.png","76","92.79999999701977","3","1","false","3","2","1,0.5,0,1,0.5,0,0.5,0,1","0.5,0,1,0.5,0,1,0,1,0.5","2",""
"","html-keyboard-response","24","36295","0.0-34.0","3EO896NRAXHJW6FOIP2YR86CZIJTJQ","A2CDPJ7FMJ4WHG","3HUR21WDDUBEMSLDIXZW1FAIHWSYXN","","null","<img src=""img/food5.png"" style=""width:200px; border:14px solid green;"">","null","","","","","","","","","",""
"","image-keyboard-response","25","36374","0.0-36.0","3EO896NRAXHJW6FOIP2YR86CZIJTJQ","A2CDPJ7FMJ4WHG","3HUR21WDDUBEMSLDIXZW1FAIHWSYXN","","77.70000000298023","img/food5.png","76","78.79999999701977","3","0","false","3","2","1,0.5,0,1,0.5,0,0.5,0,1","0.5,0,1,0.5,0,1,0,1,0.5","2",""
"","html-keyboard-response","26","36681","0.0-37.0","3EO896NRAXHJW6FOIP2YR86CZIJTJQ","A2CDPJ7FMJ4WHG","3HUR21WDDUBEMSLDIXZW1FAIHWSYXN","","null","<img src=""img/food5.png"" style=""width:200px;border:14px solid red;"">","null","","","","","","","","","",""
"","image-keyboard-response","27","36787","0.0-39.0","3EO896NRAXHJW6FOIP2YR86CZIJTJQ","A2CDPJ7FMJ4WHG","3HUR21WDDUBEMSLDIXZW1FAIHWSYXN","","104.19999998807907","img/food1.png","74","105.29999999701977","1","1","false","2","2","1,0.5,0,1,0.5,0,0.5,0,1","0.5,0,1,0.5,0,1,0,1,0.5","2",""
"","html-keyboard-response","28","37094","0.0-40.0","3EO896NRAXHJW6FOIP2YR86CZIJTJQ","A2CDPJ7FMJ4WHG","3HUR21WDDUBEMSLDIXZW1FAIHWSYXN","","null","<img src=""img/food1.png"" style=""width:200px; border:14px solid green;"">","null","","","","","","","","","",""
"","image-keyboard-response","29","37237","0.0-42.0","3EO896NRAXHJW6FOIP2YR86CZIJTJQ","A2CDPJ7FMJ4WHG","3HUR21WDDUBEMSLDIXZW1FAIHWSYXN","","141.80000001192093","img/food5.png","76","143.1000000089407","3","1","false","3","2","1,0.5,0,1,0.5,0,0.5,0,1","0.5,0,1,0.5,0,1,0,1,0.5","2",""
"","html-keyboard-response","30","37542","0.0-43.0","3EO896NRAXHJW6FOIP2YR86CZIJTJQ","A2CDPJ7FMJ4WHG","3HUR21WDDUBEMSLDIXZW1FAIHWSYXN","","null","<img src=""img/food5.png"" style=""width:200px; border:14px solid green;"">","null","","","","","","","","","",""
"","image-keyboard-response","31","37663","0.0-45.0","3EO896NRAXHJW6FOIP2YR86CZIJTJQ","A2CDPJ7FMJ4WHG","3HUR21WDDUBEMSLDIXZW1FAIHWSYXN","","119.90000000596046","img/food5.png","75","121","2","1","false","3","2","1,0.5,0,1,0.5,0,0.5,0,1","0.5,0,1,0.5,0,1,0,1,0.5","2",""
"","html-keyboard-response","32","37971","0.0-46.0","3EO896NRAXHJW6FOIP2YR86CZIJTJQ","A2CDPJ7FMJ4WHG","3HUR21WDDUBEMSLDIXZW1FAIHWSYXN","","null","<img src=""img/food5.png"" style=""width:200px; border:14px solid green;"">","null","","","","","","","","","",""
"","image-keyboard-response","33","38041","0.0-48.0","3EO896NRAXHJW6FOIP2YR86CZIJTJQ","A2CDPJ7FMJ4WHG","3HUR21WDDUBEMSLDIXZW1FAIHWSYXN","","69.1000000089407","img/food5.png","75","70.30000001192093","2","1","false","3","2","1,0.5,0,1,0.5,0,0.5,0,1","0.5,0,1,0.5,0,1,0,1,0.5","2",""
"","html-keyboard-response","34","38347","0.0-49.0","3EO896NRAXHJW6FOIP2YR86CZIJTJQ","A2CDPJ7FMJ4WHG","3HUR21WDDUBEMSLDIXZW1FAIHWSYXN","","null","<img src=""img/food5.png"" style=""width:200px; border:14px solid green;"">","null","","","","","","","","","",""
"","image-keyboard-response","35","38422","0.0-51.0","3EO896NRAXHJW6FOIP2YR86CZIJTJQ","A2CDPJ7FMJ4WHG","3HUR21WDDUBEMSLDIXZW1FAIHWSYXN","","73.70000000298023","img/food3.png","76","74.70000000298023","3","1","false","1","2","1,0.5,0,1,0.5,0,0.5,0,1","0.5,0,1,0.5,0,1,0,1,0.5","2",""
"","html-keyboard-response","36","38726","0.0-52.0","3EO896NRAXHJW6FOIP2YR86CZIJTJQ","A2CDPJ7FMJ4WHG","3HUR21WDDUBEMSLDIXZW1FAIHWSYXN","","null","<img src=""img/food3.png"" style=""width:200px; border:14px solid green;"">","null","","","","","","","","","",""
"","image-keyboard-response","37","38766","0.0-54.0","3EO896NRAXHJW6FOIP2YR86CZIJTJQ","A2CDPJ7FMJ4WHG","3HUR21WDDUBEMSLDIXZW1FAIHWSYXN","","39.30000001192093","img/food3.png","76","40.29999999701977","3","1","false","1","2","1,0.5,0,1,0.5,0,0.5,0,1","0.5,0,1,0.5,0,1,0,1,0.5","2",""
"","html-keyboard-response","38","39069","0.0-55.0","3EO896NRAXHJW6FOIP2YR86CZIJTJQ","A2CDPJ7FMJ4WHG","3HUR21WDDUBEMSLDIXZW1FAIHWSYXN","","null","<img src=""img/food3.png"" style=""width:200px; border:14px solid green;"">","null","","","","","","","","","",""
"","image-keyboard-response","39","39459","0.0-57.0","3EO896NRAXHJW6FOIP2YR86CZIJTJQ","A2CDPJ7FMJ4WHG","3HUR21WDDUBEMSLDIXZW1FAIHWSYXN","","387.70000000298023","img/food3.png","76","388.79999999701977","3","1","false","1","2","1,0.5,0,1,0.5,0,0.5,0,1","0.5,0,1,0.5,0,1,0,1,0.5","2",""
"","html-keyboard-response","40","39764","0.0-58.0","3EO896NRAXHJW6FOIP2YR86CZIJTJQ","A2CDPJ7FMJ4WHG","3HUR21WDDUBEMSLDIXZW1FAIHWSYXN","","null","<img src=""img/food3.png"" style=""width:200px; border:14px solid green;"">","null","","","","","","","","","",""
"","image-keyboard-response","41","39966","0.0-60.0","3EO896NRAXHJW6FOIP2YR86CZIJTJQ","A2CDPJ7FMJ4WHG","3HUR21WDDUBEMSLDIXZW1FAIHWSYXN","","200.20000000298023","img/food3.png","75","201.40000000596046","2","0","false","1","2","1,0.5,0,1,0.5,0,0.5,0,1","0.5,0,1,0.5,0,1,0,1,0.5","2",""
"","html-keyboard-response","42","40272","0.0-61.0","3EO896NRAXHJW6FOIP2YR86CZIJTJQ","A2CDPJ7FMJ4WHG","3HUR21WDDUBEMSLDIXZW1FAIHWSYXN","","null","<img src=""img/food3.png"" style=""width:200px;border:14px solid red;"">","null","","","","","","","","","",""
"","image-keyboard-response","43","40429","0.0-63.0","3EO896NRAXHJW6FOIP2YR86CZIJTJQ","A2CDPJ7FMJ4WHG","3HUR21WDDUBEMSLDIXZW1FAIHWSYXN","","156.1000000089407","img/food3.png","76","157.20000000298023","3","1","false","1","2","1,0.5,0,1,0.5,0,0.5,0,1","0.5,0,1,0.5,0,1,0,1,0.5","2",""
"","html-keyboard-response","44","40736","0.0-64.0","3EO896NRAXHJW6FOIP2YR86CZIJTJQ","A2CDPJ7FMJ4WHG","3HUR21WDDUBEMSLDIXZW1FAIHWSYXN","","null","<img src=""img/food3.png"" style=""width:200px; border:14px solid green;"">","null","","","","","","","","","",""
"","image-keyboard-response","45","40980","0.0-66.0","3EO896NRAXHJW6FOIP2YR86CZIJTJQ","A2CDPJ7FMJ4WHG","3HUR21WDDUBEMSLDIXZW1FAIHWSYXN","","242.5","img/food3.png","76","243.59999999403954","3","1","false","1","2","1,0.5,0,1,0.5,0,0.5,0,1","0.5,0,1,0.5,0,1,0,1,0.5","2",""
"","html-keyboard-response","46","41287","0.0-67.0","3EO896NRAXHJW6FOIP2YR86CZIJTJQ","A2CDPJ7FMJ4WHG","3HUR21WDDUBEMSLDIXZW1FAIHWSYXN","","null","<img src=""img/food3.png"" style=""width:200px; border:14px solid green;"">","null","","","","","","","","","",""
"","image-keyboard-response","47","41492","0.0-69.0","3EO896NRAXHJW6FOIP2YR86CZIJTJQ","A2CDPJ7FMJ4WHG","3HUR21WDDUBEMSLDIXZW1FAIHWSYXN","","204.5","img/food3.png","75","205.5","2","0","false","1","2","1,0.5,0,1,0.5,0,0.5,0,1","0.5,0,1,0.5,0,1,0,1,0.5","2",""
"","html-keyboard-response","48","41797","0.0-70.0","3EO896NRAXHJW6FOIP2YR86CZIJTJQ","A2CDPJ7FMJ4WHG","3HUR21WDDUBEMSLDIXZW1FAIHWSYXN","","null","<img src=""img/food3.png"" style=""width:200px;border:14px solid red;"">","null","","","","","","","","","",""
"","image-keyboard-response","49","41928","0.0-72.0","3EO896NRAXHJW6FOIP2YR86CZIJTJQ","A2CDPJ7FMJ4WHG","3HUR21WDDUBEMSLDIXZW1FAIHWSYXN","","128.29999999701977","img/food3.png","75","129.70000000298023","2","0","false","1","2","1,0.5,0,1,0.5,0,0.5,0,1","0.5,0,1,0.5,0,1,0,1,0.5","2",""
"","html-keyboard-response","50","42230","0.0-73.0","3EO896NRAXHJW6FOIP2YR86CZIJTJQ","A2CDPJ7FMJ4WHG","3HUR21WDDUBEMSLDIXZW1FAIHWSYXN","","null","<img src=""img/food3.png"" style=""width:200px;border:14px solid red;"">","null","","","","","","","","","",""
"","image-keyboard-response","51","42426","0.0-75.0","3EO896NRAXHJW6FOIP2YR86CZIJTJQ","A2CDPJ7FMJ4WHG","3HUR21WDDUBEMSLDIXZW1FAIHWSYXN","","193.8999999910593","img/food3.png","76","194.90000000596046","3","1","false","1","2","1,0.5,0,1,0.5,0,0.5,0,1","0.5,0,1,0.5,0,1,0,1,0.5","2",""
"","html-keyboard-response","52","42732","0.0-76.0","3EO896NRAXHJW6FOIP2YR86CZIJTJQ","A2CDPJ7FMJ4WHG","3HUR21WDDUBEMSLDIXZW1FAIHWSYXN","","null","<img src=""img/food3.png"" style=""width:200px; border:14px solid green;"">","null","","","","","","","","","",""
"","image-keyboard-response","53","42838","0.0-78.0","3EO896NRAXHJW6FOIP2YR86CZIJTJQ","A2CDPJ7FMJ4WHG","3HUR21WDDUBEMSLDIXZW1FAIHWSYXN","","103.6000000089407","img/food5.png","74","104.80000001192093","1","0","false","3","2","1,0.5,0,1,0.5,0,0.5,0,1","0.5,0,1,0.5,0,1,0,1,0.5","2",""
"","html-keyboard-response","54","43144","0.0-79.0","3EO896NRAXHJW6FOIP2YR86CZIJTJQ","A2CDPJ7FMJ4WHG","3HUR21WDDUBEMSLDIXZW1FAIHWSYXN","","null","<img src=""img/food5.png"" style=""width:200px;border:14px solid red;"">","null","","","","","","","","","",""
"","image-keyboard-response","55","43338","0.0-81.0","3EO896NRAXHJW6FOIP2YR86CZIJTJQ","A2CDPJ7FMJ4WHG","3HUR21WDDUBEMSLDIXZW1FAIHWSYXN","","191.79999999701977","img/food1.png","75","192.8999999910593","2","0","false","2","2","1,0.5,0,1,0.5,0,0.5,0,1","0.5,0,1,0.5,0,1,0,1,0.5","2",""
"","html-keyboard-response","56","43640","0.0-82.0","3EO896NRAXHJW6FOIP2YR86CZIJTJQ","A2CDPJ7FMJ4WHG","3HUR21WDDUBEMSLDIXZW1FAIHWSYXN","","null","<img src=""img/food1.png"" style=""width:200px;border:14px solid red;"">","null","","","","","","","","","",""
"","image-keyboard-response","57","43865","0.0-84.0","3EO896NRAXHJW6FOIP2YR86CZIJTJQ","A2CDPJ7FMJ4WHG","3HUR21WDDUBEMSLDIXZW1FAIHWSYXN","","223.90000000596046","img/food3.png","76","225","3","1","false","1","2","1,0.5,0,1,0.5,0,0.5,0,1","0.5,0,1,0.5,0,1,0,1,0.5","2",""
"","html-keyboard-response","58","44168","0.0-85.0","3EO896NRAXHJW6FOIP2YR86CZIJTJQ","A2CDPJ7FMJ4WHG","3HUR21WDDUBEMSLDIXZW1FAIHWSYXN","","null","<img src=""img/food3.png"" style=""width:200px; border:14px solid green;"">","null","","","","","","","","","",""
"","image-keyboard-response","59","44279","0.0-87.0","3EO896NRAXHJW6FOIP2YR86CZIJTJQ","A2CDPJ7FMJ4WHG","3HUR21WDDUBEMSLDIXZW1FAIHWSYXN","","109.69999998807907","img/food1.png","75","110.79999999701977","2","0","false","2","2","1,0.5,0,1,0.5,0,0.5,0,1","0.5,0,1,0.5,0,1,0,1,0.5","2",""
"","html-keyboard-response","60","44586","0.0-88.0","3EO896NRAXHJW6FOIP2YR86CZIJTJQ","A2CDPJ7FMJ4WHG","3HUR21WDDUBEMSLDIXZW1FAIHWSYXN","","null","<img src=""img/food1.png"" style=""width:200px;border:14px solid red;"">","null","","","","","","","","","",""
"","image-keyboard-response","61","44763","0.0-90.0","3EO896NRAXHJW6FOIP2YR86CZIJTJQ","A2CDPJ7FMJ4WHG","3HUR21WDDUBEMSLDIXZW1FAIHWSYXN","","175.69999998807907","img/food3.png","75","176.8999999910593","2","0","false","1","2","1,0.5,0,1,0.5,0,0.5,0,1","0.5,0,1,0.5,0,1,0,1,0.5","2",""
"","html-keyboard-response","62","45069","0.0-91.0","3EO896NRAXHJW6FOIP2YR86CZIJTJQ","A2CDPJ7FMJ4WHG","3HUR21WDDUBEMSLDIXZW1FAIHWSYXN","","null","<img src=""img/food3.png"" style=""width:200px;border:14px solid red;"">","null","","","","","","","","","",""
"","image-keyboard-response","63","45217","0.0-93.0","3EO896NRAXHJW6FOIP2YR86CZIJTJQ","A2CDPJ7FMJ4WHG","3HUR21WDDUBEMSLDIXZW1FAIHWSYXN","","147","img/food5.png","76","148.29999999701977","3","1","false","3","2","1,0.5,0,1,0.5,0,0.5,0,1","0.5,0,1,0.5,0,1,0,1,0.5","2",""
"","html-keyboard-response","64","45520","0.0-94.0","3EO896NRAXHJW6FOIP2YR86CZIJTJQ","A2CDPJ7FMJ4WHG","3HUR21WDDUBEMSLDIXZW1FAIHWSYXN","","null","<img src=""img/food5.png"" style=""width:200px; border:14px solid green;"">","null","","","","","","","","","",""
"","image-keyboard-response","65","45639","0.0-96.0","3EO896NRAXHJW6FOIP2YR86CZIJTJQ","A2CDPJ7FMJ4WHG","3HUR21WDDUBEMSLDIXZW1FAIHWSYXN","","118","img/food3.png","75","119.19999998807907","2","0","false","1","2","1,0.5,0,1,0.5,0,0.5,0,1","0.5,0,1,0.5,0,1,0,1,0.5","2",""
"","html-keyboard-response","66","45943","0.0-97.0","3EO896NRAXHJW6FOIP2YR86CZIJTJQ","A2CDPJ7FMJ4WHG","3HUR21WDDUBEMSLDIXZW1FAIHWSYXN","","null","<img src=""img/food3.png"" style=""width:200px;border:14px solid red;"">","null","","","","","","","","","",""
"","image-keyboard-response","67","46131","0.0-99.0","3EO896NRAXHJW6FOIP2YR86CZIJTJQ","A2CDPJ7FMJ4WHG","3HUR21WDDUBEMSLDIXZW1FAIHWSYXN","","186.3999999910593","img/food5.png","74","187.5","1","0","false","3","2","1,0.5,0,1,0.5,0,0.5,0,1","0.5,0,1,0.5,0,1,0,1,0.5","2",""
"","html-keyboard-response","68","46438","0.0-100.0","3EO896NRAXHJW6FOIP2YR86CZIJTJQ","A2CDPJ7FMJ4WHG","3HUR21WDDUBEMSLDIXZW1FAIHWSYXN","","null","<img src=""img/food5.png"" style=""width:200px;border:14px solid red;"">","null","","","","","","","","","",""
"","image-keyboard-response","69","46617","0.0-102.0","3EO896NRAXHJW6FOIP2YR86CZIJTJQ","A2CDPJ7FMJ4WHG","3HUR21WDDUBEMSLDIXZW1FAIHWSYXN","","177.8999999910593","img/food1.png","74","179","1","1","false","2","2","1,0.5,0,1,0.5,0,0.5,0,1","0.5,0,1,0.5,0,1,0,1,0.5","2",""
"","html-keyboard-response","70","46920","0.0-103.0","3EO896NRAXHJW6FOIP2YR86CZIJTJQ","A2CDPJ7FMJ4WHG","3HUR21WDDUBEMSLDIXZW1FAIHWSYXN","","null","<img src=""img/food1.png"" style=""width:200px; border:14px solid green;"">","null","","","","","","","","","",""
"","image-keyboard-response","71","46991","0.0-105.0","3EO896NRAXHJW6FOIP2YR86CZIJTJQ","A2CDPJ7FMJ4WHG","3HUR21WDDUBEMSLDIXZW1FAIHWSYXN","","69.8999999910593","img/food5.png","75","71.09999999403954","2","1","false","3","2","1,0.5,0,1,0.5,0,0.5,0,1","0.5,0,1,0.5,0,1,0,1,0.5","2",""
"","html-keyboard-response","72","47297","0.0-106.0","3EO896NRAXHJW6FOIP2YR86CZIJTJQ","A2CDPJ7FMJ4WHG","3HUR21WDDUBEMSLDIXZW1FAIHWSYXN","","null","<img src=""img/food5.png"" style=""width:200px; border:14px solid green;"">","null","","","","","","","","","",""
"","image-keyboard-response","73","47421","0.0-108.0","3EO896NRAXHJW6FOIP2YR86CZIJTJQ","A2CDPJ7FMJ4WHG","3HUR21WDDUBEMSLDIXZW1FAIHWSYXN","","122.29999999701977","img/food5.png","75","123.30000001192093","2","1","false","3","2","1,0.5,0,1,0.5,0,0.5,0,1","0.5,0,1,0.5,0,1,0,1,0.5","2",""
"","html-keyboard-response","74","47724","0.0-109.0","3EO896NRAXHJW6FOIP2YR86CZIJTJQ","A2CDPJ7FMJ4WHG","3HUR21WDDUBEMSLDIXZW1FAIHWSYXN","","null","<img src=""img/food5.png"" style=""width:200px; border:14px solid green;"">","null","","","","","","","","","",""
"","image-keyboard-response","75","47869","0.0-111.0","3EO896NRAXHJW6FOIP2YR86CZIJTJQ","A2CDPJ7FMJ4WHG","3HUR21WDDUBEMSLDIXZW1FAIHWSYXN","","143.6000000089407","img/food5.png","76","144.59999999403954","3","0","false","3","2","1,0.5,0,1,0.5,0,0.5,0,1","0.5,0,1,0.5,0,1,0,1,0.5","2",""
"","html-keyboard-response","76","48175","0.0-112.0","3EO896NRAXHJW6FOIP2YR86CZIJTJQ","A2CDPJ7FMJ4WHG","3HUR21WDDUBEMSLDIXZW1FAIHWSYXN","","null","<img src=""img/food5.png"" style=""width:200px;border:14px solid red;"">","null","","","","","","","","","",""
"","image-keyboard-response","77","48272","0.0-114.0","3EO896NRAXHJW6FOIP2YR86CZIJTJQ","A2CDPJ7FMJ4WHG","3HUR21WDDUBEMSLDIXZW1FAIHWSYXN","","95.20000000298023","img/food1.png","75","96.5","2","0","false","2","2","1,0.5,0,1,0.5,0,0.5,0,1","0.5,0,1,0.5,0,1,0,1,0.5","2",""
"","html-keyboard-response","78","48577","0.0-115.0","3EO896NRAXHJW6FOIP2YR86CZIJTJQ","A2CDPJ7FMJ4WHG","3HUR21WDDUBEMSLDIXZW1FAIHWSYXN","","null","<img src=""img/food1.png"" style=""width:200px;border:14px solid red;"">","null","","","","","","","","","",""
"","image-keyboard-response","79","48714","0.0-117.0","3EO896NRAXHJW6FOIP2YR86CZIJTJQ","A2CDPJ7FMJ4WHG","3HUR21WDDUBEMSLDIXZW1FAIHWSYXN","","135.1000000089407","img/food5.png","75","136.40000000596046","2","1","false","3","2","1,0.5,0,1,0.5,0,0.5,0,1","0.5,0,1,0.5,0,1,0,1,0.5","2",""
"","html-keyboard-response","80","49021","0.0-118.0","3EO896NRAXHJW6FOIP2YR86CZIJTJQ","A2CDPJ7FMJ4WHG","3HUR21WDDUBEMSLDIXZW1FAIHWSYXN","","null","<img src=""img/food5.png"" style=""width:200px; border:14px solid green;"">","null","","","","","","","","","",""
"","image-keyboard-response","81","49163","0.0-120.0","3EO896NRAXHJW6FOIP2YR86CZIJTJQ","A2CDPJ7FMJ4WHG","3HUR21WDDUBEMSLDIXZW1FAIHWSYXN","","140.6000000089407","img/food3.png","74","141.80000001192093","1","1","false","1","2","1,0.5,0,1,0.5,0,0.5,0,1","0.5,0,1,0.5,0,1,0,1,0.5","2",""
"","html-keyboard-response","82","49466","0.0-121.0","3EO896NRAXHJW6FOIP2YR86CZIJTJQ","A2CDPJ7FMJ4WHG","3HUR21WDDUBEMSLDIXZW1FAIHWSYXN","","null","<img src=""img/food3.png"" style=""width:200px; border:14px solid green;"">","null","","","","","","","","","",""
"","image-keyboard-response","83","49603","0.0-123.0","3EO896NRAXHJW6FOIP2YR86CZIJTJQ","A2CDPJ7FMJ4WHG","3HUR21WDDUBEMSLDIXZW1FAIHWSYXN","","135.30000001192093","img/food3.png","75","136.5","2","0","false","1","2","1,0.5,0,1,0.5,0,0.5,0,1","0.5,0,1,0.5,0,1,0,1,0.5","2",""
"","html-keyboard-response","84","49906","0.0-124.0","3EO896NRAXHJW6FOIP2YR86CZIJTJQ","A2CDPJ7FMJ4WHG","3HUR21WDDUBEMSLDIXZW1FAIHWSYXN","","null","<img src=""img/food3.png"" style=""width:200px;border:14px solid red;"">","null","","","","","","","","","",""
"","image-keyboard-response","85","49994","0.0-126.0","3EO896NRAXHJW6FOIP2YR86CZIJTJQ","A2CDPJ7FMJ4WHG","3HUR21WDDUBEMSLDIXZW1FAIHWSYXN","","86.59999999403954","img/food1.png","75","87.90000000596046","2","0","false","2","2","1,0.5,0,1,0.5,0,0.5,0,1","0.5,0,1,0.5,0,1,0,1,0.5","2",""
"","html-keyboard-response","86","50300","0.0-127.0","3EO896NRAXHJW6FOIP2YR86CZIJTJQ","A2CDPJ7FMJ4WHG","3HUR21WDDUBEMSLDIXZW1FAIHWSYXN","","null","<img src=""img/food1.png"" style=""width:200px;border:14px solid red;"">","null","","","","","","","","","",""
"","image-keyboard-response","87","50449","0.0-129.0","3EO896NRAXHJW6FOIP2YR86CZIJTJQ","A2CDPJ7FMJ4WHG","3HUR21WDDUBEMSLDIXZW1FAIHWSYXN","","147.5","img/food5.png","75","148.79999999701977","2","1","false","3","2","1,0.5,0,1,0.5,0,0.5,0,1","0.5,0,1,0.5,0,1,0,1,0.5","2",""
"","html-keyboard-response","88","50756","0.0-130.0","3EO896NRAXHJW6FOIP2YR86CZIJTJQ","A2CDPJ7FMJ4WHG","3HUR21WDDUBEMSLDIXZW1FAIHWSYXN","","null","<img src=""img/food5.png"" style=""width:200px; border:14px solid green;"">","null","","","","","","","","","",""
"","image-keyboard-response","89","50931","0.0-132.0","3EO896NRAXHJW6FOIP2YR86CZIJTJQ","A2CDPJ7FMJ4WHG","3HUR21WDDUBEMSLDIXZW1FAIHWSYXN","","172.8999999910593","img/food1.png","75","174.20000000298023","2","0","false","2","2","1,0.5,0,1,0.5,0,0.5,0,1","0.5,0,1,0.5,0,1,0,1,0.5","2",""
"","html-keyboard-response","90","51234","0.0-133.0","3EO896NRAXHJW6FOIP2YR86CZIJTJQ","A2CDPJ7FMJ4WHG","3HUR21WDDUBEMSLDIXZW1FAIHWSYXN","","null","<img src=""img/food1.png"" style=""width:200px;border:14px solid red;"">","null","","","","","","","","","",""
"","image-keyboard-response","91","51363","0.0-135.0","3EO896NRAXHJW6FOIP2YR86CZIJTJQ","A2CDPJ7FMJ4WHG","3HUR21WDDUBEMSLDIXZW1FAIHWSYXN","","128","img/food3.png","76","129.1000000089407","3","1","false","1","2","1,0.5,0,1,0.5,0,0.5,0,1","0.5,0,1,0.5,0,1,0,1,0.5","2",""
"","html-keyboard-response","92","51670","0.0-136.0","3EO896NRAXHJW6FOIP2YR86CZIJTJQ","A2CDPJ7FMJ4WHG","3HUR21WDDUBEMSLDIXZW1FAIHWSYXN","","null","<img src=""img/food3.png"" style=""width:200px; border:14px solid green;"">","null","","","","","","","","","",""
"","image-keyboard-response","93","51764","0.0-138.0","3EO896NRAXHJW6FOIP2YR86CZIJTJQ","A2CDPJ7FMJ4WHG","3HUR21WDDUBEMSLDIXZW1FAIHWSYXN","","92.70000000298023","img/food3.png","75","93.79999999701977","2","0","false","1","2","1,0.5,0,1,0.5,0,0.5,0,1","0.5,0,1,0.5,0,1,0,1,0.5","2",""
"","html-keyboard-response","94","52068","0.0-139.0","3EO896NRAXHJW6FOIP2YR86CZIJTJQ","A2CDPJ7FMJ4WHG","3HUR21WDDUBEMSLDIXZW1FAIHWSYXN","","null","<img src=""img/food3.png"" style=""width:200px;border:14px solid red;"">","null","","","","","","","","","",""
"","image-keyboard-response","95","52195","0.0-141.0","3EO896NRAXHJW6FOIP2YR86CZIJTJQ","A2CDPJ7FMJ4WHG","3HUR21WDDUBEMSLDIXZW1FAIHWSYXN","","125.29999999701977","img/food1.png","74","126.5","1","0","false","2","2","1,0.5,0,1,0.5,0,0.5,0,1","0.5,0,1,0.5,0,1,0,1,0.5","2",""
"","html-keyboard-response","96","52497","0.0-142.0","3EO896NRAXHJW6FOIP2YR86CZIJTJQ","A2CDPJ7FMJ4WHG","3HUR21WDDUBEMSLDIXZW1FAIHWSYXN","","null","<img src=""img/food1.png"" style=""width:200px;border:14px solid red;"">","null","","","","","","","","","",""
"","image-keyboard-response","97","52605","0.0-144.0","3EO896NRAXHJW6FOIP2YR86CZIJTJQ","A2CDPJ7FMJ4WHG","3HUR21WDDUBEMSLDIXZW1FAIHWSYXN","","106.1000000089407","img/food3.png","75","107.20000000298023","2","0","false","1","2","1,0.5,0,1,0.5,0,0.5,0,1","0.5,0,1,0.5,0,1,0,1,0.5","2",""
"","html-keyboard-response","98","52912","0.0-145.0","3EO896NRAXHJW6FOIP2YR86CZIJTJQ","A2CDPJ7FMJ4WHG","3HUR21WDDUBEMSLDIXZW1FAIHWSYXN","","null","<img src=""img/food3.png"" style=""width:200px;border:14px solid red;"">","null","","","","","","","","","",""
"","image-keyboard-response","99","53015","0.0-147.0","3EO896NRAXHJW6FOIP2YR86CZIJTJQ","A2CDPJ7FMJ4WHG","3HUR21WDDUBEMSLDIXZW1FAIHWSYXN","","100.79999999701977","img/food1.png","76","102","3","1","false","2","2","1,0.5,0,1,0.5,0,0.5,0,1","0.5,0,1,0.5,0,1,0,1,0.5","2",""
"","html-keyboard-response","100","53322","0.0-148.0","3EO896NRAXHJW6FOIP2YR86CZIJTJQ","A2CDPJ7FMJ4WHG","3HUR21WDDUBEMSLDIXZW1FAIHWSYXN","","null","<img src=""img/food1.png"" style=""width:200px; border:14px solid green;"">","null","","","","","","","","","",""
"","image-keyboard-response","101","53539","0.0-150.0","3EO896NRAXHJW6FOIP2YR86CZIJTJQ","A2CDPJ7FMJ4WHG","3HUR21WDDUBEMSLDIXZW1FAIHWSYXN","","215.79999999701977","img/food5.png","76","217.09999999403954","3","0","false","3","2","1,0.5,0,1,0.5,0,0.5,0,1","0.5,0,1,0.5,0,1,0,1,0.5","2",""
"","html-keyboard-response","102","53846","0.0-151.0","3EO896NRAXHJW6FOIP2YR86CZIJTJQ","A2CDPJ7FMJ4WHG","3HUR21WDDUBEMSLDIXZW1FAIHWSYXN","","null","<img src=""img/food5.png"" style=""width:200px;border:14px solid red;"">","null","","","","","","","","","",""
"","image-keyboard-response","103","54044","0.0-153.0","3EO896NRAXHJW6FOIP2YR86CZIJTJQ","A2CDPJ7FMJ4WHG","3HUR21WDDUBEMSLDIXZW1FAIHWSYXN","","196.29999999701977","img/food1.png","75","197.5","2","0","false","2","2","1,0.5,0,1,0.5,0,0.5,0,1","0.5,0,1,0.5,0,1,0,1,0.5","2",""
"","html-keyboard-response","104","54351","0.0-154.0","3EO896NRAXHJW6FOIP2YR86CZIJTJQ","A2CDPJ7FMJ4WHG","3HUR21WDDUBEMSLDIXZW1FAIHWSYXN","","null","<img src=""img/food1.png"" style=""width:200px;border:14px solid red;"">","null","","","","","","","","","",""
"","image-keyboard-response","105","54373","0.0-156.0","3EO896NRAXHJW6FOIP2YR86CZIJTJQ","A2CDPJ7FMJ4WHG","3HUR21WDDUBEMSLDIXZW1FAIHWSYXN","","20.299999997019768","img/food1.png","75","21.30000001192093","2","0","false","2","2","1,0.5,0,1,0.5,0,0.5,0,1","0.5,0,1,0.5,0,1,0,1,0.5","2",""
"","html-keyboard-response","106","54678","0.0-157.0","3EO896NRAXHJW6FOIP2YR86CZIJTJQ","A2CDPJ7FMJ4WHG","3HUR21WDDUBEMSLDIXZW1FAIHWSYXN","","null","<img src=""img/food1.png"" style=""width:200px;border:14px solid red;"">","null","","","","","","","","","",""
"","image-keyboard-response","107","54699","0.0-159.0","3EO896NRAXHJW6FOIP2YR86CZIJTJQ","A2CDPJ7FMJ4WHG","3HUR21WDDUBEMSLDIXZW1FAIHWSYXN","","19.100000008940697","img/food5.png","74","20.19999998807907","1","0","false","3","2","1,0.5,0,1,0.5,0,0.5,0,1","0.5,0,1,0.5,0,1,0,1,0.5","2",""
"","html-keyboard-response","108","55005","0.0-160.0","3EO896NRAXHJW6FOIP2YR86CZIJTJQ","A2CDPJ7FMJ4WHG","3HUR21WDDUBEMSLDIXZW1FAIHWSYXN","","null","<img src=""img/food5.png"" style=""width:200px;border:14px solid red;"">","null","","","","","","","","","",""
"","image-keyboard-response","109","55063","0.0-162.0","3EO896NRAXHJW6FOIP2YR86CZIJTJQ","A2CDPJ7FMJ4WHG","3HUR21WDDUBEMSLDIXZW1FAIHWSYXN","","56.29999999701977","img/food1.png","75","57.6000000089407","2","0","false","2","2","1,0.5,0,1,0.5,0,0.5,0,1","0.5,0,1,0.5,0,1,0,1,0.5","2",""
"","html-keyboard-response","110","55366","0.0-163.0","3EO896NRAXHJW6FOIP2YR86CZIJTJQ","A2CDPJ7FMJ4WHG","3HUR21WDDUBEMSLDIXZW1FAIHWSYXN","","null","<img src=""img/food1.png"" style=""width:200px;border:14px solid red;"">","null","","","","","","","","","",""
"","image-keyboard-response","111","55397","0.0-165.0","3EO896NRAXHJW6FOIP2YR86CZIJTJQ","A2CDPJ7FMJ4WHG","3HUR21WDDUBEMSLDIXZW1FAIHWSYXN","","29.400000005960464","img/food1.png","76","30.5","3","1","false","2","2","1,0.5,0,1,0.5,0,0.5,0,1","0.5,0,1,0.5,0,1,0,1,0.5","2",""
"","html-keyboard-response","112","55701","0.0-166.0","3EO896NRAXHJW6FOIP2YR86CZIJTJQ","A2CDPJ7FMJ4WHG","3HUR21WDDUBEMSLDIXZW1FAIHWSYXN","","null","<img src=""img/food1.png"" style=""width:200px; border:14px solid green;"">","null","","","","","","","","","",""
"","image-keyboard-response","113","55743","0.0-168.0","3EO896NRAXHJW6FOIP2YR86CZIJTJQ","A2CDPJ7FMJ4WHG","3HUR21WDDUBEMSLDIXZW1FAIHWSYXN","","40","img/food1.png","76","41.099999994039536","3","1","false","2","2","1,0.5,0,1,0.5,0,0.5,0,1","0.5,0,1,0.5,0,1,0,1,0.5","2",""
"","html-keyboard-response","114","56050","0.0-169.0","3EO896NRAXHJW6FOIP2YR86CZIJTJQ","A2CDPJ7FMJ4WHG","3HUR21WDDUBEMSLDIXZW1FAIHWSYXN","","null","<img src=""img/food1.png"" style=""width:200px; border:14px solid green;"">","null","","","","","","","","","",""
"","image-keyboard-response","115","56237","0.0-171.0","3EO896NRAXHJW6FOIP2YR86CZIJTJQ","A2CDPJ7FMJ4WHG","3HUR21WDDUBEMSLDIXZW1FAIHWSYXN","","185.29999999701977","img/food5.png","76","186.3999999910593","3","1","false","3","2","1,0.5,0,1,0.5,0,0.5,0,1","0.5,0,1,0.5,0,1,0,1,0.5","2",""
"","html-keyboard-response","116","56544","0.0-172.0","3EO896NRAXHJW6FOIP2YR86CZIJTJQ","A2CDPJ7FMJ4WHG","3HUR21WDDUBEMSLDIXZW1FAIHWSYXN","","null","<img src=""img/food5.png"" style=""width:200px; border:14px solid green;"">","null","","","","","","","","","",""
"","image-keyboard-response","117","56588","0.0-174.0","3EO896NRAXHJW6FOIP2YR86CZIJTJQ","A2CDPJ7FMJ4WHG","3HUR21WDDUBEMSLDIXZW1FAIHWSYXN","","42.6000000089407","img/food1.png","75","43.79999999701977","2","0","false","2","2","1,0.5,0,1,0.5,0,0.5,0,1","0.5,0,1,0.5,0,1,0,1,0.5","2",""
"","html-keyboard-response","118","56892","0.0-175.0","3EO896NRAXHJW6FOIP2YR86CZIJTJQ","A2CDPJ7FMJ4WHG","3HUR21WDDUBEMSLDIXZW1FAIHWSYXN","","null","<img src=""img/food1.png"" style=""width:200px;border:14px solid red;"">","null","","","","","","","","","",""
"","image-keyboard-response","119","56976","0.0-177.0","3EO896NRAXHJW6FOIP2YR86CZIJTJQ","A2CDPJ7FMJ4WHG","3HUR21WDDUBEMSLDIXZW1FAIHWSYXN","","82.40000000596046","img/food3.png","76","83.5","3","1","false","1","2","1,0.5,0,1,0.5,0,0.5,0,1","0.5,0,1,0.5,0,1,0,1,0.5","2",""
"","html-keyboard-response","120","57278","0.0-178.0","3EO896NRAXHJW6FOIP2YR86CZIJTJQ","A2CDPJ7FMJ4WHG","3HUR21WDDUBEMSLDIXZW1FAIHWSYXN","","null","<img src=""img/food3.png"" style=""width:200px; border:14px solid green;"">","null","","","","","","","","","",""
"","image-keyboard-response","121","57297","0.0-180.0","3EO896NRAXHJW6FOIP2YR86CZIJTJQ","A2CDPJ7FMJ4WHG","3HUR21WDDUBEMSLDIXZW1FAIHWSYXN","","17.5","img/food1.png","76","18.5","3","1","false","2","2","1,0.5,0,1,0.5,0,0.5,0,1","0.5,0,1,0.5,0,1,0,1,0.5","2",""
"","html-keyboard-response","122","57604","0.0-181.0","3EO896NRAXHJW6FOIP2YR86CZIJTJQ","A2CDPJ7FMJ4WHG","3HUR21WDDUBEMSLDIXZW1FAIHWSYXN","","null","<img src=""img/food1.png"" style=""width:200px; border:14px solid green;"">","null","","","","","","","","","",""
"","image-keyboard-response","123","57616","0.0-183.0","3EO896NRAXHJW6FOIP2YR86CZIJTJQ","A2CDPJ7FMJ4WHG","3HUR21WDDUBEMSLDIXZW1FAIHWSYXN","","10.900000005960464","img/food1.png","75","11.900000005960464","2","0","false","2","2","1,0.5,0,1,0.5,0,0.5,0,1","0.5,0,1,0.5,0,1,0,1,0.5","2",""
"","html-keyboard-response","124","57921","0.0-184.0","3EO896NRAXHJW6FOIP2YR86CZIJTJQ","A2CDPJ7FMJ4WHG","3HUR21WDDUBEMSLDIXZW1FAIHWSYXN","","null","<img src=""img/food1.png"" style=""width:200px;border:14px solid red;"">","null","","","","","","","","","",""
"","image-keyboard-response","125","58038","0.0-186.0","3EO896NRAXHJW6FOIP2YR86CZIJTJQ","A2CDPJ7FMJ4WHG","3HUR21WDDUBEMSLDIXZW1FAIHWSYXN","","115.29999999701977","img/food5.png","76","116.5","3","0","false","3","2","1,0.5,0,1,0.5,0,0.5,0,1","0.5,0,1,0.5,0,1,0,1,0.5","2",""
"","html-keyboard-response","126","58344","0.0-187.0","3EO896NRAXHJW6FOIP2YR86CZIJTJQ","A2CDPJ7FMJ4WHG","3HUR21WDDUBEMSLDIXZW1FAIHWSYXN","","null","<img src=""img/food5.png"" style=""width:200px;border:14px solid red;"">","null","","","","","","","","","",""
"","image-keyboard-response","127","58398","0.0-189.0","3EO896NRAXHJW6FOIP2YR86CZIJTJQ","A2CDPJ7FMJ4WHG","3HUR21WDDUBEMSLDIXZW1FAIHWSYXN","","53.20000000298023","img/food5.png","76","54.099999994039536","3","1","false","3","2","1,0.5,0,1,0.5,0,0.5,0,1","0.5,0,1,0.5,0,1,0,1,0.5","2",""
"","html-keyboard-response","128","58701","0.0-190.0","3EO896NRAXHJW6FOIP2YR86CZIJTJQ","A2CDPJ7FMJ4WHG","3HUR21WDDUBEMSLDIXZW1FAIHWSYXN","","null","<img src=""img/food5.png"" style=""width:200px; border:14px solid green;"">","null","","","","","","","","","",""
"","image-keyboard-response","129","58749","0.0-192.0","3EO896NRAXHJW6FOIP2YR86CZIJTJQ","A2CDPJ7FMJ4WHG","3HUR21WDDUBEMSLDIXZW1FAIHWSYXN","","46.6000000089407","img/food1.png","75","47.79999999701977","2","0","false","2","2","1,0.5,0,1,0.5,0,0.5,0,1","0.5,0,1,0.5,0,1,0,1,0.5","2",""
"","html-keyboard-response","130","59054","0.0-193.0","3EO896NRAXHJW6FOIP2YR86CZIJTJQ","A2CDPJ7FMJ4WHG","3HUR21WDDUBEMSLDIXZW1FAIHWSYXN","","null","<img src=""img/food1.png"" style=""width:200px;border:14px solid red;"">","null","","","","","","","","","",""
"","image-keyboard-response","131","59107","0.0-195.0","3EO896NRAXHJW6FOIP2YR86CZIJTJQ","A2CDPJ7FMJ4WHG","3HUR21WDDUBEMSLDIXZW1FAIHWSYXN","","51.19999998807907","img/food3.png","75","52.29999999701977","2","0","false","1","2","1,0.5,0,1,0.5,0,0.5,0,1","0.5,0,1,0.5,0,1,0,1,0.5","2",""
"","html-keyboard-response","132","59410","0.0-196.0","3EO896NRAXHJW6FOIP2YR86CZIJTJQ","A2CDPJ7FMJ4WHG","3HUR21WDDUBEMSLDIXZW1FAIHWSYXN","","null","<img src=""img/food3.png"" style=""width:200px;border:14px solid red;"">","null","","","","","","","","","",""
"","image-keyboard-response","133","59645","0.0-198.0","3EO896NRAXHJW6FOIP2YR86CZIJTJQ","A2CDPJ7FMJ4WHG","3HUR21WDDUBEMSLDIXZW1FAIHWSYXN","","233.09999999403954","img/food5.png","75","234.3999999910593","2","1","false","3","2","1,0.5,0,1,0.5,0,0.5,0,1","0.5,0,1,0.5,0,1,0,1,0.5","2",""
"","html-keyboard-response","134","59949","0.0-199.0","3EO896NRAXHJW6FOIP2YR86CZIJTJQ","A2CDPJ7FMJ4WHG","3HUR21WDDUBEMSLDIXZW1FAIHWSYXN","","null","<img src=""img/food5.png"" style=""width:200px; border:14px solid green;"">","null","","","","","","","","","",""
"","image-keyboard-response","135","59990","0.0-201.0","3EO896NRAXHJW6FOIP2YR86CZIJTJQ","A2CDPJ7FMJ4WHG","3HUR21WDDUBEMSLDIXZW1FAIHWSYXN","","39.5","img/food5.png","75","40.5","2","1","false","3","2","1,0.5,0,1,0.5,0,0.5,0,1","0.5,0,1,0.5,0,1,0,1,0.5","2",""
"","html-keyboard-response","136","60294","0.0-202.0","3EO896NRAXHJW6FOIP2YR86CZIJTJQ","A2CDPJ7FMJ4WHG","3HUR21WDDUBEMSLDIXZW1FAIHWSYXN","","null","<img src=""img/food5.png"" style=""width:200px; border:14px solid green;"">","null","","","","","","","","","",""
"","image-keyboard-response","137","60341","0.0-204.0","3EO896NRAXHJW6FOIP2YR86CZIJTJQ","A2CDPJ7FMJ4WHG","3HUR21WDDUBEMSLDIXZW1FAIHWSYXN","","45.3999999910593","img/food5.png","76","46.599999994039536","3","0","false","3","2","1,0.5,0,1,0.5,0,0.5,0,1","0.5,0,1,0.5,0,1,0,1,0.5","2",""
"","html-keyboard-response","138","60646","0.0-205.0","3EO896NRAXHJW6FOIP2YR86CZIJTJQ","A2CDPJ7FMJ4WHG","3HUR21WDDUBEMSLDIXZW1FAIHWSYXN","","null","<img src=""img/food5.png"" style=""width:200px;border:14px solid red;"">","null","","","","","","","","","",""
"","image-keyboard-response","139","60673","0.0-207.0","3EO896NRAXHJW6FOIP2YR86CZIJTJQ","A2CDPJ7FMJ4WHG","3HUR21WDDUBEMSLDIXZW1FAIHWSYXN","","25.700000002980232","img/food5.png","76","26.80000001192093","3","0","false","3","2","1,0.5,0,1,0.5,0,0.5,0,1","0.5,0,1,0.5,0,1,0,1,0.5","2",""
"","html-keyboard-response","140","60976","0.0-208.0","3EO896NRAXHJW6FOIP2YR86CZIJTJQ","A2CDPJ7FMJ4WHG","3HUR21WDDUBEMSLDIXZW1FAIHWSYXN","","null","<img src=""img/food5.png"" style=""width:200px;border:14px solid red;"">","null","","","","","","","","","",""
"","image-keyboard-response","141","61018","0.0-210.0","3EO896NRAXHJW6FOIP2YR86CZIJTJQ","A2CDPJ7FMJ4WHG","3HUR21WDDUBEMSLDIXZW1FAIHWSYXN","","40.5","img/food5.png","75","41.70000000298023","2","1","false","3","2","1,0.5,0,1,0.5,0,0.5,0,1","0.5,0,1,0.5,0,1,0,1,0.5","2",""
"","html-keyboard-response","142","61321","0.0-211.0","3EO896NRAXHJW6FOIP2YR86CZIJTJQ","A2CDPJ7FMJ4WHG","3HUR21WDDUBEMSLDIXZW1FAIHWSYXN","","null","<img src=""img/food5.png"" style=""width:200px; border:14px solid green;"">","null","","","","","","","","","",""
"","image-keyboard-response","143","61438","0.0-213.0","3EO896NRAXHJW6FOIP2YR86CZIJTJQ","A2CDPJ7FMJ4WHG","3HUR21WDDUBEMSLDIXZW1FAIHWSYXN","","115.40000000596046","img/food1.png","75","116.6000000089407","2","0","false","2","2","1,0.5,0,1,0.5,0,0.5,0,1","0.5,0,1,0.5,0,1,0,1,0.5","2",""
"","html-keyboard-response","144","61743","0.0-214.0","3EO896NRAXHJW6FOIP2YR86CZIJTJQ","A2CDPJ7FMJ4WHG","3HUR21WDDUBEMSLDIXZW1FAIHWSYXN","","null","<img src=""img/food1.png"" style=""width:200px;border:14px solid red;"">","null","","","","","","","","","",""
"","image-keyboard-response","145","61746","0.0-216.0","3EO896NRAXHJW6FOIP2YR86CZIJTJQ","A2CDPJ7FMJ4WHG","3HUR21WDDUBEMSLDIXZW1FAIHWSYXN","","1.7999999970197678","img/food1.png","75","2.7000000029802322","2","0","false","2","2","1,0.5,0,1,0.5,0,0.5,0,1","0.5,0,1,0.5,0,1,0,1,0.5","2",""
"","html-keyboard-response","146","62049","0.0-217.0","3EO896NRAXHJW6FOIP2YR86CZIJTJQ","A2CDPJ7FMJ4WHG","3HUR21WDDUBEMSLDIXZW1FAIHWSYXN","","null","<img src=""img/food1.png"" style=""width:200px;border:14px solid red;"">","null","","","","","","","","","",""
"","image-keyboard-response","147","62109","0.0-219.0","3EO896NRAXHJW6FOIP2YR86CZIJTJQ","A2CDPJ7FMJ4WHG","3HUR21WDDUBEMSLDIXZW1FAIHWSYXN","","58.1000000089407","img/food5.png","75","59.29999999701977","2","1","false","3","2","1,0.5,0,1,0.5,0,0.5,0,1","0.5,0,1,0.5,0,1,0,1,0.5","2",""
"","html-keyboard-response","148","62413","0.0-220.0","3EO896NRAXHJW6FOIP2YR86CZIJTJQ","A2CDPJ7FMJ4WHG","3HUR21WDDUBEMSLDIXZW1FAIHWSYXN","","null","<img src=""img/food5.png"" style=""width:200px; border:14px solid green;"">","null","","","","","","","","","",""
"","image-keyboard-response","149","62570","0.0-222.0","3EO896NRAXHJW6FOIP2YR86CZIJTJQ","A2CDPJ7FMJ4WHG","3HUR21WDDUBEMSLDIXZW1FAIHWSYXN","","155.40000000596046","img/food3.png","74","156.59999999403954","1","0","false","1","2","1,0.5,0,1,0.5,0,0.5,0,1","0.5,0,1,0.5,0,1,0,1,0.5","2",""
"","html-keyboard-response","150","62873","0.0-223.0","3EO896NRAXHJW6FOIP2YR86CZIJTJQ","A2CDPJ7FMJ4WHG","3HUR21WDDUBEMSLDIXZW1FAIHWSYXN","","null","<img src=""img/food3.png"" style=""width:200px;border:14px solid red;"">","null","","","","","","","","","",""
"","image-keyboard-response","151","62891","0.0-225.0","3EO896NRAXHJW6FOIP2YR86CZIJTJQ","A2CDPJ7FMJ4WHG","3HUR21WDDUBEMSLDIXZW1FAIHWSYXN","","16.299999997019768","img/food3.png","74","17.400000005960464","1","1","false","1","2","1,0.5,0,1,0.5,0,0.5,0,1","0.5,0,1,0.5,0,1,0,1,0.5","2",""
"","html-keyboard-response","152","63196","0.0-226.0","3EO896NRAXHJW6FOIP2YR86CZIJTJQ","A2CDPJ7FMJ4WHG","3HUR21WDDUBEMSLDIXZW1FAIHWSYXN","","null","<img src=""img/food3.png"" style=""width:200px; border:14px solid green;"">","null","","","","","","","","","",""
"","image-keyboard-response","153","63226","0.0-228.0","3EO896NRAXHJW6FOIP2YR86CZIJTJQ","A2CDPJ7FMJ4WHG","3HUR21WDDUBEMSLDIXZW1FAIHWSYXN","","28","img/food1.png","74","29.200000002980232","1","0","false","2","2","1,0.5,0,1,0.5,0,0.5,0,1","0.5,0,1,0.5,0,1,0,1,0.5","2",""
"","html-keyboard-response","154","63531","0.0-229.0","3EO896NRAXHJW6FOIP2YR86CZIJTJQ","A2CDPJ7FMJ4WHG","3HUR21WDDUBEMSLDIXZW1FAIHWSYXN","","null","<img src=""img/food1.png"" style=""width:200px;border:14px solid red;"">","null","","","","","","","","","",""
"","image-keyboard-response","155","63673","0.0-231.0","3EO896NRAXHJW6FOIP2YR86CZIJTJQ","A2CDPJ7FMJ4WHG","3HUR21WDDUBEMSLDIXZW1FAIHWSYXN","","140.29999999701977","img/food5.png","75","141.3999999910593","2","1","false","3","2","1,0.5,0,1,0.5,0,0.5,0,1","0.5,0,1,0.5,0,1,0,1,0.5","2",""
"","html-keyboard-response","156","63975","0.0-232.0","3EO896NRAXHJW6FOIP2YR86CZIJTJQ","A2CDPJ7FMJ4WHG","3HUR21WDDUBEMSLDIXZW1FAIHWSYXN","","null","<img src=""img/food5.png"" style=""width:200px; border:14px solid green;"">","null","","","","","","","","","",""
"","image-keyboard-response","157","63996","0.0-234.0","3EO896NRAXHJW6FOIP2YR86CZIJTJQ","A2CDPJ7FMJ4WHG","3HUR21WDDUBEMSLDIXZW1FAIHWSYXN","","19.100000008940697","img/food5.png","75","20.200000002980232","2","1","false","3","2","1,0.5,0,1,0.5,0,0.5,0,1","0.5,0,1,0.5,0,1,0,1,0.5","2",""
"","html-keyboard-response","158","64300","0.0-235.0","3EO896NRAXHJW6FOIP2YR86CZIJTJQ","A2CDPJ7FMJ4WHG","3HUR21WDDUBEMSLDIXZW1FAIHWSYXN","","null","<img src=""img/food5.png"" style=""width:200px; border:14px solid green;"">","null","","","","","","","","","",""
"","image-keyboard-response","159","64319","0.0-237.0","3EO896NRAXHJW6FOIP2YR86CZIJTJQ","A2CDPJ7FMJ4WHG","3HUR21WDDUBEMSLDIXZW1FAIHWSYXN","","17.400000005960464","img/food5.png","75","18.600000008940697","2","1","false","3","2","1,0.5,0,1,0.5,0,0.5,0,1","0.5,0,1,0.5,0,1,0,1,0.5","2",""
"","html-keyboard-response","160","64623","0.0-238.0","3EO896NRAXHJW6FOIP2YR86CZIJTJQ","A2CDPJ7FMJ4WHG","3HUR21WDDUBEMSLDIXZW1FAIHWSYXN","","null","<img src=""img/food5.png"" style=""width:200px; border:14px solid green;"">","null","","","","","","","","","",""
"","image-keyboard-response","161","64788","0.0-240.0","3EO896NRAXHJW6FOIP2YR86CZIJTJQ","A2CDPJ7FMJ4WHG","3HUR21WDDUBEMSLDIXZW1FAIHWSYXN","","162.79999999701977","img/food3.png","75","163.90000000596046","2","0","false","1","2","1,0.5,0,1,0.5,0,0.5,0,1","0.5,0,1,0.5,0,1,0,1,0.5","2",""
"","html-keyboard-response","162","65094","0.0-241.0","3EO896NRAXHJW6FOIP2YR86CZIJTJQ","A2CDPJ7FMJ4WHG","3HUR21WDDUBEMSLDIXZW1FAIHWSYXN","","null","<img src=""img/food3.png"" style=""width:200px;border:14px solid red;"">","null","","","","","","","","","",""
"","image-keyboard-response","163","65130","0.0-243.0","3EO896NRAXHJW6FOIP2YR86CZIJTJQ","A2CDPJ7FMJ4WHG","3HUR21WDDUBEMSLDIXZW1FAIHWSYXN","","33.70000000298023","img/food3.png","76","35","3","1","false","1","2","1,0.5,0,1,0.5,0,0.5,0,1","0.5,0,1,0.5,0,1,0,1,0.5","2",""
"","html-keyboard-response","164","65435","0.0-244.0","3EO896NRAXHJW6FOIP2YR86CZIJTJQ","A2CDPJ7FMJ4WHG","3HUR21WDDUBEMSLDIXZW1FAIHWSYXN","","null","<img src=""img/food3.png"" style=""width:200px; border:14px solid green;"">","null","","","","","","","","","",""
"","image-keyboard-response","165","65467","0.0-246.0","3EO896NRAXHJW6FOIP2YR86CZIJTJQ","A2CDPJ7FMJ4WHG","3HUR21WDDUBEMSLDIXZW1FAIHWSYXN","","31.399999991059303","img/food3.png","76","31.799999997019768","3","1","false","1","2","1,0.5,0,1,0.5,0,0.5,0,1","0.5,0,1,0.5,0,1,0,1,0.5","2",""
"","html-keyboard-response","166","65774","0.0-247.0","3EO896NRAXHJW6FOIP2YR86CZIJTJQ","A2CDPJ7FMJ4WHG","3HUR21WDDUBEMSLDIXZW1FAIHWSYXN","","null","<img src=""img/food3.png"" style=""width:200px; border:14px solid green;"">","null","","","","","","","","","",""
"","image-keyboard-response","167","65791","0.0-249.0","3EO896NRAXHJW6FOIP2YR86CZIJTJQ","A2CDPJ7FMJ4WHG","3HUR21WDDUBEMSLDIXZW1FAIHWSYXN","","15.300000011920929","img/food1.png","76","16.5","3","1","false","2","2","1,0.5,0,1,0.5,0,0.5,0,1","0.5,0,1,0.5,0,1,0,1,0.5","2",""
"","html-keyboard-response","168","66095","0.0-250.0","3EO896NRAXHJW6FOIP2YR86CZIJTJQ","A2CDPJ7FMJ4WHG","3HUR21WDDUBEMSLDIXZW1FAIHWSYXN","","null","<img src=""img/food1.png"" style=""width:200px; border:14px solid green;"">","null","","","","","","","","","",""
"","image-keyboard-response","169","66108","0.0-252.0","3EO896NRAXHJW6FOIP2YR86CZIJTJQ","A2CDPJ7FMJ4WHG","3HUR21WDDUBEMSLDIXZW1FAIHWSYXN","","11.399999991059303","img/food5.png","76","12.599999994039536","3","1","false","3","2","1,0.5,0,1,0.5,0,0.5,0,1","0.5,0,1,0.5,0,1,0,1,0.5","2",""
"","html-keyboard-response","170","66413","0.0-253.0","3EO896NRAXHJW6FOIP2YR86CZIJTJQ","A2CDPJ7FMJ4WHG","3HUR21WDDUBEMSLDIXZW1FAIHWSYXN","","null","<img src=""img/food5.png"" style=""width:200px; border:14px solid green;"">","null","","","","","","","","","",""
"","image-keyboard-response","171","66448","0.0-255.0","3EO896NRAXHJW6FOIP2YR86CZIJTJQ","A2CDPJ7FMJ4WHG","3HUR21WDDUBEMSLDIXZW1FAIHWSYXN","","34.19999998807907","img/food1.png","76","35.099999994039536","3","1","false","2","2","1,0.5,0,1,0.5,0,0.5,0,1","0.5,0,1,0.5,0,1,0,1,0.5","2",""
"","html-keyboard-response","172","66753","0.0-256.0","3EO896NRAXHJW6FOIP2YR86CZIJTJQ","A2CDPJ7FMJ4WHG","3HUR21WDDUBEMSLDIXZW1FAIHWSYXN","","null","<img src=""img/food1.png"" style=""width:200px; border:14px solid green;"">","null","","","","","","","","","",""
"","image-keyboard-response","173","66834","0.0-258.0","3EO896NRAXHJW6FOIP2YR86CZIJTJQ","A2CDPJ7FMJ4WHG","3HUR21WDDUBEMSLDIXZW1FAIHWSYXN","","79.5","img/food1.png","75","80.59999999403954","2","0","false","2","2","1,0.5,0,1,0.5,0,0.5,0,1","0.5,0,1,0.5,0,1,0,1,0.5","2",""
"","html-keyboard-response","174","67139","0.0-259.0","3EO896NRAXHJW6FOIP2YR86CZIJTJQ","A2CDPJ7FMJ4WHG","3HUR21WDDUBEMSLDIXZW1FAIHWSYXN","","null","<img src=""img/food1.png"" style=""width:200px;border:14px solid red;"">","null","","","","","","","","","",""
"","image-keyboard-response","175","67163","0.0-261.0","3EO896NRAXHJW6FOIP2YR86CZIJTJQ","A2CDPJ7FMJ4WHG","3HUR21WDDUBEMSLDIXZW1FAIHWSYXN","","22.899999991059303","img/food1.png","75","24","2","0","false","2","2","1,0.5,0,1,0.5,0,0.5,0,1","0.5,0,1,0.5,0,1,0,1,0.5","2",""
"","html-keyboard-response","176","67469","0.0-262.0","3EO896NRAXHJW6FOIP2YR86CZIJTJQ","A2CDPJ7FMJ4WHG","3HUR21WDDUBEMSLDIXZW1FAIHWSYXN","","null","<img src=""img/food1.png"" style=""width:200px;border:14px solid red;"">","null","","","","","","","","","",""
"","image-keyboard-response","177","67533","0.0-264.0","3EO896NRAXHJW6FOIP2YR86CZIJTJQ","A2CDPJ7FMJ4WHG","3HUR21WDDUBEMSLDIXZW1FAIHWSYXN","","62.1000000089407","img/food5.png","75","63.30000001192093","2","1","false","3","2","1,0.5,0,1,0.5,0,0.5,0,1","0.5,0,1,0.5,0,1,0,1,0.5","2",""
"","html-keyboard-response","178","67839","0.0-265.0","3EO896NRAXHJW6FOIP2YR86CZIJTJQ","A2CDPJ7FMJ4WHG","3HUR21WDDUBEMSLDIXZW1FAIHWSYXN","","null","<img src=""img/food5.png"" style=""width:200px; border:14px solid green;"">","null","","","","","","","","","",""
"","image-keyboard-response","179","67912","0.0-267.0","3EO896NRAXHJW6FOIP2YR86CZIJTJQ","A2CDPJ7FMJ4WHG","3HUR21WDDUBEMSLDIXZW1FAIHWSYXN","","70.90000000596046","img/food3.png","74","72.1000000089407","1","0","false","1","2","1,0.5,0,1,0.5,0,0.5,0,1","0.5,0,1,0.5,0,1,0,1,0.5","2",""
"","html-keyboard-response","180","68218","0.0-268.0","3EO896NRAXHJW6FOIP2YR86CZIJTJQ","A2CDPJ7FMJ4WHG","3HUR21WDDUBEMSLDIXZW1FAIHWSYXN","","null","<img src=""img/food3.png"" style=""width:200px;border:14px solid red;"">","null","","","","","","","","","",""
"","image-keyboard-response","181","68259","0.0-270.0","3EO896NRAXHJW6FOIP2YR86CZIJTJQ","A2CDPJ7FMJ4WHG","3HUR21WDDUBEMSLDIXZW1FAIHWSYXN","","39.29999999701977","img/food1.png","74","40.29999999701977","1","1","false","2","2","1,0.5,0,1,0.5,0,0.5,0,1","0.5,0,1,0.5,0,1,0,1,0.5","2",""
"","html-keyboard-response","182","68561","0.0-271.0","3EO896NRAXHJW6FOIP2YR86CZIJTJQ","A2CDPJ7FMJ4WHG","3HUR21WDDUBEMSLDIXZW1FAIHWSYXN","","null","<img src=""img/food1.png"" style=""width:200px; border:14px solid green;"">","null","","","","","","","","","",""
"","instructions","183","76608","0.0-273.0","3EO896NRAXHJW6FOIP2YR86CZIJTJQ","A2CDPJ7FMJ4WHG","3HUR21WDDUBEMSLDIXZW1FAIHWSYXN","[{""page_index"":0,""viewing_time"":6662.20000000298},{""page_index"":1,""viewing_time"":1382.8999999910593}]","8045.5999999940395","","","","","","","","","","","",""
"","image-keyboard-response","184","77823","0.0-274.0","3EO896NRAXHJW6FOIP2YR86CZIJTJQ","A2CDPJ7FMJ4WHG","3HUR21WDDUBEMSLDIXZW1FAIHWSYXN","","1212.7000000029802","img/food2.png","75","1214.5","2","1","","3","1","1,0.5,0,1,0.5,0,0.5,0,1","0,1,0.5,0,1,0.5,1,0.5,0","3",""
"","html-keyboard-response","185","78127","0.0-275.0","3EO896NRAXHJW6FOIP2YR86CZIJTJQ","A2CDPJ7FMJ4WHG","3HUR21WDDUBEMSLDIXZW1FAIHWSYXN","","null","<img src=""img/food2.png"" style=""width:200px; border:14px solid green;"">","null","","","","","","","","","",""
"","image-keyboard-response","186","78434","0.0-276.0","3EO896NRAXHJW6FOIP2YR86CZIJTJQ","A2CDPJ7FMJ4WHG","3HUR21WDDUBEMSLDIXZW1FAIHWSYXN","","305.29999999701977","img/food4.png","75","306.5","2","1","","1","1","1,0.5,0,1,0.5,0,0.5,0,1","0,1,0.5,0,1,0.5,1,0.5,0","3",""
"","html-keyboard-response","187","78741","0.0-277.0","3EO896NRAXHJW6FOIP2YR86CZIJTJQ","A2CDPJ7FMJ4WHG","3HUR21WDDUBEMSLDIXZW1FAIHWSYXN","","null","<img src=""img/food4.png"" style=""width:200px; border:14px solid green;"">","null","","","","","","","","","",""
"","image-keyboard-response","188","79014","0.0-278.0","3EO896NRAXHJW6FOIP2YR86CZIJTJQ","A2CDPJ7FMJ4WHG","3HUR21WDDUBEMSLDIXZW1FAIHWSYXN","","270.8999999910593","img/food2.png","76","272.09999999403954","3","0","","3","1","1,0.5,0,1,0.5,0,0.5,0,1","0,1,0.5,0,1,0.5,1,0.5,0","3",""
"","html-keyboard-response","189","79321","0.0-279.0","3EO896NRAXHJW6FOIP2YR86CZIJTJQ","A2CDPJ7FMJ4WHG","3HUR21WDDUBEMSLDIXZW1FAIHWSYXN","","null","<img src=""img/food2.png"" style=""width:200px;border:14px solid red;"">","null","","","","","","","","","",""
"","image-keyboard-response","190","79632","0.0-280.0","3EO896NRAXHJW6FOIP2YR86CZIJTJQ","A2CDPJ7FMJ4WHG","3HUR21WDDUBEMSLDIXZW1FAIHWSYXN","","310.1000000089407","img/food2.png","75","311.20000000298023","2","1","","3","1","1,0.5,0,1,0.5,0,0.5,0,1","0,1,0.5,0,1,0.5,1,0.5,0","3",""
"","html-keyboard-response","191","79939","0.0-281.0","3EO896NRAXHJW6FOIP2YR86CZIJTJQ","A2CDPJ7FMJ4WHG","3HUR21WDDUBEMSLDIXZW1FAIHWSYXN","","null","<img src=""img/food2.png"" style=""width:200px; border:14px solid green;"">","null","","","","","","","","","",""
"","image-keyboard-response","192","80175","0.0-282.0","3EO896NRAXHJW6FOIP2YR86CZIJTJQ","A2CDPJ7FMJ4WHG","3HUR21WDDUBEMSLDIXZW1FAIHWSYXN","","235.20000000298023","img/food4.png","75","236.09999999403954","2","1","","1","1","1,0.5,0,1,0.5,0,0.5,0,1","0,1,0.5,0,1,0.5,1,0.5,0","3",""
"","html-keyboard-response","193","80480","0.0-283.0","3EO896NRAXHJW6FOIP2YR86CZIJTJQ","A2CDPJ7FMJ4WHG","3HUR21WDDUBEMSLDIXZW1FAIHWSYXN","","null","<img src=""img/food4.png"" style=""width:200px; border:14px solid green;"">","null","","","","","","","","","",""
"","image-keyboard-response","194","80698","0.0-284.0","3EO896NRAXHJW6FOIP2YR86CZIJTJQ","A2CDPJ7FMJ4WHG","3HUR21WDDUBEMSLDIXZW1FAIHWSYXN","","216.29999999701977","img/food6.png","76","217.6000000089407","3","1","","2","1","1,0.5,0,1,0.5,0,0.5,0,1","0,1,0.5,0,1,0.5,1,0.5,0","3",""
"","html-keyboard-response","195","81006","0.0-285.0","3EO896NRAXHJW6FOIP2YR86CZIJTJQ","A2CDPJ7FMJ4WHG","3HUR21WDDUBEMSLDIXZW1FAIHWSYXN","","null","<img src=""img/food6.png"" style=""width:200px; border:14px solid green;"">","null","","","","","","","","","",""
"","image-keyboard-response","196","81201","0.0-286.0","3EO896NRAXHJW6FOIP2YR86CZIJTJQ","A2CDPJ7FMJ4WHG","3HUR21WDDUBEMSLDIXZW1FAIHWSYXN","","193.8999999910593","img/food4.png","76","195.20000000298023","3","1","","1","1","1,0.5,0,1,0.5,0,0.5,0,1","0,1,0.5,0,1,0.5,1,0.5,0","3",""
"","html-keyboard-response","197","81504","0.0-287.0","3EO896NRAXHJW6FOIP2YR86CZIJTJQ","A2CDPJ7FMJ4WHG","3HUR21WDDUBEMSLDIXZW1FAIHWSYXN","","null","<img src=""img/food4.png"" style=""width:200px; border:14px solid green;"">","null","","","","","","","","","",""
"","image-keyboard-response","198","81625","0.0-288.0","3EO896NRAXHJW6FOIP2YR86CZIJTJQ","A2CDPJ7FMJ4WHG","3HUR21WDDUBEMSLDIXZW1FAIHWSYXN","","119.40000000596046","img/food2.png","76","120.70000000298023","3","0","","3","1","1,0.5,0,1,0.5,0,0.5,0,1","0,1,0.5,0,1,0.5,1,0.5,0","3",""
"","html-keyboard-response","199","81933","0.0-289.0","3EO896NRAXHJW6FOIP2YR86CZIJTJQ","A2CDPJ7FMJ4WHG","3HUR21WDDUBEMSLDIXZW1FAIHWSYXN","","null","<img src=""img/food2.png"" style=""width:200px;border:14px solid red;"">","null","","","","","","","","","",""
"","image-keyboard-response","200","82073","0.0-290.0","3EO896NRAXHJW6FOIP2YR86CZIJTJQ","A2CDPJ7FMJ4WHG","3HUR21WDDUBEMSLDIXZW1FAIHWSYXN","","138.20000000298023","img/food2.png","76","139.5","3","0","","3","1","1,0.5,0,1,0.5,0,0.5,0,1","0,1,0.5,0,1,0.5,1,0.5,0","3",""
"","html-keyboard-response","201","82379","0.0-291.0","3EO896NRAXHJW6FOIP2YR86CZIJTJQ","A2CDPJ7FMJ4WHG","3HUR21WDDUBEMSLDIXZW1FAIHWSYXN","","null","<img src=""img/food2.png"" style=""width:200px;border:14px solid red;"">","null","","","","","","","","","",""
"","image-keyboard-response","202","82482","0.0-292.0","3EO896NRAXHJW6FOIP2YR86CZIJTJQ","A2CDPJ7FMJ4WHG","3HUR21WDDUBEMSLDIXZW1FAIHWSYXN","","101.5","img/food6.png","75","102.79999999701977","2","1","","2","1","1,0.5,0,1,0.5,0,0.5,0,1","0,1,0.5,0,1,0.5,1,0.5,0","3",""
"","html-keyboard-response","203","82789","0.0-293.0","3EO896NRAXHJW6FOIP2YR86CZIJTJQ","A2CDPJ7FMJ4WHG","3HUR21WDDUBEMSLDIXZW1FAIHWSYXN","","null","<img src=""img/food6.png"" style=""width:200px; border:14px solid green;"">","null","","","","","","","","","",""
"","image-keyboard-response","204","82893","0.0-294.0","3EO896NRAXHJW6FOIP2YR86CZIJTJQ","A2CDPJ7FMJ4WHG","3HUR21WDDUBEMSLDIXZW1FAIHWSYXN","","102.20000000298023","img/food6.png","75","103.70000000298023","2","1","","2","1","1,0.5,0,1,0.5,0,0.5,0,1","0,1,0.5,0,1,0.5,1,0.5,0","3",""
"","html-keyboard-response","205","83200","0.0-295.0","3EO896NRAXHJW6FOIP2YR86CZIJTJQ","A2CDPJ7FMJ4WHG","3HUR21WDDUBEMSLDIXZW1FAIHWSYXN","","null","<img src=""img/food6.png"" style=""width:200px; border:14px solid green;"">","null","","","","","","","","","",""
"","image-keyboard-response","206","83390","0.0-296.0","3EO896NRAXHJW6FOIP2YR86CZIJTJQ","A2CDPJ7FMJ4WHG","3HUR21WDDUBEMSLDIXZW1FAIHWSYXN","","188.29999999701977","img/food4.png","75","189.70000000298023","2","1","","1","1","1,0.5,0,1,0.5,0,0.5,0,1","0,1,0.5,0,1,0.5,1,0.5,0","3",""
"","html-keyboard-response","207","83696","0.0-297.0","3EO896NRAXHJW6FOIP2YR86CZIJTJQ","A2CDPJ7FMJ4WHG","3HUR21WDDUBEMSLDIXZW1FAIHWSYXN","","null","<img src=""img/food4.png"" style=""width:200px; border:14px solid green;"">","null","","","","","","","","","",""
"","image-keyboard-response","208","83909","0.0-298.0","3EO896NRAXHJW6FOIP2YR86CZIJTJQ","A2CDPJ7FMJ4WHG","3HUR21WDDUBEMSLDIXZW1FAIHWSYXN","","211.40000000596046","img/food2.png","76","212.6000000089407","3","0","","3","1","1,0.5,0,1,0.5,0,0.5,0,1","0,1,0.5,0,1,0.5,1,0.5,0","3",""
"","html-keyboard-response","209","84214","0.0-299.0","3EO896NRAXHJW6FOIP2YR86CZIJTJQ","A2CDPJ7FMJ4WHG","3HUR21WDDUBEMSLDIXZW1FAIHWSYXN","","null","<img src=""img/food2.png"" style=""width:200px;border:14px solid red;"">","null","","","","","","","","","",""
"","image-keyboard-response","210","84336","0.0-300.0","3EO896NRAXHJW6FOIP2YR86CZIJTJQ","A2CDPJ7FMJ4WHG","3HUR21WDDUBEMSLDIXZW1FAIHWSYXN","","119.70000000298023","img/food4.png","76","121.09999999403954","3","0","","1","1","1,0.5,0,1,0.5,0,0.5,0,1","0,1,0.5,0,1,0.5,1,0.5,0","3",""
"","html-keyboard-response","211","84643","0.0-301.0","3EO896NRAXHJW6FOIP2YR86CZIJTJQ","A2CDPJ7FMJ4WHG","3HUR21WDDUBEMSLDIXZW1FAIHWSYXN","","null","<img src=""img/food4.png"" style=""width:200px;border:14px solid red;"">","null","","","","","","","","","",""
"","image-keyboard-response","212","84704","0.0-302.0","3EO896NRAXHJW6FOIP2YR86CZIJTJQ","A2CDPJ7FMJ4WHG","3HUR21WDDUBEMSLDIXZW1FAIHWSYXN","","59.69999998807907","img/food4.png","75","60.79999999701977","2","1","","1","1","1,0.5,0,1,0.5,0,0.5,0,1","0,1,0.5,0,1,0.5,1,0.5,0","3",""
"","html-keyboard-response","213","85009","0.0-303.0","3EO896NRAXHJW6FOIP2YR86CZIJTJQ","A2CDPJ7FMJ4WHG","3HUR21WDDUBEMSLDIXZW1FAIHWSYXN","","null","<img src=""img/food4.png"" style=""width:200px; border:14px solid green;"">","null","","","","","","","","","",""
"","image-keyboard-response","214","85123","0.0-304.0","3EO896NRAXHJW6FOIP2YR86CZIJTJQ","A2CDPJ7FMJ4WHG","3HUR21WDDUBEMSLDIXZW1FAIHWSYXN","","112.79999999701977","img/food6.png","75","114","2","1","","2","1","1,0.5,0,1,0.5,0,0.5,0,1","0,1,0.5,0,1,0.5,1,0.5,0","3",""
"","html-keyboard-response","215","85430","0.0-305.0","3EO896NRAXHJW6FOIP2YR86CZIJTJQ","A2CDPJ7FMJ4WHG","3HUR21WDDUBEMSLDIXZW1FAIHWSYXN","","null","<img src=""img/food6.png"" style=""width:200px; border:14px solid green;"">","null","","","","","","","","","",""
"","image-keyboard-response","216","85736","0.0-306.0","3EO896NRAXHJW6FOIP2YR86CZIJTJQ","A2CDPJ7FMJ4WHG","3HUR21WDDUBEMSLDIXZW1FAIHWSYXN","","305","img/food6.png","75","306.20000000298023","2","1","","2","1","1,0.5,0,1,0.5,0,0.5,0,1","0,1,0.5,0,1,0.5,1,0.5,0","3",""
"","html-keyboard-response","217","86042","0.0-307.0","3EO896NRAXHJW6FOIP2YR86CZIJTJQ","A2CDPJ7FMJ4WHG","3HUR21WDDUBEMSLDIXZW1FAIHWSYXN","","null","<img src=""img/food6.png"" style=""width:200px; border:14px solid green;"">","null","","","","","","","","","",""
"","image-keyboard-response","218","86175","0.0-308.0","3EO896NRAXHJW6FOIP2YR86CZIJTJQ","A2CDPJ7FMJ4WHG","3HUR21WDDUBEMSLDIXZW1FAIHWSYXN","","131.59999999403954","img/food6.png","76","132.6000000089407","3","0","","2","1","1,0.5,0,1,0.5,0,0.5,0,1","0,1,0.5,0,1,0.5,1,0.5,0","3",""
"","html-keyboard-response","219","86480","0.0-309.0","3EO896NRAXHJW6FOIP2YR86CZIJTJQ","A2CDPJ7FMJ4WHG","3HUR21WDDUBEMSLDIXZW1FAIHWSYXN","","null","<img src=""img/food6.png"" style=""width:200px;border:14px solid red;"">","null","","","","","","","","","",""
"","image-keyboard-response","220","86683","0.0-310.0","3EO896NRAXHJW6FOIP2YR86CZIJTJQ","A2CDPJ7FMJ4WHG","3HUR21WDDUBEMSLDIXZW1FAIHWSYXN","","201.20000000298023","img/food4.png","76","202.69999998807907","3","1","","1","1","1,0.5,0,1,0.5,0,0.5,0,1","0,1,0.5,0,1,0.5,1,0.5,0","3",""
"","html-keyboard-response","221","86990","0.0-311.0","3EO896NRAXHJW6FOIP2YR86CZIJTJQ","A2CDPJ7FMJ4WHG","3HUR21WDDUBEMSLDIXZW1FAIHWSYXN","","null","<img src=""img/food4.png"" style=""width:200px; border:14px solid green;"">","null","","","","","","","","","",""
"","image-keyboard-response","222","87153","0.0-312.0","3EO896NRAXHJW6FOIP2YR86CZIJTJQ","A2CDPJ7FMJ4WHG","3HUR21WDDUBEMSLDIXZW1FAIHWSYXN","","161.79999999701977","img/food6.png","75","163","2","1","","2","1","1,0.5,0,1,0.5,0,0.5,0,1","0,1,0.5,0,1,0.5,1,0.5,0","3",""
"","html-keyboard-response","223","87461","0.0-313.0","3EO896NRAXHJW6FOIP2YR86CZIJTJQ","A2CDPJ7FMJ4WHG","3HUR21WDDUBEMSLDIXZW1FAIHWSYXN","","null","<img src=""img/food6.png"" style=""width:200px; border:14px solid green;"">","null","","","","","","","","","",""
"","image-keyboard-response","224","87699","0.0-314.0","3EO896NRAXHJW6FOIP2YR86CZIJTJQ","A2CDPJ7FMJ4WHG","3HUR21WDDUBEMSLDIXZW1FAIHWSYXN","","236.90000000596046","img/food6.png","75","238.40000000596046","2","1","","2","1","1,0.5,0,1,0.5,0,0.5,0,1","0,1,0.5,0,1,0.5,1,0.5,0","3",""
"","html-keyboard-response","225","88004","0.0-315.0","3EO896NRAXHJW6FOIP2YR86CZIJTJQ","A2CDPJ7FMJ4WHG","3HUR21WDDUBEMSLDIXZW1FAIHWSYXN","","null","<img src=""img/food6.png"" style=""width:200px; border:14px solid green;"">","null","","","","","","","","","",""
"","image-keyboard-response","226","88128","0.0-316.0","3EO896NRAXHJW6FOIP2YR86CZIJTJQ","A2CDPJ7FMJ4WHG","3HUR21WDDUBEMSLDIXZW1FAIHWSYXN","","122","img/food6.png","76","123.40000000596046","3","1","","2","1","1,0.5,0,1,0.5,0,0.5,0,1","0,1,0.5,0,1,0.5,1,0.5,0","3",""
"","html-keyboard-response","227","88434","0.0-317.0","3EO896NRAXHJW6FOIP2YR86CZIJTJQ","A2CDPJ7FMJ4WHG","3HUR21WDDUBEMSLDIXZW1FAIHWSYXN","","null","<img src=""img/food6.png"" style=""width:200px; border:14px solid green;"">","null","","","","","","","","","",""
"","image-keyboard-response","228","88643","0.0-318.0","3EO896NRAXHJW6FOIP2YR86CZIJTJQ","A2CDPJ7FMJ4WHG","3HUR21WDDUBEMSLDIXZW1FAIHWSYXN","","208.1000000089407","img/food4.png","76","209.5","3","0","","1","1","1,0.5,0,1,0.5,0,0.5,0,1","0,1,0.5,0,1,0.5,1,0.5,0","3",""
"","html-keyboard-response","229","88946","0.0-319.0","3EO896NRAXHJW6FOIP2YR86CZIJTJQ","A2CDPJ7FMJ4WHG","3HUR21WDDUBEMSLDIXZW1FAIHWSYXN","","null","<img src=""img/food4.png"" style=""width:200px;border:14px solid red;"">","null","","","","","","","","","",""
"","image-keyboard-response","230","89055","0.0-320.0","3EO896NRAXHJW6FOIP2YR86CZIJTJQ","A2CDPJ7FMJ4WHG","3HUR21WDDUBEMSLDIXZW1FAIHWSYXN","","107.40000000596046","img/food4.png","75","108.90000000596046","2","1","","1","1","1,0.5,0,1,0.5,0,0.5,0,1","0,1,0.5,0,1,0.5,1,0.5,0","3",""
"","html-keyboard-response","231","89362","0.0-321.0","3EO896NRAXHJW6FOIP2YR86CZIJTJQ","A2CDPJ7FMJ4WHG","3HUR21WDDUBEMSLDIXZW1FAIHWSYXN","","null","<img src=""img/food4.png"" style=""width:200px; border:14px solid green;"">","null","","","","","","","","","",""
"","image-keyboard-response","232","89585","0.0-322.0","3EO896NRAXHJW6FOIP2YR86CZIJTJQ","A2CDPJ7FMJ4WHG","3HUR21WDDUBEMSLDIXZW1FAIHWSYXN","","221.19999998807907","img/food2.png","75","222.6000000089407","2","0","","3","1","1,0.5,0,1,0.5,0,0.5,0,1","0,1,0.5,0,1,0.5,1,0.5,0","3",""
"","html-keyboard-response","233","89889","0.0-323.0","3EO896NRAXHJW6FOIP2YR86CZIJTJQ","A2CDPJ7FMJ4WHG","3HUR21WDDUBEMSLDIXZW1FAIHWSYXN","","null","<img src=""img/food2.png"" style=""width:200px;border:14px solid red;"">","null","","","","","","","","","",""
"","image-keyboard-response","234","90011","0.0-324.0","3EO896NRAXHJW6FOIP2YR86CZIJTJQ","A2CDPJ7FMJ4WHG","3HUR21WDDUBEMSLDIXZW1FAIHWSYXN","","120.5","img/food4.png","76","122","3","0","","1","1","1,0.5,0,1,0.5,0,0.5,0,1","0,1,0.5,0,1,0.5,1,0.5,0","3",""
"","html-keyboard-response","235","90317","0.0-325.0","3EO896NRAXHJW6FOIP2YR86CZIJTJQ","A2CDPJ7FMJ4WHG","3HUR21WDDUBEMSLDIXZW1FAIHWSYXN","","null","<img src=""img/food4.png"" style=""width:200px;border:14px solid red;"">","null","","","","","","","","","",""
"","image-keyboard-response","236","90437","0.0-326.0","3EO896NRAXHJW6FOIP2YR86CZIJTJQ","A2CDPJ7FMJ4WHG","3HUR21WDDUBEMSLDIXZW1FAIHWSYXN","","118.5","img/food4.png","76","119.70000000298023","3","0","","1","1","1,0.5,0,1,0.5,0,0.5,0,1","0,1,0.5,0,1,0.5,1,0.5,0","3",""
"","html-keyboard-response","237","90741","0.0-327.0","3EO896NRAXHJW6FOIP2YR86CZIJTJQ","A2CDPJ7FMJ4WHG","3HUR21WDDUBEMSLDIXZW1FAIHWSYXN","","null","<img src=""img/food4.png"" style=""width:200px;border:14px solid red;"">","null","","","","","","","","","",""
"","image-keyboard-response","238","90802","0.0-328.0","3EO896NRAXHJW6FOIP2YR86CZIJTJQ","A2CDPJ7FMJ4WHG","3HUR21WDDUBEMSLDIXZW1FAIHWSYXN","","59.1000000089407","img/food4.png","75","60.3999999910593","2","1","","1","1","1,0.5,0,1,0.5,0,0.5,0,1","0,1,0.5,0,1,0.5,1,0.5,0","3",""
"","html-keyboard-response","239","91110","0.0-329.0","3EO896NRAXHJW6FOIP2YR86CZIJTJQ","A2CDPJ7FMJ4WHG","3HUR21WDDUBEMSLDIXZW1FAIHWSYXN","","null","<img src=""img/food4.png"" style=""width:200px; border:14px solid green;"">","null","","","","","","","","","",""
"","image-keyboard-response","240","91421","0.0-330.0","3EO896NRAXHJW6FOIP2YR86CZIJTJQ","A2CDPJ7FMJ4WHG","3HUR21WDDUBEMSLDIXZW1FAIHWSYXN","","309.79999999701977","img/food6.png","76","311.1000000089407","3","1","","2","1","1,0.5,0,1,0.5,0,0.5,0,1","0,1,0.5,0,1,0.5,1,0.5,0","3",""
"","html-keyboard-response","241","91725","0.0-331.0","3EO896NRAXHJW6FOIP2YR86CZIJTJQ","A2CDPJ7FMJ4WHG","3HUR21WDDUBEMSLDIXZW1FAIHWSYXN","","null","<img src=""img/food6.png"" style=""width:200px; border:14px solid green;"">","null","","","","","","","","","",""
"","image-keyboard-response","242","91861","0.0-332.0","3EO896NRAXHJW6FOIP2YR86CZIJTJQ","A2CDPJ7FMJ4WHG","3HUR21WDDUBEMSLDIXZW1FAIHWSYXN","","134.29999999701977","img/food2.png","76","135.59999999403954","3","0","","3","1","1,0.5,0,1,0.5,0,0.5,0,1","0,1,0.5,0,1,0.5,1,0.5,0","3",""
"","html-keyboard-response","243","92165","0.0-333.0","3EO896NRAXHJW6FOIP2YR86CZIJTJQ","A2CDPJ7FMJ4WHG","3HUR21WDDUBEMSLDIXZW1FAIHWSYXN","","null","<img src=""img/food2.png"" style=""width:200px;border:14px solid red;"">","null","","","","","","","","","",""
"","image-keyboard-response","244","92262","0.0-334.0","3EO896NRAXHJW6FOIP2YR86CZIJTJQ","A2CDPJ7FMJ4WHG","3HUR21WDDUBEMSLDIXZW1FAIHWSYXN","","95.29999999701977","img/food2.png","75","96.5","2","0","","3","1","1,0.5,0,1,0.5,0,0.5,0,1","0,1,0.5,0,1,0.5,1,0.5,0","3",""
"","html-keyboard-response","245","92567","0.0-335.0","3EO896NRAXHJW6FOIP2YR86CZIJTJQ","A2CDPJ7FMJ4WHG","3HUR21WDDUBEMSLDIXZW1FAIHWSYXN","","null","<img src=""img/food2.png"" style=""width:200px;border:14px solid red;"">","null","","","","","","","","","",""
"","image-keyboard-response","246","92782","0.0-336.0","3EO896NRAXHJW6FOIP2YR86CZIJTJQ","A2CDPJ7FMJ4WHG","3HUR21WDDUBEMSLDIXZW1FAIHWSYXN","","213.09999999403954","img/food4.png","75","214.40000000596046","2","1","","1","1","1,0.5,0,1,0.5,0,0.5,0,1","0,1,0.5,0,1,0.5,1,0.5,0","3",""
"","html-keyboard-response","247","93089","0.0-337.0","3EO896NRAXHJW6FOIP2YR86CZIJTJQ","A2CDPJ7FMJ4WHG","3HUR21WDDUBEMSLDIXZW1FAIHWSYXN","","null","<img src=""img/food4.png"" style=""width:200px; border:14px solid green;"">","null","","","","","","","","","",""
"","image-keyboard-response","248","93187","0.0-338.0","3EO896NRAXHJW6FOIP2YR86CZIJTJQ","A2CDPJ7FMJ4WHG","3HUR21WDDUBEMSLDIXZW1FAIHWSYXN","","96.5","img/food6.png","75","97.69999998807907","2","1","","2","1","1,0.5,0,1,0.5,0,0.5,0,1","0,1,0.5,0,1,0.5,1,0.5,0","3",""
"","html-keyboard-response","249","93494","0.0-339.0","3EO896NRAXHJW6FOIP2YR86CZIJTJQ","A2CDPJ7FMJ4WHG","3HUR21WDDUBEMSLDIXZW1FAIHWSYXN","","null","<img src=""img/food6.png"" style=""width:200px; border:14px solid green;"">","null","","","","","","","","","",""
"","image-keyboard-response","250","93554","0.0-340.0","3EO896NRAXHJW6FOIP2YR86CZIJTJQ","A2CDPJ7FMJ4WHG","3HUR21WDDUBEMSLDIXZW1FAIHWSYXN","","58.29999999701977","img/food2.png","76","59.5","3","0","","3","1","1,0.5,0,1,0.5,0,0.5,0,1","0,1,0.5,0,1,0.5,1,0.5,0","3",""
"","html-keyboard-response","251","93861","0.0-341.0","3EO896NRAXHJW6FOIP2YR86CZIJTJQ","A2CDPJ7FMJ4WHG","3HUR21WDDUBEMSLDIXZW1FAIHWSYXN","","null","<img src=""img/food2.png"" style=""width:200px;border:14px solid red;"">","null","","","","","","","","","",""
"","image-keyboard-response","252","94005","0.0-342.0","3EO896NRAXHJW6FOIP2YR86CZIJTJQ","A2CDPJ7FMJ4WHG","3HUR21WDDUBEMSLDIXZW1FAIHWSYXN","","142.59999999403954","img/food6.png","76","143.90000000596046","3","1","","2","1","1,0.5,0,1,0.5,0,0.5,0,1","0,1,0.5,0,1,0.5,1,0.5,0","3",""
"","html-keyboard-response","253","94308","0.0-343.0","3EO896NRAXHJW6FOIP2YR86CZIJTJQ","A2CDPJ7FMJ4WHG","3HUR21WDDUBEMSLDIXZW1FAIHWSYXN","","null","<img src=""img/food6.png"" style=""width:200px; border:14px solid green;"">","null","","","","","","","","","",""
"","image-keyboard-response","254","94413","0.0-344.0","3EO896NRAXHJW6FOIP2YR86CZIJTJQ","A2CDPJ7FMJ4WHG","3HUR21WDDUBEMSLDIXZW1FAIHWSYXN","","103.29999999701977","img/food6.png","75","104.29999999701977","2","1","","2","1","1,0.5,0,1,0.5,0,0.5,0,1","0,1,0.5,0,1,0.5,1,0.5,0","3",""
"","html-keyboard-response","255","94719","0.0-345.0","3EO896NRAXHJW6FOIP2YR86CZIJTJQ","A2CDPJ7FMJ4WHG","3HUR21WDDUBEMSLDIXZW1FAIHWSYXN","","null","<img src=""img/food6.png"" style=""width:200px; border:14px solid green;"">","null","","","","","","","","","",""
"","image-keyboard-response","256","94859","0.0-346.0","3EO896NRAXHJW6FOIP2YR86CZIJTJQ","A2CDPJ7FMJ4WHG","3HUR21WDDUBEMSLDIXZW1FAIHWSYXN","","137.90000000596046","img/food2.png","75","139.09999999403954","2","0","","3","1","1,0.5,0,1,0.5,0,0.5,0,1","0,1,0.5,0,1,0.5,1,0.5,0","3",""
"","html-keyboard-response","257","95166","0.0-347.0","3EO896NRAXHJW6FOIP2YR86CZIJTJQ","A2CDPJ7FMJ4WHG","3HUR21WDDUBEMSLDIXZW1FAIHWSYXN","","null","<img src=""img/food2.png"" style=""width:200px;border:14px solid red;"">","null","","","","","","","","","",""
"","image-keyboard-response","258","95282","0.0-348.0","3EO896NRAXHJW6FOIP2YR86CZIJTJQ","A2CDPJ7FMJ4WHG","3HUR21WDDUBEMSLDIXZW1FAIHWSYXN","","114.20000000298023","img/food2.png","74","115.3999999910593","1","1","","3","1","1,0.5,0,1,0.5,0,0.5,0,1","0,1,0.5,0,1,0.5,1,0.5,0","3",""
"","html-keyboard-response","259","95584","0.0-349.0","3EO896NRAXHJW6FOIP2YR86CZIJTJQ","A2CDPJ7FMJ4WHG","3HUR21WDDUBEMSLDIXZW1FAIHWSYXN","","null","<img src=""img/food2.png"" style=""width:200px; border:14px solid green;"">","null","","","","","","","","","",""
"","image-keyboard-response","260","95641","0.0-350.0","3EO896NRAXHJW6FOIP2YR86CZIJTJQ","A2CDPJ7FMJ4WHG","3HUR21WDDUBEMSLDIXZW1FAIHWSYXN","","55.400000005960464","img/food4.png","75","56.70000000298023","2","1","","1","1","1,0.5,0,1,0.5,0,0.5,0,1","0,1,0.5,0,1,0.5,1,0.5,0","3",""
"","html-keyboard-response","261","95946","0.0-351.0","3EO896NRAXHJW6FOIP2YR86CZIJTJQ","A2CDPJ7FMJ4WHG","3HUR21WDDUBEMSLDIXZW1FAIHWSYXN","","null","<img src=""img/food4.png"" style=""width:200px; border:14px solid green;"">","null","","","","","","","","","",""
"","image-keyboard-response","262","96025","0.0-352.0","3EO896NRAXHJW6FOIP2YR86CZIJTJQ","A2CDPJ7FMJ4WHG","3HUR21WDDUBEMSLDIXZW1FAIHWSYXN","","77.20000000298023","img/food2.png","75","78.70000000298023","2","0","","3","1","1,0.5,0,1,0.5,0,0.5,0,1","0,1,0.5,0,1,0.5,1,0.5,0","3",""
"","html-keyboard-response","263","96329","0.0-353.0","3EO896NRAXHJW6FOIP2YR86CZIJTJQ","A2CDPJ7FMJ4WHG","3HUR21WDDUBEMSLDIXZW1FAIHWSYXN","","null","<img src=""img/food2.png"" style=""width:200px;border:14px solid red;"">","null","","","","","","","","","",""
"","image-keyboard-response","264","96484","0.0-354.0","3EO896NRAXHJW6FOIP2YR86CZIJTJQ","A2CDPJ7FMJ4WHG","3HUR21WDDUBEMSLDIXZW1FAIHWSYXN","","153.3999999910593","img/food2.png","74","154.90000000596046","1","1","","3","1","1,0.5,0,1,0.5,0,0.5,0,1","0,1,0.5,0,1,0.5,1,0.5,0","3",""
"","html-keyboard-response","265","96790","0.0-355.0","3EO896NRAXHJW6FOIP2YR86CZIJTJQ","A2CDPJ7FMJ4WHG","3HUR21WDDUBEMSLDIXZW1FAIHWSYXN","","null","<img src=""img/food2.png"" style=""width:200px; border:14px solid green;"">","null","","","","","","","","","",""
"","image-keyboard-response","266","96841","0.0-356.0","3EO896NRAXHJW6FOIP2YR86CZIJTJQ","A2CDPJ7FMJ4WHG","3HUR21WDDUBEMSLDIXZW1FAIHWSYXN","","48.80000001192093","img/food2.png","74","50.1000000089407","1","1","","3","1","1,0.5,0,1,0.5,0,0.5,0,1","0,1,0.5,0,1,0.5,1,0.5,0","3",""
"","html-keyboard-response","267","97144","0.0-357.0","3EO896NRAXHJW6FOIP2YR86CZIJTJQ","A2CDPJ7FMJ4WHG","3HUR21WDDUBEMSLDIXZW1FAIHWSYXN","","null","<img src=""img/food2.png"" style=""width:200px; border:14px solid green;"">","null","","","","","","","","","",""
"","image-keyboard-response","268","97206","0.0-358.0","3EO896NRAXHJW6FOIP2YR86CZIJTJQ","A2CDPJ7FMJ4WHG","3HUR21WDDUBEMSLDIXZW1FAIHWSYXN","","60.70000000298023","img/food6.png","74","61.70000000298023","1","0","","2","1","1,0.5,0,1,0.5,0,0.5,0,1","0,1,0.5,0,1,0.5,1,0.5,0","3",""
"","html-keyboard-response","269","97512","0.0-359.0","3EO896NRAXHJW6FOIP2YR86CZIJTJQ","A2CDPJ7FMJ4WHG","3HUR21WDDUBEMSLDIXZW1FAIHWSYXN","","null","<img src=""img/food6.png"" style=""width:200px;border:14px solid red;"">","null","","","","","","","","","",""
"","image-keyboard-response","270","97548","0.0-360.0","3EO896NRAXHJW6FOIP2YR86CZIJTJQ","A2CDPJ7FMJ4WHG","3HUR21WDDUBEMSLDIXZW1FAIHWSYXN","","34.5","img/food4.png","75","35.900000005960464","2","1","","1","1","1,0.5,0,1,0.5,0,0.5,0,1","0,1,0.5,0,1,0.5,1,0.5,0","3",""
"","html-keyboard-response","271","97850","0.0-361.0","3EO896NRAXHJW6FOIP2YR86CZIJTJQ","A2CDPJ7FMJ4WHG","3HUR21WDDUBEMSLDIXZW1FAIHWSYXN","","null","<img src=""img/food4.png"" style=""width:200px; border:14px solid green;"">","null","","","","","","","","","",""
"","image-keyboard-response","272","98307","0.0-362.0","3EO896NRAXHJW6FOIP2YR86CZIJTJQ","A2CDPJ7FMJ4WHG","3HUR21WDDUBEMSLDIXZW1FAIHWSYXN","","454.70000000298023","img/food6.png","75","455.8999999910593","2","1","","2","1","1,0.5,0,1,0.5,0,0.5,0,1","0,1,0.5,0,1,0.5,1,0.5,0","3",""
"","html-keyboard-response","273","98613","0.0-363.0","3EO896NRAXHJW6FOIP2YR86CZIJTJQ","A2CDPJ7FMJ4WHG","3HUR21WDDUBEMSLDIXZW1FAIHWSYXN","","null","<img src=""img/food6.png"" style=""width:200px; border:14px solid green;"">","null","","","","","","","","","",""
"","image-keyboard-response","274","98915","0.0-364.0","3EO896NRAXHJW6FOIP2YR86CZIJTJQ","A2CDPJ7FMJ4WHG","3HUR21WDDUBEMSLDIXZW1FAIHWSYXN","","300.09999999403954","img/food6.png","75","301.40000000596046","2","1","","2","1","1,0.5,0,1,0.5,0,0.5,0,1","0,1,0.5,0,1,0.5,1,0.5,0","3",""
"","html-keyboard-response","275","99218","0.0-365.0","3EO896NRAXHJW6FOIP2YR86CZIJTJQ","A2CDPJ7FMJ4WHG","3HUR21WDDUBEMSLDIXZW1FAIHWSYXN","","null","<img src=""img/food6.png"" style=""width:200px; border:14px solid green;"">","null","","","","","","","","","",""
"","image-keyboard-response","276","99254","0.0-366.0","3EO896NRAXHJW6FOIP2YR86CZIJTJQ","A2CDPJ7FMJ4WHG","3HUR21WDDUBEMSLDIXZW1FAIHWSYXN","","34.6000000089407","img/food2.png","76","36","3","0","","3","1","1,0.5,0,1,0.5,0,0.5,0,1","0,1,0.5,0,1,0.5,1,0.5,0","3",""
"","html-keyboard-response","277","99557","0.0-367.0","3EO896NRAXHJW6FOIP2YR86CZIJTJQ","A2CDPJ7FMJ4WHG","3HUR21WDDUBEMSLDIXZW1FAIHWSYXN","","null","<img src=""img/food2.png"" style=""width:200px;border:14px solid red;"">","null","","","","","","","","","",""
"","image-keyboard-response","278","99796","0.0-368.0","3EO896NRAXHJW6FOIP2YR86CZIJTJQ","A2CDPJ7FMJ4WHG","3HUR21WDDUBEMSLDIXZW1FAIHWSYXN","","236.8999999910593","img/food6.png","76","238.1000000089407","3","1","","2","1","1,0.5,0,1,0.5,0,0.5,0,1","0,1,0.5,0,1,0.5,1,0.5,0","3",""
"","html-keyboard-response","279","100103","0.0-369.0","3EO896NRAXHJW6FOIP2YR86CZIJTJQ","A2CDPJ7FMJ4WHG","3HUR21WDDUBEMSLDIXZW1FAIHWSYXN","","null","<img src=""img/food6.png"" style=""width:200px; border:14px solid green;"">","null","","","","","","","","","",""
"","image-keyboard-response","280","100324","0.0-370.0","3EO896NRAXHJW6FOIP2YR86CZIJTJQ","A2CDPJ7FMJ4WHG","3HUR21WDDUBEMSLDIXZW1FAIHWSYXN","","219.1000000089407","img/food2.png","76","220.30000001192093","3","0","","3","1","1,0.5,0,1,0.5,0,0.5,0,1","0,1,0.5,0,1,0.5,1,0.5,0","3",""
"","html-keyboard-response","281","100629","0.0-371.0","3EO896NRAXHJW6FOIP2YR86CZIJTJQ","A2CDPJ7FMJ4WHG","3HUR21WDDUBEMSLDIXZW1FAIHWSYXN","","null","<img src=""img/food2.png"" style=""width:200px;border:14px solid red;"">","null","","","","","","","","","",""
"","image-keyboard-response","282","100744","0.0-372.0","3EO896NRAXHJW6FOIP2YR86CZIJTJQ","A2CDPJ7FMJ4WHG","3HUR21WDDUBEMSLDIXZW1FAIHWSYXN","","113.5","img/food2.png","76","114.70000000298023","3","0","","3","1","1,0.5,0,1,0.5,0,0.5,0,1","0,1,0.5,0,1,0.5,1,0.5,0","3",""
"","html-keyboard-response","283","101049","0.0-373.0","3EO896NRAXHJW6FOIP2YR86CZIJTJQ","A2CDPJ7FMJ4WHG","3HUR21WDDUBEMSLDIXZW1FAIHWSYXN","","null","<img src=""img/food2.png"" style=""width:200px;border:14px solid red;"">","null","","","","","","","","","",""
"","image-keyboard-response","284","101102","0.0-374.0","3EO896NRAXHJW6FOIP2YR86CZIJTJQ","A2CDPJ7FMJ4WHG","3HUR21WDDUBEMSLDIXZW1FAIHWSYXN","","50.79999999701977","img/food2.png","75","52.099999994039536","2","0","","3","1","1,0.5,0,1,0.5,0,0.5,0,1","0,1,0.5,0,1,0.5,1,0.5,0","3",""
"","html-keyboard-response","285","101408","0.0-375.0","3EO896NRAXHJW6FOIP2YR86CZIJTJQ","A2CDPJ7FMJ4WHG","3HUR21WDDUBEMSLDIXZW1FAIHWSYXN","","null","<img src=""img/food2.png"" style=""width:200px;border:14px solid red;"">","null","","","","","","","","","",""
"","image-keyboard-response","286","101483","0.0-376.0","3EO896NRAXHJW6FOIP2YR86CZIJTJQ","A2CDPJ7FMJ4WHG","3HUR21WDDUBEMSLDIXZW1FAIHWSYXN","","74.09999999403954","img/food2.png","75","75.09999999403954","2","0","","3","1","1,0.5,0,1,0.5,0,0.5,0,1","0,1,0.5,0,1,0.5,1,0.5,0","3",""
"","html-keyboard-response","287","101787","0.0-377.0","3EO896NRAXHJW6FOIP2YR86CZIJTJQ","A2CDPJ7FMJ4WHG","3HUR21WDDUBEMSLDIXZW1FAIHWSYXN","","null","<img src=""img/food2.png"" style=""width:200px;border:14px solid red;"">","null","","","","","","","","","",""
"","image-keyboard-response","288","101939","0.0-378.0","3EO896NRAXHJW6FOIP2YR86CZIJTJQ","A2CDPJ7FMJ4WHG","3HUR21WDDUBEMSLDIXZW1FAIHWSYXN","","150.29999999701977","img/food4.png","76","151.70000000298023","3","0","","1","1","1,0.5,0,1,0.5,0,0.5,0,1","0,1,0.5,0,1,0.5,1,0.5,0","3",""
"","html-keyboard-response","289","102245","0.0-379.0","3EO896NRAXHJW6FOIP2YR86CZIJTJQ","A2CDPJ7FMJ4WHG","3HUR21WDDUBEMSLDIXZW1FAIHWSYXN","","null","<img src=""img/food4.png"" style=""width:200px;border:14px solid red;"">","null","","","","","","","","","",""
"","image-keyboard-response","290","102315","0.0-380.0","3EO896NRAXHJW6FOIP2YR86CZIJTJQ","A2CDPJ7FMJ4WHG","3HUR21WDDUBEMSLDIXZW1FAIHWSYXN","","68.6000000089407","img/food4.png","76","69.70000000298023","3","0","","1","1","1,0.5,0,1,0.5,0,0.5,0,1","0,1,0.5,0,1,0.5,1,0.5,0","3",""
"","html-keyboard-response","291","102622","0.0-381.0","3EO896NRAXHJW6FOIP2YR86CZIJTJQ","A2CDPJ7FMJ4WHG","3HUR21WDDUBEMSLDIXZW1FAIHWSYXN","","null","<img src=""img/food4.png"" style=""width:200px;border:14px solid red;"">","null","","","","","","","","","",""
"","image-keyboard-response","292","102661","0.0-382.0","3EO896NRAXHJW6FOIP2YR86CZIJTJQ","A2CDPJ7FMJ4WHG","3HUR21WDDUBEMSLDIXZW1FAIHWSYXN","","37.79999999701977","img/food2.png","76","39.1000000089407","3","0","","3","1","1,0.5,0,1,0.5,0,0.5,0,1","0,1,0.5,0,1,0.5,1,0.5,0","3",""
"","html-keyboard-response","293","102965","0.0-383.0","3EO896NRAXHJW6FOIP2YR86CZIJTJQ","A2CDPJ7FMJ4WHG","3HUR21WDDUBEMSLDIXZW1FAIHWSYXN","","null","<img src=""img/food2.png"" style=""width:200px;border:14px solid red;"">","null","","","","","","","","","",""
"","image-keyboard-response","294","103276","0.0-384.0","3EO896NRAXHJW6FOIP2YR86CZIJTJQ","A2CDPJ7FMJ4WHG","3HUR21WDDUBEMSLDIXZW1FAIHWSYXN","","309.19999998807907","img/food2.png","74","310.5","1","1","","3","1","1,0.5,0,1,0.5,0,0.5,0,1","0,1,0.5,0,1,0.5,1,0.5,0","3",""
"","html-keyboard-response","295","103583","0.0-385.0","3EO896NRAXHJW6FOIP2YR86CZIJTJQ","A2CDPJ7FMJ4WHG","3HUR21WDDUBEMSLDIXZW1FAIHWSYXN","","null","<img src=""img/food2.png"" style=""width:200px; border:14px solid green;"">","null","","","","","","","","","",""
"","image-keyboard-response","296","103615","0.0-386.0","3EO896NRAXHJW6FOIP2YR86CZIJTJQ","A2CDPJ7FMJ4WHG","3HUR21WDDUBEMSLDIXZW1FAIHWSYXN","","30","img/food4.png","74","31.400000005960464","1","0","","1","1","1,0.5,0,1,0.5,0,0.5,0,1","0,1,0.5,0,1,0.5,1,0.5,0","3",""
"","html-keyboard-response","297","103922","0.0-387.0","3EO896NRAXHJW6FOIP2YR86CZIJTJQ","A2CDPJ7FMJ4WHG","3HUR21WDDUBEMSLDIXZW1FAIHWSYXN","","null","<img src=""img/food4.png"" style=""width:200px;border:14px solid red;"">","null","","","","","","","","","",""
"","image-keyboard-response","298","103969","0.0-388.0","3EO896NRAXHJW6FOIP2YR86CZIJTJQ","A2CDPJ7FMJ4WHG","3HUR21WDDUBEMSLDIXZW1FAIHWSYXN","","45.29999999701977","img/food2.png","74","46.70000000298023","1","1","","3","1","1,0.5,0,1,0.5,0,0.5,0,1","0,1,0.5,0,1,0.5,1,0.5,0","3",""
"","html-keyboard-response","299","104271","0.0-389.0","3EO896NRAXHJW6FOIP2YR86CZIJTJQ","A2CDPJ7FMJ4WHG","3HUR21WDDUBEMSLDIXZW1FAIHWSYXN","","null","<img src=""img/food2.png"" style=""width:200px; border:14px solid green;"">","null","","","","","","","","","",""
"","image-keyboard-response","300","104353","0.0-390.0","3EO896NRAXHJW6FOIP2YR86CZIJTJQ","A2CDPJ7FMJ4WHG","3HUR21WDDUBEMSLDIXZW1FAIHWSYXN","","80.29999999701977","img/food2.png","75","81.70000000298023","2","0","","3","1","1,0.5,0,1,0.5,0,0.5,0,1","0,1,0.5,0,1,0.5,1,0.5,0","3",""
"","html-keyboard-response","301","104657","0.0-391.0","3EO896NRAXHJW6FOIP2YR86CZIJTJQ","A2CDPJ7FMJ4WHG","3HUR21WDDUBEMSLDIXZW1FAIHWSYXN","","null","<img src=""img/food2.png"" style=""width:200px;border:14px solid red;"">","null","","","","","","","","","",""
"","image-keyboard-response","302","104799","0.0-392.0","3EO896NRAXHJW6FOIP2YR86CZIJTJQ","A2CDPJ7FMJ4WHG","3HUR21WDDUBEMSLDIXZW1FAIHWSYXN","","140","img/food6.png","75","141.29999999701977","2","1","","2","1","1,0.5,0,1,0.5,0,0.5,0,1","0,1,0.5,0,1,0.5,1,0.5,0","3",""
"","html-keyboard-response","303","105103","0.0-393.0","3EO896NRAXHJW6FOIP2YR86CZIJTJQ","A2CDPJ7FMJ4WHG","3HUR21WDDUBEMSLDIXZW1FAIHWSYXN","","null","<img src=""img/food6.png"" style=""width:200px; border:14px solid green;"">","null","","","","","","","","","",""
"","image-keyboard-response","304","105264","0.0-394.0","3EO896NRAXHJW6FOIP2YR86CZIJTJQ","A2CDPJ7FMJ4WHG","3HUR21WDDUBEMSLDIXZW1FAIHWSYXN","","159.19999998807907","img/food4.png","74","160.5","1","0","","1","1","1,0.5,0,1,0.5,0,0.5,0,1","0,1,0.5,0,1,0.5,1,0.5,0","3",""
"","html-keyboard-response","305","105570","0.0-395.0","3EO896NRAXHJW6FOIP2YR86CZIJTJQ","A2CDPJ7FMJ4WHG","3HUR21WDDUBEMSLDIXZW1FAIHWSYXN","","null","<img src=""img/food4.png"" style=""width:200px;border:14px solid red;"">","null","","","","","","","","","",""
"","image-keyboard-response","306","105879","0.0-396.0","3EO896NRAXHJW6FOIP2YR86CZIJTJQ","A2CDPJ7FMJ4WHG","3HUR21WDDUBEMSLDIXZW1FAIHWSYXN","","308","img/food6.png","75","309.29999999701977","2","1","","2","1","1,0.5,0,1,0.5,0,0.5,0,1","0,1,0.5,0,1,0.5,1,0.5,0","3",""
"","html-keyboard-response","307","106182","0.0-397.0","3EO896NRAXHJW6FOIP2YR86CZIJTJQ","A2CDPJ7FMJ4WHG","3HUR21WDDUBEMSLDIXZW1FAIHWSYXN","","null","<img src=""img/food6.png"" style=""width:200px; border:14px solid green;"">","null","","","","","","","","","",""
"","image-keyboard-response","308","106220","0.0-398.0","3EO896NRAXHJW6FOIP2YR86CZIJTJQ","A2CDPJ7FMJ4WHG","3HUR21WDDUBEMSLDIXZW1FAIHWSYXN","","36.599999994039536","img/food6.png","75","37.79999999701977","2","1","","2","1","1,0.5,0,1,0.5,0,0.5,0,1","0,1,0.5,0,1,0.5,1,0.5,0","3",""
"","html-keyboard-response","309","106524","0.0-399.0","3EO896NRAXHJW6FOIP2YR86CZIJTJQ","A2CDPJ7FMJ4WHG","3HUR21WDDUBEMSLDIXZW1FAIHWSYXN","","null","<img src=""img/food6.png"" style=""width:200px; border:14px solid green;"">","null","","","","","","","","","",""
"","image-keyboard-response","310","106649","0.0-400.0","3EO896NRAXHJW6FOIP2YR86CZIJTJQ","A2CDPJ7FMJ4WHG","3HUR21WDDUBEMSLDIXZW1FAIHWSYXN","","123.40000000596046","img/food2.png","75","124.69999998807907","2","1","","3","1","1,0.5,0,1,0.5,0,0.5,0,1","0,1,0.5,0,1,0.5,1,0.5,0","3",""
"","html-keyboard-response","311","106956","0.0-401.0","3EO896NRAXHJW6FOIP2YR86CZIJTJQ","A2CDPJ7FMJ4WHG","3HUR21WDDUBEMSLDIXZW1FAIHWSYXN","","null","<img src=""img/food2.png"" style=""width:200px; border:14px solid green;"">","null","","","","","","","","","",""
"","image-keyboard-response","312","107094","0.0-402.0","3EO896NRAXHJW6FOIP2YR86CZIJTJQ","A2CDPJ7FMJ4WHG","3HUR21WDDUBEMSLDIXZW1FAIHWSYXN","","135.8999999910593","img/food2.png","75","137.5","2","0","","3","1","1,0.5,0,1,0.5,0,0.5,0,1","0,1,0.5,0,1,0.5,1,0.5,0","3",""
"","html-keyboard-response","313","107397","0.0-403.0","3EO896NRAXHJW6FOIP2YR86CZIJTJQ","A2CDPJ7FMJ4WHG","3HUR21WDDUBEMSLDIXZW1FAIHWSYXN","","null","<img src=""img/food2.png"" style=""width:200px;border:14px solid red;"">","null","","","","","","","","","",""
"","image-keyboard-response","314","107566","0.0-404.0","3EO896NRAXHJW6FOIP2YR86CZIJTJQ","A2CDPJ7FMJ4WHG","3HUR21WDDUBEMSLDIXZW1FAIHWSYXN","","167.1000000089407","img/food6.png","75","168.5","2","1","","2","1","1,0.5,0,1,0.5,0,0.5,0,1","0,1,0.5,0,1,0.5,1,0.5,0","3",""
"","html-keyboard-response","315","107872","0.0-405.0","3EO896NRAXHJW6FOIP2YR86CZIJTJQ","A2CDPJ7FMJ4WHG","3HUR21WDDUBEMSLDIXZW1FAIHWSYXN","","null","<img src=""img/food6.png"" style=""width:200px; border:14px solid green;"">","null","","","","","","","","","",""
"","image-keyboard-response","316","107941","0.0-406.0","3EO896NRAXHJW6FOIP2YR86CZIJTJQ","A2CDPJ7FMJ4WHG","3HUR21WDDUBEMSLDIXZW1FAIHWSYXN","","66.90000000596046","img/food6.png","76","68.09999999403954","3","0","","2","1","1,0.5,0,1,0.5,0,0.5,0,1","0,1,0.5,0,1,0.5,1,0.5,0","3",""
"","html-keyboard-response","317","108243","0.0-407.0","3EO896NRAXHJW6FOIP2YR86CZIJTJQ","A2CDPJ7FMJ4WHG","3HUR21WDDUBEMSLDIXZW1FAIHWSYXN","","null","<img src=""img/food6.png"" style=""width:200px;border:14px solid red;"">","null","","","","","","","","","",""
"","image-keyboard-response","318","108648","0.0-408.0","3EO896NRAXHJW6FOIP2YR86CZIJTJQ","A2CDPJ7FMJ4WHG","3HUR21WDDUBEMSLDIXZW1FAIHWSYXN","","403.40000000596046","img/food6.png","75","404.59999999403954","2","1","","2","1","1,0.5,0,1,0.5,0,0.5,0,1","0,1,0.5,0,1,0.5,1,0.5,0","3",""
"","html-keyboard-response","319","108954","0.0-409.0","3EO896NRAXHJW6FOIP2YR86CZIJTJQ","A2CDPJ7FMJ4WHG","3HUR21WDDUBEMSLDIXZW1FAIHWSYXN","","null","<img src=""img/food6.png"" style=""width:200px; border:14px solid green;"">","null","","","","","","","","","",""
"","image-keyboard-response","320","108984","0.0-410.0","3EO896NRAXHJW6FOIP2YR86CZIJTJQ","A2CDPJ7FMJ4WHG","3HUR21WDDUBEMSLDIXZW1FAIHWSYXN","","27.599999994039536","img/food4.png","75","28.80000001192093","2","1","","1","1","1,0.5,0,1,0.5,0,0.5,0,1","0,1,0.5,0,1,0.5,1,0.5,0","3",""
"","html-keyboard-response","321","109290","0.0-411.0","3EO896NRAXHJW6FOIP2YR86CZIJTJQ","A2CDPJ7FMJ4WHG","3HUR21WDDUBEMSLDIXZW1FAIHWSYXN","","null","<img src=""img/food4.png"" style=""width:200px; border:14px solid green;"">","null","","","","","","","","","",""
"","image-keyboard-response","322","109293","0.0-412.0","3EO896NRAXHJW6FOIP2YR86CZIJTJQ","A2CDPJ7FMJ4WHG","3HUR21WDDUBEMSLDIXZW1FAIHWSYXN","","1.800000011920929","img/food6.png","75","2.9000000059604645","2","1","","2","1","1,0.5,0,1,0.5,0,0.5,0,1","0,1,0.5,0,1,0.5,1,0.5,0","3",""
"","html-keyboard-response","323","109599","0.0-413.0","3EO896NRAXHJW6FOIP2YR86CZIJTJQ","A2CDPJ7FMJ4WHG","3HUR21WDDUBEMSLDIXZW1FAIHWSYXN","","null","<img src=""img/food6.png"" style=""width:200px; border:14px solid green;"">","null","","","","","","","","","",""
"","image-keyboard-response","324","109799","0.0-414.0","3EO896NRAXHJW6FOIP2YR86CZIJTJQ","A2CDPJ7FMJ4WHG","3HUR21WDDUBEMSLDIXZW1FAIHWSYXN","","199.20000000298023","img/food2.png","75","200.29999999701977","2","0","","3","1","1,0.5,0,1,0.5,0,0.5,0,1","0,1,0.5,0,1,0.5,1,0.5,0","3",""
"","html-keyboard-response","325","110106","0.0-415.0","3EO896NRAXHJW6FOIP2YR86CZIJTJQ","A2CDPJ7FMJ4WHG","3HUR21WDDUBEMSLDIXZW1FAIHWSYXN","","null","<img src=""img/food2.png"" style=""width:200px;border:14px solid red;"">","null","","","","","","","","","",""
"","image-keyboard-response","326","110339","0.0-416.0","3EO896NRAXHJW6FOIP2YR86CZIJTJQ","A2CDPJ7FMJ4WHG","3HUR21WDDUBEMSLDIXZW1FAIHWSYXN","","230.90000000596046","img/food2.png","76","232.20000000298023","3","0","","3","1","1,0.5,0,1,0.5,0,0.5,0,1","0,1,0.5,0,1,0.5,1,0.5,0","3",""
"","html-keyboard-response","327","110642","0.0-417.0","3EO896NRAXHJW6FOIP2YR86CZIJTJQ","A2CDPJ7FMJ4WHG","3HUR21WDDUBEMSLDIXZW1FAIHWSYXN","","null","<img src=""img/food2.png"" style=""width:200px;border:14px solid red;"">","null","","","","","","","","","",""
"","image-keyboard-response","328","110679","0.0-418.0","3EO896NRAXHJW6FOIP2YR86CZIJTJQ","A2CDPJ7FMJ4WHG","3HUR21WDDUBEMSLDIXZW1FAIHWSYXN","","35.20000000298023","img/food6.png","76","36.5","3","1","","2","1","1,0.5,0,1,0.5,0,0.5,0,1","0,1,0.5,0,1,0.5,1,0.5,0","3",""
"","html-keyboard-response","329","110983","0.0-419.0","3EO896NRAXHJW6FOIP2YR86CZIJTJQ","A2CDPJ7FMJ4WHG","3HUR21WDDUBEMSLDIXZW1FAIHWSYXN","","null","<img src=""img/food6.png"" style=""width:200px; border:14px solid green;"">","null","","","","","","","","","",""
"","image-keyboard-response","330","111027","0.0-420.0","3EO896NRAXHJW6FOIP2YR86CZIJTJQ","A2CDPJ7FMJ4WHG","3HUR21WDDUBEMSLDIXZW1FAIHWSYXN","","42.5","img/food2.png","76","43.8999999910593","3","0","","3","1","1,0.5,0,1,0.5,0,0.5,0,1","0,1,0.5,0,1,0.5,1,0.5,0","3",""
"","html-keyboard-response","331","111334","0.0-421.0","3EO896NRAXHJW6FOIP2YR86CZIJTJQ","A2CDPJ7FMJ4WHG","3HUR21WDDUBEMSLDIXZW1FAIHWSYXN","","null","<img src=""img/food2.png"" style=""width:200px;border:14px solid red;"">","null","","","","","","","","","",""
"","image-keyboard-response","332","111410","0.0-422.0","3EO896NRAXHJW6FOIP2YR86CZIJTJQ","A2CDPJ7FMJ4WHG","3HUR21WDDUBEMSLDIXZW1FAIHWSYXN","","74.20000000298023","img/food6.png","76","75.59999999403954","3","0","","2","1","1,0.5,0,1,0.5,0,0.5,0,1","0,1,0.5,0,1,0.5,1,0.5,0","3",""
"","html-keyboard-response","333","111717","0.0-423.0","3EO896NRAXHJW6FOIP2YR86CZIJTJQ","A2CDPJ7FMJ4WHG","3HUR21WDDUBEMSLDIXZW1FAIHWSYXN","","null","<img src=""img/food6.png"" style=""width:200px;border:14px solid red;"">","null","","","","","","","","","",""
"","image-keyboard-response","334","112055","0.0-424.0","3EO896NRAXHJW6FOIP2YR86CZIJTJQ","A2CDPJ7FMJ4WHG","3HUR21WDDUBEMSLDIXZW1FAIHWSYXN","","337.3999999910593","img/food4.png","76","338.6000000089407","3","0","","1","1","1,0.5,0,1,0.5,0,0.5,0,1","0,1,0.5,0,1,0.5,1,0.5,0","3",""
"","html-keyboard-response","335","112360","0.0-425.0","3EO896NRAXHJW6FOIP2YR86CZIJTJQ","A2CDPJ7FMJ4WHG","3HUR21WDDUBEMSLDIXZW1FAIHWSYXN","","null","<img src=""img/food4.png"" style=""width:200px;border:14px solid red;"">","null","","","","","","","","","",""
"","image-keyboard-response","336","112379","0.0-426.0","3EO896NRAXHJW6FOIP2YR86CZIJTJQ","A2CDPJ7FMJ4WHG","3HUR21WDDUBEMSLDIXZW1FAIHWSYXN","","18","img/food4.png","76","19.099999994039536","3","0","","1","1","1,0.5,0,1,0.5,0,0.5,0,1","0,1,0.5,0,1,0.5,1,0.5,0","3",""
"","html-keyboard-response","337","112682","0.0-427.0","3EO896NRAXHJW6FOIP2YR86CZIJTJQ","A2CDPJ7FMJ4WHG","3HUR21WDDUBEMSLDIXZW1FAIHWSYXN","","null","<img src=""img/food4.png"" style=""width:200px;border:14px solid red;"">","null","","","","","","","","","",""
"","image-keyboard-response","338","112726","0.0-428.0","3EO896NRAXHJW6FOIP2YR86CZIJTJQ","A2CDPJ7FMJ4WHG","3HUR21WDDUBEMSLDIXZW1FAIHWSYXN","","42.400000005960464","img/food4.png","76","43.6000000089407","3","0","","1","1","1,0.5,0,1,0.5,0,0.5,0,1","0,1,0.5,0,1,0.5,1,0.5,0","3",""
"","html-keyboard-response","339","113028","0.0-429.0","3EO896NRAXHJW6FOIP2YR86CZIJTJQ","A2CDPJ7FMJ4WHG","3HUR21WDDUBEMSLDIXZW1FAIHWSYXN","","null","<img src=""img/food4.png"" style=""width:200px;border:14px solid red;"">","null","","","","","","","","","",""
"","image-keyboard-response","340","113094","0.0-430.0","3EO896NRAXHJW6FOIP2YR86CZIJTJQ","A2CDPJ7FMJ4WHG","3HUR21WDDUBEMSLDIXZW1FAIHWSYXN","","65.09999999403954","img/food2.png","76","66.5","3","0","","3","1","1,0.5,0,1,0.5,0,0.5,0,1","0,1,0.5,0,1,0.5,1,0.5,0","3",""
"","html-keyboard-response","341","113401","0.0-431.0","3EO896NRAXHJW6FOIP2YR86CZIJTJQ","A2CDPJ7FMJ4WHG","3HUR21WDDUBEMSLDIXZW1FAIHWSYXN","","null","<img src=""img/food2.png"" style=""width:200px;border:14px solid red;"">","null","","","","","","","","","",""
"","image-keyboard-response","342","113496","0.0-432.0","3EO896NRAXHJW6FOIP2YR86CZIJTJQ","A2CDPJ7FMJ4WHG","3HUR21WDDUBEMSLDIXZW1FAIHWSYXN","","93.79999999701977","img/food6.png","75","94.69999998807907","2","1","","2","1","1,0.5,0,1,0.5,0,0.5,0,1","0,1,0.5,0,1,0.5,1,0.5,0","3",""
"","html-keyboard-response","343","113804","0.0-433.0","3EO896NRAXHJW6FOIP2YR86CZIJTJQ","A2CDPJ7FMJ4WHG","3HUR21WDDUBEMSLDIXZW1FAIHWSYXN","","null","<img src=""img/food6.png"" style=""width:200px; border:14px solid green;"">","null","","","","","","","","","",""
"","image-keyboard-response","344","114012","0.0-434.0","3EO896NRAXHJW6FOIP2YR86CZIJTJQ","A2CDPJ7FMJ4WHG","3HUR21WDDUBEMSLDIXZW1FAIHWSYXN","","207.09999999403954","img/food4.png","75","208.40000000596046","2","1","","1","1","1,0.5,0,1,0.5,0,0.5,0,1","0,1,0.5,0,1,0.5,1,0.5,0","3",""
"","html-keyboard-response","345","114319","0.0-435.0","3EO896NRAXHJW6FOIP2YR86CZIJTJQ","A2CDPJ7FMJ4WHG","3HUR21WDDUBEMSLDIXZW1FAIHWSYXN","","null","<img src=""img/food4.png"" style=""width:200px; border:14px solid green;"">","null","","","","","","","","","",""
"","image-keyboard-response","346","114489","0.0-436.0","3EO896NRAXHJW6FOIP2YR86CZIJTJQ","A2CDPJ7FMJ4WHG","3HUR21WDDUBEMSLDIXZW1FAIHWSYXN","","168.70000000298023","img/food6.png","74","169.8999999910593","1","0","","2","1","1,0.5,0,1,0.5,0,0.5,0,1","0,1,0.5,0,1,0.5,1,0.5,0","3",""
"","html-keyboard-response","347","114796","0.0-437.0","3EO896NRAXHJW6FOIP2YR86CZIJTJQ","A2CDPJ7FMJ4WHG","3HUR21WDDUBEMSLDIXZW1FAIHWSYXN","","null","<img src=""img/food6.png"" style=""width:200px;border:14px solid red;"">","null","","","","","","","","","",""
"","image-keyboard-response","348","114836","0.0-438.0","3EO896NRAXHJW6FOIP2YR86CZIJTJQ","A2CDPJ7FMJ4WHG","3HUR21WDDUBEMSLDIXZW1FAIHWSYXN","","38.70000000298023","img/food4.png","74","39.79999999701977","1","0","","1","1","1,0.5,0,1,0.5,0,0.5,0,1","0,1,0.5,0,1,0.5,1,0.5,0","3",""
"","html-keyboard-response","349","115141","0.0-439.0","3EO896NRAXHJW6FOIP2YR86CZIJTJQ","A2CDPJ7FMJ4WHG","3HUR21WDDUBEMSLDIXZW1FAIHWSYXN","","null","<img src=""img/food4.png"" style=""width:200px;border:14px solid red;"">","null","","","","","","","","","",""
"","image-keyboard-response","350","115265","0.0-440.0","3EO896NRAXHJW6FOIP2YR86CZIJTJQ","A2CDPJ7FMJ4WHG","3HUR21WDDUBEMSLDIXZW1FAIHWSYXN","","122.3999999910593","img/food4.png","75","123.70000000298023","2","1","","1","1","1,0.5,0,1,0.5,0,0.5,0,1","0,1,0.5,0,1,0.5,1,0.5,0","3",""
"","html-keyboard-response","351","115569","0.0-441.0","3EO896NRAXHJW6FOIP2YR86CZIJTJQ","A2CDPJ7FMJ4WHG","3HUR21WDDUBEMSLDIXZW1FAIHWSYXN","","null","<img src=""img/food4.png"" style=""width:200px; border:14px solid green;"">","null","","","","","","","","","",""
"","image-keyboard-response","352","115722","0.0-442.0","3EO896NRAXHJW6FOIP2YR86CZIJTJQ","A2CDPJ7FMJ4WHG","3HUR21WDDUBEMSLDIXZW1FAIHWSYXN","","152","img/food4.png","75","153.29999999701977","2","1","","1","1","1,0.5,0,1,0.5,0,0.5,0,1","0,1,0.5,0,1,0.5,1,0.5,0","3",""
"","html-keyboard-response","353","116027","0.0-443.0","3EO896NRAXHJW6FOIP2YR86CZIJTJQ","A2CDPJ7FMJ4WHG","3HUR21WDDUBEMSLDIXZW1FAIHWSYXN","","null","<img src=""img/food4.png"" style=""width:200px; border:14px solid green;"">","null","","","","","","","","","",""
"","image-keyboard-response","354","116065","0.0-444.0","3EO896NRAXHJW6FOIP2YR86CZIJTJQ","A2CDPJ7FMJ4WHG","3HUR21WDDUBEMSLDIXZW1FAIHWSYXN","","37.099999994039536","img/food4.png","75","38.5","2","1","","1","1","1,0.5,0,1,0.5,0,0.5,0,1","0,1,0.5,0,1,0.5,1,0.5,0","3",""
"","html-keyboard-response","355","116370","0.0-445.0","3EO896NRAXHJW6FOIP2YR86CZIJTJQ","A2CDPJ7FMJ4WHG","3HUR21WDDUBEMSLDIXZW1FAIHWSYXN","","null","<img src=""img/food4.png"" style=""width:200px; border:14px solid green;"">","null","","","","","","","","","",""
"","image-keyboard-response","356","116712","0.0-446.0","3EO896NRAXHJW6FOIP2YR86CZIJTJQ","A2CDPJ7FMJ4WHG","3HUR21WDDUBEMSLDIXZW1FAIHWSYXN","","340.40000000596046","img/food6.png","75","341.69999998807907","2","1","","2","1","1,0.5,0,1,0.5,0,0.5,0,1","0,1,0.5,0,1,0.5,1,0.5,0","3",""
"","html-keyboard-response","357","117016","0.0-447.0","3EO896NRAXHJW6FOIP2YR86CZIJTJQ","A2CDPJ7FMJ4WHG","3HUR21WDDUBEMSLDIXZW1FAIHWSYXN","","null","<img src=""img/food6.png"" style=""width:200px; border:14px solid green;"">","null","","","","","","","","","",""
"","image-keyboard-response","358","117432","0.0-448.0","3EO896NRAXHJW6FOIP2YR86CZIJTJQ","A2CDPJ7FMJ4WHG","3HUR21WDDUBEMSLDIXZW1FAIHWSYXN","","414.90000000596046","img/food4.png","75","416.40000000596046","2","1","","1","1","1,0.5,0,1,0.5,0,0.5,0,1","0,1,0.5,0,1,0.5,1,0.5,0","3",""
"","html-keyboard-response","359","117736","0.0-449.0","3EO896NRAXHJW6FOIP2YR86CZIJTJQ","A2CDPJ7FMJ4WHG","3HUR21WDDUBEMSLDIXZW1FAIHWSYXN","","null","<img src=""img/food4.png"" style=""width:200px; border:14px solid green;"">","null","","","","","","","","","",""
"","image-keyboard-response","360","118187","0.0-450.0","3EO896NRAXHJW6FOIP2YR86CZIJTJQ","A2CDPJ7FMJ4WHG","3HUR21WDDUBEMSLDIXZW1FAIHWSYXN","","449.29999999701977","img/food4.png","75","450.5","2","1","","1","1","1,0.5,0,1,0.5,0,0.5,0,1","0,1,0.5,0,1,0.5,1,0.5,0","3",""
"","html-keyboard-response","361","118493","0.0-451.0","3EO896NRAXHJW6FOIP2YR86CZIJTJQ","A2CDPJ7FMJ4WHG","3HUR21WDDUBEMSLDIXZW1FAIHWSYXN","","null","<img src=""img/food4.png"" style=""width:200px; border:14px solid green;"">","null","","","","","","","","","",""
"","image-keyboard-response","362","118543","0.0-452.0","3EO896NRAXHJW6FOIP2YR86CZIJTJQ","A2CDPJ7FMJ4WHG","3HUR21WDDUBEMSLDIXZW1FAIHWSYXN","","48.70000000298023","img/food6.png","76","50","3","0","","2","1","1,0.5,0,1,0.5,0,0.5,0,1","0,1,0.5,0,1,0.5,1,0.5,0","3",""
"","html-keyboard-response","363","118850","0.0-453.0","3EO896NRAXHJW6FOIP2YR86CZIJTJQ","A2CDPJ7FMJ4WHG","3HUR21WDDUBEMSLDIXZW1FAIHWSYXN","","null","<img src=""img/food6.png"" style=""width:200px;border:14px solid red;"">","null","","","","","","","","","",""
"","html-keyboard-response","364","121590","0.0-454.0","3EO896NRAXHJW6FOIP2YR86CZIJTJQ","A2CDPJ7FMJ4WHG","3HUR21WDDUBEMSLDIXZW1FAIHWSYXN","","","","","","","","","","","","","",""
"","instructions","365","122674","0.0-455.0","3EO896NRAXHJW6FOIP2YR86CZIJTJQ","A2CDPJ7FMJ4WHG","3HUR21WDDUBEMSLDIXZW1FAIHWSYXN","[{""page_index"":0,""viewing_time"":1081.8999999910593}]","1082.2000000029802","","","","","","","","","","","",""
"","survey-text","366","125392","0.0-456.0","3EO896NRAXHJW6FOIP2YR86CZIJTJQ","A2CDPJ7FMJ4WHG","3HUR21WDDUBEMSLDIXZW1FAIHWSYXN","","2714","","","","","","","","","","","","{""Q0"":""A2CDPJ7FMJ4WHG""}"
