"success","trial_type","trial_index","time_elapsed","internal_node_id","assignmentID","mturkID","hitID","view_history","rt","stimulus","key_press","reactionTime","a","r","s","reward_cond","responses"
"true","fullscreen","0","2475","0.0-0.0","35BLDD71I7JO9DOH565ZGKINBHZVZ8","A2DLV3WN24WTDS","3WPCIUYH1AU470H2HRBLZRFBM3CTDN","","","","","","","","","",""
"","instructions","1","22939","0.0-1.0","35BLDD71I7JO9DOH565ZGKINBHZVZ8","A2DLV3WN24WTDS","3WPCIUYH1AU470H2HRBLZRFBM3CTDN","[{""page_index"":0,""viewing_time"":1724.800000011921},{""page_index"":1,""viewing_time"":449},{""page_index"":2,""viewing_time"":439.09999999403954},{""page_index"":3,""viewing_time"":416.09999999403954},{""page_index"":4,""viewing_time"":10976.100000023842},{""page_index"":5,""viewing_time"":3095.699999988079},{""page_index"":6,""viewing_time"":1510.199999988079},{""page_index"":7,""viewing_time"":1847.800000011921}]","20460.40000000596","","","","","","","",""
"","image-keyboard-response","2","24584","0.0-2.0","35BLDD71I7JO9DOH565ZGKINBHZVZ8","A2DLV3WN24WTDS","3WPCIUYH1AU470H2HRBLZRFBM3CTDN","","1643.300000011921","img/food2.png","75","1645.5","1","1","3","0.8,0.2,0.8,0.2,0.2,0.8,0.2,0.8",""
"","html-keyboard-response","3","24903","0.0-3.0","35BLDD71I7JO9DOH565ZGKINBHZVZ8","A2DLV3WN24WTDS","3WPCIUYH1AU470H2HRBLZRFBM3CTDN","","null","<img src=""img/food2.png"" style=""width:200px; border:14px solid green;"">","null","","","","","",""
"","image-keyboard-response","4","25597","0.0-4.0","35BLDD71I7JO9DOH565ZGKINBHZVZ8","A2DLV3WN24WTDS","3WPCIUYH1AU470H2HRBLZRFBM3CTDN","","691.5","img/food6.png","76","693.5999999940395","2","0","2","0.8,0.2,0.8,0.2,0.2,0.8,0.2,0.8",""
"","html-keyboard-response","5","25912","0.0-5.0","35BLDD71I7JO9DOH565ZGKINBHZVZ8","A2DLV3WN24WTDS","3WPCIUYH1AU470H2HRBLZRFBM3CTDN","","null","<img src=""img/food6.png"" style=""width:200px;border:14px solid red;"">","null","","","","","",""
"","image-keyboard-response","6","26805","0.0-6.0","35BLDD71I7JO9DOH565ZGKINBHZVZ8","A2DLV3WN24WTDS","3WPCIUYH1AU470H2HRBLZRFBM3CTDN","","891.5999999940395","img/food6.png","75","893.4000000059605","1","1","2","0.8,0.2,0.8,0.2,0.2,0.8,0.2,0.8",""
"","html-keyboard-response","7","27111","0.0-7.0","35BLDD71I7JO9DOH565ZGKINBHZVZ8","A2DLV3WN24WTDS","3WPCIUYH1AU470H2HRBLZRFBM3CTDN","","null","<img src=""img/food6.png"" style=""width:200px; border:14px solid green;"">","null","","","","","",""
"","image-keyboard-response","8","28041","0.0-8.0","35BLDD71I7JO9DOH565ZGKINBHZVZ8","A2DLV3WN24WTDS","3WPCIUYH1AU470H2HRBLZRFBM3CTDN","","927.5","img/food7.png","75","929.3000000119209","1","0","1","0.8,0.2,0.8,0.2,0.2,0.8,0.2,0.8",""
"","html-keyboard-response","9","28352","0.0-9.0","35BLDD71I7JO9DOH565ZGKINBHZVZ8","A2DLV3WN24WTDS","3WPCIUYH1AU470H2HRBLZRFBM3CTDN","","null","<img src=""img/food7.png"" style=""width:200px;border:14px solid red;"">","null","","","","","",""
"","image-keyboard-response","10","30027","0.0-10.0","35BLDD71I7JO9DOH565ZGKINBHZVZ8","A2DLV3WN24WTDS","3WPCIUYH1AU470H2HRBLZRFBM3CTDN","","1673.1000000238419","img/food7.png","76","1675.0999999940395","2","0","1","0.8,0.2,0.8,0.2,0.2,0.8,0.2,0.8",""
"","html-keyboard-response","11","30334","0.0-11.0","35BLDD71I7JO9DOH565ZGKINBHZVZ8","A2DLV3WN24WTDS","3WPCIUYH1AU470H2HRBLZRFBM3CTDN","","null","<img src=""img/food7.png"" style=""width:200px;border:14px solid red;"">","null","","","","","",""
"","image-keyboard-response","12","31478","0.0-12.0","35BLDD71I7JO9DOH565ZGKINBHZVZ8","A2DLV3WN24WTDS","3WPCIUYH1AU470H2HRBLZRFBM3CTDN","","1142.9000000059605","img/food7.png","76","1144.199999988079","2","0","1","0.8,0.2,0.8,0.2,0.2,0.8,0.2,0.8",""
"","html-keyboard-response","13","31786","0.0-13.0","35BLDD71I7JO9DOH565ZGKINBHZVZ8","A2DLV3WN24WTDS","3WPCIUYH1AU470H2HRBLZRFBM3CTDN","","null","<img src=""img/food7.png"" style=""width:200px;border:14px solid red;"">","null","","","","","",""
"","image-keyboard-response","14","33366","0.0-14.0","35BLDD71I7JO9DOH565ZGKINBHZVZ8","A2DLV3WN24WTDS","3WPCIUYH1AU470H2HRBLZRFBM3CTDN","","1578","img/food4.png","75","1579.5","1","0","4","0.8,0.2,0.8,0.2,0.2,0.8,0.2,0.8",""
"","html-keyboard-response","15","33671","0.0-15.0","35BLDD71I7JO9DOH565ZGKINBHZVZ8","A2DLV3WN24WTDS","3WPCIUYH1AU470H2HRBLZRFBM3CTDN","","null","<img src=""img/food4.png"" style=""width:200px;border:14px solid red;"">","null","","","","","",""
"","image-keyboard-response","16","35054","0.0-16.0","35BLDD71I7JO9DOH565ZGKINBHZVZ8","A2DLV3WN24WTDS","3WPCIUYH1AU470H2HRBLZRFBM3CTDN","","1381.9000000059605","img/food2.png","75","1383.800000011921","1","0","3","0.8,0.2,0.8,0.2,0.2,0.8,0.2,0.8",""
"","html-keyboard-response","17","35370","0.0-17.0","35BLDD71I7JO9DOH565ZGKINBHZVZ8","A2DLV3WN24WTDS","3WPCIUYH1AU470H2HRBLZRFBM3CTDN","","null","<img src=""img/food2.png"" style=""width:200px;border:14px solid red;"">","null","","","","","",""
"","image-keyboard-response","18","35797","0.0-18.0","35BLDD71I7JO9DOH565ZGKINBHZVZ8","A2DLV3WN24WTDS","3WPCIUYH1AU470H2HRBLZRFBM3CTDN","","425.7000000178814","img/food2.png","76","427","2","1","3","0.8,0.2,0.8,0.2,0.2,0.8,0.2,0.8",""
"","html-keyboard-response","19","36109","0.0-19.0","35BLDD71I7JO9DOH565ZGKINBHZVZ8","A2DLV3WN24WTDS","3WPCIUYH1AU470H2HRBLZRFBM3CTDN","","null","<img src=""img/food2.png"" style=""width:200px; border:14px solid green;"">","null","","","","","",""
"","image-keyboard-response","20","37318","0.0-20.0","35BLDD71I7JO9DOH565ZGKINBHZVZ8","A2DLV3WN24WTDS","3WPCIUYH1AU470H2HRBLZRFBM3CTDN","","1207.199999988079","img/food6.png","75","1208.5999999940395","1","0","2","0.8,0.2,0.8,0.2,0.2,0.8,0.2,0.8",""
"","html-keyboard-response","21","37628","0.0-21.0","35BLDD71I7JO9DOH565ZGKINBHZVZ8","A2DLV3WN24WTDS","3WPCIUYH1AU470H2HRBLZRFBM3CTDN","","null","<img src=""img/food6.png"" style=""width:200px;border:14px solid red;"">","null","","","","","",""
"","image-keyboard-response","22","38358","0.0-22.0","35BLDD71I7JO9DOH565ZGKINBHZVZ8","A2DLV3WN24WTDS","3WPCIUYH1AU470H2HRBLZRFBM3CTDN","","727.0999999940395","img/food6.png","76","729.0999999940395","2","0","2","0.8,0.2,0.8,0.2,0.2,0.8,0.2,0.8",""
"","html-keyboard-response","23","38662","0.0-23.0","35BLDD71I7JO9DOH565ZGKINBHZVZ8","A2DLV3WN24WTDS","3WPCIUYH1AU470H2HRBLZRFBM3CTDN","","null","<img src=""img/food6.png"" style=""width:200px;border:14px solid red;"">","null","","","","","",""
"","image-keyboard-response","24","39868","0.0-24.0","35BLDD71I7JO9DOH565ZGKINBHZVZ8","A2DLV3WN24WTDS","3WPCIUYH1AU470H2HRBLZRFBM3CTDN","","1203.7000000178814","img/food7.png","75","1205.5","1","1","1","0.8,0.2,0.8,0.2,0.2,0.8,0.2,0.8",""
"","html-keyboard-response","25","40181","0.0-25.0","35BLDD71I7JO9DOH565ZGKINBHZVZ8","A2DLV3WN24WTDS","3WPCIUYH1AU470H2HRBLZRFBM3CTDN","","null","<img src=""img/food7.png"" style=""width:200px; border:14px solid green;"">","null","","","","","",""
"","image-keyboard-response","26","41167","0.0-26.0","35BLDD71I7JO9DOH565ZGKINBHZVZ8","A2DLV3WN24WTDS","3WPCIUYH1AU470H2HRBLZRFBM3CTDN","","984.5","img/food6.png","76","985.7999999821186","2","1","2","0.8,0.2,0.8,0.2,0.2,0.8,0.2,0.8",""
"","html-keyboard-response","27","41482","0.0-27.0","35BLDD71I7JO9DOH565ZGKINBHZVZ8","A2DLV3WN24WTDS","3WPCIUYH1AU470H2HRBLZRFBM3CTDN","","null","<img src=""img/food6.png"" style=""width:200px; border:14px solid green;"">","null","","","","","",""
"","image-keyboard-response","28","42540","0.0-28.0","35BLDD71I7JO9DOH565ZGKINBHZVZ8","A2DLV3WN24WTDS","3WPCIUYH1AU470H2HRBLZRFBM3CTDN","","1053.300000011921","img/food4.png","76","1054.5999999940395","2","1","4","0.8,0.2,0.8,0.2,0.2,0.8,0.2,0.8",""
"","html-keyboard-response","29","42842","0.0-29.0","35BLDD71I7JO9DOH565ZGKINBHZVZ8","A2DLV3WN24WTDS","3WPCIUYH1AU470H2HRBLZRFBM3CTDN","","null","<img src=""img/food4.png"" style=""width:200px; border:14px solid green;"">","null","","","","","",""
"","image-keyboard-response","30","43653","0.0-30.0","35BLDD71I7JO9DOH565ZGKINBHZVZ8","A2DLV3WN24WTDS","3WPCIUYH1AU470H2HRBLZRFBM3CTDN","","809.3000000119209","img/food7.png","75","810.8000000119209","1","1","1","0.8,0.2,0.8,0.2,0.2,0.8,0.2,0.8",""
"","html-keyboard-response","31","43970","0.0-31.0","35BLDD71I7JO9DOH565ZGKINBHZVZ8","A2DLV3WN24WTDS","3WPCIUYH1AU470H2HRBLZRFBM3CTDN","","null","<img src=""img/food7.png"" style=""width:200px; border:14px solid green;"">","null","","","","","",""
"","image-keyboard-response","32","44874","0.0-32.0","35BLDD71I7JO9DOH565ZGKINBHZVZ8","A2DLV3WN24WTDS","3WPCIUYH1AU470H2HRBLZRFBM3CTDN","","902.7999999821186","img/food4.png","76","904.0999999940395","2","1","4","0.8,0.2,0.8,0.2,0.2,0.8,0.2,0.8",""
"","html-keyboard-response","33","45179","0.0-33.0","35BLDD71I7JO9DOH565ZGKINBHZVZ8","A2DLV3WN24WTDS","3WPCIUYH1AU470H2HRBLZRFBM3CTDN","","null","<img src=""img/food4.png"" style=""width:200px; border:14px solid green;"">","null","","","","","",""
"","image-keyboard-response","34","46466","0.0-34.0","35BLDD71I7JO9DOH565ZGKINBHZVZ8","A2DLV3WN24WTDS","3WPCIUYH1AU470H2HRBLZRFBM3CTDN","","1285.199999988079","img/food2.png","76","1286.5","2","1","3","0.8,0.2,0.8,0.2,0.2,0.8,0.2,0.8",""
"","html-keyboard-response","35","46772","0.0-35.0","35BLDD71I7JO9DOH565ZGKINBHZVZ8","A2DLV3WN24WTDS","3WPCIUYH1AU470H2HRBLZRFBM3CTDN","","null","<img src=""img/food2.png"" style=""width:200px; border:14px solid green;"">","null","","","","","",""
"","image-keyboard-response","36","47605","0.0-36.0","35BLDD71I7JO9DOH565ZGKINBHZVZ8","A2DLV3WN24WTDS","3WPCIUYH1AU470H2HRBLZRFBM3CTDN","","831.0999999940395","img/food2.png","76","832.3999999761581","2","1","3","0.8,0.2,0.8,0.2,0.2,0.8,0.2,0.8",""
"","html-keyboard-response","37","47915","0.0-37.0","35BLDD71I7JO9DOH565ZGKINBHZVZ8","A2DLV3WN24WTDS","3WPCIUYH1AU470H2HRBLZRFBM3CTDN","","null","<img src=""img/food2.png"" style=""width:200px; border:14px solid green;"">","null","","","","","",""
"","image-keyboard-response","38","48891","0.0-38.0","35BLDD71I7JO9DOH565ZGKINBHZVZ8","A2DLV3WN24WTDS","3WPCIUYH1AU470H2HRBLZRFBM3CTDN","","974.4000000059605","img/food4.png","76","975.6999999880791","2","1","4","0.8,0.2,0.8,0.2,0.2,0.8,0.2,0.8",""
"","html-keyboard-response","39","49201","0.0-39.0","35BLDD71I7JO9DOH565ZGKINBHZVZ8","A2DLV3WN24WTDS","3WPCIUYH1AU470H2HRBLZRFBM3CTDN","","null","<img src=""img/food4.png"" style=""width:200px; border:14px solid green;"">","null","","","","","",""
"","image-keyboard-response","40","49750","0.0-40.0","35BLDD71I7JO9DOH565ZGKINBHZVZ8","A2DLV3WN24WTDS","3WPCIUYH1AU470H2HRBLZRFBM3CTDN","","548","img/food4.png","76","549.6999999880791","2","0","4","0.8,0.2,0.8,0.2,0.2,0.8,0.2,0.8",""
"","html-keyboard-response","41","50055","0.0-41.0","35BLDD71I7JO9DOH565ZGKINBHZVZ8","A2DLV3WN24WTDS","3WPCIUYH1AU470H2HRBLZRFBM3CTDN","","null","<img src=""img/food4.png"" style=""width:200px;border:14px solid red;"">","null","","","","","",""
"","image-keyboard-response","42","50751","0.0-42.0","35BLDD71I7JO9DOH565ZGKINBHZVZ8","A2DLV3WN24WTDS","3WPCIUYH1AU470H2HRBLZRFBM3CTDN","","693.1000000238419","img/food4.png","76","694.5","2","1","4","0.8,0.2,0.8,0.2,0.2,0.8,0.2,0.8",""
"","html-keyboard-response","43","51059","0.0-43.0","35BLDD71I7JO9DOH565ZGKINBHZVZ8","A2DLV3WN24WTDS","3WPCIUYH1AU470H2HRBLZRFBM3CTDN","","null","<img src=""img/food4.png"" style=""width:200px; border:14px solid green;"">","null","","","","","",""
"","image-keyboard-response","44","52152","0.0-44.0","35BLDD71I7JO9DOH565ZGKINBHZVZ8","A2DLV3WN24WTDS","3WPCIUYH1AU470H2HRBLZRFBM3CTDN","","1092.300000011921","img/food2.png","75","1093.5","1","1","3","0.8,0.2,0.8,0.2,0.2,0.8,0.2,0.8",""
"","html-keyboard-response","45","52466","0.0-45.0","35BLDD71I7JO9DOH565ZGKINBHZVZ8","A2DLV3WN24WTDS","3WPCIUYH1AU470H2HRBLZRFBM3CTDN","","null","<img src=""img/food2.png"" style=""width:200px; border:14px solid green;"">","null","","","","","",""
"","image-keyboard-response","46","52899","0.0-46.0","35BLDD71I7JO9DOH565ZGKINBHZVZ8","A2DLV3WN24WTDS","3WPCIUYH1AU470H2HRBLZRFBM3CTDN","","430.19999998807907","img/food2.png","75","431.90000000596046","1","1","3","0.8,0.2,0.8,0.2,0.2,0.8,0.2,0.8",""
"","html-keyboard-response","47","53207","0.0-47.0","35BLDD71I7JO9DOH565ZGKINBHZVZ8","A2DLV3WN24WTDS","3WPCIUYH1AU470H2HRBLZRFBM3CTDN","","null","<img src=""img/food2.png"" style=""width:200px; border:14px solid green;"">","null","","","","","",""
"","image-keyboard-response","48","55633","0.0-48.0","35BLDD71I7JO9DOH565ZGKINBHZVZ8","A2DLV3WN24WTDS","3WPCIUYH1AU470H2HRBLZRFBM3CTDN","","2423.5","img/food6.png","75","2425.100000023842","1","0","2","0.8,0.2,0.8,0.2,0.2,0.8,0.2,0.8",""
"","html-keyboard-response","49","55936","0.0-49.0","35BLDD71I7JO9DOH565ZGKINBHZVZ8","A2DLV3WN24WTDS","3WPCIUYH1AU470H2HRBLZRFBM3CTDN","","null","<img src=""img/food6.png"" style=""width:200px;border:14px solid red;"">","null","","","","","",""
"","image-keyboard-response","50","56789","0.0-50.0","35BLDD71I7JO9DOH565ZGKINBHZVZ8","A2DLV3WN24WTDS","3WPCIUYH1AU470H2HRBLZRFBM3CTDN","","851.7999999821186","img/food4.png","75","853.2000000178814","1","0","4","0.8,0.2,0.8,0.2,0.2,0.8,0.2,0.8",""
"","html-keyboard-response","51","57093","0.0-51.0","35BLDD71I7JO9DOH565ZGKINBHZVZ8","A2DLV3WN24WTDS","3WPCIUYH1AU470H2HRBLZRFBM3CTDN","","null","<img src=""img/food4.png"" style=""width:200px;border:14px solid red;"">","null","","","","","",""
"","image-keyboard-response","52","57919","0.0-52.0","35BLDD71I7JO9DOH565ZGKINBHZVZ8","A2DLV3WN24WTDS","3WPCIUYH1AU470H2HRBLZRFBM3CTDN","","824.3999999761581","img/food2.png","75","825.7000000178814","1","1","3","0.8,0.2,0.8,0.2,0.2,0.8,0.2,0.8",""
"","html-keyboard-response","53","58237","0.0-53.0","35BLDD71I7JO9DOH565ZGKINBHZVZ8","A2DLV3WN24WTDS","3WPCIUYH1AU470H2HRBLZRFBM3CTDN","","null","<img src=""img/food2.png"" style=""width:200px; border:14px solid green;"">","null","","","","","",""
"","image-keyboard-response","54","58628","0.0-54.0","35BLDD71I7JO9DOH565ZGKINBHZVZ8","A2DLV3WN24WTDS","3WPCIUYH1AU470H2HRBLZRFBM3CTDN","","389.90000000596046","img/food2.png","76","391.19999998807907","2","1","3","0.8,0.2,0.8,0.2,0.2,0.8,0.2,0.8",""
"","html-keyboard-response","55","58931","0.0-55.0","35BLDD71I7JO9DOH565ZGKINBHZVZ8","A2DLV3WN24WTDS","3WPCIUYH1AU470H2HRBLZRFBM3CTDN","","null","<img src=""img/food2.png"" style=""width:200px; border:14px solid green;"">","null","","","","","",""
"","image-keyboard-response","56","59650","0.0-56.0","35BLDD71I7JO9DOH565ZGKINBHZVZ8","A2DLV3WN24WTDS","3WPCIUYH1AU470H2HRBLZRFBM3CTDN","","717","img/food4.png","75","719","1","1","4","0.8,0.2,0.8,0.2,0.2,0.8,0.2,0.8",""
"","html-keyboard-response","57","59957","0.0-57.0","35BLDD71I7JO9DOH565ZGKINBHZVZ8","A2DLV3WN24WTDS","3WPCIUYH1AU470H2HRBLZRFBM3CTDN","","null","<img src=""img/food4.png"" style=""width:200px; border:14px solid green;"">","null","","","","","",""
"","image-keyboard-response","58","60555","0.0-58.0","35BLDD71I7JO9DOH565ZGKINBHZVZ8","A2DLV3WN24WTDS","3WPCIUYH1AU470H2HRBLZRFBM3CTDN","","595.7999999821186","img/food2.png","75","597.4000000059605","1","0","3","0.8,0.2,0.8,0.2,0.2,0.8,0.2,0.8",""
"","html-keyboard-response","59","60865","0.0-59.0","35BLDD71I7JO9DOH565ZGKINBHZVZ8","A2DLV3WN24WTDS","3WPCIUYH1AU470H2HRBLZRFBM3CTDN","","null","<img src=""img/food2.png"" style=""width:200px;border:14px solid red;"">","null","","","","","",""
"","image-keyboard-response","60","61342","0.0-60.0","35BLDD71I7JO9DOH565ZGKINBHZVZ8","A2DLV3WN24WTDS","3WPCIUYH1AU470H2HRBLZRFBM3CTDN","","475.30000001192093","img/food6.png","76","476.7999999821186","2","0","2","0.8,0.2,0.8,0.2,0.2,0.8,0.2,0.8",""
"","html-keyboard-response","61","61656","0.0-61.0","35BLDD71I7JO9DOH565ZGKINBHZVZ8","A2DLV3WN24WTDS","3WPCIUYH1AU470H2HRBLZRFBM3CTDN","","null","<img src=""img/food6.png"" style=""width:200px;border:14px solid red;"">","null","","","","","",""
"","image-keyboard-response","62","62219","0.0-62.0","35BLDD71I7JO9DOH565ZGKINBHZVZ8","A2DLV3WN24WTDS","3WPCIUYH1AU470H2HRBLZRFBM3CTDN","","560.4000000059605","img/food2.png","75","562.5","1","0","3","0.8,0.2,0.8,0.2,0.2,0.8,0.2,0.8",""
"","html-keyboard-response","63","62522","0.0-63.0","35BLDD71I7JO9DOH565ZGKINBHZVZ8","A2DLV3WN24WTDS","3WPCIUYH1AU470H2HRBLZRFBM3CTDN","","null","<img src=""img/food2.png"" style=""width:200px;border:14px solid red;"">","null","","","","","",""
"","image-keyboard-response","64","63062","0.0-64.0","35BLDD71I7JO9DOH565ZGKINBHZVZ8","A2DLV3WN24WTDS","3WPCIUYH1AU470H2HRBLZRFBM3CTDN","","538.9000000059605","img/food2.png","75","540.4000000059605","1","1","3","0.8,0.2,0.8,0.2,0.2,0.8,0.2,0.8",""
"","html-keyboard-response","65","63375","0.0-65.0","35BLDD71I7JO9DOH565ZGKINBHZVZ8","A2DLV3WN24WTDS","3WPCIUYH1AU470H2HRBLZRFBM3CTDN","","null","<img src=""img/food2.png"" style=""width:200px; border:14px solid green;"">","null","","","","","",""
"","image-keyboard-response","66","63846","0.0-66.0","35BLDD71I7JO9DOH565ZGKINBHZVZ8","A2DLV3WN24WTDS","3WPCIUYH1AU470H2HRBLZRFBM3CTDN","","469.69999998807907","img/food6.png","75","471","1","1","2","0.8,0.2,0.8,0.2,0.2,0.8,0.2,0.8",""
"","html-keyboard-response","67","64151","0.0-67.0","35BLDD71I7JO9DOH565ZGKINBHZVZ8","A2DLV3WN24WTDS","3WPCIUYH1AU470H2HRBLZRFBM3CTDN","","null","<img src=""img/food6.png"" style=""width:200px; border:14px solid green;"">","null","","","","","",""
"","image-keyboard-response","68","64936","0.0-68.0","35BLDD71I7JO9DOH565ZGKINBHZVZ8","A2DLV3WN24WTDS","3WPCIUYH1AU470H2HRBLZRFBM3CTDN","","781","img/food7.png","75","784","1","0","1","0.8,0.2,0.8,0.2,0.2,0.8,0.2,0.8",""
"","html-keyboard-response","69","65247","0.0-69.0","35BLDD71I7JO9DOH565ZGKINBHZVZ8","A2DLV3WN24WTDS","3WPCIUYH1AU470H2HRBLZRFBM3CTDN","","null","<img src=""img/food7.png"" style=""width:200px;border:14px solid red;"">","null","","","","","",""
"","image-keyboard-response","70","66048","0.0-70.0","35BLDD71I7JO9DOH565ZGKINBHZVZ8","A2DLV3WN24WTDS","3WPCIUYH1AU470H2HRBLZRFBM3CTDN","","799.1999999880791","img/food4.png","76","800.5","2","0","4","0.8,0.2,0.8,0.2,0.2,0.8,0.2,0.8",""
"","html-keyboard-response","71","66362","0.0-71.0","35BLDD71I7JO9DOH565ZGKINBHZVZ8","A2DLV3WN24WTDS","3WPCIUYH1AU470H2HRBLZRFBM3CTDN","","null","<img src=""img/food4.png"" style=""width:200px;border:14px solid red;"">","null","","","","","",""
"","image-keyboard-response","72","67025","0.0-72.0","35BLDD71I7JO9DOH565ZGKINBHZVZ8","A2DLV3WN24WTDS","3WPCIUYH1AU470H2HRBLZRFBM3CTDN","","662.5","img/food6.png","75","663.5999999940395","1","1","2","0.8,0.2,0.8,0.2,0.2,0.8,0.2,0.8",""
"","html-keyboard-response","73","67339","0.0-73.0","35BLDD71I7JO9DOH565ZGKINBHZVZ8","A2DLV3WN24WTDS","3WPCIUYH1AU470H2HRBLZRFBM3CTDN","","null","<img src=""img/food6.png"" style=""width:200px; border:14px solid green;"">","null","","","","","",""
"","image-keyboard-response","74","67972","0.0-74.0","35BLDD71I7JO9DOH565ZGKINBHZVZ8","A2DLV3WN24WTDS","3WPCIUYH1AU470H2HRBLZRFBM3CTDN","","631.5","img/food7.png","75","632.9000000059605","1","1","1","0.8,0.2,0.8,0.2,0.2,0.8,0.2,0.8",""
"","html-keyboard-response","75","68282","0.0-75.0","35BLDD71I7JO9DOH565ZGKINBHZVZ8","A2DLV3WN24WTDS","3WPCIUYH1AU470H2HRBLZRFBM3CTDN","","null","<img src=""img/food7.png"" style=""width:200px; border:14px solid green;"">","null","","","","","",""
"","image-keyboard-response","76","68913","0.0-76.0","35BLDD71I7JO9DOH565ZGKINBHZVZ8","A2DLV3WN24WTDS","3WPCIUYH1AU470H2HRBLZRFBM3CTDN","","629.3999999761581","img/food2.png","76","630.9000000059605","2","1","3","0.8,0.2,0.8,0.2,0.2,0.8,0.2,0.8",""
"","html-keyboard-response","77","69232","0.0-77.0","35BLDD71I7JO9DOH565ZGKINBHZVZ8","A2DLV3WN24WTDS","3WPCIUYH1AU470H2HRBLZRFBM3CTDN","","null","<img src=""img/food2.png"" style=""width:200px; border:14px solid green;"">","null","","","","","",""
"","image-keyboard-response","78","69753","0.0-78.0","35BLDD71I7JO9DOH565ZGKINBHZVZ8","A2DLV3WN24WTDS","3WPCIUYH1AU470H2HRBLZRFBM3CTDN","","520.2999999821186","img/food2.png","76","521.5","2","1","3","0.8,0.2,0.8,0.2,0.2,0.8,0.2,0.8",""
"","html-keyboard-response","79","70061","0.0-79.0","35BLDD71I7JO9DOH565ZGKINBHZVZ8","A2DLV3WN24WTDS","3WPCIUYH1AU470H2HRBLZRFBM3CTDN","","null","<img src=""img/food2.png"" style=""width:200px; border:14px solid green;"">","null","","","","","",""
"","image-keyboard-response","80","70541","0.0-80.0","35BLDD71I7JO9DOH565ZGKINBHZVZ8","A2DLV3WN24WTDS","3WPCIUYH1AU470H2HRBLZRFBM3CTDN","","476.89999997615814","img/food2.png","76","479.2000000178814","2","1","3","0.8,0.2,0.8,0.2,0.2,0.8,0.2,0.8",""
"","html-keyboard-response","81","70850","0.0-81.0","35BLDD71I7JO9DOH565ZGKINBHZVZ8","A2DLV3WN24WTDS","3WPCIUYH1AU470H2HRBLZRFBM3CTDN","","null","<img src=""img/food2.png"" style=""width:200px; border:14px solid green;"">","null","","","","","",""
"","image-keyboard-response","82","71591","0.0-82.0","35BLDD71I7JO9DOH565ZGKINBHZVZ8","A2DLV3WN24WTDS","3WPCIUYH1AU470H2HRBLZRFBM3CTDN","","738.1999999880791","img/food4.png","76","741.2000000178814","2","1","4","0.8,0.2,0.8,0.2,0.2,0.8,0.2,0.8",""
"","html-keyboard-response","83","71897","0.0-83.0","35BLDD71I7JO9DOH565ZGKINBHZVZ8","A2DLV3WN24WTDS","3WPCIUYH1AU470H2HRBLZRFBM3CTDN","","null","<img src=""img/food4.png"" style=""width:200px; border:14px solid green;"">","null","","","","","",""
"","image-keyboard-response","84","72449","0.0-84.0","35BLDD71I7JO9DOH565ZGKINBHZVZ8","A2DLV3WN24WTDS","3WPCIUYH1AU470H2HRBLZRFBM3CTDN","","550.1999999880791","img/food7.png","75","551.6999999880791","1","1","1","0.8,0.2,0.8,0.2,0.2,0.8,0.2,0.8",""
"","html-keyboard-response","85","72763","0.0-85.0","35BLDD71I7JO9DOH565ZGKINBHZVZ8","A2DLV3WN24WTDS","3WPCIUYH1AU470H2HRBLZRFBM3CTDN","","null","<img src=""img/food7.png"" style=""width:200px; border:14px solid green;"">","null","","","","","",""
"","image-keyboard-response","86","73462","0.0-86.0","35BLDD71I7JO9DOH565ZGKINBHZVZ8","A2DLV3WN24WTDS","3WPCIUYH1AU470H2HRBLZRFBM3CTDN","","697.6999999880791","img/food6.png","75","699.1000000238419","1","1","2","0.8,0.2,0.8,0.2,0.2,0.8,0.2,0.8",""
"","html-keyboard-response","87","73766","0.0-87.0","35BLDD71I7JO9DOH565ZGKINBHZVZ8","A2DLV3WN24WTDS","3WPCIUYH1AU470H2HRBLZRFBM3CTDN","","null","<img src=""img/food6.png"" style=""width:200px; border:14px solid green;"">","null","","","","","",""
"","image-keyboard-response","88","74327","0.0-88.0","35BLDD71I7JO9DOH565ZGKINBHZVZ8","A2DLV3WN24WTDS","3WPCIUYH1AU470H2HRBLZRFBM3CTDN","","560","img/food6.png","75","561.2999999821186","1","1","2","0.8,0.2,0.8,0.2,0.2,0.8,0.2,0.8",""
"","html-keyboard-response","89","74644","0.0-89.0","35BLDD71I7JO9DOH565ZGKINBHZVZ8","A2DLV3WN24WTDS","3WPCIUYH1AU470H2HRBLZRFBM3CTDN","","null","<img src=""img/food6.png"" style=""width:200px; border:14px solid green;"">","null","","","","","",""
"","image-keyboard-response","90","75220","0.0-90.0","35BLDD71I7JO9DOH565ZGKINBHZVZ8","A2DLV3WN24WTDS","3WPCIUYH1AU470H2HRBLZRFBM3CTDN","","574.3000000119209","img/food7.png","75","576.0999999940395","1","1","1","0.8,0.2,0.8,0.2,0.2,0.8,0.2,0.8",""
"","html-keyboard-response","91","75526","0.0-91.0","35BLDD71I7JO9DOH565ZGKINBHZVZ8","A2DLV3WN24WTDS","3WPCIUYH1AU470H2HRBLZRFBM3CTDN","","null","<img src=""img/food7.png"" style=""width:200px; border:14px solid green;"">","null","","","","","",""
"","image-keyboard-response","92","76036","0.0-92.0","35BLDD71I7JO9DOH565ZGKINBHZVZ8","A2DLV3WN24WTDS","3WPCIUYH1AU470H2HRBLZRFBM3CTDN","","508.19999998807907","img/food4.png","76","509.59999999403954","2","1","4","0.8,0.2,0.8,0.2,0.2,0.8,0.2,0.8",""
"","html-keyboard-response","93","76343","0.0-93.0","35BLDD71I7JO9DOH565ZGKINBHZVZ8","A2DLV3WN24WTDS","3WPCIUYH1AU470H2HRBLZRFBM3CTDN","","null","<img src=""img/food4.png"" style=""width:200px; border:14px solid green;"">","null","","","","","",""
"","image-keyboard-response","94","76884","0.0-94.0","35BLDD71I7JO9DOH565ZGKINBHZVZ8","A2DLV3WN24WTDS","3WPCIUYH1AU470H2HRBLZRFBM3CTDN","","538.4000000059605","img/food6.png","75","540.0999999940395","1","0","2","0.8,0.2,0.8,0.2,0.2,0.8,0.2,0.8",""
"","html-keyboard-response","95","77192","0.0-95.0","35BLDD71I7JO9DOH565ZGKINBHZVZ8","A2DLV3WN24WTDS","3WPCIUYH1AU470H2HRBLZRFBM3CTDN","","null","<img src=""img/food6.png"" style=""width:200px;border:14px solid red;"">","null","","","","","",""
"","image-keyboard-response","96","77816","0.0-96.0","35BLDD71I7JO9DOH565ZGKINBHZVZ8","A2DLV3WN24WTDS","3WPCIUYH1AU470H2HRBLZRFBM3CTDN","","622.8000000119209","img/food7.png","75","623.7999999821186","1","1","1","0.8,0.2,0.8,0.2,0.2,0.8,0.2,0.8",""
"","html-keyboard-response","97","78133","0.0-97.0","35BLDD71I7JO9DOH565ZGKINBHZVZ8","A2DLV3WN24WTDS","3WPCIUYH1AU470H2HRBLZRFBM3CTDN","","null","<img src=""img/food7.png"" style=""width:200px; border:14px solid green;"">","null","","","","","",""
"","image-keyboard-response","98","78610","0.0-98.0","35BLDD71I7JO9DOH565ZGKINBHZVZ8","A2DLV3WN24WTDS","3WPCIUYH1AU470H2HRBLZRFBM3CTDN","","475.2000000178814","img/food7.png","75","476.59999999403954","1","1","1","0.8,0.2,0.8,0.2,0.2,0.8,0.2,0.8",""
"","html-keyboard-response","99","78920","0.0-99.0","35BLDD71I7JO9DOH565ZGKINBHZVZ8","A2DLV3WN24WTDS","3WPCIUYH1AU470H2HRBLZRFBM3CTDN","","null","<img src=""img/food7.png"" style=""width:200px; border:14px solid green;"">","null","","","","","",""
"","image-keyboard-response","100","79458","0.0-100.0","35BLDD71I7JO9DOH565ZGKINBHZVZ8","A2DLV3WN24WTDS","3WPCIUYH1AU470H2HRBLZRFBM3CTDN","","536","img/food2.png","76","537.3000000119209","2","1","3","0.8,0.2,0.8,0.2,0.2,0.8,0.2,0.8",""
"","html-keyboard-response","101","79768","0.0-101.0","35BLDD71I7JO9DOH565ZGKINBHZVZ8","A2DLV3WN24WTDS","3WPCIUYH1AU470H2HRBLZRFBM3CTDN","","null","<img src=""img/food2.png"" style=""width:200px; border:14px solid green;"">","null","","","","","",""
"","image-keyboard-response","102","80505","0.0-102.0","35BLDD71I7JO9DOH565ZGKINBHZVZ8","A2DLV3WN24WTDS","3WPCIUYH1AU470H2HRBLZRFBM3CTDN","","735.0999999940395","img/food4.png","75","737","1","0","4","0.8,0.2,0.8,0.2,0.2,0.8,0.2,0.8",""
"","html-keyboard-response","103","80816","0.0-103.0","35BLDD71I7JO9DOH565ZGKINBHZVZ8","A2DLV3WN24WTDS","3WPCIUYH1AU470H2HRBLZRFBM3CTDN","","null","<img src=""img/food4.png"" style=""width:200px;border:14px solid red;"">","null","","","","","",""
"","image-keyboard-response","104","81767","0.0-104.0","35BLDD71I7JO9DOH565ZGKINBHZVZ8","A2DLV3WN24WTDS","3WPCIUYH1AU470H2HRBLZRFBM3CTDN","","949.1999999880791","img/food2.png","76","950.5","2","0","3","0.8,0.2,0.8,0.2,0.2,0.8,0.2,0.8",""
"","html-keyboard-response","105","82081","0.0-105.0","35BLDD71I7JO9DOH565ZGKINBHZVZ8","A2DLV3WN24WTDS","3WPCIUYH1AU470H2HRBLZRFBM3CTDN","","null","<img src=""img/food2.png"" style=""width:200px;border:14px solid red;"">","null","","","","","",""
"","image-keyboard-response","106","82705","0.0-106.0","35BLDD71I7JO9DOH565ZGKINBHZVZ8","A2DLV3WN24WTDS","3WPCIUYH1AU470H2HRBLZRFBM3CTDN","","622","img/food6.png","75","623.4000000059605","1","1","2","0.8,0.2,0.8,0.2,0.2,0.8,0.2,0.8",""
"","html-keyboard-response","107","83018","0.0-107.0","35BLDD71I7JO9DOH565ZGKINBHZVZ8","A2DLV3WN24WTDS","3WPCIUYH1AU470H2HRBLZRFBM3CTDN","","null","<img src=""img/food6.png"" style=""width:200px; border:14px solid green;"">","null","","","","","",""
"","image-keyboard-response","108","83659","0.0-108.0","35BLDD71I7JO9DOH565ZGKINBHZVZ8","A2DLV3WN24WTDS","3WPCIUYH1AU470H2HRBLZRFBM3CTDN","","638.8000000119209","img/food4.png","75","640.0999999940395","1","0","4","0.8,0.2,0.8,0.2,0.2,0.8,0.2,0.8",""
"","html-keyboard-response","109","83963","0.0-109.0","35BLDD71I7JO9DOH565ZGKINBHZVZ8","A2DLV3WN24WTDS","3WPCIUYH1AU470H2HRBLZRFBM3CTDN","","null","<img src=""img/food4.png"" style=""width:200px;border:14px solid red;"">","null","","","","","",""
"","image-keyboard-response","110","84401","0.0-110.0","35BLDD71I7JO9DOH565ZGKINBHZVZ8","A2DLV3WN24WTDS","3WPCIUYH1AU470H2HRBLZRFBM3CTDN","","436.10000002384186","img/food7.png","76","437.40000000596046","2","0","1","0.8,0.2,0.8,0.2,0.2,0.8,0.2,0.8",""
"","html-keyboard-response","111","84704","0.0-111.0","35BLDD71I7JO9DOH565ZGKINBHZVZ8","A2DLV3WN24WTDS","3WPCIUYH1AU470H2HRBLZRFBM3CTDN","","null","<img src=""img/food7.png"" style=""width:200px;border:14px solid red;"">","null","","","","","",""
"","image-keyboard-response","112","84977","0.0-112.0","35BLDD71I7JO9DOH565ZGKINBHZVZ8","A2DLV3WN24WTDS","3WPCIUYH1AU470H2HRBLZRFBM3CTDN","","270.69999998807907","img/food4.png","75","272","1","0","4","0.8,0.2,0.8,0.2,0.2,0.8,0.2,0.8",""
"","html-keyboard-response","113","85294","0.0-113.0","35BLDD71I7JO9DOH565ZGKINBHZVZ8","A2DLV3WN24WTDS","3WPCIUYH1AU470H2HRBLZRFBM3CTDN","","null","<img src=""img/food4.png"" style=""width:200px;border:14px solid red;"">","null","","","","","",""
"","image-keyboard-response","114","85461","0.0-114.0","35BLDD71I7JO9DOH565ZGKINBHZVZ8","A2DLV3WN24WTDS","3WPCIUYH1AU470H2HRBLZRFBM3CTDN","","165.7000000178814","img/food6.png","76","167.09999999403954","2","0","2","0.8,0.2,0.8,0.2,0.2,0.8,0.2,0.8",""
"","html-keyboard-response","115","85772","0.0-115.0","35BLDD71I7JO9DOH565ZGKINBHZVZ8","A2DLV3WN24WTDS","3WPCIUYH1AU470H2HRBLZRFBM3CTDN","","null","<img src=""img/food6.png"" style=""width:200px;border:14px solid red;"">","null","","","","","",""
"","image-keyboard-response","116","86493","0.0-116.0","35BLDD71I7JO9DOH565ZGKINBHZVZ8","A2DLV3WN24WTDS","3WPCIUYH1AU470H2HRBLZRFBM3CTDN","","719.4000000059605","img/food4.png","76","720.9000000059605","2","1","4","0.8,0.2,0.8,0.2,0.2,0.8,0.2,0.8",""
"","html-keyboard-response","117","86804","0.0-117.0","35BLDD71I7JO9DOH565ZGKINBHZVZ8","A2DLV3WN24WTDS","3WPCIUYH1AU470H2HRBLZRFBM3CTDN","","null","<img src=""img/food4.png"" style=""width:200px; border:14px solid green;"">","null","","","","","",""
"","image-keyboard-response","118","87761","0.0-118.0","35BLDD71I7JO9DOH565ZGKINBHZVZ8","A2DLV3WN24WTDS","3WPCIUYH1AU470H2HRBLZRFBM3CTDN","","954.8999999761581","img/food2.png","76","956.5999999940395","2","0","3","0.8,0.2,0.8,0.2,0.2,0.8,0.2,0.8",""
"","html-keyboard-response","119","88069","0.0-119.0","35BLDD71I7JO9DOH565ZGKINBHZVZ8","A2DLV3WN24WTDS","3WPCIUYH1AU470H2HRBLZRFBM3CTDN","","null","<img src=""img/food2.png"" style=""width:200px;border:14px solid red;"">","null","","","","","",""
"","image-keyboard-response","120","88595","0.0-120.0","35BLDD71I7JO9DOH565ZGKINBHZVZ8","A2DLV3WN24WTDS","3WPCIUYH1AU470H2HRBLZRFBM3CTDN","","525","img/food6.png","75","526.3000000119209","1","1","2","0.8,0.2,0.8,0.2,0.2,0.8,0.2,0.8",""
"","html-keyboard-response","121","88903","0.0-121.0","35BLDD71I7JO9DOH565ZGKINBHZVZ8","A2DLV3WN24WTDS","3WPCIUYH1AU470H2HRBLZRFBM3CTDN","","null","<img src=""img/food6.png"" style=""width:200px; border:14px solid green;"">","null","","","","","",""
"","image-keyboard-response","122","89748","0.0-122.0","35BLDD71I7JO9DOH565ZGKINBHZVZ8","A2DLV3WN24WTDS","3WPCIUYH1AU470H2HRBLZRFBM3CTDN","","844.1999999880791","img/food2.png","76","845.4000000059605","2","0","3","0.8,0.2,0.8,0.2,0.2,0.8,0.2,0.8",""
"","html-keyboard-response","123","90061","0.0-123.0","35BLDD71I7JO9DOH565ZGKINBHZVZ8","A2DLV3WN24WTDS","3WPCIUYH1AU470H2HRBLZRFBM3CTDN","","null","<img src=""img/food2.png"" style=""width:200px;border:14px solid red;"">","null","","","","","",""
"","image-keyboard-response","124","90639","0.0-124.0","35BLDD71I7JO9DOH565ZGKINBHZVZ8","A2DLV3WN24WTDS","3WPCIUYH1AU470H2HRBLZRFBM3CTDN","","575.8000000119209","img/food6.png","75","577.1999999880791","1","0","2","0.8,0.2,0.8,0.2,0.2,0.8,0.2,0.8",""
"","html-keyboard-response","125","90946","0.0-125.0","35BLDD71I7JO9DOH565ZGKINBHZVZ8","A2DLV3WN24WTDS","3WPCIUYH1AU470H2HRBLZRFBM3CTDN","","null","<img src=""img/food6.png"" style=""width:200px;border:14px solid red;"">","null","","","","","",""
"","image-keyboard-response","126","91612","0.0-126.0","35BLDD71I7JO9DOH565ZGKINBHZVZ8","A2DLV3WN24WTDS","3WPCIUYH1AU470H2HRBLZRFBM3CTDN","","664.7000000178814","img/food7.png","75","665.9000000059605","1","0","1","0.8,0.2,0.8,0.2,0.2,0.8,0.2,0.8",""
"","html-keyboard-response","127","91919","0.0-127.0","35BLDD71I7JO9DOH565ZGKINBHZVZ8","A2DLV3WN24WTDS","3WPCIUYH1AU470H2HRBLZRFBM3CTDN","","null","<img src=""img/food7.png"" style=""width:200px;border:14px solid red;"">","null","","","","","",""
"","image-keyboard-response","128","92489","0.0-128.0","35BLDD71I7JO9DOH565ZGKINBHZVZ8","A2DLV3WN24WTDS","3WPCIUYH1AU470H2HRBLZRFBM3CTDN","","567.6999999880791","img/food6.png","75","569.1999999880791","1","1","2","0.8,0.2,0.8,0.2,0.2,0.8,0.2,0.8",""
"","html-keyboard-response","129","92831","0.0-129.0","35BLDD71I7JO9DOH565ZGKINBHZVZ8","A2DLV3WN24WTDS","3WPCIUYH1AU470H2HRBLZRFBM3CTDN","","null","<img src=""img/food6.png"" style=""width:200px; border:14px solid green;"">","null","","","","","",""
"","image-keyboard-response","130","93312","0.0-130.0","35BLDD71I7JO9DOH565ZGKINBHZVZ8","A2DLV3WN24WTDS","3WPCIUYH1AU470H2HRBLZRFBM3CTDN","","478.59999999403954","img/food7.png","75","480","1","1","1","0.8,0.2,0.8,0.2,0.2,0.8,0.2,0.8",""
"","html-keyboard-response","131","93618","0.0-131.0","35BLDD71I7JO9DOH565ZGKINBHZVZ8","A2DLV3WN24WTDS","3WPCIUYH1AU470H2HRBLZRFBM3CTDN","","null","<img src=""img/food7.png"" style=""width:200px; border:14px solid green;"">","null","","","","","",""
"","image-keyboard-response","132","94397","0.0-132.0","35BLDD71I7JO9DOH565ZGKINBHZVZ8","A2DLV3WN24WTDS","3WPCIUYH1AU470H2HRBLZRFBM3CTDN","","777","img/food4.png","76","778.4000000059605","2","1","4","0.8,0.2,0.8,0.2,0.2,0.8,0.2,0.8",""
"","html-keyboard-response","133","94700","0.0-133.0","35BLDD71I7JO9DOH565ZGKINBHZVZ8","A2DLV3WN24WTDS","3WPCIUYH1AU470H2HRBLZRFBM3CTDN","","null","<img src=""img/food4.png"" style=""width:200px; border:14px solid green;"">","null","","","","","",""
"","image-keyboard-response","134","95432","0.0-134.0","35BLDD71I7JO9DOH565ZGKINBHZVZ8","A2DLV3WN24WTDS","3WPCIUYH1AU470H2HRBLZRFBM3CTDN","","730.3000000119209","img/food2.png","76","731.6999999880791","2","1","3","0.8,0.2,0.8,0.2,0.2,0.8,0.2,0.8",""
"","html-keyboard-response","135","95735","0.0-135.0","35BLDD71I7JO9DOH565ZGKINBHZVZ8","A2DLV3WN24WTDS","3WPCIUYH1AU470H2HRBLZRFBM3CTDN","","null","<img src=""img/food2.png"" style=""width:200px; border:14px solid green;"">","null","","","","","",""
"","image-keyboard-response","136","96332","0.0-136.0","35BLDD71I7JO9DOH565ZGKINBHZVZ8","A2DLV3WN24WTDS","3WPCIUYH1AU470H2HRBLZRFBM3CTDN","","595.2000000178814","img/food4.png","76","597","2","0","4","0.8,0.2,0.8,0.2,0.2,0.8,0.2,0.8",""
"","html-keyboard-response","137","96648","0.0-137.0","35BLDD71I7JO9DOH565ZGKINBHZVZ8","A2DLV3WN24WTDS","3WPCIUYH1AU470H2HRBLZRFBM3CTDN","","null","<img src=""img/food4.png"" style=""width:200px;border:14px solid red;"">","null","","","","","",""
"","image-keyboard-response","138","97158","0.0-138.0","35BLDD71I7JO9DOH565ZGKINBHZVZ8","A2DLV3WN24WTDS","3WPCIUYH1AU470H2HRBLZRFBM3CTDN","","508","img/food7.png","76","509.7999999821186","2","0","1","0.8,0.2,0.8,0.2,0.2,0.8,0.2,0.8",""
"","html-keyboard-response","139","97464","0.0-139.0","35BLDD71I7JO9DOH565ZGKINBHZVZ8","A2DLV3WN24WTDS","3WPCIUYH1AU470H2HRBLZRFBM3CTDN","","null","<img src=""img/food7.png"" style=""width:200px;border:14px solid red;"">","null","","","","","",""
"","image-keyboard-response","140","97897","0.0-140.0","35BLDD71I7JO9DOH565ZGKINBHZVZ8","A2DLV3WN24WTDS","3WPCIUYH1AU470H2HRBLZRFBM3CTDN","","431.10000002384186","img/food7.png","75","432.90000000596046","1","1","1","0.8,0.2,0.8,0.2,0.2,0.8,0.2,0.8",""
"","html-keyboard-response","141","98206","0.0-141.0","35BLDD71I7JO9DOH565ZGKINBHZVZ8","A2DLV3WN24WTDS","3WPCIUYH1AU470H2HRBLZRFBM3CTDN","","null","<img src=""img/food7.png"" style=""width:200px; border:14px solid green;"">","null","","","","","",""
"","image-keyboard-response","142","98691","0.0-142.0","35BLDD71I7JO9DOH565ZGKINBHZVZ8","A2DLV3WN24WTDS","3WPCIUYH1AU470H2HRBLZRFBM3CTDN","","483.09999999403954","img/food7.png","75","484.60000002384186","1","1","1","0.8,0.2,0.8,0.2,0.2,0.8,0.2,0.8",""
"","html-keyboard-response","143","98996","0.0-143.0","35BLDD71I7JO9DOH565ZGKINBHZVZ8","A2DLV3WN24WTDS","3WPCIUYH1AU470H2HRBLZRFBM3CTDN","","null","<img src=""img/food7.png"" style=""width:200px; border:14px solid green;"">","null","","","","","",""
"","image-keyboard-response","144","99837","0.0-144.0","35BLDD71I7JO9DOH565ZGKINBHZVZ8","A2DLV3WN24WTDS","3WPCIUYH1AU470H2HRBLZRFBM3CTDN","","839.6999999880791","img/food4.png","76","840.8999999761581","2","1","4","0.8,0.2,0.8,0.2,0.2,0.8,0.2,0.8",""
"","html-keyboard-response","145","100144","0.0-145.0","35BLDD71I7JO9DOH565ZGKINBHZVZ8","A2DLV3WN24WTDS","3WPCIUYH1AU470H2HRBLZRFBM3CTDN","","null","<img src=""img/food4.png"" style=""width:200px; border:14px solid green;"">","null","","","","","",""
"","image-keyboard-response","146","100732","0.0-146.0","35BLDD71I7JO9DOH565ZGKINBHZVZ8","A2DLV3WN24WTDS","3WPCIUYH1AU470H2HRBLZRFBM3CTDN","","586.4000000059605","img/food4.png","76","587.5999999940395","2","1","4","0.8,0.2,0.8,0.2,0.2,0.8,0.2,0.8",""
"","html-keyboard-response","147","101039","0.0-147.0","35BLDD71I7JO9DOH565ZGKINBHZVZ8","A2DLV3WN24WTDS","3WPCIUYH1AU470H2HRBLZRFBM3CTDN","","null","<img src=""img/food4.png"" style=""width:200px; border:14px solid green;"">","null","","","","","",""
"","image-keyboard-response","148","101765","0.0-148.0","35BLDD71I7JO9DOH565ZGKINBHZVZ8","A2DLV3WN24WTDS","3WPCIUYH1AU470H2HRBLZRFBM3CTDN","","723.5999999940395","img/food2.png","76","725","2","1","3","0.8,0.2,0.8,0.2,0.2,0.8,0.2,0.8",""
"","html-keyboard-response","149","102079","0.0-149.0","35BLDD71I7JO9DOH565ZGKINBHZVZ8","A2DLV3WN24WTDS","3WPCIUYH1AU470H2HRBLZRFBM3CTDN","","null","<img src=""img/food2.png"" style=""width:200px; border:14px solid green;"">","null","","","","","",""
"","image-keyboard-response","150","102659","0.0-150.0","35BLDD71I7JO9DOH565ZGKINBHZVZ8","A2DLV3WN24WTDS","3WPCIUYH1AU470H2HRBLZRFBM3CTDN","","578.1999999880791","img/food7.png","75","579.5999999940395","1","1","1","0.8,0.2,0.8,0.2,0.2,0.8,0.2,0.8",""
"","html-keyboard-response","151","102975","0.0-151.0","35BLDD71I7JO9DOH565ZGKINBHZVZ8","A2DLV3WN24WTDS","3WPCIUYH1AU470H2HRBLZRFBM3CTDN","","null","<img src=""img/food7.png"" style=""width:200px; border:14px solid green;"">","null","","","","","",""
"","image-keyboard-response","152","103529","0.0-152.0","35BLDD71I7JO9DOH565ZGKINBHZVZ8","A2DLV3WN24WTDS","3WPCIUYH1AU470H2HRBLZRFBM3CTDN","","551.5","img/food6.png","75","553.5","1","1","2","0.8,0.2,0.8,0.2,0.2,0.8,0.2,0.8",""
"","html-keyboard-response","153","103869","0.0-153.0","35BLDD71I7JO9DOH565ZGKINBHZVZ8","A2DLV3WN24WTDS","3WPCIUYH1AU470H2HRBLZRFBM3CTDN","","null","<img src=""img/food6.png"" style=""width:200px; border:14px solid green;"">","null","","","","","",""
"","image-keyboard-response","154","104387","0.0-154.0","35BLDD71I7JO9DOH565ZGKINBHZVZ8","A2DLV3WN24WTDS","3WPCIUYH1AU470H2HRBLZRFBM3CTDN","","516.0999999940395","img/food6.png","75","517.4000000059605","1","1","2","0.8,0.2,0.8,0.2,0.2,0.8,0.2,0.8",""
"","html-keyboard-response","155","104702","0.0-155.0","35BLDD71I7JO9DOH565ZGKINBHZVZ8","A2DLV3WN24WTDS","3WPCIUYH1AU470H2HRBLZRFBM3CTDN","","null","<img src=""img/food6.png"" style=""width:200px; border:14px solid green;"">","null","","","","","",""
"","image-keyboard-response","156","105505","0.0-156.0","35BLDD71I7JO9DOH565ZGKINBHZVZ8","A2DLV3WN24WTDS","3WPCIUYH1AU470H2HRBLZRFBM3CTDN","","800.8999999761581","img/food4.png","76","802","2","1","4","0.8,0.2,0.8,0.2,0.2,0.8,0.2,0.8",""
"","html-keyboard-response","157","105817","0.0-157.0","35BLDD71I7JO9DOH565ZGKINBHZVZ8","A2DLV3WN24WTDS","3WPCIUYH1AU470H2HRBLZRFBM3CTDN","","null","<img src=""img/food4.png"" style=""width:200px; border:14px solid green;"">","null","","","","","",""
"","image-keyboard-response","158","106375","0.0-158.0","35BLDD71I7JO9DOH565ZGKINBHZVZ8","A2DLV3WN24WTDS","3WPCIUYH1AU470H2HRBLZRFBM3CTDN","","556.6999999880791","img/food7.png","75","558","1","1","1","0.8,0.2,0.8,0.2,0.2,0.8,0.2,0.8",""
"","html-keyboard-response","159","106683","0.0-159.0","35BLDD71I7JO9DOH565ZGKINBHZVZ8","A2DLV3WN24WTDS","3WPCIUYH1AU470H2HRBLZRFBM3CTDN","","null","<img src=""img/food7.png"" style=""width:200px; border:14px solid green;"">","null","","","","","",""
"","image-keyboard-response","160","107422","0.0-160.0","35BLDD71I7JO9DOH565ZGKINBHZVZ8","A2DLV3WN24WTDS","3WPCIUYH1AU470H2HRBLZRFBM3CTDN","","737.2999999821186","img/food4.png","76","739.3000000119209","2","1","4","0.8,0.2,0.8,0.2,0.2,0.8,0.2,0.8",""
"","html-keyboard-response","161","107732","0.0-161.0","35BLDD71I7JO9DOH565ZGKINBHZVZ8","A2DLV3WN24WTDS","3WPCIUYH1AU470H2HRBLZRFBM3CTDN","","null","<img src=""img/food4.png"" style=""width:200px; border:14px solid green;"">","null","","","","","",""
"","image-keyboard-response","162","108475","0.0-162.0","35BLDD71I7JO9DOH565ZGKINBHZVZ8","A2DLV3WN24WTDS","3WPCIUYH1AU470H2HRBLZRFBM3CTDN","","740.2999999821186","img/food2.png","76","742.0999999940395","2","1","3","0.8,0.2,0.8,0.2,0.2,0.8,0.2,0.8",""
"","html-keyboard-response","163","108783","0.0-163.0","35BLDD71I7JO9DOH565ZGKINBHZVZ8","A2DLV3WN24WTDS","3WPCIUYH1AU470H2HRBLZRFBM3CTDN","","null","<img src=""img/food2.png"" style=""width:200px; border:14px solid green;"">","null","","","","","",""
"","image-keyboard-response","164","109335","0.0-164.0","35BLDD71I7JO9DOH565ZGKINBHZVZ8","A2DLV3WN24WTDS","3WPCIUYH1AU470H2HRBLZRFBM3CTDN","","550.4000000059605","img/food7.png","75","551.8999999761581","1","0","1","0.8,0.2,0.8,0.2,0.2,0.8,0.2,0.8",""
"","html-keyboard-response","165","109650","0.0-165.0","35BLDD71I7JO9DOH565ZGKINBHZVZ8","A2DLV3WN24WTDS","3WPCIUYH1AU470H2HRBLZRFBM3CTDN","","null","<img src=""img/food7.png"" style=""width:200px;border:14px solid red;"">","null","","","","","",""
"","image-keyboard-response","166","110538","0.0-166.0","35BLDD71I7JO9DOH565ZGKINBHZVZ8","A2DLV3WN24WTDS","3WPCIUYH1AU470H2HRBLZRFBM3CTDN","","886.2999999821186","img/food2.png","76","887.9000000059605","2","1","3","0.8,0.2,0.8,0.2,0.2,0.8,0.2,0.8",""
"","html-keyboard-response","167","110854","0.0-167.0","35BLDD71I7JO9DOH565ZGKINBHZVZ8","A2DLV3WN24WTDS","3WPCIUYH1AU470H2HRBLZRFBM3CTDN","","null","<img src=""img/food2.png"" style=""width:200px; border:14px solid green;"">","null","","","","","",""
"","image-keyboard-response","168","111613","0.0-168.0","35BLDD71I7JO9DOH565ZGKINBHZVZ8","A2DLV3WN24WTDS","3WPCIUYH1AU470H2HRBLZRFBM3CTDN","","756.9000000059605","img/food4.png","76","758.5","2","1","4","0.8,0.2,0.8,0.2,0.2,0.8,0.2,0.8",""
"","html-keyboard-response","169","111920","0.0-169.0","35BLDD71I7JO9DOH565ZGKINBHZVZ8","A2DLV3WN24WTDS","3WPCIUYH1AU470H2HRBLZRFBM3CTDN","","null","<img src=""img/food4.png"" style=""width:200px; border:14px solid green;"">","null","","","","","",""
"","image-keyboard-response","170","112469","0.0-170.0","35BLDD71I7JO9DOH565ZGKINBHZVZ8","A2DLV3WN24WTDS","3WPCIUYH1AU470H2HRBLZRFBM3CTDN","","547.7999999821186","img/food4.png","76","549.0999999940395","2","1","4","0.8,0.2,0.8,0.2,0.2,0.8,0.2,0.8",""
"","html-keyboard-response","171","112786","0.0-171.0","35BLDD71I7JO9DOH565ZGKINBHZVZ8","A2DLV3WN24WTDS","3WPCIUYH1AU470H2HRBLZRFBM3CTDN","","null","<img src=""img/food4.png"" style=""width:200px; border:14px solid green;"">","null","","","","","",""
"","image-keyboard-response","172","113527","0.0-172.0","35BLDD71I7JO9DOH565ZGKINBHZVZ8","A2DLV3WN24WTDS","3WPCIUYH1AU470H2HRBLZRFBM3CTDN","","739.9000000059605","img/food2.png","76","741.0999999940395","2","1","3","0.8,0.2,0.8,0.2,0.2,0.8,0.2,0.8",""
"","html-keyboard-response","173","113840","0.0-173.0","35BLDD71I7JO9DOH565ZGKINBHZVZ8","A2DLV3WN24WTDS","3WPCIUYH1AU470H2HRBLZRFBM3CTDN","","null","<img src=""img/food2.png"" style=""width:200px; border:14px solid green;"">","null","","","","","",""
"","image-keyboard-response","174","114361","0.0-174.0","35BLDD71I7JO9DOH565ZGKINBHZVZ8","A2DLV3WN24WTDS","3WPCIUYH1AU470H2HRBLZRFBM3CTDN","","519.4000000059605","img/food6.png","75","520.7000000178814","1","1","2","0.8,0.2,0.8,0.2,0.2,0.8,0.2,0.8",""
"","html-keyboard-response","175","114678","0.0-175.0","35BLDD71I7JO9DOH565ZGKINBHZVZ8","A2DLV3WN24WTDS","3WPCIUYH1AU470H2HRBLZRFBM3CTDN","","null","<img src=""img/food6.png"" style=""width:200px; border:14px solid green;"">","null","","","","","",""
"","image-keyboard-response","176","115339","0.0-176.0","35BLDD71I7JO9DOH565ZGKINBHZVZ8","A2DLV3WN24WTDS","3WPCIUYH1AU470H2HRBLZRFBM3CTDN","","658.7999999821186","img/food2.png","76","660.5999999940395","2","1","3","0.8,0.2,0.8,0.2,0.2,0.8,0.2,0.8",""
"","html-keyboard-response","177","115653","0.0-177.0","35BLDD71I7JO9DOH565ZGKINBHZVZ8","A2DLV3WN24WTDS","3WPCIUYH1AU470H2HRBLZRFBM3CTDN","","null","<img src=""img/food2.png"" style=""width:200px; border:14px solid green;"">","null","","","","","",""
"","image-keyboard-response","178","116253","0.0-178.0","35BLDD71I7JO9DOH565ZGKINBHZVZ8","A2DLV3WN24WTDS","3WPCIUYH1AU470H2HRBLZRFBM3CTDN","","598.5","img/food4.png","75","600","1","0","4","0.8,0.2,0.8,0.2,0.2,0.8,0.2,0.8",""
"","html-keyboard-response","179","116568","0.0-179.0","35BLDD71I7JO9DOH565ZGKINBHZVZ8","A2DLV3WN24WTDS","3WPCIUYH1AU470H2HRBLZRFBM3CTDN","","null","<img src=""img/food4.png"" style=""width:200px;border:14px solid red;"">","null","","","","","",""
"","image-keyboard-response","180","117261","0.0-180.0","35BLDD71I7JO9DOH565ZGKINBHZVZ8","A2DLV3WN24WTDS","3WPCIUYH1AU470H2HRBLZRFBM3CTDN","","689","img/food6.png","75","692.2000000178814","1","1","2","0.8,0.2,0.8,0.2,0.2,0.8,0.2,0.8",""
"","html-keyboard-response","181","117568","0.0-181.0","35BLDD71I7JO9DOH565ZGKINBHZVZ8","A2DLV3WN24WTDS","3WPCIUYH1AU470H2HRBLZRFBM3CTDN","","null","<img src=""img/food6.png"" style=""width:200px; border:14px solid green;"">","null","","","","","",""
"","image-keyboard-response","182","118250","0.0-182.0","35BLDD71I7JO9DOH565ZGKINBHZVZ8","A2DLV3WN24WTDS","3WPCIUYH1AU470H2HRBLZRFBM3CTDN","","680","img/food7.png","75","681.4000000059605","1","1","1","0.8,0.2,0.8,0.2,0.2,0.8,0.2,0.8",""
"","html-keyboard-response","183","118555","0.0-183.0","35BLDD71I7JO9DOH565ZGKINBHZVZ8","A2DLV3WN24WTDS","3WPCIUYH1AU470H2HRBLZRFBM3CTDN","","null","<img src=""img/food7.png"" style=""width:200px; border:14px solid green;"">","null","","","","","",""
"","image-keyboard-response","184","119288","0.0-184.0","35BLDD71I7JO9DOH565ZGKINBHZVZ8","A2DLV3WN24WTDS","3WPCIUYH1AU470H2HRBLZRFBM3CTDN","","730","img/food2.png","76","732.1000000238419","2","0","3","0.8,0.2,0.8,0.2,0.2,0.8,0.2,0.8",""
"","html-keyboard-response","185","119609","0.0-185.0","35BLDD71I7JO9DOH565ZGKINBHZVZ8","A2DLV3WN24WTDS","3WPCIUYH1AU470H2HRBLZRFBM3CTDN","","null","<img src=""img/food2.png"" style=""width:200px;border:14px solid red;"">","null","","","","","",""
"","image-keyboard-response","186","120236","0.0-186.0","35BLDD71I7JO9DOH565ZGKINBHZVZ8","A2DLV3WN24WTDS","3WPCIUYH1AU470H2HRBLZRFBM3CTDN","","625.6999999880791","img/food6.png","75","627.0999999940395","1","1","2","0.8,0.2,0.8,0.2,0.2,0.8,0.2,0.8",""
"","html-keyboard-response","187","120551","0.0-187.0","35BLDD71I7JO9DOH565ZGKINBHZVZ8","A2DLV3WN24WTDS","3WPCIUYH1AU470H2HRBLZRFBM3CTDN","","null","<img src=""img/food6.png"" style=""width:200px; border:14px solid green;"">","null","","","","","",""
"","image-keyboard-response","188","121210","0.0-188.0","35BLDD71I7JO9DOH565ZGKINBHZVZ8","A2DLV3WN24WTDS","3WPCIUYH1AU470H2HRBLZRFBM3CTDN","","657.4000000059605","img/food7.png","75","658.5","1","1","1","0.8,0.2,0.8,0.2,0.2,0.8,0.2,0.8",""
"","html-keyboard-response","189","121512","0.0-189.0","35BLDD71I7JO9DOH565ZGKINBHZVZ8","A2DLV3WN24WTDS","3WPCIUYH1AU470H2HRBLZRFBM3CTDN","","null","<img src=""img/food7.png"" style=""width:200px; border:14px solid green;"">","null","","","","","",""
"","image-keyboard-response","190","122111","0.0-190.0","35BLDD71I7JO9DOH565ZGKINBHZVZ8","A2DLV3WN24WTDS","3WPCIUYH1AU470H2HRBLZRFBM3CTDN","","596.9000000059605","img/food7.png","75","598.8000000119209","1","1","1","0.8,0.2,0.8,0.2,0.2,0.8,0.2,0.8",""
"","html-keyboard-response","191","122426","0.0-191.0","35BLDD71I7JO9DOH565ZGKINBHZVZ8","A2DLV3WN24WTDS","3WPCIUYH1AU470H2HRBLZRFBM3CTDN","","null","<img src=""img/food7.png"" style=""width:200px; border:14px solid green;"">","null","","","","","",""
"","image-keyboard-response","192","123060","0.0-192.0","35BLDD71I7JO9DOH565ZGKINBHZVZ8","A2DLV3WN24WTDS","3WPCIUYH1AU470H2HRBLZRFBM3CTDN","","633.0999999940395","img/food6.png","75","634.5","1","1","2","0.8,0.2,0.8,0.2,0.2,0.8,0.2,0.8",""
"","html-keyboard-response","193","123365","0.0-193.0","35BLDD71I7JO9DOH565ZGKINBHZVZ8","A2DLV3WN24WTDS","3WPCIUYH1AU470H2HRBLZRFBM3CTDN","","null","<img src=""img/food6.png"" style=""width:200px; border:14px solid green;"">","null","","","","","",""
"","image-keyboard-response","194","123836","0.0-194.0","35BLDD71I7JO9DOH565ZGKINBHZVZ8","A2DLV3WN24WTDS","3WPCIUYH1AU470H2HRBLZRFBM3CTDN","","469.90000000596046","img/food6.png","75","471.39999997615814","1","1","2","0.8,0.2,0.8,0.2,0.2,0.8,0.2,0.8",""
"","html-keyboard-response","195","124150","0.0-195.0","35BLDD71I7JO9DOH565ZGKINBHZVZ8","A2DLV3WN24WTDS","3WPCIUYH1AU470H2HRBLZRFBM3CTDN","","null","<img src=""img/food6.png"" style=""width:200px; border:14px solid green;"">","null","","","","","",""
"","image-keyboard-response","196","124785","0.0-196.0","35BLDD71I7JO9DOH565ZGKINBHZVZ8","A2DLV3WN24WTDS","3WPCIUYH1AU470H2HRBLZRFBM3CTDN","","632.6999999880791","img/food7.png","75","634.7000000178814","1","1","1","0.8,0.2,0.8,0.2,0.2,0.8,0.2,0.8",""
"","html-keyboard-response","197","125096","0.0-197.0","35BLDD71I7JO9DOH565ZGKINBHZVZ8","A2DLV3WN24WTDS","3WPCIUYH1AU470H2HRBLZRFBM3CTDN","","null","<img src=""img/food7.png"" style=""width:200px; border:14px solid green;"">","null","","","","","",""
"","image-keyboard-response","198","125604","0.0-198.0","35BLDD71I7JO9DOH565ZGKINBHZVZ8","A2DLV3WN24WTDS","3WPCIUYH1AU470H2HRBLZRFBM3CTDN","","506.09999999403954","img/food6.png","75","508","1","1","2","0.8,0.2,0.8,0.2,0.2,0.8,0.2,0.8",""
"","html-keyboard-response","199","125914","0.0-199.0","35BLDD71I7JO9DOH565ZGKINBHZVZ8","A2DLV3WN24WTDS","3WPCIUYH1AU470H2HRBLZRFBM3CTDN","","null","<img src=""img/food6.png"" style=""width:200px; border:14px solid green;"">","null","","","","","",""
"","image-keyboard-response","200","126389","0.0-200.0","35BLDD71I7JO9DOH565ZGKINBHZVZ8","A2DLV3WN24WTDS","3WPCIUYH1AU470H2HRBLZRFBM3CTDN","","472.7000000178814","img/food6.png","75","475.09999999403954","1","1","2","0.8,0.2,0.8,0.2,0.2,0.8,0.2,0.8",""
"","html-keyboard-response","201","126702","0.0-201.0","35BLDD71I7JO9DOH565ZGKINBHZVZ8","A2DLV3WN24WTDS","3WPCIUYH1AU470H2HRBLZRFBM3CTDN","","null","<img src=""img/food6.png"" style=""width:200px; border:14px solid green;"">","null","","","","","",""
"","image-keyboard-response","202","127258","0.0-202.0","35BLDD71I7JO9DOH565ZGKINBHZVZ8","A2DLV3WN24WTDS","3WPCIUYH1AU470H2HRBLZRFBM3CTDN","","554","img/food4.png","76","555.4000000059605","2","1","4","0.8,0.2,0.8,0.2,0.2,0.8,0.2,0.8",""
"","html-keyboard-response","203","127565","0.0-203.0","35BLDD71I7JO9DOH565ZGKINBHZVZ8","A2DLV3WN24WTDS","3WPCIUYH1AU470H2HRBLZRFBM3CTDN","","null","<img src=""img/food4.png"" style=""width:200px; border:14px solid green;"">","null","","","","","",""
"","image-keyboard-response","204","128137","0.0-204.0","35BLDD71I7JO9DOH565ZGKINBHZVZ8","A2DLV3WN24WTDS","3WPCIUYH1AU470H2HRBLZRFBM3CTDN","","570.3000000119209","img/food6.png","75","572","1","0","2","0.8,0.2,0.8,0.2,0.2,0.8,0.2,0.8",""
"","html-keyboard-response","205","128446","0.0-205.0","35BLDD71I7JO9DOH565ZGKINBHZVZ8","A2DLV3WN24WTDS","3WPCIUYH1AU470H2HRBLZRFBM3CTDN","","null","<img src=""img/food6.png"" style=""width:200px;border:14px solid red;"">","null","","","","","",""
"","image-keyboard-response","206","129201","0.0-206.0","35BLDD71I7JO9DOH565ZGKINBHZVZ8","A2DLV3WN24WTDS","3WPCIUYH1AU470H2HRBLZRFBM3CTDN","","752.9000000059605","img/food6.png","75","754.2999999821186","1","1","2","0.8,0.2,0.8,0.2,0.2,0.8,0.2,0.8",""
"","html-keyboard-response","207","129510","0.0-207.0","35BLDD71I7JO9DOH565ZGKINBHZVZ8","A2DLV3WN24WTDS","3WPCIUYH1AU470H2HRBLZRFBM3CTDN","","null","<img src=""img/food6.png"" style=""width:200px; border:14px solid green;"">","null","","","","","",""
"","image-keyboard-response","208","130122","0.0-208.0","35BLDD71I7JO9DOH565ZGKINBHZVZ8","A2DLV3WN24WTDS","3WPCIUYH1AU470H2HRBLZRFBM3CTDN","","610.9000000059605","img/food4.png","76","612.5","2","1","4","0.8,0.2,0.8,0.2,0.2,0.8,0.2,0.8",""
"","html-keyboard-response","209","130424","0.0-209.0","35BLDD71I7JO9DOH565ZGKINBHZVZ8","A2DLV3WN24WTDS","3WPCIUYH1AU470H2HRBLZRFBM3CTDN","","null","<img src=""img/food4.png"" style=""width:200px; border:14px solid green;"">","null","","","","","",""
"","image-keyboard-response","210","131080","0.0-210.0","35BLDD71I7JO9DOH565ZGKINBHZVZ8","A2DLV3WN24WTDS","3WPCIUYH1AU470H2HRBLZRFBM3CTDN","","653.6999999880791","img/food2.png","76","655.6999999880791","2","1","3","0.8,0.2,0.8,0.2,0.2,0.8,0.2,0.8",""
"","html-keyboard-response","211","131396","0.0-211.0","35BLDD71I7JO9DOH565ZGKINBHZVZ8","A2DLV3WN24WTDS","3WPCIUYH1AU470H2HRBLZRFBM3CTDN","","null","<img src=""img/food2.png"" style=""width:200px; border:14px solid green;"">","null","","","","","",""
"","image-keyboard-response","212","131849","0.0-212.0","35BLDD71I7JO9DOH565ZGKINBHZVZ8","A2DLV3WN24WTDS","3WPCIUYH1AU470H2HRBLZRFBM3CTDN","","450.19999998807907","img/food2.png","76","452.09999999403954","2","1","3","0.8,0.2,0.8,0.2,0.2,0.8,0.2,0.8",""
"","html-keyboard-response","213","132155","0.0-213.0","35BLDD71I7JO9DOH565ZGKINBHZVZ8","A2DLV3WN24WTDS","3WPCIUYH1AU470H2HRBLZRFBM3CTDN","","null","<img src=""img/food2.png"" style=""width:200px; border:14px solid green;"">","null","","","","","",""
"","image-keyboard-response","214","132805","0.0-214.0","35BLDD71I7JO9DOH565ZGKINBHZVZ8","A2DLV3WN24WTDS","3WPCIUYH1AU470H2HRBLZRFBM3CTDN","","648.6999999880791","img/food4.png","76","650","2","1","4","0.8,0.2,0.8,0.2,0.2,0.8,0.2,0.8",""
"","html-keyboard-response","215","133114","0.0-215.0","35BLDD71I7JO9DOH565ZGKINBHZVZ8","A2DLV3WN24WTDS","3WPCIUYH1AU470H2HRBLZRFBM3CTDN","","null","<img src=""img/food4.png"" style=""width:200px; border:14px solid green;"">","null","","","","","",""
"","image-keyboard-response","216","133679","0.0-216.0","35BLDD71I7JO9DOH565ZGKINBHZVZ8","A2DLV3WN24WTDS","3WPCIUYH1AU470H2HRBLZRFBM3CTDN","","563.4000000059605","img/food2.png","76","565.2999999821186","2","0","3","0.8,0.2,0.8,0.2,0.2,0.8,0.2,0.8",""
"","html-keyboard-response","217","133997","0.0-217.0","35BLDD71I7JO9DOH565ZGKINBHZVZ8","A2DLV3WN24WTDS","3WPCIUYH1AU470H2HRBLZRFBM3CTDN","","null","<img src=""img/food2.png"" style=""width:200px;border:14px solid red;"">","null","","","","","",""
"","image-keyboard-response","218","134556","0.0-218.0","35BLDD71I7JO9DOH565ZGKINBHZVZ8","A2DLV3WN24WTDS","3WPCIUYH1AU470H2HRBLZRFBM3CTDN","","558","img/food7.png","75","559.3000000119209","1","1","1","0.8,0.2,0.8,0.2,0.2,0.8,0.2,0.8",""
"","html-keyboard-response","219","134873","0.0-219.0","35BLDD71I7JO9DOH565ZGKINBHZVZ8","A2DLV3WN24WTDS","3WPCIUYH1AU470H2HRBLZRFBM3CTDN","","null","<img src=""img/food7.png"" style=""width:200px; border:14px solid green;"">","null","","","","","",""
"","image-keyboard-response","220","135366","0.0-220.0","35BLDD71I7JO9DOH565ZGKINBHZVZ8","A2DLV3WN24WTDS","3WPCIUYH1AU470H2HRBLZRFBM3CTDN","","490.80000001192093","img/food7.png","75","492","1","1","1","0.8,0.2,0.8,0.2,0.2,0.8,0.2,0.8",""
"","html-keyboard-response","221","135678","0.0-221.0","35BLDD71I7JO9DOH565ZGKINBHZVZ8","A2DLV3WN24WTDS","3WPCIUYH1AU470H2HRBLZRFBM3CTDN","","null","<img src=""img/food7.png"" style=""width:200px; border:14px solid green;"">","null","","","","","",""
"","image-keyboard-response","222","136235","0.0-222.0","35BLDD71I7JO9DOH565ZGKINBHZVZ8","A2DLV3WN24WTDS","3WPCIUYH1AU470H2HRBLZRFBM3CTDN","","555.4000000059605","img/food4.png","76","556.6999999880791","2","1","4","0.8,0.2,0.8,0.2,0.2,0.8,0.2,0.8",""
"","html-keyboard-response","223","136544","0.0-223.0","35BLDD71I7JO9DOH565ZGKINBHZVZ8","A2DLV3WN24WTDS","3WPCIUYH1AU470H2HRBLZRFBM3CTDN","","null","<img src=""img/food4.png"" style=""width:200px; border:14px solid green;"">","null","","","","","",""
"","image-keyboard-response","224","137283","0.0-224.0","35BLDD71I7JO9DOH565ZGKINBHZVZ8","A2DLV3WN24WTDS","3WPCIUYH1AU470H2HRBLZRFBM3CTDN","","738.2000000178814","img/food2.png","76","739.5","2","0","3","0.8,0.2,0.8,0.2,0.2,0.8,0.2,0.8",""
"","html-keyboard-response","225","137599","0.0-225.0","35BLDD71I7JO9DOH565ZGKINBHZVZ8","A2DLV3WN24WTDS","3WPCIUYH1AU470H2HRBLZRFBM3CTDN","","null","<img src=""img/food2.png"" style=""width:200px;border:14px solid red;"">","null","","","","","",""
"","image-keyboard-response","226","138290","0.0-226.0","35BLDD71I7JO9DOH565ZGKINBHZVZ8","A2DLV3WN24WTDS","3WPCIUYH1AU470H2HRBLZRFBM3CTDN","","689.4000000059605","img/food4.png","76","690.8000000119209","2","1","4","0.8,0.2,0.8,0.2,0.2,0.8,0.2,0.8",""
"","html-keyboard-response","227","138606","0.0-227.0","35BLDD71I7JO9DOH565ZGKINBHZVZ8","A2DLV3WN24WTDS","3WPCIUYH1AU470H2HRBLZRFBM3CTDN","","null","<img src=""img/food4.png"" style=""width:200px; border:14px solid green;"">","null","","","","","",""
"","image-keyboard-response","228","139179","0.0-228.0","35BLDD71I7JO9DOH565ZGKINBHZVZ8","A2DLV3WN24WTDS","3WPCIUYH1AU470H2HRBLZRFBM3CTDN","","571.9000000059605","img/food6.png","75","573","1","1","2","0.8,0.2,0.8,0.2,0.2,0.8,0.2,0.8",""
"","html-keyboard-response","229","139486","0.0-229.0","35BLDD71I7JO9DOH565ZGKINBHZVZ8","A2DLV3WN24WTDS","3WPCIUYH1AU470H2HRBLZRFBM3CTDN","","null","<img src=""img/food6.png"" style=""width:200px; border:14px solid green;"">","null","","","","","",""
"","image-keyboard-response","230","140042","0.0-230.0","35BLDD71I7JO9DOH565ZGKINBHZVZ8","A2DLV3WN24WTDS","3WPCIUYH1AU470H2HRBLZRFBM3CTDN","","554.1999999880791","img/food7.png","75","556.6000000238419","1","1","1","0.8,0.2,0.8,0.2,0.2,0.8,0.2,0.8",""
"","html-keyboard-response","231","140351","0.0-231.0","35BLDD71I7JO9DOH565ZGKINBHZVZ8","A2DLV3WN24WTDS","3WPCIUYH1AU470H2HRBLZRFBM3CTDN","","null","<img src=""img/food7.png"" style=""width:200px; border:14px solid green;"">","null","","","","","",""
"","image-keyboard-response","232","140807","0.0-232.0","35BLDD71I7JO9DOH565ZGKINBHZVZ8","A2DLV3WN24WTDS","3WPCIUYH1AU470H2HRBLZRFBM3CTDN","","453.90000000596046","img/food7.png","75","455.2999999821186","1","0","1","0.8,0.2,0.8,0.2,0.2,0.8,0.2,0.8",""
"","html-keyboard-response","233","141124","0.0-233.0","35BLDD71I7JO9DOH565ZGKINBHZVZ8","A2DLV3WN24WTDS","3WPCIUYH1AU470H2HRBLZRFBM3CTDN","","null","<img src=""img/food7.png"" style=""width:200px;border:14px solid red;"">","null","","","","","",""
"","image-keyboard-response","234","141715","0.0-234.0","35BLDD71I7JO9DOH565ZGKINBHZVZ8","A2DLV3WN24WTDS","3WPCIUYH1AU470H2HRBLZRFBM3CTDN","","589.4000000059605","img/food7.png","75","590.6999999880791","1","1","1","0.8,0.2,0.8,0.2,0.2,0.8,0.2,0.8",""
"","html-keyboard-response","235","142019","0.0-235.0","35BLDD71I7JO9DOH565ZGKINBHZVZ8","A2DLV3WN24WTDS","3WPCIUYH1AU470H2HRBLZRFBM3CTDN","","null","<img src=""img/food7.png"" style=""width:200px; border:14px solid green;"">","null","","","","","",""
"","image-keyboard-response","236","142464","0.0-236.0","35BLDD71I7JO9DOH565ZGKINBHZVZ8","A2DLV3WN24WTDS","3WPCIUYH1AU470H2HRBLZRFBM3CTDN","","442.59999999403954","img/food7.png","75","444.19999998807907","1","1","1","0.8,0.2,0.8,0.2,0.2,0.8,0.2,0.8",""
"","html-keyboard-response","237","142776","0.0-237.0","35BLDD71I7JO9DOH565ZGKINBHZVZ8","A2DLV3WN24WTDS","3WPCIUYH1AU470H2HRBLZRFBM3CTDN","","null","<img src=""img/food7.png"" style=""width:200px; border:14px solid green;"">","null","","","","","",""
"","image-keyboard-response","238","143419","0.0-238.0","35BLDD71I7JO9DOH565ZGKINBHZVZ8","A2DLV3WN24WTDS","3WPCIUYH1AU470H2HRBLZRFBM3CTDN","","640.7999999821186","img/food6.png","75","642.1000000238419","1","1","2","0.8,0.2,0.8,0.2,0.2,0.8,0.2,0.8",""
"","html-keyboard-response","239","143735","0.0-239.0","35BLDD71I7JO9DOH565ZGKINBHZVZ8","A2DLV3WN24WTDS","3WPCIUYH1AU470H2HRBLZRFBM3CTDN","","null","<img src=""img/food6.png"" style=""width:200px; border:14px solid green;"">","null","","","","","",""
"","image-keyboard-response","240","144253","0.0-240.0","35BLDD71I7JO9DOH565ZGKINBHZVZ8","A2DLV3WN24WTDS","3WPCIUYH1AU470H2HRBLZRFBM3CTDN","","517.0999999940395","img/food4.png","76","518.3000000119209","2","1","4","0.8,0.2,0.8,0.2,0.2,0.8,0.2,0.8",""
"","html-keyboard-response","241","144569","0.0-241.0","35BLDD71I7JO9DOH565ZGKINBHZVZ8","A2DLV3WN24WTDS","3WPCIUYH1AU470H2HRBLZRFBM3CTDN","","null","<img src=""img/food4.png"" style=""width:200px; border:14px solid green;"">","null","","","","","",""
"","html-keyboard-response","242","147111","0.0-242.0","35BLDD71I7JO9DOH565ZGKINBHZVZ8","A2DLV3WN24WTDS","3WPCIUYH1AU470H2HRBLZRFBM3CTDN","","","","","","","","","",""
"","image-keyboard-response","243","152953","0.0-243.0","35BLDD71I7JO9DOH565ZGKINBHZVZ8","A2DLV3WN24WTDS","3WPCIUYH1AU470H2HRBLZRFBM3CTDN","","5840.199999988079","img/food1.png","75","5842.200000017881","1","0","1","0.2,0.8,0.2,0.8,0.2,0.8,0.8,0.2",""
"","html-keyboard-response","244","153261","0.0-244.0","35BLDD71I7JO9DOH565ZGKINBHZVZ8","A2DLV3WN24WTDS","3WPCIUYH1AU470H2HRBLZRFBM3CTDN","","null","<img src=""img/food1.png"" style=""width:200px;border:14px solid red;"">","null","","","","","",""
"","image-keyboard-response","245","153853","0.0-245.0","35BLDD71I7JO9DOH565ZGKINBHZVZ8","A2DLV3WN24WTDS","3WPCIUYH1AU470H2HRBLZRFBM3CTDN","","590.8000000119209","img/food5.png","76","592.2999999821186","2","1","4","0.2,0.8,0.2,0.8,0.2,0.8,0.8,0.2",""
"","html-keyboard-response","246","154159","0.0-246.0","35BLDD71I7JO9DOH565ZGKINBHZVZ8","A2DLV3WN24WTDS","3WPCIUYH1AU470H2HRBLZRFBM3CTDN","","null","<img src=""img/food5.png"" style=""width:200px; border:14px solid green;"">","null","","","","","",""
"","image-keyboard-response","247","155081","0.0-247.0","35BLDD71I7JO9DOH565ZGKINBHZVZ8","A2DLV3WN24WTDS","3WPCIUYH1AU470H2HRBLZRFBM3CTDN","","921.1000000238419","img/food3.png","76","922.6999999880791","2","1","2","0.2,0.8,0.2,0.8,0.2,0.8,0.8,0.2",""
"","html-keyboard-response","248","155393","0.0-248.0","35BLDD71I7JO9DOH565ZGKINBHZVZ8","A2DLV3WN24WTDS","3WPCIUYH1AU470H2HRBLZRFBM3CTDN","","null","<img src=""img/food3.png"" style=""width:200px; border:14px solid green;"">","null","","","","","",""
"","image-keyboard-response","249","156951","0.0-249.0","35BLDD71I7JO9DOH565ZGKINBHZVZ8","A2DLV3WN24WTDS","3WPCIUYH1AU470H2HRBLZRFBM3CTDN","","1556.199999988079","img/food8.png","75","1557.300000011921","1","1","3","0.2,0.8,0.2,0.8,0.2,0.8,0.8,0.2",""
"","html-keyboard-response","250","157264","0.0-250.0","35BLDD71I7JO9DOH565ZGKINBHZVZ8","A2DLV3WN24WTDS","3WPCIUYH1AU470H2HRBLZRFBM3CTDN","","null","<img src=""img/food8.png"" style=""width:200px; border:14px solid green;"">","null","","","","","",""
"","image-keyboard-response","251","158667","0.0-251.0","35BLDD71I7JO9DOH565ZGKINBHZVZ8","A2DLV3WN24WTDS","3WPCIUYH1AU470H2HRBLZRFBM3CTDN","","1402.199999988079","img/food8.png","75","1403.199999988079","1","0","3","0.2,0.8,0.2,0.8,0.2,0.8,0.8,0.2",""
"","html-keyboard-response","252","158979","0.0-252.0","35BLDD71I7JO9DOH565ZGKINBHZVZ8","A2DLV3WN24WTDS","3WPCIUYH1AU470H2HRBLZRFBM3CTDN","","null","<img src=""img/food8.png"" style=""width:200px;border:14px solid red;"">","null","","","","","",""
"","image-keyboard-response","253","159578","0.0-253.0","35BLDD71I7JO9DOH565ZGKINBHZVZ8","A2DLV3WN24WTDS","3WPCIUYH1AU470H2HRBLZRFBM3CTDN","","597.7999999821186","img/food8.png","75","599","1","0","3","0.2,0.8,0.2,0.8,0.2,0.8,0.8,0.2",""
"","html-keyboard-response","254","159893","0.0-254.0","35BLDD71I7JO9DOH565ZGKINBHZVZ8","A2DLV3WN24WTDS","3WPCIUYH1AU470H2HRBLZRFBM3CTDN","","null","<img src=""img/food8.png"" style=""width:200px;border:14px solid red;"">","null","","","","","",""
"","image-keyboard-response","255","160295","0.0-255.0","35BLDD71I7JO9DOH565ZGKINBHZVZ8","A2DLV3WN24WTDS","3WPCIUYH1AU470H2HRBLZRFBM3CTDN","","400.40000000596046","img/food8.png","75","402.09999999403954","1","0","3","0.2,0.8,0.2,0.8,0.2,0.8,0.8,0.2",""
"","html-keyboard-response","256","160602","0.0-256.0","35BLDD71I7JO9DOH565ZGKINBHZVZ8","A2DLV3WN24WTDS","3WPCIUYH1AU470H2HRBLZRFBM3CTDN","","null","<img src=""img/food8.png"" style=""width:200px;border:14px solid red;"">","null","","","","","",""
"","image-keyboard-response","257","161773","0.0-257.0","35BLDD71I7JO9DOH565ZGKINBHZVZ8","A2DLV3WN24WTDS","3WPCIUYH1AU470H2HRBLZRFBM3CTDN","","1168.300000011921","img/food1.png","76","1170.3999999761581","2","1","1","0.2,0.8,0.2,0.8,0.2,0.8,0.8,0.2",""
"","html-keyboard-response","258","162085","0.0-258.0","35BLDD71I7JO9DOH565ZGKINBHZVZ8","A2DLV3WN24WTDS","3WPCIUYH1AU470H2HRBLZRFBM3CTDN","","null","<img src=""img/food1.png"" style=""width:200px; border:14px solid green;"">","null","","","","","",""
"","image-keyboard-response","259","162773","0.0-259.0","35BLDD71I7JO9DOH565ZGKINBHZVZ8","A2DLV3WN24WTDS","3WPCIUYH1AU470H2HRBLZRFBM3CTDN","","686.4000000059605","img/food5.png","76","687.9000000059605","2","0","4","0.2,0.8,0.2,0.8,0.2,0.8,0.8,0.2",""
"","html-keyboard-response","260","163089","0.0-260.0","35BLDD71I7JO9DOH565ZGKINBHZVZ8","A2DLV3WN24WTDS","3WPCIUYH1AU470H2HRBLZRFBM3CTDN","","null","<img src=""img/food5.png"" style=""width:200px;border:14px solid red;"">","null","","","","","",""
"","image-keyboard-response","261","164109","0.0-261.0","35BLDD71I7JO9DOH565ZGKINBHZVZ8","A2DLV3WN24WTDS","3WPCIUYH1AU470H2HRBLZRFBM3CTDN","","1019.3999999761581","img/food8.png","75","1020.3000000119209","1","0","3","0.2,0.8,0.2,0.8,0.2,0.8,0.8,0.2",""
"","html-keyboard-response","262","164418","0.0-262.0","35BLDD71I7JO9DOH565ZGKINBHZVZ8","A2DLV3WN24WTDS","3WPCIUYH1AU470H2HRBLZRFBM3CTDN","","null","<img src=""img/food8.png"" style=""width:200px;border:14px solid red;"">","null","","","","","",""
"","image-keyboard-response","263","165689","0.0-263.0","35BLDD71I7JO9DOH565ZGKINBHZVZ8","A2DLV3WN24WTDS","3WPCIUYH1AU470H2HRBLZRFBM3CTDN","","1268.5","img/food5.png","75","1270.0999999940395","1","1","4","0.2,0.8,0.2,0.8,0.2,0.8,0.8,0.2",""
"","html-keyboard-response","264","165997","0.0-264.0","35BLDD71I7JO9DOH565ZGKINBHZVZ8","A2DLV3WN24WTDS","3WPCIUYH1AU470H2HRBLZRFBM3CTDN","","null","<img src=""img/food5.png"" style=""width:200px; border:14px solid green;"">","null","","","","","",""
"","image-keyboard-response","265","166946","0.0-265.0","35BLDD71I7JO9DOH565ZGKINBHZVZ8","A2DLV3WN24WTDS","3WPCIUYH1AU470H2HRBLZRFBM3CTDN","","948.3000000119209","img/food8.png","76","949.6999999880791","2","1","3","0.2,0.8,0.2,0.8,0.2,0.8,0.8,0.2",""
"","html-keyboard-response","266","167251","0.0-266.0","35BLDD71I7JO9DOH565ZGKINBHZVZ8","A2DLV3WN24WTDS","3WPCIUYH1AU470H2HRBLZRFBM3CTDN","","null","<img src=""img/food8.png"" style=""width:200px; border:14px solid green;"">","null","","","","","",""
"","image-keyboard-response","267","168488","0.0-267.0","35BLDD71I7JO9DOH565ZGKINBHZVZ8","A2DLV3WN24WTDS","3WPCIUYH1AU470H2HRBLZRFBM3CTDN","","1236.199999988079","img/food3.png","75","1237.2999999821186","1","0","2","0.2,0.8,0.2,0.8,0.2,0.8,0.8,0.2",""
"","html-keyboard-response","268","168799","0.0-268.0","35BLDD71I7JO9DOH565ZGKINBHZVZ8","A2DLV3WN24WTDS","3WPCIUYH1AU470H2HRBLZRFBM3CTDN","","null","<img src=""img/food3.png"" style=""width:200px;border:14px solid red;"">","null","","","","","",""
"","image-keyboard-response","269","170104","0.0-269.0","35BLDD71I7JO9DOH565ZGKINBHZVZ8","A2DLV3WN24WTDS","3WPCIUYH1AU470H2HRBLZRFBM3CTDN","","1303.300000011921","img/food5.png","75","1304.6000000238419","1","1","4","0.2,0.8,0.2,0.8,0.2,0.8,0.8,0.2",""
"","html-keyboard-response","270","170413","0.0-270.0","35BLDD71I7JO9DOH565ZGKINBHZVZ8","A2DLV3WN24WTDS","3WPCIUYH1AU470H2HRBLZRFBM3CTDN","","null","<img src=""img/food5.png"" style=""width:200px; border:14px solid green;"">","null","","","","","",""
"","image-keyboard-response","271","171314","0.0-271.0","35BLDD71I7JO9DOH565ZGKINBHZVZ8","A2DLV3WN24WTDS","3WPCIUYH1AU470H2HRBLZRFBM3CTDN","","899","img/food5.png","75","901.1999999880791","1","1","4","0.2,0.8,0.2,0.8,0.2,0.8,0.8,0.2",""
"","html-keyboard-response","272","171617","0.0-272.0","35BLDD71I7JO9DOH565ZGKINBHZVZ8","A2DLV3WN24WTDS","3WPCIUYH1AU470H2HRBLZRFBM3CTDN","","null","<img src=""img/food5.png"" style=""width:200px; border:14px solid green;"">","null","","","","","",""
"","image-keyboard-response","273","172236","0.0-273.0","35BLDD71I7JO9DOH565ZGKINBHZVZ8","A2DLV3WN24WTDS","3WPCIUYH1AU470H2HRBLZRFBM3CTDN","","617.5999999940395","img/food8.png","76","619","2","1","3","0.2,0.8,0.2,0.8,0.2,0.8,0.8,0.2",""
"","html-keyboard-response","274","172546","0.0-274.0","35BLDD71I7JO9DOH565ZGKINBHZVZ8","A2DLV3WN24WTDS","3WPCIUYH1AU470H2HRBLZRFBM3CTDN","","null","<img src=""img/food8.png"" style=""width:200px; border:14px solid green;"">","null","","","","","",""
"","image-keyboard-response","275","173825","0.0-275.0","35BLDD71I7JO9DOH565ZGKINBHZVZ8","A2DLV3WN24WTDS","3WPCIUYH1AU470H2HRBLZRFBM3CTDN","","1278.0999999940395","img/food1.png","76","1279.1000000238419","2","1","1","0.2,0.8,0.2,0.8,0.2,0.8,0.8,0.2",""
"","html-keyboard-response","276","174140","0.0-276.0","35BLDD71I7JO9DOH565ZGKINBHZVZ8","A2DLV3WN24WTDS","3WPCIUYH1AU470H2HRBLZRFBM3CTDN","","null","<img src=""img/food1.png"" style=""width:200px; border:14px solid green;"">","null","","","","","",""
"","image-keyboard-response","277","175076","0.0-277.0","35BLDD71I7JO9DOH565ZGKINBHZVZ8","A2DLV3WN24WTDS","3WPCIUYH1AU470H2HRBLZRFBM3CTDN","","934.7000000178814","img/food8.png","76","936.2999999821186","2","1","3","0.2,0.8,0.2,0.8,0.2,0.8,0.8,0.2",""
"","html-keyboard-response","278","175395","0.0-278.0","35BLDD71I7JO9DOH565ZGKINBHZVZ8","A2DLV3WN24WTDS","3WPCIUYH1AU470H2HRBLZRFBM3CTDN","","null","<img src=""img/food8.png"" style=""width:200px; border:14px solid green;"">","null","","","","","",""
"","image-keyboard-response","279","176333","0.0-279.0","35BLDD71I7JO9DOH565ZGKINBHZVZ8","A2DLV3WN24WTDS","3WPCIUYH1AU470H2HRBLZRFBM3CTDN","","935.9000000059605","img/food1.png","76","937.9000000059605","2","1","1","0.2,0.8,0.2,0.8,0.2,0.8,0.8,0.2",""
"","html-keyboard-response","280","176647","0.0-280.0","35BLDD71I7JO9DOH565ZGKINBHZVZ8","A2DLV3WN24WTDS","3WPCIUYH1AU470H2HRBLZRFBM3CTDN","","null","<img src=""img/food1.png"" style=""width:200px; border:14px solid green;"">","null","","","","","",""
"","image-keyboard-response","281","177749","0.0-281.0","35BLDD71I7JO9DOH565ZGKINBHZVZ8","A2DLV3WN24WTDS","3WPCIUYH1AU470H2HRBLZRFBM3CTDN","","1099.5","img/food5.png","75","1101.5999999940395","1","1","4","0.2,0.8,0.2,0.8,0.2,0.8,0.8,0.2",""
"","html-keyboard-response","282","178064","0.0-282.0","35BLDD71I7JO9DOH565ZGKINBHZVZ8","A2DLV3WN24WTDS","3WPCIUYH1AU470H2HRBLZRFBM3CTDN","","null","<img src=""img/food5.png"" style=""width:200px; border:14px solid green;"">","null","","","","","",""
"","image-keyboard-response","283","178725","0.0-283.0","35BLDD71I7JO9DOH565ZGKINBHZVZ8","A2DLV3WN24WTDS","3WPCIUYH1AU470H2HRBLZRFBM3CTDN","","659.3999999761581","img/food8.png","75","660.9000000059605","1","0","3","0.2,0.8,0.2,0.8,0.2,0.8,0.8,0.2",""
"","html-keyboard-response","284","179038","0.0-284.0","35BLDD71I7JO9DOH565ZGKINBHZVZ8","A2DLV3WN24WTDS","3WPCIUYH1AU470H2HRBLZRFBM3CTDN","","null","<img src=""img/food8.png"" style=""width:200px;border:14px solid red;"">","null","","","","","",""
"","image-keyboard-response","285","179773","0.0-285.0","35BLDD71I7JO9DOH565ZGKINBHZVZ8","A2DLV3WN24WTDS","3WPCIUYH1AU470H2HRBLZRFBM3CTDN","","733.2000000178814","img/food5.png","75","734.8000000119209","1","1","4","0.2,0.8,0.2,0.8,0.2,0.8,0.8,0.2",""
"","html-keyboard-response","286","180087","0.0-286.0","35BLDD71I7JO9DOH565ZGKINBHZVZ8","A2DLV3WN24WTDS","3WPCIUYH1AU470H2HRBLZRFBM3CTDN","","null","<img src=""img/food5.png"" style=""width:200px; border:14px solid green;"">","null","","","","","",""
"","image-keyboard-response","287","180946","0.0-287.0","35BLDD71I7JO9DOH565ZGKINBHZVZ8","A2DLV3WN24WTDS","3WPCIUYH1AU470H2HRBLZRFBM3CTDN","","857.0999999940395","img/food5.png","75","858.7999999821186","1","1","4","0.2,0.8,0.2,0.8,0.2,0.8,0.8,0.2",""
"","html-keyboard-response","288","181261","0.0-288.0","35BLDD71I7JO9DOH565ZGKINBHZVZ8","A2DLV3WN24WTDS","3WPCIUYH1AU470H2HRBLZRFBM3CTDN","","null","<img src=""img/food5.png"" style=""width:200px; border:14px solid green;"">","null","","","","","",""
"","image-keyboard-response","289","182247","0.0-289.0","35BLDD71I7JO9DOH565ZGKINBHZVZ8","A2DLV3WN24WTDS","3WPCIUYH1AU470H2HRBLZRFBM3CTDN","","983.0999999940395","img/food3.png","75","984.6000000238419","1","0","2","0.2,0.8,0.2,0.8,0.2,0.8,0.8,0.2",""
"","html-keyboard-response","290","182560","0.0-290.0","35BLDD71I7JO9DOH565ZGKINBHZVZ8","A2DLV3WN24WTDS","3WPCIUYH1AU470H2HRBLZRFBM3CTDN","","null","<img src=""img/food3.png"" style=""width:200px;border:14px solid red;"">","null","","","","","",""
"","image-keyboard-response","291","183518","0.0-291.0","35BLDD71I7JO9DOH565ZGKINBHZVZ8","A2DLV3WN24WTDS","3WPCIUYH1AU470H2HRBLZRFBM3CTDN","","955.3000000119209","img/food1.png","76","956.7999999821186","2","1","1","0.2,0.8,0.2,0.8,0.2,0.8,0.8,0.2",""
"","html-keyboard-response","292","183824","0.0-292.0","35BLDD71I7JO9DOH565ZGKINBHZVZ8","A2DLV3WN24WTDS","3WPCIUYH1AU470H2HRBLZRFBM3CTDN","","null","<img src=""img/food1.png"" style=""width:200px; border:14px solid green;"">","null","","","","","",""
"","image-keyboard-response","293","184657","0.0-293.0","35BLDD71I7JO9DOH565ZGKINBHZVZ8","A2DLV3WN24WTDS","3WPCIUYH1AU470H2HRBLZRFBM3CTDN","","830.5","img/food8.png","75","832.1999999880791","1","0","3","0.2,0.8,0.2,0.8,0.2,0.8,0.8,0.2",""
"","html-keyboard-response","294","184970","0.0-294.0","35BLDD71I7JO9DOH565ZGKINBHZVZ8","A2DLV3WN24WTDS","3WPCIUYH1AU470H2HRBLZRFBM3CTDN","","null","<img src=""img/food8.png"" style=""width:200px;border:14px solid red;"">","null","","","","","",""
"","image-keyboard-response","295","185622","0.0-295.0","35BLDD71I7JO9DOH565ZGKINBHZVZ8","A2DLV3WN24WTDS","3WPCIUYH1AU470H2HRBLZRFBM3CTDN","","649.7000000178814","img/food8.png","75","651.4000000059605","1","1","3","0.2,0.8,0.2,0.8,0.2,0.8,0.8,0.2",""
"","html-keyboard-response","296","185930","0.0-296.0","35BLDD71I7JO9DOH565ZGKINBHZVZ8","A2DLV3WN24WTDS","3WPCIUYH1AU470H2HRBLZRFBM3CTDN","","null","<img src=""img/food8.png"" style=""width:200px; border:14px solid green;"">","null","","","","","",""
"","image-keyboard-response","297","186727","0.0-297.0","35BLDD71I7JO9DOH565ZGKINBHZVZ8","A2DLV3WN24WTDS","3WPCIUYH1AU470H2HRBLZRFBM3CTDN","","795.5999999940395","img/food3.png","76","797","2","1","2","0.2,0.8,0.2,0.8,0.2,0.8,0.8,0.2",""
"","html-keyboard-response","298","187029","0.0-298.0","35BLDD71I7JO9DOH565ZGKINBHZVZ8","A2DLV3WN24WTDS","3WPCIUYH1AU470H2HRBLZRFBM3CTDN","","null","<img src=""img/food3.png"" style=""width:200px; border:14px solid green;"">","null","","","","","",""
"","image-keyboard-response","299","187530","0.0-299.0","35BLDD71I7JO9DOH565ZGKINBHZVZ8","A2DLV3WN24WTDS","3WPCIUYH1AU470H2HRBLZRFBM3CTDN","","498.90000000596046","img/food3.png","76","500.90000000596046","2","1","2","0.2,0.8,0.2,0.8,0.2,0.8,0.8,0.2",""
"","html-keyboard-response","300","187836","0.0-300.0","35BLDD71I7JO9DOH565ZGKINBHZVZ8","A2DLV3WN24WTDS","3WPCIUYH1AU470H2HRBLZRFBM3CTDN","","null","<img src=""img/food3.png"" style=""width:200px; border:14px solid green;"">","null","","","","","",""
"","image-keyboard-response","301","188390","0.0-301.0","35BLDD71I7JO9DOH565ZGKINBHZVZ8","A2DLV3WN24WTDS","3WPCIUYH1AU470H2HRBLZRFBM3CTDN","","551.5999999940395","img/food3.png","76","553.5","2","1","2","0.2,0.8,0.2,0.8,0.2,0.8,0.8,0.2",""
"","html-keyboard-response","302","188698","0.0-302.0","35BLDD71I7JO9DOH565ZGKINBHZVZ8","A2DLV3WN24WTDS","3WPCIUYH1AU470H2HRBLZRFBM3CTDN","","null","<img src=""img/food3.png"" style=""width:200px; border:14px solid green;"">","null","","","","","",""
"","image-keyboard-response","303","189283","0.0-303.0","35BLDD71I7JO9DOH565ZGKINBHZVZ8","A2DLV3WN24WTDS","3WPCIUYH1AU470H2HRBLZRFBM3CTDN","","583.9000000059605","img/food5.png","76","585.1999999880791","2","0","4","0.2,0.8,0.2,0.8,0.2,0.8,0.8,0.2",""
"","html-keyboard-response","304","189596","0.0-304.0","35BLDD71I7JO9DOH565ZGKINBHZVZ8","A2DLV3WN24WTDS","3WPCIUYH1AU470H2HRBLZRFBM3CTDN","","null","<img src=""img/food5.png"" style=""width:200px;border:14px solid red;"">","null","","","","","",""
"","image-keyboard-response","305","189973","0.0-305.0","35BLDD71I7JO9DOH565ZGKINBHZVZ8","A2DLV3WN24WTDS","3WPCIUYH1AU470H2HRBLZRFBM3CTDN","","375.09999999403954","img/food5.png","75","376.5","1","0","4","0.2,0.8,0.2,0.8,0.2,0.8,0.8,0.2",""
"","html-keyboard-response","306","190276","0.0-306.0","35BLDD71I7JO9DOH565ZGKINBHZVZ8","A2DLV3WN24WTDS","3WPCIUYH1AU470H2HRBLZRFBM3CTDN","","null","<img src=""img/food5.png"" style=""width:200px;border:14px solid red;"">","null","","","","","",""
"","image-keyboard-response","307","191133","0.0-307.0","35BLDD71I7JO9DOH565ZGKINBHZVZ8","A2DLV3WN24WTDS","3WPCIUYH1AU470H2HRBLZRFBM3CTDN","","854.9000000059605","img/food3.png","76","856.5999999940395","2","1","2","0.2,0.8,0.2,0.8,0.2,0.8,0.8,0.2",""
"","html-keyboard-response","308","191450","0.0-308.0","35BLDD71I7JO9DOH565ZGKINBHZVZ8","A2DLV3WN24WTDS","3WPCIUYH1AU470H2HRBLZRFBM3CTDN","","null","<img src=""img/food3.png"" style=""width:200px; border:14px solid green;"">","null","","","","","",""
"","image-keyboard-response","309","192073","0.0-309.0","35BLDD71I7JO9DOH565ZGKINBHZVZ8","A2DLV3WN24WTDS","3WPCIUYH1AU470H2HRBLZRFBM3CTDN","","620.7000000178814","img/food5.png","76","622.6999999880791","2","0","4","0.2,0.8,0.2,0.8,0.2,0.8,0.8,0.2",""
"","html-keyboard-response","310","192383","0.0-310.0","35BLDD71I7JO9DOH565ZGKINBHZVZ8","A2DLV3WN24WTDS","3WPCIUYH1AU470H2HRBLZRFBM3CTDN","","null","<img src=""img/food5.png"" style=""width:200px;border:14px solid red;"">","null","","","","","",""
"","image-keyboard-response","311","193233","0.0-311.0","35BLDD71I7JO9DOH565ZGKINBHZVZ8","A2DLV3WN24WTDS","3WPCIUYH1AU470H2HRBLZRFBM3CTDN","","847.5999999940395","img/food1.png","76","849.6000000238419","2","0","1","0.2,0.8,0.2,0.8,0.2,0.8,0.8,0.2",""
"","html-keyboard-response","312","193542","0.0-312.0","35BLDD71I7JO9DOH565ZGKINBHZVZ8","A2DLV3WN24WTDS","3WPCIUYH1AU470H2HRBLZRFBM3CTDN","","null","<img src=""img/food1.png"" style=""width:200px;border:14px solid red;"">","null","","","","","",""
"","image-keyboard-response","313","194670","0.0-313.0","35BLDD71I7JO9DOH565ZGKINBHZVZ8","A2DLV3WN24WTDS","3WPCIUYH1AU470H2HRBLZRFBM3CTDN","","1125.7999999821186","img/food3.png","76","1127.800000011921","2","1","2","0.2,0.8,0.2,0.8,0.2,0.8,0.8,0.2",""
"","html-keyboard-response","314","194986","0.0-314.0","35BLDD71I7JO9DOH565ZGKINBHZVZ8","A2DLV3WN24WTDS","3WPCIUYH1AU470H2HRBLZRFBM3CTDN","","null","<img src=""img/food3.png"" style=""width:200px; border:14px solid green;"">","null","","","","","",""
"","image-keyboard-response","315","195468","0.0-315.0","35BLDD71I7JO9DOH565ZGKINBHZVZ8","A2DLV3WN24WTDS","3WPCIUYH1AU470H2HRBLZRFBM3CTDN","","479.60000002384186","img/food3.png","76","481.5","2","1","2","0.2,0.8,0.2,0.8,0.2,0.8,0.8,0.2",""
"","html-keyboard-response","316","195777","0.0-316.0","35BLDD71I7JO9DOH565ZGKINBHZVZ8","A2DLV3WN24WTDS","3WPCIUYH1AU470H2HRBLZRFBM3CTDN","","null","<img src=""img/food3.png"" style=""width:200px; border:14px solid green;"">","null","","","","","",""
"","image-keyboard-response","317","196271","0.0-317.0","35BLDD71I7JO9DOH565ZGKINBHZVZ8","A2DLV3WN24WTDS","3WPCIUYH1AU470H2HRBLZRFBM3CTDN","","491.5","img/food3.png","76","493.80000001192093","2","1","2","0.2,0.8,0.2,0.8,0.2,0.8,0.8,0.2",""
"","html-keyboard-response","318","196579","0.0-318.0","35BLDD71I7JO9DOH565ZGKINBHZVZ8","A2DLV3WN24WTDS","3WPCIUYH1AU470H2HRBLZRFBM3CTDN","","null","<img src=""img/food3.png"" style=""width:200px; border:14px solid green;"">","null","","","","","",""
"","image-keyboard-response","319","198071","0.0-319.0","35BLDD71I7JO9DOH565ZGKINBHZVZ8","A2DLV3WN24WTDS","3WPCIUYH1AU470H2HRBLZRFBM3CTDN","","1490.0999999940395","img/food8.png","75","1491.7000000178814","1","0","3","0.2,0.8,0.2,0.8,0.2,0.8,0.8,0.2",""
"","html-keyboard-response","320","198375","0.0-320.0","35BLDD71I7JO9DOH565ZGKINBHZVZ8","A2DLV3WN24WTDS","3WPCIUYH1AU470H2HRBLZRFBM3CTDN","","null","<img src=""img/food8.png"" style=""width:200px;border:14px solid red;"">","null","","","","","",""
"","image-keyboard-response","321","198853","0.0-321.0","35BLDD71I7JO9DOH565ZGKINBHZVZ8","A2DLV3WN24WTDS","3WPCIUYH1AU470H2HRBLZRFBM3CTDN","","475.7000000178814","img/food1.png","76","477.69999998807907","2","0","1","0.2,0.8,0.2,0.8,0.2,0.8,0.8,0.2",""
"","html-keyboard-response","322","199163","0.0-322.0","35BLDD71I7JO9DOH565ZGKINBHZVZ8","A2DLV3WN24WTDS","3WPCIUYH1AU470H2HRBLZRFBM3CTDN","","null","<img src=""img/food1.png"" style=""width:200px;border:14px solid red;"">","null","","","","","",""
"","image-keyboard-response","323","200211","0.0-323.0","35BLDD71I7JO9DOH565ZGKINBHZVZ8","A2DLV3WN24WTDS","3WPCIUYH1AU470H2HRBLZRFBM3CTDN","","1044.699999988079","img/food1.png","76","1048","2","1","1","0.2,0.8,0.2,0.8,0.2,0.8,0.8,0.2",""
"","html-keyboard-response","324","200524","0.0-324.0","35BLDD71I7JO9DOH565ZGKINBHZVZ8","A2DLV3WN24WTDS","3WPCIUYH1AU470H2HRBLZRFBM3CTDN","","null","<img src=""img/food1.png"" style=""width:200px; border:14px solid green;"">","null","","","","","",""
"","image-keyboard-response","325","201306","0.0-325.0","35BLDD71I7JO9DOH565ZGKINBHZVZ8","A2DLV3WN24WTDS","3WPCIUYH1AU470H2HRBLZRFBM3CTDN","","781","img/food3.png","76","782.3000000119209","2","0","2","0.2,0.8,0.2,0.8,0.2,0.8,0.8,0.2",""
"","html-keyboard-response","326","201619","0.0-326.0","35BLDD71I7JO9DOH565ZGKINBHZVZ8","A2DLV3WN24WTDS","3WPCIUYH1AU470H2HRBLZRFBM3CTDN","","null","<img src=""img/food3.png"" style=""width:200px;border:14px solid red;"">","null","","","","","",""
"","image-keyboard-response","327","202385","0.0-327.0","35BLDD71I7JO9DOH565ZGKINBHZVZ8","A2DLV3WN24WTDS","3WPCIUYH1AU470H2HRBLZRFBM3CTDN","","763.9000000059605","img/food8.png","76","765.1999999880791","2","0","3","0.2,0.8,0.2,0.8,0.2,0.8,0.8,0.2",""
"","html-keyboard-response","328","202700","0.0-328.0","35BLDD71I7JO9DOH565ZGKINBHZVZ8","A2DLV3WN24WTDS","3WPCIUYH1AU470H2HRBLZRFBM3CTDN","","null","<img src=""img/food8.png"" style=""width:200px;border:14px solid red;"">","null","","","","","",""
"","image-keyboard-response","329","203628","0.0-329.0","35BLDD71I7JO9DOH565ZGKINBHZVZ8","A2DLV3WN24WTDS","3WPCIUYH1AU470H2HRBLZRFBM3CTDN","","926.6000000238419","img/food3.png","76","928.0999999940395","2","0","2","0.2,0.8,0.2,0.8,0.2,0.8,0.8,0.2",""
"","html-keyboard-response","330","203937","0.0-330.0","35BLDD71I7JO9DOH565ZGKINBHZVZ8","A2DLV3WN24WTDS","3WPCIUYH1AU470H2HRBLZRFBM3CTDN","","null","<img src=""img/food3.png"" style=""width:200px;border:14px solid red;"">","null","","","","","",""
"","image-keyboard-response","331","204755","0.0-331.0","35BLDD71I7JO9DOH565ZGKINBHZVZ8","A2DLV3WN24WTDS","3WPCIUYH1AU470H2HRBLZRFBM3CTDN","","816.6999999880791","img/food8.png","75","818.2000000178814","1","0","3","0.2,0.8,0.2,0.8,0.2,0.8,0.8,0.2",""
"","html-keyboard-response","332","205067","0.0-332.0","35BLDD71I7JO9DOH565ZGKINBHZVZ8","A2DLV3WN24WTDS","3WPCIUYH1AU470H2HRBLZRFBM3CTDN","","null","<img src=""img/food8.png"" style=""width:200px;border:14px solid red;"">","null","","","","","",""
"","image-keyboard-response","333","205993","0.0-333.0","35BLDD71I7JO9DOH565ZGKINBHZVZ8","A2DLV3WN24WTDS","3WPCIUYH1AU470H2HRBLZRFBM3CTDN","","923","img/food3.png","75","924.9000000059605","1","1","2","0.2,0.8,0.2,0.8,0.2,0.8,0.8,0.2",""
"","html-keyboard-response","334","206303","0.0-334.0","35BLDD71I7JO9DOH565ZGKINBHZVZ8","A2DLV3WN24WTDS","3WPCIUYH1AU470H2HRBLZRFBM3CTDN","","null","<img src=""img/food3.png"" style=""width:200px; border:14px solid green;"">","null","","","","","",""
"","image-keyboard-response","335","206964","0.0-335.0","35BLDD71I7JO9DOH565ZGKINBHZVZ8","A2DLV3WN24WTDS","3WPCIUYH1AU470H2HRBLZRFBM3CTDN","","658.1999999880791","img/food8.png","76","660","2","1","3","0.2,0.8,0.2,0.8,0.2,0.8,0.8,0.2",""
"","html-keyboard-response","336","207277","0.0-336.0","35BLDD71I7JO9DOH565ZGKINBHZVZ8","A2DLV3WN24WTDS","3WPCIUYH1AU470H2HRBLZRFBM3CTDN","","null","<img src=""img/food8.png"" style=""width:200px; border:14px solid green;"">","null","","","","","",""
"","image-keyboard-response","337","207921","0.0-337.0","35BLDD71I7JO9DOH565ZGKINBHZVZ8","A2DLV3WN24WTDS","3WPCIUYH1AU470H2HRBLZRFBM3CTDN","","642.0999999940395","img/food8.png","76","643.8000000119209","2","1","3","0.2,0.8,0.2,0.8,0.2,0.8,0.8,0.2",""
"","html-keyboard-response","338","208224","0.0-338.0","35BLDD71I7JO9DOH565ZGKINBHZVZ8","A2DLV3WN24WTDS","3WPCIUYH1AU470H2HRBLZRFBM3CTDN","","null","<img src=""img/food8.png"" style=""width:200px; border:14px solid green;"">","null","","","","","",""
"","image-keyboard-response","339","208764","0.0-339.0","35BLDD71I7JO9DOH565ZGKINBHZVZ8","A2DLV3WN24WTDS","3WPCIUYH1AU470H2HRBLZRFBM3CTDN","","537.4000000059605","img/food8.png","76","539.5","2","1","3","0.2,0.8,0.2,0.8,0.2,0.8,0.8,0.2",""
"","html-keyboard-response","340","209072","0.0-340.0","35BLDD71I7JO9DOH565ZGKINBHZVZ8","A2DLV3WN24WTDS","3WPCIUYH1AU470H2HRBLZRFBM3CTDN","","null","<img src=""img/food8.png"" style=""width:200px; border:14px solid green;"">","null","","","","","",""
"","image-keyboard-response","341","210035","0.0-341.0","35BLDD71I7JO9DOH565ZGKINBHZVZ8","A2DLV3WN24WTDS","3WPCIUYH1AU470H2HRBLZRFBM3CTDN","","960.6999999880791","img/food1.png","76","962.1999999880791","2","1","1","0.2,0.8,0.2,0.8,0.2,0.8,0.8,0.2",""
"","html-keyboard-response","342","210348","0.0-342.0","35BLDD71I7JO9DOH565ZGKINBHZVZ8","A2DLV3WN24WTDS","3WPCIUYH1AU470H2HRBLZRFBM3CTDN","","null","<img src=""img/food1.png"" style=""width:200px; border:14px solid green;"">","null","","","","","",""
"","image-keyboard-response","343","211060","0.0-343.0","35BLDD71I7JO9DOH565ZGKINBHZVZ8","A2DLV3WN24WTDS","3WPCIUYH1AU470H2HRBLZRFBM3CTDN","","711","img/food3.png","75","712.4000000059605","1","0","2","0.2,0.8,0.2,0.8,0.2,0.8,0.8,0.2",""
"","html-keyboard-response","344","211368","0.0-344.0","35BLDD71I7JO9DOH565ZGKINBHZVZ8","A2DLV3WN24WTDS","3WPCIUYH1AU470H2HRBLZRFBM3CTDN","","null","<img src=""img/food3.png"" style=""width:200px;border:14px solid red;"">","null","","","","","",""
"","image-keyboard-response","345","211915","0.0-345.0","35BLDD71I7JO9DOH565ZGKINBHZVZ8","A2DLV3WN24WTDS","3WPCIUYH1AU470H2HRBLZRFBM3CTDN","","544.1999999880791","img/food3.png","76","545.6000000238419","2","1","2","0.2,0.8,0.2,0.8,0.2,0.8,0.8,0.2",""
"","html-keyboard-response","346","212221","0.0-346.0","35BLDD71I7JO9DOH565ZGKINBHZVZ8","A2DLV3WN24WTDS","3WPCIUYH1AU470H2HRBLZRFBM3CTDN","","null","<img src=""img/food3.png"" style=""width:200px; border:14px solid green;"">","null","","","","","",""
"","image-keyboard-response","347","212912","0.0-347.0","35BLDD71I7JO9DOH565ZGKINBHZVZ8","A2DLV3WN24WTDS","3WPCIUYH1AU470H2HRBLZRFBM3CTDN","","689.0999999940395","img/food1.png","75","690.8999999761581","1","0","1","0.2,0.8,0.2,0.8,0.2,0.8,0.8,0.2",""
"","html-keyboard-response","348","213224","0.0-348.0","35BLDD71I7JO9DOH565ZGKINBHZVZ8","A2DLV3WN24WTDS","3WPCIUYH1AU470H2HRBLZRFBM3CTDN","","null","<img src=""img/food1.png"" style=""width:200px;border:14px solid red;"">","null","","","","","",""
"","image-keyboard-response","349","213886","0.0-349.0","35BLDD71I7JO9DOH565ZGKINBHZVZ8","A2DLV3WN24WTDS","3WPCIUYH1AU470H2HRBLZRFBM3CTDN","","659.1999999880791","img/food5.png","76","661.1999999880791","2","0","4","0.2,0.8,0.2,0.8,0.2,0.8,0.8,0.2",""
"","html-keyboard-response","350","214195","0.0-350.0","35BLDD71I7JO9DOH565ZGKINBHZVZ8","A2DLV3WN24WTDS","3WPCIUYH1AU470H2HRBLZRFBM3CTDN","","null","<img src=""img/food5.png"" style=""width:200px;border:14px solid red;"">","null","","","","","",""
"","image-keyboard-response","351","214743","0.0-351.0","35BLDD71I7JO9DOH565ZGKINBHZVZ8","A2DLV3WN24WTDS","3WPCIUYH1AU470H2HRBLZRFBM3CTDN","","546.4000000059605","img/food1.png","75","547.6999999880791","1","0","1","0.2,0.8,0.2,0.8,0.2,0.8,0.8,0.2",""
"","html-keyboard-response","352","215050","0.0-352.0","35BLDD71I7JO9DOH565ZGKINBHZVZ8","A2DLV3WN24WTDS","3WPCIUYH1AU470H2HRBLZRFBM3CTDN","","null","<img src=""img/food1.png"" style=""width:200px;border:14px solid red;"">","null","","","","","",""
"","image-keyboard-response","353","215489","0.0-353.0","35BLDD71I7JO9DOH565ZGKINBHZVZ8","A2DLV3WN24WTDS","3WPCIUYH1AU470H2HRBLZRFBM3CTDN","","437.40000000596046","img/food5.png","76","438.90000000596046","2","0","4","0.2,0.8,0.2,0.8,0.2,0.8,0.8,0.2",""
"","html-keyboard-response","354","215795","0.0-354.0","35BLDD71I7JO9DOH565ZGKINBHZVZ8","A2DLV3WN24WTDS","3WPCIUYH1AU470H2HRBLZRFBM3CTDN","","null","<img src=""img/food5.png"" style=""width:200px;border:14px solid red;"">","null","","","","","",""
"","image-keyboard-response","355","216629","0.0-355.0","35BLDD71I7JO9DOH565ZGKINBHZVZ8","A2DLV3WN24WTDS","3WPCIUYH1AU470H2HRBLZRFBM3CTDN","","832.1999999880791","img/food5.png","75","833.4000000059605","1","1","4","0.2,0.8,0.2,0.8,0.2,0.8,0.8,0.2",""
"","html-keyboard-response","356","216937","0.0-356.0","35BLDD71I7JO9DOH565ZGKINBHZVZ8","A2DLV3WN24WTDS","3WPCIUYH1AU470H2HRBLZRFBM3CTDN","","null","<img src=""img/food5.png"" style=""width:200px; border:14px solid green;"">","null","","","","","",""
"","image-keyboard-response","357","217520","0.0-357.0","35BLDD71I7JO9DOH565ZGKINBHZVZ8","A2DLV3WN24WTDS","3WPCIUYH1AU470H2HRBLZRFBM3CTDN","","581.4000000059605","img/food5.png","75","583.5","1","1","4","0.2,0.8,0.2,0.8,0.2,0.8,0.8,0.2",""
"","html-keyboard-response","358","217836","0.0-358.0","35BLDD71I7JO9DOH565ZGKINBHZVZ8","A2DLV3WN24WTDS","3WPCIUYH1AU470H2HRBLZRFBM3CTDN","","null","<img src=""img/food5.png"" style=""width:200px; border:14px solid green;"">","null","","","","","",""
"","image-keyboard-response","359","218706","0.0-359.0","35BLDD71I7JO9DOH565ZGKINBHZVZ8","A2DLV3WN24WTDS","3WPCIUYH1AU470H2HRBLZRFBM3CTDN","","868.6999999880791","img/food8.png","76","870","2","1","3","0.2,0.8,0.2,0.8,0.2,0.8,0.8,0.2",""
"","html-keyboard-response","360","219013","0.0-360.0","35BLDD71I7JO9DOH565ZGKINBHZVZ8","A2DLV3WN24WTDS","3WPCIUYH1AU470H2HRBLZRFBM3CTDN","","null","<img src=""img/food8.png"" style=""width:200px; border:14px solid green;"">","null","","","","","",""
"","image-keyboard-response","361","219844","0.0-361.0","35BLDD71I7JO9DOH565ZGKINBHZVZ8","A2DLV3WN24WTDS","3WPCIUYH1AU470H2HRBLZRFBM3CTDN","","829.5999999940395","img/food1.png","76","830.9000000059605","2","1","1","0.2,0.8,0.2,0.8,0.2,0.8,0.8,0.2",""
"","html-keyboard-response","362","220157","0.0-362.0","35BLDD71I7JO9DOH565ZGKINBHZVZ8","A2DLV3WN24WTDS","3WPCIUYH1AU470H2HRBLZRFBM3CTDN","","null","<img src=""img/food1.png"" style=""width:200px; border:14px solid green;"">","null","","","","","",""
"","image-keyboard-response","363","221017","0.0-363.0","35BLDD71I7JO9DOH565ZGKINBHZVZ8","A2DLV3WN24WTDS","3WPCIUYH1AU470H2HRBLZRFBM3CTDN","","858.5999999940395","img/food5.png","75","859.9000000059605","1","1","4","0.2,0.8,0.2,0.8,0.2,0.8,0.8,0.2",""
"","html-keyboard-response","364","221331","0.0-364.0","35BLDD71I7JO9DOH565ZGKINBHZVZ8","A2DLV3WN24WTDS","3WPCIUYH1AU470H2HRBLZRFBM3CTDN","","null","<img src=""img/food5.png"" style=""width:200px; border:14px solid green;"">","null","","","","","",""
"","image-keyboard-response","365","222336","0.0-365.0","35BLDD71I7JO9DOH565ZGKINBHZVZ8","A2DLV3WN24WTDS","3WPCIUYH1AU470H2HRBLZRFBM3CTDN","","1003.3000000119209","img/food3.png","76","1004.6999999880791","2","1","2","0.2,0.8,0.2,0.8,0.2,0.8,0.8,0.2",""
"","html-keyboard-response","366","222644","0.0-366.0","35BLDD71I7JO9DOH565ZGKINBHZVZ8","A2DLV3WN24WTDS","3WPCIUYH1AU470H2HRBLZRFBM3CTDN","","null","<img src=""img/food3.png"" style=""width:200px; border:14px solid green;"">","null","","","","","",""
"","image-keyboard-response","367","223422","0.0-367.0","35BLDD71I7JO9DOH565ZGKINBHZVZ8","A2DLV3WN24WTDS","3WPCIUYH1AU470H2HRBLZRFBM3CTDN","","776.5","img/food1.png","76","777.9000000059605","2","1","1","0.2,0.8,0.2,0.8,0.2,0.8,0.8,0.2",""
"","html-keyboard-response","368","223726","0.0-368.0","35BLDD71I7JO9DOH565ZGKINBHZVZ8","A2DLV3WN24WTDS","3WPCIUYH1AU470H2HRBLZRFBM3CTDN","","null","<img src=""img/food1.png"" style=""width:200px; border:14px solid green;"">","null","","","","","",""
"","image-keyboard-response","369","224559","0.0-369.0","35BLDD71I7JO9DOH565ZGKINBHZVZ8","A2DLV3WN24WTDS","3WPCIUYH1AU470H2HRBLZRFBM3CTDN","","831.5","img/food8.png","76","832.9000000059605","2","1","3","0.2,0.8,0.2,0.8,0.2,0.8,0.8,0.2",""
"","html-keyboard-response","370","224873","0.0-370.0","35BLDD71I7JO9DOH565ZGKINBHZVZ8","A2DLV3WN24WTDS","3WPCIUYH1AU470H2HRBLZRFBM3CTDN","","null","<img src=""img/food8.png"" style=""width:200px; border:14px solid green;"">","null","","","","","",""
"","image-keyboard-response","371","225688","0.0-371.0","35BLDD71I7JO9DOH565ZGKINBHZVZ8","A2DLV3WN24WTDS","3WPCIUYH1AU470H2HRBLZRFBM3CTDN","","813.3000000119209","img/food1.png","76","814.6999999880791","2","1","1","0.2,0.8,0.2,0.8,0.2,0.8,0.8,0.2",""
"","html-keyboard-response","372","225999","0.0-372.0","35BLDD71I7JO9DOH565ZGKINBHZVZ8","A2DLV3WN24WTDS","3WPCIUYH1AU470H2HRBLZRFBM3CTDN","","null","<img src=""img/food1.png"" style=""width:200px; border:14px solid green;"">","null","","","","","",""
"","image-keyboard-response","373","226727","0.0-373.0","35BLDD71I7JO9DOH565ZGKINBHZVZ8","A2DLV3WN24WTDS","3WPCIUYH1AU470H2HRBLZRFBM3CTDN","","726.0999999940395","img/food8.png","76","728.2000000178814","2","1","3","0.2,0.8,0.2,0.8,0.2,0.8,0.8,0.2",""
"","html-keyboard-response","374","227036","0.0-374.0","35BLDD71I7JO9DOH565ZGKINBHZVZ8","A2DLV3WN24WTDS","3WPCIUYH1AU470H2HRBLZRFBM3CTDN","","null","<img src=""img/food8.png"" style=""width:200px; border:14px solid green;"">","null","","","","","",""
"","image-keyboard-response","375","227800","0.0-375.0","35BLDD71I7JO9DOH565ZGKINBHZVZ8","A2DLV3WN24WTDS","3WPCIUYH1AU470H2HRBLZRFBM3CTDN","","763","img/food8.png","76","764.5","2","1","3","0.2,0.8,0.2,0.8,0.2,0.8,0.8,0.2",""
"","html-keyboard-response","376","228103","0.0-376.0","35BLDD71I7JO9DOH565ZGKINBHZVZ8","A2DLV3WN24WTDS","3WPCIUYH1AU470H2HRBLZRFBM3CTDN","","null","<img src=""img/food8.png"" style=""width:200px; border:14px solid green;"">","null","","","","","",""
"","image-keyboard-response","377","228791","0.0-377.0","35BLDD71I7JO9DOH565ZGKINBHZVZ8","A2DLV3WN24WTDS","3WPCIUYH1AU470H2HRBLZRFBM3CTDN","","686","img/food8.png","76","687.4000000059605","2","1","3","0.2,0.8,0.2,0.8,0.2,0.8,0.8,0.2",""
"","html-keyboard-response","378","229093","0.0-378.0","35BLDD71I7JO9DOH565ZGKINBHZVZ8","A2DLV3WN24WTDS","3WPCIUYH1AU470H2HRBLZRFBM3CTDN","","null","<img src=""img/food8.png"" style=""width:200px; border:14px solid green;"">","null","","","","","",""
"","image-keyboard-response","379","229988","0.0-379.0","35BLDD71I7JO9DOH565ZGKINBHZVZ8","A2DLV3WN24WTDS","3WPCIUYH1AU470H2HRBLZRFBM3CTDN","","892.7000000178814","img/food1.png","76","894.8000000119209","2","0","1","0.2,0.8,0.2,0.8,0.2,0.8,0.8,0.2",""
"","html-keyboard-response","380","230295","0.0-380.0","35BLDD71I7JO9DOH565ZGKINBHZVZ8","A2DLV3WN24WTDS","3WPCIUYH1AU470H2HRBLZRFBM3CTDN","","null","<img src=""img/food1.png"" style=""width:200px;border:14px solid red;"">","null","","","","","",""
"","image-keyboard-response","381","231007","0.0-381.0","35BLDD71I7JO9DOH565ZGKINBHZVZ8","A2DLV3WN24WTDS","3WPCIUYH1AU470H2HRBLZRFBM3CTDN","","709.0999999940395","img/food3.png","75","711.5","1","0","2","0.2,0.8,0.2,0.8,0.2,0.8,0.8,0.2",""
"","html-keyboard-response","382","231315","0.0-382.0","35BLDD71I7JO9DOH565ZGKINBHZVZ8","A2DLV3WN24WTDS","3WPCIUYH1AU470H2HRBLZRFBM3CTDN","","null","<img src=""img/food3.png"" style=""width:200px;border:14px solid red;"">","null","","","","","",""
"","image-keyboard-response","383","231974","0.0-383.0","35BLDD71I7JO9DOH565ZGKINBHZVZ8","A2DLV3WN24WTDS","3WPCIUYH1AU470H2HRBLZRFBM3CTDN","","657.4000000059605","img/food1.png","76","659.4000000059605","2","1","1","0.2,0.8,0.2,0.8,0.2,0.8,0.8,0.2",""
"","html-keyboard-response","384","232289","0.0-384.0","35BLDD71I7JO9DOH565ZGKINBHZVZ8","A2DLV3WN24WTDS","3WPCIUYH1AU470H2HRBLZRFBM3CTDN","","null","<img src=""img/food1.png"" style=""width:200px; border:14px solid green;"">","null","","","","","",""
"","image-keyboard-response","385","232949","0.0-385.0","35BLDD71I7JO9DOH565ZGKINBHZVZ8","A2DLV3WN24WTDS","3WPCIUYH1AU470H2HRBLZRFBM3CTDN","","657.3000000119209","img/food8.png","76","659.4000000059605","2","0","3","0.2,0.8,0.2,0.8,0.2,0.8,0.8,0.2",""
"","html-keyboard-response","386","233264","0.0-386.0","35BLDD71I7JO9DOH565ZGKINBHZVZ8","A2DLV3WN24WTDS","3WPCIUYH1AU470H2HRBLZRFBM3CTDN","","null","<img src=""img/food8.png"" style=""width:200px;border:14px solid red;"">","null","","","","","",""
"","image-keyboard-response","387","233941","0.0-387.0","35BLDD71I7JO9DOH565ZGKINBHZVZ8","A2DLV3WN24WTDS","3WPCIUYH1AU470H2HRBLZRFBM3CTDN","","675.5","img/food5.png","76","676.8000000119209","2","0","4","0.2,0.8,0.2,0.8,0.2,0.8,0.8,0.2",""
"","html-keyboard-response","388","234256","0.0-388.0","35BLDD71I7JO9DOH565ZGKINBHZVZ8","A2DLV3WN24WTDS","3WPCIUYH1AU470H2HRBLZRFBM3CTDN","","null","<img src=""img/food5.png"" style=""width:200px;border:14px solid red;"">","null","","","","","",""
"","image-keyboard-response","389","235035","0.0-389.0","35BLDD71I7JO9DOH565ZGKINBHZVZ8","A2DLV3WN24WTDS","3WPCIUYH1AU470H2HRBLZRFBM3CTDN","","775.8000000119209","img/food1.png","76","777.9000000059605","2","1","1","0.2,0.8,0.2,0.8,0.2,0.8,0.8,0.2",""
"","html-keyboard-response","390","235353","0.0-390.0","35BLDD71I7JO9DOH565ZGKINBHZVZ8","A2DLV3WN24WTDS","3WPCIUYH1AU470H2HRBLZRFBM3CTDN","","null","<img src=""img/food1.png"" style=""width:200px; border:14px solid green;"">","null","","","","","",""
"","image-keyboard-response","391","236049","0.0-391.0","35BLDD71I7JO9DOH565ZGKINBHZVZ8","A2DLV3WN24WTDS","3WPCIUYH1AU470H2HRBLZRFBM3CTDN","","695.4000000059605","img/food1.png","76","697.3000000119209","2","0","1","0.2,0.8,0.2,0.8,0.2,0.8,0.8,0.2",""
"","html-keyboard-response","392","236361","0.0-392.0","35BLDD71I7JO9DOH565ZGKINBHZVZ8","A2DLV3WN24WTDS","3WPCIUYH1AU470H2HRBLZRFBM3CTDN","","null","<img src=""img/food1.png"" style=""width:200px;border:14px solid red;"">","null","","","","","",""
"","image-keyboard-response","393","237224","0.0-393.0","35BLDD71I7JO9DOH565ZGKINBHZVZ8","A2DLV3WN24WTDS","3WPCIUYH1AU470H2HRBLZRFBM3CTDN","","859.2999999821186","img/food8.png","76","862.3000000119209","2","1","3","0.2,0.8,0.2,0.8,0.2,0.8,0.8,0.2",""
"","html-keyboard-response","394","237540","0.0-394.0","35BLDD71I7JO9DOH565ZGKINBHZVZ8","A2DLV3WN24WTDS","3WPCIUYH1AU470H2HRBLZRFBM3CTDN","","null","<img src=""img/food8.png"" style=""width:200px; border:14px solid green;"">","null","","","","","",""
"","image-keyboard-response","395","238225","0.0-395.0","35BLDD71I7JO9DOH565ZGKINBHZVZ8","A2DLV3WN24WTDS","3WPCIUYH1AU470H2HRBLZRFBM3CTDN","","682.7999999821186","img/food3.png","75","685.3000000119209","1","0","2","0.2,0.8,0.2,0.8,0.2,0.8,0.8,0.2",""
"","html-keyboard-response","396","238530","0.0-396.0","35BLDD71I7JO9DOH565ZGKINBHZVZ8","A2DLV3WN24WTDS","3WPCIUYH1AU470H2HRBLZRFBM3CTDN","","null","<img src=""img/food3.png"" style=""width:200px;border:14px solid red;"">","null","","","","","",""
"","image-keyboard-response","397","239064","0.0-397.0","35BLDD71I7JO9DOH565ZGKINBHZVZ8","A2DLV3WN24WTDS","3WPCIUYH1AU470H2HRBLZRFBM3CTDN","","532.7000000178814","img/food3.png","75","534.0999999940395","1","0","2","0.2,0.8,0.2,0.8,0.2,0.8,0.8,0.2",""
"","html-keyboard-response","398","239379","0.0-398.0","35BLDD71I7JO9DOH565ZGKINBHZVZ8","A2DLV3WN24WTDS","3WPCIUYH1AU470H2HRBLZRFBM3CTDN","","null","<img src=""img/food3.png"" style=""width:200px;border:14px solid red;"">","null","","","","","",""
"","image-keyboard-response","399","239947","0.0-399.0","35BLDD71I7JO9DOH565ZGKINBHZVZ8","A2DLV3WN24WTDS","3WPCIUYH1AU470H2HRBLZRFBM3CTDN","","566.5999999940395","img/food8.png","76","568.5","2","1","3","0.2,0.8,0.2,0.8,0.2,0.8,0.8,0.2",""
"","html-keyboard-response","400","240262","0.0-400.0","35BLDD71I7JO9DOH565ZGKINBHZVZ8","A2DLV3WN24WTDS","3WPCIUYH1AU470H2HRBLZRFBM3CTDN","","null","<img src=""img/food8.png"" style=""width:200px; border:14px solid green;"">","null","","","","","",""
"","image-keyboard-response","401","240972","0.0-401.0","35BLDD71I7JO9DOH565ZGKINBHZVZ8","A2DLV3WN24WTDS","3WPCIUYH1AU470H2HRBLZRFBM3CTDN","","708.1999999880791","img/food1.png","76","710.1000000238419","2","1","1","0.2,0.8,0.2,0.8,0.2,0.8,0.8,0.2",""
