"success","trial_type","trial_index","time_elapsed","internal_node_id","assignmentID","mturkID","hitID","view_history","rt","stimulus","key_press","reactionTime","a","r","s","cond","reward_cond","reward_cond_actual","reward_matrix_idx","warning","responses"
"true","fullscreen","0","3739","0.0-0.0","31LM9EDVOMEL1TA4LTGMI90K9LQJND","A2DURCYLFT9UDY","3JAOYN9IHLO1QRHB9NZI45P11ZM33A","","","","","","","","","","","","","",""
"","instructions","1","25213","0.0-1.0","31LM9EDVOMEL1TA4LTGMI90K9LQJND","A2DURCYLFT9UDY","3JAOYN9IHLO1QRHB9NZI45P11ZM33A","[{""page_index"":0,""viewing_time"":4317.600000000093},{""page_index"":1,""viewing_time"":3467.5},{""page_index"":2,""viewing_time"":3198.7999999998137},{""page_index"":3,""viewing_time"":2802.7000000001863},{""page_index"":4,""viewing_time"":2097.6999999997206},{""page_index"":5,""viewing_time"":2951.7000000001863},{""page_index"":6,""viewing_time"":2630.2000000001863}]","21467","","","","","","","","","","","",""
"","image-keyboard-response","2","26675","0.0-2.0","31LM9EDVOMEL1TA4LTGMI90K9LQJND","A2DURCYLFT9UDY","3JAOYN9IHLO1QRHB9NZI45P11ZM33A","","1456.3999999999069","img/food6.png","76","1460.8999999999069","3","0","1","1","1,0.7,0,1,0.7,0,0.7,0,1","1,0.7,0,1,0.7,0,0.7,0,1","1","",""
"","html-keyboard-response","3","26981","0.0-3.0","31LM9EDVOMEL1TA4LTGMI90K9LQJND","A2DURCYLFT9UDY","3JAOYN9IHLO1QRHB9NZI45P11ZM33A","","null","<img src=""img/food6.png"" style=""width:200px;border:14px solid red;"">","null","","","","","","","","","",""
"","image-keyboard-response","4","27350","0.0-4.0","31LM9EDVOMEL1TA4LTGMI90K9LQJND","A2DURCYLFT9UDY","3JAOYN9IHLO1QRHB9NZI45P11ZM33A","","365.29999999981374","img/food4.png","75","368.29999999981374","2","0","3","1","1,0.7,0,1,0.7,0,0.7,0,1","1,0.7,0,1,0.7,0,0.7,0,1","1","",""
"","html-keyboard-response","5","27654","0.0-5.0","31LM9EDVOMEL1TA4LTGMI90K9LQJND","A2DURCYLFT9UDY","3JAOYN9IHLO1QRHB9NZI45P11ZM33A","","null","<img src=""img/food4.png"" style=""width:200px;border:14px solid red;"">","null","","","","","","","","","",""
"","image-keyboard-response","6","28428","0.0-6.0","31LM9EDVOMEL1TA4LTGMI90K9LQJND","A2DURCYLFT9UDY","3JAOYN9IHLO1QRHB9NZI45P11ZM33A","","769.3999999999069","img/food6.png","74","772.1999999997206","1","1","1","1","1,0.7,0,1,0.7,0,0.7,0,1","1,0.7,0,1,0.7,0,0.7,0,1","1","",""
"","html-keyboard-response","7","28732","0.0-7.0","31LM9EDVOMEL1TA4LTGMI90K9LQJND","A2DURCYLFT9UDY","3JAOYN9IHLO1QRHB9NZI45P11ZM33A","","null","<img src=""img/food6.png"" style=""width:200px; border:14px solid green;"">","null","","","","","","","","","",""
"","image-keyboard-response","8","29539","0.0-8.0","31LM9EDVOMEL1TA4LTGMI90K9LQJND","A2DURCYLFT9UDY","3JAOYN9IHLO1QRHB9NZI45P11ZM33A","","801","img/food6.png","74","805.3999999999069","1","1","1","1","1,0.7,0,1,0.7,0,0.7,0,1","1,0.7,0,1,0.7,0,0.7,0,1","1","",""
"","html-keyboard-response","9","29845","0.0-9.0","31LM9EDVOMEL1TA4LTGMI90K9LQJND","A2DURCYLFT9UDY","3JAOYN9IHLO1QRHB9NZI45P11ZM33A","","null","<img src=""img/food6.png"" style=""width:200px; border:14px solid green;"">","null","","","","","","","","","",""
"","image-keyboard-response","10","30537","0.0-10.0","31LM9EDVOMEL1TA4LTGMI90K9LQJND","A2DURCYLFT9UDY","3JAOYN9IHLO1QRHB9NZI45P11ZM33A","","689.3999999999069","img/food5.png","74","691.7000000001863","1","1","2","1","1,0.7,0,1,0.7,0,0.7,0,1","1,0.7,0,1,0.7,0,0.7,0,1","1","",""
"","html-keyboard-response","11","30840","0.0-11.0","31LM9EDVOMEL1TA4LTGMI90K9LQJND","A2DURCYLFT9UDY","3JAOYN9IHLO1QRHB9NZI45P11ZM33A","","null","<img src=""img/food5.png"" style=""width:200px; border:14px solid green;"">","null","","","","","","","","","",""
"","image-keyboard-response","12","31474","0.0-12.0","31LM9EDVOMEL1TA4LTGMI90K9LQJND","A2DURCYLFT9UDY","3JAOYN9IHLO1QRHB9NZI45P11ZM33A","","631","img/food6.png","74","633.5","1","1","1","1","1,0.7,0,1,0.7,0,0.7,0,1","1,0.7,0,1,0.7,0,0.7,0,1","1","",""
"","html-keyboard-response","13","31779","0.0-13.0","31LM9EDVOMEL1TA4LTGMI90K9LQJND","A2DURCYLFT9UDY","3JAOYN9IHLO1QRHB9NZI45P11ZM33A","","null","<img src=""img/food6.png"" style=""width:200px; border:14px solid green;"">","null","","","","","","","","","",""
"","image-keyboard-response","14","33149","0.0-14.0","31LM9EDVOMEL1TA4LTGMI90K9LQJND","A2DURCYLFT9UDY","3JAOYN9IHLO1QRHB9NZI45P11ZM33A","","1366.7000000001863","img/food4.png","74","1369.2000000001863","1","0","3","1","1,0.7,0,1,0.7,0,0.7,0,1","1,0.7,0,1,0.7,0,0.7,0,1","1","",""
"","html-keyboard-response","15","33452","0.0-15.0","31LM9EDVOMEL1TA4LTGMI90K9LQJND","A2DURCYLFT9UDY","3JAOYN9IHLO1QRHB9NZI45P11ZM33A","","null","<img src=""img/food4.png"" style=""width:200px;border:14px solid red;"">","null","","","","","","","","","",""
"","image-keyboard-response","16","34294","0.0-16.0","31LM9EDVOMEL1TA4LTGMI90K9LQJND","A2DURCYLFT9UDY","3JAOYN9IHLO1QRHB9NZI45P11ZM33A","","839.1000000000931","img/food5.png","75","841.7000000001863","2","1","2","1","1,0.7,0,1,0.7,0,0.7,0,1","1,0.7,0,1,0.7,0,0.7,0,1","1","",""
"","html-keyboard-response","17","34598","0.0-17.0","31LM9EDVOMEL1TA4LTGMI90K9LQJND","A2DURCYLFT9UDY","3JAOYN9IHLO1QRHB9NZI45P11ZM33A","","null","<img src=""img/food5.png"" style=""width:200px; border:14px solid green;"">","null","","","","","","","","","",""
"","image-keyboard-response","18","36601","0.0-18.0","31LM9EDVOMEL1TA4LTGMI90K9LQJND","A2DURCYLFT9UDY","3JAOYN9IHLO1QRHB9NZI45P11ZM33A","","","img/food4.png","","2002.8999999999069","-1","0","3","1","1,0.7,0,1,0.7,0,0.7,0,1","1,0.7,0,1,0.7,0,0.7,0,1","1","",""
"","html-keyboard-response","19","36905","0.0-19.0","31LM9EDVOMEL1TA4LTGMI90K9LQJND","A2DURCYLFT9UDY","3JAOYN9IHLO1QRHB9NZI45P11ZM33A","","null","<img src=""img/food4.png"" style=""width:200px;border:14px solid red;"">","null","","","","","","","","","",""
"","image-keyboard-response","20","37422","0.0-20.0","31LM9EDVOMEL1TA4LTGMI90K9LQJND","A2DURCYLFT9UDY","3JAOYN9IHLO1QRHB9NZI45P11ZM33A","","514","img/food5.png","75","516.7000000001863","2","1","2","1","1,0.7,0,1,0.7,0,0.7,0,1","1,0.7,0,1,0.7,0,0.7,0,1","1","",""
"","html-keyboard-response","21","37725","0.0-21.0","31LM9EDVOMEL1TA4LTGMI90K9LQJND","A2DURCYLFT9UDY","3JAOYN9IHLO1QRHB9NZI45P11ZM33A","","null","<img src=""img/food5.png"" style=""width:200px; border:14px solid green;"">","null","","","","","","","","","",""
"","image-keyboard-response","22","38171","0.0-22.0","31LM9EDVOMEL1TA4LTGMI90K9LQJND","A2DURCYLFT9UDY","3JAOYN9IHLO1QRHB9NZI45P11ZM33A","","442.60000000009313","img/food6.png","75","445","2","1","1","1","1,0.7,0,1,0.7,0,0.7,0,1","1,0.7,0,1,0.7,0,0.7,0,1","1","",""
"","html-keyboard-response","23","38475","0.0-23.0","31LM9EDVOMEL1TA4LTGMI90K9LQJND","A2DURCYLFT9UDY","3JAOYN9IHLO1QRHB9NZI45P11ZM33A","","null","<img src=""img/food6.png"" style=""width:200px; border:14px solid green;"">","null","","","","","","","","","",""
"","image-keyboard-response","24","38944","0.0-24.0","31LM9EDVOMEL1TA4LTGMI90K9LQJND","A2DURCYLFT9UDY","3JAOYN9IHLO1QRHB9NZI45P11ZM33A","","466.5","img/food5.png","75","468.8000000002794","2","1","2","1","1,0.7,0,1,0.7,0,0.7,0,1","1,0.7,0,1,0.7,0,0.7,0,1","1","",""
"","html-keyboard-response","25","39247","0.0-25.0","31LM9EDVOMEL1TA4LTGMI90K9LQJND","A2DURCYLFT9UDY","3JAOYN9IHLO1QRHB9NZI45P11ZM33A","","null","<img src=""img/food5.png"" style=""width:200px; border:14px solid green;"">","null","","","","","","","","","",""
"","image-keyboard-response","26","39770","0.0-26.0","31LM9EDVOMEL1TA4LTGMI90K9LQJND","A2DURCYLFT9UDY","3JAOYN9IHLO1QRHB9NZI45P11ZM33A","","518.7000000001863","img/food4.png","75","521.7999999998137","2","0","3","1","1,0.7,0,1,0.7,0,0.7,0,1","1,0.7,0,1,0.7,0,0.7,0,1","1","",""
"","html-keyboard-response","27","40075","0.0-27.0","31LM9EDVOMEL1TA4LTGMI90K9LQJND","A2DURCYLFT9UDY","3JAOYN9IHLO1QRHB9NZI45P11ZM33A","","null","<img src=""img/food4.png"" style=""width:200px;border:14px solid red;"">","null","","","","","","","","","",""
"","image-keyboard-response","28","40648","0.0-28.0","31LM9EDVOMEL1TA4LTGMI90K9LQJND","A2DURCYLFT9UDY","3JAOYN9IHLO1QRHB9NZI45P11ZM33A","","570.3999999999069","img/food4.png","76","572.8000000002794","3","1","3","1","1,0.7,0,1,0.7,0,0.7,0,1","1,0.7,0,1,0.7,0,0.7,0,1","1","",""
"","html-keyboard-response","29","40952","0.0-29.0","31LM9EDVOMEL1TA4LTGMI90K9LQJND","A2DURCYLFT9UDY","3JAOYN9IHLO1QRHB9NZI45P11ZM33A","","null","<img src=""img/food4.png"" style=""width:200px; border:14px solid green;"">","null","","","","","","","","","",""
"","image-keyboard-response","30","41466","0.0-30.0","31LM9EDVOMEL1TA4LTGMI90K9LQJND","A2DURCYLFT9UDY","3JAOYN9IHLO1QRHB9NZI45P11ZM33A","","510.90000000037253","img/food5.png","76","513.2999999998137","3","0","2","1","1,0.7,0,1,0.7,0,0.7,0,1","1,0.7,0,1,0.7,0,0.7,0,1","1","",""
"","html-keyboard-response","31","41769","0.0-31.0","31LM9EDVOMEL1TA4LTGMI90K9LQJND","A2DURCYLFT9UDY","3JAOYN9IHLO1QRHB9NZI45P11ZM33A","","null","<img src=""img/food5.png"" style=""width:200px;border:14px solid red;"">","null","","","","","","","","","",""
"","image-keyboard-response","32","43242","0.0-32.0","31LM9EDVOMEL1TA4LTGMI90K9LQJND","A2DURCYLFT9UDY","3JAOYN9IHLO1QRHB9NZI45P11ZM33A","","1469.8999999999069","img/food6.png","74","1472.3999999999069","1","1","1","1","1,0.7,0,1,0.7,0,0.7,0,1","1,0.7,0,1,0.7,0,0.7,0,1","1","",""
"","html-keyboard-response","33","43545","0.0-33.0","31LM9EDVOMEL1TA4LTGMI90K9LQJND","A2DURCYLFT9UDY","3JAOYN9IHLO1QRHB9NZI45P11ZM33A","","null","<img src=""img/food6.png"" style=""width:200px; border:14px solid green;"">","null","","","","","","","","","",""
"","image-keyboard-response","34","44263","0.0-34.0","31LM9EDVOMEL1TA4LTGMI90K9LQJND","A2DURCYLFT9UDY","3JAOYN9IHLO1QRHB9NZI45P11ZM33A","","715","img/food6.png","74","717.5","1","1","1","1","1,0.7,0,1,0.7,0,0.7,0,1","1,0.7,0,1,0.7,0,0.7,0,1","1","",""
"","html-keyboard-response","35","44567","0.0-35.0","31LM9EDVOMEL1TA4LTGMI90K9LQJND","A2DURCYLFT9UDY","3JAOYN9IHLO1QRHB9NZI45P11ZM33A","","null","<img src=""img/food6.png"" style=""width:200px; border:14px solid green;"">","null","","","","","","","","","",""
"","image-keyboard-response","36","45058","0.0-36.0","31LM9EDVOMEL1TA4LTGMI90K9LQJND","A2DURCYLFT9UDY","3JAOYN9IHLO1QRHB9NZI45P11ZM33A","","488.29999999981374","img/food6.png","74","490.89999999990687","1","1","1","1","1,0.7,0,1,0.7,0,0.7,0,1","1,0.7,0,1,0.7,0,0.7,0,1","1","",""
"","html-keyboard-response","37","45362","0.0-37.0","31LM9EDVOMEL1TA4LTGMI90K9LQJND","A2DURCYLFT9UDY","3JAOYN9IHLO1QRHB9NZI45P11ZM33A","","null","<img src=""img/food6.png"" style=""width:200px; border:14px solid green;"">","null","","","","","","","","","",""
"","image-keyboard-response","38","46300","0.0-38.0","31LM9EDVOMEL1TA4LTGMI90K9LQJND","A2DURCYLFT9UDY","3JAOYN9IHLO1QRHB9NZI45P11ZM33A","","934.3999999999069","img/food5.png","75","937.6000000000931","2","0","2","1","1,0.7,0,1,0.7,0,0.7,0,1","1,0.7,0,1,0.7,0,0.7,0,1","1","",""
"","html-keyboard-response","39","46604","0.0-39.0","31LM9EDVOMEL1TA4LTGMI90K9LQJND","A2DURCYLFT9UDY","3JAOYN9IHLO1QRHB9NZI45P11ZM33A","","null","<img src=""img/food5.png"" style=""width:200px;border:14px solid red;"">","null","","","","","","","","","",""
"","image-keyboard-response","40","47115","0.0-40.0","31LM9EDVOMEL1TA4LTGMI90K9LQJND","A2DURCYLFT9UDY","3JAOYN9IHLO1QRHB9NZI45P11ZM33A","","507.10000000009313","img/food6.png","74","509.60000000009313","1","1","1","1","1,0.7,0,1,0.7,0,0.7,0,1","1,0.7,0,1,0.7,0,0.7,0,1","1","",""
"","html-keyboard-response","41","47418","0.0-41.0","31LM9EDVOMEL1TA4LTGMI90K9LQJND","A2DURCYLFT9UDY","3JAOYN9IHLO1QRHB9NZI45P11ZM33A","","null","<img src=""img/food6.png"" style=""width:200px; border:14px solid green;"">","null","","","","","","","","","",""
"","image-keyboard-response","42","48009","0.0-42.0","31LM9EDVOMEL1TA4LTGMI90K9LQJND","A2DURCYLFT9UDY","3JAOYN9IHLO1QRHB9NZI45P11ZM33A","","587.6000000000931","img/food5.png","74","589.8000000002794","1","1","2","1","1,0.7,0,1,0.7,0,0.7,0,1","1,0.7,0,1,0.7,0,0.7,0,1","1","",""
"","html-keyboard-response","43","48312","0.0-43.0","31LM9EDVOMEL1TA4LTGMI90K9LQJND","A2DURCYLFT9UDY","3JAOYN9IHLO1QRHB9NZI45P11ZM33A","","null","<img src=""img/food5.png"" style=""width:200px; border:14px solid green;"">","null","","","","","","","","","",""
"","image-keyboard-response","44","49026","0.0-44.0","31LM9EDVOMEL1TA4LTGMI90K9LQJND","A2DURCYLFT9UDY","3JAOYN9IHLO1QRHB9NZI45P11ZM33A","","710.2000000001863","img/food5.png","74","713","1","1","2","1","1,0.7,0,1,0.7,0,0.7,0,1","1,0.7,0,1,0.7,0,0.7,0,1","1","",""
"","html-keyboard-response","45","49330","0.0-45.0","31LM9EDVOMEL1TA4LTGMI90K9LQJND","A2DURCYLFT9UDY","3JAOYN9IHLO1QRHB9NZI45P11ZM33A","","null","<img src=""img/food5.png"" style=""width:200px; border:14px solid green;"">","null","","","","","","","","","",""
"","image-keyboard-response","46","49925","0.0-46.0","31LM9EDVOMEL1TA4LTGMI90K9LQJND","A2DURCYLFT9UDY","3JAOYN9IHLO1QRHB9NZI45P11ZM33A","","592","img/food4.png","74","594.3000000002794","1","1","3","1","1,0.7,0,1,0.7,0,0.7,0,1","1,0.7,0,1,0.7,0,0.7,0,1","1","",""
"","html-keyboard-response","47","50228","0.0-47.0","31LM9EDVOMEL1TA4LTGMI90K9LQJND","A2DURCYLFT9UDY","3JAOYN9IHLO1QRHB9NZI45P11ZM33A","","null","<img src=""img/food4.png"" style=""width:200px; border:14px solid green;"">","null","","","","","","","","","",""
"","image-keyboard-response","48","50774","0.0-48.0","31LM9EDVOMEL1TA4LTGMI90K9LQJND","A2DURCYLFT9UDY","3JAOYN9IHLO1QRHB9NZI45P11ZM33A","","543.2999999998137","img/food6.png","74","545.7000000001863","1","1","1","1","1,0.7,0,1,0.7,0,0.7,0,1","1,0.7,0,1,0.7,0,0.7,0,1","1","",""
"","html-keyboard-response","49","51077","0.0-49.0","31LM9EDVOMEL1TA4LTGMI90K9LQJND","A2DURCYLFT9UDY","3JAOYN9IHLO1QRHB9NZI45P11ZM33A","","null","<img src=""img/food6.png"" style=""width:200px; border:14px solid green;"">","null","","","","","","","","","",""
"","image-keyboard-response","50","51675","0.0-50.0","31LM9EDVOMEL1TA4LTGMI90K9LQJND","A2DURCYLFT9UDY","3JAOYN9IHLO1QRHB9NZI45P11ZM33A","","594.7999999998137","img/food4.png","74","597.3000000002794","1","0","3","1","1,0.7,0,1,0.7,0,0.7,0,1","1,0.7,0,1,0.7,0,0.7,0,1","1","",""
"","html-keyboard-response","51","51979","0.0-51.0","31LM9EDVOMEL1TA4LTGMI90K9LQJND","A2DURCYLFT9UDY","3JAOYN9IHLO1QRHB9NZI45P11ZM33A","","null","<img src=""img/food4.png"" style=""width:200px;border:14px solid red;"">","null","","","","","","","","","",""
"","image-keyboard-response","52","52667","0.0-52.0","31LM9EDVOMEL1TA4LTGMI90K9LQJND","A2DURCYLFT9UDY","3JAOYN9IHLO1QRHB9NZI45P11ZM33A","","685.0999999996275","img/food5.png","75","687.5","2","1","2","1","1,0.7,0,1,0.7,0,0.7,0,1","1,0.7,0,1,0.7,0,0.7,0,1","1","",""
"","html-keyboard-response","53","52970","0.0-53.0","31LM9EDVOMEL1TA4LTGMI90K9LQJND","A2DURCYLFT9UDY","3JAOYN9IHLO1QRHB9NZI45P11ZM33A","","null","<img src=""img/food5.png"" style=""width:200px; border:14px solid green;"">","null","","","","","","","","","",""
"","image-keyboard-response","54","53643","0.0-54.0","31LM9EDVOMEL1TA4LTGMI90K9LQJND","A2DURCYLFT9UDY","3JAOYN9IHLO1QRHB9NZI45P11ZM33A","","670","img/food5.png","75","672.5","2","1","2","1","1,0.7,0,1,0.7,0,0.7,0,1","1,0.7,0,1,0.7,0,0.7,0,1","1","",""
"","html-keyboard-response","55","53947","0.0-55.0","31LM9EDVOMEL1TA4LTGMI90K9LQJND","A2DURCYLFT9UDY","3JAOYN9IHLO1QRHB9NZI45P11ZM33A","","null","<img src=""img/food5.png"" style=""width:200px; border:14px solid green;"">","null","","","","","","","","","",""
"","image-keyboard-response","56","54472","0.0-56.0","31LM9EDVOMEL1TA4LTGMI90K9LQJND","A2DURCYLFT9UDY","3JAOYN9IHLO1QRHB9NZI45P11ZM33A","","521.3999999999069","img/food5.png","75","524","2","1","2","1","1,0.7,0,1,0.7,0,0.7,0,1","1,0.7,0,1,0.7,0,0.7,0,1","1","",""
"","html-keyboard-response","57","54775","0.0-57.0","31LM9EDVOMEL1TA4LTGMI90K9LQJND","A2DURCYLFT9UDY","3JAOYN9IHLO1QRHB9NZI45P11ZM33A","","null","<img src=""img/food5.png"" style=""width:200px; border:14px solid green;"">","null","","","","","","","","","",""
"","image-keyboard-response","58","55265","0.0-58.0","31LM9EDVOMEL1TA4LTGMI90K9LQJND","A2DURCYLFT9UDY","3JAOYN9IHLO1QRHB9NZI45P11ZM33A","","487.10000000009313","img/food5.png","75","489.5","2","0","2","1","1,0.7,0,1,0.7,0,0.7,0,1","1,0.7,0,1,0.7,0,0.7,0,1","1","",""
"","html-keyboard-response","59","55568","0.0-59.0","31LM9EDVOMEL1TA4LTGMI90K9LQJND","A2DURCYLFT9UDY","3JAOYN9IHLO1QRHB9NZI45P11ZM33A","","null","<img src=""img/food5.png"" style=""width:200px;border:14px solid red;"">","null","","","","","","","","","",""
"","image-keyboard-response","60","56291","0.0-60.0","31LM9EDVOMEL1TA4LTGMI90K9LQJND","A2DURCYLFT9UDY","3JAOYN9IHLO1QRHB9NZI45P11ZM33A","","719.8999999999069","img/food4.png","76","722.8999999999069","3","1","3","1","1,0.7,0,1,0.7,0,0.7,0,1","1,0.7,0,1,0.7,0,0.7,0,1","1","",""
"","html-keyboard-response","61","56597","0.0-61.0","31LM9EDVOMEL1TA4LTGMI90K9LQJND","A2DURCYLFT9UDY","3JAOYN9IHLO1QRHB9NZI45P11ZM33A","","null","<img src=""img/food4.png"" style=""width:200px; border:14px solid green;"">","null","","","","","","","","","",""
"","image-keyboard-response","62","57415","0.0-62.0","31LM9EDVOMEL1TA4LTGMI90K9LQJND","A2DURCYLFT9UDY","3JAOYN9IHLO1QRHB9NZI45P11ZM33A","","814.3999999999069","img/food6.png","74","816.9000000003725","1","1","1","1","1,0.7,0,1,0.7,0,0.7,0,1","1,0.7,0,1,0.7,0,0.7,0,1","1","",""
"","html-keyboard-response","63","57717","0.0-63.0","31LM9EDVOMEL1TA4LTGMI90K9LQJND","A2DURCYLFT9UDY","3JAOYN9IHLO1QRHB9NZI45P11ZM33A","","null","<img src=""img/food6.png"" style=""width:200px; border:14px solid green;"">","null","","","","","","","","","",""
"","image-keyboard-response","64","58459","0.0-64.0","31LM9EDVOMEL1TA4LTGMI90K9LQJND","A2DURCYLFT9UDY","3JAOYN9IHLO1QRHB9NZI45P11ZM33A","","737.6000000000931","img/food6.png","74","740.5999999996275","1","1","1","1","1,0.7,0,1,0.7,0,0.7,0,1","1,0.7,0,1,0.7,0,0.7,0,1","1","",""
"","html-keyboard-response","65","58765","0.0-65.0","31LM9EDVOMEL1TA4LTGMI90K9LQJND","A2DURCYLFT9UDY","3JAOYN9IHLO1QRHB9NZI45P11ZM33A","","null","<img src=""img/food6.png"" style=""width:200px; border:14px solid green;"">","null","","","","","","","","","",""
"","image-keyboard-response","66","59877","0.0-66.0","31LM9EDVOMEL1TA4LTGMI90K9LQJND","A2DURCYLFT9UDY","3JAOYN9IHLO1QRHB9NZI45P11ZM33A","","1108.8000000002794","img/food4.png","76","1111.2000000001863","3","1","3","1","1,0.7,0,1,0.7,0,0.7,0,1","1,0.7,0,1,0.7,0,0.7,0,1","1","",""
"","html-keyboard-response","67","60180","0.0-67.0","31LM9EDVOMEL1TA4LTGMI90K9LQJND","A2DURCYLFT9UDY","3JAOYN9IHLO1QRHB9NZI45P11ZM33A","","null","<img src=""img/food4.png"" style=""width:200px; border:14px solid green;"">","null","","","","","","","","","",""
"","image-keyboard-response","68","60930","0.0-68.0","31LM9EDVOMEL1TA4LTGMI90K9LQJND","A2DURCYLFT9UDY","3JAOYN9IHLO1QRHB9NZI45P11ZM33A","","746.5","img/food4.png","76","749","3","1","3","1","1,0.7,0,1,0.7,0,0.7,0,1","1,0.7,0,1,0.7,0,0.7,0,1","1","",""
"","html-keyboard-response","69","61233","0.0-69.0","31LM9EDVOMEL1TA4LTGMI90K9LQJND","A2DURCYLFT9UDY","3JAOYN9IHLO1QRHB9NZI45P11ZM33A","","null","<img src=""img/food4.png"" style=""width:200px; border:14px solid green;"">","null","","","","","","","","","",""
"","image-keyboard-response","70","61853","0.0-70.0","31LM9EDVOMEL1TA4LTGMI90K9LQJND","A2DURCYLFT9UDY","3JAOYN9IHLO1QRHB9NZI45P11ZM33A","","616.3999999999069","img/food6.png","74","618.7999999998137","1","1","1","1","1,0.7,0,1,0.7,0,0.7,0,1","1,0.7,0,1,0.7,0,0.7,0,1","1","",""
"","html-keyboard-response","71","62156","0.0-71.0","31LM9EDVOMEL1TA4LTGMI90K9LQJND","A2DURCYLFT9UDY","3JAOYN9IHLO1QRHB9NZI45P11ZM33A","","null","<img src=""img/food6.png"" style=""width:200px; border:14px solid green;"">","null","","","","","","","","","",""
"","image-keyboard-response","72","62859","0.0-72.0","31LM9EDVOMEL1TA4LTGMI90K9LQJND","A2DURCYLFT9UDY","3JAOYN9IHLO1QRHB9NZI45P11ZM33A","","700.2999999998137","img/food5.png","75","703.2000000001863","2","1","2","1","1,0.7,0,1,0.7,0,0.7,0,1","1,0.7,0,1,0.7,0,0.7,0,1","1","",""
"","html-keyboard-response","73","63165","0.0-73.0","31LM9EDVOMEL1TA4LTGMI90K9LQJND","A2DURCYLFT9UDY","3JAOYN9IHLO1QRHB9NZI45P11ZM33A","","null","<img src=""img/food5.png"" style=""width:200px; border:14px solid green;"">","null","","","","","","","","","",""
"","image-keyboard-response","74","63917","0.0-74.0","31LM9EDVOMEL1TA4LTGMI90K9LQJND","A2DURCYLFT9UDY","3JAOYN9IHLO1QRHB9NZI45P11ZM33A","","748.7000000001863","img/food5.png","75","751.1000000000931","2","1","2","1","1,0.7,0,1,0.7,0,0.7,0,1","1,0.7,0,1,0.7,0,0.7,0,1","1","",""
"","html-keyboard-response","75","64220","0.0-75.0","31LM9EDVOMEL1TA4LTGMI90K9LQJND","A2DURCYLFT9UDY","3JAOYN9IHLO1QRHB9NZI45P11ZM33A","","null","<img src=""img/food5.png"" style=""width:200px; border:14px solid green;"">","null","","","","","","","","","",""
"","image-keyboard-response","76","64855","0.0-76.0","31LM9EDVOMEL1TA4LTGMI90K9LQJND","A2DURCYLFT9UDY","3JAOYN9IHLO1QRHB9NZI45P11ZM33A","","628.7000000001863","img/food5.png","75","631.6999999997206","2","1","2","1","1,0.7,0,1,0.7,0,0.7,0,1","1,0.7,0,1,0.7,0,0.7,0,1","1","",""
"","html-keyboard-response","77","65157","0.0-77.0","31LM9EDVOMEL1TA4LTGMI90K9LQJND","A2DURCYLFT9UDY","3JAOYN9IHLO1QRHB9NZI45P11ZM33A","","null","<img src=""img/food5.png"" style=""width:200px; border:14px solid green;"">","null","","","","","","","","","",""
"","image-keyboard-response","78","65747","0.0-78.0","31LM9EDVOMEL1TA4LTGMI90K9LQJND","A2DURCYLFT9UDY","3JAOYN9IHLO1QRHB9NZI45P11ZM33A","","586.1000000000931","img/food5.png","75","588.6000000000931","2","1","2","1","1,0.7,0,1,0.7,0,0.7,0,1","1,0.7,0,1,0.7,0,0.7,0,1","1","",""
"","html-keyboard-response","79","66050","0.0-79.0","31LM9EDVOMEL1TA4LTGMI90K9LQJND","A2DURCYLFT9UDY","3JAOYN9IHLO1QRHB9NZI45P11ZM33A","","null","<img src=""img/food5.png"" style=""width:200px; border:14px solid green;"">","null","","","","","","","","","",""
"","image-keyboard-response","80","66683","0.0-80.0","31LM9EDVOMEL1TA4LTGMI90K9LQJND","A2DURCYLFT9UDY","3JAOYN9IHLO1QRHB9NZI45P11ZM33A","","629.7000000001863","img/food6.png","74","632.1000000000931","1","1","1","1","1,0.7,0,1,0.7,0,0.7,0,1","1,0.7,0,1,0.7,0,0.7,0,1","1","",""
"","html-keyboard-response","81","66986","0.0-81.0","31LM9EDVOMEL1TA4LTGMI90K9LQJND","A2DURCYLFT9UDY","3JAOYN9IHLO1QRHB9NZI45P11ZM33A","","null","<img src=""img/food6.png"" style=""width:200px; border:14px solid green;"">","null","","","","","","","","","",""
"","image-keyboard-response","82","67576","0.0-82.0","31LM9EDVOMEL1TA4LTGMI90K9LQJND","A2DURCYLFT9UDY","3JAOYN9IHLO1QRHB9NZI45P11ZM33A","","587.3999999999069","img/food4.png","75","589.6000000000931","2","0","3","1","1,0.7,0,1,0.7,0,0.7,0,1","1,0.7,0,1,0.7,0,0.7,0,1","1","",""
"","html-keyboard-response","83","67879","0.0-83.0","31LM9EDVOMEL1TA4LTGMI90K9LQJND","A2DURCYLFT9UDY","3JAOYN9IHLO1QRHB9NZI45P11ZM33A","","null","<img src=""img/food4.png"" style=""width:200px;border:14px solid red;"">","null","","","","","","","","","",""
"","image-keyboard-response","84","68456","0.0-84.0","31LM9EDVOMEL1TA4LTGMI90K9LQJND","A2DURCYLFT9UDY","3JAOYN9IHLO1QRHB9NZI45P11ZM33A","","574.2999999998137","img/food5.png","74","576.5","1","1","2","1","1,0.7,0,1,0.7,0,0.7,0,1","1,0.7,0,1,0.7,0,0.7,0,1","1","",""
"","html-keyboard-response","85","68759","0.0-85.0","31LM9EDVOMEL1TA4LTGMI90K9LQJND","A2DURCYLFT9UDY","3JAOYN9IHLO1QRHB9NZI45P11ZM33A","","null","<img src=""img/food5.png"" style=""width:200px; border:14px solid green;"">","null","","","","","","","","","",""
"","image-keyboard-response","86","69645","0.0-86.0","31LM9EDVOMEL1TA4LTGMI90K9LQJND","A2DURCYLFT9UDY","3JAOYN9IHLO1QRHB9NZI45P11ZM33A","","883","img/food5.png","74","885.5","1","1","2","1","1,0.7,0,1,0.7,0,0.7,0,1","1,0.7,0,1,0.7,0,0.7,0,1","1","",""
"","html-keyboard-response","87","69949","0.0-87.0","31LM9EDVOMEL1TA4LTGMI90K9LQJND","A2DURCYLFT9UDY","3JAOYN9IHLO1QRHB9NZI45P11ZM33A","","null","<img src=""img/food5.png"" style=""width:200px; border:14px solid green;"">","null","","","","","","","","","",""
"","image-keyboard-response","88","70589","0.0-88.0","31LM9EDVOMEL1TA4LTGMI90K9LQJND","A2DURCYLFT9UDY","3JAOYN9IHLO1QRHB9NZI45P11ZM33A","","636.5","img/food5.png","74","639.1999999997206","1","1","2","1","1,0.7,0,1,0.7,0,0.7,0,1","1,0.7,0,1,0.7,0,0.7,0,1","1","",""
"","html-keyboard-response","89","70892","0.0-89.0","31LM9EDVOMEL1TA4LTGMI90K9LQJND","A2DURCYLFT9UDY","3JAOYN9IHLO1QRHB9NZI45P11ZM33A","","null","<img src=""img/food5.png"" style=""width:200px; border:14px solid green;"">","null","","","","","","","","","",""
"","image-keyboard-response","90","71425","0.0-90.0","31LM9EDVOMEL1TA4LTGMI90K9LQJND","A2DURCYLFT9UDY","3JAOYN9IHLO1QRHB9NZI45P11ZM33A","","530.1999999997206","img/food6.png","75","532.7000000001863","2","0","1","1","1,0.7,0,1,0.7,0,0.7,0,1","1,0.7,0,1,0.7,0,0.7,0,1","1","",""
"","html-keyboard-response","91","71729","0.0-91.0","31LM9EDVOMEL1TA4LTGMI90K9LQJND","A2DURCYLFT9UDY","3JAOYN9IHLO1QRHB9NZI45P11ZM33A","","null","<img src=""img/food6.png"" style=""width:200px;border:14px solid red;"">","null","","","","","","","","","",""
"","image-keyboard-response","92","72320","0.0-92.0","31LM9EDVOMEL1TA4LTGMI90K9LQJND","A2DURCYLFT9UDY","3JAOYN9IHLO1QRHB9NZI45P11ZM33A","","587.2999999998137","img/food5.png","74","590.3000000002794","1","1","2","1","1,0.7,0,1,0.7,0,0.7,0,1","1,0.7,0,1,0.7,0,0.7,0,1","1","",""
"","html-keyboard-response","93","72625","0.0-93.0","31LM9EDVOMEL1TA4LTGMI90K9LQJND","A2DURCYLFT9UDY","3JAOYN9IHLO1QRHB9NZI45P11ZM33A","","null","<img src=""img/food5.png"" style=""width:200px; border:14px solid green;"">","null","","","","","","","","","",""
"","image-keyboard-response","94","74519","0.0-94.0","31LM9EDVOMEL1TA4LTGMI90K9LQJND","A2DURCYLFT9UDY","3JAOYN9IHLO1QRHB9NZI45P11ZM33A","","1890.5","img/food4.png","76","1892.9000000003725","3","1","3","1","1,0.7,0,1,0.7,0,0.7,0,1","1,0.7,0,1,0.7,0,0.7,0,1","1","",""
"","html-keyboard-response","95","74822","0.0-95.0","31LM9EDVOMEL1TA4LTGMI90K9LQJND","A2DURCYLFT9UDY","3JAOYN9IHLO1QRHB9NZI45P11ZM33A","","null","<img src=""img/food4.png"" style=""width:200px; border:14px solid green;"">","null","","","","","","","","","",""
"","image-keyboard-response","96","75751","0.0-96.0","31LM9EDVOMEL1TA4LTGMI90K9LQJND","A2DURCYLFT9UDY","3JAOYN9IHLO1QRHB9NZI45P11ZM33A","","925.8000000002794","img/food6.png","74","928.3999999999069","1","1","1","1","1,0.7,0,1,0.7,0,0.7,0,1","1,0.7,0,1,0.7,0,0.7,0,1","1","",""
"","html-keyboard-response","97","76054","0.0-97.0","31LM9EDVOMEL1TA4LTGMI90K9LQJND","A2DURCYLFT9UDY","3JAOYN9IHLO1QRHB9NZI45P11ZM33A","","null","<img src=""img/food6.png"" style=""width:200px; border:14px solid green;"">","null","","","","","","","","","",""
"","image-keyboard-response","98","76612","0.0-98.0","31LM9EDVOMEL1TA4LTGMI90K9LQJND","A2DURCYLFT9UDY","3JAOYN9IHLO1QRHB9NZI45P11ZM33A","","554.9000000003725","img/food5.png","75","557.5","2","1","2","1","1,0.7,0,1,0.7,0,0.7,0,1","1,0.7,0,1,0.7,0,0.7,0,1","1","",""
"","html-keyboard-response","99","76916","0.0-99.0","31LM9EDVOMEL1TA4LTGMI90K9LQJND","A2DURCYLFT9UDY","3JAOYN9IHLO1QRHB9NZI45P11ZM33A","","null","<img src=""img/food5.png"" style=""width:200px; border:14px solid green;"">","null","","","","","","","","","",""
"","image-keyboard-response","100","77910","0.0-100.0","31LM9EDVOMEL1TA4LTGMI90K9LQJND","A2DURCYLFT9UDY","3JAOYN9IHLO1QRHB9NZI45P11ZM33A","","991.1000000000931","img/food5.png","75","993.6000000000931","2","1","2","1","1,0.7,0,1,0.7,0,0.7,0,1","1,0.7,0,1,0.7,0,0.7,0,1","1","",""
"","html-keyboard-response","101","78214","0.0-101.0","31LM9EDVOMEL1TA4LTGMI90K9LQJND","A2DURCYLFT9UDY","3JAOYN9IHLO1QRHB9NZI45P11ZM33A","","null","<img src=""img/food5.png"" style=""width:200px; border:14px solid green;"">","null","","","","","","","","","",""
"","image-keyboard-response","102","78911","0.0-102.0","31LM9EDVOMEL1TA4LTGMI90K9LQJND","A2DURCYLFT9UDY","3JAOYN9IHLO1QRHB9NZI45P11ZM33A","","694.7000000001863","img/food4.png","76","697.1000000000931","3","1","3","1","1,0.7,0,1,0.7,0,0.7,0,1","1,0.7,0,1,0.7,0,0.7,0,1","1","",""
"","html-keyboard-response","103","79215","0.0-103.0","31LM9EDVOMEL1TA4LTGMI90K9LQJND","A2DURCYLFT9UDY","3JAOYN9IHLO1QRHB9NZI45P11ZM33A","","null","<img src=""img/food4.png"" style=""width:200px; border:14px solid green;"">","null","","","","","","","","","",""
"","image-keyboard-response","104","80584","0.0-104.0","31LM9EDVOMEL1TA4LTGMI90K9LQJND","A2DURCYLFT9UDY","3JAOYN9IHLO1QRHB9NZI45P11ZM33A","","1365.8999999999069","img/food6.png","76","1368.3000000002794","3","0","1","1","1,0.7,0,1,0.7,0,0.7,0,1","1,0.7,0,1,0.7,0,0.7,0,1","1","",""
"","html-keyboard-response","105","80887","0.0-105.0","31LM9EDVOMEL1TA4LTGMI90K9LQJND","A2DURCYLFT9UDY","3JAOYN9IHLO1QRHB9NZI45P11ZM33A","","null","<img src=""img/food6.png"" style=""width:200px;border:14px solid red;"">","null","","","","","","","","","",""
"","image-keyboard-response","106","81648","0.0-106.0","31LM9EDVOMEL1TA4LTGMI90K9LQJND","A2DURCYLFT9UDY","3JAOYN9IHLO1QRHB9NZI45P11ZM33A","","757.6000000000931","img/food6.png","74","760.1000000000931","1","1","1","1","1,0.7,0,1,0.7,0,0.7,0,1","1,0.7,0,1,0.7,0,0.7,0,1","1","",""
"","html-keyboard-response","107","81950","0.0-107.0","31LM9EDVOMEL1TA4LTGMI90K9LQJND","A2DURCYLFT9UDY","3JAOYN9IHLO1QRHB9NZI45P11ZM33A","","null","<img src=""img/food6.png"" style=""width:200px; border:14px solid green;"">","null","","","","","","","","","",""
"","image-keyboard-response","108","83955","0.0-108.0","31LM9EDVOMEL1TA4LTGMI90K9LQJND","A2DURCYLFT9UDY","3JAOYN9IHLO1QRHB9NZI45P11ZM33A","","","img/food6.png","","2003.8999999999069","-1","0","1","1","1,0.7,0,1,0.7,0,0.7,0,1","1,0.7,0,1,0.7,0,0.7,0,1","1","",""
"","html-keyboard-response","109","84259","0.0-109.0","31LM9EDVOMEL1TA4LTGMI90K9LQJND","A2DURCYLFT9UDY","3JAOYN9IHLO1QRHB9NZI45P11ZM33A","","null","<img src=""img/food6.png"" style=""width:200px;border:14px solid red;"">","null","","","","","","","","","",""
"","image-keyboard-response","110","84821","0.0-110.0","31LM9EDVOMEL1TA4LTGMI90K9LQJND","A2DURCYLFT9UDY","3JAOYN9IHLO1QRHB9NZI45P11ZM33A","","558.5","img/food6.png","75","561.1000000000931","2","1","1","1","1,0.7,0,1,0.7,0,0.7,0,1","1,0.7,0,1,0.7,0,0.7,0,1","1","",""
"","html-keyboard-response","111","85124","0.0-111.0","31LM9EDVOMEL1TA4LTGMI90K9LQJND","A2DURCYLFT9UDY","3JAOYN9IHLO1QRHB9NZI45P11ZM33A","","null","<img src=""img/food6.png"" style=""width:200px; border:14px solid green;"">","null","","","","","","","","","",""
"","image-keyboard-response","112","85489","0.0-112.0","31LM9EDVOMEL1TA4LTGMI90K9LQJND","A2DURCYLFT9UDY","3JAOYN9IHLO1QRHB9NZI45P11ZM33A","","361.5","img/food6.png","76","364","3","0","1","1","1,0.7,0,1,0.7,0,0.7,0,1","1,0.7,0,1,0.7,0,0.7,0,1","1","",""
"","html-keyboard-response","113","85792","0.0-113.0","31LM9EDVOMEL1TA4LTGMI90K9LQJND","A2DURCYLFT9UDY","3JAOYN9IHLO1QRHB9NZI45P11ZM33A","","null","<img src=""img/food6.png"" style=""width:200px;border:14px solid red;"">","null","","","","","","","","","",""
"","image-keyboard-response","114","86043","0.0-114.0","31LM9EDVOMEL1TA4LTGMI90K9LQJND","A2DURCYLFT9UDY","3JAOYN9IHLO1QRHB9NZI45P11ZM33A","","247.20000000018626","img/food5.png","75","249.89999999990687","2","1","2","1","1,0.7,0,1,0.7,0,0.7,0,1","1,0.7,0,1,0.7,0,0.7,0,1","1","",""
"","html-keyboard-response","115","86347","0.0-115.0","31LM9EDVOMEL1TA4LTGMI90K9LQJND","A2DURCYLFT9UDY","3JAOYN9IHLO1QRHB9NZI45P11ZM33A","","null","<img src=""img/food5.png"" style=""width:200px; border:14px solid green;"">","null","","","","","","","","","",""
"","image-keyboard-response","116","86846","0.0-116.0","31LM9EDVOMEL1TA4LTGMI90K9LQJND","A2DURCYLFT9UDY","3JAOYN9IHLO1QRHB9NZI45P11ZM33A","","496.89999999990687","img/food4.png","75","499.20000000018626","2","0","3","1","1,0.7,0,1,0.7,0,0.7,0,1","1,0.7,0,1,0.7,0,0.7,0,1","1","",""
"","html-keyboard-response","117","87149","0.0-117.0","31LM9EDVOMEL1TA4LTGMI90K9LQJND","A2DURCYLFT9UDY","3JAOYN9IHLO1QRHB9NZI45P11ZM33A","","null","<img src=""img/food4.png"" style=""width:200px;border:14px solid red;"">","null","","","","","","","","","",""
"","image-keyboard-response","118","87695","0.0-118.0","31LM9EDVOMEL1TA4LTGMI90K9LQJND","A2DURCYLFT9UDY","3JAOYN9IHLO1QRHB9NZI45P11ZM33A","","542.1999999997206","img/food4.png","76","544.6000000000931","3","1","3","1","1,0.7,0,1,0.7,0,0.7,0,1","1,0.7,0,1,0.7,0,0.7,0,1","1","",""
"","html-keyboard-response","119","87999","0.0-119.0","31LM9EDVOMEL1TA4LTGMI90K9LQJND","A2DURCYLFT9UDY","3JAOYN9IHLO1QRHB9NZI45P11ZM33A","","null","<img src=""img/food4.png"" style=""width:200px; border:14px solid green;"">","null","","","","","","","","","",""
"","image-keyboard-response","120","88517","0.0-120.0","31LM9EDVOMEL1TA4LTGMI90K9LQJND","A2DURCYLFT9UDY","3JAOYN9IHLO1QRHB9NZI45P11ZM33A","","515.5","img/food4.png","76","518.2000000001863","3","1","3","1","1,0.7,0,1,0.7,0,0.7,0,1","1,0.7,0,1,0.7,0,0.7,0,1","1","",""
"","html-keyboard-response","121","88821","0.0-121.0","31LM9EDVOMEL1TA4LTGMI90K9LQJND","A2DURCYLFT9UDY","3JAOYN9IHLO1QRHB9NZI45P11ZM33A","","null","<img src=""img/food4.png"" style=""width:200px; border:14px solid green;"">","null","","","","","","","","","",""
"","image-keyboard-response","122","89300","0.0-122.0","31LM9EDVOMEL1TA4LTGMI90K9LQJND","A2DURCYLFT9UDY","3JAOYN9IHLO1QRHB9NZI45P11ZM33A","","475.1999999997206","img/food5.png","74","478.20000000018626","1","1","2","1","1,0.7,0,1,0.7,0,0.7,0,1","1,0.7,0,1,0.7,0,0.7,0,1","1","",""
"","html-keyboard-response","123","89604","0.0-123.0","31LM9EDVOMEL1TA4LTGMI90K9LQJND","A2DURCYLFT9UDY","3JAOYN9IHLO1QRHB9NZI45P11ZM33A","","null","<img src=""img/food5.png"" style=""width:200px; border:14px solid green;"">","null","","","","","","","","","",""
"","image-keyboard-response","124","90310","0.0-124.0","31LM9EDVOMEL1TA4LTGMI90K9LQJND","A2DURCYLFT9UDY","3JAOYN9IHLO1QRHB9NZI45P11ZM33A","","702.6000000000931","img/food6.png","75","705","2","1","1","1","1,0.7,0,1,0.7,0,0.7,0,1","1,0.7,0,1,0.7,0,0.7,0,1","1","",""
"","html-keyboard-response","125","90613","0.0-125.0","31LM9EDVOMEL1TA4LTGMI90K9LQJND","A2DURCYLFT9UDY","3JAOYN9IHLO1QRHB9NZI45P11ZM33A","","null","<img src=""img/food6.png"" style=""width:200px; border:14px solid green;"">","null","","","","","","","","","",""
"","image-keyboard-response","126","91143","0.0-126.0","31LM9EDVOMEL1TA4LTGMI90K9LQJND","A2DURCYLFT9UDY","3JAOYN9IHLO1QRHB9NZI45P11ZM33A","","527.2999999998137","img/food5.png","74","529.7000000001863","1","1","2","1","1,0.7,0,1,0.7,0,0.7,0,1","1,0.7,0,1,0.7,0,0.7,0,1","1","",""
"","html-keyboard-response","127","91446","0.0-127.0","31LM9EDVOMEL1TA4LTGMI90K9LQJND","A2DURCYLFT9UDY","3JAOYN9IHLO1QRHB9NZI45P11ZM33A","","null","<img src=""img/food5.png"" style=""width:200px; border:14px solid green;"">","null","","","","","","","","","",""
"","image-keyboard-response","128","92256","0.0-128.0","31LM9EDVOMEL1TA4LTGMI90K9LQJND","A2DURCYLFT9UDY","3JAOYN9IHLO1QRHB9NZI45P11ZM33A","","805.6000000000931","img/food6.png","75","808.6000000000931","2","1","1","1","1,0.7,0,1,0.7,0,0.7,0,1","1,0.7,0,1,0.7,0,0.7,0,1","1","",""
"","html-keyboard-response","129","92559","0.0-129.0","31LM9EDVOMEL1TA4LTGMI90K9LQJND","A2DURCYLFT9UDY","3JAOYN9IHLO1QRHB9NZI45P11ZM33A","","null","<img src=""img/food6.png"" style=""width:200px; border:14px solid green;"">","null","","","","","","","","","",""
"","image-keyboard-response","130","93302","0.0-130.0","31LM9EDVOMEL1TA4LTGMI90K9LQJND","A2DURCYLFT9UDY","3JAOYN9IHLO1QRHB9NZI45P11ZM33A","","739.6000000000931","img/food5.png","74","742.1999999997206","1","1","2","1","1,0.7,0,1,0.7,0,0.7,0,1","1,0.7,0,1,0.7,0,0.7,0,1","1","",""
"","html-keyboard-response","131","93606","0.0-131.0","31LM9EDVOMEL1TA4LTGMI90K9LQJND","A2DURCYLFT9UDY","3JAOYN9IHLO1QRHB9NZI45P11ZM33A","","null","<img src=""img/food5.png"" style=""width:200px; border:14px solid green;"">","null","","","","","","","","","",""
"","image-keyboard-response","132","94194","0.0-132.0","31LM9EDVOMEL1TA4LTGMI90K9LQJND","A2DURCYLFT9UDY","3JAOYN9IHLO1QRHB9NZI45P11ZM33A","","585.2999999998137","img/food4.png","74","587.6000000000931","1","1","3","1","1,0.7,0,1,0.7,0,0.7,0,1","1,0.7,0,1,0.7,0,0.7,0,1","1","",""
"","html-keyboard-response","133","94497","0.0-133.0","31LM9EDVOMEL1TA4LTGMI90K9LQJND","A2DURCYLFT9UDY","3JAOYN9IHLO1QRHB9NZI45P11ZM33A","","null","<img src=""img/food4.png"" style=""width:200px; border:14px solid green;"">","null","","","","","","","","","",""
"","image-keyboard-response","134","94829","0.0-134.0","31LM9EDVOMEL1TA4LTGMI90K9LQJND","A2DURCYLFT9UDY","3JAOYN9IHLO1QRHB9NZI45P11ZM33A","","328.60000000009313","img/food6.png","75","331.10000000009313","2","0","1","1","1,0.7,0,1,0.7,0,0.7,0,1","1,0.7,0,1,0.7,0,0.7,0,1","1","",""
"","html-keyboard-response","135","95132","0.0-135.0","31LM9EDVOMEL1TA4LTGMI90K9LQJND","A2DURCYLFT9UDY","3JAOYN9IHLO1QRHB9NZI45P11ZM33A","","null","<img src=""img/food6.png"" style=""width:200px;border:14px solid red;"">","null","","","","","","","","","",""
"","image-keyboard-response","136","95481","0.0-136.0","31LM9EDVOMEL1TA4LTGMI90K9LQJND","A2DURCYLFT9UDY","3JAOYN9IHLO1QRHB9NZI45P11ZM33A","","346.60000000009313","img/food4.png","74","349.10000000009313","1","1","3","1","1,0.7,0,1,0.7,0,0.7,0,1","1,0.7,0,1,0.7,0,0.7,0,1","1","",""
"","html-keyboard-response","137","95784","0.0-137.0","31LM9EDVOMEL1TA4LTGMI90K9LQJND","A2DURCYLFT9UDY","3JAOYN9IHLO1QRHB9NZI45P11ZM33A","","null","<img src=""img/food4.png"" style=""width:200px; border:14px solid green;"">","null","","","","","","","","","",""
"","image-keyboard-response","138","97791","0.0-138.0","31LM9EDVOMEL1TA4LTGMI90K9LQJND","A2DURCYLFT9UDY","3JAOYN9IHLO1QRHB9NZI45P11ZM33A","","","img/food5.png","","2002.8999999999069","-1","0","2","1","1,0.7,0,1,0.7,0,0.7,0,1","1,0.7,0,1,0.7,0,0.7,0,1","1","",""
"","html-keyboard-response","139","98096","0.0-139.0","31LM9EDVOMEL1TA4LTGMI90K9LQJND","A2DURCYLFT9UDY","3JAOYN9IHLO1QRHB9NZI45P11ZM33A","","null","<img src=""img/food5.png"" style=""width:200px;border:14px solid red;"">","null","","","","","","","","","",""
"","image-keyboard-response","140","98702","0.0-140.0","31LM9EDVOMEL1TA4LTGMI90K9LQJND","A2DURCYLFT9UDY","3JAOYN9IHLO1QRHB9NZI45P11ZM33A","","602.8999999999069","img/food4.png","75","605.5","2","0","3","1","1,0.7,0,1,0.7,0,0.7,0,1","1,0.7,0,1,0.7,0,0.7,0,1","1","",""
"","html-keyboard-response","141","99005","0.0-141.0","31LM9EDVOMEL1TA4LTGMI90K9LQJND","A2DURCYLFT9UDY","3JAOYN9IHLO1QRHB9NZI45P11ZM33A","","null","<img src=""img/food4.png"" style=""width:200px;border:14px solid red;"">","null","","","","","","","","","",""
"","image-keyboard-response","142","99280","0.0-142.0","31LM9EDVOMEL1TA4LTGMI90K9LQJND","A2DURCYLFT9UDY","3JAOYN9IHLO1QRHB9NZI45P11ZM33A","","271.70000000018626","img/food4.png","76","274.10000000009313","3","1","3","1","1,0.7,0,1,0.7,0,0.7,0,1","1,0.7,0,1,0.7,0,0.7,0,1","1","",""
"","html-keyboard-response","143","99584","0.0-143.0","31LM9EDVOMEL1TA4LTGMI90K9LQJND","A2DURCYLFT9UDY","3JAOYN9IHLO1QRHB9NZI45P11ZM33A","","null","<img src=""img/food4.png"" style=""width:200px; border:14px solid green;"">","null","","","","","","","","","",""
"","image-keyboard-response","144","100418","0.0-144.0","31LM9EDVOMEL1TA4LTGMI90K9LQJND","A2DURCYLFT9UDY","3JAOYN9IHLO1QRHB9NZI45P11ZM33A","","830.5","img/food4.png","76","833","3","1","3","1","1,0.7,0,1,0.7,0,0.7,0,1","1,0.7,0,1,0.7,0,0.7,0,1","1","",""
"","html-keyboard-response","145","100721","0.0-145.0","31LM9EDVOMEL1TA4LTGMI90K9LQJND","A2DURCYLFT9UDY","3JAOYN9IHLO1QRHB9NZI45P11ZM33A","","null","<img src=""img/food4.png"" style=""width:200px; border:14px solid green;"">","null","","","","","","","","","",""
"","image-keyboard-response","146","101112","0.0-146.0","31LM9EDVOMEL1TA4LTGMI90K9LQJND","A2DURCYLFT9UDY","3JAOYN9IHLO1QRHB9NZI45P11ZM33A","","388.10000000009313","img/food4.png","76","390.60000000009313","3","1","3","1","1,0.7,0,1,0.7,0,0.7,0,1","1,0.7,0,1,0.7,0,0.7,0,1","1","",""
"","html-keyboard-response","147","101416","0.0-147.0","31LM9EDVOMEL1TA4LTGMI90K9LQJND","A2DURCYLFT9UDY","3JAOYN9IHLO1QRHB9NZI45P11ZM33A","","null","<img src=""img/food4.png"" style=""width:200px; border:14px solid green;"">","null","","","","","","","","","",""
"","image-keyboard-response","148","101787","0.0-148.0","31LM9EDVOMEL1TA4LTGMI90K9LQJND","A2DURCYLFT9UDY","3JAOYN9IHLO1QRHB9NZI45P11ZM33A","","367.89999999990687","img/food4.png","76","370.3000000002794","3","1","3","1","1,0.7,0,1,0.7,0,0.7,0,1","1,0.7,0,1,0.7,0,0.7,0,1","1","",""
"","html-keyboard-response","149","102089","0.0-149.0","31LM9EDVOMEL1TA4LTGMI90K9LQJND","A2DURCYLFT9UDY","3JAOYN9IHLO1QRHB9NZI45P11ZM33A","","null","<img src=""img/food4.png"" style=""width:200px; border:14px solid green;"">","null","","","","","","","","","",""
"","image-keyboard-response","150","102450","0.0-150.0","31LM9EDVOMEL1TA4LTGMI90K9LQJND","A2DURCYLFT9UDY","3JAOYN9IHLO1QRHB9NZI45P11ZM33A","","357.3000000002794","img/food4.png","76","359.79999999981374","3","1","3","1","1,0.7,0,1,0.7,0,0.7,0,1","1,0.7,0,1,0.7,0,0.7,0,1","1","",""
"","html-keyboard-response","151","102753","0.0-151.0","31LM9EDVOMEL1TA4LTGMI90K9LQJND","A2DURCYLFT9UDY","3JAOYN9IHLO1QRHB9NZI45P11ZM33A","","null","<img src=""img/food4.png"" style=""width:200px; border:14px solid green;"">","null","","","","","","","","","",""
"","image-keyboard-response","152","103104","0.0-152.0","31LM9EDVOMEL1TA4LTGMI90K9LQJND","A2DURCYLFT9UDY","3JAOYN9IHLO1QRHB9NZI45P11ZM33A","","348.1999999997206","img/food4.png","76","350.60000000009313","3","1","3","1","1,0.7,0,1,0.7,0,0.7,0,1","1,0.7,0,1,0.7,0,0.7,0,1","1","",""
"","html-keyboard-response","153","103407","0.0-153.0","31LM9EDVOMEL1TA4LTGMI90K9LQJND","A2DURCYLFT9UDY","3JAOYN9IHLO1QRHB9NZI45P11ZM33A","","null","<img src=""img/food4.png"" style=""width:200px; border:14px solid green;"">","null","","","","","","","","","",""
"","image-keyboard-response","154","104221","0.0-154.0","31LM9EDVOMEL1TA4LTGMI90K9LQJND","A2DURCYLFT9UDY","3JAOYN9IHLO1QRHB9NZI45P11ZM33A","","810.3999999999069","img/food6.png","74","812.8999999999069","1","1","1","1","1,0.7,0,1,0.7,0,0.7,0,1","1,0.7,0,1,0.7,0,0.7,0,1","1","",""
"","html-keyboard-response","155","104524","0.0-155.0","31LM9EDVOMEL1TA4LTGMI90K9LQJND","A2DURCYLFT9UDY","3JAOYN9IHLO1QRHB9NZI45P11ZM33A","","null","<img src=""img/food6.png"" style=""width:200px; border:14px solid green;"">","null","","","","","","","","","",""
"","image-keyboard-response","156","105327","0.0-156.0","31LM9EDVOMEL1TA4LTGMI90K9LQJND","A2DURCYLFT9UDY","3JAOYN9IHLO1QRHB9NZI45P11ZM33A","","800.3999999999069","img/food4.png","76","802.7000000001863","3","1","3","1","1,0.7,0,1,0.7,0,0.7,0,1","1,0.7,0,1,0.7,0,0.7,0,1","1","",""
"","html-keyboard-response","157","105631","0.0-157.0","31LM9EDVOMEL1TA4LTGMI90K9LQJND","A2DURCYLFT9UDY","3JAOYN9IHLO1QRHB9NZI45P11ZM33A","","null","<img src=""img/food4.png"" style=""width:200px; border:14px solid green;"">","null","","","","","","","","","",""
"","image-keyboard-response","158","106361","0.0-158.0","31LM9EDVOMEL1TA4LTGMI90K9LQJND","A2DURCYLFT9UDY","3JAOYN9IHLO1QRHB9NZI45P11ZM33A","","726.5999999996275","img/food5.png","75","729.6000000000931","2","1","2","1","1,0.7,0,1,0.7,0,0.7,0,1","1,0.7,0,1,0.7,0,0.7,0,1","1","",""
"","html-keyboard-response","159","106664","0.0-159.0","31LM9EDVOMEL1TA4LTGMI90K9LQJND","A2DURCYLFT9UDY","3JAOYN9IHLO1QRHB9NZI45P11ZM33A","","null","<img src=""img/food5.png"" style=""width:200px; border:14px solid green;"">","null","","","","","","","","","",""
"","image-keyboard-response","160","107274","0.0-160.0","31LM9EDVOMEL1TA4LTGMI90K9LQJND","A2DURCYLFT9UDY","3JAOYN9IHLO1QRHB9NZI45P11ZM33A","","606.2000000001863","img/food4.png","74","608.6999999997206","1","0","3","1","1,0.7,0,1,0.7,0,0.7,0,1","1,0.7,0,1,0.7,0,0.7,0,1","1","",""
"","html-keyboard-response","161","107576","0.0-161.0","31LM9EDVOMEL1TA4LTGMI90K9LQJND","A2DURCYLFT9UDY","3JAOYN9IHLO1QRHB9NZI45P11ZM33A","","null","<img src=""img/food4.png"" style=""width:200px;border:14px solid red;"">","null","","","","","","","","","",""
"","image-keyboard-response","162","108473","0.0-162.0","31LM9EDVOMEL1TA4LTGMI90K9LQJND","A2DURCYLFT9UDY","3JAOYN9IHLO1QRHB9NZI45P11ZM33A","","894.3000000002794","img/food5.png","75","896.2000000001863","2","0","2","1","1,0.7,0,1,0.7,0,0.7,0,1","1,0.7,0,1,0.7,0,0.7,0,1","1","",""
"","html-keyboard-response","163","108777","0.0-163.0","31LM9EDVOMEL1TA4LTGMI90K9LQJND","A2DURCYLFT9UDY","3JAOYN9IHLO1QRHB9NZI45P11ZM33A","","null","<img src=""img/food5.png"" style=""width:200px;border:14px solid red;"">","null","","","","","","","","","",""
"","image-keyboard-response","164","109766","0.0-164.0","31LM9EDVOMEL1TA4LTGMI90K9LQJND","A2DURCYLFT9UDY","3JAOYN9IHLO1QRHB9NZI45P11ZM33A","","985.6000000000931","img/food6.png","74","988.5","1","1","1","1","1,0.7,0,1,0.7,0,0.7,0,1","1,0.7,0,1,0.7,0,0.7,0,1","1","",""
"","html-keyboard-response","165","110069","0.0-165.0","31LM9EDVOMEL1TA4LTGMI90K9LQJND","A2DURCYLFT9UDY","3JAOYN9IHLO1QRHB9NZI45P11ZM33A","","null","<img src=""img/food6.png"" style=""width:200px; border:14px solid green;"">","null","","","","","","","","","",""
"","image-keyboard-response","166","110792","0.0-166.0","31LM9EDVOMEL1TA4LTGMI90K9LQJND","A2DURCYLFT9UDY","3JAOYN9IHLO1QRHB9NZI45P11ZM33A","","719.5","img/food6.png","74","722.5","1","1","1","1","1,0.7,0,1,0.7,0,0.7,0,1","1,0.7,0,1,0.7,0,0.7,0,1","1","",""
"","html-keyboard-response","167","111098","0.0-167.0","31LM9EDVOMEL1TA4LTGMI90K9LQJND","A2DURCYLFT9UDY","3JAOYN9IHLO1QRHB9NZI45P11ZM33A","","null","<img src=""img/food6.png"" style=""width:200px; border:14px solid green;"">","null","","","","","","","","","",""
"","image-keyboard-response","168","111730","0.0-168.0","31LM9EDVOMEL1TA4LTGMI90K9LQJND","A2DURCYLFT9UDY","3JAOYN9IHLO1QRHB9NZI45P11ZM33A","","628.8999999999069","img/food5.png","75","631.3999999999069","2","1","2","1","1,0.7,0,1,0.7,0,0.7,0,1","1,0.7,0,1,0.7,0,0.7,0,1","1","",""
"","html-keyboard-response","169","112033","0.0-169.0","31LM9EDVOMEL1TA4LTGMI90K9LQJND","A2DURCYLFT9UDY","3JAOYN9IHLO1QRHB9NZI45P11ZM33A","","null","<img src=""img/food5.png"" style=""width:200px; border:14px solid green;"">","null","","","","","","","","","",""
"","image-keyboard-response","170","113203","0.0-170.0","31LM9EDVOMEL1TA4LTGMI90K9LQJND","A2DURCYLFT9UDY","3JAOYN9IHLO1QRHB9NZI45P11ZM33A","","1167","img/food6.png","74","1169.5","1","1","1","1","1,0.7,0,1,0.7,0,0.7,0,1","1,0.7,0,1,0.7,0,0.7,0,1","1","",""
"","html-keyboard-response","171","113506","0.0-171.0","31LM9EDVOMEL1TA4LTGMI90K9LQJND","A2DURCYLFT9UDY","3JAOYN9IHLO1QRHB9NZI45P11ZM33A","","null","<img src=""img/food6.png"" style=""width:200px; border:14px solid green;"">","null","","","","","","","","","",""
"","image-keyboard-response","172","114679","0.0-172.0","31LM9EDVOMEL1TA4LTGMI90K9LQJND","A2DURCYLFT9UDY","3JAOYN9IHLO1QRHB9NZI45P11ZM33A","","1170.2999999998137","img/food6.png","74","1172.6000000000931","1","1","1","1","1,0.7,0,1,0.7,0,0.7,0,1","1,0.7,0,1,0.7,0,0.7,0,1","1","",""
"","html-keyboard-response","173","114983","0.0-173.0","31LM9EDVOMEL1TA4LTGMI90K9LQJND","A2DURCYLFT9UDY","3JAOYN9IHLO1QRHB9NZI45P11ZM33A","","null","<img src=""img/food6.png"" style=""width:200px; border:14px solid green;"">","null","","","","","","","","","",""
"","image-keyboard-response","174","116006","0.0-174.0","31LM9EDVOMEL1TA4LTGMI90K9LQJND","A2DURCYLFT9UDY","3JAOYN9IHLO1QRHB9NZI45P11ZM33A","","1019.2000000001863","img/food4.png","76","1022.1999999997206","3","1","3","1","1,0.7,0,1,0.7,0,0.7,0,1","1,0.7,0,1,0.7,0,0.7,0,1","1","",""
"","html-keyboard-response","175","116311","0.0-175.0","31LM9EDVOMEL1TA4LTGMI90K9LQJND","A2DURCYLFT9UDY","3JAOYN9IHLO1QRHB9NZI45P11ZM33A","","null","<img src=""img/food4.png"" style=""width:200px; border:14px solid green;"">","null","","","","","","","","","",""
"","image-keyboard-response","176","117163","0.0-176.0","31LM9EDVOMEL1TA4LTGMI90K9LQJND","A2DURCYLFT9UDY","3JAOYN9IHLO1QRHB9NZI45P11ZM33A","","848.2000000001863","img/food6.png","74","850.7000000001863","1","1","1","1","1,0.7,0,1,0.7,0,0.7,0,1","1,0.7,0,1,0.7,0,0.7,0,1","1","",""
"","html-keyboard-response","177","117466","0.0-177.0","31LM9EDVOMEL1TA4LTGMI90K9LQJND","A2DURCYLFT9UDY","3JAOYN9IHLO1QRHB9NZI45P11ZM33A","","null","<img src=""img/food6.png"" style=""width:200px; border:14px solid green;"">","null","","","","","","","","","",""
"","image-keyboard-response","178","118856","0.0-178.0","31LM9EDVOMEL1TA4LTGMI90K9LQJND","A2DURCYLFT9UDY","3JAOYN9IHLO1QRHB9NZI45P11ZM33A","","1386.7999999998137","img/food4.png","76","1389.3999999999069","3","1","3","1","1,0.7,0,1,0.7,0,0.7,0,1","1,0.7,0,1,0.7,0,0.7,0,1","1","",""
"","html-keyboard-response","179","119159","0.0-179.0","31LM9EDVOMEL1TA4LTGMI90K9LQJND","A2DURCYLFT9UDY","3JAOYN9IHLO1QRHB9NZI45P11ZM33A","","null","<img src=""img/food4.png"" style=""width:200px; border:14px solid green;"">","null","","","","","","","","","",""
"","image-keyboard-response","180","119793","0.0-180.0","31LM9EDVOMEL1TA4LTGMI90K9LQJND","A2DURCYLFT9UDY","3JAOYN9IHLO1QRHB9NZI45P11ZM33A","","631.3999999999069","img/food4.png","76","633.6999999997206","3","1","3","1","1,0.7,0,1,0.7,0,0.7,0,1","1,0.7,0,1,0.7,0,0.7,0,1","1","",""
"","html-keyboard-response","181","120096","0.0-181.0","31LM9EDVOMEL1TA4LTGMI90K9LQJND","A2DURCYLFT9UDY","3JAOYN9IHLO1QRHB9NZI45P11ZM33A","","null","<img src=""img/food4.png"" style=""width:200px; border:14px solid green;"">","null","","","","","","","","","",""
"","html-keyboard-response","182","196860","0.0-182.0","31LM9EDVOMEL1TA4LTGMI90K9LQJND","A2DURCYLFT9UDY","3JAOYN9IHLO1QRHB9NZI45P11ZM33A","","","","","","","","","","","","","",""
"","instructions","183","209999","0.0-183.0","31LM9EDVOMEL1TA4LTGMI90K9LQJND","A2DURCYLFT9UDY","3JAOYN9IHLO1QRHB9NZI45P11ZM33A","[{""page_index"":0,""viewing_time"":5983},{""page_index"":1,""viewing_time"":7150.9000000003725}]","13135","","","","","","","","","","","",""
"","image-keyboard-response","184","211005","0.0-184.0","31LM9EDVOMEL1TA4LTGMI90K9LQJND","A2DURCYLFT9UDY","3JAOYN9IHLO1QRHB9NZI45P11ZM33A","","","img/food2.png","","1005.2000000001863","-1","0","1","2","1,0.7,0,1,0.7,0,0.7,0,1","0,1,0.7,0,1,0.7,1,0.7,0","3","true",""
"","html-keyboard-response","185","211311","0.0-185.0","31LM9EDVOMEL1TA4LTGMI90K9LQJND","A2DURCYLFT9UDY","3JAOYN9IHLO1QRHB9NZI45P11ZM33A","","null","<img src=""img/food2.png"" style=""width:200px;border:14px solid red;"">","null","","","","","","","","","",""
"","html-keyboard-response","186","215275","0.0-186.0-0.0","31LM9EDVOMEL1TA4LTGMI90K9LQJND","A2DURCYLFT9UDY","3JAOYN9IHLO1QRHB9NZI45P11ZM33A","","","","","","","","","","","","","",""
"","image-keyboard-response","187","215689","0.0-187.0","31LM9EDVOMEL1TA4LTGMI90K9LQJND","A2DURCYLFT9UDY","3JAOYN9IHLO1QRHB9NZI45P11ZM33A","","407.29999999981374","img/food3.png","74","411.70000000018626","1","1","3","2","1,0.7,0,1,0.7,0,0.7,0,1","0,1,0.7,0,1,0.7,1,0.7,0","3","false",""
"","html-keyboard-response","188","215992","0.0-188.0","31LM9EDVOMEL1TA4LTGMI90K9LQJND","A2DURCYLFT9UDY","3JAOYN9IHLO1QRHB9NZI45P11ZM33A","","null","<img src=""img/food3.png"" style=""width:200px; border:14px solid green;"">","null","","","","","","","","","",""
"","image-keyboard-response","189","216516","0.0-190.0","31LM9EDVOMEL1TA4LTGMI90K9LQJND","A2DURCYLFT9UDY","3JAOYN9IHLO1QRHB9NZI45P11ZM33A","","519.7000000001863","img/food1.png","74","522.7999999998137","1","0","2","2","1,0.7,0,1,0.7,0,0.7,0,1","0,1,0.7,0,1,0.7,1,0.7,0","3","false",""
"","html-keyboard-response","190","216825","0.0-191.0","31LM9EDVOMEL1TA4LTGMI90K9LQJND","A2DURCYLFT9UDY","3JAOYN9IHLO1QRHB9NZI45P11ZM33A","","null","<img src=""img/food1.png"" style=""width:200px;border:14px solid red;"">","null","","","","","","","","","",""
"","image-keyboard-response","191","217230","0.0-193.0","31LM9EDVOMEL1TA4LTGMI90K9LQJND","A2DURCYLFT9UDY","3JAOYN9IHLO1QRHB9NZI45P11ZM33A","","401.5","img/food1.png","75","404","2","1","2","2","1,0.7,0,1,0.7,0,0.7,0,1","0,1,0.7,0,1,0.7,1,0.7,0","3","false",""
"","html-keyboard-response","192","217534","0.0-194.0","31LM9EDVOMEL1TA4LTGMI90K9LQJND","A2DURCYLFT9UDY","3JAOYN9IHLO1QRHB9NZI45P11ZM33A","","null","<img src=""img/food1.png"" style=""width:200px; border:14px solid green;"">","null","","","","","","","","","",""
"","image-keyboard-response","193","218210","0.0-196.0","31LM9EDVOMEL1TA4LTGMI90K9LQJND","A2DURCYLFT9UDY","3JAOYN9IHLO1QRHB9NZI45P11ZM33A","","671.7999999998137","img/food2.png","74","674.3000000007451","1","0","1","2","1,0.7,0,1,0.7,0,0.7,0,1","0,1,0.7,0,1,0.7,1,0.7,0","3","false",""
"","html-keyboard-response","194","218513","0.0-197.0","31LM9EDVOMEL1TA4LTGMI90K9LQJND","A2DURCYLFT9UDY","3JAOYN9IHLO1QRHB9NZI45P11ZM33A","","null","<img src=""img/food2.png"" style=""width:200px;border:14px solid red;"">","null","","","","","","","","","",""
"","image-keyboard-response","195","219287","0.0-199.0","31LM9EDVOMEL1TA4LTGMI90K9LQJND","A2DURCYLFT9UDY","3JAOYN9IHLO1QRHB9NZI45P11ZM33A","","770.2000000001863","img/food1.png","74","772.7000000001863","1","0","2","2","1,0.7,0,1,0.7,0,0.7,0,1","0,1,0.7,0,1,0.7,1,0.7,0","3","false",""
"","html-keyboard-response","196","219590","0.0-200.0","31LM9EDVOMEL1TA4LTGMI90K9LQJND","A2DURCYLFT9UDY","3JAOYN9IHLO1QRHB9NZI45P11ZM33A","","null","<img src=""img/food1.png"" style=""width:200px;border:14px solid red;"">","null","","","","","","","","","",""
"","image-keyboard-response","197","219850","0.0-202.0","31LM9EDVOMEL1TA4LTGMI90K9LQJND","A2DURCYLFT9UDY","3JAOYN9IHLO1QRHB9NZI45P11ZM33A","","255.70000000018626","img/food2.png","75","258.29999999981374","2","1","1","2","1,0.7,0,1,0.7,0,0.7,0,1","0,1,0.7,0,1,0.7,1,0.7,0","3","false",""
"","html-keyboard-response","198","220153","0.0-203.0","31LM9EDVOMEL1TA4LTGMI90K9LQJND","A2DURCYLFT9UDY","3JAOYN9IHLO1QRHB9NZI45P11ZM33A","","null","<img src=""img/food2.png"" style=""width:200px; border:14px solid green;"">","null","","","","","","","","","",""
"","image-keyboard-response","199","220872","0.0-205.0","31LM9EDVOMEL1TA4LTGMI90K9LQJND","A2DURCYLFT9UDY","3JAOYN9IHLO1QRHB9NZI45P11ZM33A","","714.1000000005588","img/food2.png","75","717.3999999994412","2","1","1","2","1,0.7,0,1,0.7,0,0.7,0,1","0,1,0.7,0,1,0.7,1,0.7,0","3","false",""
"","html-keyboard-response","200","221175","0.0-206.0","31LM9EDVOMEL1TA4LTGMI90K9LQJND","A2DURCYLFT9UDY","3JAOYN9IHLO1QRHB9NZI45P11ZM33A","","null","<img src=""img/food2.png"" style=""width:200px; border:14px solid green;"">","null","","","","","","","","","",""
"","image-keyboard-response","201","221771","0.0-208.0","31LM9EDVOMEL1TA4LTGMI90K9LQJND","A2DURCYLFT9UDY","3JAOYN9IHLO1QRHB9NZI45P11ZM33A","","592.8999999994412","img/food3.png","76","594.7000000001863","3","0","3","2","1,0.7,0,1,0.7,0,0.7,0,1","0,1,0.7,0,1,0.7,1,0.7,0","3","false",""
"","html-keyboard-response","202","222075","0.0-209.0","31LM9EDVOMEL1TA4LTGMI90K9LQJND","A2DURCYLFT9UDY","3JAOYN9IHLO1QRHB9NZI45P11ZM33A","","null","<img src=""img/food3.png"" style=""width:200px;border:14px solid red;"">","null","","","","","","","","","",""
"","image-keyboard-response","203","222615","0.0-211.0","31LM9EDVOMEL1TA4LTGMI90K9LQJND","A2DURCYLFT9UDY","3JAOYN9IHLO1QRHB9NZI45P11ZM33A","","535.2000000001863","img/food2.png","74","538.5","1","0","1","2","1,0.7,0,1,0.7,0,0.7,0,1","0,1,0.7,0,1,0.7,1,0.7,0","3","false",""
"","html-keyboard-response","204","222920","0.0-212.0","31LM9EDVOMEL1TA4LTGMI90K9LQJND","A2DURCYLFT9UDY","3JAOYN9IHLO1QRHB9NZI45P11ZM33A","","null","<img src=""img/food2.png"" style=""width:200px;border:14px solid red;"">","null","","","","","","","","","",""
"","image-keyboard-response","205","222976","0.0-214.0","31LM9EDVOMEL1TA4LTGMI90K9LQJND","A2DURCYLFT9UDY","3JAOYN9IHLO1QRHB9NZI45P11ZM33A","","51.700000000186265","img/food3.png","75","54.09999999962747","2","0","3","2","1,0.7,0,1,0.7,0,0.7,0,1","0,1,0.7,0,1,0.7,1,0.7,0","3","false",""
"","html-keyboard-response","206","223279","0.0-215.0","31LM9EDVOMEL1TA4LTGMI90K9LQJND","A2DURCYLFT9UDY","3JAOYN9IHLO1QRHB9NZI45P11ZM33A","","null","<img src=""img/food3.png"" style=""width:200px;border:14px solid red;"">","null","","","","","","","","","",""
"","image-keyboard-response","207","224003","0.0-217.0","31LM9EDVOMEL1TA4LTGMI90K9LQJND","A2DURCYLFT9UDY","3JAOYN9IHLO1QRHB9NZI45P11ZM33A","","720","img/food1.png","74","722.5","1","0","2","2","1,0.7,0,1,0.7,0,0.7,0,1","0,1,0.7,0,1,0.7,1,0.7,0","3","false",""
"","html-keyboard-response","208","224306","0.0-218.0","31LM9EDVOMEL1TA4LTGMI90K9LQJND","A2DURCYLFT9UDY","3JAOYN9IHLO1QRHB9NZI45P11ZM33A","","null","<img src=""img/food1.png"" style=""width:200px;border:14px solid red;"">","null","","","","","","","","","",""
"","image-keyboard-response","209","225057","0.0-220.0","31LM9EDVOMEL1TA4LTGMI90K9LQJND","A2DURCYLFT9UDY","3JAOYN9IHLO1QRHB9NZI45P11ZM33A","","746.5","img/food1.png","75","749","2","1","2","2","1,0.7,0,1,0.7,0,0.7,0,1","0,1,0.7,0,1,0.7,1,0.7,0","3","false",""
"","html-keyboard-response","210","225360","0.0-221.0","31LM9EDVOMEL1TA4LTGMI90K9LQJND","A2DURCYLFT9UDY","3JAOYN9IHLO1QRHB9NZI45P11ZM33A","","null","<img src=""img/food1.png"" style=""width:200px; border:14px solid green;"">","null","","","","","","","","","",""
"","image-keyboard-response","211","226156","0.0-223.0","31LM9EDVOMEL1TA4LTGMI90K9LQJND","A2DURCYLFT9UDY","3JAOYN9IHLO1QRHB9NZI45P11ZM33A","","791.5999999996275","img/food2.png","75","794.1999999992549","2","1","1","2","1,0.7,0,1,0.7,0,0.7,0,1","0,1,0.7,0,1,0.7,1,0.7,0","3","false",""
"","html-keyboard-response","212","226459","0.0-224.0","31LM9EDVOMEL1TA4LTGMI90K9LQJND","A2DURCYLFT9UDY","3JAOYN9IHLO1QRHB9NZI45P11ZM33A","","null","<img src=""img/food2.png"" style=""width:200px; border:14px solid green;"">","null","","","","","","","","","",""
"","image-keyboard-response","213","227315","0.0-226.0","31LM9EDVOMEL1TA4LTGMI90K9LQJND","A2DURCYLFT9UDY","3JAOYN9IHLO1QRHB9NZI45P11ZM33A","","852.5999999996275","img/food2.png","75","855.0999999996275","2","1","1","2","1,0.7,0,1,0.7,0,0.7,0,1","0,1,0.7,0,1,0.7,1,0.7,0","3","false",""
"","html-keyboard-response","214","227619","0.0-227.0","31LM9EDVOMEL1TA4LTGMI90K9LQJND","A2DURCYLFT9UDY","3JAOYN9IHLO1QRHB9NZI45P11ZM33A","","null","<img src=""img/food2.png"" style=""width:200px; border:14px solid green;"">","null","","","","","","","","","",""
"","image-keyboard-response","215","228126","0.0-229.0","31LM9EDVOMEL1TA4LTGMI90K9LQJND","A2DURCYLFT9UDY","3JAOYN9IHLO1QRHB9NZI45P11ZM33A","","503.5","img/food2.png","75","505.90000000037253","2","1","1","2","1,0.7,0,1,0.7,0,0.7,0,1","0,1,0.7,0,1,0.7,1,0.7,0","3","false",""
"","html-keyboard-response","216","228430","0.0-230.0","31LM9EDVOMEL1TA4LTGMI90K9LQJND","A2DURCYLFT9UDY","3JAOYN9IHLO1QRHB9NZI45P11ZM33A","","null","<img src=""img/food2.png"" style=""width:200px; border:14px solid green;"">","null","","","","","","","","","",""
"","image-keyboard-response","217","229125","0.0-232.0","31LM9EDVOMEL1TA4LTGMI90K9LQJND","A2DURCYLFT9UDY","3JAOYN9IHLO1QRHB9NZI45P11ZM33A","","691.5","img/food3.png","76","694","3","0","3","2","1,0.7,0,1,0.7,0,0.7,0,1","0,1,0.7,0,1,0.7,1,0.7,0","3","false",""
"","html-keyboard-response","218","229429","0.0-233.0","31LM9EDVOMEL1TA4LTGMI90K9LQJND","A2DURCYLFT9UDY","3JAOYN9IHLO1QRHB9NZI45P11ZM33A","","null","<img src=""img/food3.png"" style=""width:200px;border:14px solid red;"">","null","","","","","","","","","",""
"","image-keyboard-response","219","229787","0.0-235.0","31LM9EDVOMEL1TA4LTGMI90K9LQJND","A2DURCYLFT9UDY","3JAOYN9IHLO1QRHB9NZI45P11ZM33A","","349.90000000037253","img/food3.png","74","353.3999999994412","1","1","3","2","1,0.7,0,1,0.7,0,0.7,0,1","0,1,0.7,0,1,0.7,1,0.7,0","3","false",""
"","html-keyboard-response","220","230092","0.0-236.0","31LM9EDVOMEL1TA4LTGMI90K9LQJND","A2DURCYLFT9UDY","3JAOYN9IHLO1QRHB9NZI45P11ZM33A","","null","<img src=""img/food3.png"" style=""width:200px; border:14px solid green;"">","null","","","","","","","","","",""
"","image-keyboard-response","221","230777","0.0-238.0","31LM9EDVOMEL1TA4LTGMI90K9LQJND","A2DURCYLFT9UDY","3JAOYN9IHLO1QRHB9NZI45P11ZM33A","","681.5","img/food1.png","75","684","2","1","2","2","1,0.7,0,1,0.7,0,0.7,0,1","0,1,0.7,0,1,0.7,1,0.7,0","3","false",""
"","html-keyboard-response","222","231080","0.0-239.0","31LM9EDVOMEL1TA4LTGMI90K9LQJND","A2DURCYLFT9UDY","3JAOYN9IHLO1QRHB9NZI45P11ZM33A","","null","<img src=""img/food1.png"" style=""width:200px; border:14px solid green;"">","null","","","","","","","","","",""
"","image-keyboard-response","223","231905","0.0-241.0","31LM9EDVOMEL1TA4LTGMI90K9LQJND","A2DURCYLFT9UDY","3JAOYN9IHLO1QRHB9NZI45P11ZM33A","","820.4000000003725","img/food3.png","75","823.7000000001863","2","1","3","2","1,0.7,0,1,0.7,0,0.7,0,1","0,1,0.7,0,1,0.7,1,0.7,0","3","false",""
"","html-keyboard-response","224","232211","0.0-242.0","31LM9EDVOMEL1TA4LTGMI90K9LQJND","A2DURCYLFT9UDY","3JAOYN9IHLO1QRHB9NZI45P11ZM33A","","null","<img src=""img/food3.png"" style=""width:200px; border:14px solid green;"">","null","","","","","","","","","",""
"","image-keyboard-response","225","232943","0.0-244.0","31LM9EDVOMEL1TA4LTGMI90K9LQJND","A2DURCYLFT9UDY","3JAOYN9IHLO1QRHB9NZI45P11ZM33A","","728.7999999998137","img/food1.png","74","731.3999999994412","1","0","2","2","1,0.7,0,1,0.7,0,0.7,0,1","0,1,0.7,0,1,0.7,1,0.7,0","3","false",""
"","html-keyboard-response","226","233246","0.0-245.0","31LM9EDVOMEL1TA4LTGMI90K9LQJND","A2DURCYLFT9UDY","3JAOYN9IHLO1QRHB9NZI45P11ZM33A","","null","<img src=""img/food1.png"" style=""width:200px;border:14px solid red;"">","null","","","","","","","","","",""
"","image-keyboard-response","227","233730","0.0-247.0","31LM9EDVOMEL1TA4LTGMI90K9LQJND","A2DURCYLFT9UDY","3JAOYN9IHLO1QRHB9NZI45P11ZM33A","","480","img/food3.png","75","482.6000000005588","2","1","3","2","1,0.7,0,1,0.7,0,0.7,0,1","0,1,0.7,0,1,0.7,1,0.7,0","3","false",""
"","html-keyboard-response","228","234034","0.0-248.0","31LM9EDVOMEL1TA4LTGMI90K9LQJND","A2DURCYLFT9UDY","3JAOYN9IHLO1QRHB9NZI45P11ZM33A","","null","<img src=""img/food3.png"" style=""width:200px; border:14px solid green;"">","null","","","","","","","","","",""
"","image-keyboard-response","229","234596","0.0-250.0","31LM9EDVOMEL1TA4LTGMI90K9LQJND","A2DURCYLFT9UDY","3JAOYN9IHLO1QRHB9NZI45P11ZM33A","","558.8999999994412","img/food1.png","75","561.2000000001863","2","1","2","2","1,0.7,0,1,0.7,0,0.7,0,1","0,1,0.7,0,1,0.7,1,0.7,0","3","false",""
"","html-keyboard-response","230","234899","0.0-251.0","31LM9EDVOMEL1TA4LTGMI90K9LQJND","A2DURCYLFT9UDY","3JAOYN9IHLO1QRHB9NZI45P11ZM33A","","null","<img src=""img/food1.png"" style=""width:200px; border:14px solid green;"">","null","","","","","","","","","",""
"","image-keyboard-response","231","234937","0.0-253.0","31LM9EDVOMEL1TA4LTGMI90K9LQJND","A2DURCYLFT9UDY","3JAOYN9IHLO1QRHB9NZI45P11ZM33A","","33.799999999813735","img/food2.png","75","36.700000000186265","2","1","1","2","1,0.7,0,1,0.7,0,0.7,0,1","0,1,0.7,0,1,0.7,1,0.7,0","3","false",""
"","html-keyboard-response","232","235241","0.0-254.0","31LM9EDVOMEL1TA4LTGMI90K9LQJND","A2DURCYLFT9UDY","3JAOYN9IHLO1QRHB9NZI45P11ZM33A","","null","<img src=""img/food2.png"" style=""width:200px; border:14px solid green;"">","null","","","","","","","","","",""
"","image-keyboard-response","233","235469","0.0-256.0","31LM9EDVOMEL1TA4LTGMI90K9LQJND","A2DURCYLFT9UDY","3JAOYN9IHLO1QRHB9NZI45P11ZM33A","","224.59999999962747","img/food2.png","75","226.90000000037253","2","1","1","2","1,0.7,0,1,0.7,0,0.7,0,1","0,1,0.7,0,1,0.7,1,0.7,0","3","false",""
"","html-keyboard-response","234","235773","0.0-257.0","31LM9EDVOMEL1TA4LTGMI90K9LQJND","A2DURCYLFT9UDY","3JAOYN9IHLO1QRHB9NZI45P11ZM33A","","null","<img src=""img/food2.png"" style=""width:200px; border:14px solid green;"">","null","","","","","","","","","",""
"","image-keyboard-response","235","236243","0.0-259.0","31LM9EDVOMEL1TA4LTGMI90K9LQJND","A2DURCYLFT9UDY","3JAOYN9IHLO1QRHB9NZI45P11ZM33A","","466.5","img/food3.png","75","468.90000000037253","2","1","3","2","1,0.7,0,1,0.7,0,0.7,0,1","0,1,0.7,0,1,0.7,1,0.7,0","3","false",""
"","html-keyboard-response","236","236547","0.0-260.0","31LM9EDVOMEL1TA4LTGMI90K9LQJND","A2DURCYLFT9UDY","3JAOYN9IHLO1QRHB9NZI45P11ZM33A","","null","<img src=""img/food3.png"" style=""width:200px; border:14px solid green;"">","null","","","","","","","","","",""
"","image-keyboard-response","237","236979","0.0-262.0","31LM9EDVOMEL1TA4LTGMI90K9LQJND","A2DURCYLFT9UDY","3JAOYN9IHLO1QRHB9NZI45P11ZM33A","","427.90000000037253","img/food2.png","75","430.40000000037253","2","1","1","2","1,0.7,0,1,0.7,0,0.7,0,1","0,1,0.7,0,1,0.7,1,0.7,0","3","false",""
"","html-keyboard-response","238","237282","0.0-263.0","31LM9EDVOMEL1TA4LTGMI90K9LQJND","A2DURCYLFT9UDY","3JAOYN9IHLO1QRHB9NZI45P11ZM33A","","null","<img src=""img/food2.png"" style=""width:200px; border:14px solid green;"">","null","","","","","","","","","",""
"","image-keyboard-response","239","237728","0.0-265.0","31LM9EDVOMEL1TA4LTGMI90K9LQJND","A2DURCYLFT9UDY","3JAOYN9IHLO1QRHB9NZI45P11ZM33A","","441.5","img/food1.png","75","444.59999999962747","2","1","2","2","1,0.7,0,1,0.7,0,0.7,0,1","0,1,0.7,0,1,0.7,1,0.7,0","3","false",""
"","html-keyboard-response","240","238031","0.0-266.0","31LM9EDVOMEL1TA4LTGMI90K9LQJND","A2DURCYLFT9UDY","3JAOYN9IHLO1QRHB9NZI45P11ZM33A","","null","<img src=""img/food1.png"" style=""width:200px; border:14px solid green;"">","null","","","","","","","","","",""
"","image-keyboard-response","241","238494","0.0-268.0","31LM9EDVOMEL1TA4LTGMI90K9LQJND","A2DURCYLFT9UDY","3JAOYN9IHLO1QRHB9NZI45P11ZM33A","","459.8999999994412","img/food2.png","75","461.70000000018626","2","1","1","2","1,0.7,0,1,0.7,0,0.7,0,1","0,1,0.7,0,1,0.7,1,0.7,0","3","false",""
"","html-keyboard-response","242","238797","0.0-269.0","31LM9EDVOMEL1TA4LTGMI90K9LQJND","A2DURCYLFT9UDY","3JAOYN9IHLO1QRHB9NZI45P11ZM33A","","null","<img src=""img/food2.png"" style=""width:200px; border:14px solid green;"">","null","","","","","","","","","",""
"","image-keyboard-response","243","239372","0.0-271.0","31LM9EDVOMEL1TA4LTGMI90K9LQJND","A2DURCYLFT9UDY","3JAOYN9IHLO1QRHB9NZI45P11ZM33A","","570.6000000005588","img/food1.png","75","573.3999999994412","2","1","2","2","1,0.7,0,1,0.7,0,0.7,0,1","0,1,0.7,0,1,0.7,1,0.7,0","3","false",""
"","html-keyboard-response","244","239675","0.0-272.0","31LM9EDVOMEL1TA4LTGMI90K9LQJND","A2DURCYLFT9UDY","3JAOYN9IHLO1QRHB9NZI45P11ZM33A","","null","<img src=""img/food1.png"" style=""width:200px; border:14px solid green;"">","null","","","","","","","","","",""
"","image-keyboard-response","245","240067","0.0-274.0","31LM9EDVOMEL1TA4LTGMI90K9LQJND","A2DURCYLFT9UDY","3JAOYN9IHLO1QRHB9NZI45P11ZM33A","","389","img/food2.png","75","391.6000000005588","2","1","1","2","1,0.7,0,1,0.7,0,0.7,0,1","0,1,0.7,0,1,0.7,1,0.7,0","3","false",""
"","html-keyboard-response","246","240371","0.0-275.0","31LM9EDVOMEL1TA4LTGMI90K9LQJND","A2DURCYLFT9UDY","3JAOYN9IHLO1QRHB9NZI45P11ZM33A","","null","<img src=""img/food2.png"" style=""width:200px; border:14px solid green;"">","null","","","","","","","","","",""
"","image-keyboard-response","247","240754","0.0-277.0","31LM9EDVOMEL1TA4LTGMI90K9LQJND","A2DURCYLFT9UDY","3JAOYN9IHLO1QRHB9NZI45P11ZM33A","","379.70000000018626","img/food3.png","75","382.19999999925494","2","1","3","2","1,0.7,0,1,0.7,0,0.7,0,1","0,1,0.7,0,1,0.7,1,0.7,0","3","false",""
"","html-keyboard-response","248","241058","0.0-278.0","31LM9EDVOMEL1TA4LTGMI90K9LQJND","A2DURCYLFT9UDY","3JAOYN9IHLO1QRHB9NZI45P11ZM33A","","null","<img src=""img/food3.png"" style=""width:200px; border:14px solid green;"">","null","","","","","","","","","",""
"","image-keyboard-response","249","241471","0.0-280.0","31LM9EDVOMEL1TA4LTGMI90K9LQJND","A2DURCYLFT9UDY","3JAOYN9IHLO1QRHB9NZI45P11ZM33A","","409.40000000037253","img/food1.png","75","411.70000000018626","2","1","2","2","1,0.7,0,1,0.7,0,0.7,0,1","0,1,0.7,0,1,0.7,1,0.7,0","3","false",""
"","html-keyboard-response","250","241774","0.0-281.0","31LM9EDVOMEL1TA4LTGMI90K9LQJND","A2DURCYLFT9UDY","3JAOYN9IHLO1QRHB9NZI45P11ZM33A","","null","<img src=""img/food1.png"" style=""width:200px; border:14px solid green;"">","null","","","","","","","","","",""
"","image-keyboard-response","251","242177","0.0-283.0","31LM9EDVOMEL1TA4LTGMI90K9LQJND","A2DURCYLFT9UDY","3JAOYN9IHLO1QRHB9NZI45P11ZM33A","","396.59999999962747","img/food1.png","75","400.59999999962747","2","1","2","2","1,0.7,0,1,0.7,0,0.7,0,1","0,1,0.7,0,1,0.7,1,0.7,0","3","false",""
"","html-keyboard-response","252","242481","0.0-284.0","31LM9EDVOMEL1TA4LTGMI90K9LQJND","A2DURCYLFT9UDY","3JAOYN9IHLO1QRHB9NZI45P11ZM33A","","null","<img src=""img/food1.png"" style=""width:200px; border:14px solid green;"">","null","","","","","","","","","",""
"","image-keyboard-response","253","242868","0.0-286.0","31LM9EDVOMEL1TA4LTGMI90K9LQJND","A2DURCYLFT9UDY","3JAOYN9IHLO1QRHB9NZI45P11ZM33A","","383.29999999981374","img/food1.png","75","385.80000000074506","2","1","2","2","1,0.7,0,1,0.7,0,0.7,0,1","0,1,0.7,0,1,0.7,1,0.7,0","3","false",""
"","html-keyboard-response","254","243172","0.0-287.0","31LM9EDVOMEL1TA4LTGMI90K9LQJND","A2DURCYLFT9UDY","3JAOYN9IHLO1QRHB9NZI45P11ZM33A","","null","<img src=""img/food1.png"" style=""width:200px; border:14px solid green;"">","null","","","","","","","","","",""
"","image-keyboard-response","255","243267","0.0-289.0","31LM9EDVOMEL1TA4LTGMI90K9LQJND","A2DURCYLFT9UDY","3JAOYN9IHLO1QRHB9NZI45P11ZM33A","","91","img/food2.png","75","94.40000000037253","2","1","1","2","1,0.7,0,1,0.7,0,0.7,0,1","0,1,0.7,0,1,0.7,1,0.7,0","3","false",""
"","html-keyboard-response","256","243572","0.0-290.0","31LM9EDVOMEL1TA4LTGMI90K9LQJND","A2DURCYLFT9UDY","3JAOYN9IHLO1QRHB9NZI45P11ZM33A","","null","<img src=""img/food2.png"" style=""width:200px; border:14px solid green;"">","null","","","","","","","","","",""
"","image-keyboard-response","257","243745","0.0-292.0","31LM9EDVOMEL1TA4LTGMI90K9LQJND","A2DURCYLFT9UDY","3JAOYN9IHLO1QRHB9NZI45P11ZM33A","","168.40000000037253","img/food1.png","75","171.29999999981374","2","1","2","2","1,0.7,0,1,0.7,0,0.7,0,1","0,1,0.7,0,1,0.7,1,0.7,0","3","false",""
"","html-keyboard-response","258","244049","0.0-293.0","31LM9EDVOMEL1TA4LTGMI90K9LQJND","A2DURCYLFT9UDY","3JAOYN9IHLO1QRHB9NZI45P11ZM33A","","null","<img src=""img/food1.png"" style=""width:200px; border:14px solid green;"">","null","","","","","","","","","",""
"","image-keyboard-response","259","244127","0.0-295.0","31LM9EDVOMEL1TA4LTGMI90K9LQJND","A2DURCYLFT9UDY","3JAOYN9IHLO1QRHB9NZI45P11ZM33A","","74.09999999962747","img/food1.png","75","76.90000000037253","2","1","2","2","1,0.7,0,1,0.7,0,0.7,0,1","0,1,0.7,0,1,0.7,1,0.7,0","3","false",""
"","html-keyboard-response","260","244431","0.0-296.0","31LM9EDVOMEL1TA4LTGMI90K9LQJND","A2DURCYLFT9UDY","3JAOYN9IHLO1QRHB9NZI45P11ZM33A","","null","<img src=""img/food1.png"" style=""width:200px; border:14px solid green;"">","null","","","","","","","","","",""
"","image-keyboard-response","261","244499","0.0-298.0","31LM9EDVOMEL1TA4LTGMI90K9LQJND","A2DURCYLFT9UDY","3JAOYN9IHLO1QRHB9NZI45P11ZM33A","","63.40000000037253","img/food3.png","75","66.5","2","1","3","2","1,0.7,0,1,0.7,0,0.7,0,1","0,1,0.7,0,1,0.7,1,0.7,0","3","false",""
"","html-keyboard-response","262","244803","0.0-299.0","31LM9EDVOMEL1TA4LTGMI90K9LQJND","A2DURCYLFT9UDY","3JAOYN9IHLO1QRHB9NZI45P11ZM33A","","null","<img src=""img/food3.png"" style=""width:200px; border:14px solid green;"">","null","","","","","","","","","",""
"","image-keyboard-response","263","244837","0.0-301.0","31LM9EDVOMEL1TA4LTGMI90K9LQJND","A2DURCYLFT9UDY","3JAOYN9IHLO1QRHB9NZI45P11ZM33A","","28.5","img/food1.png","74","31.700000000186265","1","0","2","2","1,0.7,0,1,0.7,0,0.7,0,1","0,1,0.7,0,1,0.7,1,0.7,0","3","false",""
"","html-keyboard-response","264","245141","0.0-302.0","31LM9EDVOMEL1TA4LTGMI90K9LQJND","A2DURCYLFT9UDY","3JAOYN9IHLO1QRHB9NZI45P11ZM33A","","null","<img src=""img/food1.png"" style=""width:200px;border:14px solid red;"">","null","","","","","","","","","",""
"","image-keyboard-response","265","245520","0.0-304.0","31LM9EDVOMEL1TA4LTGMI90K9LQJND","A2DURCYLFT9UDY","3JAOYN9IHLO1QRHB9NZI45P11ZM33A","","375.29999999981374","img/food3.png","75","377.8999999994412","2","1","3","2","1,0.7,0,1,0.7,0,0.7,0,1","0,1,0.7,0,1,0.7,1,0.7,0","3","false",""
"","html-keyboard-response","266","245825","0.0-305.0","31LM9EDVOMEL1TA4LTGMI90K9LQJND","A2DURCYLFT9UDY","3JAOYN9IHLO1QRHB9NZI45P11ZM33A","","null","<img src=""img/food3.png"" style=""width:200px; border:14px solid green;"">","null","","","","","","","","","",""
"","image-keyboard-response","267","245975","0.0-307.0","31LM9EDVOMEL1TA4LTGMI90K9LQJND","A2DURCYLFT9UDY","3JAOYN9IHLO1QRHB9NZI45P11ZM33A","","145.90000000037253","img/food2.png","75","149","2","1","1","2","1,0.7,0,1,0.7,0,0.7,0,1","0,1,0.7,0,1,0.7,1,0.7,0","3","false",""
"","html-keyboard-response","268","246280","0.0-308.0","31LM9EDVOMEL1TA4LTGMI90K9LQJND","A2DURCYLFT9UDY","3JAOYN9IHLO1QRHB9NZI45P11ZM33A","","null","<img src=""img/food2.png"" style=""width:200px; border:14px solid green;"">","null","","","","","","","","","",""
"","image-keyboard-response","269","246447","0.0-310.0","31LM9EDVOMEL1TA4LTGMI90K9LQJND","A2DURCYLFT9UDY","3JAOYN9IHLO1QRHB9NZI45P11ZM33A","","163.59999999962747","img/food3.png","75","166.19999999925494","2","1","3","2","1,0.7,0,1,0.7,0,0.7,0,1","0,1,0.7,0,1,0.7,1,0.7,0","3","false",""
"","html-keyboard-response","270","246750","0.0-311.0","31LM9EDVOMEL1TA4LTGMI90K9LQJND","A2DURCYLFT9UDY","3JAOYN9IHLO1QRHB9NZI45P11ZM33A","","null","<img src=""img/food3.png"" style=""width:200px; border:14px solid green;"">","null","","","","","","","","","",""
"","image-keyboard-response","271","247008","0.0-313.0","31LM9EDVOMEL1TA4LTGMI90K9LQJND","A2DURCYLFT9UDY","3JAOYN9IHLO1QRHB9NZI45P11ZM33A","","254","img/food1.png","75","256.5","2","1","2","2","1,0.7,0,1,0.7,0,0.7,0,1","0,1,0.7,0,1,0.7,1,0.7,0","3","false",""
"","html-keyboard-response","272","247311","0.0-314.0","31LM9EDVOMEL1TA4LTGMI90K9LQJND","A2DURCYLFT9UDY","3JAOYN9IHLO1QRHB9NZI45P11ZM33A","","null","<img src=""img/food1.png"" style=""width:200px; border:14px solid green;"">","null","","","","","","","","","",""
"","image-keyboard-response","273","247493","0.0-316.0","31LM9EDVOMEL1TA4LTGMI90K9LQJND","A2DURCYLFT9UDY","3JAOYN9IHLO1QRHB9NZI45P11ZM33A","","177.5","img/food3.png","75","180.70000000018626","2","0","3","2","1,0.7,0,1,0.7,0,0.7,0,1","0,1,0.7,0,1,0.7,1,0.7,0","3","false",""
"","html-keyboard-response","274","247798","0.0-317.0","31LM9EDVOMEL1TA4LTGMI90K9LQJND","A2DURCYLFT9UDY","3JAOYN9IHLO1QRHB9NZI45P11ZM33A","","null","<img src=""img/food3.png"" style=""width:200px;border:14px solid red;"">","null","","","","","","","","","",""
"","image-keyboard-response","275","248071","0.0-319.0","31LM9EDVOMEL1TA4LTGMI90K9LQJND","A2DURCYLFT9UDY","3JAOYN9IHLO1QRHB9NZI45P11ZM33A","","267.20000000018626","img/food2.png","74","270.29999999981374","1","0","1","2","1,0.7,0,1,0.7,0,0.7,0,1","0,1,0.7,0,1,0.7,1,0.7,0","3","false",""
"","html-keyboard-response","276","248374","0.0-320.0","31LM9EDVOMEL1TA4LTGMI90K9LQJND","A2DURCYLFT9UDY","3JAOYN9IHLO1QRHB9NZI45P11ZM33A","","null","<img src=""img/food2.png"" style=""width:200px;border:14px solid red;"">","null","","","","","","","","","",""
"","image-keyboard-response","277","248829","0.0-322.0","31LM9EDVOMEL1TA4LTGMI90K9LQJND","A2DURCYLFT9UDY","3JAOYN9IHLO1QRHB9NZI45P11ZM33A","","451.29999999981374","img/food1.png","74","453.70000000018626","1","0","2","2","1,0.7,0,1,0.7,0,0.7,0,1","0,1,0.7,0,1,0.7,1,0.7,0","3","false",""
"","html-keyboard-response","278","249132","0.0-323.0","31LM9EDVOMEL1TA4LTGMI90K9LQJND","A2DURCYLFT9UDY","3JAOYN9IHLO1QRHB9NZI45P11ZM33A","","null","<img src=""img/food1.png"" style=""width:200px;border:14px solid red;"">","null","","","","","","","","","",""
"","image-keyboard-response","279","249305","0.0-325.0","31LM9EDVOMEL1TA4LTGMI90K9LQJND","A2DURCYLFT9UDY","3JAOYN9IHLO1QRHB9NZI45P11ZM33A","","168.70000000018626","img/food2.png","76","171.29999999981374","3","0","1","2","1,0.7,0,1,0.7,0,0.7,0,1","0,1,0.7,0,1,0.7,1,0.7,0","3","false",""
"","html-keyboard-response","280","249608","0.0-326.0","31LM9EDVOMEL1TA4LTGMI90K9LQJND","A2DURCYLFT9UDY","3JAOYN9IHLO1QRHB9NZI45P11ZM33A","","null","<img src=""img/food2.png"" style=""width:200px;border:14px solid red;"">","null","","","","","","","","","",""
"","image-keyboard-response","281","250174","0.0-328.0","31LM9EDVOMEL1TA4LTGMI90K9LQJND","A2DURCYLFT9UDY","3JAOYN9IHLO1QRHB9NZI45P11ZM33A","","561.4000000003725","img/food3.png","76","563.9000000003725","3","0","3","2","1,0.7,0,1,0.7,0,0.7,0,1","0,1,0.7,0,1,0.7,1,0.7,0","3","false",""
"","html-keyboard-response","282","250477","0.0-329.0","31LM9EDVOMEL1TA4LTGMI90K9LQJND","A2DURCYLFT9UDY","3JAOYN9IHLO1QRHB9NZI45P11ZM33A","","null","<img src=""img/food3.png"" style=""width:200px;border:14px solid red;"">","null","","","","","","","","","",""
"","image-keyboard-response","283","250848","0.0-331.0","31LM9EDVOMEL1TA4LTGMI90K9LQJND","A2DURCYLFT9UDY","3JAOYN9IHLO1QRHB9NZI45P11ZM33A","","367.59999999962747","img/food3.png","75","370.20000000018626","2","1","3","2","1,0.7,0,1,0.7,0,0.7,0,1","0,1,0.7,0,1,0.7,1,0.7,0","3","false",""
"","html-keyboard-response","284","251152","0.0-332.0","31LM9EDVOMEL1TA4LTGMI90K9LQJND","A2DURCYLFT9UDY","3JAOYN9IHLO1QRHB9NZI45P11ZM33A","","null","<img src=""img/food3.png"" style=""width:200px; border:14px solid green;"">","null","","","","","","","","","",""
"","image-keyboard-response","285","251245","0.0-334.0","31LM9EDVOMEL1TA4LTGMI90K9LQJND","A2DURCYLFT9UDY","3JAOYN9IHLO1QRHB9NZI45P11ZM33A","","84.59999999962747","img/food1.png","75","88.5","2","1","2","2","1,0.7,0,1,0.7,0,0.7,0,1","0,1,0.7,0,1,0.7,1,0.7,0","3","false",""
"","html-keyboard-response","286","251550","0.0-335.0","31LM9EDVOMEL1TA4LTGMI90K9LQJND","A2DURCYLFT9UDY","3JAOYN9IHLO1QRHB9NZI45P11ZM33A","","null","<img src=""img/food1.png"" style=""width:200px; border:14px solid green;"">","null","","","","","","","","","",""
"","image-keyboard-response","287","251683","0.0-337.0","31LM9EDVOMEL1TA4LTGMI90K9LQJND","A2DURCYLFT9UDY","3JAOYN9IHLO1QRHB9NZI45P11ZM33A","","129.1000000005588","img/food2.png","75","131.59999999962747","2","1","1","2","1,0.7,0,1,0.7,0,0.7,0,1","0,1,0.7,0,1,0.7,1,0.7,0","3","false",""
"","html-keyboard-response","288","251987","0.0-338.0","31LM9EDVOMEL1TA4LTGMI90K9LQJND","A2DURCYLFT9UDY","3JAOYN9IHLO1QRHB9NZI45P11ZM33A","","null","<img src=""img/food2.png"" style=""width:200px; border:14px solid green;"">","null","","","","","","","","","",""
"","image-keyboard-response","289","252112","0.0-340.0","31LM9EDVOMEL1TA4LTGMI90K9LQJND","A2DURCYLFT9UDY","3JAOYN9IHLO1QRHB9NZI45P11ZM33A","","120.90000000037253","img/food3.png","75","124.09999999962747","2","1","3","2","1,0.7,0,1,0.7,0,0.7,0,1","0,1,0.7,0,1,0.7,1,0.7,0","3","false",""
"","html-keyboard-response","290","252418","0.0-341.0","31LM9EDVOMEL1TA4LTGMI90K9LQJND","A2DURCYLFT9UDY","3JAOYN9IHLO1QRHB9NZI45P11ZM33A","","null","<img src=""img/food3.png"" style=""width:200px; border:14px solid green;"">","null","","","","","","","","","",""
"","image-keyboard-response","291","252767","0.0-343.0","31LM9EDVOMEL1TA4LTGMI90K9LQJND","A2DURCYLFT9UDY","3JAOYN9IHLO1QRHB9NZI45P11ZM33A","","344.5","img/food3.png","75","348.40000000037253","2","1","3","2","1,0.7,0,1,0.7,0,0.7,0,1","0,1,0.7,0,1,0.7,1,0.7,0","3","false",""
"","html-keyboard-response","292","253073","0.0-344.0","31LM9EDVOMEL1TA4LTGMI90K9LQJND","A2DURCYLFT9UDY","3JAOYN9IHLO1QRHB9NZI45P11ZM33A","","null","<img src=""img/food3.png"" style=""width:200px; border:14px solid green;"">","null","","","","","","","","","",""
"","image-keyboard-response","293","253218","0.0-346.0","31LM9EDVOMEL1TA4LTGMI90K9LQJND","A2DURCYLFT9UDY","3JAOYN9IHLO1QRHB9NZI45P11ZM33A","","141.90000000037253","img/food3.png","75","144.30000000074506","2","1","3","2","1,0.7,0,1,0.7,0,0.7,0,1","0,1,0.7,0,1,0.7,1,0.7,0","3","false",""
"","html-keyboard-response","294","253521","0.0-347.0","31LM9EDVOMEL1TA4LTGMI90K9LQJND","A2DURCYLFT9UDY","3JAOYN9IHLO1QRHB9NZI45P11ZM33A","","null","<img src=""img/food3.png"" style=""width:200px; border:14px solid green;"">","null","","","","","","","","","",""
"","image-keyboard-response","295","253612","0.0-349.0","31LM9EDVOMEL1TA4LTGMI90K9LQJND","A2DURCYLFT9UDY","3JAOYN9IHLO1QRHB9NZI45P11ZM33A","","87.20000000018626","img/food2.png","75","89.6000000005588","2","1","1","2","1,0.7,0,1,0.7,0,0.7,0,1","0,1,0.7,0,1,0.7,1,0.7,0","3","false",""
"","html-keyboard-response","296","253916","0.0-350.0","31LM9EDVOMEL1TA4LTGMI90K9LQJND","A2DURCYLFT9UDY","3JAOYN9IHLO1QRHB9NZI45P11ZM33A","","null","<img src=""img/food2.png"" style=""width:200px; border:14px solid green;"">","null","","","","","","","","","",""
"","image-keyboard-response","297","254289","0.0-352.0","31LM9EDVOMEL1TA4LTGMI90K9LQJND","A2DURCYLFT9UDY","3JAOYN9IHLO1QRHB9NZI45P11ZM33A","","368.79999999981374","img/food2.png","75","371.29999999981374","2","1","1","2","1,0.7,0,1,0.7,0,0.7,0,1","0,1,0.7,0,1,0.7,1,0.7,0","3","false",""
"","html-keyboard-response","298","254592","0.0-353.0","31LM9EDVOMEL1TA4LTGMI90K9LQJND","A2DURCYLFT9UDY","3JAOYN9IHLO1QRHB9NZI45P11ZM33A","","null","<img src=""img/food2.png"" style=""width:200px; border:14px solid green;"">","null","","","","","","","","","",""
"","image-keyboard-response","299","254725","0.0-355.0","31LM9EDVOMEL1TA4LTGMI90K9LQJND","A2DURCYLFT9UDY","3JAOYN9IHLO1QRHB9NZI45P11ZM33A","","129.20000000018626","img/food2.png","75","131.5","2","1","1","2","1,0.7,0,1,0.7,0,0.7,0,1","0,1,0.7,0,1,0.7,1,0.7,0","3","false",""
"","html-keyboard-response","300","255028","0.0-356.0","31LM9EDVOMEL1TA4LTGMI90K9LQJND","A2DURCYLFT9UDY","3JAOYN9IHLO1QRHB9NZI45P11ZM33A","","null","<img src=""img/food2.png"" style=""width:200px; border:14px solid green;"">","null","","","","","","","","","",""
"","image-keyboard-response","301","255071","0.0-358.0","31LM9EDVOMEL1TA4LTGMI90K9LQJND","A2DURCYLFT9UDY","3JAOYN9IHLO1QRHB9NZI45P11ZM33A","","38.5","img/food3.png","75","41.5","2","1","3","2","1,0.7,0,1,0.7,0,0.7,0,1","0,1,0.7,0,1,0.7,1,0.7,0","3","false",""
"","html-keyboard-response","302","255374","0.0-359.0","31LM9EDVOMEL1TA4LTGMI90K9LQJND","A2DURCYLFT9UDY","3JAOYN9IHLO1QRHB9NZI45P11ZM33A","","null","<img src=""img/food3.png"" style=""width:200px; border:14px solid green;"">","null","","","","","","","","","",""
"","image-keyboard-response","303","255663","0.0-361.0","31LM9EDVOMEL1TA4LTGMI90K9LQJND","A2DURCYLFT9UDY","3JAOYN9IHLO1QRHB9NZI45P11ZM33A","","285.09999999962747","img/food2.png","75","287.6000000005588","2","1","1","2","1,0.7,0,1,0.7,0,0.7,0,1","0,1,0.7,0,1,0.7,1,0.7,0","3","false",""
"","html-keyboard-response","304","255966","0.0-362.0","31LM9EDVOMEL1TA4LTGMI90K9LQJND","A2DURCYLFT9UDY","3JAOYN9IHLO1QRHB9NZI45P11ZM33A","","null","<img src=""img/food2.png"" style=""width:200px; border:14px solid green;"">","null","","","","","","","","","",""
"","image-keyboard-response","305","256182","0.0-364.0","31LM9EDVOMEL1TA4LTGMI90K9LQJND","A2DURCYLFT9UDY","3JAOYN9IHLO1QRHB9NZI45P11ZM33A","","212.09999999962747","img/food3.png","75","214.6000000005588","2","1","3","2","1,0.7,0,1,0.7,0,0.7,0,1","0,1,0.7,0,1,0.7,1,0.7,0","3","false",""
"","html-keyboard-response","306","256485","0.0-365.0","31LM9EDVOMEL1TA4LTGMI90K9LQJND","A2DURCYLFT9UDY","3JAOYN9IHLO1QRHB9NZI45P11ZM33A","","null","<img src=""img/food3.png"" style=""width:200px; border:14px solid green;"">","null","","","","","","","","","",""
"","image-keyboard-response","307","256687","0.0-367.0","31LM9EDVOMEL1TA4LTGMI90K9LQJND","A2DURCYLFT9UDY","3JAOYN9IHLO1QRHB9NZI45P11ZM33A","","199.29999999981374","img/food2.png","75","201.5","2","1","1","2","1,0.7,0,1,0.7,0,0.7,0,1","0,1,0.7,0,1,0.7,1,0.7,0","3","false",""
"","html-keyboard-response","308","256991","0.0-368.0","31LM9EDVOMEL1TA4LTGMI90K9LQJND","A2DURCYLFT9UDY","3JAOYN9IHLO1QRHB9NZI45P11ZM33A","","null","<img src=""img/food2.png"" style=""width:200px; border:14px solid green;"">","null","","","","","","","","","",""
"","image-keyboard-response","309","257117","0.0-370.0","31LM9EDVOMEL1TA4LTGMI90K9LQJND","A2DURCYLFT9UDY","3JAOYN9IHLO1QRHB9NZI45P11ZM33A","","121.3999999994412","img/food1.png","75","124.29999999981374","2","1","2","2","1,0.7,0,1,0.7,0,0.7,0,1","0,1,0.7,0,1,0.7,1,0.7,0","3","false",""
"","html-keyboard-response","310","257423","0.0-371.0","31LM9EDVOMEL1TA4LTGMI90K9LQJND","A2DURCYLFT9UDY","3JAOYN9IHLO1QRHB9NZI45P11ZM33A","","null","<img src=""img/food1.png"" style=""width:200px; border:14px solid green;"">","null","","","","","","","","","",""
"","image-keyboard-response","311","257492","0.0-373.0","31LM9EDVOMEL1TA4LTGMI90K9LQJND","A2DURCYLFT9UDY","3JAOYN9IHLO1QRHB9NZI45P11ZM33A","","65.5","img/food3.png","75","68.30000000074506","2","1","3","2","1,0.7,0,1,0.7,0,0.7,0,1","0,1,0.7,0,1,0.7,1,0.7,0","3","false",""
"","html-keyboard-response","312","257796","0.0-374.0","31LM9EDVOMEL1TA4LTGMI90K9LQJND","A2DURCYLFT9UDY","3JAOYN9IHLO1QRHB9NZI45P11ZM33A","","null","<img src=""img/food3.png"" style=""width:200px; border:14px solid green;"">","null","","","","","","","","","",""
"","image-keyboard-response","313","258027","0.0-376.0","31LM9EDVOMEL1TA4LTGMI90K9LQJND","A2DURCYLFT9UDY","3JAOYN9IHLO1QRHB9NZI45P11ZM33A","","226.70000000018626","img/food2.png","75","229.20000000018626","2","1","1","2","1,0.7,0,1,0.7,0,0.7,0,1","0,1,0.7,0,1,0.7,1,0.7,0","3","false",""
"","html-keyboard-response","314","258331","0.0-377.0","31LM9EDVOMEL1TA4LTGMI90K9LQJND","A2DURCYLFT9UDY","3JAOYN9IHLO1QRHB9NZI45P11ZM33A","","null","<img src=""img/food2.png"" style=""width:200px; border:14px solid green;"">","null","","","","","","","","","",""
"","image-keyboard-response","315","258498","0.0-379.0","31LM9EDVOMEL1TA4LTGMI90K9LQJND","A2DURCYLFT9UDY","3JAOYN9IHLO1QRHB9NZI45P11ZM33A","","162.3999999994412","img/food3.png","75","165.69999999925494","2","1","3","2","1,0.7,0,1,0.7,0,0.7,0,1","0,1,0.7,0,1,0.7,1,0.7,0","3","false",""
"","html-keyboard-response","316","258803","0.0-380.0","31LM9EDVOMEL1TA4LTGMI90K9LQJND","A2DURCYLFT9UDY","3JAOYN9IHLO1QRHB9NZI45P11ZM33A","","null","<img src=""img/food3.png"" style=""width:200px; border:14px solid green;"">","null","","","","","","","","","",""
"","image-keyboard-response","317","258875","0.0-382.0","31LM9EDVOMEL1TA4LTGMI90K9LQJND","A2DURCYLFT9UDY","3JAOYN9IHLO1QRHB9NZI45P11ZM33A","","68.8999999994412","img/food1.png","75","71.5","2","1","2","2","1,0.7,0,1,0.7,0,0.7,0,1","0,1,0.7,0,1,0.7,1,0.7,0","3","false",""
"","html-keyboard-response","318","259179","0.0-383.0","31LM9EDVOMEL1TA4LTGMI90K9LQJND","A2DURCYLFT9UDY","3JAOYN9IHLO1QRHB9NZI45P11ZM33A","","null","<img src=""img/food1.png"" style=""width:200px; border:14px solid green;"">","null","","","","","","","","","",""
"","image-keyboard-response","319","259256","0.0-385.0","31LM9EDVOMEL1TA4LTGMI90K9LQJND","A2DURCYLFT9UDY","3JAOYN9IHLO1QRHB9NZI45P11ZM33A","","72.30000000074506","img/food1.png","75","74.90000000037253","2","1","2","2","1,0.7,0,1,0.7,0,0.7,0,1","0,1,0.7,0,1,0.7,1,0.7,0","3","false",""
"","html-keyboard-response","320","259559","0.0-386.0","31LM9EDVOMEL1TA4LTGMI90K9LQJND","A2DURCYLFT9UDY","3JAOYN9IHLO1QRHB9NZI45P11ZM33A","","null","<img src=""img/food1.png"" style=""width:200px; border:14px solid green;"">","null","","","","","","","","","",""
"","image-keyboard-response","321","259602","0.0-388.0","31LM9EDVOMEL1TA4LTGMI90K9LQJND","A2DURCYLFT9UDY","3JAOYN9IHLO1QRHB9NZI45P11ZM33A","","38.90000000037253","img/food1.png","75","41.5","2","1","2","2","1,0.7,0,1,0.7,0,0.7,0,1","0,1,0.7,0,1,0.7,1,0.7,0","3","false",""
"","html-keyboard-response","322","259905","0.0-389.0","31LM9EDVOMEL1TA4LTGMI90K9LQJND","A2DURCYLFT9UDY","3JAOYN9IHLO1QRHB9NZI45P11ZM33A","","null","<img src=""img/food1.png"" style=""width:200px; border:14px solid green;"">","null","","","","","","","","","",""
"","image-keyboard-response","323","259944","0.0-391.0","31LM9EDVOMEL1TA4LTGMI90K9LQJND","A2DURCYLFT9UDY","3JAOYN9IHLO1QRHB9NZI45P11ZM33A","","35.59999999962747","img/food2.png","75","38.10000000055879","2","1","1","2","1,0.7,0,1,0.7,0,0.7,0,1","0,1,0.7,0,1,0.7,1,0.7,0","3","false",""
"","html-keyboard-response","324","260247","0.0-392.0","31LM9EDVOMEL1TA4LTGMI90K9LQJND","A2DURCYLFT9UDY","3JAOYN9IHLO1QRHB9NZI45P11ZM33A","","null","<img src=""img/food2.png"" style=""width:200px; border:14px solid green;"">","null","","","","","","","","","",""
"","image-keyboard-response","325","260516","0.0-394.0","31LM9EDVOMEL1TA4LTGMI90K9LQJND","A2DURCYLFT9UDY","3JAOYN9IHLO1QRHB9NZI45P11ZM33A","","266.40000000037253","img/food3.png","75","268.3999999994412","2","1","3","2","1,0.7,0,1,0.7,0,0.7,0,1","0,1,0.7,0,1,0.7,1,0.7,0","3","false",""
"","html-keyboard-response","326","260819","0.0-395.0","31LM9EDVOMEL1TA4LTGMI90K9LQJND","A2DURCYLFT9UDY","3JAOYN9IHLO1QRHB9NZI45P11ZM33A","","null","<img src=""img/food3.png"" style=""width:200px; border:14px solid green;"">","null","","","","","","","","","",""
"","image-keyboard-response","327","260966","0.0-397.0","31LM9EDVOMEL1TA4LTGMI90K9LQJND","A2DURCYLFT9UDY","3JAOYN9IHLO1QRHB9NZI45P11ZM33A","","144.20000000018626","img/food1.png","75","146.19999999925494","2","1","2","2","1,0.7,0,1,0.7,0,0.7,0,1","0,1,0.7,0,1,0.7,1,0.7,0","3","false",""
"","html-keyboard-response","328","261270","0.0-398.0","31LM9EDVOMEL1TA4LTGMI90K9LQJND","A2DURCYLFT9UDY","3JAOYN9IHLO1QRHB9NZI45P11ZM33A","","null","<img src=""img/food1.png"" style=""width:200px; border:14px solid green;"">","null","","","","","","","","","",""
"","image-keyboard-response","329","261388","0.0-400.0","31LM9EDVOMEL1TA4LTGMI90K9LQJND","A2DURCYLFT9UDY","3JAOYN9IHLO1QRHB9NZI45P11ZM33A","","113.90000000037253","img/food3.png","75","116.40000000037253","2","1","3","2","1,0.7,0,1,0.7,0,0.7,0,1","0,1,0.7,0,1,0.7,1,0.7,0","3","false",""
"","html-keyboard-response","330","261691","0.0-401.0","31LM9EDVOMEL1TA4LTGMI90K9LQJND","A2DURCYLFT9UDY","3JAOYN9IHLO1QRHB9NZI45P11ZM33A","","null","<img src=""img/food3.png"" style=""width:200px; border:14px solid green;"">","null","","","","","","","","","",""
"","image-keyboard-response","331","261748","0.0-403.0","31LM9EDVOMEL1TA4LTGMI90K9LQJND","A2DURCYLFT9UDY","3JAOYN9IHLO1QRHB9NZI45P11ZM33A","","53.299999999813735","img/food1.png","75","56.60000000055879","2","1","2","2","1,0.7,0,1,0.7,0,0.7,0,1","0,1,0.7,0,1,0.7,1,0.7,0","3","false",""
"","html-keyboard-response","332","262053","0.0-404.0","31LM9EDVOMEL1TA4LTGMI90K9LQJND","A2DURCYLFT9UDY","3JAOYN9IHLO1QRHB9NZI45P11ZM33A","","null","<img src=""img/food1.png"" style=""width:200px; border:14px solid green;"">","null","","","","","","","","","",""
"","image-keyboard-response","333","262341","0.0-406.0","31LM9EDVOMEL1TA4LTGMI90K9LQJND","A2DURCYLFT9UDY","3JAOYN9IHLO1QRHB9NZI45P11ZM33A","","284.90000000037253","img/food3.png","75","287.20000000018626","2","1","3","2","1,0.7,0,1,0.7,0,0.7,0,1","0,1,0.7,0,1,0.7,1,0.7,0","3","false",""
"","html-keyboard-response","334","262645","0.0-407.0","31LM9EDVOMEL1TA4LTGMI90K9LQJND","A2DURCYLFT9UDY","3JAOYN9IHLO1QRHB9NZI45P11ZM33A","","null","<img src=""img/food3.png"" style=""width:200px; border:14px solid green;"">","null","","","","","","","","","",""
"","image-keyboard-response","335","262702","0.0-409.0","31LM9EDVOMEL1TA4LTGMI90K9LQJND","A2DURCYLFT9UDY","3JAOYN9IHLO1QRHB9NZI45P11ZM33A","","53.5","img/food2.png","75","56.10000000055879","2","1","1","2","1,0.7,0,1,0.7,0,0.7,0,1","0,1,0.7,0,1,0.7,1,0.7,0","3","false",""
"","html-keyboard-response","336","263006","0.0-410.0","31LM9EDVOMEL1TA4LTGMI90K9LQJND","A2DURCYLFT9UDY","3JAOYN9IHLO1QRHB9NZI45P11ZM33A","","null","<img src=""img/food2.png"" style=""width:200px; border:14px solid green;"">","null","","","","","","","","","",""
"","image-keyboard-response","337","263058","0.0-412.0","31LM9EDVOMEL1TA4LTGMI90K9LQJND","A2DURCYLFT9UDY","3JAOYN9IHLO1QRHB9NZI45P11ZM33A","","47.799999999813735","img/food1.png","75","50.5","2","1","2","2","1,0.7,0,1,0.7,0,0.7,0,1","0,1,0.7,0,1,0.7,1,0.7,0","3","false",""
"","html-keyboard-response","338","263361","0.0-413.0","31LM9EDVOMEL1TA4LTGMI90K9LQJND","A2DURCYLFT9UDY","3JAOYN9IHLO1QRHB9NZI45P11ZM33A","","null","<img src=""img/food1.png"" style=""width:200px; border:14px solid green;"">","null","","","","","","","","","",""
"","image-keyboard-response","339","263374","0.0-415.0","31LM9EDVOMEL1TA4LTGMI90K9LQJND","A2DURCYLFT9UDY","3JAOYN9IHLO1QRHB9NZI45P11ZM33A","","9.400000000372529","img/food2.png","75","11.900000000372529","2","1","1","2","1,0.7,0,1,0.7,0,0.7,0,1","0,1,0.7,0,1,0.7,1,0.7,0","3","false",""
"","html-keyboard-response","340","263677","0.0-416.0","31LM9EDVOMEL1TA4LTGMI90K9LQJND","A2DURCYLFT9UDY","3JAOYN9IHLO1QRHB9NZI45P11ZM33A","","null","<img src=""img/food2.png"" style=""width:200px; border:14px solid green;"">","null","","","","","","","","","",""
"","image-keyboard-response","341","263948","0.0-418.0","31LM9EDVOMEL1TA4LTGMI90K9LQJND","A2DURCYLFT9UDY","3JAOYN9IHLO1QRHB9NZI45P11ZM33A","","268.20000000018626","img/food3.png","75","270.90000000037253","2","0","3","2","1,0.7,0,1,0.7,0,0.7,0,1","0,1,0.7,0,1,0.7,1,0.7,0","3","false",""
"","html-keyboard-response","342","264254","0.0-419.0","31LM9EDVOMEL1TA4LTGMI90K9LQJND","A2DURCYLFT9UDY","3JAOYN9IHLO1QRHB9NZI45P11ZM33A","","null","<img src=""img/food3.png"" style=""width:200px;border:14px solid red;"">","null","","","","","","","","","",""
"","image-keyboard-response","343","264468","0.0-421.0","31LM9EDVOMEL1TA4LTGMI90K9LQJND","A2DURCYLFT9UDY","3JAOYN9IHLO1QRHB9NZI45P11ZM33A","","209.5","img/food3.png","75","212.20000000018626","2","1","3","2","1,0.7,0,1,0.7,0,0.7,0,1","0,1,0.7,0,1,0.7,1,0.7,0","3","false",""
"","html-keyboard-response","344","264772","0.0-422.0","31LM9EDVOMEL1TA4LTGMI90K9LQJND","A2DURCYLFT9UDY","3JAOYN9IHLO1QRHB9NZI45P11ZM33A","","null","<img src=""img/food3.png"" style=""width:200px; border:14px solid green;"">","null","","","","","","","","","",""
"","image-keyboard-response","345","264921","0.0-424.0","31LM9EDVOMEL1TA4LTGMI90K9LQJND","A2DURCYLFT9UDY","3JAOYN9IHLO1QRHB9NZI45P11ZM33A","","145","img/food3.png","75","147.90000000037253","2","1","3","2","1,0.7,0,1,0.7,0,0.7,0,1","0,1,0.7,0,1,0.7,1,0.7,0","3","false",""
"","html-keyboard-response","346","265226","0.0-425.0","31LM9EDVOMEL1TA4LTGMI90K9LQJND","A2DURCYLFT9UDY","3JAOYN9IHLO1QRHB9NZI45P11ZM33A","","null","<img src=""img/food3.png"" style=""width:200px; border:14px solid green;"">","null","","","","","","","","","",""
"","image-keyboard-response","347","265360","0.0-427.0","31LM9EDVOMEL1TA4LTGMI90K9LQJND","A2DURCYLFT9UDY","3JAOYN9IHLO1QRHB9NZI45P11ZM33A","","129.20000000018626","img/food1.png","75","132.19999999925494","2","1","2","2","1,0.7,0,1,0.7,0,0.7,0,1","0,1,0.7,0,1,0.7,1,0.7,0","3","false",""
"","html-keyboard-response","348","265665","0.0-428.0","31LM9EDVOMEL1TA4LTGMI90K9LQJND","A2DURCYLFT9UDY","3JAOYN9IHLO1QRHB9NZI45P11ZM33A","","null","<img src=""img/food1.png"" style=""width:200px; border:14px solid green;"">","null","","","","","","","","","",""
"","image-keyboard-response","349","265774","0.0-430.0","31LM9EDVOMEL1TA4LTGMI90K9LQJND","A2DURCYLFT9UDY","3JAOYN9IHLO1QRHB9NZI45P11ZM33A","","104.79999999981374","img/food3.png","75","107.3999999994412","2","1","3","2","1,0.7,0,1,0.7,0,0.7,0,1","0,1,0.7,0,1,0.7,1,0.7,0","3","false",""
"","html-keyboard-response","350","266079","0.0-431.0","31LM9EDVOMEL1TA4LTGMI90K9LQJND","A2DURCYLFT9UDY","3JAOYN9IHLO1QRHB9NZI45P11ZM33A","","null","<img src=""img/food3.png"" style=""width:200px; border:14px solid green;"">","null","","","","","","","","","",""
"","image-keyboard-response","351","266158","0.0-433.0","31LM9EDVOMEL1TA4LTGMI90K9LQJND","A2DURCYLFT9UDY","3JAOYN9IHLO1QRHB9NZI45P11ZM33A","","74.59999999962747","img/food3.png","75","77.40000000037253","2","1","3","2","1,0.7,0,1,0.7,0,0.7,0,1","0,1,0.7,0,1,0.7,1,0.7,0","3","false",""
"","html-keyboard-response","352","266463","0.0-434.0","31LM9EDVOMEL1TA4LTGMI90K9LQJND","A2DURCYLFT9UDY","3JAOYN9IHLO1QRHB9NZI45P11ZM33A","","null","<img src=""img/food3.png"" style=""width:200px; border:14px solid green;"">","null","","","","","","","","","",""
"","image-keyboard-response","353","266529","0.0-436.0","31LM9EDVOMEL1TA4LTGMI90K9LQJND","A2DURCYLFT9UDY","3JAOYN9IHLO1QRHB9NZI45P11ZM33A","","61.200000000186265","img/food1.png","75","64.40000000037253","2","1","2","2","1,0.7,0,1,0.7,0,0.7,0,1","0,1,0.7,0,1,0.7,1,0.7,0","3","false",""
"","html-keyboard-response","354","266834","0.0-437.0","31LM9EDVOMEL1TA4LTGMI90K9LQJND","A2DURCYLFT9UDY","3JAOYN9IHLO1QRHB9NZI45P11ZM33A","","null","<img src=""img/food1.png"" style=""width:200px; border:14px solid green;"">","null","","","","","","","","","",""
"","image-keyboard-response","355","266877","0.0-439.0","31LM9EDVOMEL1TA4LTGMI90K9LQJND","A2DURCYLFT9UDY","3JAOYN9IHLO1QRHB9NZI45P11ZM33A","","37.799999999813735","img/food2.png","75","40.80000000074506","2","1","1","2","1,0.7,0,1,0.7,0,0.7,0,1","0,1,0.7,0,1,0.7,1,0.7,0","3","false",""
"","html-keyboard-response","356","267181","0.0-440.0","31LM9EDVOMEL1TA4LTGMI90K9LQJND","A2DURCYLFT9UDY","3JAOYN9IHLO1QRHB9NZI45P11ZM33A","","null","<img src=""img/food2.png"" style=""width:200px; border:14px solid green;"">","null","","","","","","","","","",""
"","image-keyboard-response","357","267403","0.0-442.0","31LM9EDVOMEL1TA4LTGMI90K9LQJND","A2DURCYLFT9UDY","3JAOYN9IHLO1QRHB9NZI45P11ZM33A","","217.3999999994412","img/food1.png","75","219.90000000037253","2","1","2","2","1,0.7,0,1,0.7,0,0.7,0,1","0,1,0.7,0,1,0.7,1,0.7,0","3","false",""
"","html-keyboard-response","358","267707","0.0-443.0","31LM9EDVOMEL1TA4LTGMI90K9LQJND","A2DURCYLFT9UDY","3JAOYN9IHLO1QRHB9NZI45P11ZM33A","","null","<img src=""img/food1.png"" style=""width:200px; border:14px solid green;"">","null","","","","","","","","","",""
"","image-keyboard-response","359","267775","0.0-445.0","31LM9EDVOMEL1TA4LTGMI90K9LQJND","A2DURCYLFT9UDY","3JAOYN9IHLO1QRHB9NZI45P11ZM33A","","64.5","img/food2.png","75","67","2","1","1","2","1,0.7,0,1,0.7,0,0.7,0,1","0,1,0.7,0,1,0.7,1,0.7,0","3","false",""
"","html-keyboard-response","360","268079","0.0-446.0","31LM9EDVOMEL1TA4LTGMI90K9LQJND","A2DURCYLFT9UDY","3JAOYN9IHLO1QRHB9NZI45P11ZM33A","","null","<img src=""img/food2.png"" style=""width:200px; border:14px solid green;"">","null","","","","","","","","","",""
"","image-keyboard-response","361","268146","0.0-448.0","31LM9EDVOMEL1TA4LTGMI90K9LQJND","A2DURCYLFT9UDY","3JAOYN9IHLO1QRHB9NZI45P11ZM33A","","63.40000000037253","img/food1.png","75","65.70000000018626","2","1","2","2","1,0.7,0,1,0.7,0,0.7,0,1","0,1,0.7,0,1,0.7,1,0.7,0","3","false",""
"","html-keyboard-response","362","268449","0.0-449.0","31LM9EDVOMEL1TA4LTGMI90K9LQJND","A2DURCYLFT9UDY","3JAOYN9IHLO1QRHB9NZI45P11ZM33A","","null","<img src=""img/food1.png"" style=""width:200px; border:14px solid green;"">","null","","","","","","","","","",""
"","image-keyboard-response","363","268461","0.0-451.0","31LM9EDVOMEL1TA4LTGMI90K9LQJND","A2DURCYLFT9UDY","3JAOYN9IHLO1QRHB9NZI45P11ZM33A","","7.300000000745058","img/food2.png","75","9.799999999813735","2","1","1","2","1,0.7,0,1,0.7,0,0.7,0,1","0,1,0.7,0,1,0.7,1,0.7,0","3","false",""
"","html-keyboard-response","364","268765","0.0-452.0","31LM9EDVOMEL1TA4LTGMI90K9LQJND","A2DURCYLFT9UDY","3JAOYN9IHLO1QRHB9NZI45P11ZM33A","","null","<img src=""img/food2.png"" style=""width:200px; border:14px solid green;"">","null","","","","","","","","","",""
"","instructions","365","271661","0.0-454.0","31LM9EDVOMEL1TA4LTGMI90K9LQJND","A2DURCYLFT9UDY","3JAOYN9IHLO1QRHB9NZI45P11ZM33A","[{""page_index"":0,""viewing_time"":2892.2000000001863}]","2893.2999999998137","","","","","","","","","","","",""
"","survey-text","366","296771","0.0-455.0","31LM9EDVOMEL1TA4LTGMI90K9LQJND","A2DURCYLFT9UDY","3JAOYN9IHLO1QRHB9NZI45P11ZM33A","","25093.099999999627","","","","","","","","","","","","{""Q0"":""A2DURCYLFT9UDY""}"
