"success","trial_type","trial_index","time_elapsed","internal_node_id","assignmentID","mturkID","hitID","view_history","rt","stimulus","key_press","reactionTime","a","r","warning","s","cond","reward_cond","reward_cond_actual","reward_matrix_idx","responses"
"true","fullscreen","0","6720","0.0-0.0","3TXWC2NHN0CTBUP07D6VS9WN0SK9S8","A2EK1HDV4I4GSK","32XN26MTXZ5MP383W6LZYTLBY7P0LI","","","","","","","","","","","","","",""
"","instructions","1","51201","0.0-1.0","3TXWC2NHN0CTBUP07D6VS9WN0SK9S8","A2EK1HDV4I4GSK","32XN26MTXZ5MP383W6LZYTLBY7P0LI","[{""page_index"":0,""viewing_time"":10757.800000071526},{""page_index"":1,""viewing_time"":2155.2999999523163},{""page_index"":2,""viewing_time"":1023.7000000476837},{""page_index"":3,""viewing_time"":3614.1999999284744},{""page_index"":4,""viewing_time"":2252.4000000953674},{""page_index"":5,""viewing_time"":6145.699999928474},{""page_index"":6,""viewing_time"":18529.899999976158}]","44479.700000047684","","","","","","","","","","","",""
"","instructions","2","66356","0.0-2.0","3TXWC2NHN0CTBUP07D6VS9WN0SK9S8","A2EK1HDV4I4GSK","32XN26MTXZ5MP383W6LZYTLBY7P0LI","[{""page_index"":0,""viewing_time"":14064.899999976158},{""page_index"":1,""viewing_time"":1089.7000000476837}]","15154.799999952316","","","","","","","","","","","",""
"","image-keyboard-response","3","66828","0.0-3.0","3TXWC2NHN0CTBUP07D6VS9WN0SK9S8","A2EK1HDV4I4GSK","32XN26MTXZ5MP383W6LZYTLBY7P0LI","","470.3000000715256","img/food6.png","75","472","2","1","false","2","2","1,0.7,0,1,0.7,0,0.7,0,1","0,1,0.7,0,1,0.7,1,0.7,0","3",""
"","html-keyboard-response","4","67131","0.0-4.0","3TXWC2NHN0CTBUP07D6VS9WN0SK9S8","A2EK1HDV4I4GSK","32XN26MTXZ5MP383W6LZYTLBY7P0LI","","null","<img src=""img/food6.png"" style=""width:200px; border:14px solid green;"">","null","","","","","","","","","",""
"","image-keyboard-response","5","67489","0.0-6.0","3TXWC2NHN0CTBUP07D6VS9WN0SK9S8","A2EK1HDV4I4GSK","32XN26MTXZ5MP383W6LZYTLBY7P0LI","","355.2999999523163","img/food3.png","75","356.7000000476837","2","1","false","1","2","1,0.7,0,1,0.7,0,0.7,0,1","0,1,0.7,0,1,0.7,1,0.7,0","3",""
"","html-keyboard-response","6","67791","0.0-7.0","3TXWC2NHN0CTBUP07D6VS9WN0SK9S8","A2EK1HDV4I4GSK","32XN26MTXZ5MP383W6LZYTLBY7P0LI","","null","<img src=""img/food3.png"" style=""width:200px; border:14px solid green;"">","null","","","","","","","","","",""
"","image-keyboard-response","7","68138","0.0-9.0","3TXWC2NHN0CTBUP07D6VS9WN0SK9S8","A2EK1HDV4I4GSK","32XN26MTXZ5MP383W6LZYTLBY7P0LI","","344.10000002384186","img/food3.png","75","345.89999997615814","2","1","false","1","2","1,0.7,0,1,0.7,0,0.7,0,1","0,1,0.7,0,1,0.7,1,0.7,0","3",""
"","html-keyboard-response","8","68441","0.0-10.0","3TXWC2NHN0CTBUP07D6VS9WN0SK9S8","A2EK1HDV4I4GSK","32XN26MTXZ5MP383W6LZYTLBY7P0LI","","null","<img src=""img/food3.png"" style=""width:200px; border:14px solid green;"">","null","","","","","","","","","",""
"","image-keyboard-response","9","68753","0.0-12.0","3TXWC2NHN0CTBUP07D6VS9WN0SK9S8","A2EK1HDV4I4GSK","32XN26MTXZ5MP383W6LZYTLBY7P0LI","","310.3000000715256","img/food6.png","75","311.8000000715256","2","1","false","2","2","1,0.7,0,1,0.7,0,0.7,0,1","0,1,0.7,0,1,0.7,1,0.7,0","3",""
"","html-keyboard-response","10","69057","0.0-13.0","3TXWC2NHN0CTBUP07D6VS9WN0SK9S8","A2EK1HDV4I4GSK","32XN26MTXZ5MP383W6LZYTLBY7P0LI","","null","<img src=""img/food6.png"" style=""width:200px; border:14px solid green;"">","null","","","","","","","","","",""
"","image-keyboard-response","11","69385","0.0-15.0","3TXWC2NHN0CTBUP07D6VS9WN0SK9S8","A2EK1HDV4I4GSK","32XN26MTXZ5MP383W6LZYTLBY7P0LI","","327.7000000476837","img/food1.png","75","328.7000000476837","2","0","false","3","2","1,0.7,0,1,0.7,0,0.7,0,1","0,1,0.7,0,1,0.7,1,0.7,0","3",""
"","html-keyboard-response","12","69689","0.0-16.0","3TXWC2NHN0CTBUP07D6VS9WN0SK9S8","A2EK1HDV4I4GSK","32XN26MTXZ5MP383W6LZYTLBY7P0LI","","null","<img src=""img/food1.png"" style=""width:200px;border:14px solid red;"">","null","","","","","","","","","",""
"","image-keyboard-response","13","70177","0.0-18.0","3TXWC2NHN0CTBUP07D6VS9WN0SK9S8","A2EK1HDV4I4GSK","32XN26MTXZ5MP383W6LZYTLBY7P0LI","","485.90000009536743","img/food3.png","75","487.5","2","1","false","1","2","1,0.7,0,1,0.7,0,0.7,0,1","0,1,0.7,0,1,0.7,1,0.7,0","3",""
"","html-keyboard-response","14","70479","0.0-19.0","3TXWC2NHN0CTBUP07D6VS9WN0SK9S8","A2EK1HDV4I4GSK","32XN26MTXZ5MP383W6LZYTLBY7P0LI","","null","<img src=""img/food3.png"" style=""width:200px; border:14px solid green;"">","null","","","","","","","","","",""
"","image-keyboard-response","15","70777","0.0-21.0","3TXWC2NHN0CTBUP07D6VS9WN0SK9S8","A2EK1HDV4I4GSK","32XN26MTXZ5MP383W6LZYTLBY7P0LI","","295.39999997615814","img/food3.png","75","296.7999999523163","2","1","false","1","2","1,0.7,0,1,0.7,0,0.7,0,1","0,1,0.7,0,1,0.7,1,0.7,0","3",""
"","html-keyboard-response","16","71080","0.0-22.0","3TXWC2NHN0CTBUP07D6VS9WN0SK9S8","A2EK1HDV4I4GSK","32XN26MTXZ5MP383W6LZYTLBY7P0LI","","null","<img src=""img/food3.png"" style=""width:200px; border:14px solid green;"">","null","","","","","","","","","",""
"","image-keyboard-response","17","71401","0.0-24.0","3TXWC2NHN0CTBUP07D6VS9WN0SK9S8","A2EK1HDV4I4GSK","32XN26MTXZ5MP383W6LZYTLBY7P0LI","","319.10000002384186","img/food1.png","75","320.60000002384186","2","0","false","3","2","1,0.7,0,1,0.7,0,0.7,0,1","0,1,0.7,0,1,0.7,1,0.7,0","3",""
"","html-keyboard-response","18","71704","0.0-25.0","3TXWC2NHN0CTBUP07D6VS9WN0SK9S8","A2EK1HDV4I4GSK","32XN26MTXZ5MP383W6LZYTLBY7P0LI","","null","<img src=""img/food1.png"" style=""width:200px;border:14px solid red;"">","null","","","","","","","","","",""
"","image-keyboard-response","19","72033","0.0-27.0","3TXWC2NHN0CTBUP07D6VS9WN0SK9S8","A2EK1HDV4I4GSK","32XN26MTXZ5MP383W6LZYTLBY7P0LI","","327.10000002384186","img/food1.png","75","328.7000000476837","2","1","false","3","2","1,0.7,0,1,0.7,0,0.7,0,1","0,1,0.7,0,1,0.7,1,0.7,0","3",""
"","html-keyboard-response","20","72336","0.0-28.0","3TXWC2NHN0CTBUP07D6VS9WN0SK9S8","A2EK1HDV4I4GSK","32XN26MTXZ5MP383W6LZYTLBY7P0LI","","null","<img src=""img/food1.png"" style=""width:200px; border:14px solid green;"">","null","","","","","","","","","",""
"","image-keyboard-response","21","72617","0.0-30.0","3TXWC2NHN0CTBUP07D6VS9WN0SK9S8","A2EK1HDV4I4GSK","32XN26MTXZ5MP383W6LZYTLBY7P0LI","","280.2000000476837","img/food1.png","75","281.10000002384186","2","1","false","3","2","1,0.7,0,1,0.7,0,0.7,0,1","0,1,0.7,0,1,0.7,1,0.7,0","3",""
"","html-keyboard-response","22","72920","0.0-31.0","3TXWC2NHN0CTBUP07D6VS9WN0SK9S8","A2EK1HDV4I4GSK","32XN26MTXZ5MP383W6LZYTLBY7P0LI","","null","<img src=""img/food1.png"" style=""width:200px; border:14px solid green;"">","null","","","","","","","","","",""
"","image-keyboard-response","23","73176","0.0-33.0","3TXWC2NHN0CTBUP07D6VS9WN0SK9S8","A2EK1HDV4I4GSK","32XN26MTXZ5MP383W6LZYTLBY7P0LI","","253.70000004768372","img/food6.png","75","254.89999997615814","2","1","false","2","2","1,0.7,0,1,0.7,0,0.7,0,1","0,1,0.7,0,1,0.7,1,0.7,0","3",""
"","html-keyboard-response","24","73477","0.0-34.0","3TXWC2NHN0CTBUP07D6VS9WN0SK9S8","A2EK1HDV4I4GSK","32XN26MTXZ5MP383W6LZYTLBY7P0LI","","null","<img src=""img/food6.png"" style=""width:200px; border:14px solid green;"">","null","","","","","","","","","",""
"","image-keyboard-response","25","73745","0.0-36.0","3TXWC2NHN0CTBUP07D6VS9WN0SK9S8","A2EK1HDV4I4GSK","32XN26MTXZ5MP383W6LZYTLBY7P0LI","","267.2000000476837","img/food3.png","75","268.10000002384186","2","1","false","1","2","1,0.7,0,1,0.7,0,0.7,0,1","0,1,0.7,0,1,0.7,1,0.7,0","3",""
"","html-keyboard-response","26","74048","0.0-37.0","3TXWC2NHN0CTBUP07D6VS9WN0SK9S8","A2EK1HDV4I4GSK","32XN26MTXZ5MP383W6LZYTLBY7P0LI","","null","<img src=""img/food3.png"" style=""width:200px; border:14px solid green;"">","null","","","","","","","","","",""
"","image-keyboard-response","27","74337","0.0-39.0","3TXWC2NHN0CTBUP07D6VS9WN0SK9S8","A2EK1HDV4I4GSK","32XN26MTXZ5MP383W6LZYTLBY7P0LI","","286.8000000715256","img/food6.png","75","288.3000000715256","2","1","false","2","2","1,0.7,0,1,0.7,0,0.7,0,1","0,1,0.7,0,1,0.7,1,0.7,0","3",""
"","html-keyboard-response","28","74639","0.0-40.0","3TXWC2NHN0CTBUP07D6VS9WN0SK9S8","A2EK1HDV4I4GSK","32XN26MTXZ5MP383W6LZYTLBY7P0LI","","null","<img src=""img/food6.png"" style=""width:200px; border:14px solid green;"">","null","","","","","","","","","",""
"","image-keyboard-response","29","74865","0.0-42.0","3TXWC2NHN0CTBUP07D6VS9WN0SK9S8","A2EK1HDV4I4GSK","32XN26MTXZ5MP383W6LZYTLBY7P0LI","","223.89999997615814","img/food6.png","75","225.39999997615814","2","1","false","2","2","1,0.7,0,1,0.7,0,0.7,0,1","0,1,0.7,0,1,0.7,1,0.7,0","3",""
"","html-keyboard-response","30","75168","0.0-43.0","3TXWC2NHN0CTBUP07D6VS9WN0SK9S8","A2EK1HDV4I4GSK","32XN26MTXZ5MP383W6LZYTLBY7P0LI","","null","<img src=""img/food6.png"" style=""width:200px; border:14px solid green;"">","null","","","","","","","","","",""
"","image-keyboard-response","31","75392","0.0-45.0","3TXWC2NHN0CTBUP07D6VS9WN0SK9S8","A2EK1HDV4I4GSK","32XN26MTXZ5MP383W6LZYTLBY7P0LI","","222.89999997615814","img/food3.png","75","224","2","1","false","1","2","1,0.7,0,1,0.7,0,0.7,0,1","0,1,0.7,0,1,0.7,1,0.7,0","3",""
"","html-keyboard-response","32","75694","0.0-46.0","3TXWC2NHN0CTBUP07D6VS9WN0SK9S8","A2EK1HDV4I4GSK","32XN26MTXZ5MP383W6LZYTLBY7P0LI","","null","<img src=""img/food3.png"" style=""width:200px; border:14px solid green;"">","null","","","","","","","","","",""
"","image-keyboard-response","33","75960","0.0-48.0","3TXWC2NHN0CTBUP07D6VS9WN0SK9S8","A2EK1HDV4I4GSK","32XN26MTXZ5MP383W6LZYTLBY7P0LI","","264.3000000715256","img/food6.png","75","265.59999990463257","2","1","false","2","2","1,0.7,0,1,0.7,0,0.7,0,1","0,1,0.7,0,1,0.7,1,0.7,0","3",""
"","html-keyboard-response","34","76261","0.0-49.0","3TXWC2NHN0CTBUP07D6VS9WN0SK9S8","A2EK1HDV4I4GSK","32XN26MTXZ5MP383W6LZYTLBY7P0LI","","null","<img src=""img/food6.png"" style=""width:200px; border:14px solid green;"">","null","","","","","","","","","",""
"","image-keyboard-response","35","76513","0.0-51.0","3TXWC2NHN0CTBUP07D6VS9WN0SK9S8","A2EK1HDV4I4GSK","32XN26MTXZ5MP383W6LZYTLBY7P0LI","","249.79999995231628","img/food6.png","75","251.30000007152557","2","1","false","2","2","1,0.7,0,1,0.7,0,0.7,0,1","0,1,0.7,0,1,0.7,1,0.7,0","3",""
"","html-keyboard-response","36","76815","0.0-52.0","3TXWC2NHN0CTBUP07D6VS9WN0SK9S8","A2EK1HDV4I4GSK","32XN26MTXZ5MP383W6LZYTLBY7P0LI","","null","<img src=""img/food6.png"" style=""width:200px; border:14px solid green;"">","null","","","","","","","","","",""
"","image-keyboard-response","37","77041","0.0-54.0","3TXWC2NHN0CTBUP07D6VS9WN0SK9S8","A2EK1HDV4I4GSK","32XN26MTXZ5MP383W6LZYTLBY7P0LI","","224.10000002384186","img/food3.png","75","225.5","2","1","false","1","2","1,0.7,0,1,0.7,0,0.7,0,1","0,1,0.7,0,1,0.7,1,0.7,0","3",""
"","html-keyboard-response","38","77343","0.0-55.0","3TXWC2NHN0CTBUP07D6VS9WN0SK9S8","A2EK1HDV4I4GSK","32XN26MTXZ5MP383W6LZYTLBY7P0LI","","null","<img src=""img/food3.png"" style=""width:200px; border:14px solid green;"">","null","","","","","","","","","",""
"","image-keyboard-response","39","77625","0.0-57.0","3TXWC2NHN0CTBUP07D6VS9WN0SK9S8","A2EK1HDV4I4GSK","32XN26MTXZ5MP383W6LZYTLBY7P0LI","","280.6999999284744","img/food3.png","75","281.39999997615814","2","1","false","1","2","1,0.7,0,1,0.7,0,0.7,0,1","0,1,0.7,0,1,0.7,1,0.7,0","3",""
"","html-keyboard-response","40","77927","0.0-58.0","3TXWC2NHN0CTBUP07D6VS9WN0SK9S8","A2EK1HDV4I4GSK","32XN26MTXZ5MP383W6LZYTLBY7P0LI","","null","<img src=""img/food3.png"" style=""width:200px; border:14px solid green;"">","null","","","","","","","","","",""
"","image-keyboard-response","41","78185","0.0-60.0","3TXWC2NHN0CTBUP07D6VS9WN0SK9S8","A2EK1HDV4I4GSK","32XN26MTXZ5MP383W6LZYTLBY7P0LI","","256.7999999523163","img/food6.png","75","258.10000002384186","2","1","false","2","2","1,0.7,0,1,0.7,0,0.7,0,1","0,1,0.7,0,1,0.7,1,0.7,0","3",""
"","html-keyboard-response","42","78488","0.0-61.0","3TXWC2NHN0CTBUP07D6VS9WN0SK9S8","A2EK1HDV4I4GSK","32XN26MTXZ5MP383W6LZYTLBY7P0LI","","null","<img src=""img/food6.png"" style=""width:200px; border:14px solid green;"">","null","","","","","","","","","",""
"","image-keyboard-response","43","78752","0.0-63.0","3TXWC2NHN0CTBUP07D6VS9WN0SK9S8","A2EK1HDV4I4GSK","32XN26MTXZ5MP383W6LZYTLBY7P0LI","","261.6999999284744","img/food3.png","75","262.7999999523163","2","1","false","1","2","1,0.7,0,1,0.7,0,0.7,0,1","0,1,0.7,0,1,0.7,1,0.7,0","3",""
"","html-keyboard-response","44","79054","0.0-64.0","3TXWC2NHN0CTBUP07D6VS9WN0SK9S8","A2EK1HDV4I4GSK","32XN26MTXZ5MP383W6LZYTLBY7P0LI","","null","<img src=""img/food3.png"" style=""width:200px; border:14px solid green;"">","null","","","","","","","","","",""
"","image-keyboard-response","45","79297","0.0-66.0","3TXWC2NHN0CTBUP07D6VS9WN0SK9S8","A2EK1HDV4I4GSK","32XN26MTXZ5MP383W6LZYTLBY7P0LI","","240.90000009536743","img/food6.png","75","242.5","2","1","false","2","2","1,0.7,0,1,0.7,0,0.7,0,1","0,1,0.7,0,1,0.7,1,0.7,0","3",""
"","html-keyboard-response","46","79599","0.0-67.0","3TXWC2NHN0CTBUP07D6VS9WN0SK9S8","A2EK1HDV4I4GSK","32XN26MTXZ5MP383W6LZYTLBY7P0LI","","null","<img src=""img/food6.png"" style=""width:200px; border:14px solid green;"">","null","","","","","","","","","",""
"","image-keyboard-response","47","79866","0.0-69.0","3TXWC2NHN0CTBUP07D6VS9WN0SK9S8","A2EK1HDV4I4GSK","32XN26MTXZ5MP383W6LZYTLBY7P0LI","","263.5","img/food1.png","75","265.6999999284744","2","1","false","3","2","1,0.7,0,1,0.7,0,0.7,0,1","0,1,0.7,0,1,0.7,1,0.7,0","3",""
"","html-keyboard-response","48","80168","0.0-70.0","3TXWC2NHN0CTBUP07D6VS9WN0SK9S8","A2EK1HDV4I4GSK","32XN26MTXZ5MP383W6LZYTLBY7P0LI","","null","<img src=""img/food1.png"" style=""width:200px; border:14px solid green;"">","null","","","","","","","","","",""
"","image-keyboard-response","49","80401","0.0-72.0","3TXWC2NHN0CTBUP07D6VS9WN0SK9S8","A2EK1HDV4I4GSK","32XN26MTXZ5MP383W6LZYTLBY7P0LI","","230.29999995231628","img/food3.png","75","231.89999997615814","2","1","false","1","2","1,0.7,0,1,0.7,0,0.7,0,1","0,1,0.7,0,1,0.7,1,0.7,0","3",""
"","html-keyboard-response","50","80703","0.0-73.0","3TXWC2NHN0CTBUP07D6VS9WN0SK9S8","A2EK1HDV4I4GSK","32XN26MTXZ5MP383W6LZYTLBY7P0LI","","null","<img src=""img/food3.png"" style=""width:200px; border:14px solid green;"">","null","","","","","","","","","",""
"","image-keyboard-response","51","80921","0.0-75.0","3TXWC2NHN0CTBUP07D6VS9WN0SK9S8","A2EK1HDV4I4GSK","32XN26MTXZ5MP383W6LZYTLBY7P0LI","","215.89999997615814","img/food6.png","75","217.40000009536743","2","1","false","2","2","1,0.7,0,1,0.7,0,0.7,0,1","0,1,0.7,0,1,0.7,1,0.7,0","3",""
"","html-keyboard-response","52","81224","0.0-76.0","3TXWC2NHN0CTBUP07D6VS9WN0SK9S8","A2EK1HDV4I4GSK","32XN26MTXZ5MP383W6LZYTLBY7P0LI","","null","<img src=""img/food6.png"" style=""width:200px; border:14px solid green;"">","null","","","","","","","","","",""
"","image-keyboard-response","53","81472","0.0-78.0","3TXWC2NHN0CTBUP07D6VS9WN0SK9S8","A2EK1HDV4I4GSK","32XN26MTXZ5MP383W6LZYTLBY7P0LI","","245.69999992847443","img/food6.png","75","246.90000009536743","2","1","false","2","2","1,0.7,0,1,0.7,0,0.7,0,1","0,1,0.7,0,1,0.7,1,0.7,0","3",""
"","html-keyboard-response","54","81774","0.0-79.0","3TXWC2NHN0CTBUP07D6VS9WN0SK9S8","A2EK1HDV4I4GSK","32XN26MTXZ5MP383W6LZYTLBY7P0LI","","null","<img src=""img/food6.png"" style=""width:200px; border:14px solid green;"">","null","","","","","","","","","",""
"","image-keyboard-response","55","82001","0.0-81.0","3TXWC2NHN0CTBUP07D6VS9WN0SK9S8","A2EK1HDV4I4GSK","32XN26MTXZ5MP383W6LZYTLBY7P0LI","","225.20000004768372","img/food6.png","75","226.5","2","1","false","2","2","1,0.7,0,1,0.7,0,0.7,0,1","0,1,0.7,0,1,0.7,1,0.7,0","3",""
"","html-keyboard-response","56","82303","0.0-82.0","3TXWC2NHN0CTBUP07D6VS9WN0SK9S8","A2EK1HDV4I4GSK","32XN26MTXZ5MP383W6LZYTLBY7P0LI","","null","<img src=""img/food6.png"" style=""width:200px; border:14px solid green;"">","null","","","","","","","","","",""
"","image-keyboard-response","57","82529","0.0-84.0","3TXWC2NHN0CTBUP07D6VS9WN0SK9S8","A2EK1HDV4I4GSK","32XN26MTXZ5MP383W6LZYTLBY7P0LI","","222.89999997615814","img/food3.png","75","224.5","2","1","false","1","2","1,0.7,0,1,0.7,0,0.7,0,1","0,1,0.7,0,1,0.7,1,0.7,0","3",""
"","html-keyboard-response","58","82832","0.0-85.0","3TXWC2NHN0CTBUP07D6VS9WN0SK9S8","A2EK1HDV4I4GSK","32XN26MTXZ5MP383W6LZYTLBY7P0LI","","null","<img src=""img/food3.png"" style=""width:200px; border:14px solid green;"">","null","","","","","","","","","",""
"","image-keyboard-response","59","83081","0.0-87.0","3TXWC2NHN0CTBUP07D6VS9WN0SK9S8","A2EK1HDV4I4GSK","32XN26MTXZ5MP383W6LZYTLBY7P0LI","","248.29999995231628","img/food1.png","75","249.30000007152557","2","0","false","3","2","1,0.7,0,1,0.7,0,0.7,0,1","0,1,0.7,0,1,0.7,1,0.7,0","3",""
"","html-keyboard-response","60","83384","0.0-88.0","3TXWC2NHN0CTBUP07D6VS9WN0SK9S8","A2EK1HDV4I4GSK","32XN26MTXZ5MP383W6LZYTLBY7P0LI","","null","<img src=""img/food1.png"" style=""width:200px;border:14px solid red;"">","null","","","","","","","","","",""
"","image-keyboard-response","61","83641","0.0-90.0","3TXWC2NHN0CTBUP07D6VS9WN0SK9S8","A2EK1HDV4I4GSK","32XN26MTXZ5MP383W6LZYTLBY7P0LI","","255.10000002384186","img/food1.png","75","256.5","2","0","false","3","2","1,0.7,0,1,0.7,0,0.7,0,1","0,1,0.7,0,1,0.7,1,0.7,0","3",""
"","html-keyboard-response","62","83944","0.0-91.0","3TXWC2NHN0CTBUP07D6VS9WN0SK9S8","A2EK1HDV4I4GSK","32XN26MTXZ5MP383W6LZYTLBY7P0LI","","null","<img src=""img/food1.png"" style=""width:200px;border:14px solid red;"">","null","","","","","","","","","",""
"","image-keyboard-response","63","84153","0.0-93.0","3TXWC2NHN0CTBUP07D6VS9WN0SK9S8","A2EK1HDV4I4GSK","32XN26MTXZ5MP383W6LZYTLBY7P0LI","","207.39999997615814","img/food1.png","75","208.89999997615814","2","1","false","3","2","1,0.7,0,1,0.7,0,0.7,0,1","0,1,0.7,0,1,0.7,1,0.7,0","3",""
"","html-keyboard-response","64","84456","0.0-94.0","3TXWC2NHN0CTBUP07D6VS9WN0SK9S8","A2EK1HDV4I4GSK","32XN26MTXZ5MP383W6LZYTLBY7P0LI","","null","<img src=""img/food1.png"" style=""width:200px; border:14px solid green;"">","null","","","","","","","","","",""
"","image-keyboard-response","65","84713","0.0-96.0","3TXWC2NHN0CTBUP07D6VS9WN0SK9S8","A2EK1HDV4I4GSK","32XN26MTXZ5MP383W6LZYTLBY7P0LI","","255.20000004768372","img/food6.png","75","256.39999997615814","2","1","false","2","2","1,0.7,0,1,0.7,0,0.7,0,1","0,1,0.7,0,1,0.7,1,0.7,0","3",""
"","html-keyboard-response","66","85016","0.0-97.0","3TXWC2NHN0CTBUP07D6VS9WN0SK9S8","A2EK1HDV4I4GSK","32XN26MTXZ5MP383W6LZYTLBY7P0LI","","null","<img src=""img/food6.png"" style=""width:200px; border:14px solid green;"">","null","","","","","","","","","",""
"","image-keyboard-response","67","85265","0.0-99.0","3TXWC2NHN0CTBUP07D6VS9WN0SK9S8","A2EK1HDV4I4GSK","32XN26MTXZ5MP383W6LZYTLBY7P0LI","","247.29999995231628","img/food6.png","75","248.80000007152557","2","1","false","2","2","1,0.7,0,1,0.7,0,0.7,0,1","0,1,0.7,0,1,0.7,1,0.7,0","3",""
"","html-keyboard-response","68","85568","0.0-100.0","3TXWC2NHN0CTBUP07D6VS9WN0SK9S8","A2EK1HDV4I4GSK","32XN26MTXZ5MP383W6LZYTLBY7P0LI","","null","<img src=""img/food6.png"" style=""width:200px; border:14px solid green;"">","null","","","","","","","","","",""
"","image-keyboard-response","69","85801","0.0-102.0","3TXWC2NHN0CTBUP07D6VS9WN0SK9S8","A2EK1HDV4I4GSK","32XN26MTXZ5MP383W6LZYTLBY7P0LI","","232.39999997615814","img/food1.png","75","233.39999997615814","2","0","false","3","2","1,0.7,0,1,0.7,0,0.7,0,1","0,1,0.7,0,1,0.7,1,0.7,0","3",""
"","html-keyboard-response","70","86104","0.0-103.0","3TXWC2NHN0CTBUP07D6VS9WN0SK9S8","A2EK1HDV4I4GSK","32XN26MTXZ5MP383W6LZYTLBY7P0LI","","null","<img src=""img/food1.png"" style=""width:200px;border:14px solid red;"">","null","","","","","","","","","",""
"","image-keyboard-response","71","86313","0.0-105.0","3TXWC2NHN0CTBUP07D6VS9WN0SK9S8","A2EK1HDV4I4GSK","32XN26MTXZ5MP383W6LZYTLBY7P0LI","","206.69999992847443","img/food3.png","75","208.30000007152557","2","1","false","1","2","1,0.7,0,1,0.7,0,0.7,0,1","0,1,0.7,0,1,0.7,1,0.7,0","3",""
"","html-keyboard-response","72","86616","0.0-106.0","3TXWC2NHN0CTBUP07D6VS9WN0SK9S8","A2EK1HDV4I4GSK","32XN26MTXZ5MP383W6LZYTLBY7P0LI","","null","<img src=""img/food3.png"" style=""width:200px; border:14px solid green;"">","null","","","","","","","","","",""
"","image-keyboard-response","73","86842","0.0-108.0","3TXWC2NHN0CTBUP07D6VS9WN0SK9S8","A2EK1HDV4I4GSK","32XN26MTXZ5MP383W6LZYTLBY7P0LI","","223.79999995231628","img/food6.png","75","225.30000007152557","2","1","false","2","2","1,0.7,0,1,0.7,0,0.7,0,1","0,1,0.7,0,1,0.7,1,0.7,0","3",""
"","html-keyboard-response","74","87145","0.0-109.0","3TXWC2NHN0CTBUP07D6VS9WN0SK9S8","A2EK1HDV4I4GSK","32XN26MTXZ5MP383W6LZYTLBY7P0LI","","null","<img src=""img/food6.png"" style=""width:200px; border:14px solid green;"">","null","","","","","","","","","",""
"","image-keyboard-response","75","87377","0.0-111.0","3TXWC2NHN0CTBUP07D6VS9WN0SK9S8","A2EK1HDV4I4GSK","32XN26MTXZ5MP383W6LZYTLBY7P0LI","","230.20000004768372","img/food3.png","75","231.80000007152557","2","1","false","1","2","1,0.7,0,1,0.7,0,0.7,0,1","0,1,0.7,0,1,0.7,1,0.7,0","3",""
"","html-keyboard-response","76","87680","0.0-112.0","3TXWC2NHN0CTBUP07D6VS9WN0SK9S8","A2EK1HDV4I4GSK","32XN26MTXZ5MP383W6LZYTLBY7P0LI","","null","<img src=""img/food3.png"" style=""width:200px; border:14px solid green;"">","null","","","","","","","","","",""
"","image-keyboard-response","77","87952","0.0-114.0","3TXWC2NHN0CTBUP07D6VS9WN0SK9S8","A2EK1HDV4I4GSK","32XN26MTXZ5MP383W6LZYTLBY7P0LI","","270.6999999284744","img/food1.png","75","272","2","1","false","3","2","1,0.7,0,1,0.7,0,0.7,0,1","0,1,0.7,0,1,0.7,1,0.7,0","3",""
"","html-keyboard-response","78","88255","0.0-115.0","3TXWC2NHN0CTBUP07D6VS9WN0SK9S8","A2EK1HDV4I4GSK","32XN26MTXZ5MP383W6LZYTLBY7P0LI","","null","<img src=""img/food1.png"" style=""width:200px; border:14px solid green;"">","null","","","","","","","","","",""
"","image-keyboard-response","79","88433","0.0-117.0","3TXWC2NHN0CTBUP07D6VS9WN0SK9S8","A2EK1HDV4I4GSK","32XN26MTXZ5MP383W6LZYTLBY7P0LI","","176.19999992847443","img/food1.png","75","177.70000004768372","2","1","false","3","2","1,0.7,0,1,0.7,0,0.7,0,1","0,1,0.7,0,1,0.7,1,0.7,0","3",""
"","html-keyboard-response","80","88736","0.0-118.0","3TXWC2NHN0CTBUP07D6VS9WN0SK9S8","A2EK1HDV4I4GSK","32XN26MTXZ5MP383W6LZYTLBY7P0LI","","null","<img src=""img/food1.png"" style=""width:200px; border:14px solid green;"">","null","","","","","","","","","",""
"","image-keyboard-response","81","88897","0.0-120.0","3TXWC2NHN0CTBUP07D6VS9WN0SK9S8","A2EK1HDV4I4GSK","32XN26MTXZ5MP383W6LZYTLBY7P0LI","","159.39999997615814","img/food3.png","75","160.80000007152557","2","1","false","1","2","1,0.7,0,1,0.7,0,0.7,0,1","0,1,0.7,0,1,0.7,1,0.7,0","3",""
"","html-keyboard-response","82","89200","0.0-121.0","3TXWC2NHN0CTBUP07D6VS9WN0SK9S8","A2EK1HDV4I4GSK","32XN26MTXZ5MP383W6LZYTLBY7P0LI","","null","<img src=""img/food3.png"" style=""width:200px; border:14px solid green;"">","null","","","","","","","","","",""
"","image-keyboard-response","83","89400","0.0-123.0","3TXWC2NHN0CTBUP07D6VS9WN0SK9S8","A2EK1HDV4I4GSK","32XN26MTXZ5MP383W6LZYTLBY7P0LI","","198.30000007152557","img/food3.png","75","199.39999997615814","2","1","false","1","2","1,0.7,0,1,0.7,0,0.7,0,1","0,1,0.7,0,1,0.7,1,0.7,0","3",""
"","html-keyboard-response","84","89703","0.0-124.0","3TXWC2NHN0CTBUP07D6VS9WN0SK9S8","A2EK1HDV4I4GSK","32XN26MTXZ5MP383W6LZYTLBY7P0LI","","null","<img src=""img/food3.png"" style=""width:200px; border:14px solid green;"">","null","","","","","","","","","",""
"","image-keyboard-response","85","89889","0.0-126.0","3TXWC2NHN0CTBUP07D6VS9WN0SK9S8","A2EK1HDV4I4GSK","32XN26MTXZ5MP383W6LZYTLBY7P0LI","","184.39999997615814","img/food1.png","75","185.80000007152557","2","1","false","3","2","1,0.7,0,1,0.7,0,0.7,0,1","0,1,0.7,0,1,0.7,1,0.7,0","3",""
"","html-keyboard-response","86","90192","0.0-127.0","3TXWC2NHN0CTBUP07D6VS9WN0SK9S8","A2EK1HDV4I4GSK","32XN26MTXZ5MP383W6LZYTLBY7P0LI","","null","<img src=""img/food1.png"" style=""width:200px; border:14px solid green;"">","null","","","","","","","","","",""
"","image-keyboard-response","87","90361","0.0-129.0","3TXWC2NHN0CTBUP07D6VS9WN0SK9S8","A2EK1HDV4I4GSK","32XN26MTXZ5MP383W6LZYTLBY7P0LI","","167.20000004768372","img/food1.png","75","168.70000004768372","2","1","false","3","2","1,0.7,0,1,0.7,0,0.7,0,1","0,1,0.7,0,1,0.7,1,0.7,0","3",""
"","html-keyboard-response","88","90664","0.0-130.0","3TXWC2NHN0CTBUP07D6VS9WN0SK9S8","A2EK1HDV4I4GSK","32XN26MTXZ5MP383W6LZYTLBY7P0LI","","null","<img src=""img/food1.png"" style=""width:200px; border:14px solid green;"">","null","","","","","","","","","",""
"","image-keyboard-response","89","90832","0.0-132.0","3TXWC2NHN0CTBUP07D6VS9WN0SK9S8","A2EK1HDV4I4GSK","32XN26MTXZ5MP383W6LZYTLBY7P0LI","","166","img/food6.png","75","167.40000009536743","2","1","false","2","2","1,0.7,0,1,0.7,0,0.7,0,1","0,1,0.7,0,1,0.7,1,0.7,0","3",""
"","html-keyboard-response","90","91134","0.0-133.0","3TXWC2NHN0CTBUP07D6VS9WN0SK9S8","A2EK1HDV4I4GSK","32XN26MTXZ5MP383W6LZYTLBY7P0LI","","null","<img src=""img/food6.png"" style=""width:200px; border:14px solid green;"">","null","","","","","","","","","",""
"","image-keyboard-response","91","91313","0.0-135.0","3TXWC2NHN0CTBUP07D6VS9WN0SK9S8","A2EK1HDV4I4GSK","32XN26MTXZ5MP383W6LZYTLBY7P0LI","","177.29999995231628","img/food6.png","75","178.80000007152557","2","1","false","2","2","1,0.7,0,1,0.7,0,0.7,0,1","0,1,0.7,0,1,0.7,1,0.7,0","3",""
"","html-keyboard-response","92","91616","0.0-136.0","3TXWC2NHN0CTBUP07D6VS9WN0SK9S8","A2EK1HDV4I4GSK","32XN26MTXZ5MP383W6LZYTLBY7P0LI","","null","<img src=""img/food6.png"" style=""width:200px; border:14px solid green;"">","null","","","","","","","","","",""
"","image-keyboard-response","93","91761","0.0-138.0","3TXWC2NHN0CTBUP07D6VS9WN0SK9S8","A2EK1HDV4I4GSK","32XN26MTXZ5MP383W6LZYTLBY7P0LI","","142.89999997615814","img/food6.png","75","144.5","2","1","false","2","2","1,0.7,0,1,0.7,0,0.7,0,1","0,1,0.7,0,1,0.7,1,0.7,0","3",""
"","html-keyboard-response","94","92064","0.0-139.0","3TXWC2NHN0CTBUP07D6VS9WN0SK9S8","A2EK1HDV4I4GSK","32XN26MTXZ5MP383W6LZYTLBY7P0LI","","null","<img src=""img/food6.png"" style=""width:200px; border:14px solid green;"">","null","","","","","","","","","",""
"","image-keyboard-response","95","92233","0.0-141.0","3TXWC2NHN0CTBUP07D6VS9WN0SK9S8","A2EK1HDV4I4GSK","32XN26MTXZ5MP383W6LZYTLBY7P0LI","","166.79999995231628","img/food1.png","75","168.39999997615814","2","1","false","3","2","1,0.7,0,1,0.7,0,0.7,0,1","0,1,0.7,0,1,0.7,1,0.7,0","3",""
"","html-keyboard-response","96","92536","0.0-142.0","3TXWC2NHN0CTBUP07D6VS9WN0SK9S8","A2EK1HDV4I4GSK","32XN26MTXZ5MP383W6LZYTLBY7P0LI","","null","<img src=""img/food1.png"" style=""width:200px; border:14px solid green;"">","null","","","","","","","","","",""
"","image-keyboard-response","97","92673","0.0-144.0","3TXWC2NHN0CTBUP07D6VS9WN0SK9S8","A2EK1HDV4I4GSK","32XN26MTXZ5MP383W6LZYTLBY7P0LI","","135.89999997615814","img/food6.png","75","137.09999990463257","2","1","false","2","2","1,0.7,0,1,0.7,0,0.7,0,1","0,1,0.7,0,1,0.7,1,0.7,0","3",""
"","html-keyboard-response","98","92976","0.0-145.0","3TXWC2NHN0CTBUP07D6VS9WN0SK9S8","A2EK1HDV4I4GSK","32XN26MTXZ5MP383W6LZYTLBY7P0LI","","null","<img src=""img/food6.png"" style=""width:200px; border:14px solid green;"">","null","","","","","","","","","",""
"","image-keyboard-response","99","93121","0.0-147.0","3TXWC2NHN0CTBUP07D6VS9WN0SK9S8","A2EK1HDV4I4GSK","32XN26MTXZ5MP383W6LZYTLBY7P0LI","","143","img/food1.png","75","144.60000002384186","2","1","false","3","2","1,0.7,0,1,0.7,0,0.7,0,1","0,1,0.7,0,1,0.7,1,0.7,0","3",""
"","html-keyboard-response","100","93423","0.0-148.0","3TXWC2NHN0CTBUP07D6VS9WN0SK9S8","A2EK1HDV4I4GSK","32XN26MTXZ5MP383W6LZYTLBY7P0LI","","null","<img src=""img/food1.png"" style=""width:200px; border:14px solid green;"">","null","","","","","","","","","",""
"","image-keyboard-response","101","93617","0.0-150.0","3TXWC2NHN0CTBUP07D6VS9WN0SK9S8","A2EK1HDV4I4GSK","32XN26MTXZ5MP383W6LZYTLBY7P0LI","","191.60000002384186","img/food1.png","75","192.89999997615814","2","1","false","3","2","1,0.7,0,1,0.7,0,0.7,0,1","0,1,0.7,0,1,0.7,1,0.7,0","3",""
"","html-keyboard-response","102","93919","0.0-151.0","3TXWC2NHN0CTBUP07D6VS9WN0SK9S8","A2EK1HDV4I4GSK","32XN26MTXZ5MP383W6LZYTLBY7P0LI","","null","<img src=""img/food1.png"" style=""width:200px; border:14px solid green;"">","null","","","","","","","","","",""
"","image-keyboard-response","103","94129","0.0-153.0","3TXWC2NHN0CTBUP07D6VS9WN0SK9S8","A2EK1HDV4I4GSK","32XN26MTXZ5MP383W6LZYTLBY7P0LI","","208.90000009536743","img/food1.png","75","209.89999997615814","2","1","false","3","2","1,0.7,0,1,0.7,0,0.7,0,1","0,1,0.7,0,1,0.7,1,0.7,0","3",""
"","html-keyboard-response","104","94431","0.0-154.0","3TXWC2NHN0CTBUP07D6VS9WN0SK9S8","A2EK1HDV4I4GSK","32XN26MTXZ5MP383W6LZYTLBY7P0LI","","null","<img src=""img/food1.png"" style=""width:200px; border:14px solid green;"">","null","","","","","","","","","",""
"","image-keyboard-response","105","94609","0.0-156.0","3TXWC2NHN0CTBUP07D6VS9WN0SK9S8","A2EK1HDV4I4GSK","32XN26MTXZ5MP383W6LZYTLBY7P0LI","","175.39999997615814","img/food1.png","75","176.79999995231628","2","1","false","3","2","1,0.7,0,1,0.7,0,0.7,0,1","0,1,0.7,0,1,0.7,1,0.7,0","3",""
"","html-keyboard-response","106","94912","0.0-157.0","3TXWC2NHN0CTBUP07D6VS9WN0SK9S8","A2EK1HDV4I4GSK","32XN26MTXZ5MP383W6LZYTLBY7P0LI","","null","<img src=""img/food1.png"" style=""width:200px; border:14px solid green;"">","null","","","","","","","","","",""
"","image-keyboard-response","107","95113","0.0-159.0","3TXWC2NHN0CTBUP07D6VS9WN0SK9S8","A2EK1HDV4I4GSK","32XN26MTXZ5MP383W6LZYTLBY7P0LI","","199.60000002384186","img/food6.png","75","201.10000002384186","2","1","false","2","2","1,0.7,0,1,0.7,0,0.7,0,1","0,1,0.7,0,1,0.7,1,0.7,0","3",""
"","html-keyboard-response","108","95416","0.0-160.0","3TXWC2NHN0CTBUP07D6VS9WN0SK9S8","A2EK1HDV4I4GSK","32XN26MTXZ5MP383W6LZYTLBY7P0LI","","null","<img src=""img/food6.png"" style=""width:200px; border:14px solid green;"">","null","","","","","","","","","",""
"","image-keyboard-response","109","95593","0.0-162.0","3TXWC2NHN0CTBUP07D6VS9WN0SK9S8","A2EK1HDV4I4GSK","32XN26MTXZ5MP383W6LZYTLBY7P0LI","","175","img/food6.png","75","176.29999995231628","2","1","false","2","2","1,0.7,0,1,0.7,0,0.7,0,1","0,1,0.7,0,1,0.7,1,0.7,0","3",""
"","html-keyboard-response","110","95895","0.0-163.0","3TXWC2NHN0CTBUP07D6VS9WN0SK9S8","A2EK1HDV4I4GSK","32XN26MTXZ5MP383W6LZYTLBY7P0LI","","null","<img src=""img/food6.png"" style=""width:200px; border:14px solid green;"">","null","","","","","","","","","",""
"","image-keyboard-response","111","96057","0.0-165.0","3TXWC2NHN0CTBUP07D6VS9WN0SK9S8","A2EK1HDV4I4GSK","32XN26MTXZ5MP383W6LZYTLBY7P0LI","","160.69999992847443","img/food3.png","75","162.30000007152557","2","1","false","1","2","1,0.7,0,1,0.7,0,0.7,0,1","0,1,0.7,0,1,0.7,1,0.7,0","3",""
"","html-keyboard-response","112","96360","0.0-166.0","3TXWC2NHN0CTBUP07D6VS9WN0SK9S8","A2EK1HDV4I4GSK","32XN26MTXZ5MP383W6LZYTLBY7P0LI","","null","<img src=""img/food3.png"" style=""width:200px; border:14px solid green;"">","null","","","","","","","","","",""
"","image-keyboard-response","113","96561","0.0-168.0","3TXWC2NHN0CTBUP07D6VS9WN0SK9S8","A2EK1HDV4I4GSK","32XN26MTXZ5MP383W6LZYTLBY7P0LI","","199.10000002384186","img/food3.png","75","200.5","2","1","false","1","2","1,0.7,0,1,0.7,0,0.7,0,1","0,1,0.7,0,1,0.7,1,0.7,0","3",""
"","html-keyboard-response","114","96864","0.0-169.0","3TXWC2NHN0CTBUP07D6VS9WN0SK9S8","A2EK1HDV4I4GSK","32XN26MTXZ5MP383W6LZYTLBY7P0LI","","null","<img src=""img/food3.png"" style=""width:200px; border:14px solid green;"">","null","","","","","","","","","",""
"","image-keyboard-response","115","97017","0.0-171.0","3TXWC2NHN0CTBUP07D6VS9WN0SK9S8","A2EK1HDV4I4GSK","32XN26MTXZ5MP383W6LZYTLBY7P0LI","","151.20000004768372","img/food1.png","75","152.70000004768372","2","1","false","3","2","1,0.7,0,1,0.7,0,0.7,0,1","0,1,0.7,0,1,0.7,1,0.7,0","3",""
"","html-keyboard-response","116","97319","0.0-172.0","3TXWC2NHN0CTBUP07D6VS9WN0SK9S8","A2EK1HDV4I4GSK","32XN26MTXZ5MP383W6LZYTLBY7P0LI","","null","<img src=""img/food1.png"" style=""width:200px; border:14px solid green;"">","null","","","","","","","","","",""
"","image-keyboard-response","117","97490","0.0-174.0","3TXWC2NHN0CTBUP07D6VS9WN0SK9S8","A2EK1HDV4I4GSK","32XN26MTXZ5MP383W6LZYTLBY7P0LI","","169","img/food1.png","75","170.39999997615814","2","1","false","3","2","1,0.7,0,1,0.7,0,0.7,0,1","0,1,0.7,0,1,0.7,1,0.7,0","3",""
"","html-keyboard-response","118","97793","0.0-175.0","3TXWC2NHN0CTBUP07D6VS9WN0SK9S8","A2EK1HDV4I4GSK","32XN26MTXZ5MP383W6LZYTLBY7P0LI","","null","<img src=""img/food1.png"" style=""width:200px; border:14px solid green;"">","null","","","","","","","","","",""
"","image-keyboard-response","119","97913","0.0-177.0","3TXWC2NHN0CTBUP07D6VS9WN0SK9S8","A2EK1HDV4I4GSK","32XN26MTXZ5MP383W6LZYTLBY7P0LI","","118.79999995231628","img/food6.png","75","119.70000004768372","2","1","false","2","2","1,0.7,0,1,0.7,0,0.7,0,1","0,1,0.7,0,1,0.7,1,0.7,0","3",""
"","html-keyboard-response","120","98218","0.0-178.0","3TXWC2NHN0CTBUP07D6VS9WN0SK9S8","A2EK1HDV4I4GSK","32XN26MTXZ5MP383W6LZYTLBY7P0LI","","null","<img src=""img/food6.png"" style=""width:200px; border:14px solid green;"">","null","","","","","","","","","",""
"","image-keyboard-response","121","98472","0.0-180.0","3TXWC2NHN0CTBUP07D6VS9WN0SK9S8","A2EK1HDV4I4GSK","32XN26MTXZ5MP383W6LZYTLBY7P0LI","","251.80000007152557","img/food3.png","75","253","2","1","false","1","2","1,0.7,0,1,0.7,0,0.7,0,1","0,1,0.7,0,1,0.7,1,0.7,0","3",""
"","html-keyboard-response","122","98773","0.0-181.0","3TXWC2NHN0CTBUP07D6VS9WN0SK9S8","A2EK1HDV4I4GSK","32XN26MTXZ5MP383W6LZYTLBY7P0LI","","null","<img src=""img/food3.png"" style=""width:200px; border:14px solid green;"">","null","","","","","","","","","",""
"","image-keyboard-response","123","98937","0.0-183.0","3TXWC2NHN0CTBUP07D6VS9WN0SK9S8","A2EK1HDV4I4GSK","32XN26MTXZ5MP383W6LZYTLBY7P0LI","","161.30000007152557","img/food1.png","75","163.10000002384186","2","1","false","3","2","1,0.7,0,1,0.7,0,0.7,0,1","0,1,0.7,0,1,0.7,1,0.7,0","3",""
"","html-keyboard-response","124","99240","0.0-184.0","3TXWC2NHN0CTBUP07D6VS9WN0SK9S8","A2EK1HDV4I4GSK","32XN26MTXZ5MP383W6LZYTLBY7P0LI","","null","<img src=""img/food1.png"" style=""width:200px; border:14px solid green;"">","null","","","","","","","","","",""
"","image-keyboard-response","125","99353","0.0-186.0","3TXWC2NHN0CTBUP07D6VS9WN0SK9S8","A2EK1HDV4I4GSK","32XN26MTXZ5MP383W6LZYTLBY7P0LI","","110.69999992847443","img/food3.png","75","112.10000002384186","2","1","false","1","2","1,0.7,0,1,0.7,0,0.7,0,1","0,1,0.7,0,1,0.7,1,0.7,0","3",""
"","html-keyboard-response","126","99655","0.0-187.0","3TXWC2NHN0CTBUP07D6VS9WN0SK9S8","A2EK1HDV4I4GSK","32XN26MTXZ5MP383W6LZYTLBY7P0LI","","null","<img src=""img/food3.png"" style=""width:200px; border:14px solid green;"">","null","","","","","","","","","",""
"","image-keyboard-response","127","99809","0.0-189.0","3TXWC2NHN0CTBUP07D6VS9WN0SK9S8","A2EK1HDV4I4GSK","32XN26MTXZ5MP383W6LZYTLBY7P0LI","","152.29999995231628","img/food3.png","75","153.89999997615814","2","1","false","1","2","1,0.7,0,1,0.7,0,0.7,0,1","0,1,0.7,0,1,0.7,1,0.7,0","3",""
"","html-keyboard-response","128","100112","0.0-190.0","3TXWC2NHN0CTBUP07D6VS9WN0SK9S8","A2EK1HDV4I4GSK","32XN26MTXZ5MP383W6LZYTLBY7P0LI","","null","<img src=""img/food3.png"" style=""width:200px; border:14px solid green;"">","null","","","","","","","","","",""
"","image-keyboard-response","129","100257","0.0-192.0","3TXWC2NHN0CTBUP07D6VS9WN0SK9S8","A2EK1HDV4I4GSK","32XN26MTXZ5MP383W6LZYTLBY7P0LI","","143.20000004768372","img/food3.png","75","144.60000002384186","2","1","false","1","2","1,0.7,0,1,0.7,0,0.7,0,1","0,1,0.7,0,1,0.7,1,0.7,0","3",""
"","html-keyboard-response","130","100560","0.0-193.0","3TXWC2NHN0CTBUP07D6VS9WN0SK9S8","A2EK1HDV4I4GSK","32XN26MTXZ5MP383W6LZYTLBY7P0LI","","null","<img src=""img/food3.png"" style=""width:200px; border:14px solid green;"">","null","","","","","","","","","",""
"","image-keyboard-response","131","100729","0.0-195.0","3TXWC2NHN0CTBUP07D6VS9WN0SK9S8","A2EK1HDV4I4GSK","32XN26MTXZ5MP383W6LZYTLBY7P0LI","","167.20000004768372","img/food1.png","75","168.89999997615814","2","1","false","3","2","1,0.7,0,1,0.7,0,0.7,0,1","0,1,0.7,0,1,0.7,1,0.7,0","3",""
"","html-keyboard-response","132","101032","0.0-196.0","3TXWC2NHN0CTBUP07D6VS9WN0SK9S8","A2EK1HDV4I4GSK","32XN26MTXZ5MP383W6LZYTLBY7P0LI","","null","<img src=""img/food1.png"" style=""width:200px; border:14px solid green;"">","null","","","","","","","","","",""
"","image-keyboard-response","133","101153","0.0-198.0","3TXWC2NHN0CTBUP07D6VS9WN0SK9S8","A2EK1HDV4I4GSK","32XN26MTXZ5MP383W6LZYTLBY7P0LI","","118.60000002384186","img/food6.png","75","120.10000002384186","2","1","false","2","2","1,0.7,0,1,0.7,0,0.7,0,1","0,1,0.7,0,1,0.7,1,0.7,0","3",""
"","html-keyboard-response","134","101461","0.0-199.0","3TXWC2NHN0CTBUP07D6VS9WN0SK9S8","A2EK1HDV4I4GSK","32XN26MTXZ5MP383W6LZYTLBY7P0LI","","null","<img src=""img/food6.png"" style=""width:200px; border:14px solid green;"">","null","","","","","","","","","",""
"","image-keyboard-response","135","101577","0.0-201.0","3TXWC2NHN0CTBUP07D6VS9WN0SK9S8","A2EK1HDV4I4GSK","32XN26MTXZ5MP383W6LZYTLBY7P0LI","","114.29999995231628","img/food3.png","75","115.90000009536743","2","1","false","1","2","1,0.7,0,1,0.7,0,0.7,0,1","0,1,0.7,0,1,0.7,1,0.7,0","3",""
"","html-keyboard-response","136","101880","0.0-202.0","3TXWC2NHN0CTBUP07D6VS9WN0SK9S8","A2EK1HDV4I4GSK","32XN26MTXZ5MP383W6LZYTLBY7P0LI","","null","<img src=""img/food3.png"" style=""width:200px; border:14px solid green;"">","null","","","","","","","","","",""
"","image-keyboard-response","137","101976","0.0-204.0","3TXWC2NHN0CTBUP07D6VS9WN0SK9S8","A2EK1HDV4I4GSK","32XN26MTXZ5MP383W6LZYTLBY7P0LI","","94.29999995231628","img/food3.png","75","95.5","2","1","false","1","2","1,0.7,0,1,0.7,0,0.7,0,1","0,1,0.7,0,1,0.7,1,0.7,0","3",""
"","html-keyboard-response","138","102277","0.0-205.0","3TXWC2NHN0CTBUP07D6VS9WN0SK9S8","A2EK1HDV4I4GSK","32XN26MTXZ5MP383W6LZYTLBY7P0LI","","null","<img src=""img/food3.png"" style=""width:200px; border:14px solid green;"">","null","","","","","","","","","",""
"","image-keyboard-response","139","102409","0.0-207.0","3TXWC2NHN0CTBUP07D6VS9WN0SK9S8","A2EK1HDV4I4GSK","32XN26MTXZ5MP383W6LZYTLBY7P0LI","","130.60000002384186","img/food3.png","75","131.60000002384186","2","1","false","1","2","1,0.7,0,1,0.7,0,0.7,0,1","0,1,0.7,0,1,0.7,1,0.7,0","3",""
"","html-keyboard-response","140","102712","0.0-208.0","3TXWC2NHN0CTBUP07D6VS9WN0SK9S8","A2EK1HDV4I4GSK","32XN26MTXZ5MP383W6LZYTLBY7P0LI","","null","<img src=""img/food3.png"" style=""width:200px; border:14px solid green;"">","null","","","","","","","","","",""
"","image-keyboard-response","141","102872","0.0-210.0","3TXWC2NHN0CTBUP07D6VS9WN0SK9S8","A2EK1HDV4I4GSK","32XN26MTXZ5MP383W6LZYTLBY7P0LI","","159.10000002384186","img/food1.png","75","160.39999997615814","2","1","false","3","2","1,0.7,0,1,0.7,0,0.7,0,1","0,1,0.7,0,1,0.7,1,0.7,0","3",""
"","html-keyboard-response","142","103175","0.0-211.0","3TXWC2NHN0CTBUP07D6VS9WN0SK9S8","A2EK1HDV4I4GSK","32XN26MTXZ5MP383W6LZYTLBY7P0LI","","null","<img src=""img/food1.png"" style=""width:200px; border:14px solid green;"">","null","","","","","","","","","",""
"","image-keyboard-response","143","103313","0.0-213.0","3TXWC2NHN0CTBUP07D6VS9WN0SK9S8","A2EK1HDV4I4GSK","32XN26MTXZ5MP383W6LZYTLBY7P0LI","","135.79999995231628","img/food3.png","75","137.30000007152557","2","1","false","1","2","1,0.7,0,1,0.7,0,0.7,0,1","0,1,0.7,0,1,0.7,1,0.7,0","3",""
"","html-keyboard-response","144","103616","0.0-214.0","3TXWC2NHN0CTBUP07D6VS9WN0SK9S8","A2EK1HDV4I4GSK","32XN26MTXZ5MP383W6LZYTLBY7P0LI","","null","<img src=""img/food3.png"" style=""width:200px; border:14px solid green;"">","null","","","","","","","","","",""
"","image-keyboard-response","145","103713","0.0-216.0","3TXWC2NHN0CTBUP07D6VS9WN0SK9S8","A2EK1HDV4I4GSK","32XN26MTXZ5MP383W6LZYTLBY7P0LI","","95.10000002384186","img/food1.png","75","96.60000002384186","2","1","false","3","2","1,0.7,0,1,0.7,0,0.7,0,1","0,1,0.7,0,1,0.7,1,0.7,0","3",""
"","html-keyboard-response","146","104016","0.0-217.0","3TXWC2NHN0CTBUP07D6VS9WN0SK9S8","A2EK1HDV4I4GSK","32XN26MTXZ5MP383W6LZYTLBY7P0LI","","null","<img src=""img/food1.png"" style=""width:200px; border:14px solid green;"">","null","","","","","","","","","",""
"","image-keyboard-response","147","104161","0.0-219.0","3TXWC2NHN0CTBUP07D6VS9WN0SK9S8","A2EK1HDV4I4GSK","32XN26MTXZ5MP383W6LZYTLBY7P0LI","","142.69999992847443","img/food6.png","75","144.20000004768372","2","1","false","2","2","1,0.7,0,1,0.7,0,0.7,0,1","0,1,0.7,0,1,0.7,1,0.7,0","3",""
"","html-keyboard-response","148","104464","0.0-220.0","3TXWC2NHN0CTBUP07D6VS9WN0SK9S8","A2EK1HDV4I4GSK","32XN26MTXZ5MP383W6LZYTLBY7P0LI","","null","<img src=""img/food6.png"" style=""width:200px; border:14px solid green;"">","null","","","","","","","","","",""
"","image-keyboard-response","149","104585","0.0-222.0","3TXWC2NHN0CTBUP07D6VS9WN0SK9S8","A2EK1HDV4I4GSK","32XN26MTXZ5MP383W6LZYTLBY7P0LI","","119.20000004768372","img/food3.png","75","120.70000004768372","2","1","false","1","2","1,0.7,0,1,0.7,0,0.7,0,1","0,1,0.7,0,1,0.7,1,0.7,0","3",""
"","html-keyboard-response","150","104887","0.0-223.0","3TXWC2NHN0CTBUP07D6VS9WN0SK9S8","A2EK1HDV4I4GSK","32XN26MTXZ5MP383W6LZYTLBY7P0LI","","null","<img src=""img/food3.png"" style=""width:200px; border:14px solid green;"">","null","","","","","","","","","",""
"","image-keyboard-response","151","105017","0.0-225.0","3TXWC2NHN0CTBUP07D6VS9WN0SK9S8","A2EK1HDV4I4GSK","32XN26MTXZ5MP383W6LZYTLBY7P0LI","","127.60000002384186","img/food1.png","75","129.10000002384186","2","0","false","3","2","1,0.7,0,1,0.7,0,0.7,0,1","0,1,0.7,0,1,0.7,1,0.7,0","3",""
"","html-keyboard-response","152","105320","0.0-226.0","3TXWC2NHN0CTBUP07D6VS9WN0SK9S8","A2EK1HDV4I4GSK","32XN26MTXZ5MP383W6LZYTLBY7P0LI","","null","<img src=""img/food1.png"" style=""width:200px;border:14px solid red;"">","null","","","","","","","","","",""
"","image-keyboard-response","153","105385","0.0-228.0","3TXWC2NHN0CTBUP07D6VS9WN0SK9S8","A2EK1HDV4I4GSK","32XN26MTXZ5MP383W6LZYTLBY7P0LI","","63.199999928474426","img/food3.png","75","64.60000002384186","2","1","false","1","2","1,0.7,0,1,0.7,0,0.7,0,1","0,1,0.7,0,1,0.7,1,0.7,0","3",""
"","html-keyboard-response","154","105688","0.0-229.0","3TXWC2NHN0CTBUP07D6VS9WN0SK9S8","A2EK1HDV4I4GSK","32XN26MTXZ5MP383W6LZYTLBY7P0LI","","null","<img src=""img/food3.png"" style=""width:200px; border:14px solid green;"">","null","","","","","","","","","",""
"","image-keyboard-response","155","105761","0.0-231.0","3TXWC2NHN0CTBUP07D6VS9WN0SK9S8","A2EK1HDV4I4GSK","32XN26MTXZ5MP383W6LZYTLBY7P0LI","","70.79999995231628","img/food6.png","75","72.30000007152557","2","1","false","2","2","1,0.7,0,1,0.7,0,0.7,0,1","0,1,0.7,0,1,0.7,1,0.7,0","3",""
"","html-keyboard-response","156","106063","0.0-232.0","3TXWC2NHN0CTBUP07D6VS9WN0SK9S8","A2EK1HDV4I4GSK","32XN26MTXZ5MP383W6LZYTLBY7P0LI","","null","<img src=""img/food6.png"" style=""width:200px; border:14px solid green;"">","null","","","","","","","","","",""
"","image-keyboard-response","157","106106","0.0-234.0","3TXWC2NHN0CTBUP07D6VS9WN0SK9S8","A2EK1HDV4I4GSK","32XN26MTXZ5MP383W6LZYTLBY7P0LI","","40","img/food6.png","75","41.700000047683716","2","1","false","2","2","1,0.7,0,1,0.7,0,0.7,0,1","0,1,0.7,0,1,0.7,1,0.7,0","3",""
"","html-keyboard-response","158","106408","0.0-235.0","3TXWC2NHN0CTBUP07D6VS9WN0SK9S8","A2EK1HDV4I4GSK","32XN26MTXZ5MP383W6LZYTLBY7P0LI","","null","<img src=""img/food6.png"" style=""width:200px; border:14px solid green;"">","null","","","","","","","","","",""
"","image-keyboard-response","159","106473","0.0-237.0","3TXWC2NHN0CTBUP07D6VS9WN0SK9S8","A2EK1HDV4I4GSK","32XN26MTXZ5MP383W6LZYTLBY7P0LI","","62.700000047683716","img/food1.png","75","64.10000002384186","2","1","false","3","2","1,0.7,0,1,0.7,0,0.7,0,1","0,1,0.7,0,1,0.7,1,0.7,0","3",""
"","html-keyboard-response","160","106776","0.0-238.0","3TXWC2NHN0CTBUP07D6VS9WN0SK9S8","A2EK1HDV4I4GSK","32XN26MTXZ5MP383W6LZYTLBY7P0LI","","null","<img src=""img/food1.png"" style=""width:200px; border:14px solid green;"">","null","","","","","","","","","",""
"","image-keyboard-response","161","106824","0.0-240.0","3TXWC2NHN0CTBUP07D6VS9WN0SK9S8","A2EK1HDV4I4GSK","32XN26MTXZ5MP383W6LZYTLBY7P0LI","","46.5","img/food1.png","75","47.699999928474426","2","1","false","3","2","1,0.7,0,1,0.7,0,0.7,0,1","0,1,0.7,0,1,0.7,1,0.7,0","3",""
"","html-keyboard-response","162","107137","0.0-241.0","3TXWC2NHN0CTBUP07D6VS9WN0SK9S8","A2EK1HDV4I4GSK","32XN26MTXZ5MP383W6LZYTLBY7P0LI","","null","<img src=""img/food1.png"" style=""width:200px; border:14px solid green;"">","null","","","","","","","","","",""
"","image-keyboard-response","163","107176","0.0-243.0","3TXWC2NHN0CTBUP07D6VS9WN0SK9S8","A2EK1HDV4I4GSK","32XN26MTXZ5MP383W6LZYTLBY7P0LI","","38","img/food6.png","75","38.700000047683716","2","1","false","2","2","1,0.7,0,1,0.7,0,0.7,0,1","0,1,0.7,0,1,0.7,1,0.7,0","3",""
"","html-keyboard-response","164","107477","0.0-244.0","3TXWC2NHN0CTBUP07D6VS9WN0SK9S8","A2EK1HDV4I4GSK","32XN26MTXZ5MP383W6LZYTLBY7P0LI","","null","<img src=""img/food6.png"" style=""width:200px; border:14px solid green;"">","null","","","","","","","","","",""
"","image-keyboard-response","165","107537","0.0-246.0","3TXWC2NHN0CTBUP07D6VS9WN0SK9S8","A2EK1HDV4I4GSK","32XN26MTXZ5MP383W6LZYTLBY7P0LI","","58.5","img/food1.png","75","59.5","2","0","false","3","2","1,0.7,0,1,0.7,0,0.7,0,1","0,1,0.7,0,1,0.7,1,0.7,0","3",""
"","html-keyboard-response","166","107840","0.0-247.0","3TXWC2NHN0CTBUP07D6VS9WN0SK9S8","A2EK1HDV4I4GSK","32XN26MTXZ5MP383W6LZYTLBY7P0LI","","null","<img src=""img/food1.png"" style=""width:200px;border:14px solid red;"">","null","","","","","","","","","",""
"","image-keyboard-response","167","107889","0.0-249.0","3TXWC2NHN0CTBUP07D6VS9WN0SK9S8","A2EK1HDV4I4GSK","32XN26MTXZ5MP383W6LZYTLBY7P0LI","","46.700000047683716","img/food3.png","75","48.200000047683716","2","1","false","1","2","1,0.7,0,1,0.7,0,0.7,0,1","0,1,0.7,0,1,0.7,1,0.7,0","3",""
"","html-keyboard-response","168","108192","0.0-250.0","3TXWC2NHN0CTBUP07D6VS9WN0SK9S8","A2EK1HDV4I4GSK","32XN26MTXZ5MP383W6LZYTLBY7P0LI","","null","<img src=""img/food3.png"" style=""width:200px; border:14px solid green;"">","null","","","","","","","","","",""
"","image-keyboard-response","169","108241","0.0-252.0","3TXWC2NHN0CTBUP07D6VS9WN0SK9S8","A2EK1HDV4I4GSK","32XN26MTXZ5MP383W6LZYTLBY7P0LI","","46.89999997615814","img/food6.png","75","48.700000047683716","2","1","false","2","2","1,0.7,0,1,0.7,0,0.7,0,1","0,1,0.7,0,1,0.7,1,0.7,0","3",""
"","html-keyboard-response","170","108544","0.0-253.0","3TXWC2NHN0CTBUP07D6VS9WN0SK9S8","A2EK1HDV4I4GSK","32XN26MTXZ5MP383W6LZYTLBY7P0LI","","null","<img src=""img/food6.png"" style=""width:200px; border:14px solid green;"">","null","","","","","","","","","",""
"","image-keyboard-response","171","108609","0.0-255.0","3TXWC2NHN0CTBUP07D6VS9WN0SK9S8","A2EK1HDV4I4GSK","32XN26MTXZ5MP383W6LZYTLBY7P0LI","","62.800000071525574","img/food3.png","75","64.39999997615814","2","1","false","1","2","1,0.7,0,1,0.7,0,0.7,0,1","0,1,0.7,0,1,0.7,1,0.7,0","3",""
"","html-keyboard-response","172","108911","0.0-256.0","3TXWC2NHN0CTBUP07D6VS9WN0SK9S8","A2EK1HDV4I4GSK","32XN26MTXZ5MP383W6LZYTLBY7P0LI","","null","<img src=""img/food3.png"" style=""width:200px; border:14px solid green;"">","null","","","","","","","","","",""
"","image-keyboard-response","173","108969","0.0-258.0","3TXWC2NHN0CTBUP07D6VS9WN0SK9S8","A2EK1HDV4I4GSK","32XN26MTXZ5MP383W6LZYTLBY7P0LI","","55.89999997615814","img/food6.png","75","57.40000009536743","2","1","false","2","2","1,0.7,0,1,0.7,0,0.7,0,1","0,1,0.7,0,1,0.7,1,0.7,0","3",""
"","html-keyboard-response","174","109272","0.0-259.0","3TXWC2NHN0CTBUP07D6VS9WN0SK9S8","A2EK1HDV4I4GSK","32XN26MTXZ5MP383W6LZYTLBY7P0LI","","null","<img src=""img/food6.png"" style=""width:200px; border:14px solid green;"">","null","","","","","","","","","",""
"","image-keyboard-response","175","109314","0.0-261.0","3TXWC2NHN0CTBUP07D6VS9WN0SK9S8","A2EK1HDV4I4GSK","32XN26MTXZ5MP383W6LZYTLBY7P0LI","","40","img/food6.png","75","41.5","2","1","false","2","2","1,0.7,0,1,0.7,0,0.7,0,1","0,1,0.7,0,1,0.7,1,0.7,0","3",""
"","html-keyboard-response","176","109616","0.0-262.0","3TXWC2NHN0CTBUP07D6VS9WN0SK9S8","A2EK1HDV4I4GSK","32XN26MTXZ5MP383W6LZYTLBY7P0LI","","null","<img src=""img/food6.png"" style=""width:200px; border:14px solid green;"">","null","","","","","","","","","",""
"","image-keyboard-response","177","109697","0.0-264.0","3TXWC2NHN0CTBUP07D6VS9WN0SK9S8","A2EK1HDV4I4GSK","32XN26MTXZ5MP383W6LZYTLBY7P0LI","","78.70000004768372","img/food1.png","75","80","2","1","false","3","2","1,0.7,0,1,0.7,0,0.7,0,1","0,1,0.7,0,1,0.7,1,0.7,0","3",""
"","html-keyboard-response","178","110000","0.0-265.0","3TXWC2NHN0CTBUP07D6VS9WN0SK9S8","A2EK1HDV4I4GSK","32XN26MTXZ5MP383W6LZYTLBY7P0LI","","null","<img src=""img/food1.png"" style=""width:200px; border:14px solid green;"">","null","","","","","","","","","",""
"","image-keyboard-response","179","110057","0.0-267.0","3TXWC2NHN0CTBUP07D6VS9WN0SK9S8","A2EK1HDV4I4GSK","32XN26MTXZ5MP383W6LZYTLBY7P0LI","","55.39999997615814","img/food1.png","75","56.700000047683716","2","1","false","3","2","1,0.7,0,1,0.7,0,0.7,0,1","0,1,0.7,0,1,0.7,1,0.7,0","3",""
"","html-keyboard-response","180","110360","0.0-268.0","3TXWC2NHN0CTBUP07D6VS9WN0SK9S8","A2EK1HDV4I4GSK","32XN26MTXZ5MP383W6LZYTLBY7P0LI","","null","<img src=""img/food1.png"" style=""width:200px; border:14px solid green;"">","null","","","","","","","","","",""
"","image-keyboard-response","181","110369","0.0-270.0","3TXWC2NHN0CTBUP07D6VS9WN0SK9S8","A2EK1HDV4I4GSK","32XN26MTXZ5MP383W6LZYTLBY7P0LI","","7.600000023841858","img/food3.png","75","8.800000071525574","2","1","false","1","2","1,0.7,0,1,0.7,0,0.7,0,1","0,1,0.7,0,1,0.7,1,0.7,0","3",""
"","html-keyboard-response","182","110672","0.0-271.0","3TXWC2NHN0CTBUP07D6VS9WN0SK9S8","A2EK1HDV4I4GSK","32XN26MTXZ5MP383W6LZYTLBY7P0LI","","null","<img src=""img/food3.png"" style=""width:200px; border:14px solid green;"">","null","","","","","","","","","",""
"","instructions","183","129858","0.0-273.0","3TXWC2NHN0CTBUP07D6VS9WN0SK9S8","A2EK1HDV4I4GSK","32XN26MTXZ5MP383W6LZYTLBY7P0LI","[{""page_index"":0,""viewing_time"":18134.700000047684},{""page_index"":1,""viewing_time"":1050.1999999284744}]","19185","","","","","","","","","","","",""
"","image-keyboard-response","184","130480","0.0-274.0","3TXWC2NHN0CTBUP07D6VS9WN0SK9S8","A2EK1HDV4I4GSK","32XN26MTXZ5MP383W6LZYTLBY7P0LI","","621.5999999046326","img/food2.png","75","622.9000000953674","2","1","","1","1","1,0.7,0,1,0.7,0,0.7,0,1","0,1,0.7,0,1,0.7,1,0.7,0","3",""
"","html-keyboard-response","185","130784","0.0-275.0","3TXWC2NHN0CTBUP07D6VS9WN0SK9S8","A2EK1HDV4I4GSK","32XN26MTXZ5MP383W6LZYTLBY7P0LI","","null","<img src=""img/food2.png"" style=""width:200px; border:14px solid green;"">","null","","","","","","","","","",""
"","image-keyboard-response","186","131121","0.0-276.0","3TXWC2NHN0CTBUP07D6VS9WN0SK9S8","A2EK1HDV4I4GSK","32XN26MTXZ5MP383W6LZYTLBY7P0LI","","335.10000002384186","img/food2.png","75","336.60000002384186","2","1","","1","1","1,0.7,0,1,0.7,0,0.7,0,1","0,1,0.7,0,1,0.7,1,0.7,0","3",""
"","html-keyboard-response","187","131424","0.0-277.0","3TXWC2NHN0CTBUP07D6VS9WN0SK9S8","A2EK1HDV4I4GSK","32XN26MTXZ5MP383W6LZYTLBY7P0LI","","null","<img src=""img/food2.png"" style=""width:200px; border:14px solid green;"">","null","","","","","","","","","",""
"","image-keyboard-response","188","131937","0.0-278.0","3TXWC2NHN0CTBUP07D6VS9WN0SK9S8","A2EK1HDV4I4GSK","32XN26MTXZ5MP383W6LZYTLBY7P0LI","","511.2000000476837","img/food2.png","75","512.8999999761581","2","1","","1","1","1,0.7,0,1,0.7,0,0.7,0,1","0,1,0.7,0,1,0.7,1,0.7,0","3",""
"","html-keyboard-response","189","132240","0.0-279.0","3TXWC2NHN0CTBUP07D6VS9WN0SK9S8","A2EK1HDV4I4GSK","32XN26MTXZ5MP383W6LZYTLBY7P0LI","","null","<img src=""img/food2.png"" style=""width:200px; border:14px solid green;"">","null","","","","","","","","","",""
"","image-keyboard-response","190","132753","0.0-280.0","3TXWC2NHN0CTBUP07D6VS9WN0SK9S8","A2EK1HDV4I4GSK","32XN26MTXZ5MP383W6LZYTLBY7P0LI","","511.10000002384186","img/food4.png","75","512.7000000476837","2","1","","2","1","1,0.7,0,1,0.7,0,0.7,0,1","0,1,0.7,0,1,0.7,1,0.7,0","3",""
"","html-keyboard-response","191","133056","0.0-281.0","3TXWC2NHN0CTBUP07D6VS9WN0SK9S8","A2EK1HDV4I4GSK","32XN26MTXZ5MP383W6LZYTLBY7P0LI","","null","<img src=""img/food4.png"" style=""width:200px; border:14px solid green;"">","null","","","","","","","","","",""
"","image-keyboard-response","192","133625","0.0-282.0","3TXWC2NHN0CTBUP07D6VS9WN0SK9S8","A2EK1HDV4I4GSK","32XN26MTXZ5MP383W6LZYTLBY7P0LI","","566.8999999761581","img/food2.png","75","568.4000000953674","2","1","","1","1","1,0.7,0,1,0.7,0,0.7,0,1","0,1,0.7,0,1,0.7,1,0.7,0","3",""
"","html-keyboard-response","193","133929","0.0-283.0","3TXWC2NHN0CTBUP07D6VS9WN0SK9S8","A2EK1HDV4I4GSK","32XN26MTXZ5MP383W6LZYTLBY7P0LI","","null","<img src=""img/food2.png"" style=""width:200px; border:14px solid green;"">","null","","","","","","","","","",""
"","image-keyboard-response","194","134457","0.0-284.0","3TXWC2NHN0CTBUP07D6VS9WN0SK9S8","A2EK1HDV4I4GSK","32XN26MTXZ5MP383W6LZYTLBY7P0LI","","526.1000000238419","img/food4.png","75","527.5","2","1","","2","1","1,0.7,0,1,0.7,0,0.7,0,1","0,1,0.7,0,1,0.7,1,0.7,0","3",""
"","html-keyboard-response","195","134760","0.0-285.0","3TXWC2NHN0CTBUP07D6VS9WN0SK9S8","A2EK1HDV4I4GSK","32XN26MTXZ5MP383W6LZYTLBY7P0LI","","null","<img src=""img/food4.png"" style=""width:200px; border:14px solid green;"">","null","","","","","","","","","",""
"","image-keyboard-response","196","135297","0.0-286.0","3TXWC2NHN0CTBUP07D6VS9WN0SK9S8","A2EK1HDV4I4GSK","32XN26MTXZ5MP383W6LZYTLBY7P0LI","","534.8999999761581","img/food2.png","75","536.5","2","1","","1","1","1,0.7,0,1,0.7,0,0.7,0,1","0,1,0.7,0,1,0.7,1,0.7,0","3",""
"","html-keyboard-response","197","135599","0.0-287.0","3TXWC2NHN0CTBUP07D6VS9WN0SK9S8","A2EK1HDV4I4GSK","32XN26MTXZ5MP383W6LZYTLBY7P0LI","","null","<img src=""img/food2.png"" style=""width:200px; border:14px solid green;"">","null","","","","","","","","","",""
"","image-keyboard-response","198","136128","0.0-288.0","3TXWC2NHN0CTBUP07D6VS9WN0SK9S8","A2EK1HDV4I4GSK","32XN26MTXZ5MP383W6LZYTLBY7P0LI","","526.8999999761581","img/food5.png","75","528.3999999761581","2","0","","3","1","1,0.7,0,1,0.7,0,0.7,0,1","0,1,0.7,0,1,0.7,1,0.7,0","3",""
"","html-keyboard-response","199","136431","0.0-289.0","3TXWC2NHN0CTBUP07D6VS9WN0SK9S8","A2EK1HDV4I4GSK","32XN26MTXZ5MP383W6LZYTLBY7P0LI","","null","<img src=""img/food5.png"" style=""width:200px;border:14px solid red;"">","null","","","","","","","","","",""
"","image-keyboard-response","200","136928","0.0-290.0","3TXWC2NHN0CTBUP07D6VS9WN0SK9S8","A2EK1HDV4I4GSK","32XN26MTXZ5MP383W6LZYTLBY7P0LI","","495.3000000715256","img/food5.png","75","496.7999999523163","2","0","","3","1","1,0.7,0,1,0.7,0,0.7,0,1","0,1,0.7,0,1,0.7,1,0.7,0","3",""
"","html-keyboard-response","201","137231","0.0-291.0","3TXWC2NHN0CTBUP07D6VS9WN0SK9S8","A2EK1HDV4I4GSK","32XN26MTXZ5MP383W6LZYTLBY7P0LI","","null","<img src=""img/food5.png"" style=""width:200px;border:14px solid red;"">","null","","","","","","","","","",""
"","image-keyboard-response","202","137753","0.0-292.0","3TXWC2NHN0CTBUP07D6VS9WN0SK9S8","A2EK1HDV4I4GSK","32XN26MTXZ5MP383W6LZYTLBY7P0LI","","519.8999999761581","img/food5.png","75","521.3000000715256","2","1","","3","1","1,0.7,0,1,0.7,0,0.7,0,1","0,1,0.7,0,1,0.7,1,0.7,0","3",""
"","html-keyboard-response","203","138055","0.0-293.0","3TXWC2NHN0CTBUP07D6VS9WN0SK9S8","A2EK1HDV4I4GSK","32XN26MTXZ5MP383W6LZYTLBY7P0LI","","null","<img src=""img/food5.png"" style=""width:200px; border:14px solid green;"">","null","","","","","","","","","",""
"","image-keyboard-response","204","138625","0.0-294.0","3TXWC2NHN0CTBUP07D6VS9WN0SK9S8","A2EK1HDV4I4GSK","32XN26MTXZ5MP383W6LZYTLBY7P0LI","","567.7999999523163","img/food4.png","75","569.2000000476837","2","1","","2","1","1,0.7,0,1,0.7,0,0.7,0,1","0,1,0.7,0,1,0.7,1,0.7,0","3",""
"","html-keyboard-response","205","138927","0.0-295.0","3TXWC2NHN0CTBUP07D6VS9WN0SK9S8","A2EK1HDV4I4GSK","32XN26MTXZ5MP383W6LZYTLBY7P0LI","","null","<img src=""img/food4.png"" style=""width:200px; border:14px solid green;"">","null","","","","","","","","","",""
"","image-keyboard-response","206","139473","0.0-296.0","3TXWC2NHN0CTBUP07D6VS9WN0SK9S8","A2EK1HDV4I4GSK","32XN26MTXZ5MP383W6LZYTLBY7P0LI","","545.1999999284744","img/food4.png","75","546.1000000238419","2","1","","2","1","1,0.7,0,1,0.7,0,0.7,0,1","0,1,0.7,0,1,0.7,1,0.7,0","3",""
"","html-keyboard-response","207","139775","0.0-297.0","3TXWC2NHN0CTBUP07D6VS9WN0SK9S8","A2EK1HDV4I4GSK","32XN26MTXZ5MP383W6LZYTLBY7P0LI","","null","<img src=""img/food4.png"" style=""width:200px; border:14px solid green;"">","null","","","","","","","","","",""
"","image-keyboard-response","208","140321","0.0-298.0","3TXWC2NHN0CTBUP07D6VS9WN0SK9S8","A2EK1HDV4I4GSK","32XN26MTXZ5MP383W6LZYTLBY7P0LI","","543.2999999523163","img/food5.png","75","544.8000000715256","2","0","","3","1","1,0.7,0,1,0.7,0,0.7,0,1","0,1,0.7,0,1,0.7,1,0.7,0","3",""
"","html-keyboard-response","209","140624","0.0-299.0","3TXWC2NHN0CTBUP07D6VS9WN0SK9S8","A2EK1HDV4I4GSK","32XN26MTXZ5MP383W6LZYTLBY7P0LI","","null","<img src=""img/food5.png"" style=""width:200px;border:14px solid red;"">","null","","","","","","","","","",""
"","image-keyboard-response","210","141074","0.0-300.0","3TXWC2NHN0CTBUP07D6VS9WN0SK9S8","A2EK1HDV4I4GSK","32XN26MTXZ5MP383W6LZYTLBY7P0LI","","448.60000002384186","img/food5.png","75","449.7999999523163","2","1","","3","1","1,0.7,0,1,0.7,0,0.7,0,1","0,1,0.7,0,1,0.7,1,0.7,0","3",""
"","html-keyboard-response","211","141378","0.0-301.0","3TXWC2NHN0CTBUP07D6VS9WN0SK9S8","A2EK1HDV4I4GSK","32XN26MTXZ5MP383W6LZYTLBY7P0LI","","null","<img src=""img/food5.png"" style=""width:200px; border:14px solid green;"">","null","","","","","","","","","",""
"","image-keyboard-response","212","141944","0.0-302.0","3TXWC2NHN0CTBUP07D6VS9WN0SK9S8","A2EK1HDV4I4GSK","32XN26MTXZ5MP383W6LZYTLBY7P0LI","","564.6000000238419","img/food4.png","75","566.0999999046326","2","1","","2","1","1,0.7,0,1,0.7,0,0.7,0,1","0,1,0.7,0,1,0.7,1,0.7,0","3",""
"","html-keyboard-response","213","142247","0.0-303.0","3TXWC2NHN0CTBUP07D6VS9WN0SK9S8","A2EK1HDV4I4GSK","32XN26MTXZ5MP383W6LZYTLBY7P0LI","","null","<img src=""img/food4.png"" style=""width:200px; border:14px solid green;"">","null","","","","","","","","","",""
"","image-keyboard-response","214","142681","0.0-304.0","3TXWC2NHN0CTBUP07D6VS9WN0SK9S8","A2EK1HDV4I4GSK","32XN26MTXZ5MP383W6LZYTLBY7P0LI","","431.7999999523163","img/food5.png","75","433.3000000715256","2","1","","3","1","1,0.7,0,1,0.7,0,0.7,0,1","0,1,0.7,0,1,0.7,1,0.7,0","3",""
"","html-keyboard-response","215","142984","0.0-305.0","3TXWC2NHN0CTBUP07D6VS9WN0SK9S8","A2EK1HDV4I4GSK","32XN26MTXZ5MP383W6LZYTLBY7P0LI","","null","<img src=""img/food5.png"" style=""width:200px; border:14px solid green;"">","null","","","","","","","","","",""
"","image-keyboard-response","216","143513","0.0-306.0","3TXWC2NHN0CTBUP07D6VS9WN0SK9S8","A2EK1HDV4I4GSK","32XN26MTXZ5MP383W6LZYTLBY7P0LI","","527.2000000476837","img/food4.png","75","528.8000000715256","2","1","","2","1","1,0.7,0,1,0.7,0,0.7,0,1","0,1,0.7,0,1,0.7,1,0.7,0","3",""
"","html-keyboard-response","217","143816","0.0-307.0","3TXWC2NHN0CTBUP07D6VS9WN0SK9S8","A2EK1HDV4I4GSK","32XN26MTXZ5MP383W6LZYTLBY7P0LI","","null","<img src=""img/food4.png"" style=""width:200px; border:14px solid green;"">","null","","","","","","","","","",""
"","image-keyboard-response","218","144345","0.0-308.0","3TXWC2NHN0CTBUP07D6VS9WN0SK9S8","A2EK1HDV4I4GSK","32XN26MTXZ5MP383W6LZYTLBY7P0LI","","527.1000000238419","img/food2.png","75","528.5999999046326","2","1","","1","1","1,0.7,0,1,0.7,0,0.7,0,1","0,1,0.7,0,1,0.7,1,0.7,0","3",""
"","html-keyboard-response","219","144648","0.0-309.0","3TXWC2NHN0CTBUP07D6VS9WN0SK9S8","A2EK1HDV4I4GSK","32XN26MTXZ5MP383W6LZYTLBY7P0LI","","null","<img src=""img/food2.png"" style=""width:200px; border:14px solid green;"">","null","","","","","","","","","",""
"","image-keyboard-response","220","145169","0.0-310.0","3TXWC2NHN0CTBUP07D6VS9WN0SK9S8","A2EK1HDV4I4GSK","32XN26MTXZ5MP383W6LZYTLBY7P0LI","","518.2999999523163","img/food4.png","75","519.9000000953674","2","1","","2","1","1,0.7,0,1,0.7,0,0.7,0,1","0,1,0.7,0,1,0.7,1,0.7,0","3",""
"","html-keyboard-response","221","145472","0.0-311.0","3TXWC2NHN0CTBUP07D6VS9WN0SK9S8","A2EK1HDV4I4GSK","32XN26MTXZ5MP383W6LZYTLBY7P0LI","","null","<img src=""img/food4.png"" style=""width:200px; border:14px solid green;"">","null","","","","","","","","","",""
"","image-keyboard-response","222","146720","0.0-312.0","3TXWC2NHN0CTBUP07D6VS9WN0SK9S8","A2EK1HDV4I4GSK","32XN26MTXZ5MP383W6LZYTLBY7P0LI","","1246.6999999284744","img/food2.png","75","1248.2000000476837","2","1","","1","1","1,0.7,0,1,0.7,0,0.7,0,1","0,1,0.7,0,1,0.7,1,0.7,0","3",""
"","html-keyboard-response","223","147023","0.0-313.0","3TXWC2NHN0CTBUP07D6VS9WN0SK9S8","A2EK1HDV4I4GSK","32XN26MTXZ5MP383W6LZYTLBY7P0LI","","null","<img src=""img/food2.png"" style=""width:200px; border:14px solid green;"">","null","","","","","","","","","",""
"","image-keyboard-response","224","147513","0.0-314.0","3TXWC2NHN0CTBUP07D6VS9WN0SK9S8","A2EK1HDV4I4GSK","32XN26MTXZ5MP383W6LZYTLBY7P0LI","","487.6999999284744","img/food2.png","75","489.3000000715256","2","1","","1","1","1,0.7,0,1,0.7,0,0.7,0,1","0,1,0.7,0,1,0.7,1,0.7,0","3",""
"","html-keyboard-response","225","147816","0.0-315.0","3TXWC2NHN0CTBUP07D6VS9WN0SK9S8","A2EK1HDV4I4GSK","32XN26MTXZ5MP383W6LZYTLBY7P0LI","","null","<img src=""img/food2.png"" style=""width:200px; border:14px solid green;"">","null","","","","","","","","","",""
"","image-keyboard-response","226","148233","0.0-316.0","3TXWC2NHN0CTBUP07D6VS9WN0SK9S8","A2EK1HDV4I4GSK","32XN26MTXZ5MP383W6LZYTLBY7P0LI","","415.5","img/food4.png","75","416.5","2","1","","2","1","1,0.7,0,1,0.7,0,0.7,0,1","0,1,0.7,0,1,0.7,1,0.7,0","3",""
"","html-keyboard-response","227","148535","0.0-317.0","3TXWC2NHN0CTBUP07D6VS9WN0SK9S8","A2EK1HDV4I4GSK","32XN26MTXZ5MP383W6LZYTLBY7P0LI","","null","<img src=""img/food4.png"" style=""width:200px; border:14px solid green;"">","null","","","","","","","","","",""
"","image-keyboard-response","228","149025","0.0-318.0","3TXWC2NHN0CTBUP07D6VS9WN0SK9S8","A2EK1HDV4I4GSK","32XN26MTXZ5MP383W6LZYTLBY7P0LI","","487.39999997615814","img/food5.png","75","488.89999997615814","2","1","","3","1","1,0.7,0,1,0.7,0,0.7,0,1","0,1,0.7,0,1,0.7,1,0.7,0","3",""
"","html-keyboard-response","229","149328","0.0-319.0","3TXWC2NHN0CTBUP07D6VS9WN0SK9S8","A2EK1HDV4I4GSK","32XN26MTXZ5MP383W6LZYTLBY7P0LI","","null","<img src=""img/food5.png"" style=""width:200px; border:14px solid green;"">","null","","","","","","","","","",""
"","image-keyboard-response","230","149816","0.0-320.0","3TXWC2NHN0CTBUP07D6VS9WN0SK9S8","A2EK1HDV4I4GSK","32XN26MTXZ5MP383W6LZYTLBY7P0LI","","486.10000002384186","img/food4.png","75","487.10000002384186","2","1","","2","1","1,0.7,0,1,0.7,0,0.7,0,1","0,1,0.7,0,1,0.7,1,0.7,0","3",""
"","html-keyboard-response","231","150119","0.0-321.0","3TXWC2NHN0CTBUP07D6VS9WN0SK9S8","A2EK1HDV4I4GSK","32XN26MTXZ5MP383W6LZYTLBY7P0LI","","null","<img src=""img/food4.png"" style=""width:200px; border:14px solid green;"">","null","","","","","","","","","",""
"","image-keyboard-response","232","150577","0.0-322.0","3TXWC2NHN0CTBUP07D6VS9WN0SK9S8","A2EK1HDV4I4GSK","32XN26MTXZ5MP383W6LZYTLBY7P0LI","","455.60000002384186","img/food2.png","75","457.2000000476837","2","1","","1","1","1,0.7,0,1,0.7,0,0.7,0,1","0,1,0.7,0,1,0.7,1,0.7,0","3",""
"","html-keyboard-response","233","150880","0.0-323.0","3TXWC2NHN0CTBUP07D6VS9WN0SK9S8","A2EK1HDV4I4GSK","32XN26MTXZ5MP383W6LZYTLBY7P0LI","","null","<img src=""img/food2.png"" style=""width:200px; border:14px solid green;"">","null","","","","","","","","","",""
"","image-keyboard-response","234","151313","0.0-324.0","3TXWC2NHN0CTBUP07D6VS9WN0SK9S8","A2EK1HDV4I4GSK","32XN26MTXZ5MP383W6LZYTLBY7P0LI","","431.2000000476837","img/food4.png","75","432.89999997615814","2","1","","2","1","1,0.7,0,1,0.7,0,0.7,0,1","0,1,0.7,0,1,0.7,1,0.7,0","3",""
"","html-keyboard-response","235","151615","0.0-325.0","3TXWC2NHN0CTBUP07D6VS9WN0SK9S8","A2EK1HDV4I4GSK","32XN26MTXZ5MP383W6LZYTLBY7P0LI","","null","<img src=""img/food4.png"" style=""width:200px; border:14px solid green;"">","null","","","","","","","","","",""
"","image-keyboard-response","236","152121","0.0-326.0","3TXWC2NHN0CTBUP07D6VS9WN0SK9S8","A2EK1HDV4I4GSK","32XN26MTXZ5MP383W6LZYTLBY7P0LI","","503.7999999523163","img/food5.png","75","505.2000000476837","2","0","","3","1","1,0.7,0,1,0.7,0,0.7,0,1","0,1,0.7,0,1,0.7,1,0.7,0","3",""
"","html-keyboard-response","237","152424","0.0-327.0","3TXWC2NHN0CTBUP07D6VS9WN0SK9S8","A2EK1HDV4I4GSK","32XN26MTXZ5MP383W6LZYTLBY7P0LI","","null","<img src=""img/food5.png"" style=""width:200px;border:14px solid red;"">","null","","","","","","","","","",""
"","image-keyboard-response","238","152961","0.0-328.0","3TXWC2NHN0CTBUP07D6VS9WN0SK9S8","A2EK1HDV4I4GSK","32XN26MTXZ5MP383W6LZYTLBY7P0LI","","535.7999999523163","img/food2.png","75","536.7000000476837","2","1","","1","1","1,0.7,0,1,0.7,0,0.7,0,1","0,1,0.7,0,1,0.7,1,0.7,0","3",""
"","html-keyboard-response","239","153263","0.0-329.0","3TXWC2NHN0CTBUP07D6VS9WN0SK9S8","A2EK1HDV4I4GSK","32XN26MTXZ5MP383W6LZYTLBY7P0LI","","null","<img src=""img/food2.png"" style=""width:200px; border:14px solid green;"">","null","","","","","","","","","",""
"","image-keyboard-response","240","153752","0.0-330.0","3TXWC2NHN0CTBUP07D6VS9WN0SK9S8","A2EK1HDV4I4GSK","32XN26MTXZ5MP383W6LZYTLBY7P0LI","","487.39999997615814","img/food4.png","75","488.89999997615814","2","1","","2","1","1,0.7,0,1,0.7,0,0.7,0,1","0,1,0.7,0,1,0.7,1,0.7,0","3",""
"","html-keyboard-response","241","154055","0.0-331.0","3TXWC2NHN0CTBUP07D6VS9WN0SK9S8","A2EK1HDV4I4GSK","32XN26MTXZ5MP383W6LZYTLBY7P0LI","","null","<img src=""img/food4.png"" style=""width:200px; border:14px solid green;"">","null","","","","","","","","","",""
"","image-keyboard-response","242","154521","0.0-332.0","3TXWC2NHN0CTBUP07D6VS9WN0SK9S8","A2EK1HDV4I4GSK","32XN26MTXZ5MP383W6LZYTLBY7P0LI","","463.90000009536743","img/food2.png","75","465.3000000715256","2","1","","1","1","1,0.7,0,1,0.7,0,0.7,0,1","0,1,0.7,0,1,0.7,1,0.7,0","3",""
"","html-keyboard-response","243","154823","0.0-333.0","3TXWC2NHN0CTBUP07D6VS9WN0SK9S8","A2EK1HDV4I4GSK","32XN26MTXZ5MP383W6LZYTLBY7P0LI","","null","<img src=""img/food2.png"" style=""width:200px; border:14px solid green;"">","null","","","","","","","","","",""
"","image-keyboard-response","244","155257","0.0-334.0","3TXWC2NHN0CTBUP07D6VS9WN0SK9S8","A2EK1HDV4I4GSK","32XN26MTXZ5MP383W6LZYTLBY7P0LI","","432","img/food5.png","75","433.60000002384186","2","1","","3","1","1,0.7,0,1,0.7,0,0.7,0,1","0,1,0.7,0,1,0.7,1,0.7,0","3",""
"","html-keyboard-response","245","155560","0.0-335.0","3TXWC2NHN0CTBUP07D6VS9WN0SK9S8","A2EK1HDV4I4GSK","32XN26MTXZ5MP383W6LZYTLBY7P0LI","","null","<img src=""img/food5.png"" style=""width:200px; border:14px solid green;"">","null","","","","","","","","","",""
"","image-keyboard-response","246","155953","0.0-336.0","3TXWC2NHN0CTBUP07D6VS9WN0SK9S8","A2EK1HDV4I4GSK","32XN26MTXZ5MP383W6LZYTLBY7P0LI","","391.10000002384186","img/food4.png","75","392.5","2","1","","2","1","1,0.7,0,1,0.7,0,0.7,0,1","0,1,0.7,0,1,0.7,1,0.7,0","3",""
"","html-keyboard-response","247","156255","0.0-337.0","3TXWC2NHN0CTBUP07D6VS9WN0SK9S8","A2EK1HDV4I4GSK","32XN26MTXZ5MP383W6LZYTLBY7P0LI","","null","<img src=""img/food4.png"" style=""width:200px; border:14px solid green;"">","null","","","","","","","","","",""
"","image-keyboard-response","248","156689","0.0-338.0","3TXWC2NHN0CTBUP07D6VS9WN0SK9S8","A2EK1HDV4I4GSK","32XN26MTXZ5MP383W6LZYTLBY7P0LI","","432.39999997615814","img/food5.png","75","433.89999997615814","2","1","","3","1","1,0.7,0,1,0.7,0,0.7,0,1","0,1,0.7,0,1,0.7,1,0.7,0","3",""
"","html-keyboard-response","249","156991","0.0-339.0","3TXWC2NHN0CTBUP07D6VS9WN0SK9S8","A2EK1HDV4I4GSK","32XN26MTXZ5MP383W6LZYTLBY7P0LI","","null","<img src=""img/food5.png"" style=""width:200px; border:14px solid green;"">","null","","","","","","","","","",""
"","image-keyboard-response","250","157409","0.0-340.0","3TXWC2NHN0CTBUP07D6VS9WN0SK9S8","A2EK1HDV4I4GSK","32XN26MTXZ5MP383W6LZYTLBY7P0LI","","415.2999999523163","img/food4.png","75","416.7000000476837","2","1","","2","1","1,0.7,0,1,0.7,0,0.7,0,1","0,1,0.7,0,1,0.7,1,0.7,0","3",""
"","html-keyboard-response","251","157712","0.0-341.0","3TXWC2NHN0CTBUP07D6VS9WN0SK9S8","A2EK1HDV4I4GSK","32XN26MTXZ5MP383W6LZYTLBY7P0LI","","null","<img src=""img/food4.png"" style=""width:200px; border:14px solid green;"">","null","","","","","","","","","",""
"","image-keyboard-response","252","158074","0.0-342.0","3TXWC2NHN0CTBUP07D6VS9WN0SK9S8","A2EK1HDV4I4GSK","32XN26MTXZ5MP383W6LZYTLBY7P0LI","","360.1999999284744","img/food4.png","75","361.60000002384186","2","1","","2","1","1,0.7,0,1,0.7,0,0.7,0,1","0,1,0.7,0,1,0.7,1,0.7,0","3",""
"","html-keyboard-response","253","158376","0.0-343.0","3TXWC2NHN0CTBUP07D6VS9WN0SK9S8","A2EK1HDV4I4GSK","32XN26MTXZ5MP383W6LZYTLBY7P0LI","","null","<img src=""img/food4.png"" style=""width:200px; border:14px solid green;"">","null","","","","","","","","","",""
"","image-keyboard-response","254","158760","0.0-344.0","3TXWC2NHN0CTBUP07D6VS9WN0SK9S8","A2EK1HDV4I4GSK","32XN26MTXZ5MP383W6LZYTLBY7P0LI","","381.90000009536743","img/food4.png","75","383.2000000476837","2","1","","2","1","1,0.7,0,1,0.7,0,0.7,0,1","0,1,0.7,0,1,0.7,1,0.7,0","3",""
"","html-keyboard-response","255","159062","0.0-345.0","3TXWC2NHN0CTBUP07D6VS9WN0SK9S8","A2EK1HDV4I4GSK","32XN26MTXZ5MP383W6LZYTLBY7P0LI","","null","<img src=""img/food4.png"" style=""width:200px; border:14px solid green;"">","null","","","","","","","","","",""
"","image-keyboard-response","256","159473","0.0-346.0","3TXWC2NHN0CTBUP07D6VS9WN0SK9S8","A2EK1HDV4I4GSK","32XN26MTXZ5MP383W6LZYTLBY7P0LI","","409.10000002384186","img/food5.png","75","410.7999999523163","2","0","","3","1","1,0.7,0,1,0.7,0,0.7,0,1","0,1,0.7,0,1,0.7,1,0.7,0","3",""
"","html-keyboard-response","257","159776","0.0-347.0","3TXWC2NHN0CTBUP07D6VS9WN0SK9S8","A2EK1HDV4I4GSK","32XN26MTXZ5MP383W6LZYTLBY7P0LI","","null","<img src=""img/food5.png"" style=""width:200px;border:14px solid red;"">","null","","","","","","","","","",""
"","image-keyboard-response","258","160169","0.0-348.0","3TXWC2NHN0CTBUP07D6VS9WN0SK9S8","A2EK1HDV4I4GSK","32XN26MTXZ5MP383W6LZYTLBY7P0LI","","391.2000000476837","img/food2.png","75","392.5","2","1","","1","1","1,0.7,0,1,0.7,0,0.7,0,1","0,1,0.7,0,1,0.7,1,0.7,0","3",""
"","html-keyboard-response","259","160471","0.0-349.0","3TXWC2NHN0CTBUP07D6VS9WN0SK9S8","A2EK1HDV4I4GSK","32XN26MTXZ5MP383W6LZYTLBY7P0LI","","null","<img src=""img/food2.png"" style=""width:200px; border:14px solid green;"">","null","","","","","","","","","",""
"","image-keyboard-response","260","160848","0.0-350.0","3TXWC2NHN0CTBUP07D6VS9WN0SK9S8","A2EK1HDV4I4GSK","32XN26MTXZ5MP383W6LZYTLBY7P0LI","","375.5","img/food4.png","75","377","2","1","","2","1","1,0.7,0,1,0.7,0,0.7,0,1","0,1,0.7,0,1,0.7,1,0.7,0","3",""
"","html-keyboard-response","261","161152","0.0-351.0","3TXWC2NHN0CTBUP07D6VS9WN0SK9S8","A2EK1HDV4I4GSK","32XN26MTXZ5MP383W6LZYTLBY7P0LI","","null","<img src=""img/food4.png"" style=""width:200px; border:14px solid green;"">","null","","","","","","","","","",""
"","image-keyboard-response","262","161495","0.0-352.0","3TXWC2NHN0CTBUP07D6VS9WN0SK9S8","A2EK1HDV4I4GSK","32XN26MTXZ5MP383W6LZYTLBY7P0LI","","342.89999997615814","img/food4.png","75","343.40000009536743","2","1","","2","1","1,0.7,0,1,0.7,0,0.7,0,1","0,1,0.7,0,1,0.7,1,0.7,0","3",""
"","html-keyboard-response","263","161797","0.0-353.0","3TXWC2NHN0CTBUP07D6VS9WN0SK9S8","A2EK1HDV4I4GSK","32XN26MTXZ5MP383W6LZYTLBY7P0LI","","null","<img src=""img/food4.png"" style=""width:200px; border:14px solid green;"">","null","","","","","","","","","",""
"","image-keyboard-response","264","162232","0.0-354.0","3TXWC2NHN0CTBUP07D6VS9WN0SK9S8","A2EK1HDV4I4GSK","32XN26MTXZ5MP383W6LZYTLBY7P0LI","","433.1999999284744","img/food2.png","75","434.5","2","1","","1","1","1,0.7,0,1,0.7,0,0.7,0,1","0,1,0.7,0,1,0.7,1,0.7,0","3",""
"","html-keyboard-response","265","162533","0.0-355.0","3TXWC2NHN0CTBUP07D6VS9WN0SK9S8","A2EK1HDV4I4GSK","32XN26MTXZ5MP383W6LZYTLBY7P0LI","","null","<img src=""img/food2.png"" style=""width:200px; border:14px solid green;"">","null","","","","","","","","","",""
"","image-keyboard-response","266","162865","0.0-356.0","3TXWC2NHN0CTBUP07D6VS9WN0SK9S8","A2EK1HDV4I4GSK","32XN26MTXZ5MP383W6LZYTLBY7P0LI","","329.5","img/food4.png","75","330.8000000715256","2","1","","2","1","1,0.7,0,1,0.7,0,0.7,0,1","0,1,0.7,0,1,0.7,1,0.7,0","3",""
"","html-keyboard-response","267","163168","0.0-357.0","3TXWC2NHN0CTBUP07D6VS9WN0SK9S8","A2EK1HDV4I4GSK","32XN26MTXZ5MP383W6LZYTLBY7P0LI","","null","<img src=""img/food4.png"" style=""width:200px; border:14px solid green;"">","null","","","","","","","","","",""
"","image-keyboard-response","268","163569","0.0-358.0","3TXWC2NHN0CTBUP07D6VS9WN0SK9S8","A2EK1HDV4I4GSK","32XN26MTXZ5MP383W6LZYTLBY7P0LI","","398.6999999284744","img/food2.png","75","400.2000000476837","2","1","","1","1","1,0.7,0,1,0.7,0,0.7,0,1","0,1,0.7,0,1,0.7,1,0.7,0","3",""
"","html-keyboard-response","269","163871","0.0-359.0","3TXWC2NHN0CTBUP07D6VS9WN0SK9S8","A2EK1HDV4I4GSK","32XN26MTXZ5MP383W6LZYTLBY7P0LI","","null","<img src=""img/food2.png"" style=""width:200px; border:14px solid green;"">","null","","","","","","","","","",""
"","image-keyboard-response","270","164233","0.0-360.0","3TXWC2NHN0CTBUP07D6VS9WN0SK9S8","A2EK1HDV4I4GSK","32XN26MTXZ5MP383W6LZYTLBY7P0LI","","360.5","img/food2.png","75","361.60000002384186","2","1","","1","1","1,0.7,0,1,0.7,0,0.7,0,1","0,1,0.7,0,1,0.7,1,0.7,0","3",""
"","html-keyboard-response","271","164536","0.0-361.0","3TXWC2NHN0CTBUP07D6VS9WN0SK9S8","A2EK1HDV4I4GSK","32XN26MTXZ5MP383W6LZYTLBY7P0LI","","null","<img src=""img/food2.png"" style=""width:200px; border:14px solid green;"">","null","","","","","","","","","",""
"","image-keyboard-response","272","165039","0.0-362.0","3TXWC2NHN0CTBUP07D6VS9WN0SK9S8","A2EK1HDV4I4GSK","32XN26MTXZ5MP383W6LZYTLBY7P0LI","","502.39999997615814","img/food5.png","75","503.60000002384186","2","1","","3","1","1,0.7,0,1,0.7,0,0.7,0,1","0,1,0.7,0,1,0.7,1,0.7,0","3",""
"","html-keyboard-response","273","165341","0.0-363.0","3TXWC2NHN0CTBUP07D6VS9WN0SK9S8","A2EK1HDV4I4GSK","32XN26MTXZ5MP383W6LZYTLBY7P0LI","","null","<img src=""img/food5.png"" style=""width:200px; border:14px solid green;"">","null","","","","","","","","","",""
"","image-keyboard-response","274","165818","0.0-364.0","3TXWC2NHN0CTBUP07D6VS9WN0SK9S8","A2EK1HDV4I4GSK","32XN26MTXZ5MP383W6LZYTLBY7P0LI","","475.3000000715256","img/food2.png","75","476.2000000476837","2","1","","1","1","1,0.7,0,1,0.7,0,0.7,0,1","0,1,0.7,0,1,0.7,1,0.7,0","3",""
"","html-keyboard-response","275","166120","0.0-365.0","3TXWC2NHN0CTBUP07D6VS9WN0SK9S8","A2EK1HDV4I4GSK","32XN26MTXZ5MP383W6LZYTLBY7P0LI","","null","<img src=""img/food2.png"" style=""width:200px; border:14px solid green;"">","null","","","","","","","","","",""
"","image-keyboard-response","276","166617","0.0-366.0","3TXWC2NHN0CTBUP07D6VS9WN0SK9S8","A2EK1HDV4I4GSK","32XN26MTXZ5MP383W6LZYTLBY7P0LI","","494.89999997615814","img/food4.png","75","496.3000000715256","2","1","","2","1","1,0.7,0,1,0.7,0,0.7,0,1","0,1,0.7,0,1,0.7,1,0.7,0","3",""
"","html-keyboard-response","277","166919","0.0-367.0","3TXWC2NHN0CTBUP07D6VS9WN0SK9S8","A2EK1HDV4I4GSK","32XN26MTXZ5MP383W6LZYTLBY7P0LI","","null","<img src=""img/food4.png"" style=""width:200px; border:14px solid green;"">","null","","","","","","","","","",""
"","image-keyboard-response","278","167328","0.0-368.0","3TXWC2NHN0CTBUP07D6VS9WN0SK9S8","A2EK1HDV4I4GSK","32XN26MTXZ5MP383W6LZYTLBY7P0LI","","406.89999997615814","img/food2.png","75","408.09999990463257","2","1","","1","1","1,0.7,0,1,0.7,0,0.7,0,1","0,1,0.7,0,1,0.7,1,0.7,0","3",""
"","html-keyboard-response","279","167630","0.0-369.0","3TXWC2NHN0CTBUP07D6VS9WN0SK9S8","A2EK1HDV4I4GSK","32XN26MTXZ5MP383W6LZYTLBY7P0LI","","null","<img src=""img/food2.png"" style=""width:200px; border:14px solid green;"">","null","","","","","","","","","",""
"","image-keyboard-response","280","168122","0.0-370.0","3TXWC2NHN0CTBUP07D6VS9WN0SK9S8","A2EK1HDV4I4GSK","32XN26MTXZ5MP383W6LZYTLBY7P0LI","","490.39999997615814","img/food5.png","75","491.8000000715256","2","1","","3","1","1,0.7,0,1,0.7,0,0.7,0,1","0,1,0.7,0,1,0.7,1,0.7,0","3",""
"","html-keyboard-response","281","168425","0.0-371.0","3TXWC2NHN0CTBUP07D6VS9WN0SK9S8","A2EK1HDV4I4GSK","32XN26MTXZ5MP383W6LZYTLBY7P0LI","","null","<img src=""img/food5.png"" style=""width:200px; border:14px solid green;"">","null","","","","","","","","","",""
"","image-keyboard-response","282","168840","0.0-372.0","3TXWC2NHN0CTBUP07D6VS9WN0SK9S8","A2EK1HDV4I4GSK","32XN26MTXZ5MP383W6LZYTLBY7P0LI","","414.2999999523163","img/food4.png","75","415.2999999523163","2","1","","2","1","1,0.7,0,1,0.7,0,0.7,0,1","0,1,0.7,0,1,0.7,1,0.7,0","3",""
"","html-keyboard-response","283","169143","0.0-373.0","3TXWC2NHN0CTBUP07D6VS9WN0SK9S8","A2EK1HDV4I4GSK","32XN26MTXZ5MP383W6LZYTLBY7P0LI","","null","<img src=""img/food4.png"" style=""width:200px; border:14px solid green;"">","null","","","","","","","","","",""
"","image-keyboard-response","284","169624","0.0-374.0","3TXWC2NHN0CTBUP07D6VS9WN0SK9S8","A2EK1HDV4I4GSK","32XN26MTXZ5MP383W6LZYTLBY7P0LI","","479.6999999284744","img/food4.png","75","481","2","1","","2","1","1,0.7,0,1,0.7,0,0.7,0,1","0,1,0.7,0,1,0.7,1,0.7,0","3",""
"","html-keyboard-response","285","169927","0.0-375.0","3TXWC2NHN0CTBUP07D6VS9WN0SK9S8","A2EK1HDV4I4GSK","32XN26MTXZ5MP383W6LZYTLBY7P0LI","","null","<img src=""img/food4.png"" style=""width:200px; border:14px solid green;"">","null","","","","","","","","","",""
"","image-keyboard-response","286","170345","0.0-376.0","3TXWC2NHN0CTBUP07D6VS9WN0SK9S8","A2EK1HDV4I4GSK","32XN26MTXZ5MP383W6LZYTLBY7P0LI","","416.39999997615814","img/food2.png","75","417.89999997615814","2","1","","1","1","1,0.7,0,1,0.7,0,0.7,0,1","0,1,0.7,0,1,0.7,1,0.7,0","3",""
"","html-keyboard-response","287","170648","0.0-377.0","3TXWC2NHN0CTBUP07D6VS9WN0SK9S8","A2EK1HDV4I4GSK","32XN26MTXZ5MP383W6LZYTLBY7P0LI","","null","<img src=""img/food2.png"" style=""width:200px; border:14px solid green;"">","null","","","","","","","","","",""
"","image-keyboard-response","288","171071","0.0-378.0","3TXWC2NHN0CTBUP07D6VS9WN0SK9S8","A2EK1HDV4I4GSK","32XN26MTXZ5MP383W6LZYTLBY7P0LI","","421.39999997615814","img/food5.png","75","422.5","2","1","","3","1","1,0.7,0,1,0.7,0,0.7,0,1","0,1,0.7,0,1,0.7,1,0.7,0","3",""
"","html-keyboard-response","289","171374","0.0-379.0","3TXWC2NHN0CTBUP07D6VS9WN0SK9S8","A2EK1HDV4I4GSK","32XN26MTXZ5MP383W6LZYTLBY7P0LI","","null","<img src=""img/food5.png"" style=""width:200px; border:14px solid green;"">","null","","","","","","","","","",""
"","image-keyboard-response","290","171817","0.0-380.0","3TXWC2NHN0CTBUP07D6VS9WN0SK9S8","A2EK1HDV4I4GSK","32XN26MTXZ5MP383W6LZYTLBY7P0LI","","440.39999997615814","img/food2.png","75","441.90000009536743","2","1","","1","1","1,0.7,0,1,0.7,0,0.7,0,1","0,1,0.7,0,1,0.7,1,0.7,0","3",""
"","html-keyboard-response","291","172119","0.0-381.0","3TXWC2NHN0CTBUP07D6VS9WN0SK9S8","A2EK1HDV4I4GSK","32XN26MTXZ5MP383W6LZYTLBY7P0LI","","null","<img src=""img/food2.png"" style=""width:200px; border:14px solid green;"">","null","","","","","","","","","",""
"","image-keyboard-response","292","172592","0.0-382.0","3TXWC2NHN0CTBUP07D6VS9WN0SK9S8","A2EK1HDV4I4GSK","32XN26MTXZ5MP383W6LZYTLBY7P0LI","","471.2999999523163","img/food5.png","75","472.7999999523163","2","1","","3","1","1,0.7,0,1,0.7,0,0.7,0,1","0,1,0.7,0,1,0.7,1,0.7,0","3",""
"","html-keyboard-response","293","172894","0.0-383.0","3TXWC2NHN0CTBUP07D6VS9WN0SK9S8","A2EK1HDV4I4GSK","32XN26MTXZ5MP383W6LZYTLBY7P0LI","","null","<img src=""img/food5.png"" style=""width:200px; border:14px solid green;"">","null","","","","","","","","","",""
"","image-keyboard-response","294","173336","0.0-384.0","3TXWC2NHN0CTBUP07D6VS9WN0SK9S8","A2EK1HDV4I4GSK","32XN26MTXZ5MP383W6LZYTLBY7P0LI","","440.10000002384186","img/food5.png","75","441.60000002384186","2","0","","3","1","1,0.7,0,1,0.7,0,0.7,0,1","0,1,0.7,0,1,0.7,1,0.7,0","3",""
"","html-keyboard-response","295","173639","0.0-385.0","3TXWC2NHN0CTBUP07D6VS9WN0SK9S8","A2EK1HDV4I4GSK","32XN26MTXZ5MP383W6LZYTLBY7P0LI","","null","<img src=""img/food5.png"" style=""width:200px;border:14px solid red;"">","null","","","","","","","","","",""
"","image-keyboard-response","296","174041","0.0-386.0","3TXWC2NHN0CTBUP07D6VS9WN0SK9S8","A2EK1HDV4I4GSK","32XN26MTXZ5MP383W6LZYTLBY7P0LI","","399.89999997615814","img/food4.png","75","401.5","2","1","","2","1","1,0.7,0,1,0.7,0,0.7,0,1","0,1,0.7,0,1,0.7,1,0.7,0","3",""
"","html-keyboard-response","297","174343","0.0-387.0","3TXWC2NHN0CTBUP07D6VS9WN0SK9S8","A2EK1HDV4I4GSK","32XN26MTXZ5MP383W6LZYTLBY7P0LI","","null","<img src=""img/food4.png"" style=""width:200px; border:14px solid green;"">","null","","","","","","","","","",""
"","image-keyboard-response","298","174712","0.0-388.0","3TXWC2NHN0CTBUP07D6VS9WN0SK9S8","A2EK1HDV4I4GSK","32XN26MTXZ5MP383W6LZYTLBY7P0LI","","367.2000000476837","img/food5.png","75","368.5","2","0","","3","1","1,0.7,0,1,0.7,0,0.7,0,1","0,1,0.7,0,1,0.7,1,0.7,0","3",""
"","html-keyboard-response","299","175015","0.0-389.0","3TXWC2NHN0CTBUP07D6VS9WN0SK9S8","A2EK1HDV4I4GSK","32XN26MTXZ5MP383W6LZYTLBY7P0LI","","null","<img src=""img/food5.png"" style=""width:200px;border:14px solid red;"">","null","","","","","","","","","",""
"","image-keyboard-response","300","175504","0.0-390.0","3TXWC2NHN0CTBUP07D6VS9WN0SK9S8","A2EK1HDV4I4GSK","32XN26MTXZ5MP383W6LZYTLBY7P0LI","","487.7000000476837","img/food5.png","75","488.2999999523163","2","0","","3","1","1,0.7,0,1,0.7,0,0.7,0,1","0,1,0.7,0,1,0.7,1,0.7,0","3",""
"","html-keyboard-response","301","175805","0.0-391.0","3TXWC2NHN0CTBUP07D6VS9WN0SK9S8","A2EK1HDV4I4GSK","32XN26MTXZ5MP383W6LZYTLBY7P0LI","","null","<img src=""img/food5.png"" style=""width:200px;border:14px solid red;"">","null","","","","","","","","","",""
"","image-keyboard-response","302","176169","0.0-392.0","3TXWC2NHN0CTBUP07D6VS9WN0SK9S8","A2EK1HDV4I4GSK","32XN26MTXZ5MP383W6LZYTLBY7P0LI","","361.7000000476837","img/food5.png","75","363.3000000715256","2","1","","3","1","1,0.7,0,1,0.7,0,0.7,0,1","0,1,0.7,0,1,0.7,1,0.7,0","3",""
"","html-keyboard-response","303","176472","0.0-393.0","3TXWC2NHN0CTBUP07D6VS9WN0SK9S8","A2EK1HDV4I4GSK","32XN26MTXZ5MP383W6LZYTLBY7P0LI","","null","<img src=""img/food5.png"" style=""width:200px; border:14px solid green;"">","null","","","","","","","","","",""
"","image-keyboard-response","304","176896","0.0-394.0","3TXWC2NHN0CTBUP07D6VS9WN0SK9S8","A2EK1HDV4I4GSK","32XN26MTXZ5MP383W6LZYTLBY7P0LI","","422.7000000476837","img/food2.png","75","424","2","1","","1","1","1,0.7,0,1,0.7,0,0.7,0,1","0,1,0.7,0,1,0.7,1,0.7,0","3",""
"","html-keyboard-response","305","177198","0.0-395.0","3TXWC2NHN0CTBUP07D6VS9WN0SK9S8","A2EK1HDV4I4GSK","32XN26MTXZ5MP383W6LZYTLBY7P0LI","","null","<img src=""img/food2.png"" style=""width:200px; border:14px solid green;"">","null","","","","","","","","","",""
"","image-keyboard-response","306","177576","0.0-396.0","3TXWC2NHN0CTBUP07D6VS9WN0SK9S8","A2EK1HDV4I4GSK","32XN26MTXZ5MP383W6LZYTLBY7P0LI","","376.5","img/food2.png","75","377.89999997615814","2","1","","1","1","1,0.7,0,1,0.7,0,0.7,0,1","0,1,0.7,0,1,0.7,1,0.7,0","3",""
"","html-keyboard-response","307","177879","0.0-397.0","3TXWC2NHN0CTBUP07D6VS9WN0SK9S8","A2EK1HDV4I4GSK","32XN26MTXZ5MP383W6LZYTLBY7P0LI","","null","<img src=""img/food2.png"" style=""width:200px; border:14px solid green;"">","null","","","","","","","","","",""
"","image-keyboard-response","308","178273","0.0-398.0","3TXWC2NHN0CTBUP07D6VS9WN0SK9S8","A2EK1HDV4I4GSK","32XN26MTXZ5MP383W6LZYTLBY7P0LI","","391.2999999523163","img/food2.png","75","393","2","1","","1","1","1,0.7,0,1,0.7,0,0.7,0,1","0,1,0.7,0,1,0.7,1,0.7,0","3",""
"","html-keyboard-response","309","178575","0.0-399.0","3TXWC2NHN0CTBUP07D6VS9WN0SK9S8","A2EK1HDV4I4GSK","32XN26MTXZ5MP383W6LZYTLBY7P0LI","","null","<img src=""img/food2.png"" style=""width:200px; border:14px solid green;"">","null","","","","","","","","","",""
"","image-keyboard-response","310","178953","0.0-400.0","3TXWC2NHN0CTBUP07D6VS9WN0SK9S8","A2EK1HDV4I4GSK","32XN26MTXZ5MP383W6LZYTLBY7P0LI","","375.39999997615814","img/food5.png","75","376.90000009536743","2","1","","3","1","1,0.7,0,1,0.7,0,0.7,0,1","0,1,0.7,0,1,0.7,1,0.7,0","3",""
"","html-keyboard-response","311","179255","0.0-401.0","3TXWC2NHN0CTBUP07D6VS9WN0SK9S8","A2EK1HDV4I4GSK","32XN26MTXZ5MP383W6LZYTLBY7P0LI","","null","<img src=""img/food5.png"" style=""width:200px; border:14px solid green;"">","null","","","","","","","","","",""
"","image-keyboard-response","312","179705","0.0-402.0","3TXWC2NHN0CTBUP07D6VS9WN0SK9S8","A2EK1HDV4I4GSK","32XN26MTXZ5MP383W6LZYTLBY7P0LI","","447.7000000476837","img/food2.png","75","449.3000000715256","2","1","","1","1","1,0.7,0,1,0.7,0,0.7,0,1","0,1,0.7,0,1,0.7,1,0.7,0","3",""
"","html-keyboard-response","313","180008","0.0-403.0","3TXWC2NHN0CTBUP07D6VS9WN0SK9S8","A2EK1HDV4I4GSK","32XN26MTXZ5MP383W6LZYTLBY7P0LI","","null","<img src=""img/food2.png"" style=""width:200px; border:14px solid green;"">","null","","","","","","","","","",""
"","image-keyboard-response","314","180385","0.0-404.0","3TXWC2NHN0CTBUP07D6VS9WN0SK9S8","A2EK1HDV4I4GSK","32XN26MTXZ5MP383W6LZYTLBY7P0LI","","375.5","img/food5.png","75","377.2000000476837","2","0","","3","1","1,0.7,0,1,0.7,0,0.7,0,1","0,1,0.7,0,1,0.7,1,0.7,0","3",""
"","html-keyboard-response","315","180688","0.0-405.0","3TXWC2NHN0CTBUP07D6VS9WN0SK9S8","A2EK1HDV4I4GSK","32XN26MTXZ5MP383W6LZYTLBY7P0LI","","null","<img src=""img/food5.png"" style=""width:200px;border:14px solid red;"">","null","","","","","","","","","",""
"","image-keyboard-response","316","181105","0.0-406.0","3TXWC2NHN0CTBUP07D6VS9WN0SK9S8","A2EK1HDV4I4GSK","32XN26MTXZ5MP383W6LZYTLBY7P0LI","","414.7000000476837","img/food5.png","75","416","2","1","","3","1","1,0.7,0,1,0.7,0,0.7,0,1","0,1,0.7,0,1,0.7,1,0.7,0","3",""
"","html-keyboard-response","317","181407","0.0-407.0","3TXWC2NHN0CTBUP07D6VS9WN0SK9S8","A2EK1HDV4I4GSK","32XN26MTXZ5MP383W6LZYTLBY7P0LI","","null","<img src=""img/food5.png"" style=""width:200px; border:14px solid green;"">","null","","","","","","","","","",""
"","image-keyboard-response","318","181833","0.0-408.0","3TXWC2NHN0CTBUP07D6VS9WN0SK9S8","A2EK1HDV4I4GSK","32XN26MTXZ5MP383W6LZYTLBY7P0LI","","424.39999997615814","img/food2.png","75","425.89999997615814","2","1","","1","1","1,0.7,0,1,0.7,0,0.7,0,1","0,1,0.7,0,1,0.7,1,0.7,0","3",""
"","html-keyboard-response","319","182136","0.0-409.0","3TXWC2NHN0CTBUP07D6VS9WN0SK9S8","A2EK1HDV4I4GSK","32XN26MTXZ5MP383W6LZYTLBY7P0LI","","null","<img src=""img/food2.png"" style=""width:200px; border:14px solid green;"">","null","","","","","","","","","",""
"","image-keyboard-response","320","182658","0.0-410.0","3TXWC2NHN0CTBUP07D6VS9WN0SK9S8","A2EK1HDV4I4GSK","32XN26MTXZ5MP383W6LZYTLBY7P0LI","","520","img/food4.png","75","521.6999999284744","2","1","","2","1","1,0.7,0,1,0.7,0,0.7,0,1","0,1,0.7,0,1,0.7,1,0.7,0","3",""
"","html-keyboard-response","321","182960","0.0-411.0","3TXWC2NHN0CTBUP07D6VS9WN0SK9S8","A2EK1HDV4I4GSK","32XN26MTXZ5MP383W6LZYTLBY7P0LI","","null","<img src=""img/food4.png"" style=""width:200px; border:14px solid green;"">","null","","","","","","","","","",""
"","image-keyboard-response","322","183289","0.0-412.0","3TXWC2NHN0CTBUP07D6VS9WN0SK9S8","A2EK1HDV4I4GSK","32XN26MTXZ5MP383W6LZYTLBY7P0LI","","326.1999999284744","img/food4.png","74","327.89999997615814","1","0","","2","1","1,0.7,0,1,0.7,0,0.7,0,1","0,1,0.7,0,1,0.7,1,0.7,0","3",""
"","html-keyboard-response","323","183591","0.0-413.0","3TXWC2NHN0CTBUP07D6VS9WN0SK9S8","A2EK1HDV4I4GSK","32XN26MTXZ5MP383W6LZYTLBY7P0LI","","null","<img src=""img/food4.png"" style=""width:200px;border:14px solid red;"">","null","","","","","","","","","",""
"","image-keyboard-response","324","184257","0.0-414.0","3TXWC2NHN0CTBUP07D6VS9WN0SK9S8","A2EK1HDV4I4GSK","32XN26MTXZ5MP383W6LZYTLBY7P0LI","","664.1999999284744","img/food5.png","74","665.7000000476837","1","1","","3","1","1,0.7,0,1,0.7,0,0.7,0,1","0,1,0.7,0,1,0.7,1,0.7,0","3",""
"","html-keyboard-response","325","184559","0.0-415.0","3TXWC2NHN0CTBUP07D6VS9WN0SK9S8","A2EK1HDV4I4GSK","32XN26MTXZ5MP383W6LZYTLBY7P0LI","","null","<img src=""img/food5.png"" style=""width:200px; border:14px solid green;"">","null","","","","","","","","","",""
"","image-keyboard-response","326","185008","0.0-416.0","3TXWC2NHN0CTBUP07D6VS9WN0SK9S8","A2EK1HDV4I4GSK","32XN26MTXZ5MP383W6LZYTLBY7P0LI","","447.5","img/food5.png","74","448.89999997615814","1","1","","3","1","1,0.7,0,1,0.7,0,0.7,0,1","0,1,0.7,0,1,0.7,1,0.7,0","3",""
"","html-keyboard-response","327","185312","0.0-417.0","3TXWC2NHN0CTBUP07D6VS9WN0SK9S8","A2EK1HDV4I4GSK","32XN26MTXZ5MP383W6LZYTLBY7P0LI","","null","<img src=""img/food5.png"" style=""width:200px; border:14px solid green;"">","null","","","","","","","","","",""
"","image-keyboard-response","328","185665","0.0-418.0","3TXWC2NHN0CTBUP07D6VS9WN0SK9S8","A2EK1HDV4I4GSK","32XN26MTXZ5MP383W6LZYTLBY7P0LI","","351","img/food2.png","74","352.60000002384186","1","0","","1","1","1,0.7,0,1,0.7,0,0.7,0,1","0,1,0.7,0,1,0.7,1,0.7,0","3",""
"","html-keyboard-response","329","185967","0.0-419.0","3TXWC2NHN0CTBUP07D6VS9WN0SK9S8","A2EK1HDV4I4GSK","32XN26MTXZ5MP383W6LZYTLBY7P0LI","","null","<img src=""img/food2.png"" style=""width:200px;border:14px solid red;"">","null","","","","","","","","","",""
"","image-keyboard-response","330","186456","0.0-420.0","3TXWC2NHN0CTBUP07D6VS9WN0SK9S8","A2EK1HDV4I4GSK","32XN26MTXZ5MP383W6LZYTLBY7P0LI","","487.7999999523163","img/food5.png","75","489.2000000476837","2","1","","3","1","1,0.7,0,1,0.7,0,0.7,0,1","0,1,0.7,0,1,0.7,1,0.7,0","3",""
"","html-keyboard-response","331","186759","0.0-421.0","3TXWC2NHN0CTBUP07D6VS9WN0SK9S8","A2EK1HDV4I4GSK","32XN26MTXZ5MP383W6LZYTLBY7P0LI","","null","<img src=""img/food5.png"" style=""width:200px; border:14px solid green;"">","null","","","","","","","","","",""
"","image-keyboard-response","332","188009","0.0-422.0","3TXWC2NHN0CTBUP07D6VS9WN0SK9S8","A2EK1HDV4I4GSK","32XN26MTXZ5MP383W6LZYTLBY7P0LI","","1247.7000000476837","img/food4.png","75","1249.3000000715256","2","1","","2","1","1,0.7,0,1,0.7,0,0.7,0,1","0,1,0.7,0,1,0.7,1,0.7,0","3",""
"","html-keyboard-response","333","188312","0.0-423.0","3TXWC2NHN0CTBUP07D6VS9WN0SK9S8","A2EK1HDV4I4GSK","32XN26MTXZ5MP383W6LZYTLBY7P0LI","","null","<img src=""img/food4.png"" style=""width:200px; border:14px solid green;"">","null","","","","","","","","","",""
"","image-keyboard-response","334","188641","0.0-424.0","3TXWC2NHN0CTBUP07D6VS9WN0SK9S8","A2EK1HDV4I4GSK","32XN26MTXZ5MP383W6LZYTLBY7P0LI","","327.7000000476837","img/food4.png","75","328.8000000715256","2","1","","2","1","1,0.7,0,1,0.7,0,0.7,0,1","0,1,0.7,0,1,0.7,1,0.7,0","3",""
"","html-keyboard-response","335","188944","0.0-425.0","3TXWC2NHN0CTBUP07D6VS9WN0SK9S8","A2EK1HDV4I4GSK","32XN26MTXZ5MP383W6LZYTLBY7P0LI","","null","<img src=""img/food4.png"" style=""width:200px; border:14px solid green;"">","null","","","","","","","","","",""
"","image-keyboard-response","336","189352","0.0-426.0","3TXWC2NHN0CTBUP07D6VS9WN0SK9S8","A2EK1HDV4I4GSK","32XN26MTXZ5MP383W6LZYTLBY7P0LI","","406.90000009536743","img/food4.png","75","408.2000000476837","2","1","","2","1","1,0.7,0,1,0.7,0,0.7,0,1","0,1,0.7,0,1,0.7,1,0.7,0","3",""
"","html-keyboard-response","337","189654","0.0-427.0","3TXWC2NHN0CTBUP07D6VS9WN0SK9S8","A2EK1HDV4I4GSK","32XN26MTXZ5MP383W6LZYTLBY7P0LI","","null","<img src=""img/food4.png"" style=""width:200px; border:14px solid green;"">","null","","","","","","","","","",""
"","image-keyboard-response","338","190578","0.0-428.0","3TXWC2NHN0CTBUP07D6VS9WN0SK9S8","A2EK1HDV4I4GSK","32XN26MTXZ5MP383W6LZYTLBY7P0LI","","921.3999999761581","img/food2.png","74","923","1","0","","1","1","1,0.7,0,1,0.7,0,0.7,0,1","0,1,0.7,0,1,0.7,1,0.7,0","3",""
"","html-keyboard-response","339","190880","0.0-429.0","3TXWC2NHN0CTBUP07D6VS9WN0SK9S8","A2EK1HDV4I4GSK","32XN26MTXZ5MP383W6LZYTLBY7P0LI","","null","<img src=""img/food2.png"" style=""width:200px;border:14px solid red;"">","null","","","","","","","","","",""
"","image-keyboard-response","340","191569","0.0-430.0","3TXWC2NHN0CTBUP07D6VS9WN0SK9S8","A2EK1HDV4I4GSK","32XN26MTXZ5MP383W6LZYTLBY7P0LI","","687.2999999523163","img/food5.png","75","689","2","1","","3","1","1,0.7,0,1,0.7,0,0.7,0,1","0,1,0.7,0,1,0.7,1,0.7,0","3",""
"","html-keyboard-response","341","191873","0.0-431.0","3TXWC2NHN0CTBUP07D6VS9WN0SK9S8","A2EK1HDV4I4GSK","32XN26MTXZ5MP383W6LZYTLBY7P0LI","","null","<img src=""img/food5.png"" style=""width:200px; border:14px solid green;"">","null","","","","","","","","","",""
"","image-keyboard-response","342","192194","0.0-432.0","3TXWC2NHN0CTBUP07D6VS9WN0SK9S8","A2EK1HDV4I4GSK","32XN26MTXZ5MP383W6LZYTLBY7P0LI","","319.7000000476837","img/food2.png","75","321.2999999523163","2","1","","1","1","1,0.7,0,1,0.7,0,0.7,0,1","0,1,0.7,0,1,0.7,1,0.7,0","3",""
"","html-keyboard-response","343","192497","0.0-433.0","3TXWC2NHN0CTBUP07D6VS9WN0SK9S8","A2EK1HDV4I4GSK","32XN26MTXZ5MP383W6LZYTLBY7P0LI","","null","<img src=""img/food2.png"" style=""width:200px; border:14px solid green;"">","null","","","","","","","","","",""
"","image-keyboard-response","344","192849","0.0-434.0","3TXWC2NHN0CTBUP07D6VS9WN0SK9S8","A2EK1HDV4I4GSK","32XN26MTXZ5MP383W6LZYTLBY7P0LI","","351.09999990463257","img/food4.png","75","352.10000002384186","2","1","","2","1","1,0.7,0,1,0.7,0,0.7,0,1","0,1,0.7,0,1,0.7,1,0.7,0","3",""
"","html-keyboard-response","345","193151","0.0-435.0","3TXWC2NHN0CTBUP07D6VS9WN0SK9S8","A2EK1HDV4I4GSK","32XN26MTXZ5MP383W6LZYTLBY7P0LI","","null","<img src=""img/food4.png"" style=""width:200px; border:14px solid green;"">","null","","","","","","","","","",""
"","image-keyboard-response","346","193627","0.0-436.0","3TXWC2NHN0CTBUP07D6VS9WN0SK9S8","A2EK1HDV4I4GSK","32XN26MTXZ5MP383W6LZYTLBY7P0LI","","473.2999999523163","img/food5.png","75","474.8000000715256","2","0","","3","1","1,0.7,0,1,0.7,0,0.7,0,1","0,1,0.7,0,1,0.7,1,0.7,0","3",""
"","html-keyboard-response","347","193929","0.0-437.0","3TXWC2NHN0CTBUP07D6VS9WN0SK9S8","A2EK1HDV4I4GSK","32XN26MTXZ5MP383W6LZYTLBY7P0LI","","null","<img src=""img/food5.png"" style=""width:200px;border:14px solid red;"">","null","","","","","","","","","",""
"","image-keyboard-response","348","195402","0.0-438.0","3TXWC2NHN0CTBUP07D6VS9WN0SK9S8","A2EK1HDV4I4GSK","32XN26MTXZ5MP383W6LZYTLBY7P0LI","","1470.7000000476837","img/food4.png","75","1472","2","1","","2","1","1,0.7,0,1,0.7,0,0.7,0,1","0,1,0.7,0,1,0.7,1,0.7,0","3",""
"","html-keyboard-response","349","195704","0.0-439.0","3TXWC2NHN0CTBUP07D6VS9WN0SK9S8","A2EK1HDV4I4GSK","32XN26MTXZ5MP383W6LZYTLBY7P0LI","","null","<img src=""img/food4.png"" style=""width:200px; border:14px solid green;"">","null","","","","","","","","","",""
"","image-keyboard-response","350","196217","0.0-440.0","3TXWC2NHN0CTBUP07D6VS9WN0SK9S8","A2EK1HDV4I4GSK","32XN26MTXZ5MP383W6LZYTLBY7P0LI","","511","img/food2.png","75","512.6999999284744","2","1","","1","1","1,0.7,0,1,0.7,0,0.7,0,1","0,1,0.7,0,1,0.7,1,0.7,0","3",""
"","html-keyboard-response","351","196520","0.0-441.0","3TXWC2NHN0CTBUP07D6VS9WN0SK9S8","A2EK1HDV4I4GSK","32XN26MTXZ5MP383W6LZYTLBY7P0LI","","null","<img src=""img/food2.png"" style=""width:200px; border:14px solid green;"">","null","","","","","","","","","",""
"","image-keyboard-response","352","196993","0.0-442.0","3TXWC2NHN0CTBUP07D6VS9WN0SK9S8","A2EK1HDV4I4GSK","32XN26MTXZ5MP383W6LZYTLBY7P0LI","","471.1999999284744","img/food2.png","75","472.7000000476837","2","1","","1","1","1,0.7,0,1,0.7,0,0.7,0,1","0,1,0.7,0,1,0.7,1,0.7,0","3",""
"","html-keyboard-response","353","197296","0.0-443.0","3TXWC2NHN0CTBUP07D6VS9WN0SK9S8","A2EK1HDV4I4GSK","32XN26MTXZ5MP383W6LZYTLBY7P0LI","","null","<img src=""img/food2.png"" style=""width:200px; border:14px solid green;"">","null","","","","","","","","","",""
"","image-keyboard-response","354","197945","0.0-444.0","3TXWC2NHN0CTBUP07D6VS9WN0SK9S8","A2EK1HDV4I4GSK","32XN26MTXZ5MP383W6LZYTLBY7P0LI","","647.1999999284744","img/food4.png","75","648.8000000715256","2","1","","2","1","1,0.7,0,1,0.7,0,0.7,0,1","0,1,0.7,0,1,0.7,1,0.7,0","3",""
"","html-keyboard-response","355","198249","0.0-445.0","3TXWC2NHN0CTBUP07D6VS9WN0SK9S8","A2EK1HDV4I4GSK","32XN26MTXZ5MP383W6LZYTLBY7P0LI","","null","<img src=""img/food4.png"" style=""width:200px; border:14px solid green;"">","null","","","","","","","","","",""
"","image-keyboard-response","356","198697","0.0-446.0","3TXWC2NHN0CTBUP07D6VS9WN0SK9S8","A2EK1HDV4I4GSK","32XN26MTXZ5MP383W6LZYTLBY7P0LI","","446.2999999523163","img/food5.png","75","447.90000009536743","2","1","","3","1","1,0.7,0,1,0.7,0,0.7,0,1","0,1,0.7,0,1,0.7,1,0.7,0","3",""
"","html-keyboard-response","357","199000","0.0-447.0","3TXWC2NHN0CTBUP07D6VS9WN0SK9S8","A2EK1HDV4I4GSK","32XN26MTXZ5MP383W6LZYTLBY7P0LI","","null","<img src=""img/food5.png"" style=""width:200px; border:14px solid green;"">","null","","","","","","","","","",""
"","image-keyboard-response","358","199409","0.0-448.0","3TXWC2NHN0CTBUP07D6VS9WN0SK9S8","A2EK1HDV4I4GSK","32XN26MTXZ5MP383W6LZYTLBY7P0LI","","406.60000002384186","img/food2.png","75","408","2","1","","1","1","1,0.7,0,1,0.7,0,0.7,0,1","0,1,0.7,0,1,0.7,1,0.7,0","3",""
"","html-keyboard-response","359","199711","0.0-449.0","3TXWC2NHN0CTBUP07D6VS9WN0SK9S8","A2EK1HDV4I4GSK","32XN26MTXZ5MP383W6LZYTLBY7P0LI","","null","<img src=""img/food2.png"" style=""width:200px; border:14px solid green;"">","null","","","","","","","","","",""
"","image-keyboard-response","360","200153","0.0-450.0","3TXWC2NHN0CTBUP07D6VS9WN0SK9S8","A2EK1HDV4I4GSK","32XN26MTXZ5MP383W6LZYTLBY7P0LI","","439.7999999523163","img/food5.png","75","441.2999999523163","2","1","","3","1","1,0.7,0,1,0.7,0,0.7,0,1","0,1,0.7,0,1,0.7,1,0.7,0","3",""
"","html-keyboard-response","361","200456","0.0-451.0","3TXWC2NHN0CTBUP07D6VS9WN0SK9S8","A2EK1HDV4I4GSK","32XN26MTXZ5MP383W6LZYTLBY7P0LI","","null","<img src=""img/food5.png"" style=""width:200px; border:14px solid green;"">","null","","","","","","","","","",""
"","image-keyboard-response","362","200858","0.0-452.0","3TXWC2NHN0CTBUP07D6VS9WN0SK9S8","A2EK1HDV4I4GSK","32XN26MTXZ5MP383W6LZYTLBY7P0LI","","400","img/food5.png","75","401.7000000476837","2","0","","3","1","1,0.7,0,1,0.7,0,0.7,0,1","0,1,0.7,0,1,0.7,1,0.7,0","3",""
"","html-keyboard-response","363","201160","0.0-453.0","3TXWC2NHN0CTBUP07D6VS9WN0SK9S8","A2EK1HDV4I4GSK","32XN26MTXZ5MP383W6LZYTLBY7P0LI","","null","<img src=""img/food5.png"" style=""width:200px;border:14px solid red;"">","null","","","","","","","","","",""
"","html-keyboard-response","364","221516","0.0-454.0","3TXWC2NHN0CTBUP07D6VS9WN0SK9S8","A2EK1HDV4I4GSK","32XN26MTXZ5MP383W6LZYTLBY7P0LI","","","","","","","","","","","","","",""
"","instructions","365","226550","0.0-455.0","3TXWC2NHN0CTBUP07D6VS9WN0SK9S8","A2EK1HDV4I4GSK","32XN26MTXZ5MP383W6LZYTLBY7P0LI","[{""page_index"":0,""viewing_time"":5033.300000071526}]","5033.5","","","","","","","","","","","",""
"","survey-text","366","233985","0.0-456.0","3TXWC2NHN0CTBUP07D6VS9WN0SK9S8","A2EK1HDV4I4GSK","32XN26MTXZ5MP383W6LZYTLBY7P0LI","","7431.600000023842","","","","","","","","","","","","{""Q0"":""A2EK1HDV4I4GSK""}"
