"success","trial_type","trial_index","time_elapsed","internal_node_id","assignmentID","mturkID","hitID","view_history","rt","stimulus","key_press","reactionTime","a","r","s","cond","reward_cond","reward_cond_actual","reward_matrix_idx","warning","responses"
"true","fullscreen","0","5673","0.0-0.0","3SNVL38CI5EXL9JVEO7K3D6LQGVCKR","A2FP41BSPG0Y4A","3I7KR83SNAZT1REYB2SRC49PCEEK9H","","","","","","","","","","","","","",""
"","instructions","1","78152","0.0-1.0","3SNVL38CI5EXL9JVEO7K3D6LQGVCKR","A2FP41BSPG0Y4A","3I7KR83SNAZT1REYB2SRC49PCEEK9H","[{""page_index"":0,""viewing_time"":4842.5},{""page_index"":1,""viewing_time"":3444.5},{""page_index"":2,""viewing_time"":47582.200000047684},{""page_index"":3,""viewing_time"":7282.299999952316},{""page_index"":4,""viewing_time"":3775},{""page_index"":5,""viewing_time"":2105.5999999046326},{""page_index"":6,""viewing_time"":3442.7000000476837}]","72475.79999995232","","","","","","","","","","","",""
"","image-keyboard-response","2","79247","0.0-2.0","3SNVL38CI5EXL9JVEO7K3D6LQGVCKR","A2FP41BSPG0Y4A","3I7KR83SNAZT1REYB2SRC49PCEEK9H","","1092.2999999523163","img/food2.png","75","1094.7000000476837","2","1","1","1","1,0.5,0,1,0.5,0,0.5,0,1","0,1,0.5,0,1,0.5,1,0.5,0","3","",""
"","html-keyboard-response","3","79560","0.0-3.0","3SNVL38CI5EXL9JVEO7K3D6LQGVCKR","A2FP41BSPG0Y4A","3I7KR83SNAZT1REYB2SRC49PCEEK9H","","null","<img src=""img/food2.png"" style=""width:200px; border:14px solid green;"">","null","","","","","","","","","",""
"","image-keyboard-response","4","80090","0.0-4.0","3SNVL38CI5EXL9JVEO7K3D6LQGVCKR","A2FP41BSPG0Y4A","3I7KR83SNAZT1REYB2SRC49PCEEK9H","","528","img/food6.png","76","530","3","1","2","1","1,0.5,0,1,0.5,0,0.5,0,1","0,1,0.5,0,1,0.5,1,0.5,0","3","",""
"","html-keyboard-response","5","80403","0.0-5.0","3SNVL38CI5EXL9JVEO7K3D6LQGVCKR","A2FP41BSPG0Y4A","3I7KR83SNAZT1REYB2SRC49PCEEK9H","","null","<img src=""img/food6.png"" style=""width:200px; border:14px solid green;"">","null","","","","","","","","","",""
"","image-keyboard-response","6","80991","0.0-6.0","3SNVL38CI5EXL9JVEO7K3D6LQGVCKR","A2FP41BSPG0Y4A","3I7KR83SNAZT1REYB2SRC49PCEEK9H","","585.6000001430511","img/food6.png","76","588.2000000476837","3","1","2","1","1,0.5,0,1,0.5,0,0.5,0,1","0,1,0.5,0,1,0.5,1,0.5,0","3","",""
"","html-keyboard-response","7","81296","0.0-7.0","3SNVL38CI5EXL9JVEO7K3D6LQGVCKR","A2FP41BSPG0Y4A","3I7KR83SNAZT1REYB2SRC49PCEEK9H","","null","<img src=""img/food6.png"" style=""width:200px; border:14px solid green;"">","null","","","","","","","","","",""
"","image-keyboard-response","8","81796","0.0-8.0","3SNVL38CI5EXL9JVEO7K3D6LQGVCKR","A2FP41BSPG0Y4A","3I7KR83SNAZT1REYB2SRC49PCEEK9H","","497.80000019073486","img/food6.png","76","499.5","3","1","2","1","1,0.5,0,1,0.5,0,0.5,0,1","0,1,0.5,0,1,0.5,1,0.5,0","3","",""
"","html-keyboard-response","9","82100","0.0-9.0","3SNVL38CI5EXL9JVEO7K3D6LQGVCKR","A2FP41BSPG0Y4A","3I7KR83SNAZT1REYB2SRC49PCEEK9H","","null","<img src=""img/food6.png"" style=""width:200px; border:14px solid green;"">","null","","","","","","","","","",""
"","image-keyboard-response","10","82525","0.0-10.0","3SNVL38CI5EXL9JVEO7K3D6LQGVCKR","A2FP41BSPG0Y4A","3I7KR83SNAZT1REYB2SRC49PCEEK9H","","423.2999999523163","img/food6.png","76","425.2999999523163","3","0","2","1","1,0.5,0,1,0.5,0,0.5,0,1","0,1,0.5,0,1,0.5,1,0.5,0","3","",""
"","html-keyboard-response","11","82831","0.0-11.0","3SNVL38CI5EXL9JVEO7K3D6LQGVCKR","A2FP41BSPG0Y4A","3I7KR83SNAZT1REYB2SRC49PCEEK9H","","null","<img src=""img/food6.png"" style=""width:200px;border:14px solid red;"">","null","","","","","","","","","",""
"","image-keyboard-response","12","83424","0.0-12.0","3SNVL38CI5EXL9JVEO7K3D6LQGVCKR","A2FP41BSPG0Y4A","3I7KR83SNAZT1REYB2SRC49PCEEK9H","","590.4000000953674","img/food1.png","75","592","2","0","3","1","1,0.5,0,1,0.5,0,0.5,0,1","0,1,0.5,0,1,0.5,1,0.5,0","3","",""
"","html-keyboard-response","13","83733","0.0-13.0","3SNVL38CI5EXL9JVEO7K3D6LQGVCKR","A2FP41BSPG0Y4A","3I7KR83SNAZT1REYB2SRC49PCEEK9H","","null","<img src=""img/food1.png"" style=""width:200px;border:14px solid red;"">","null","","","","","","","","","",""
"","image-keyboard-response","14","83919","0.0-14.0","3SNVL38CI5EXL9JVEO7K3D6LQGVCKR","A2FP41BSPG0Y4A","3I7KR83SNAZT1REYB2SRC49PCEEK9H","","184.40000009536743","img/food2.png","74","186","1","0","1","1","1,0.5,0,1,0.5,0,0.5,0,1","0,1,0.5,0,1,0.5,1,0.5,0","3","",""
"","html-keyboard-response","15","84231","0.0-15.0","3SNVL38CI5EXL9JVEO7K3D6LQGVCKR","A2FP41BSPG0Y4A","3I7KR83SNAZT1REYB2SRC49PCEEK9H","","null","<img src=""img/food2.png"" style=""width:200px;border:14px solid red;"">","null","","","","","","","","","",""
"","image-keyboard-response","16","84718","0.0-16.0","3SNVL38CI5EXL9JVEO7K3D6LQGVCKR","A2FP41BSPG0Y4A","3I7KR83SNAZT1REYB2SRC49PCEEK9H","","485","img/food6.png","75","487.09999990463257","2","1","2","1","1,0.5,0,1,0.5,0,0.5,0,1","0,1,0.5,0,1,0.5,1,0.5,0","3","",""
"","html-keyboard-response","17","85023","0.0-17.0","3SNVL38CI5EXL9JVEO7K3D6LQGVCKR","A2FP41BSPG0Y4A","3I7KR83SNAZT1REYB2SRC49PCEEK9H","","null","<img src=""img/food6.png"" style=""width:200px; border:14px solid green;"">","null","","","","","","","","","",""
"","image-keyboard-response","18","85584","0.0-18.0","3SNVL38CI5EXL9JVEO7K3D6LQGVCKR","A2FP41BSPG0Y4A","3I7KR83SNAZT1REYB2SRC49PCEEK9H","","559.2000000476837","img/food6.png","75","561","2","1","2","1","1,0.5,0,1,0.5,0,0.5,0,1","0,1,0.5,0,1,0.5,1,0.5,0","3","",""
"","html-keyboard-response","19","85892","0.0-19.0","3SNVL38CI5EXL9JVEO7K3D6LQGVCKR","A2FP41BSPG0Y4A","3I7KR83SNAZT1REYB2SRC49PCEEK9H","","null","<img src=""img/food6.png"" style=""width:200px; border:14px solid green;"">","null","","","","","","","","","",""
"","image-keyboard-response","20","86311","0.0-20.0","3SNVL38CI5EXL9JVEO7K3D6LQGVCKR","A2FP41BSPG0Y4A","3I7KR83SNAZT1REYB2SRC49PCEEK9H","","416.69999980926514","img/food6.png","75","418.5","2","1","2","1","1,0.5,0,1,0.5,0,0.5,0,1","0,1,0.5,0,1,0.5,1,0.5,0","3","",""
"","html-keyboard-response","21","86619","0.0-21.0","3SNVL38CI5EXL9JVEO7K3D6LQGVCKR","A2FP41BSPG0Y4A","3I7KR83SNAZT1REYB2SRC49PCEEK9H","","null","<img src=""img/food6.png"" style=""width:200px; border:14px solid green;"">","null","","","","","","","","","",""
"","image-keyboard-response","22","87098","0.0-22.0","3SNVL38CI5EXL9JVEO7K3D6LQGVCKR","A2FP41BSPG0Y4A","3I7KR83SNAZT1REYB2SRC49PCEEK9H","","475.90000009536743","img/food1.png","76","477.90000009536743","3","0","3","1","1,0.5,0,1,0.5,0,0.5,0,1","0,1,0.5,0,1,0.5,1,0.5,0","3","",""
"","html-keyboard-response","23","87410","0.0-23.0","3SNVL38CI5EXL9JVEO7K3D6LQGVCKR","A2FP41BSPG0Y4A","3I7KR83SNAZT1REYB2SRC49PCEEK9H","","null","<img src=""img/food1.png"" style=""width:200px;border:14px solid red;"">","null","","","","","","","","","",""
"","image-keyboard-response","24","87897","0.0-24.0","3SNVL38CI5EXL9JVEO7K3D6LQGVCKR","A2FP41BSPG0Y4A","3I7KR83SNAZT1REYB2SRC49PCEEK9H","","484.7999999523163","img/food6.png","74","486.5","1","0","2","1","1,0.5,0,1,0.5,0,0.5,0,1","0,1,0.5,0,1,0.5,1,0.5,0","3","",""
"","html-keyboard-response","25","88200","0.0-25.0","3SNVL38CI5EXL9JVEO7K3D6LQGVCKR","A2FP41BSPG0Y4A","3I7KR83SNAZT1REYB2SRC49PCEEK9H","","null","<img src=""img/food6.png"" style=""width:200px;border:14px solid red;"">","null","","","","","","","","","",""
"","image-keyboard-response","26","88335","0.0-26.0","3SNVL38CI5EXL9JVEO7K3D6LQGVCKR","A2FP41BSPG0Y4A","3I7KR83SNAZT1REYB2SRC49PCEEK9H","","132.79999995231628","img/food6.png","75","134.59999990463257","2","1","2","1","1,0.5,0,1,0.5,0,0.5,0,1","0,1,0.5,0,1,0.5,1,0.5,0","3","",""
"","html-keyboard-response","27","88641","0.0-27.0","3SNVL38CI5EXL9JVEO7K3D6LQGVCKR","A2FP41BSPG0Y4A","3I7KR83SNAZT1REYB2SRC49PCEEK9H","","null","<img src=""img/food6.png"" style=""width:200px; border:14px solid green;"">","null","","","","","","","","","",""
"","image-keyboard-response","28","89039","0.0-28.0","3SNVL38CI5EXL9JVEO7K3D6LQGVCKR","A2FP41BSPG0Y4A","3I7KR83SNAZT1REYB2SRC49PCEEK9H","","396","img/food6.png","75","397.5","2","1","2","1","1,0.5,0,1,0.5,0,0.5,0,1","0,1,0.5,0,1,0.5,1,0.5,0","3","",""
"","html-keyboard-response","29","89344","0.0-29.0","3SNVL38CI5EXL9JVEO7K3D6LQGVCKR","A2FP41BSPG0Y4A","3I7KR83SNAZT1REYB2SRC49PCEEK9H","","null","<img src=""img/food6.png"" style=""width:200px; border:14px solid green;"">","null","","","","","","","","","",""
"","image-keyboard-response","30","90083","0.0-30.0","3SNVL38CI5EXL9JVEO7K3D6LQGVCKR","A2FP41BSPG0Y4A","3I7KR83SNAZT1REYB2SRC49PCEEK9H","","736.7999999523163","img/food2.png","74","738.3999998569489","1","0","1","1","1,0.5,0,1,0.5,0,0.5,0,1","0,1,0.5,0,1,0.5,1,0.5,0","3","",""
"","html-keyboard-response","31","90389","0.0-31.0","3SNVL38CI5EXL9JVEO7K3D6LQGVCKR","A2FP41BSPG0Y4A","3I7KR83SNAZT1REYB2SRC49PCEEK9H","","null","<img src=""img/food2.png"" style=""width:200px;border:14px solid red;"">","null","","","","","","","","","",""
"","image-keyboard-response","32","91024","0.0-32.0","3SNVL38CI5EXL9JVEO7K3D6LQGVCKR","A2FP41BSPG0Y4A","3I7KR83SNAZT1REYB2SRC49PCEEK9H","","632.3999998569489","img/food6.png","75","634","2","1","2","1","1,0.5,0,1,0.5,0,0.5,0,1","0,1,0.5,0,1,0.5,1,0.5,0","3","",""
"","html-keyboard-response","33","91329","0.0-33.0","3SNVL38CI5EXL9JVEO7K3D6LQGVCKR","A2FP41BSPG0Y4A","3I7KR83SNAZT1REYB2SRC49PCEEK9H","","null","<img src=""img/food6.png"" style=""width:200px; border:14px solid green;"">","null","","","","","","","","","",""
"","image-keyboard-response","34","91700","0.0-34.0","3SNVL38CI5EXL9JVEO7K3D6LQGVCKR","A2FP41BSPG0Y4A","3I7KR83SNAZT1REYB2SRC49PCEEK9H","","369.7000000476837","img/food6.png","75","371.5","2","1","2","1","1,0.5,0,1,0.5,0,0.5,0,1","0,1,0.5,0,1,0.5,1,0.5,0","3","",""
"","html-keyboard-response","35","92012","0.0-35.0","3SNVL38CI5EXL9JVEO7K3D6LQGVCKR","A2FP41BSPG0Y4A","3I7KR83SNAZT1REYB2SRC49PCEEK9H","","null","<img src=""img/food6.png"" style=""width:200px; border:14px solid green;"">","null","","","","","","","","","",""
"","image-keyboard-response","36","92468","0.0-36.0","3SNVL38CI5EXL9JVEO7K3D6LQGVCKR","A2FP41BSPG0Y4A","3I7KR83SNAZT1REYB2SRC49PCEEK9H","","453.2999999523163","img/food1.png","76","455.09999990463257","3","0","3","1","1,0.5,0,1,0.5,0,0.5,0,1","0,1,0.5,0,1,0.5,1,0.5,0","3","",""
"","html-keyboard-response","37","92775","0.0-37.0","3SNVL38CI5EXL9JVEO7K3D6LQGVCKR","A2FP41BSPG0Y4A","3I7KR83SNAZT1REYB2SRC49PCEEK9H","","null","<img src=""img/food1.png"" style=""width:200px;border:14px solid red;"">","null","","","","","","","","","",""
"","image-keyboard-response","38","93136","0.0-38.0","3SNVL38CI5EXL9JVEO7K3D6LQGVCKR","A2FP41BSPG0Y4A","3I7KR83SNAZT1REYB2SRC49PCEEK9H","","359.5","img/food2.png","74","361.2000000476837","1","0","1","1","1,0.5,0,1,0.5,0,0.5,0,1","0,1,0.5,0,1,0.5,1,0.5,0","3","",""
"","html-keyboard-response","39","93445","0.0-39.0","3SNVL38CI5EXL9JVEO7K3D6LQGVCKR","A2FP41BSPG0Y4A","3I7KR83SNAZT1REYB2SRC49PCEEK9H","","null","<img src=""img/food2.png"" style=""width:200px;border:14px solid red;"">","null","","","","","","","","","",""
"","image-keyboard-response","40","94253","0.0-40.0","3SNVL38CI5EXL9JVEO7K3D6LQGVCKR","A2FP41BSPG0Y4A","3I7KR83SNAZT1REYB2SRC49PCEEK9H","","806.1000001430511","img/food6.png","75","807.6999998092651","2","1","2","1","1,0.5,0,1,0.5,0,0.5,0,1","0,1,0.5,0,1,0.5,1,0.5,0","3","",""
"","html-keyboard-response","41","94564","0.0-41.0","3SNVL38CI5EXL9JVEO7K3D6LQGVCKR","A2FP41BSPG0Y4A","3I7KR83SNAZT1REYB2SRC49PCEEK9H","","null","<img src=""img/food6.png"" style=""width:200px; border:14px solid green;"">","null","","","","","","","","","",""
"","image-keyboard-response","42","95013","0.0-42.0","3SNVL38CI5EXL9JVEO7K3D6LQGVCKR","A2FP41BSPG0Y4A","3I7KR83SNAZT1REYB2SRC49PCEEK9H","","447.89999985694885","img/food2.png","75","449.2999999523163","2","1","1","1","1,0.5,0,1,0.5,0,0.5,0,1","0,1,0.5,0,1,0.5,1,0.5,0","3","",""
"","html-keyboard-response","43","95321","0.0-43.0","3SNVL38CI5EXL9JVEO7K3D6LQGVCKR","A2FP41BSPG0Y4A","3I7KR83SNAZT1REYB2SRC49PCEEK9H","","null","<img src=""img/food2.png"" style=""width:200px; border:14px solid green;"">","null","","","","","","","","","",""
"","image-keyboard-response","44","95632","0.0-44.0","3SNVL38CI5EXL9JVEO7K3D6LQGVCKR","A2FP41BSPG0Y4A","3I7KR83SNAZT1REYB2SRC49PCEEK9H","","309.59999990463257","img/food2.png","75","311.2999999523163","2","1","1","1","1,0.5,0,1,0.5,0,0.5,0,1","0,1,0.5,0,1,0.5,1,0.5,0","3","",""
"","html-keyboard-response","45","95937","0.0-45.0","3SNVL38CI5EXL9JVEO7K3D6LQGVCKR","A2FP41BSPG0Y4A","3I7KR83SNAZT1REYB2SRC49PCEEK9H","","null","<img src=""img/food2.png"" style=""width:200px; border:14px solid green;"">","null","","","","","","","","","",""
"","image-keyboard-response","46","96485","0.0-46.0","3SNVL38CI5EXL9JVEO7K3D6LQGVCKR","A2FP41BSPG0Y4A","3I7KR83SNAZT1REYB2SRC49PCEEK9H","","545.3000001907349","img/food1.png","75","547","2","1","3","1","1,0.5,0,1,0.5,0,0.5,0,1","0,1,0.5,0,1,0.5,1,0.5,0","3","",""
"","html-keyboard-response","47","96792","0.0-47.0","3SNVL38CI5EXL9JVEO7K3D6LQGVCKR","A2FP41BSPG0Y4A","3I7KR83SNAZT1REYB2SRC49PCEEK9H","","null","<img src=""img/food1.png"" style=""width:200px; border:14px solid green;"">","null","","","","","","","","","",""
"","image-keyboard-response","48","97157","0.0-48.0","3SNVL38CI5EXL9JVEO7K3D6LQGVCKR","A2FP41BSPG0Y4A","3I7KR83SNAZT1REYB2SRC49PCEEK9H","","363.7999999523163","img/food1.png","75","365.40000009536743","2","1","3","1","1,0.5,0,1,0.5,0,0.5,0,1","0,1,0.5,0,1,0.5,1,0.5,0","3","",""
"","html-keyboard-response","49","97463","0.0-49.0","3SNVL38CI5EXL9JVEO7K3D6LQGVCKR","A2FP41BSPG0Y4A","3I7KR83SNAZT1REYB2SRC49PCEEK9H","","null","<img src=""img/food1.png"" style=""width:200px; border:14px solid green;"">","null","","","","","","","","","",""
"","image-keyboard-response","50","97786","0.0-50.0","3SNVL38CI5EXL9JVEO7K3D6LQGVCKR","A2FP41BSPG0Y4A","3I7KR83SNAZT1REYB2SRC49PCEEK9H","","321.59999990463257","img/food1.png","75","323.2999999523163","2","1","3","1","1,0.5,0,1,0.5,0,0.5,0,1","0,1,0.5,0,1,0.5,1,0.5,0","3","",""
"","html-keyboard-response","51","98095","0.0-51.0","3SNVL38CI5EXL9JVEO7K3D6LQGVCKR","A2FP41BSPG0Y4A","3I7KR83SNAZT1REYB2SRC49PCEEK9H","","null","<img src=""img/food1.png"" style=""width:200px; border:14px solid green;"">","null","","","","","","","","","",""
"","image-keyboard-response","52","98384","0.0-52.0","3SNVL38CI5EXL9JVEO7K3D6LQGVCKR","A2FP41BSPG0Y4A","3I7KR83SNAZT1REYB2SRC49PCEEK9H","","286.5","img/food6.png","75","288","2","1","2","1","1,0.5,0,1,0.5,0,0.5,0,1","0,1,0.5,0,1,0.5,1,0.5,0","3","",""
"","html-keyboard-response","53","98698","0.0-53.0","3SNVL38CI5EXL9JVEO7K3D6LQGVCKR","A2FP41BSPG0Y4A","3I7KR83SNAZT1REYB2SRC49PCEEK9H","","null","<img src=""img/food6.png"" style=""width:200px; border:14px solid green;"">","null","","","","","","","","","",""
"","image-keyboard-response","54","99091","0.0-54.0","3SNVL38CI5EXL9JVEO7K3D6LQGVCKR","A2FP41BSPG0Y4A","3I7KR83SNAZT1REYB2SRC49PCEEK9H","","388.10000014305115","img/food2.png","75","392.10000014305115","2","1","1","1","1,0.5,0,1,0.5,0,0.5,0,1","0,1,0.5,0,1,0.5,1,0.5,0","3","",""
"","html-keyboard-response","55","99394","0.0-55.0","3SNVL38CI5EXL9JVEO7K3D6LQGVCKR","A2FP41BSPG0Y4A","3I7KR83SNAZT1REYB2SRC49PCEEK9H","","null","<img src=""img/food2.png"" style=""width:200px; border:14px solid green;"">","null","","","","","","","","","",""
"","image-keyboard-response","56","99730","0.0-56.0","3SNVL38CI5EXL9JVEO7K3D6LQGVCKR","A2FP41BSPG0Y4A","3I7KR83SNAZT1REYB2SRC49PCEEK9H","","334.39999985694885","img/food2.png","75","336.09999990463257","2","1","1","1","1,0.5,0,1,0.5,0,0.5,0,1","0,1,0.5,0,1,0.5,1,0.5,0","3","",""
"","html-keyboard-response","57","100034","0.0-57.0","3SNVL38CI5EXL9JVEO7K3D6LQGVCKR","A2FP41BSPG0Y4A","3I7KR83SNAZT1REYB2SRC49PCEEK9H","","null","<img src=""img/food2.png"" style=""width:200px; border:14px solid green;"">","null","","","","","","","","","",""
"","image-keyboard-response","58","100203","0.0-58.0","3SNVL38CI5EXL9JVEO7K3D6LQGVCKR","A2FP41BSPG0Y4A","3I7KR83SNAZT1REYB2SRC49PCEEK9H","","167.29999995231628","img/food1.png","75","169","2","0","3","1","1,0.5,0,1,0.5,0,0.5,0,1","0,1,0.5,0,1,0.5,1,0.5,0","3","",""
"","html-keyboard-response","59","100512","0.0-59.0","3SNVL38CI5EXL9JVEO7K3D6LQGVCKR","A2FP41BSPG0Y4A","3I7KR83SNAZT1REYB2SRC49PCEEK9H","","null","<img src=""img/food1.png"" style=""width:200px;border:14px solid red;"">","null","","","","","","","","","",""
"","image-keyboard-response","60","100862","0.0-60.0","3SNVL38CI5EXL9JVEO7K3D6LQGVCKR","A2FP41BSPG0Y4A","3I7KR83SNAZT1REYB2SRC49PCEEK9H","","348.2000000476837","img/food2.png","75","350","2","1","1","1","1,0.5,0,1,0.5,0,0.5,0,1","0,1,0.5,0,1,0.5,1,0.5,0","3","",""
"","html-keyboard-response","61","101171","0.0-61.0","3SNVL38CI5EXL9JVEO7K3D6LQGVCKR","A2FP41BSPG0Y4A","3I7KR83SNAZT1REYB2SRC49PCEEK9H","","null","<img src=""img/food2.png"" style=""width:200px; border:14px solid green;"">","null","","","","","","","","","",""
"","image-keyboard-response","62","101386","0.0-62.0","3SNVL38CI5EXL9JVEO7K3D6LQGVCKR","A2FP41BSPG0Y4A","3I7KR83SNAZT1REYB2SRC49PCEEK9H","","213","img/food1.png","75","214.59999990463257","2","1","3","1","1,0.5,0,1,0.5,0,0.5,0,1","0,1,0.5,0,1,0.5,1,0.5,0","3","",""
"","html-keyboard-response","63","101696","0.0-63.0","3SNVL38CI5EXL9JVEO7K3D6LQGVCKR","A2FP41BSPG0Y4A","3I7KR83SNAZT1REYB2SRC49PCEEK9H","","null","<img src=""img/food1.png"" style=""width:200px; border:14px solid green;"">","null","","","","","","","","","",""
"","image-keyboard-response","64","101890","0.0-64.0","3SNVL38CI5EXL9JVEO7K3D6LQGVCKR","A2FP41BSPG0Y4A","3I7KR83SNAZT1REYB2SRC49PCEEK9H","","192.29999995231628","img/food2.png","75","193.70000004768372","2","1","1","1","1,0.5,0,1,0.5,0,0.5,0,1","0,1,0.5,0,1,0.5,1,0.5,0","3","",""
"","html-keyboard-response","65","102195","0.0-65.0","3SNVL38CI5EXL9JVEO7K3D6LQGVCKR","A2FP41BSPG0Y4A","3I7KR83SNAZT1REYB2SRC49PCEEK9H","","null","<img src=""img/food2.png"" style=""width:200px; border:14px solid green;"">","null","","","","","","","","","",""
"","image-keyboard-response","66","102369","0.0-66.0","3SNVL38CI5EXL9JVEO7K3D6LQGVCKR","A2FP41BSPG0Y4A","3I7KR83SNAZT1REYB2SRC49PCEEK9H","","172.59999990463257","img/food6.png","75","174.40000009536743","2","1","2","1","1,0.5,0,1,0.5,0,0.5,0,1","0,1,0.5,0,1,0.5,1,0.5,0","3","",""
"","html-keyboard-response","67","102678","0.0-67.0","3SNVL38CI5EXL9JVEO7K3D6LQGVCKR","A2FP41BSPG0Y4A","3I7KR83SNAZT1REYB2SRC49PCEEK9H","","null","<img src=""img/food6.png"" style=""width:200px; border:14px solid green;"">","null","","","","","","","","","",""
"","image-keyboard-response","68","102939","0.0-68.0","3SNVL38CI5EXL9JVEO7K3D6LQGVCKR","A2FP41BSPG0Y4A","3I7KR83SNAZT1REYB2SRC49PCEEK9H","","258.5","img/food6.png","75","260.40000009536743","2","1","2","1","1,0.5,0,1,0.5,0,0.5,0,1","0,1,0.5,0,1,0.5,1,0.5,0","3","",""
"","html-keyboard-response","69","103248","0.0-69.0","3SNVL38CI5EXL9JVEO7K3D6LQGVCKR","A2FP41BSPG0Y4A","3I7KR83SNAZT1REYB2SRC49PCEEK9H","","null","<img src=""img/food6.png"" style=""width:200px; border:14px solid green;"">","null","","","","","","","","","",""
"","image-keyboard-response","70","103416","0.0-70.0","3SNVL38CI5EXL9JVEO7K3D6LQGVCKR","A2FP41BSPG0Y4A","3I7KR83SNAZT1REYB2SRC49PCEEK9H","","166.19999980926514","img/food6.png","75","167.79999995231628","2","1","2","1","1,0.5,0,1,0.5,0,0.5,0,1","0,1,0.5,0,1,0.5,1,0.5,0","3","",""
"","html-keyboard-response","71","103725","0.0-71.0","3SNVL38CI5EXL9JVEO7K3D6LQGVCKR","A2FP41BSPG0Y4A","3I7KR83SNAZT1REYB2SRC49PCEEK9H","","null","<img src=""img/food6.png"" style=""width:200px; border:14px solid green;"">","null","","","","","","","","","",""
"","image-keyboard-response","72","103957","0.0-72.0","3SNVL38CI5EXL9JVEO7K3D6LQGVCKR","A2FP41BSPG0Y4A","3I7KR83SNAZT1REYB2SRC49PCEEK9H","","230.29999995231628","img/food2.png","75","232","2","1","1","1","1,0.5,0,1,0.5,0,0.5,0,1","0,1,0.5,0,1,0.5,1,0.5,0","3","",""
"","html-keyboard-response","73","104269","0.0-73.0","3SNVL38CI5EXL9JVEO7K3D6LQGVCKR","A2FP41BSPG0Y4A","3I7KR83SNAZT1REYB2SRC49PCEEK9H","","null","<img src=""img/food2.png"" style=""width:200px; border:14px solid green;"">","null","","","","","","","","","",""
"","image-keyboard-response","74","104437","0.0-74.0","3SNVL38CI5EXL9JVEO7K3D6LQGVCKR","A2FP41BSPG0Y4A","3I7KR83SNAZT1REYB2SRC49PCEEK9H","","165.70000004768372","img/food1.png","75","167.29999995231628","2","0","3","1","1,0.5,0,1,0.5,0,0.5,0,1","0,1,0.5,0,1,0.5,1,0.5,0","3","",""
"","html-keyboard-response","75","104742","0.0-75.0","3SNVL38CI5EXL9JVEO7K3D6LQGVCKR","A2FP41BSPG0Y4A","3I7KR83SNAZT1REYB2SRC49PCEEK9H","","null","<img src=""img/food1.png"" style=""width:200px;border:14px solid red;"">","null","","","","","","","","","",""
"","image-keyboard-response","76","105046","0.0-76.0","3SNVL38CI5EXL9JVEO7K3D6LQGVCKR","A2FP41BSPG0Y4A","3I7KR83SNAZT1REYB2SRC49PCEEK9H","","301.60000014305115","img/food6.png","75","303.19999980926514","2","1","2","1","1,0.5,0,1,0.5,0,0.5,0,1","0,1,0.5,0,1,0.5,1,0.5,0","3","",""
"","html-keyboard-response","77","105356","0.0-77.0","3SNVL38CI5EXL9JVEO7K3D6LQGVCKR","A2FP41BSPG0Y4A","3I7KR83SNAZT1REYB2SRC49PCEEK9H","","null","<img src=""img/food6.png"" style=""width:200px; border:14px solid green;"">","null","","","","","","","","","",""
"","image-keyboard-response","78","105507","0.0-78.0","3SNVL38CI5EXL9JVEO7K3D6LQGVCKR","A2FP41BSPG0Y4A","3I7KR83SNAZT1REYB2SRC49PCEEK9H","","149.20000004768372","img/food6.png","75","150.69999980926514","2","1","2","1","1,0.5,0,1,0.5,0,0.5,0,1","0,1,0.5,0,1,0.5,1,0.5,0","3","",""
"","html-keyboard-response","79","105810","0.0-79.0","3SNVL38CI5EXL9JVEO7K3D6LQGVCKR","A2FP41BSPG0Y4A","3I7KR83SNAZT1REYB2SRC49PCEEK9H","","null","<img src=""img/food6.png"" style=""width:200px; border:14px solid green;"">","null","","","","","","","","","",""
"","image-keyboard-response","80","105952","0.0-80.0","3SNVL38CI5EXL9JVEO7K3D6LQGVCKR","A2FP41BSPG0Y4A","3I7KR83SNAZT1REYB2SRC49PCEEK9H","","139.39999985694885","img/food1.png","75","140.79999995231628","2","0","3","1","1,0.5,0,1,0.5,0,0.5,0,1","0,1,0.5,0,1,0.5,1,0.5,0","3","",""
"","html-keyboard-response","81","106259","0.0-81.0","3SNVL38CI5EXL9JVEO7K3D6LQGVCKR","A2FP41BSPG0Y4A","3I7KR83SNAZT1REYB2SRC49PCEEK9H","","null","<img src=""img/food1.png"" style=""width:200px;border:14px solid red;"">","null","","","","","","","","","",""
"","image-keyboard-response","82","106473","0.0-82.0","3SNVL38CI5EXL9JVEO7K3D6LQGVCKR","A2FP41BSPG0Y4A","3I7KR83SNAZT1REYB2SRC49PCEEK9H","","211.29999995231628","img/food6.png","75","213","2","1","2","1","1,0.5,0,1,0.5,0,0.5,0,1","0,1,0.5,0,1,0.5,1,0.5,0","3","",""
"","html-keyboard-response","83","106778","0.0-83.0","3SNVL38CI5EXL9JVEO7K3D6LQGVCKR","A2FP41BSPG0Y4A","3I7KR83SNAZT1REYB2SRC49PCEEK9H","","null","<img src=""img/food6.png"" style=""width:200px; border:14px solid green;"">","null","","","","","","","","","",""
"","image-keyboard-response","84","106996","0.0-84.0","3SNVL38CI5EXL9JVEO7K3D6LQGVCKR","A2FP41BSPG0Y4A","3I7KR83SNAZT1REYB2SRC49PCEEK9H","","215.20000004768372","img/food1.png","75","217.70000004768372","2","1","3","1","1,0.5,0,1,0.5,0,0.5,0,1","0,1,0.5,0,1,0.5,1,0.5,0","3","",""
"","html-keyboard-response","85","107304","0.0-85.0","3SNVL38CI5EXL9JVEO7K3D6LQGVCKR","A2FP41BSPG0Y4A","3I7KR83SNAZT1REYB2SRC49PCEEK9H","","null","<img src=""img/food1.png"" style=""width:200px; border:14px solid green;"">","null","","","","","","","","","",""
"","image-keyboard-response","86","107569","0.0-86.0","3SNVL38CI5EXL9JVEO7K3D6LQGVCKR","A2FP41BSPG0Y4A","3I7KR83SNAZT1REYB2SRC49PCEEK9H","","263.2000000476837","img/food1.png","75","264.7000000476837","2","0","3","1","1,0.5,0,1,0.5,0,0.5,0,1","0,1,0.5,0,1,0.5,1,0.5,0","3","",""
"","html-keyboard-response","87","107874","0.0-87.0","3SNVL38CI5EXL9JVEO7K3D6LQGVCKR","A2FP41BSPG0Y4A","3I7KR83SNAZT1REYB2SRC49PCEEK9H","","null","<img src=""img/food1.png"" style=""width:200px;border:14px solid red;"">","null","","","","","","","","","",""
"","image-keyboard-response","88","108217","0.0-88.0","3SNVL38CI5EXL9JVEO7K3D6LQGVCKR","A2FP41BSPG0Y4A","3I7KR83SNAZT1REYB2SRC49PCEEK9H","","340.5","img/food6.png","75","342.5","2","1","2","1","1,0.5,0,1,0.5,0,0.5,0,1","0,1,0.5,0,1,0.5,1,0.5,0","3","",""
"","html-keyboard-response","89","108524","0.0-89.0","3SNVL38CI5EXL9JVEO7K3D6LQGVCKR","A2FP41BSPG0Y4A","3I7KR83SNAZT1REYB2SRC49PCEEK9H","","null","<img src=""img/food6.png"" style=""width:200px; border:14px solid green;"">","null","","","","","","","","","",""
"","image-keyboard-response","90","108939","0.0-90.0","3SNVL38CI5EXL9JVEO7K3D6LQGVCKR","A2FP41BSPG0Y4A","3I7KR83SNAZT1REYB2SRC49PCEEK9H","","413.2000000476837","img/food1.png","74","414.69999980926514","1","1","3","1","1,0.5,0,1,0.5,0,0.5,0,1","0,1,0.5,0,1,0.5,1,0.5,0","3","",""
"","html-keyboard-response","91","109245","0.0-91.0","3SNVL38CI5EXL9JVEO7K3D6LQGVCKR","A2FP41BSPG0Y4A","3I7KR83SNAZT1REYB2SRC49PCEEK9H","","null","<img src=""img/food1.png"" style=""width:200px; border:14px solid green;"">","null","","","","","","","","","",""
"","image-keyboard-response","92","109542","0.0-92.0","3SNVL38CI5EXL9JVEO7K3D6LQGVCKR","A2FP41BSPG0Y4A","3I7KR83SNAZT1REYB2SRC49PCEEK9H","","295.2999999523163","img/food6.png","75","296.7999999523163","2","1","2","1","1,0.5,0,1,0.5,0,0.5,0,1","0,1,0.5,0,1,0.5,1,0.5,0","3","",""
"","html-keyboard-response","93","109848","0.0-93.0","3SNVL38CI5EXL9JVEO7K3D6LQGVCKR","A2FP41BSPG0Y4A","3I7KR83SNAZT1REYB2SRC49PCEEK9H","","null","<img src=""img/food6.png"" style=""width:200px; border:14px solid green;"">","null","","","","","","","","","",""
"","image-keyboard-response","94","110091","0.0-94.0","3SNVL38CI5EXL9JVEO7K3D6LQGVCKR","A2FP41BSPG0Y4A","3I7KR83SNAZT1REYB2SRC49PCEEK9H","","240.70000004768372","img/food2.png","75","242.09999990463257","2","1","1","1","1,0.5,0,1,0.5,0,0.5,0,1","0,1,0.5,0,1,0.5,1,0.5,0","3","",""
"","html-keyboard-response","95","110396","0.0-95.0","3SNVL38CI5EXL9JVEO7K3D6LQGVCKR","A2FP41BSPG0Y4A","3I7KR83SNAZT1REYB2SRC49PCEEK9H","","null","<img src=""img/food2.png"" style=""width:200px; border:14px solid green;"">","null","","","","","","","","","",""
"","image-keyboard-response","96","110863","0.0-96.0","3SNVL38CI5EXL9JVEO7K3D6LQGVCKR","A2FP41BSPG0Y4A","3I7KR83SNAZT1REYB2SRC49PCEEK9H","","465.7999999523163","img/food6.png","74","467.59999990463257","1","0","2","1","1,0.5,0,1,0.5,0,0.5,0,1","0,1,0.5,0,1,0.5,1,0.5,0","3","",""
"","html-keyboard-response","97","111168","0.0-97.0","3SNVL38CI5EXL9JVEO7K3D6LQGVCKR","A2FP41BSPG0Y4A","3I7KR83SNAZT1REYB2SRC49PCEEK9H","","null","<img src=""img/food6.png"" style=""width:200px;border:14px solid red;"">","null","","","","","","","","","",""
"","image-keyboard-response","98","111340","0.0-98.0","3SNVL38CI5EXL9JVEO7K3D6LQGVCKR","A2FP41BSPG0Y4A","3I7KR83SNAZT1REYB2SRC49PCEEK9H","","169.90000009536743","img/food6.png","75","171.5","2","1","2","1","1,0.5,0,1,0.5,0,0.5,0,1","0,1,0.5,0,1,0.5,1,0.5,0","3","",""
"","html-keyboard-response","99","111644","0.0-99.0","3SNVL38CI5EXL9JVEO7K3D6LQGVCKR","A2FP41BSPG0Y4A","3I7KR83SNAZT1REYB2SRC49PCEEK9H","","null","<img src=""img/food6.png"" style=""width:200px; border:14px solid green;"">","null","","","","","","","","","",""
"","image-keyboard-response","100","112159","0.0-100.0","3SNVL38CI5EXL9JVEO7K3D6LQGVCKR","A2FP41BSPG0Y4A","3I7KR83SNAZT1REYB2SRC49PCEEK9H","","513.1999998092651","img/food1.png","75","514.7999999523163","2","1","3","1","1,0.5,0,1,0.5,0,0.5,0,1","0,1,0.5,0,1,0.5,1,0.5,0","3","",""
"","html-keyboard-response","101","112464","0.0-101.0","3SNVL38CI5EXL9JVEO7K3D6LQGVCKR","A2FP41BSPG0Y4A","3I7KR83SNAZT1REYB2SRC49PCEEK9H","","null","<img src=""img/food1.png"" style=""width:200px; border:14px solid green;"">","null","","","","","","","","","",""
"","image-keyboard-response","102","112828","0.0-102.0","3SNVL38CI5EXL9JVEO7K3D6LQGVCKR","A2FP41BSPG0Y4A","3I7KR83SNAZT1REYB2SRC49PCEEK9H","","361.7999999523163","img/food1.png","75","363.39999985694885","2","1","3","1","1,0.5,0,1,0.5,0,0.5,0,1","0,1,0.5,0,1,0.5,1,0.5,0","3","",""
"","html-keyboard-response","103","113132","0.0-103.0","3SNVL38CI5EXL9JVEO7K3D6LQGVCKR","A2FP41BSPG0Y4A","3I7KR83SNAZT1REYB2SRC49PCEEK9H","","null","<img src=""img/food1.png"" style=""width:200px; border:14px solid green;"">","null","","","","","","","","","",""
"","image-keyboard-response","104","113510","0.0-104.0","3SNVL38CI5EXL9JVEO7K3D6LQGVCKR","A2FP41BSPG0Y4A","3I7KR83SNAZT1REYB2SRC49PCEEK9H","","375.40000009536743","img/food1.png","75","377.5","2","0","3","1","1,0.5,0,1,0.5,0,0.5,0,1","0,1,0.5,0,1,0.5,1,0.5,0","3","",""
"","html-keyboard-response","105","113820","0.0-105.0","3SNVL38CI5EXL9JVEO7K3D6LQGVCKR","A2FP41BSPG0Y4A","3I7KR83SNAZT1REYB2SRC49PCEEK9H","","null","<img src=""img/food1.png"" style=""width:200px;border:14px solid red;"">","null","","","","","","","","","",""
"","image-keyboard-response","106","114403","0.0-106.0","3SNVL38CI5EXL9JVEO7K3D6LQGVCKR","A2FP41BSPG0Y4A","3I7KR83SNAZT1REYB2SRC49PCEEK9H","","580.7999999523163","img/food2.png","75","582.4000000953674","2","1","1","1","1,0.5,0,1,0.5,0,0.5,0,1","0,1,0.5,0,1,0.5,1,0.5,0","3","",""
"","html-keyboard-response","107","114714","0.0-107.0","3SNVL38CI5EXL9JVEO7K3D6LQGVCKR","A2FP41BSPG0Y4A","3I7KR83SNAZT1REYB2SRC49PCEEK9H","","null","<img src=""img/food2.png"" style=""width:200px; border:14px solid green;"">","null","","","","","","","","","",""
"","image-keyboard-response","108","115058","0.0-108.0","3SNVL38CI5EXL9JVEO7K3D6LQGVCKR","A2FP41BSPG0Y4A","3I7KR83SNAZT1REYB2SRC49PCEEK9H","","342.2000000476837","img/food2.png","75","344.2999999523163","2","1","1","1","1,0.5,0,1,0.5,0,0.5,0,1","0,1,0.5,0,1,0.5,1,0.5,0","3","",""
"","html-keyboard-response","109","115365","0.0-109.0","3SNVL38CI5EXL9JVEO7K3D6LQGVCKR","A2FP41BSPG0Y4A","3I7KR83SNAZT1REYB2SRC49PCEEK9H","","null","<img src=""img/food2.png"" style=""width:200px; border:14px solid green;"">","null","","","","","","","","","",""
"","image-keyboard-response","110","115852","0.0-110.0","3SNVL38CI5EXL9JVEO7K3D6LQGVCKR","A2FP41BSPG0Y4A","3I7KR83SNAZT1REYB2SRC49PCEEK9H","","485.2999999523163","img/food1.png","74","487.09999990463257","1","1","3","1","1,0.5,0,1,0.5,0,0.5,0,1","0,1,0.5,0,1,0.5,1,0.5,0","3","",""
"","html-keyboard-response","111","116159","0.0-111.0","3SNVL38CI5EXL9JVEO7K3D6LQGVCKR","A2FP41BSPG0Y4A","3I7KR83SNAZT1REYB2SRC49PCEEK9H","","null","<img src=""img/food1.png"" style=""width:200px; border:14px solid green;"">","null","","","","","","","","","",""
"","image-keyboard-response","112","116472","0.0-112.0","3SNVL38CI5EXL9JVEO7K3D6LQGVCKR","A2FP41BSPG0Y4A","3I7KR83SNAZT1REYB2SRC49PCEEK9H","","311.2999999523163","img/food6.png","75","312.7999999523163","2","1","2","1","1,0.5,0,1,0.5,0,0.5,0,1","0,1,0.5,0,1,0.5,1,0.5,0","3","",""
"","html-keyboard-response","113","116778","0.0-113.0","3SNVL38CI5EXL9JVEO7K3D6LQGVCKR","A2FP41BSPG0Y4A","3I7KR83SNAZT1REYB2SRC49PCEEK9H","","null","<img src=""img/food6.png"" style=""width:200px; border:14px solid green;"">","null","","","","","","","","","",""
"","image-keyboard-response","114","117303","0.0-114.0","3SNVL38CI5EXL9JVEO7K3D6LQGVCKR","A2FP41BSPG0Y4A","3I7KR83SNAZT1REYB2SRC49PCEEK9H","","523","img/food1.png","74","524.5","1","1","3","1","1,0.5,0,1,0.5,0,0.5,0,1","0,1,0.5,0,1,0.5,1,0.5,0","3","",""
"","html-keyboard-response","115","117612","0.0-115.0","3SNVL38CI5EXL9JVEO7K3D6LQGVCKR","A2FP41BSPG0Y4A","3I7KR83SNAZT1REYB2SRC49PCEEK9H","","null","<img src=""img/food1.png"" style=""width:200px; border:14px solid green;"">","null","","","","","","","","","",""
"","image-keyboard-response","116","117949","0.0-116.0","3SNVL38CI5EXL9JVEO7K3D6LQGVCKR","A2FP41BSPG0Y4A","3I7KR83SNAZT1REYB2SRC49PCEEK9H","","334.19999980926514","img/food2.png","75","335.89999985694885","2","1","1","1","1,0.5,0,1,0.5,0,0.5,0,1","0,1,0.5,0,1,0.5,1,0.5,0","3","",""
"","html-keyboard-response","117","118253","0.0-117.0","3SNVL38CI5EXL9JVEO7K3D6LQGVCKR","A2FP41BSPG0Y4A","3I7KR83SNAZT1REYB2SRC49PCEEK9H","","null","<img src=""img/food2.png"" style=""width:200px; border:14px solid green;"">","null","","","","","","","","","",""
"","image-keyboard-response","118","118641","0.0-118.0","3SNVL38CI5EXL9JVEO7K3D6LQGVCKR","A2FP41BSPG0Y4A","3I7KR83SNAZT1REYB2SRC49PCEEK9H","","386.19999980926514","img/food2.png","75","388","2","1","1","1","1,0.5,0,1,0.5,0,0.5,0,1","0,1,0.5,0,1,0.5,1,0.5,0","3","",""
"","html-keyboard-response","119","118953","0.0-119.0","3SNVL38CI5EXL9JVEO7K3D6LQGVCKR","A2FP41BSPG0Y4A","3I7KR83SNAZT1REYB2SRC49PCEEK9H","","null","<img src=""img/food2.png"" style=""width:200px; border:14px solid green;"">","null","","","","","","","","","",""
"","image-keyboard-response","120","119339","0.0-120.0","3SNVL38CI5EXL9JVEO7K3D6LQGVCKR","A2FP41BSPG0Y4A","3I7KR83SNAZT1REYB2SRC49PCEEK9H","","384.2999999523163","img/food1.png","74","387.7000000476837","1","1","3","1","1,0.5,0,1,0.5,0,0.5,0,1","0,1,0.5,0,1,0.5,1,0.5,0","3","",""
"","html-keyboard-response","121","119650","0.0-121.0","3SNVL38CI5EXL9JVEO7K3D6LQGVCKR","A2FP41BSPG0Y4A","3I7KR83SNAZT1REYB2SRC49PCEEK9H","","null","<img src=""img/food1.png"" style=""width:200px; border:14px solid green;"">","null","","","","","","","","","",""
"","image-keyboard-response","122","120000","0.0-122.0","3SNVL38CI5EXL9JVEO7K3D6LQGVCKR","A2FP41BSPG0Y4A","3I7KR83SNAZT1REYB2SRC49PCEEK9H","","347.89999985694885","img/food2.png","75","349.60000014305115","2","1","1","1","1,0.5,0,1,0.5,0,0.5,0,1","0,1,0.5,0,1,0.5,1,0.5,0","3","",""
"","html-keyboard-response","123","120308","0.0-123.0","3SNVL38CI5EXL9JVEO7K3D6LQGVCKR","A2FP41BSPG0Y4A","3I7KR83SNAZT1REYB2SRC49PCEEK9H","","null","<img src=""img/food2.png"" style=""width:200px; border:14px solid green;"">","null","","","","","","","","","",""
"","image-keyboard-response","124","120768","0.0-124.0","3SNVL38CI5EXL9JVEO7K3D6LQGVCKR","A2FP41BSPG0Y4A","3I7KR83SNAZT1REYB2SRC49PCEEK9H","","457.40000009536743","img/food6.png","74","458.89999985694885","1","0","2","1","1,0.5,0,1,0.5,0,0.5,0,1","0,1,0.5,0,1,0.5,1,0.5,0","3","",""
"","html-keyboard-response","125","121078","0.0-125.0","3SNVL38CI5EXL9JVEO7K3D6LQGVCKR","A2FP41BSPG0Y4A","3I7KR83SNAZT1REYB2SRC49PCEEK9H","","null","<img src=""img/food6.png"" style=""width:200px;border:14px solid red;"">","null","","","","","","","","","",""
"","image-keyboard-response","126","121165","0.0-126.0","3SNVL38CI5EXL9JVEO7K3D6LQGVCKR","A2FP41BSPG0Y4A","3I7KR83SNAZT1REYB2SRC49PCEEK9H","","84.30000019073486","img/food1.png","75","86.20000004768372","2","1","3","1","1,0.5,0,1,0.5,0,0.5,0,1","0,1,0.5,0,1,0.5,1,0.5,0","3","",""
"","html-keyboard-response","127","121469","0.0-127.0","3SNVL38CI5EXL9JVEO7K3D6LQGVCKR","A2FP41BSPG0Y4A","3I7KR83SNAZT1REYB2SRC49PCEEK9H","","null","<img src=""img/food1.png"" style=""width:200px; border:14px solid green;"">","null","","","","","","","","","",""
"","image-keyboard-response","128","122785","0.0-128.0","3SNVL38CI5EXL9JVEO7K3D6LQGVCKR","A2FP41BSPG0Y4A","3I7KR83SNAZT1REYB2SRC49PCEEK9H","","1313.6999998092651","img/food1.png","75","1315.4000000953674","2","0","3","1","1,0.5,0,1,0.5,0,0.5,0,1","0,1,0.5,0,1,0.5,1,0.5,0","3","",""
"","html-keyboard-response","129","123095","0.0-129.0","3SNVL38CI5EXL9JVEO7K3D6LQGVCKR","A2FP41BSPG0Y4A","3I7KR83SNAZT1REYB2SRC49PCEEK9H","","null","<img src=""img/food1.png"" style=""width:200px;border:14px solid red;"">","null","","","","","","","","","",""
"","image-keyboard-response","130","123595","0.0-130.0","3SNVL38CI5EXL9JVEO7K3D6LQGVCKR","A2FP41BSPG0Y4A","3I7KR83SNAZT1REYB2SRC49PCEEK9H","","497.2000000476837","img/food2.png","75","499.2000000476837","2","1","1","1","1,0.5,0,1,0.5,0,0.5,0,1","0,1,0.5,0,1,0.5,1,0.5,0","3","",""
"","html-keyboard-response","131","123907","0.0-131.0","3SNVL38CI5EXL9JVEO7K3D6LQGVCKR","A2FP41BSPG0Y4A","3I7KR83SNAZT1REYB2SRC49PCEEK9H","","null","<img src=""img/food2.png"" style=""width:200px; border:14px solid green;"">","null","","","","","","","","","",""
"","image-keyboard-response","132","124613","0.0-132.0","3SNVL38CI5EXL9JVEO7K3D6LQGVCKR","A2FP41BSPG0Y4A","3I7KR83SNAZT1REYB2SRC49PCEEK9H","","704.1000001430511","img/food6.png","75","705.7999999523163","2","1","2","1","1,0.5,0,1,0.5,0,0.5,0,1","0,1,0.5,0,1,0.5,1,0.5,0","3","",""
"","html-keyboard-response","133","124923","0.0-133.0","3SNVL38CI5EXL9JVEO7K3D6LQGVCKR","A2FP41BSPG0Y4A","3I7KR83SNAZT1REYB2SRC49PCEEK9H","","null","<img src=""img/food6.png"" style=""width:200px; border:14px solid green;"">","null","","","","","","","","","",""
"","image-keyboard-response","134","125337","0.0-134.0","3SNVL38CI5EXL9JVEO7K3D6LQGVCKR","A2FP41BSPG0Y4A","3I7KR83SNAZT1REYB2SRC49PCEEK9H","","411.40000009536743","img/food1.png","74","412.89999985694885","1","1","3","1","1,0.5,0,1,0.5,0,0.5,0,1","0,1,0.5,0,1,0.5,1,0.5,0","3","",""
"","html-keyboard-response","135","125640","0.0-135.0","3SNVL38CI5EXL9JVEO7K3D6LQGVCKR","A2FP41BSPG0Y4A","3I7KR83SNAZT1REYB2SRC49PCEEK9H","","null","<img src=""img/food1.png"" style=""width:200px; border:14px solid green;"">","null","","","","","","","","","",""
"","image-keyboard-response","136","126110","0.0-136.0","3SNVL38CI5EXL9JVEO7K3D6LQGVCKR","A2FP41BSPG0Y4A","3I7KR83SNAZT1REYB2SRC49PCEEK9H","","467.2000000476837","img/food2.png","75","469","2","1","1","1","1,0.5,0,1,0.5,0,0.5,0,1","0,1,0.5,0,1,0.5,1,0.5,0","3","",""
"","html-keyboard-response","137","126422","0.0-137.0","3SNVL38CI5EXL9JVEO7K3D6LQGVCKR","A2FP41BSPG0Y4A","3I7KR83SNAZT1REYB2SRC49PCEEK9H","","null","<img src=""img/food2.png"" style=""width:200px; border:14px solid green;"">","null","","","","","","","","","",""
"","image-keyboard-response","138","127184","0.0-138.0","3SNVL38CI5EXL9JVEO7K3D6LQGVCKR","A2FP41BSPG0Y4A","3I7KR83SNAZT1REYB2SRC49PCEEK9H","","760.0999999046326","img/food6.png","75","761.7999999523163","2","1","2","1","1,0.5,0,1,0.5,0,0.5,0,1","0,1,0.5,0,1,0.5,1,0.5,0","3","",""
"","html-keyboard-response","139","127491","0.0-139.0","3SNVL38CI5EXL9JVEO7K3D6LQGVCKR","A2FP41BSPG0Y4A","3I7KR83SNAZT1REYB2SRC49PCEEK9H","","null","<img src=""img/food6.png"" style=""width:200px; border:14px solid green;"">","null","","","","","","","","","",""
"","image-keyboard-response","140","127901","0.0-140.0","3SNVL38CI5EXL9JVEO7K3D6LQGVCKR","A2FP41BSPG0Y4A","3I7KR83SNAZT1REYB2SRC49PCEEK9H","","407","img/food2.png","74","408.59999990463257","1","0","1","1","1,0.5,0,1,0.5,0,0.5,0,1","0,1,0.5,0,1,0.5,1,0.5,0","3","",""
"","html-keyboard-response","141","128212","0.0-141.0","3SNVL38CI5EXL9JVEO7K3D6LQGVCKR","A2FP41BSPG0Y4A","3I7KR83SNAZT1REYB2SRC49PCEEK9H","","null","<img src=""img/food2.png"" style=""width:200px;border:14px solid red;"">","null","","","","","","","","","",""
"","image-keyboard-response","142","128496","0.0-142.0","3SNVL38CI5EXL9JVEO7K3D6LQGVCKR","A2FP41BSPG0Y4A","3I7KR83SNAZT1REYB2SRC49PCEEK9H","","281.7000000476837","img/food2.png","75","283.40000009536743","2","1","1","1","1,0.5,0,1,0.5,0,0.5,0,1","0,1,0.5,0,1,0.5,1,0.5,0","3","",""
"","html-keyboard-response","143","128807","0.0-143.0","3SNVL38CI5EXL9JVEO7K3D6LQGVCKR","A2FP41BSPG0Y4A","3I7KR83SNAZT1REYB2SRC49PCEEK9H","","null","<img src=""img/food2.png"" style=""width:200px; border:14px solid green;"">","null","","","","","","","","","",""
"","image-keyboard-response","144","129185","0.0-144.0","3SNVL38CI5EXL9JVEO7K3D6LQGVCKR","A2FP41BSPG0Y4A","3I7KR83SNAZT1REYB2SRC49PCEEK9H","","376.2999999523163","img/food2.png","75","377.89999985694885","2","1","1","1","1,0.5,0,1,0.5,0,0.5,0,1","0,1,0.5,0,1,0.5,1,0.5,0","3","",""
"","html-keyboard-response","145","129489","0.0-145.0","3SNVL38CI5EXL9JVEO7K3D6LQGVCKR","A2FP41BSPG0Y4A","3I7KR83SNAZT1REYB2SRC49PCEEK9H","","null","<img src=""img/food2.png"" style=""width:200px; border:14px solid green;"">","null","","","","","","","","","",""
"","image-keyboard-response","146","130104","0.0-146.0","3SNVL38CI5EXL9JVEO7K3D6LQGVCKR","A2FP41BSPG0Y4A","3I7KR83SNAZT1REYB2SRC49PCEEK9H","","612.7000000476837","img/food6.png","75","614.2999999523163","2","1","2","1","1,0.5,0,1,0.5,0,0.5,0,1","0,1,0.5,0,1,0.5,1,0.5,0","3","",""
"","html-keyboard-response","147","130412","0.0-147.0","3SNVL38CI5EXL9JVEO7K3D6LQGVCKR","A2FP41BSPG0Y4A","3I7KR83SNAZT1REYB2SRC49PCEEK9H","","null","<img src=""img/food6.png"" style=""width:200px; border:14px solid green;"">","null","","","","","","","","","",""
"","image-keyboard-response","148","130768","0.0-148.0","3SNVL38CI5EXL9JVEO7K3D6LQGVCKR","A2FP41BSPG0Y4A","3I7KR83SNAZT1REYB2SRC49PCEEK9H","","353.7999999523163","img/food2.png","74","355.40000009536743","1","0","1","1","1,0.5,0,1,0.5,0,0.5,0,1","0,1,0.5,0,1,0.5,1,0.5,0","3","",""
"","html-keyboard-response","149","131071","0.0-149.0","3SNVL38CI5EXL9JVEO7K3D6LQGVCKR","A2FP41BSPG0Y4A","3I7KR83SNAZT1REYB2SRC49PCEEK9H","","null","<img src=""img/food2.png"" style=""width:200px;border:14px solid red;"">","null","","","","","","","","","",""
"","image-keyboard-response","150","131349","0.0-150.0","3SNVL38CI5EXL9JVEO7K3D6LQGVCKR","A2FP41BSPG0Y4A","3I7KR83SNAZT1REYB2SRC49PCEEK9H","","276.2000000476837","img/food1.png","75","277.7999999523163","2","0","3","1","1,0.5,0,1,0.5,0,0.5,0,1","0,1,0.5,0,1,0.5,1,0.5,0","3","",""
"","html-keyboard-response","151","131656","0.0-151.0","3SNVL38CI5EXL9JVEO7K3D6LQGVCKR","A2FP41BSPG0Y4A","3I7KR83SNAZT1REYB2SRC49PCEEK9H","","null","<img src=""img/food1.png"" style=""width:200px;border:14px solid red;"">","null","","","","","","","","","",""
"","image-keyboard-response","152","132508","0.0-152.0","3SNVL38CI5EXL9JVEO7K3D6LQGVCKR","A2FP41BSPG0Y4A","3I7KR83SNAZT1REYB2SRC49PCEEK9H","","850.5999999046326","img/food2.png","75","852.2000000476837","2","1","1","1","1,0.5,0,1,0.5,0,0.5,0,1","0,1,0.5,0,1,0.5,1,0.5,0","3","",""
"","html-keyboard-response","153","132813","0.0-153.0","3SNVL38CI5EXL9JVEO7K3D6LQGVCKR","A2FP41BSPG0Y4A","3I7KR83SNAZT1REYB2SRC49PCEEK9H","","null","<img src=""img/food2.png"" style=""width:200px; border:14px solid green;"">","null","","","","","","","","","",""
"","image-keyboard-response","154","133215","0.0-154.0","3SNVL38CI5EXL9JVEO7K3D6LQGVCKR","A2FP41BSPG0Y4A","3I7KR83SNAZT1REYB2SRC49PCEEK9H","","400","img/food2.png","75","401.60000014305115","2","1","1","1","1,0.5,0,1,0.5,0,0.5,0,1","0,1,0.5,0,1,0.5,1,0.5,0","3","",""
"","html-keyboard-response","155","133520","0.0-155.0","3SNVL38CI5EXL9JVEO7K3D6LQGVCKR","A2FP41BSPG0Y4A","3I7KR83SNAZT1REYB2SRC49PCEEK9H","","null","<img src=""img/food2.png"" style=""width:200px; border:14px solid green;"">","null","","","","","","","","","",""
"","image-keyboard-response","156","134043","0.0-156.0","3SNVL38CI5EXL9JVEO7K3D6LQGVCKR","A2FP41BSPG0Y4A","3I7KR83SNAZT1REYB2SRC49PCEEK9H","","521.7000000476837","img/food1.png","74","523.2000000476837","1","1","3","1","1,0.5,0,1,0.5,0,0.5,0,1","0,1,0.5,0,1,0.5,1,0.5,0","3","",""
"","html-keyboard-response","157","134354","0.0-157.0","3SNVL38CI5EXL9JVEO7K3D6LQGVCKR","A2FP41BSPG0Y4A","3I7KR83SNAZT1REYB2SRC49PCEEK9H","","null","<img src=""img/food1.png"" style=""width:200px; border:14px solid green;"">","null","","","","","","","","","",""
"","image-keyboard-response","158","134925","0.0-158.0","3SNVL38CI5EXL9JVEO7K3D6LQGVCKR","A2FP41BSPG0Y4A","3I7KR83SNAZT1REYB2SRC49PCEEK9H","","569.7000000476837","img/food1.png","74","571.1000001430511","1","1","3","1","1,0.5,0,1,0.5,0,0.5,0,1","0,1,0.5,0,1,0.5,1,0.5,0","3","",""
"","html-keyboard-response","159","135232","0.0-159.0","3SNVL38CI5EXL9JVEO7K3D6LQGVCKR","A2FP41BSPG0Y4A","3I7KR83SNAZT1REYB2SRC49PCEEK9H","","null","<img src=""img/food1.png"" style=""width:200px; border:14px solid green;"">","null","","","","","","","","","",""
"","image-keyboard-response","160","135643","0.0-160.0","3SNVL38CI5EXL9JVEO7K3D6LQGVCKR","A2FP41BSPG0Y4A","3I7KR83SNAZT1REYB2SRC49PCEEK9H","","409.2000000476837","img/food1.png","74","410.7999999523163","1","1","3","1","1,0.5,0,1,0.5,0,0.5,0,1","0,1,0.5,0,1,0.5,1,0.5,0","3","",""
"","html-keyboard-response","161","135946","0.0-161.0","3SNVL38CI5EXL9JVEO7K3D6LQGVCKR","A2FP41BSPG0Y4A","3I7KR83SNAZT1REYB2SRC49PCEEK9H","","null","<img src=""img/food1.png"" style=""width:200px; border:14px solid green;"">","null","","","","","","","","","",""
"","image-keyboard-response","162","136432","0.0-162.0","3SNVL38CI5EXL9JVEO7K3D6LQGVCKR","A2FP41BSPG0Y4A","3I7KR83SNAZT1REYB2SRC49PCEEK9H","","484","img/food6.png","75","485.80000019073486","2","1","2","1","1,0.5,0,1,0.5,0,0.5,0,1","0,1,0.5,0,1,0.5,1,0.5,0","3","",""
"","html-keyboard-response","163","136747","0.0-163.0","3SNVL38CI5EXL9JVEO7K3D6LQGVCKR","A2FP41BSPG0Y4A","3I7KR83SNAZT1REYB2SRC49PCEEK9H","","null","<img src=""img/food6.png"" style=""width:200px; border:14px solid green;"">","null","","","","","","","","","",""
"","image-keyboard-response","164","137352","0.0-164.0","3SNVL38CI5EXL9JVEO7K3D6LQGVCKR","A2FP41BSPG0Y4A","3I7KR83SNAZT1REYB2SRC49PCEEK9H","","603.0999999046326","img/food1.png","74","604.7999999523163","1","1","3","1","1,0.5,0,1,0.5,0,0.5,0,1","0,1,0.5,0,1,0.5,1,0.5,0","3","",""
"","html-keyboard-response","165","137657","0.0-165.0","3SNVL38CI5EXL9JVEO7K3D6LQGVCKR","A2FP41BSPG0Y4A","3I7KR83SNAZT1REYB2SRC49PCEEK9H","","null","<img src=""img/food1.png"" style=""width:200px; border:14px solid green;"">","null","","","","","","","","","",""
"","image-keyboard-response","166","140073","0.0-166.0","3SNVL38CI5EXL9JVEO7K3D6LQGVCKR","A2FP41BSPG0Y4A","3I7KR83SNAZT1REYB2SRC49PCEEK9H","","2414.0999999046326","img/food1.png","74","2415.7000000476837","1","1","3","1","1,0.5,0,1,0.5,0,0.5,0,1","0,1,0.5,0,1,0.5,1,0.5,0","3","",""
"","html-keyboard-response","167","140386","0.0-167.0","3SNVL38CI5EXL9JVEO7K3D6LQGVCKR","A2FP41BSPG0Y4A","3I7KR83SNAZT1REYB2SRC49PCEEK9H","","null","<img src=""img/food1.png"" style=""width:200px; border:14px solid green;"">","null","","","","","","","","","",""
"","image-keyboard-response","168","140747","0.0-168.0","3SNVL38CI5EXL9JVEO7K3D6LQGVCKR","A2FP41BSPG0Y4A","3I7KR83SNAZT1REYB2SRC49PCEEK9H","","358.90000009536743","img/food1.png","74","360.59999990463257","1","1","3","1","1,0.5,0,1,0.5,0,0.5,0,1","0,1,0.5,0,1,0.5,1,0.5,0","3","",""
"","html-keyboard-response","169","141054","0.0-169.0","3SNVL38CI5EXL9JVEO7K3D6LQGVCKR","A2FP41BSPG0Y4A","3I7KR83SNAZT1REYB2SRC49PCEEK9H","","null","<img src=""img/food1.png"" style=""width:200px; border:14px solid green;"">","null","","","","","","","","","",""
"","image-keyboard-response","170","141546","0.0-170.0","3SNVL38CI5EXL9JVEO7K3D6LQGVCKR","A2FP41BSPG0Y4A","3I7KR83SNAZT1REYB2SRC49PCEEK9H","","490.2999999523163","img/food2.png","75","491.89999985694885","2","1","1","1","1,0.5,0,1,0.5,0,0.5,0,1","0,1,0.5,0,1,0.5,1,0.5,0","3","",""
"","html-keyboard-response","171","141855","0.0-171.0","3SNVL38CI5EXL9JVEO7K3D6LQGVCKR","A2FP41BSPG0Y4A","3I7KR83SNAZT1REYB2SRC49PCEEK9H","","null","<img src=""img/food2.png"" style=""width:200px; border:14px solid green;"">","null","","","","","","","","","",""
"","image-keyboard-response","172","142213","0.0-172.0","3SNVL38CI5EXL9JVEO7K3D6LQGVCKR","A2FP41BSPG0Y4A","3I7KR83SNAZT1REYB2SRC49PCEEK9H","","356.09999990463257","img/food2.png","75","357.69999980926514","2","1","1","1","1,0.5,0,1,0.5,0,0.5,0,1","0,1,0.5,0,1,0.5,1,0.5,0","3","",""
"","html-keyboard-response","173","142517","0.0-173.0","3SNVL38CI5EXL9JVEO7K3D6LQGVCKR","A2FP41BSPG0Y4A","3I7KR83SNAZT1REYB2SRC49PCEEK9H","","null","<img src=""img/food2.png"" style=""width:200px; border:14px solid green;"">","null","","","","","","","","","",""
"","image-keyboard-response","174","142867","0.0-174.0","3SNVL38CI5EXL9JVEO7K3D6LQGVCKR","A2FP41BSPG0Y4A","3I7KR83SNAZT1REYB2SRC49PCEEK9H","","348.09999990463257","img/food2.png","75","349.7999999523163","2","1","1","1","1,0.5,0,1,0.5,0,0.5,0,1","0,1,0.5,0,1,0.5,1,0.5,0","3","",""
"","html-keyboard-response","175","143178","0.0-175.0","3SNVL38CI5EXL9JVEO7K3D6LQGVCKR","A2FP41BSPG0Y4A","3I7KR83SNAZT1REYB2SRC49PCEEK9H","","null","<img src=""img/food2.png"" style=""width:200px; border:14px solid green;"">","null","","","","","","","","","",""
"","image-keyboard-response","176","143513","0.0-176.0","3SNVL38CI5EXL9JVEO7K3D6LQGVCKR","A2FP41BSPG0Y4A","3I7KR83SNAZT1REYB2SRC49PCEEK9H","","333.2000000476837","img/food2.png","75","334.7999999523163","2","1","1","1","1,0.5,0,1,0.5,0,0.5,0,1","0,1,0.5,0,1,0.5,1,0.5,0","3","",""
"","html-keyboard-response","177","143824","0.0-177.0","3SNVL38CI5EXL9JVEO7K3D6LQGVCKR","A2FP41BSPG0Y4A","3I7KR83SNAZT1REYB2SRC49PCEEK9H","","null","<img src=""img/food2.png"" style=""width:200px; border:14px solid green;"">","null","","","","","","","","","",""
"","image-keyboard-response","178","144053","0.0-178.0","3SNVL38CI5EXL9JVEO7K3D6LQGVCKR","A2FP41BSPG0Y4A","3I7KR83SNAZT1REYB2SRC49PCEEK9H","","227.59999990463257","img/food2.png","75","229.09999990463257","2","1","1","1","1,0.5,0,1,0.5,0,0.5,0,1","0,1,0.5,0,1,0.5,1,0.5,0","3","",""
"","html-keyboard-response","179","144365","0.0-179.0","3SNVL38CI5EXL9JVEO7K3D6LQGVCKR","A2FP41BSPG0Y4A","3I7KR83SNAZT1REYB2SRC49PCEEK9H","","null","<img src=""img/food2.png"" style=""width:200px; border:14px solid green;"">","null","","","","","","","","","",""
"","image-keyboard-response","180","144944","0.0-180.0","3SNVL38CI5EXL9JVEO7K3D6LQGVCKR","A2FP41BSPG0Y4A","3I7KR83SNAZT1REYB2SRC49PCEEK9H","","577.2000000476837","img/food1.png","74","578.7000000476837","1","1","3","1","1,0.5,0,1,0.5,0,0.5,0,1","0,1,0.5,0,1,0.5,1,0.5,0","3","",""
"","html-keyboard-response","181","145251","0.0-181.0","3SNVL38CI5EXL9JVEO7K3D6LQGVCKR","A2FP41BSPG0Y4A","3I7KR83SNAZT1REYB2SRC49PCEEK9H","","null","<img src=""img/food1.png"" style=""width:200px; border:14px solid green;"">","null","","","","","","","","","",""
"","html-keyboard-response","182","147692","0.0-182.0","3SNVL38CI5EXL9JVEO7K3D6LQGVCKR","A2FP41BSPG0Y4A","3I7KR83SNAZT1REYB2SRC49PCEEK9H","","","","","","","","","","","","","",""
"","instructions","183","152182","0.0-183.0","3SNVL38CI5EXL9JVEO7K3D6LQGVCKR","A2FP41BSPG0Y4A","3I7KR83SNAZT1REYB2SRC49PCEEK9H","[{""page_index"":0,""viewing_time"":2215.399999856949},{""page_index"":1,""viewing_time"":2273.7000000476837}]","4489.299999952316","","","","","","","","","","","",""
"","image-keyboard-response","184","152841","0.0-184.0","3SNVL38CI5EXL9JVEO7K3D6LQGVCKR","A2FP41BSPG0Y4A","3I7KR83SNAZT1REYB2SRC49PCEEK9H","","656.8999998569489","img/food3.png","75","658.7000000476837","2","0","3","2","1,0.5,0,1,0.5,0,0.5,0,1","0,1,0.5,0,1,0.5,1,0.5,0","3","false",""
"","html-keyboard-response","185","153145","0.0-185.0","3SNVL38CI5EXL9JVEO7K3D6LQGVCKR","A2FP41BSPG0Y4A","3I7KR83SNAZT1REYB2SRC49PCEEK9H","","null","<img src=""img/food3.png"" style=""width:200px;border:14px solid red;"">","null","","","","","","","","","",""
"","image-keyboard-response","186","153705","0.0-187.0","3SNVL38CI5EXL9JVEO7K3D6LQGVCKR","A2FP41BSPG0Y4A","3I7KR83SNAZT1REYB2SRC49PCEEK9H","","556.7000000476837","img/food3.png","76","558.5","3","0","3","2","1,0.5,0,1,0.5,0,0.5,0,1","0,1,0.5,0,1,0.5,1,0.5,0","3","false",""
"","html-keyboard-response","187","154013","0.0-188.0","3SNVL38CI5EXL9JVEO7K3D6LQGVCKR","A2FP41BSPG0Y4A","3I7KR83SNAZT1REYB2SRC49PCEEK9H","","null","<img src=""img/food3.png"" style=""width:200px;border:14px solid red;"">","null","","","","","","","","","",""
"","image-keyboard-response","188","154461","0.0-190.0","3SNVL38CI5EXL9JVEO7K3D6LQGVCKR","A2FP41BSPG0Y4A","3I7KR83SNAZT1REYB2SRC49PCEEK9H","","445.2999999523163","img/food4.png","74","446.90000009536743","1","0","2","2","1,0.5,0,1,0.5,0,0.5,0,1","0,1,0.5,0,1,0.5,1,0.5,0","3","false",""
"","html-keyboard-response","189","154770","0.0-191.0","3SNVL38CI5EXL9JVEO7K3D6LQGVCKR","A2FP41BSPG0Y4A","3I7KR83SNAZT1REYB2SRC49PCEEK9H","","null","<img src=""img/food4.png"" style=""width:200px;border:14px solid red;"">","null","","","","","","","","","",""
"","image-keyboard-response","190","155296","0.0-193.0","3SNVL38CI5EXL9JVEO7K3D6LQGVCKR","A2FP41BSPG0Y4A","3I7KR83SNAZT1REYB2SRC49PCEEK9H","","523.5","img/food5.png","74","525.2000000476837","1","0","1","2","1,0.5,0,1,0.5,0,0.5,0,1","0,1,0.5,0,1,0.5,1,0.5,0","3","false",""
"","html-keyboard-response","191","155599","0.0-194.0","3SNVL38CI5EXL9JVEO7K3D6LQGVCKR","A2FP41BSPG0Y4A","3I7KR83SNAZT1REYB2SRC49PCEEK9H","","null","<img src=""img/food5.png"" style=""width:200px;border:14px solid red;"">","null","","","","","","","","","",""
"","image-keyboard-response","192","155877","0.0-196.0","3SNVL38CI5EXL9JVEO7K3D6LQGVCKR","A2FP41BSPG0Y4A","3I7KR83SNAZT1REYB2SRC49PCEEK9H","","275.39999985694885","img/food4.png","76","277.2999999523163","3","0","2","2","1,0.5,0,1,0.5,0,0.5,0,1","0,1,0.5,0,1,0.5,1,0.5,0","3","false",""
"","html-keyboard-response","193","156184","0.0-197.0","3SNVL38CI5EXL9JVEO7K3D6LQGVCKR","A2FP41BSPG0Y4A","3I7KR83SNAZT1REYB2SRC49PCEEK9H","","null","<img src=""img/food4.png"" style=""width:200px;border:14px solid red;"">","null","","","","","","","","","",""
"","image-keyboard-response","194","156520","0.0-199.0","3SNVL38CI5EXL9JVEO7K3D6LQGVCKR","A2FP41BSPG0Y4A","3I7KR83SNAZT1REYB2SRC49PCEEK9H","","333.09999990463257","img/food4.png","75","334.80000019073486","2","1","2","2","1,0.5,0,1,0.5,0,0.5,0,1","0,1,0.5,0,1,0.5,1,0.5,0","3","false",""
"","html-keyboard-response","195","156828","0.0-200.0","3SNVL38CI5EXL9JVEO7K3D6LQGVCKR","A2FP41BSPG0Y4A","3I7KR83SNAZT1REYB2SRC49PCEEK9H","","null","<img src=""img/food4.png"" style=""width:200px; border:14px solid green;"">","null","","","","","","","","","",""
"","image-keyboard-response","196","157111","0.0-202.0","3SNVL38CI5EXL9JVEO7K3D6LQGVCKR","A2FP41BSPG0Y4A","3I7KR83SNAZT1REYB2SRC49PCEEK9H","","278.5","img/food4.png","75","280.19999980926514","2","1","2","2","1,0.5,0,1,0.5,0,0.5,0,1","0,1,0.5,0,1,0.5,1,0.5,0","3","false",""
"","html-keyboard-response","197","157422","0.0-203.0","3SNVL38CI5EXL9JVEO7K3D6LQGVCKR","A2FP41BSPG0Y4A","3I7KR83SNAZT1REYB2SRC49PCEEK9H","","null","<img src=""img/food4.png"" style=""width:200px; border:14px solid green;"">","null","","","","","","","","","",""
"","image-keyboard-response","198","157686","0.0-205.0","3SNVL38CI5EXL9JVEO7K3D6LQGVCKR","A2FP41BSPG0Y4A","3I7KR83SNAZT1REYB2SRC49PCEEK9H","","261","img/food3.png","75","263.10000014305115","2","1","3","2","1,0.5,0,1,0.5,0,0.5,0,1","0,1,0.5,0,1,0.5,1,0.5,0","3","false",""
"","html-keyboard-response","199","157991","0.0-206.0","3SNVL38CI5EXL9JVEO7K3D6LQGVCKR","A2FP41BSPG0Y4A","3I7KR83SNAZT1REYB2SRC49PCEEK9H","","null","<img src=""img/food3.png"" style=""width:200px; border:14px solid green;"">","null","","","","","","","","","",""
"","image-keyboard-response","200","158412","0.0-208.0","3SNVL38CI5EXL9JVEO7K3D6LQGVCKR","A2FP41BSPG0Y4A","3I7KR83SNAZT1REYB2SRC49PCEEK9H","","418.5","img/food4.png","75","420.2999999523163","2","1","2","2","1,0.5,0,1,0.5,0,0.5,0,1","0,1,0.5,0,1,0.5,1,0.5,0","3","false",""
"","html-keyboard-response","201","158717","0.0-209.0","3SNVL38CI5EXL9JVEO7K3D6LQGVCKR","A2FP41BSPG0Y4A","3I7KR83SNAZT1REYB2SRC49PCEEK9H","","null","<img src=""img/food4.png"" style=""width:200px; border:14px solid green;"">","null","","","","","","","","","",""
"","image-keyboard-response","202","159158","0.0-211.0","3SNVL38CI5EXL9JVEO7K3D6LQGVCKR","A2FP41BSPG0Y4A","3I7KR83SNAZT1REYB2SRC49PCEEK9H","","438.7000000476837","img/food3.png","74","440.59999990463257","1","1","3","2","1,0.5,0,1,0.5,0,0.5,0,1","0,1,0.5,0,1,0.5,1,0.5,0","3","false",""
"","html-keyboard-response","203","159474","0.0-212.0","3SNVL38CI5EXL9JVEO7K3D6LQGVCKR","A2FP41BSPG0Y4A","3I7KR83SNAZT1REYB2SRC49PCEEK9H","","null","<img src=""img/food3.png"" style=""width:200px; border:14px solid green;"">","null","","","","","","","","","",""
"","image-keyboard-response","204","159844","0.0-214.0","3SNVL38CI5EXL9JVEO7K3D6LQGVCKR","A2FP41BSPG0Y4A","3I7KR83SNAZT1REYB2SRC49PCEEK9H","","368.09999990463257","img/food5.png","75","369.90000009536743","2","1","1","2","1,0.5,0,1,0.5,0,0.5,0,1","0,1,0.5,0,1,0.5,1,0.5,0","3","false",""
"","html-keyboard-response","205","160150","0.0-215.0","3SNVL38CI5EXL9JVEO7K3D6LQGVCKR","A2FP41BSPG0Y4A","3I7KR83SNAZT1REYB2SRC49PCEEK9H","","null","<img src=""img/food5.png"" style=""width:200px; border:14px solid green;"">","null","","","","","","","","","",""
"","image-keyboard-response","206","160715","0.0-217.0","3SNVL38CI5EXL9JVEO7K3D6LQGVCKR","A2FP41BSPG0Y4A","3I7KR83SNAZT1REYB2SRC49PCEEK9H","","562.6000001430511","img/food3.png","74","564.4000000953674","1","1","3","2","1,0.5,0,1,0.5,0,0.5,0,1","0,1,0.5,0,1,0.5,1,0.5,0","3","false",""
"","html-keyboard-response","207","161021","0.0-218.0","3SNVL38CI5EXL9JVEO7K3D6LQGVCKR","A2FP41BSPG0Y4A","3I7KR83SNAZT1REYB2SRC49PCEEK9H","","null","<img src=""img/food3.png"" style=""width:200px; border:14px solid green;"">","null","","","","","","","","","",""
"","image-keyboard-response","208","161085","0.0-220.0","3SNVL38CI5EXL9JVEO7K3D6LQGVCKR","A2FP41BSPG0Y4A","3I7KR83SNAZT1REYB2SRC49PCEEK9H","","61.40000009536743","img/food5.png","75","63.299999952316284","2","1","1","2","1,0.5,0,1,0.5,0,0.5,0,1","0,1,0.5,0,1,0.5,1,0.5,0","3","false",""
"","html-keyboard-response","209","161390","0.0-221.0","3SNVL38CI5EXL9JVEO7K3D6LQGVCKR","A2FP41BSPG0Y4A","3I7KR83SNAZT1REYB2SRC49PCEEK9H","","null","<img src=""img/food5.png"" style=""width:200px; border:14px solid green;"">","null","","","","","","","","","",""
"","image-keyboard-response","210","161914","0.0-223.0","3SNVL38CI5EXL9JVEO7K3D6LQGVCKR","A2FP41BSPG0Y4A","3I7KR83SNAZT1REYB2SRC49PCEEK9H","","521.2999999523163","img/food5.png","75","523","2","1","1","2","1,0.5,0,1,0.5,0,0.5,0,1","0,1,0.5,0,1,0.5,1,0.5,0","3","false",""
"","html-keyboard-response","211","162221","0.0-224.0","3SNVL38CI5EXL9JVEO7K3D6LQGVCKR","A2FP41BSPG0Y4A","3I7KR83SNAZT1REYB2SRC49PCEEK9H","","null","<img src=""img/food5.png"" style=""width:200px; border:14px solid green;"">","null","","","","","","","","","",""
"","image-keyboard-response","212","162712","0.0-226.0","3SNVL38CI5EXL9JVEO7K3D6LQGVCKR","A2FP41BSPG0Y4A","3I7KR83SNAZT1REYB2SRC49PCEEK9H","","487.2999999523163","img/food4.png","75","489.89999985694885","2","1","2","2","1,0.5,0,1,0.5,0,0.5,0,1","0,1,0.5,0,1,0.5,1,0.5,0","3","false",""
"","html-keyboard-response","213","163018","0.0-227.0","3SNVL38CI5EXL9JVEO7K3D6LQGVCKR","A2FP41BSPG0Y4A","3I7KR83SNAZT1REYB2SRC49PCEEK9H","","null","<img src=""img/food4.png"" style=""width:200px; border:14px solid green;"">","null","","","","","","","","","",""
"","image-keyboard-response","214","163462","0.0-229.0","3SNVL38CI5EXL9JVEO7K3D6LQGVCKR","A2FP41BSPG0Y4A","3I7KR83SNAZT1REYB2SRC49PCEEK9H","","441.90000009536743","img/food5.png","74","443.7000000476837","1","0","1","2","1,0.5,0,1,0.5,0,0.5,0,1","0,1,0.5,0,1,0.5,1,0.5,0","3","false",""
"","html-keyboard-response","215","163770","0.0-230.0","3SNVL38CI5EXL9JVEO7K3D6LQGVCKR","A2FP41BSPG0Y4A","3I7KR83SNAZT1REYB2SRC49PCEEK9H","","null","<img src=""img/food5.png"" style=""width:200px;border:14px solid red;"">","null","","","","","","","","","",""
"","image-keyboard-response","216","163958","0.0-232.0","3SNVL38CI5EXL9JVEO7K3D6LQGVCKR","A2FP41BSPG0Y4A","3I7KR83SNAZT1REYB2SRC49PCEEK9H","","185.90000009536743","img/food5.png","75","187.40000009536743","2","1","1","2","1,0.5,0,1,0.5,0,0.5,0,1","0,1,0.5,0,1,0.5,1,0.5,0","3","false",""
"","html-keyboard-response","217","164270","0.0-233.0","3SNVL38CI5EXL9JVEO7K3D6LQGVCKR","A2FP41BSPG0Y4A","3I7KR83SNAZT1REYB2SRC49PCEEK9H","","null","<img src=""img/food5.png"" style=""width:200px; border:14px solid green;"">","null","","","","","","","","","",""
"","image-keyboard-response","218","164612","0.0-235.0","3SNVL38CI5EXL9JVEO7K3D6LQGVCKR","A2FP41BSPG0Y4A","3I7KR83SNAZT1REYB2SRC49PCEEK9H","","339.2000000476837","img/food5.png","75","340.90000009536743","2","1","1","2","1,0.5,0,1,0.5,0,0.5,0,1","0,1,0.5,0,1,0.5,1,0.5,0","3","false",""
"","html-keyboard-response","219","164923","0.0-236.0","3SNVL38CI5EXL9JVEO7K3D6LQGVCKR","A2FP41BSPG0Y4A","3I7KR83SNAZT1REYB2SRC49PCEEK9H","","null","<img src=""img/food5.png"" style=""width:200px; border:14px solid green;"">","null","","","","","","","","","",""
"","image-keyboard-response","220","165260","0.0-238.0","3SNVL38CI5EXL9JVEO7K3D6LQGVCKR","A2FP41BSPG0Y4A","3I7KR83SNAZT1REYB2SRC49PCEEK9H","","335.5","img/food5.png","75","336.90000009536743","2","1","1","2","1,0.5,0,1,0.5,0,0.5,0,1","0,1,0.5,0,1,0.5,1,0.5,0","3","false",""
"","html-keyboard-response","221","165579","0.0-239.0","3SNVL38CI5EXL9JVEO7K3D6LQGVCKR","A2FP41BSPG0Y4A","3I7KR83SNAZT1REYB2SRC49PCEEK9H","","null","<img src=""img/food5.png"" style=""width:200px; border:14px solid green;"">","null","","","","","","","","","",""
"","image-keyboard-response","222","165932","0.0-241.0","3SNVL38CI5EXL9JVEO7K3D6LQGVCKR","A2FP41BSPG0Y4A","3I7KR83SNAZT1REYB2SRC49PCEEK9H","","350.59999990463257","img/food5.png","75","352.30000019073486","2","1","1","2","1,0.5,0,1,0.5,0,0.5,0,1","0,1,0.5,0,1,0.5,1,0.5,0","3","false",""
"","html-keyboard-response","223","166246","0.0-242.0","3SNVL38CI5EXL9JVEO7K3D6LQGVCKR","A2FP41BSPG0Y4A","3I7KR83SNAZT1REYB2SRC49PCEEK9H","","null","<img src=""img/food5.png"" style=""width:200px; border:14px solid green;"">","null","","","","","","","","","",""
"","image-keyboard-response","224","167152","0.0-244.0","3SNVL38CI5EXL9JVEO7K3D6LQGVCKR","A2FP41BSPG0Y4A","3I7KR83SNAZT1REYB2SRC49PCEEK9H","","903.5999999046326","img/food4.png","74","905.2000000476837","1","0","2","2","1,0.5,0,1,0.5,0,0.5,0,1","0,1,0.5,0,1,0.5,1,0.5,0","3","false",""
"","html-keyboard-response","225","167460","0.0-245.0","3SNVL38CI5EXL9JVEO7K3D6LQGVCKR","A2FP41BSPG0Y4A","3I7KR83SNAZT1REYB2SRC49PCEEK9H","","null","<img src=""img/food4.png"" style=""width:200px;border:14px solid red;"">","null","","","","","","","","","",""
"","image-keyboard-response","226","167740","0.0-247.0","3SNVL38CI5EXL9JVEO7K3D6LQGVCKR","A2FP41BSPG0Y4A","3I7KR83SNAZT1REYB2SRC49PCEEK9H","","277.2999999523163","img/food4.png","75","279","2","1","2","2","1,0.5,0,1,0.5,0,0.5,0,1","0,1,0.5,0,1,0.5,1,0.5,0","3","false",""
"","html-keyboard-response","227","168048","0.0-248.0","3SNVL38CI5EXL9JVEO7K3D6LQGVCKR","A2FP41BSPG0Y4A","3I7KR83SNAZT1REYB2SRC49PCEEK9H","","null","<img src=""img/food4.png"" style=""width:200px; border:14px solid green;"">","null","","","","","","","","","",""
"","image-keyboard-response","228","168497","0.0-250.0","3SNVL38CI5EXL9JVEO7K3D6LQGVCKR","A2FP41BSPG0Y4A","3I7KR83SNAZT1REYB2SRC49PCEEK9H","","446.90000009536743","img/food3.png","75","448.39999985694885","2","0","3","2","1,0.5,0,1,0.5,0,0.5,0,1","0,1,0.5,0,1,0.5,1,0.5,0","3","false",""
"","html-keyboard-response","229","168800","0.0-251.0","3SNVL38CI5EXL9JVEO7K3D6LQGVCKR","A2FP41BSPG0Y4A","3I7KR83SNAZT1REYB2SRC49PCEEK9H","","null","<img src=""img/food3.png"" style=""width:200px;border:14px solid red;"">","null","","","","","","","","","",""
"","image-keyboard-response","230","169574","0.0-253.0","3SNVL38CI5EXL9JVEO7K3D6LQGVCKR","A2FP41BSPG0Y4A","3I7KR83SNAZT1REYB2SRC49PCEEK9H","","771.4000000953674","img/food4.png","75","773.1999998092651","2","1","2","2","1,0.5,0,1,0.5,0,0.5,0,1","0,1,0.5,0,1,0.5,1,0.5,0","3","false",""
"","html-keyboard-response","231","169880","0.0-254.0","3SNVL38CI5EXL9JVEO7K3D6LQGVCKR","A2FP41BSPG0Y4A","3I7KR83SNAZT1REYB2SRC49PCEEK9H","","null","<img src=""img/food4.png"" style=""width:200px; border:14px solid green;"">","null","","","","","","","","","",""
"","image-keyboard-response","232","170396","0.0-256.0","3SNVL38CI5EXL9JVEO7K3D6LQGVCKR","A2FP41BSPG0Y4A","3I7KR83SNAZT1REYB2SRC49PCEEK9H","","512.6000001430511","img/food5.png","75","514.5999999046326","2","1","1","2","1,0.5,0,1,0.5,0,0.5,0,1","0,1,0.5,0,1,0.5,1,0.5,0","3","false",""
"","html-keyboard-response","233","170699","0.0-257.0","3SNVL38CI5EXL9JVEO7K3D6LQGVCKR","A2FP41BSPG0Y4A","3I7KR83SNAZT1REYB2SRC49PCEEK9H","","null","<img src=""img/food5.png"" style=""width:200px; border:14px solid green;"">","null","","","","","","","","","",""
"","image-keyboard-response","234","171334","0.0-259.0","3SNVL38CI5EXL9JVEO7K3D6LQGVCKR","A2FP41BSPG0Y4A","3I7KR83SNAZT1REYB2SRC49PCEEK9H","","631.7000000476837","img/food4.png","75","633.7000000476837","2","1","2","2","1,0.5,0,1,0.5,0,0.5,0,1","0,1,0.5,0,1,0.5,1,0.5,0","3","false",""
"","html-keyboard-response","235","171643","0.0-260.0","3SNVL38CI5EXL9JVEO7K3D6LQGVCKR","A2FP41BSPG0Y4A","3I7KR83SNAZT1REYB2SRC49PCEEK9H","","null","<img src=""img/food4.png"" style=""width:200px; border:14px solid green;"">","null","","","","","","","","","",""
"","image-keyboard-response","236","172095","0.0-262.0","3SNVL38CI5EXL9JVEO7K3D6LQGVCKR","A2FP41BSPG0Y4A","3I7KR83SNAZT1REYB2SRC49PCEEK9H","","449.59999990463257","img/food5.png","75","451.10000014305115","2","1","1","2","1,0.5,0,1,0.5,0,0.5,0,1","0,1,0.5,0,1,0.5,1,0.5,0","3","false",""
"","html-keyboard-response","237","172398","0.0-263.0","3SNVL38CI5EXL9JVEO7K3D6LQGVCKR","A2FP41BSPG0Y4A","3I7KR83SNAZT1REYB2SRC49PCEEK9H","","null","<img src=""img/food5.png"" style=""width:200px; border:14px solid green;"">","null","","","","","","","","","",""
"","image-keyboard-response","238","172839","0.0-265.0","3SNVL38CI5EXL9JVEO7K3D6LQGVCKR","A2FP41BSPG0Y4A","3I7KR83SNAZT1REYB2SRC49PCEEK9H","","438.19999980926514","img/food5.png","75","439.7999999523163","2","1","1","2","1,0.5,0,1,0.5,0,0.5,0,1","0,1,0.5,0,1,0.5,1,0.5,0","3","false",""
"","html-keyboard-response","239","173143","0.0-266.0","3SNVL38CI5EXL9JVEO7K3D6LQGVCKR","A2FP41BSPG0Y4A","3I7KR83SNAZT1REYB2SRC49PCEEK9H","","null","<img src=""img/food5.png"" style=""width:200px; border:14px solid green;"">","null","","","","","","","","","",""
"","image-keyboard-response","240","173520","0.0-268.0","3SNVL38CI5EXL9JVEO7K3D6LQGVCKR","A2FP41BSPG0Y4A","3I7KR83SNAZT1REYB2SRC49PCEEK9H","","374.7999999523163","img/food5.png","75","376.5","2","1","1","2","1,0.5,0,1,0.5,0,0.5,0,1","0,1,0.5,0,1,0.5,1,0.5,0","3","false",""
"","html-keyboard-response","241","173830","0.0-269.0","3SNVL38CI5EXL9JVEO7K3D6LQGVCKR","A2FP41BSPG0Y4A","3I7KR83SNAZT1REYB2SRC49PCEEK9H","","null","<img src=""img/food5.png"" style=""width:200px; border:14px solid green;"">","null","","","","","","","","","",""
"","image-keyboard-response","242","174314","0.0-271.0","3SNVL38CI5EXL9JVEO7K3D6LQGVCKR","A2FP41BSPG0Y4A","3I7KR83SNAZT1REYB2SRC49PCEEK9H","","481.10000014305115","img/food3.png","74","483.40000009536743","1","1","3","2","1,0.5,0,1,0.5,0,0.5,0,1","0,1,0.5,0,1,0.5,1,0.5,0","3","false",""
"","html-keyboard-response","243","174627","0.0-272.0","3SNVL38CI5EXL9JVEO7K3D6LQGVCKR","A2FP41BSPG0Y4A","3I7KR83SNAZT1REYB2SRC49PCEEK9H","","null","<img src=""img/food3.png"" style=""width:200px; border:14px solid green;"">","null","","","","","","","","","",""
"","image-keyboard-response","244","175012","0.0-274.0","3SNVL38CI5EXL9JVEO7K3D6LQGVCKR","A2FP41BSPG0Y4A","3I7KR83SNAZT1REYB2SRC49PCEEK9H","","382.30000019073486","img/food5.png","75","383.7999999523163","2","1","1","2","1,0.5,0,1,0.5,0,0.5,0,1","0,1,0.5,0,1,0.5,1,0.5,0","3","false",""
"","html-keyboard-response","245","175320","0.0-275.0","3SNVL38CI5EXL9JVEO7K3D6LQGVCKR","A2FP41BSPG0Y4A","3I7KR83SNAZT1REYB2SRC49PCEEK9H","","null","<img src=""img/food5.png"" style=""width:200px; border:14px solid green;"">","null","","","","","","","","","",""
"","image-keyboard-response","246","175806","0.0-277.0","3SNVL38CI5EXL9JVEO7K3D6LQGVCKR","A2FP41BSPG0Y4A","3I7KR83SNAZT1REYB2SRC49PCEEK9H","","483.39999985694885","img/food4.png","75","485.09999990463257","2","1","2","2","1,0.5,0,1,0.5,0,0.5,0,1","0,1,0.5,0,1,0.5,1,0.5,0","3","false",""
"","html-keyboard-response","247","176115","0.0-278.0","3SNVL38CI5EXL9JVEO7K3D6LQGVCKR","A2FP41BSPG0Y4A","3I7KR83SNAZT1REYB2SRC49PCEEK9H","","null","<img src=""img/food4.png"" style=""width:200px; border:14px solid green;"">","null","","","","","","","","","",""
"","image-keyboard-response","248","176784","0.0-280.0","3SNVL38CI5EXL9JVEO7K3D6LQGVCKR","A2FP41BSPG0Y4A","3I7KR83SNAZT1REYB2SRC49PCEEK9H","","665.6000001430511","img/food5.png","75","667.7000000476837","2","1","1","2","1,0.5,0,1,0.5,0,0.5,0,1","0,1,0.5,0,1,0.5,1,0.5,0","3","false",""
"","html-keyboard-response","249","177099","0.0-281.0","3SNVL38CI5EXL9JVEO7K3D6LQGVCKR","A2FP41BSPG0Y4A","3I7KR83SNAZT1REYB2SRC49PCEEK9H","","null","<img src=""img/food5.png"" style=""width:200px; border:14px solid green;"">","null","","","","","","","","","",""
"","image-keyboard-response","250","177480","0.0-283.0","3SNVL38CI5EXL9JVEO7K3D6LQGVCKR","A2FP41BSPG0Y4A","3I7KR83SNAZT1REYB2SRC49PCEEK9H","","379.10000014305115","img/food4.png","75","380.90000009536743","2","1","2","2","1,0.5,0,1,0.5,0,0.5,0,1","0,1,0.5,0,1,0.5,1,0.5,0","3","false",""
"","html-keyboard-response","251","177787","0.0-284.0","3SNVL38CI5EXL9JVEO7K3D6LQGVCKR","A2FP41BSPG0Y4A","3I7KR83SNAZT1REYB2SRC49PCEEK9H","","null","<img src=""img/food4.png"" style=""width:200px; border:14px solid green;"">","null","","","","","","","","","",""
"","image-keyboard-response","252","178168","0.0-286.0","3SNVL38CI5EXL9JVEO7K3D6LQGVCKR","A2FP41BSPG0Y4A","3I7KR83SNAZT1REYB2SRC49PCEEK9H","","377.7000000476837","img/food4.png","75","379.5","2","1","2","2","1,0.5,0,1,0.5,0,0.5,0,1","0,1,0.5,0,1,0.5,1,0.5,0","3","false",""
"","html-keyboard-response","253","178479","0.0-287.0","3SNVL38CI5EXL9JVEO7K3D6LQGVCKR","A2FP41BSPG0Y4A","3I7KR83SNAZT1REYB2SRC49PCEEK9H","","null","<img src=""img/food4.png"" style=""width:200px; border:14px solid green;"">","null","","","","","","","","","",""
"","image-keyboard-response","254","178878","0.0-289.0","3SNVL38CI5EXL9JVEO7K3D6LQGVCKR","A2FP41BSPG0Y4A","3I7KR83SNAZT1REYB2SRC49PCEEK9H","","396.5","img/food4.png","75","398.19999980926514","2","1","2","2","1,0.5,0,1,0.5,0,0.5,0,1","0,1,0.5,0,1,0.5,1,0.5,0","3","false",""
"","html-keyboard-response","255","179182","0.0-290.0","3SNVL38CI5EXL9JVEO7K3D6LQGVCKR","A2FP41BSPG0Y4A","3I7KR83SNAZT1REYB2SRC49PCEEK9H","","null","<img src=""img/food4.png"" style=""width:200px; border:14px solid green;"">","null","","","","","","","","","",""
"","image-keyboard-response","256","179727","0.0-292.0","3SNVL38CI5EXL9JVEO7K3D6LQGVCKR","A2FP41BSPG0Y4A","3I7KR83SNAZT1REYB2SRC49PCEEK9H","","543.2999999523163","img/food3.png","74","545.1000001430511","1","1","3","2","1,0.5,0,1,0.5,0,0.5,0,1","0,1,0.5,0,1,0.5,1,0.5,0","3","false",""
"","html-keyboard-response","257","180032","0.0-293.0","3SNVL38CI5EXL9JVEO7K3D6LQGVCKR","A2FP41BSPG0Y4A","3I7KR83SNAZT1REYB2SRC49PCEEK9H","","null","<img src=""img/food3.png"" style=""width:200px; border:14px solid green;"">","null","","","","","","","","","",""
"","image-keyboard-response","258","180523","0.0-295.0","3SNVL38CI5EXL9JVEO7K3D6LQGVCKR","A2FP41BSPG0Y4A","3I7KR83SNAZT1REYB2SRC49PCEEK9H","","487","img/food3.png","74","488.89999985694885","1","1","3","2","1,0.5,0,1,0.5,0,0.5,0,1","0,1,0.5,0,1,0.5,1,0.5,0","3","false",""
"","html-keyboard-response","259","180832","0.0-296.0","3SNVL38CI5EXL9JVEO7K3D6LQGVCKR","A2FP41BSPG0Y4A","3I7KR83SNAZT1REYB2SRC49PCEEK9H","","null","<img src=""img/food3.png"" style=""width:200px; border:14px solid green;"">","null","","","","","","","","","",""
"","image-keyboard-response","260","181298","0.0-298.0","3SNVL38CI5EXL9JVEO7K3D6LQGVCKR","A2FP41BSPG0Y4A","3I7KR83SNAZT1REYB2SRC49PCEEK9H","","463.89999985694885","img/food4.png","75","465.7000000476837","2","1","2","2","1,0.5,0,1,0.5,0,0.5,0,1","0,1,0.5,0,1,0.5,1,0.5,0","3","false",""
"","html-keyboard-response","261","181603","0.0-299.0","3SNVL38CI5EXL9JVEO7K3D6LQGVCKR","A2FP41BSPG0Y4A","3I7KR83SNAZT1REYB2SRC49PCEEK9H","","null","<img src=""img/food4.png"" style=""width:200px; border:14px solid green;"">","null","","","","","","","","","",""
"","image-keyboard-response","262","182233","0.0-301.0","3SNVL38CI5EXL9JVEO7K3D6LQGVCKR","A2FP41BSPG0Y4A","3I7KR83SNAZT1REYB2SRC49PCEEK9H","","627.2000000476837","img/food5.png","75","628.8999998569489","2","1","1","2","1,0.5,0,1,0.5,0,0.5,0,1","0,1,0.5,0,1,0.5,1,0.5,0","3","false",""
"","html-keyboard-response","263","182538","0.0-302.0","3SNVL38CI5EXL9JVEO7K3D6LQGVCKR","A2FP41BSPG0Y4A","3I7KR83SNAZT1REYB2SRC49PCEEK9H","","null","<img src=""img/food5.png"" style=""width:200px; border:14px solid green;"">","null","","","","","","","","","",""
"","image-keyboard-response","264","183054","0.0-304.0","3SNVL38CI5EXL9JVEO7K3D6LQGVCKR","A2FP41BSPG0Y4A","3I7KR83SNAZT1REYB2SRC49PCEEK9H","","513.0999999046326","img/food3.png","75","514.6000001430511","2","0","3","2","1,0.5,0,1,0.5,0,0.5,0,1","0,1,0.5,0,1,0.5,1,0.5,0","3","false",""
"","html-keyboard-response","265","183361","0.0-305.0","3SNVL38CI5EXL9JVEO7K3D6LQGVCKR","A2FP41BSPG0Y4A","3I7KR83SNAZT1REYB2SRC49PCEEK9H","","null","<img src=""img/food3.png"" style=""width:200px;border:14px solid red;"">","null","","","","","","","","","",""
"","image-keyboard-response","266","183846","0.0-307.0","3SNVL38CI5EXL9JVEO7K3D6LQGVCKR","A2FP41BSPG0Y4A","3I7KR83SNAZT1REYB2SRC49PCEEK9H","","482.2999999523163","img/food5.png","75","484","2","1","1","2","1,0.5,0,1,0.5,0,0.5,0,1","0,1,0.5,0,1,0.5,1,0.5,0","3","false",""
"","html-keyboard-response","267","184150","0.0-308.0","3SNVL38CI5EXL9JVEO7K3D6LQGVCKR","A2FP41BSPG0Y4A","3I7KR83SNAZT1REYB2SRC49PCEEK9H","","null","<img src=""img/food5.png"" style=""width:200px; border:14px solid green;"">","null","","","","","","","","","",""
"","image-keyboard-response","268","184830","0.0-310.0","3SNVL38CI5EXL9JVEO7K3D6LQGVCKR","A2FP41BSPG0Y4A","3I7KR83SNAZT1REYB2SRC49PCEEK9H","","677.7000000476837","img/food3.png","74","679.5","1","1","3","2","1,0.5,0,1,0.5,0,0.5,0,1","0,1,0.5,0,1,0.5,1,0.5,0","3","false",""
"","html-keyboard-response","269","185151","0.0-311.0","3SNVL38CI5EXL9JVEO7K3D6LQGVCKR","A2FP41BSPG0Y4A","3I7KR83SNAZT1REYB2SRC49PCEEK9H","","null","<img src=""img/food3.png"" style=""width:200px; border:14px solid green;"">","null","","","","","","","","","",""
"","image-keyboard-response","270","185629","0.0-313.0","3SNVL38CI5EXL9JVEO7K3D6LQGVCKR","A2FP41BSPG0Y4A","3I7KR83SNAZT1REYB2SRC49PCEEK9H","","475.59999990463257","img/food4.png","75","477.40000009536743","2","1","2","2","1,0.5,0,1,0.5,0,0.5,0,1","0,1,0.5,0,1,0.5,1,0.5,0","3","false",""
"","html-keyboard-response","271","185931","0.0-314.0","3SNVL38CI5EXL9JVEO7K3D6LQGVCKR","A2FP41BSPG0Y4A","3I7KR83SNAZT1REYB2SRC49PCEEK9H","","null","<img src=""img/food4.png"" style=""width:200px; border:14px solid green;"">","null","","","","","","","","","",""
"","image-keyboard-response","272","186481","0.0-316.0","3SNVL38CI5EXL9JVEO7K3D6LQGVCKR","A2FP41BSPG0Y4A","3I7KR83SNAZT1REYB2SRC49PCEEK9H","","547","img/food4.png","75","548.7999999523163","2","1","2","2","1,0.5,0,1,0.5,0,0.5,0,1","0,1,0.5,0,1,0.5,1,0.5,0","3","false",""
"","html-keyboard-response","273","186789","0.0-317.0","3SNVL38CI5EXL9JVEO7K3D6LQGVCKR","A2FP41BSPG0Y4A","3I7KR83SNAZT1REYB2SRC49PCEEK9H","","null","<img src=""img/food4.png"" style=""width:200px; border:14px solid green;"">","null","","","","","","","","","",""
"","image-keyboard-response","274","187248","0.0-319.0","3SNVL38CI5EXL9JVEO7K3D6LQGVCKR","A2FP41BSPG0Y4A","3I7KR83SNAZT1REYB2SRC49PCEEK9H","","456.89999985694885","img/food3.png","74","458.7000000476837","1","1","3","2","1,0.5,0,1,0.5,0,0.5,0,1","0,1,0.5,0,1,0.5,1,0.5,0","3","false",""
"","html-keyboard-response","275","187555","0.0-320.0","3SNVL38CI5EXL9JVEO7K3D6LQGVCKR","A2FP41BSPG0Y4A","3I7KR83SNAZT1REYB2SRC49PCEEK9H","","null","<img src=""img/food3.png"" style=""width:200px; border:14px solid green;"">","null","","","","","","","","","",""
"","image-keyboard-response","276","187954","0.0-322.0","3SNVL38CI5EXL9JVEO7K3D6LQGVCKR","A2FP41BSPG0Y4A","3I7KR83SNAZT1REYB2SRC49PCEEK9H","","396.80000019073486","img/food3.png","74","398.7999999523163","1","1","3","2","1,0.5,0,1,0.5,0,0.5,0,1","0,1,0.5,0,1,0.5,1,0.5,0","3","false",""
"","html-keyboard-response","277","188263","0.0-323.0","3SNVL38CI5EXL9JVEO7K3D6LQGVCKR","A2FP41BSPG0Y4A","3I7KR83SNAZT1REYB2SRC49PCEEK9H","","null","<img src=""img/food3.png"" style=""width:200px; border:14px solid green;"">","null","","","","","","","","","",""
"","image-keyboard-response","278","188741","0.0-325.0","3SNVL38CI5EXL9JVEO7K3D6LQGVCKR","A2FP41BSPG0Y4A","3I7KR83SNAZT1REYB2SRC49PCEEK9H","","475.59999990463257","img/food5.png","75","477.39999985694885","2","1","1","2","1,0.5,0,1,0.5,0,0.5,0,1","0,1,0.5,0,1,0.5,1,0.5,0","3","false",""
"","html-keyboard-response","279","189045","0.0-326.0","3SNVL38CI5EXL9JVEO7K3D6LQGVCKR","A2FP41BSPG0Y4A","3I7KR83SNAZT1REYB2SRC49PCEEK9H","","null","<img src=""img/food5.png"" style=""width:200px; border:14px solid green;"">","null","","","","","","","","","",""
"","image-keyboard-response","280","190051","0.0-328.0","3SNVL38CI5EXL9JVEO7K3D6LQGVCKR","A2FP41BSPG0Y4A","3I7KR83SNAZT1REYB2SRC49PCEEK9H","","","img/food4.png","","1005.8000001907349","-1","0","2","2","1,0.5,0,1,0.5,0,0.5,0,1","0,1,0.5,0,1,0.5,1,0.5,0","3","true",""
"","html-keyboard-response","281","190358","0.0-329.0","3SNVL38CI5EXL9JVEO7K3D6LQGVCKR","A2FP41BSPG0Y4A","3I7KR83SNAZT1REYB2SRC49PCEEK9H","","null","<img src=""img/food4.png"" style=""width:200px;border:14px solid red;"">","null","","","","","","","","","",""
"","html-keyboard-response","282","191845","0.0-330.0-0.0","3SNVL38CI5EXL9JVEO7K3D6LQGVCKR","A2FP41BSPG0Y4A","3I7KR83SNAZT1REYB2SRC49PCEEK9H","","","","","","","","","","","","","",""
"","image-keyboard-response","283","192852","0.0-331.0","3SNVL38CI5EXL9JVEO7K3D6LQGVCKR","A2FP41BSPG0Y4A","3I7KR83SNAZT1REYB2SRC49PCEEK9H","","","img/food4.png","","1007","-1","0","2","2","1,0.5,0,1,0.5,0,0.5,0,1","0,1,0.5,0,1,0.5,1,0.5,0","3","true",""
"","html-keyboard-response","284","193163","0.0-332.0","3SNVL38CI5EXL9JVEO7K3D6LQGVCKR","A2FP41BSPG0Y4A","3I7KR83SNAZT1REYB2SRC49PCEEK9H","","null","<img src=""img/food4.png"" style=""width:200px;border:14px solid red;"">","null","","","","","","","","","",""
"","html-keyboard-response","285","197441","0.0-333.0-0.0","3SNVL38CI5EXL9JVEO7K3D6LQGVCKR","A2FP41BSPG0Y4A","3I7KR83SNAZT1REYB2SRC49PCEEK9H","","","","","","","","","","","","","",""
"","image-keyboard-response","286","197818","0.0-334.0","3SNVL38CI5EXL9JVEO7K3D6LQGVCKR","A2FP41BSPG0Y4A","3I7KR83SNAZT1REYB2SRC49PCEEK9H","","375.2000000476837","img/food5.png","75","376.89999985694885","2","1","1","2","1,0.5,0,1,0.5,0,0.5,0,1","0,1,0.5,0,1,0.5,1,0.5,0","3","false",""
"","html-keyboard-response","287","198136","0.0-335.0","3SNVL38CI5EXL9JVEO7K3D6LQGVCKR","A2FP41BSPG0Y4A","3I7KR83SNAZT1REYB2SRC49PCEEK9H","","null","<img src=""img/food5.png"" style=""width:200px; border:14px solid green;"">","null","","","","","","","","","",""
"","image-keyboard-response","288","198434","0.0-337.0","3SNVL38CI5EXL9JVEO7K3D6LQGVCKR","A2FP41BSPG0Y4A","3I7KR83SNAZT1REYB2SRC49PCEEK9H","","295.2999999523163","img/food3.png","75","297.7000000476837","2","1","3","2","1,0.5,0,1,0.5,0,0.5,0,1","0,1,0.5,0,1,0.5,1,0.5,0","3","false",""
"","html-keyboard-response","289","198743","0.0-338.0","3SNVL38CI5EXL9JVEO7K3D6LQGVCKR","A2FP41BSPG0Y4A","3I7KR83SNAZT1REYB2SRC49PCEEK9H","","null","<img src=""img/food3.png"" style=""width:200px; border:14px solid green;"">","null","","","","","","","","","",""
"","image-keyboard-response","290","198958","0.0-340.0","3SNVL38CI5EXL9JVEO7K3D6LQGVCKR","A2FP41BSPG0Y4A","3I7KR83SNAZT1REYB2SRC49PCEEK9H","","213","img/food3.png","74","215.09999990463257","1","1","3","2","1,0.5,0,1,0.5,0,0.5,0,1","0,1,0.5,0,1,0.5,1,0.5,0","3","false",""
"","html-keyboard-response","291","199270","0.0-341.0","3SNVL38CI5EXL9JVEO7K3D6LQGVCKR","A2FP41BSPG0Y4A","3I7KR83SNAZT1REYB2SRC49PCEEK9H","","null","<img src=""img/food3.png"" style=""width:200px; border:14px solid green;"">","null","","","","","","","","","",""
"","image-keyboard-response","292","199518","0.0-343.0","3SNVL38CI5EXL9JVEO7K3D6LQGVCKR","A2FP41BSPG0Y4A","3I7KR83SNAZT1REYB2SRC49PCEEK9H","","245.20000004768372","img/food4.png","75","246.89999985694885","2","1","2","2","1,0.5,0,1,0.5,0,0.5,0,1","0,1,0.5,0,1,0.5,1,0.5,0","3","false",""
"","html-keyboard-response","293","199824","0.0-344.0","3SNVL38CI5EXL9JVEO7K3D6LQGVCKR","A2FP41BSPG0Y4A","3I7KR83SNAZT1REYB2SRC49PCEEK9H","","null","<img src=""img/food4.png"" style=""width:200px; border:14px solid green;"">","null","","","","","","","","","",""
"","image-keyboard-response","294","200287","0.0-346.0","3SNVL38CI5EXL9JVEO7K3D6LQGVCKR","A2FP41BSPG0Y4A","3I7KR83SNAZT1REYB2SRC49PCEEK9H","","460.59999990463257","img/food5.png","75","462.40000009536743","2","1","1","2","1,0.5,0,1,0.5,0,0.5,0,1","0,1,0.5,0,1,0.5,1,0.5,0","3","false",""
"","html-keyboard-response","295","200592","0.0-347.0","3SNVL38CI5EXL9JVEO7K3D6LQGVCKR","A2FP41BSPG0Y4A","3I7KR83SNAZT1REYB2SRC49PCEEK9H","","null","<img src=""img/food5.png"" style=""width:200px; border:14px solid green;"">","null","","","","","","","","","",""
"","image-keyboard-response","296","200909","0.0-349.0","3SNVL38CI5EXL9JVEO7K3D6LQGVCKR","A2FP41BSPG0Y4A","3I7KR83SNAZT1REYB2SRC49PCEEK9H","","314.2999999523163","img/food5.png","75","316","2","1","1","2","1,0.5,0,1,0.5,0,0.5,0,1","0,1,0.5,0,1,0.5,1,0.5,0","3","false",""
"","html-keyboard-response","297","201214","0.0-350.0","3SNVL38CI5EXL9JVEO7K3D6LQGVCKR","A2FP41BSPG0Y4A","3I7KR83SNAZT1REYB2SRC49PCEEK9H","","null","<img src=""img/food5.png"" style=""width:200px; border:14px solid green;"">","null","","","","","","","","","",""
"","image-keyboard-response","298","201462","0.0-352.0","3SNVL38CI5EXL9JVEO7K3D6LQGVCKR","A2FP41BSPG0Y4A","3I7KR83SNAZT1REYB2SRC49PCEEK9H","","245.40000009536743","img/food4.png","75","247","2","1","2","2","1,0.5,0,1,0.5,0,0.5,0,1","0,1,0.5,0,1,0.5,1,0.5,0","3","false",""
"","html-keyboard-response","299","201774","0.0-353.0","3SNVL38CI5EXL9JVEO7K3D6LQGVCKR","A2FP41BSPG0Y4A","3I7KR83SNAZT1REYB2SRC49PCEEK9H","","null","<img src=""img/food4.png"" style=""width:200px; border:14px solid green;"">","null","","","","","","","","","",""
"","image-keyboard-response","300","202071","0.0-355.0","3SNVL38CI5EXL9JVEO7K3D6LQGVCKR","A2FP41BSPG0Y4A","3I7KR83SNAZT1REYB2SRC49PCEEK9H","","294.90000009536743","img/food3.png","75","296.59999990463257","2","1","3","2","1,0.5,0,1,0.5,0,0.5,0,1","0,1,0.5,0,1,0.5,1,0.5,0","3","false",""
"","html-keyboard-response","301","202382","0.0-356.0","3SNVL38CI5EXL9JVEO7K3D6LQGVCKR","A2FP41BSPG0Y4A","3I7KR83SNAZT1REYB2SRC49PCEEK9H","","null","<img src=""img/food3.png"" style=""width:200px; border:14px solid green;"">","null","","","","","","","","","",""
"","image-keyboard-response","302","202785","0.0-358.0","3SNVL38CI5EXL9JVEO7K3D6LQGVCKR","A2FP41BSPG0Y4A","3I7KR83SNAZT1REYB2SRC49PCEEK9H","","401.2000000476837","img/food4.png","75","402.7999999523163","2","1","2","2","1,0.5,0,1,0.5,0,0.5,0,1","0,1,0.5,0,1,0.5,1,0.5,0","3","false",""
"","html-keyboard-response","303","203089","0.0-359.0","3SNVL38CI5EXL9JVEO7K3D6LQGVCKR","A2FP41BSPG0Y4A","3I7KR83SNAZT1REYB2SRC49PCEEK9H","","null","<img src=""img/food4.png"" style=""width:200px; border:14px solid green;"">","null","","","","","","","","","",""
"","image-keyboard-response","304","203428","0.0-361.0","3SNVL38CI5EXL9JVEO7K3D6LQGVCKR","A2FP41BSPG0Y4A","3I7KR83SNAZT1REYB2SRC49PCEEK9H","","336.40000009536743","img/food4.png","75","338.40000009536743","2","1","2","2","1,0.5,0,1,0.5,0,0.5,0,1","0,1,0.5,0,1,0.5,1,0.5,0","3","false",""
"","html-keyboard-response","305","203735","0.0-362.0","3SNVL38CI5EXL9JVEO7K3D6LQGVCKR","A2FP41BSPG0Y4A","3I7KR83SNAZT1REYB2SRC49PCEEK9H","","null","<img src=""img/food4.png"" style=""width:200px; border:14px solid green;"">","null","","","","","","","","","",""
"","image-keyboard-response","306","204056","0.0-364.0","3SNVL38CI5EXL9JVEO7K3D6LQGVCKR","A2FP41BSPG0Y4A","3I7KR83SNAZT1REYB2SRC49PCEEK9H","","319","img/food3.png","75","320.7000000476837","2","1","3","2","1,0.5,0,1,0.5,0,0.5,0,1","0,1,0.5,0,1,0.5,1,0.5,0","3","false",""
"","html-keyboard-response","307","204361","0.0-365.0","3SNVL38CI5EXL9JVEO7K3D6LQGVCKR","A2FP41BSPG0Y4A","3I7KR83SNAZT1REYB2SRC49PCEEK9H","","null","<img src=""img/food3.png"" style=""width:200px; border:14px solid green;"">","null","","","","","","","","","",""
"","image-keyboard-response","308","204710","0.0-367.0","3SNVL38CI5EXL9JVEO7K3D6LQGVCKR","A2FP41BSPG0Y4A","3I7KR83SNAZT1REYB2SRC49PCEEK9H","","346.10000014305115","img/food3.png","75","347.89999985694885","2","1","3","2","1,0.5,0,1,0.5,0,0.5,0,1","0,1,0.5,0,1,0.5,1,0.5,0","3","false",""
"","html-keyboard-response","309","205019","0.0-368.0","3SNVL38CI5EXL9JVEO7K3D6LQGVCKR","A2FP41BSPG0Y4A","3I7KR83SNAZT1REYB2SRC49PCEEK9H","","null","<img src=""img/food3.png"" style=""width:200px; border:14px solid green;"">","null","","","","","","","","","",""
"","image-keyboard-response","310","205311","0.0-370.0","3SNVL38CI5EXL9JVEO7K3D6LQGVCKR","A2FP41BSPG0Y4A","3I7KR83SNAZT1REYB2SRC49PCEEK9H","","289.19999980926514","img/food4.png","75","291","2","1","2","2","1,0.5,0,1,0.5,0,0.5,0,1","0,1,0.5,0,1,0.5,1,0.5,0","3","false",""
"","html-keyboard-response","311","205614","0.0-371.0","3SNVL38CI5EXL9JVEO7K3D6LQGVCKR","A2FP41BSPG0Y4A","3I7KR83SNAZT1REYB2SRC49PCEEK9H","","null","<img src=""img/food4.png"" style=""width:200px; border:14px solid green;"">","null","","","","","","","","","",""
"","image-keyboard-response","312","205962","0.0-373.0","3SNVL38CI5EXL9JVEO7K3D6LQGVCKR","A2FP41BSPG0Y4A","3I7KR83SNAZT1REYB2SRC49PCEEK9H","","345.2000000476837","img/food4.png","75","346.7999999523163","2","1","2","2","1,0.5,0,1,0.5,0,0.5,0,1","0,1,0.5,0,1,0.5,1,0.5,0","3","false",""
"","html-keyboard-response","313","206271","0.0-374.0","3SNVL38CI5EXL9JVEO7K3D6LQGVCKR","A2FP41BSPG0Y4A","3I7KR83SNAZT1REYB2SRC49PCEEK9H","","null","<img src=""img/food4.png"" style=""width:200px; border:14px solid green;"">","null","","","","","","","","","",""
"","image-keyboard-response","314","206532","0.0-376.0","3SNVL38CI5EXL9JVEO7K3D6LQGVCKR","A2FP41BSPG0Y4A","3I7KR83SNAZT1REYB2SRC49PCEEK9H","","258.60000014305115","img/food3.png","75","260.40000009536743","2","1","3","2","1,0.5,0,1,0.5,0,0.5,0,1","0,1,0.5,0,1,0.5,1,0.5,0","3","false",""
"","html-keyboard-response","315","206843","0.0-377.0","3SNVL38CI5EXL9JVEO7K3D6LQGVCKR","A2FP41BSPG0Y4A","3I7KR83SNAZT1REYB2SRC49PCEEK9H","","null","<img src=""img/food3.png"" style=""width:200px; border:14px solid green;"">","null","","","","","","","","","",""
"","image-keyboard-response","316","207056","0.0-379.0","3SNVL38CI5EXL9JVEO7K3D6LQGVCKR","A2FP41BSPG0Y4A","3I7KR83SNAZT1REYB2SRC49PCEEK9H","","210.29999995231628","img/food3.png","75","212.10000014305115","2","0","3","2","1,0.5,0,1,0.5,0,0.5,0,1","0,1,0.5,0,1,0.5,1,0.5,0","3","false",""
"","html-keyboard-response","317","207366","0.0-380.0","3SNVL38CI5EXL9JVEO7K3D6LQGVCKR","A2FP41BSPG0Y4A","3I7KR83SNAZT1REYB2SRC49PCEEK9H","","null","<img src=""img/food3.png"" style=""width:200px;border:14px solid red;"">","null","","","","","","","","","",""
"","image-keyboard-response","318","207651","0.0-382.0","3SNVL38CI5EXL9JVEO7K3D6LQGVCKR","A2FP41BSPG0Y4A","3I7KR83SNAZT1REYB2SRC49PCEEK9H","","282.60000014305115","img/food3.png","74","284.2000000476837","1","1","3","2","1,0.5,0,1,0.5,0,0.5,0,1","0,1,0.5,0,1,0.5,1,0.5,0","3","false",""
"","html-keyboard-response","319","207955","0.0-383.0","3SNVL38CI5EXL9JVEO7K3D6LQGVCKR","A2FP41BSPG0Y4A","3I7KR83SNAZT1REYB2SRC49PCEEK9H","","null","<img src=""img/food3.png"" style=""width:200px; border:14px solid green;"">","null","","","","","","","","","",""
"","image-keyboard-response","320","208175","0.0-385.0","3SNVL38CI5EXL9JVEO7K3D6LQGVCKR","A2FP41BSPG0Y4A","3I7KR83SNAZT1REYB2SRC49PCEEK9H","","217.79999995231628","img/food4.png","75","219.60000014305115","2","1","2","2","1,0.5,0,1,0.5,0,0.5,0,1","0,1,0.5,0,1,0.5,1,0.5,0","3","false",""
"","html-keyboard-response","321","208484","0.0-386.0","3SNVL38CI5EXL9JVEO7K3D6LQGVCKR","A2FP41BSPG0Y4A","3I7KR83SNAZT1REYB2SRC49PCEEK9H","","null","<img src=""img/food4.png"" style=""width:200px; border:14px solid green;"">","null","","","","","","","","","",""
"","image-keyboard-response","322","208787","0.0-388.0","3SNVL38CI5EXL9JVEO7K3D6LQGVCKR","A2FP41BSPG0Y4A","3I7KR83SNAZT1REYB2SRC49PCEEK9H","","300.09999990463257","img/food3.png","75","301.90000009536743","2","1","3","2","1,0.5,0,1,0.5,0,0.5,0,1","0,1,0.5,0,1,0.5,1,0.5,0","3","false",""
"","html-keyboard-response","323","209093","0.0-389.0","3SNVL38CI5EXL9JVEO7K3D6LQGVCKR","A2FP41BSPG0Y4A","3I7KR83SNAZT1REYB2SRC49PCEEK9H","","null","<img src=""img/food3.png"" style=""width:200px; border:14px solid green;"">","null","","","","","","","","","",""
"","image-keyboard-response","324","209454","0.0-391.0","3SNVL38CI5EXL9JVEO7K3D6LQGVCKR","A2FP41BSPG0Y4A","3I7KR83SNAZT1REYB2SRC49PCEEK9H","","357.80000019073486","img/food3.png","74","359.60000014305115","1","1","3","2","1,0.5,0,1,0.5,0,0.5,0,1","0,1,0.5,0,1,0.5,1,0.5,0","3","false",""
"","html-keyboard-response","325","209765","0.0-392.0","3SNVL38CI5EXL9JVEO7K3D6LQGVCKR","A2FP41BSPG0Y4A","3I7KR83SNAZT1REYB2SRC49PCEEK9H","","null","<img src=""img/food3.png"" style=""width:200px; border:14px solid green;"">","null","","","","","","","","","",""
"","image-keyboard-response","326","209950","0.0-394.0","3SNVL38CI5EXL9JVEO7K3D6LQGVCKR","A2FP41BSPG0Y4A","3I7KR83SNAZT1REYB2SRC49PCEEK9H","","183.10000014305115","img/food4.png","75","184.79999995231628","2","1","2","2","1,0.5,0,1,0.5,0,0.5,0,1","0,1,0.5,0,1,0.5,1,0.5,0","3","false",""
"","html-keyboard-response","327","210262","0.0-395.0","3SNVL38CI5EXL9JVEO7K3D6LQGVCKR","A2FP41BSPG0Y4A","3I7KR83SNAZT1REYB2SRC49PCEEK9H","","null","<img src=""img/food4.png"" style=""width:200px; border:14px solid green;"">","null","","","","","","","","","",""
"","image-keyboard-response","328","210580","0.0-397.0","3SNVL38CI5EXL9JVEO7K3D6LQGVCKR","A2FP41BSPG0Y4A","3I7KR83SNAZT1REYB2SRC49PCEEK9H","","315.90000009536743","img/food5.png","75","317.60000014305115","2","1","1","2","1,0.5,0,1,0.5,0,0.5,0,1","0,1,0.5,0,1,0.5,1,0.5,0","3","false",""
"","html-keyboard-response","329","210884","0.0-398.0","3SNVL38CI5EXL9JVEO7K3D6LQGVCKR","A2FP41BSPG0Y4A","3I7KR83SNAZT1REYB2SRC49PCEEK9H","","null","<img src=""img/food5.png"" style=""width:200px; border:14px solid green;"">","null","","","","","","","","","",""
"","image-keyboard-response","330","211285","0.0-400.0","3SNVL38CI5EXL9JVEO7K3D6LQGVCKR","A2FP41BSPG0Y4A","3I7KR83SNAZT1REYB2SRC49PCEEK9H","","398.90000009536743","img/food3.png","75","400.7000000476837","2","1","3","2","1,0.5,0,1,0.5,0,0.5,0,1","0,1,0.5,0,1,0.5,1,0.5,0","3","false",""
"","html-keyboard-response","331","211591","0.0-401.0","3SNVL38CI5EXL9JVEO7K3D6LQGVCKR","A2FP41BSPG0Y4A","3I7KR83SNAZT1REYB2SRC49PCEEK9H","","null","<img src=""img/food3.png"" style=""width:200px; border:14px solid green;"">","null","","","","","","","","","",""
"","image-keyboard-response","332","211628","0.0-403.0","3SNVL38CI5EXL9JVEO7K3D6LQGVCKR","A2FP41BSPG0Y4A","3I7KR83SNAZT1REYB2SRC49PCEEK9H","","34.89999985694885","img/food5.png","74","36.5","1","0","1","2","1,0.5,0,1,0.5,0,0.5,0,1","0,1,0.5,0,1,0.5,1,0.5,0","3","false",""
"","html-keyboard-response","333","211937","0.0-404.0","3SNVL38CI5EXL9JVEO7K3D6LQGVCKR","A2FP41BSPG0Y4A","3I7KR83SNAZT1REYB2SRC49PCEEK9H","","null","<img src=""img/food5.png"" style=""width:200px;border:14px solid red;"">","null","","","","","","","","","",""
"","image-keyboard-response","334","212187","0.0-406.0","3SNVL38CI5EXL9JVEO7K3D6LQGVCKR","A2FP41BSPG0Y4A","3I7KR83SNAZT1REYB2SRC49PCEEK9H","","247.20000004768372","img/food5.png","75","249","2","1","1","2","1,0.5,0,1,0.5,0,0.5,0,1","0,1,0.5,0,1,0.5,1,0.5,0","3","false",""
"","html-keyboard-response","335","212496","0.0-407.0","3SNVL38CI5EXL9JVEO7K3D6LQGVCKR","A2FP41BSPG0Y4A","3I7KR83SNAZT1REYB2SRC49PCEEK9H","","null","<img src=""img/food5.png"" style=""width:200px; border:14px solid green;"">","null","","","","","","","","","",""
"","image-keyboard-response","336","212826","0.0-409.0","3SNVL38CI5EXL9JVEO7K3D6LQGVCKR","A2FP41BSPG0Y4A","3I7KR83SNAZT1REYB2SRC49PCEEK9H","","326.89999985694885","img/food5.png","75","328.89999985694885","2","1","1","2","1,0.5,0,1,0.5,0,0.5,0,1","0,1,0.5,0,1,0.5,1,0.5,0","3","false",""
"","html-keyboard-response","337","213139","0.0-410.0","3SNVL38CI5EXL9JVEO7K3D6LQGVCKR","A2FP41BSPG0Y4A","3I7KR83SNAZT1REYB2SRC49PCEEK9H","","null","<img src=""img/food5.png"" style=""width:200px; border:14px solid green;"">","null","","","","","","","","","",""
"","image-keyboard-response","338","213530","0.0-412.0","3SNVL38CI5EXL9JVEO7K3D6LQGVCKR","A2FP41BSPG0Y4A","3I7KR83SNAZT1REYB2SRC49PCEEK9H","","386","img/food5.png","75","388.39999985694885","2","1","1","2","1,0.5,0,1,0.5,0,0.5,0,1","0,1,0.5,0,1,0.5,1,0.5,0","3","false",""
"","html-keyboard-response","339","213841","0.0-413.0","3SNVL38CI5EXL9JVEO7K3D6LQGVCKR","A2FP41BSPG0Y4A","3I7KR83SNAZT1REYB2SRC49PCEEK9H","","null","<img src=""img/food5.png"" style=""width:200px; border:14px solid green;"">","null","","","","","","","","","",""
"","image-keyboard-response","340","214297","0.0-415.0","3SNVL38CI5EXL9JVEO7K3D6LQGVCKR","A2FP41BSPG0Y4A","3I7KR83SNAZT1REYB2SRC49PCEEK9H","","453.60000014305115","img/food5.png","75","455.2999999523163","2","1","1","2","1,0.5,0,1,0.5,0,0.5,0,1","0,1,0.5,0,1,0.5,1,0.5,0","3","false",""
"","html-keyboard-response","341","214604","0.0-416.0","3SNVL38CI5EXL9JVEO7K3D6LQGVCKR","A2FP41BSPG0Y4A","3I7KR83SNAZT1REYB2SRC49PCEEK9H","","null","<img src=""img/food5.png"" style=""width:200px; border:14px solid green;"">","null","","","","","","","","","",""
"","image-keyboard-response","342","214928","0.0-418.0","3SNVL38CI5EXL9JVEO7K3D6LQGVCKR","A2FP41BSPG0Y4A","3I7KR83SNAZT1REYB2SRC49PCEEK9H","","320.10000014305115","img/food5.png","75","322.59999990463257","2","1","1","2","1,0.5,0,1,0.5,0,0.5,0,1","0,1,0.5,0,1,0.5,1,0.5,0","3","false",""
"","html-keyboard-response","343","215246","0.0-419.0","3SNVL38CI5EXL9JVEO7K3D6LQGVCKR","A2FP41BSPG0Y4A","3I7KR83SNAZT1REYB2SRC49PCEEK9H","","null","<img src=""img/food5.png"" style=""width:200px; border:14px solid green;"">","null","","","","","","","","","",""
"","image-keyboard-response","344","215558","0.0-421.0","3SNVL38CI5EXL9JVEO7K3D6LQGVCKR","A2FP41BSPG0Y4A","3I7KR83SNAZT1REYB2SRC49PCEEK9H","","309.90000009536743","img/food3.png","75","311.40000009536743","2","1","3","2","1,0.5,0,1,0.5,0,0.5,0,1","0,1,0.5,0,1,0.5,1,0.5,0","3","false",""
"","html-keyboard-response","345","215870","0.0-422.0","3SNVL38CI5EXL9JVEO7K3D6LQGVCKR","A2FP41BSPG0Y4A","3I7KR83SNAZT1REYB2SRC49PCEEK9H","","null","<img src=""img/food3.png"" style=""width:200px; border:14px solid green;"">","null","","","","","","","","","",""
"","image-keyboard-response","346","216128","0.0-424.0","3SNVL38CI5EXL9JVEO7K3D6LQGVCKR","A2FP41BSPG0Y4A","3I7KR83SNAZT1REYB2SRC49PCEEK9H","","255.59999990463257","img/food5.png","74","257.5","1","0","1","2","1,0.5,0,1,0.5,0,0.5,0,1","0,1,0.5,0,1,0.5,1,0.5,0","3","false",""
"","html-keyboard-response","347","216435","0.0-425.0","3SNVL38CI5EXL9JVEO7K3D6LQGVCKR","A2FP41BSPG0Y4A","3I7KR83SNAZT1REYB2SRC49PCEEK9H","","null","<img src=""img/food5.png"" style=""width:200px;border:14px solid red;"">","null","","","","","","","","","",""
"","image-keyboard-response","348","216644","0.0-427.0","3SNVL38CI5EXL9JVEO7K3D6LQGVCKR","A2FP41BSPG0Y4A","3I7KR83SNAZT1REYB2SRC49PCEEK9H","","206.79999995231628","img/food4.png","75","208.5","2","1","2","2","1,0.5,0,1,0.5,0,0.5,0,1","0,1,0.5,0,1,0.5,1,0.5,0","3","false",""
"","html-keyboard-response","349","216960","0.0-428.0","3SNVL38CI5EXL9JVEO7K3D6LQGVCKR","A2FP41BSPG0Y4A","3I7KR83SNAZT1REYB2SRC49PCEEK9H","","null","<img src=""img/food4.png"" style=""width:200px; border:14px solid green;"">","null","","","","","","","","","",""
"","image-keyboard-response","350","217289","0.0-430.0","3SNVL38CI5EXL9JVEO7K3D6LQGVCKR","A2FP41BSPG0Y4A","3I7KR83SNAZT1REYB2SRC49PCEEK9H","","326.7999999523163","img/food3.png","75","328.2999999523163","2","0","3","2","1,0.5,0,1,0.5,0,0.5,0,1","0,1,0.5,0,1,0.5,1,0.5,0","3","false",""
"","html-keyboard-response","351","217600","0.0-431.0","3SNVL38CI5EXL9JVEO7K3D6LQGVCKR","A2FP41BSPG0Y4A","3I7KR83SNAZT1REYB2SRC49PCEEK9H","","null","<img src=""img/food3.png"" style=""width:200px;border:14px solid red;"">","null","","","","","","","","","",""
"","image-keyboard-response","352","218004","0.0-433.0","3SNVL38CI5EXL9JVEO7K3D6LQGVCKR","A2FP41BSPG0Y4A","3I7KR83SNAZT1REYB2SRC49PCEEK9H","","401.59999990463257","img/food3.png","74","403.10000014305115","1","1","3","2","1,0.5,0,1,0.5,0,0.5,0,1","0,1,0.5,0,1,0.5,1,0.5,0","3","false",""
"","html-keyboard-response","353","218314","0.0-434.0","3SNVL38CI5EXL9JVEO7K3D6LQGVCKR","A2FP41BSPG0Y4A","3I7KR83SNAZT1REYB2SRC49PCEEK9H","","null","<img src=""img/food3.png"" style=""width:200px; border:14px solid green;"">","null","","","","","","","","","",""
"","image-keyboard-response","354","218652","0.0-436.0","3SNVL38CI5EXL9JVEO7K3D6LQGVCKR","A2FP41BSPG0Y4A","3I7KR83SNAZT1REYB2SRC49PCEEK9H","","336","img/food5.png","75","337.7999999523163","2","1","1","2","1,0.5,0,1,0.5,0,0.5,0,1","0,1,0.5,0,1,0.5,1,0.5,0","3","false",""
"","html-keyboard-response","355","218961","0.0-437.0","3SNVL38CI5EXL9JVEO7K3D6LQGVCKR","A2FP41BSPG0Y4A","3I7KR83SNAZT1REYB2SRC49PCEEK9H","","null","<img src=""img/food5.png"" style=""width:200px; border:14px solid green;"">","null","","","","","","","","","",""
"","image-keyboard-response","356","219337","0.0-439.0","3SNVL38CI5EXL9JVEO7K3D6LQGVCKR","A2FP41BSPG0Y4A","3I7KR83SNAZT1REYB2SRC49PCEEK9H","","374.39999985694885","img/food4.png","75","376","2","1","2","2","1,0.5,0,1,0.5,0,0.5,0,1","0,1,0.5,0,1,0.5,1,0.5,0","3","false",""
"","html-keyboard-response","357","219644","0.0-440.0","3SNVL38CI5EXL9JVEO7K3D6LQGVCKR","A2FP41BSPG0Y4A","3I7KR83SNAZT1REYB2SRC49PCEEK9H","","null","<img src=""img/food4.png"" style=""width:200px; border:14px solid green;"">","null","","","","","","","","","",""
"","image-keyboard-response","358","220120","0.0-442.0","3SNVL38CI5EXL9JVEO7K3D6LQGVCKR","A2FP41BSPG0Y4A","3I7KR83SNAZT1REYB2SRC49PCEEK9H","","473.09999990463257","img/food3.png","74","475.10000014305115","1","1","3","2","1,0.5,0,1,0.5,0,0.5,0,1","0,1,0.5,0,1,0.5,1,0.5,0","3","false",""
"","html-keyboard-response","359","220432","0.0-443.0","3SNVL38CI5EXL9JVEO7K3D6LQGVCKR","A2FP41BSPG0Y4A","3I7KR83SNAZT1REYB2SRC49PCEEK9H","","null","<img src=""img/food3.png"" style=""width:200px; border:14px solid green;"">","null","","","","","","","","","",""
"","image-keyboard-response","360","220744","0.0-445.0","3SNVL38CI5EXL9JVEO7K3D6LQGVCKR","A2FP41BSPG0Y4A","3I7KR83SNAZT1REYB2SRC49PCEEK9H","","309.40000009536743","img/food3.png","75","310.89999985694885","2","1","3","2","1,0.5,0,1,0.5,0,0.5,0,1","0,1,0.5,0,1,0.5,1,0.5,0","3","false",""
"","html-keyboard-response","361","221048","0.0-446.0","3SNVL38CI5EXL9JVEO7K3D6LQGVCKR","A2FP41BSPG0Y4A","3I7KR83SNAZT1REYB2SRC49PCEEK9H","","null","<img src=""img/food3.png"" style=""width:200px; border:14px solid green;"">","null","","","","","","","","","",""
"","image-keyboard-response","362","221532","0.0-448.0","3SNVL38CI5EXL9JVEO7K3D6LQGVCKR","A2FP41BSPG0Y4A","3I7KR83SNAZT1REYB2SRC49PCEEK9H","","480.7999999523163","img/food4.png","75","482.89999985694885","2","1","2","2","1,0.5,0,1,0.5,0,0.5,0,1","0,1,0.5,0,1,0.5,1,0.5,0","3","false",""
"","html-keyboard-response","363","221844","0.0-449.0","3SNVL38CI5EXL9JVEO7K3D6LQGVCKR","A2FP41BSPG0Y4A","3I7KR83SNAZT1REYB2SRC49PCEEK9H","","null","<img src=""img/food4.png"" style=""width:200px; border:14px solid green;"">","null","","","","","","","","","",""
"","image-keyboard-response","364","222178","0.0-451.0","3SNVL38CI5EXL9JVEO7K3D6LQGVCKR","A2FP41BSPG0Y4A","3I7KR83SNAZT1REYB2SRC49PCEEK9H","","331.2000000476837","img/food3.png","75","333","2","1","3","2","1,0.5,0,1,0.5,0,0.5,0,1","0,1,0.5,0,1,0.5,1,0.5,0","3","false",""
"","html-keyboard-response","365","222489","0.0-452.0","3SNVL38CI5EXL9JVEO7K3D6LQGVCKR","A2FP41BSPG0Y4A","3I7KR83SNAZT1REYB2SRC49PCEEK9H","","null","<img src=""img/food3.png"" style=""width:200px; border:14px solid green;"">","null","","","","","","","","","",""
"","instructions","366","226151","0.0-454.0","3SNVL38CI5EXL9JVEO7K3D6LQGVCKR","A2FP41BSPG0Y4A","3I7KR83SNAZT1REYB2SRC49PCEEK9H","[{""page_index"":0,""viewing_time"":3659.7999999523163}]","3659.899999856949","","","","","","","","","","","",""
"","survey-text","367","231119","0.0-455.0","3SNVL38CI5EXL9JVEO7K3D6LQGVCKR","A2FP41BSPG0Y4A","3I7KR83SNAZT1REYB2SRC49PCEEK9H","","4961.800000190735","","","","","","","","","","","","{""Q0"":""A2FP41BSPG0Y4A""}"
