"success","trial_type","trial_index","time_elapsed","internal_node_id","assignmentID","mturkID","hitID","view_history","rt","stimulus","key_press","reactionTime","a","r","s","cond","reward_cond","reward_cond_actual","reward_matrix_idx","warning","responses"
"true","fullscreen","0","3031","0.0-0.0","3K772S5NP9XLGH214UAIG9QWIMVHEX","A2FYFCD16Z3PCC","3VAOOVPI3ZEZMZXPLZ7IWDDZ15LLLX","","","","","","","","","","","","","",""
"","instructions","1","9487","0.0-1.0","3K772S5NP9XLGH214UAIG9QWIMVHEX","A2FYFCD16Z3PCC","3VAOOVPI3ZEZMZXPLZ7IWDDZ15LLLX","[{""page_index"":0,""viewing_time"":830},{""page_index"":1,""viewing_time"":591},{""page_index"":2,""viewing_time"":507},{""page_index"":3,""viewing_time"":1656},{""page_index"":4,""viewing_time"":1332},{""page_index"":5,""viewing_time"":704},{""page_index"":6,""viewing_time"":834}]","6454","","","","","","","","","","","",""
"","image-keyboard-response","2","10156","0.0-2.0","3K772S5NP9XLGH214UAIG9QWIMVHEX","A2FYFCD16Z3PCC","3VAOOVPI3ZEZMZXPLZ7IWDDZ15LLLX","","669","img/food2.png","74","669","1","0","2","1","1,0.7,0,1,0.7,0,0.7,0,1","0.7,0,1,0.7,0,1,0,1,0.7","2","",""
"","html-keyboard-response","3","10460","0.0-3.0","3K772S5NP9XLGH214UAIG9QWIMVHEX","A2FYFCD16Z3PCC","3VAOOVPI3ZEZMZXPLZ7IWDDZ15LLLX","","null","<img src=""img/food2.png"" style=""width:200px;border:14px solid red;"">","null","","","","","","","","","",""
"","image-keyboard-response","4","10779","0.0-4.0","3K772S5NP9XLGH214UAIG9QWIMVHEX","A2FYFCD16Z3PCC","3VAOOVPI3ZEZMZXPLZ7IWDDZ15LLLX","","318","img/food2.png","74","319","1","1","2","1","1,0.7,0,1,0.7,0,0.7,0,1","0.7,0,1,0.7,0,1,0,1,0.7","2","",""
"","html-keyboard-response","5","11092","0.0-5.0","3K772S5NP9XLGH214UAIG9QWIMVHEX","A2FYFCD16Z3PCC","3VAOOVPI3ZEZMZXPLZ7IWDDZ15LLLX","","null","<img src=""img/food2.png"" style=""width:200px; border:14px solid green;"">","null","","","","","","","","","",""
"","image-keyboard-response","6","11308","0.0-6.0","3K772S5NP9XLGH214UAIG9QWIMVHEX","A2FYFCD16Z3PCC","3VAOOVPI3ZEZMZXPLZ7IWDDZ15LLLX","","213","img/food1.png","74","214","1","0","1","1","1,0.7,0,1,0.7,0,0.7,0,1","0.7,0,1,0.7,0,1,0,1,0.7","2","",""
"","html-keyboard-response","7","11619","0.0-7.0","3K772S5NP9XLGH214UAIG9QWIMVHEX","A2FYFCD16Z3PCC","3VAOOVPI3ZEZMZXPLZ7IWDDZ15LLLX","","null","<img src=""img/food1.png"" style=""width:200px;border:14px solid red;"">","null","","","","","","","","","",""
"","image-keyboard-response","8","11876","0.0-8.0","3K772S5NP9XLGH214UAIG9QWIMVHEX","A2FYFCD16Z3PCC","3VAOOVPI3ZEZMZXPLZ7IWDDZ15LLLX","","255","img/food1.png","74","256","1","1","1","1","1,0.7,0,1,0.7,0,0.7,0,1","0.7,0,1,0.7,0,1,0,1,0.7","2","",""
"","html-keyboard-response","9","12177","0.0-9.0","3K772S5NP9XLGH214UAIG9QWIMVHEX","A2FYFCD16Z3PCC","3VAOOVPI3ZEZMZXPLZ7IWDDZ15LLLX","","null","<img src=""img/food1.png"" style=""width:200px; border:14px solid green;"">","null","","","","","","","","","",""
"","image-keyboard-response","10","12515","0.0-10.0","3K772S5NP9XLGH214UAIG9QWIMVHEX","A2FYFCD16Z3PCC","3VAOOVPI3ZEZMZXPLZ7IWDDZ15LLLX","","337","img/food3.png","74","337","1","0","3","1","1,0.7,0,1,0.7,0,0.7,0,1","0.7,0,1,0.7,0,1,0,1,0.7","2","",""
"","html-keyboard-response","11","12816","0.0-11.0","3K772S5NP9XLGH214UAIG9QWIMVHEX","A2FYFCD16Z3PCC","3VAOOVPI3ZEZMZXPLZ7IWDDZ15LLLX","","null","<img src=""img/food3.png"" style=""width:200px;border:14px solid red;"">","null","","","","","","","","","",""
"","image-keyboard-response","12","13036","0.0-12.0","3K772S5NP9XLGH214UAIG9QWIMVHEX","A2FYFCD16Z3PCC","3VAOOVPI3ZEZMZXPLZ7IWDDZ15LLLX","","217","img/food2.png","74","218","1","1","2","1","1,0.7,0,1,0.7,0,0.7,0,1","0.7,0,1,0.7,0,1,0,1,0.7","2","",""
"","html-keyboard-response","13","13341","0.0-13.0","3K772S5NP9XLGH214UAIG9QWIMVHEX","A2FYFCD16Z3PCC","3VAOOVPI3ZEZMZXPLZ7IWDDZ15LLLX","","null","<img src=""img/food2.png"" style=""width:200px; border:14px solid green;"">","null","","","","","","","","","",""
"","image-keyboard-response","14","13692","0.0-14.0","3K772S5NP9XLGH214UAIG9QWIMVHEX","A2FYFCD16Z3PCC","3VAOOVPI3ZEZMZXPLZ7IWDDZ15LLLX","","349","img/food2.png","74","351","1","0","2","1","1,0.7,0,1,0.7,0,0.7,0,1","0.7,0,1,0.7,0,1,0,1,0.7","2","",""
"","html-keyboard-response","15","13995","0.0-15.0","3K772S5NP9XLGH214UAIG9QWIMVHEX","A2FYFCD16Z3PCC","3VAOOVPI3ZEZMZXPLZ7IWDDZ15LLLX","","null","<img src=""img/food2.png"" style=""width:200px;border:14px solid red;"">","null","","","","","","","","","",""
"","image-keyboard-response","16","14220","0.0-16.0","3K772S5NP9XLGH214UAIG9QWIMVHEX","A2FYFCD16Z3PCC","3VAOOVPI3ZEZMZXPLZ7IWDDZ15LLLX","","223","img/food2.png","74","225","1","1","2","1","1,0.7,0,1,0.7,0,0.7,0,1","0.7,0,1,0.7,0,1,0,1,0.7","2","",""
"","html-keyboard-response","17","14524","0.0-17.0","3K772S5NP9XLGH214UAIG9QWIMVHEX","A2FYFCD16Z3PCC","3VAOOVPI3ZEZMZXPLZ7IWDDZ15LLLX","","null","<img src=""img/food2.png"" style=""width:200px; border:14px solid green;"">","null","","","","","","","","","",""
"","image-keyboard-response","18","15140","0.0-18.0","3K772S5NP9XLGH214UAIG9QWIMVHEX","A2FYFCD16Z3PCC","3VAOOVPI3ZEZMZXPLZ7IWDDZ15LLLX","","614","img/food1.png","75","615","2","0","1","1","1,0.7,0,1,0.7,0,0.7,0,1","0.7,0,1,0.7,0,1,0,1,0.7","2","",""
"","html-keyboard-response","19","15452","0.0-19.0","3K772S5NP9XLGH214UAIG9QWIMVHEX","A2FYFCD16Z3PCC","3VAOOVPI3ZEZMZXPLZ7IWDDZ15LLLX","","null","<img src=""img/food1.png"" style=""width:200px;border:14px solid red;"">","null","","","","","","","","","",""
"","image-keyboard-response","20","15675","0.0-20.0","3K772S5NP9XLGH214UAIG9QWIMVHEX","A2FYFCD16Z3PCC","3VAOOVPI3ZEZMZXPLZ7IWDDZ15LLLX","","223","img/food2.png","75","224","2","0","2","1","1,0.7,0,1,0.7,0,0.7,0,1","0.7,0,1,0.7,0,1,0,1,0.7","2","",""
"","html-keyboard-response","21","15978","0.0-21.0","3K772S5NP9XLGH214UAIG9QWIMVHEX","A2FYFCD16Z3PCC","3VAOOVPI3ZEZMZXPLZ7IWDDZ15LLLX","","null","<img src=""img/food2.png"" style=""width:200px;border:14px solid red;"">","null","","","","","","","","","",""
"","image-keyboard-response","22","16220","0.0-22.0","3K772S5NP9XLGH214UAIG9QWIMVHEX","A2FYFCD16Z3PCC","3VAOOVPI3ZEZMZXPLZ7IWDDZ15LLLX","","240","img/food2.png","75","242","2","0","2","1","1,0.7,0,1,0.7,0,0.7,0,1","0.7,0,1,0.7,0,1,0,1,0.7","2","",""
"","html-keyboard-response","23","16534","0.0-23.0","3K772S5NP9XLGH214UAIG9QWIMVHEX","A2FYFCD16Z3PCC","3VAOOVPI3ZEZMZXPLZ7IWDDZ15LLLX","","null","<img src=""img/food2.png"" style=""width:200px;border:14px solid red;"">","null","","","","","","","","","",""
"","image-keyboard-response","24","16692","0.0-24.0","3K772S5NP9XLGH214UAIG9QWIMVHEX","A2FYFCD16Z3PCC","3VAOOVPI3ZEZMZXPLZ7IWDDZ15LLLX","","156","img/food1.png","75","156","2","0","1","1","1,0.7,0,1,0.7,0,0.7,0,1","0.7,0,1,0.7,0,1,0,1,0.7","2","",""
"","html-keyboard-response","25","17001","0.0-25.0","3K772S5NP9XLGH214UAIG9QWIMVHEX","A2FYFCD16Z3PCC","3VAOOVPI3ZEZMZXPLZ7IWDDZ15LLLX","","null","<img src=""img/food1.png"" style=""width:200px;border:14px solid red;"">","null","","","","","","","","","",""
"","image-keyboard-response","26","17220","0.0-26.0","3K772S5NP9XLGH214UAIG9QWIMVHEX","A2FYFCD16Z3PCC","3VAOOVPI3ZEZMZXPLZ7IWDDZ15LLLX","","217","img/food1.png","75","218","2","0","1","1","1,0.7,0,1,0.7,0,0.7,0,1","0.7,0,1,0.7,0,1,0,1,0.7","2","",""
"","html-keyboard-response","27","17531","0.0-27.0","3K772S5NP9XLGH214UAIG9QWIMVHEX","A2FYFCD16Z3PCC","3VAOOVPI3ZEZMZXPLZ7IWDDZ15LLLX","","null","<img src=""img/food1.png"" style=""width:200px;border:14px solid red;"">","null","","","","","","","","","",""
"","image-keyboard-response","28","17763","0.0-28.0","3K772S5NP9XLGH214UAIG9QWIMVHEX","A2FYFCD16Z3PCC","3VAOOVPI3ZEZMZXPLZ7IWDDZ15LLLX","","232","img/food3.png","75","233","2","1","3","1","1,0.7,0,1,0.7,0,0.7,0,1","0.7,0,1,0.7,0,1,0,1,0.7","2","",""
"","html-keyboard-response","29","18074","0.0-29.0","3K772S5NP9XLGH214UAIG9QWIMVHEX","A2FYFCD16Z3PCC","3VAOOVPI3ZEZMZXPLZ7IWDDZ15LLLX","","null","<img src=""img/food3.png"" style=""width:200px; border:14px solid green;"">","null","","","","","","","","","",""
"","image-keyboard-response","30","18347","0.0-30.0","3K772S5NP9XLGH214UAIG9QWIMVHEX","A2FYFCD16Z3PCC","3VAOOVPI3ZEZMZXPLZ7IWDDZ15LLLX","","272","img/food1.png","75","274","2","0","1","1","1,0.7,0,1,0.7,0,0.7,0,1","0.7,0,1,0.7,0,1,0,1,0.7","2","",""
"","html-keyboard-response","31","18662","0.0-31.0","3K772S5NP9XLGH214UAIG9QWIMVHEX","A2FYFCD16Z3PCC","3VAOOVPI3ZEZMZXPLZ7IWDDZ15LLLX","","null","<img src=""img/food1.png"" style=""width:200px;border:14px solid red;"">","null","","","","","","","","","",""
"","image-keyboard-response","32","18844","0.0-32.0","3K772S5NP9XLGH214UAIG9QWIMVHEX","A2FYFCD16Z3PCC","3VAOOVPI3ZEZMZXPLZ7IWDDZ15LLLX","","181","img/food3.png","75","182","2","1","3","1","1,0.7,0,1,0.7,0,0.7,0,1","0.7,0,1,0.7,0,1,0,1,0.7","2","",""
"","html-keyboard-response","33","19159","0.0-33.0","3K772S5NP9XLGH214UAIG9QWIMVHEX","A2FYFCD16Z3PCC","3VAOOVPI3ZEZMZXPLZ7IWDDZ15LLLX","","null","<img src=""img/food3.png"" style=""width:200px; border:14px solid green;"">","null","","","","","","","","","",""
"","image-keyboard-response","34","19404","0.0-34.0","3K772S5NP9XLGH214UAIG9QWIMVHEX","A2FYFCD16Z3PCC","3VAOOVPI3ZEZMZXPLZ7IWDDZ15LLLX","","244","img/food3.png","75","245","2","1","3","1","1,0.7,0,1,0.7,0,0.7,0,1","0.7,0,1,0.7,0,1,0,1,0.7","2","",""
"","html-keyboard-response","35","19720","0.0-35.0","3K772S5NP9XLGH214UAIG9QWIMVHEX","A2FYFCD16Z3PCC","3VAOOVPI3ZEZMZXPLZ7IWDDZ15LLLX","","null","<img src=""img/food3.png"" style=""width:200px; border:14px solid green;"">","null","","","","","","","","","",""
"","image-keyboard-response","36","19907","0.0-36.0","3K772S5NP9XLGH214UAIG9QWIMVHEX","A2FYFCD16Z3PCC","3VAOOVPI3ZEZMZXPLZ7IWDDZ15LLLX","","187","img/food3.png","75","187","2","1","3","1","1,0.7,0,1,0.7,0,0.7,0,1","0.7,0,1,0.7,0,1,0,1,0.7","2","",""
"","html-keyboard-response","37","20218","0.0-37.0","3K772S5NP9XLGH214UAIG9QWIMVHEX","A2FYFCD16Z3PCC","3VAOOVPI3ZEZMZXPLZ7IWDDZ15LLLX","","null","<img src=""img/food3.png"" style=""width:200px; border:14px solid green;"">","null","","","","","","","","","",""
"","image-keyboard-response","38","20420","0.0-38.0","3K772S5NP9XLGH214UAIG9QWIMVHEX","A2FYFCD16Z3PCC","3VAOOVPI3ZEZMZXPLZ7IWDDZ15LLLX","","201","img/food1.png","75","201","2","0","1","1","1,0.7,0,1,0.7,0,0.7,0,1","0.7,0,1,0.7,0,1,0,1,0.7","2","",""
"","html-keyboard-response","39","20730","0.0-39.0","3K772S5NP9XLGH214UAIG9QWIMVHEX","A2FYFCD16Z3PCC","3VAOOVPI3ZEZMZXPLZ7IWDDZ15LLLX","","null","<img src=""img/food1.png"" style=""width:200px;border:14px solid red;"">","null","","","","","","","","","",""
"","image-keyboard-response","40","20891","0.0-40.0","3K772S5NP9XLGH214UAIG9QWIMVHEX","A2FYFCD16Z3PCC","3VAOOVPI3ZEZMZXPLZ7IWDDZ15LLLX","","161","img/food2.png","76","161","3","1","2","1","1,0.7,0,1,0.7,0,0.7,0,1","0.7,0,1,0.7,0,1,0,1,0.7","2","",""
"","html-keyboard-response","41","21197","0.0-41.0","3K772S5NP9XLGH214UAIG9QWIMVHEX","A2FYFCD16Z3PCC","3VAOOVPI3ZEZMZXPLZ7IWDDZ15LLLX","","null","<img src=""img/food2.png"" style=""width:200px; border:14px solid green;"">","null","","","","","","","","","",""
"","image-keyboard-response","42","21492","0.0-42.0","3K772S5NP9XLGH214UAIG9QWIMVHEX","A2FYFCD16Z3PCC","3VAOOVPI3ZEZMZXPLZ7IWDDZ15LLLX","","293","img/food2.png","76","293","3","1","2","1","1,0.7,0,1,0.7,0,0.7,0,1","0.7,0,1,0.7,0,1,0,1,0.7","2","",""
"","html-keyboard-response","43","21803","0.0-43.0","3K772S5NP9XLGH214UAIG9QWIMVHEX","A2FYFCD16Z3PCC","3VAOOVPI3ZEZMZXPLZ7IWDDZ15LLLX","","null","<img src=""img/food2.png"" style=""width:200px; border:14px solid green;"">","null","","","","","","","","","",""
"","image-keyboard-response","44","22044","0.0-44.0","3K772S5NP9XLGH214UAIG9QWIMVHEX","A2FYFCD16Z3PCC","3VAOOVPI3ZEZMZXPLZ7IWDDZ15LLLX","","240","img/food2.png","76","240","3","1","2","1","1,0.7,0,1,0.7,0,0.7,0,1","0.7,0,1,0.7,0,1,0,1,0.7","2","",""
"","html-keyboard-response","45","22347","0.0-45.0","3K772S5NP9XLGH214UAIG9QWIMVHEX","A2FYFCD16Z3PCC","3VAOOVPI3ZEZMZXPLZ7IWDDZ15LLLX","","null","<img src=""img/food2.png"" style=""width:200px; border:14px solid green;"">","null","","","","","","","","","",""
"","image-keyboard-response","46","22556","0.0-46.0","3K772S5NP9XLGH214UAIG9QWIMVHEX","A2FYFCD16Z3PCC","3VAOOVPI3ZEZMZXPLZ7IWDDZ15LLLX","","209","img/food3.png","76","210","3","1","3","1","1,0.7,0,1,0.7,0,0.7,0,1","0.7,0,1,0.7,0,1,0,1,0.7","2","",""
"","html-keyboard-response","47","22863","0.0-47.0","3K772S5NP9XLGH214UAIG9QWIMVHEX","A2FYFCD16Z3PCC","3VAOOVPI3ZEZMZXPLZ7IWDDZ15LLLX","","null","<img src=""img/food3.png"" style=""width:200px; border:14px solid green;"">","null","","","","","","","","","",""
"","image-keyboard-response","48","23028","0.0-48.0","3K772S5NP9XLGH214UAIG9QWIMVHEX","A2FYFCD16Z3PCC","3VAOOVPI3ZEZMZXPLZ7IWDDZ15LLLX","","164","img/food2.png","76","164","3","1","2","1","1,0.7,0,1,0.7,0,0.7,0,1","0.7,0,1,0.7,0,1,0,1,0.7","2","",""
"","html-keyboard-response","49","23343","0.0-49.0","3K772S5NP9XLGH214UAIG9QWIMVHEX","A2FYFCD16Z3PCC","3VAOOVPI3ZEZMZXPLZ7IWDDZ15LLLX","","null","<img src=""img/food2.png"" style=""width:200px; border:14px solid green;"">","null","","","","","","","","","",""
"","image-keyboard-response","50","23532","0.0-50.0","3K772S5NP9XLGH214UAIG9QWIMVHEX","A2FYFCD16Z3PCC","3VAOOVPI3ZEZMZXPLZ7IWDDZ15LLLX","","187","img/food3.png","76","187","3","1","3","1","1,0.7,0,1,0.7,0,0.7,0,1","0.7,0,1,0.7,0,1,0,1,0.7","2","",""
"","html-keyboard-response","51","23844","0.0-51.0","3K772S5NP9XLGH214UAIG9QWIMVHEX","A2FYFCD16Z3PCC","3VAOOVPI3ZEZMZXPLZ7IWDDZ15LLLX","","null","<img src=""img/food3.png"" style=""width:200px; border:14px solid green;"">","null","","","","","","","","","",""
"","image-keyboard-response","52","23963","0.0-52.0","3K772S5NP9XLGH214UAIG9QWIMVHEX","A2FYFCD16Z3PCC","3VAOOVPI3ZEZMZXPLZ7IWDDZ15LLLX","","120","img/food2.png","76","120","3","1","2","1","1,0.7,0,1,0.7,0,0.7,0,1","0.7,0,1,0.7,0,1,0,1,0.7","2","",""
"","html-keyboard-response","53","24268","0.0-53.0","3K772S5NP9XLGH214UAIG9QWIMVHEX","A2FYFCD16Z3PCC","3VAOOVPI3ZEZMZXPLZ7IWDDZ15LLLX","","null","<img src=""img/food2.png"" style=""width:200px; border:14px solid green;"">","null","","","","","","","","","",""
"","image-keyboard-response","54","24348","0.0-54.0","3K772S5NP9XLGH214UAIG9QWIMVHEX","A2FYFCD16Z3PCC","3VAOOVPI3ZEZMZXPLZ7IWDDZ15LLLX","","78","img/food1.png","76","78","3","1","1","1","1,0.7,0,1,0.7,0,0.7,0,1","0.7,0,1,0.7,0,1,0,1,0.7","2","",""
"","html-keyboard-response","55","24659","0.0-55.0","3K772S5NP9XLGH214UAIG9QWIMVHEX","A2FYFCD16Z3PCC","3VAOOVPI3ZEZMZXPLZ7IWDDZ15LLLX","","null","<img src=""img/food1.png"" style=""width:200px; border:14px solid green;"">","null","","","","","","","","","",""
"","image-keyboard-response","56","24684","0.0-56.0","3K772S5NP9XLGH214UAIG9QWIMVHEX","A2FYFCD16Z3PCC","3VAOOVPI3ZEZMZXPLZ7IWDDZ15LLLX","","24","img/food3.png","76","25","3","0","3","1","1,0.7,0,1,0.7,0,0.7,0,1","0.7,0,1,0.7,0,1,0,1,0.7","2","",""
"","html-keyboard-response","57","24987","0.0-57.0","3K772S5NP9XLGH214UAIG9QWIMVHEX","A2FYFCD16Z3PCC","3VAOOVPI3ZEZMZXPLZ7IWDDZ15LLLX","","null","<img src=""img/food3.png"" style=""width:200px;border:14px solid red;"">","null","","","","","","","","","",""
"","image-keyboard-response","58","25340","0.0-58.0","3K772S5NP9XLGH214UAIG9QWIMVHEX","A2FYFCD16Z3PCC","3VAOOVPI3ZEZMZXPLZ7IWDDZ15LLLX","","352","img/food1.png","76","353","3","1","1","1","1,0.7,0,1,0.7,0,0.7,0,1","0.7,0,1,0.7,0,1,0,1,0.7","2","",""
"","html-keyboard-response","59","25642","0.0-59.0","3K772S5NP9XLGH214UAIG9QWIMVHEX","A2FYFCD16Z3PCC","3VAOOVPI3ZEZMZXPLZ7IWDDZ15LLLX","","null","<img src=""img/food1.png"" style=""width:200px; border:14px solid green;"">","null","","","","","","","","","",""
"","image-keyboard-response","60","25715","0.0-60.0","3K772S5NP9XLGH214UAIG9QWIMVHEX","A2FYFCD16Z3PCC","3VAOOVPI3ZEZMZXPLZ7IWDDZ15LLLX","","71","img/food2.png","76","72","3","1","2","1","1,0.7,0,1,0.7,0,0.7,0,1","0.7,0,1,0.7,0,1,0,1,0.7","2","",""
"","html-keyboard-response","61","26019","0.0-61.0","3K772S5NP9XLGH214UAIG9QWIMVHEX","A2FYFCD16Z3PCC","3VAOOVPI3ZEZMZXPLZ7IWDDZ15LLLX","","null","<img src=""img/food2.png"" style=""width:200px; border:14px solid green;"">","null","","","","","","","","","",""
"","image-keyboard-response","62","26212","0.0-62.0","3K772S5NP9XLGH214UAIG9QWIMVHEX","A2FYFCD16Z3PCC","3VAOOVPI3ZEZMZXPLZ7IWDDZ15LLLX","","192","img/food1.png","76","193","3","1","1","1","1,0.7,0,1,0.7,0,0.7,0,1","0.7,0,1,0.7,0,1,0,1,0.7","2","",""
"","html-keyboard-response","63","26519","0.0-63.0","3K772S5NP9XLGH214UAIG9QWIMVHEX","A2FYFCD16Z3PCC","3VAOOVPI3ZEZMZXPLZ7IWDDZ15LLLX","","null","<img src=""img/food1.png"" style=""width:200px; border:14px solid green;"">","null","","","","","","","","","",""
"","image-keyboard-response","64","26611","0.0-64.0","3K772S5NP9XLGH214UAIG9QWIMVHEX","A2FYFCD16Z3PCC","3VAOOVPI3ZEZMZXPLZ7IWDDZ15LLLX","","92","img/food2.png","76","93","3","1","2","1","1,0.7,0,1,0.7,0,0.7,0,1","0.7,0,1,0.7,0,1,0,1,0.7","2","",""
"","html-keyboard-response","65","26923","0.0-65.0","3K772S5NP9XLGH214UAIG9QWIMVHEX","A2FYFCD16Z3PCC","3VAOOVPI3ZEZMZXPLZ7IWDDZ15LLLX","","null","<img src=""img/food2.png"" style=""width:200px; border:14px solid green;"">","null","","","","","","","","","",""
"","image-keyboard-response","66","26987","0.0-66.0","3K772S5NP9XLGH214UAIG9QWIMVHEX","A2FYFCD16Z3PCC","3VAOOVPI3ZEZMZXPLZ7IWDDZ15LLLX","","63","img/food3.png","76","63","3","1","3","1","1,0.7,0,1,0.7,0,0.7,0,1","0.7,0,1,0.7,0,1,0,1,0.7","2","",""
"","html-keyboard-response","67","27297","0.0-67.0","3K772S5NP9XLGH214UAIG9QWIMVHEX","A2FYFCD16Z3PCC","3VAOOVPI3ZEZMZXPLZ7IWDDZ15LLLX","","null","<img src=""img/food3.png"" style=""width:200px; border:14px solid green;"">","null","","","","","","","","","",""
"","image-keyboard-response","68","27323","0.0-68.0","3K772S5NP9XLGH214UAIG9QWIMVHEX","A2FYFCD16Z3PCC","3VAOOVPI3ZEZMZXPLZ7IWDDZ15LLLX","","25","img/food3.png","76","26","3","0","3","1","1,0.7,0,1,0.7,0,0.7,0,1","0.7,0,1,0.7,0,1,0,1,0.7","2","",""
"","html-keyboard-response","69","27640","0.0-69.0","3K772S5NP9XLGH214UAIG9QWIMVHEX","A2FYFCD16Z3PCC","3VAOOVPI3ZEZMZXPLZ7IWDDZ15LLLX","","null","<img src=""img/food3.png"" style=""width:200px;border:14px solid red;"">","null","","","","","","","","","",""
"","image-keyboard-response","70","27691","0.0-70.0","3K772S5NP9XLGH214UAIG9QWIMVHEX","A2FYFCD16Z3PCC","3VAOOVPI3ZEZMZXPLZ7IWDDZ15LLLX","","50","img/food3.png","76","50","3","1","3","1","1,0.7,0,1,0.7,0,0.7,0,1","0.7,0,1,0.7,0,1,0,1,0.7","2","",""
"","html-keyboard-response","71","27998","0.0-71.0","3K772S5NP9XLGH214UAIG9QWIMVHEX","A2FYFCD16Z3PCC","3VAOOVPI3ZEZMZXPLZ7IWDDZ15LLLX","","null","<img src=""img/food3.png"" style=""width:200px; border:14px solid green;"">","null","","","","","","","","","",""
"","image-keyboard-response","72","28051","0.0-72.0","3K772S5NP9XLGH214UAIG9QWIMVHEX","A2FYFCD16Z3PCC","3VAOOVPI3ZEZMZXPLZ7IWDDZ15LLLX","","52","img/food3.png","76","52","3","1","3","1","1,0.7,0,1,0.7,0,0.7,0,1","0.7,0,1,0.7,0,1,0,1,0.7","2","",""
"","html-keyboard-response","73","28361","0.0-73.0","3K772S5NP9XLGH214UAIG9QWIMVHEX","A2FYFCD16Z3PCC","3VAOOVPI3ZEZMZXPLZ7IWDDZ15LLLX","","null","<img src=""img/food3.png"" style=""width:200px; border:14px solid green;"">","null","","","","","","","","","",""
"","image-keyboard-response","74","28435","0.0-74.0","3K772S5NP9XLGH214UAIG9QWIMVHEX","A2FYFCD16Z3PCC","3VAOOVPI3ZEZMZXPLZ7IWDDZ15LLLX","","73","img/food1.png","76","74","3","1","1","1","1,0.7,0,1,0.7,0,0.7,0,1","0.7,0,1,0.7,0,1,0,1,0.7","2","",""
"","html-keyboard-response","75","28738","0.0-75.0","3K772S5NP9XLGH214UAIG9QWIMVHEX","A2FYFCD16Z3PCC","3VAOOVPI3ZEZMZXPLZ7IWDDZ15LLLX","","null","<img src=""img/food1.png"" style=""width:200px; border:14px solid green;"">","null","","","","","","","","","",""
"","image-keyboard-response","76","28811","0.0-76.0","3K772S5NP9XLGH214UAIG9QWIMVHEX","A2FYFCD16Z3PCC","3VAOOVPI3ZEZMZXPLZ7IWDDZ15LLLX","","73","img/food2.png","76","73","3","1","2","1","1,0.7,0,1,0.7,0,0.7,0,1","0.7,0,1,0.7,0,1,0,1,0.7","2","",""
"","html-keyboard-response","77","29124","0.0-77.0","3K772S5NP9XLGH214UAIG9QWIMVHEX","A2FYFCD16Z3PCC","3VAOOVPI3ZEZMZXPLZ7IWDDZ15LLLX","","null","<img src=""img/food2.png"" style=""width:200px; border:14px solid green;"">","null","","","","","","","","","",""
"","image-keyboard-response","78","29180","0.0-78.0","3K772S5NP9XLGH214UAIG9QWIMVHEX","A2FYFCD16Z3PCC","3VAOOVPI3ZEZMZXPLZ7IWDDZ15LLLX","","55","img/food1.png","76","55","3","1","1","1","1,0.7,0,1,0.7,0,0.7,0,1","0.7,0,1,0.7,0,1,0,1,0.7","2","",""
"","html-keyboard-response","79","29481","0.0-79.0","3K772S5NP9XLGH214UAIG9QWIMVHEX","A2FYFCD16Z3PCC","3VAOOVPI3ZEZMZXPLZ7IWDDZ15LLLX","","null","<img src=""img/food1.png"" style=""width:200px; border:14px solid green;"">","null","","","","","","","","","",""
"","image-keyboard-response","80","29532","0.0-80.0","3K772S5NP9XLGH214UAIG9QWIMVHEX","A2FYFCD16Z3PCC","3VAOOVPI3ZEZMZXPLZ7IWDDZ15LLLX","","50","img/food1.png","76","51","3","1","1","1","1,0.7,0,1,0.7,0,0.7,0,1","0.7,0,1,0.7,0,1,0,1,0.7","2","",""
"","html-keyboard-response","81","29833","0.0-81.0","3K772S5NP9XLGH214UAIG9QWIMVHEX","A2FYFCD16Z3PCC","3VAOOVPI3ZEZMZXPLZ7IWDDZ15LLLX","","null","<img src=""img/food1.png"" style=""width:200px; border:14px solid green;"">","null","","","","","","","","","",""
"","image-keyboard-response","82","29971","0.0-82.0","3K772S5NP9XLGH214UAIG9QWIMVHEX","A2FYFCD16Z3PCC","3VAOOVPI3ZEZMZXPLZ7IWDDZ15LLLX","","137","img/food1.png","76","137","3","1","1","1","1,0.7,0,1,0.7,0,0.7,0,1","0.7,0,1,0.7,0,1,0,1,0.7","2","",""
"","html-keyboard-response","83","30273","0.0-83.0","3K772S5NP9XLGH214UAIG9QWIMVHEX","A2FYFCD16Z3PCC","3VAOOVPI3ZEZMZXPLZ7IWDDZ15LLLX","","null","<img src=""img/food1.png"" style=""width:200px; border:14px solid green;"">","null","","","","","","","","","",""
"","image-keyboard-response","84","30356","0.0-84.0","3K772S5NP9XLGH214UAIG9QWIMVHEX","A2FYFCD16Z3PCC","3VAOOVPI3ZEZMZXPLZ7IWDDZ15LLLX","","82","img/food3.png","76","83","3","1","3","1","1,0.7,0,1,0.7,0,0.7,0,1","0.7,0,1,0.7,0,1,0,1,0.7","2","",""
"","html-keyboard-response","85","30657","0.0-85.0","3K772S5NP9XLGH214UAIG9QWIMVHEX","A2FYFCD16Z3PCC","3VAOOVPI3ZEZMZXPLZ7IWDDZ15LLLX","","null","<img src=""img/food3.png"" style=""width:200px; border:14px solid green;"">","null","","","","","","","","","",""
"","image-keyboard-response","86","31036","0.0-86.0","3K772S5NP9XLGH214UAIG9QWIMVHEX","A2FYFCD16Z3PCC","3VAOOVPI3ZEZMZXPLZ7IWDDZ15LLLX","","378","img/food1.png","76","380","3","1","1","1","1,0.7,0,1,0.7,0,0.7,0,1","0.7,0,1,0.7,0,1,0,1,0.7","2","",""
"","html-keyboard-response","87","31337","0.0-87.0","3K772S5NP9XLGH214UAIG9QWIMVHEX","A2FYFCD16Z3PCC","3VAOOVPI3ZEZMZXPLZ7IWDDZ15LLLX","","null","<img src=""img/food1.png"" style=""width:200px; border:14px solid green;"">","null","","","","","","","","","",""
"","image-keyboard-response","88","31451","0.0-88.0","3K772S5NP9XLGH214UAIG9QWIMVHEX","A2FYFCD16Z3PCC","3VAOOVPI3ZEZMZXPLZ7IWDDZ15LLLX","","113","img/food1.png","76","114","3","1","1","1","1,0.7,0,1,0.7,0,0.7,0,1","0.7,0,1,0.7,0,1,0,1,0.7","2","",""
"","html-keyboard-response","89","31753","0.0-89.0","3K772S5NP9XLGH214UAIG9QWIMVHEX","A2FYFCD16Z3PCC","3VAOOVPI3ZEZMZXPLZ7IWDDZ15LLLX","","null","<img src=""img/food1.png"" style=""width:200px; border:14px solid green;"">","null","","","","","","","","","",""
"","image-keyboard-response","90","32011","0.0-90.0","3K772S5NP9XLGH214UAIG9QWIMVHEX","A2FYFCD16Z3PCC","3VAOOVPI3ZEZMZXPLZ7IWDDZ15LLLX","","257","img/food1.png","76","257","3","1","1","1","1,0.7,0,1,0.7,0,0.7,0,1","0.7,0,1,0.7,0,1,0,1,0.7","2","",""
"","html-keyboard-response","91","32313","0.0-91.0","3K772S5NP9XLGH214UAIG9QWIMVHEX","A2FYFCD16Z3PCC","3VAOOVPI3ZEZMZXPLZ7IWDDZ15LLLX","","null","<img src=""img/food1.png"" style=""width:200px; border:14px solid green;"">","null","","","","","","","","","",""
"","image-keyboard-response","92","32707","0.0-92.0","3K772S5NP9XLGH214UAIG9QWIMVHEX","A2FYFCD16Z3PCC","3VAOOVPI3ZEZMZXPLZ7IWDDZ15LLLX","","395","img/food2.png","76","395","3","1","2","1","1,0.7,0,1,0.7,0,0.7,0,1","0.7,0,1,0.7,0,1,0,1,0.7","2","",""
"","html-keyboard-response","93","33009","0.0-93.0","3K772S5NP9XLGH214UAIG9QWIMVHEX","A2FYFCD16Z3PCC","3VAOOVPI3ZEZMZXPLZ7IWDDZ15LLLX","","null","<img src=""img/food2.png"" style=""width:200px; border:14px solid green;"">","null","","","","","","","","","",""
"","image-keyboard-response","94","33283","0.0-94.0","3K772S5NP9XLGH214UAIG9QWIMVHEX","A2FYFCD16Z3PCC","3VAOOVPI3ZEZMZXPLZ7IWDDZ15LLLX","","273","img/food2.png","76","274","3","1","2","1","1,0.7,0,1,0.7,0,0.7,0,1","0.7,0,1,0.7,0,1,0,1,0.7","2","",""
"","html-keyboard-response","95","33585","0.0-95.0","3K772S5NP9XLGH214UAIG9QWIMVHEX","A2FYFCD16Z3PCC","3VAOOVPI3ZEZMZXPLZ7IWDDZ15LLLX","","null","<img src=""img/food2.png"" style=""width:200px; border:14px solid green;"">","null","","","","","","","","","",""
"","image-keyboard-response","96","33844","0.0-96.0","3K772S5NP9XLGH214UAIG9QWIMVHEX","A2FYFCD16Z3PCC","3VAOOVPI3ZEZMZXPLZ7IWDDZ15LLLX","","259","img/food2.png","76","259","3","1","2","1","1,0.7,0,1,0.7,0,0.7,0,1","0.7,0,1,0.7,0,1,0,1,0.7","2","",""
"","html-keyboard-response","97","34145","0.0-97.0","3K772S5NP9XLGH214UAIG9QWIMVHEX","A2FYFCD16Z3PCC","3VAOOVPI3ZEZMZXPLZ7IWDDZ15LLLX","","null","<img src=""img/food2.png"" style=""width:200px; border:14px solid green;"">","null","","","","","","","","","",""
"","image-keyboard-response","98","34347","0.0-98.0","3K772S5NP9XLGH214UAIG9QWIMVHEX","A2FYFCD16Z3PCC","3VAOOVPI3ZEZMZXPLZ7IWDDZ15LLLX","","200","img/food1.png","76","201","3","1","1","1","1,0.7,0,1,0.7,0,0.7,0,1","0.7,0,1,0.7,0,1,0,1,0.7","2","",""
"","html-keyboard-response","99","34649","0.0-99.0","3K772S5NP9XLGH214UAIG9QWIMVHEX","A2FYFCD16Z3PCC","3VAOOVPI3ZEZMZXPLZ7IWDDZ15LLLX","","null","<img src=""img/food1.png"" style=""width:200px; border:14px solid green;"">","null","","","","","","","","","",""
"","image-keyboard-response","100","35180","0.0-100.0","3K772S5NP9XLGH214UAIG9QWIMVHEX","A2FYFCD16Z3PCC","3VAOOVPI3ZEZMZXPLZ7IWDDZ15LLLX","","531","img/food3.png","75","531","2","1","3","1","1,0.7,0,1,0.7,0,0.7,0,1","0.7,0,1,0.7,0,1,0,1,0.7","2","",""
"","html-keyboard-response","101","35481","0.0-101.0","3K772S5NP9XLGH214UAIG9QWIMVHEX","A2FYFCD16Z3PCC","3VAOOVPI3ZEZMZXPLZ7IWDDZ15LLLX","","null","<img src=""img/food3.png"" style=""width:200px; border:14px solid green;"">","null","","","","","","","","","",""
"","image-keyboard-response","102","35828","0.0-102.0","3K772S5NP9XLGH214UAIG9QWIMVHEX","A2FYFCD16Z3PCC","3VAOOVPI3ZEZMZXPLZ7IWDDZ15LLLX","","347","img/food1.png","76","347","3","1","1","1","1,0.7,0,1,0.7,0,0.7,0,1","0.7,0,1,0.7,0,1,0,1,0.7","2","",""
"","html-keyboard-response","103","36129","0.0-103.0","3K772S5NP9XLGH214UAIG9QWIMVHEX","A2FYFCD16Z3PCC","3VAOOVPI3ZEZMZXPLZ7IWDDZ15LLLX","","null","<img src=""img/food1.png"" style=""width:200px; border:14px solid green;"">","null","","","","","","","","","",""
"","image-keyboard-response","104","36604","0.0-104.0","3K772S5NP9XLGH214UAIG9QWIMVHEX","A2FYFCD16Z3PCC","3VAOOVPI3ZEZMZXPLZ7IWDDZ15LLLX","","474","img/food3.png","75","475","2","1","3","1","1,0.7,0,1,0.7,0,0.7,0,1","0.7,0,1,0.7,0,1,0,1,0.7","2","",""
"","html-keyboard-response","105","36905","0.0-105.0","3K772S5NP9XLGH214UAIG9QWIMVHEX","A2FYFCD16Z3PCC","3VAOOVPI3ZEZMZXPLZ7IWDDZ15LLLX","","null","<img src=""img/food3.png"" style=""width:200px; border:14px solid green;"">","null","","","","","","","","","",""
"","image-keyboard-response","106","37228","0.0-106.0","3K772S5NP9XLGH214UAIG9QWIMVHEX","A2FYFCD16Z3PCC","3VAOOVPI3ZEZMZXPLZ7IWDDZ15LLLX","","322","img/food3.png","75","322","2","1","3","1","1,0.7,0,1,0.7,0,0.7,0,1","0.7,0,1,0.7,0,1,0,1,0.7","2","",""
"","html-keyboard-response","107","37533","0.0-107.0","3K772S5NP9XLGH214UAIG9QWIMVHEX","A2FYFCD16Z3PCC","3VAOOVPI3ZEZMZXPLZ7IWDDZ15LLLX","","null","<img src=""img/food3.png"" style=""width:200px; border:14px solid green;"">","null","","","","","","","","","",""
"","image-keyboard-response","108","37747","0.0-108.0","3K772S5NP9XLGH214UAIG9QWIMVHEX","A2FYFCD16Z3PCC","3VAOOVPI3ZEZMZXPLZ7IWDDZ15LLLX","","214","img/food3.png","75","214","2","1","3","1","1,0.7,0,1,0.7,0,0.7,0,1","0.7,0,1,0.7,0,1,0,1,0.7","2","",""
"","html-keyboard-response","109","38048","0.0-109.0","3K772S5NP9XLGH214UAIG9QWIMVHEX","A2FYFCD16Z3PCC","3VAOOVPI3ZEZMZXPLZ7IWDDZ15LLLX","","null","<img src=""img/food3.png"" style=""width:200px; border:14px solid green;"">","null","","","","","","","","","",""
"","image-keyboard-response","110","38220","0.0-110.0","3K772S5NP9XLGH214UAIG9QWIMVHEX","A2FYFCD16Z3PCC","3VAOOVPI3ZEZMZXPLZ7IWDDZ15LLLX","","171","img/food3.png","75","171","2","1","3","1","1,0.7,0,1,0.7,0,0.7,0,1","0.7,0,1,0.7,0,1,0,1,0.7","2","",""
"","html-keyboard-response","111","38521","0.0-111.0","3K772S5NP9XLGH214UAIG9QWIMVHEX","A2FYFCD16Z3PCC","3VAOOVPI3ZEZMZXPLZ7IWDDZ15LLLX","","null","<img src=""img/food3.png"" style=""width:200px; border:14px solid green;"">","null","","","","","","","","","",""
"","image-keyboard-response","112","38771","0.0-112.0","3K772S5NP9XLGH214UAIG9QWIMVHEX","A2FYFCD16Z3PCC","3VAOOVPI3ZEZMZXPLZ7IWDDZ15LLLX","","249","img/food3.png","75","250","2","1","3","1","1,0.7,0,1,0.7,0,0.7,0,1","0.7,0,1,0.7,0,1,0,1,0.7","2","",""
"","html-keyboard-response","113","39074","0.0-113.0","3K772S5NP9XLGH214UAIG9QWIMVHEX","A2FYFCD16Z3PCC","3VAOOVPI3ZEZMZXPLZ7IWDDZ15LLLX","","null","<img src=""img/food3.png"" style=""width:200px; border:14px solid green;"">","null","","","","","","","","","",""
"","image-keyboard-response","114","39451","0.0-114.0","3K772S5NP9XLGH214UAIG9QWIMVHEX","A2FYFCD16Z3PCC","3VAOOVPI3ZEZMZXPLZ7IWDDZ15LLLX","","377","img/food1.png","76","378","3","1","1","1","1,0.7,0,1,0.7,0,0.7,0,1","0.7,0,1,0.7,0,1,0,1,0.7","2","",""
"","html-keyboard-response","115","39753","0.0-115.0","3K772S5NP9XLGH214UAIG9QWIMVHEX","A2FYFCD16Z3PCC","3VAOOVPI3ZEZMZXPLZ7IWDDZ15LLLX","","null","<img src=""img/food1.png"" style=""width:200px; border:14px solid green;"">","null","","","","","","","","","",""
"","image-keyboard-response","116","40188","0.0-116.0","3K772S5NP9XLGH214UAIG9QWIMVHEX","A2FYFCD16Z3PCC","3VAOOVPI3ZEZMZXPLZ7IWDDZ15LLLX","","433","img/food3.png","75","434","2","1","3","1","1,0.7,0,1,0.7,0,0.7,0,1","0.7,0,1,0.7,0,1,0,1,0.7","2","",""
"","html-keyboard-response","117","40490","0.0-117.0","3K772S5NP9XLGH214UAIG9QWIMVHEX","A2FYFCD16Z3PCC","3VAOOVPI3ZEZMZXPLZ7IWDDZ15LLLX","","null","<img src=""img/food3.png"" style=""width:200px; border:14px solid green;"">","null","","","","","","","","","",""
"","image-keyboard-response","118","40812","0.0-118.0","3K772S5NP9XLGH214UAIG9QWIMVHEX","A2FYFCD16Z3PCC","3VAOOVPI3ZEZMZXPLZ7IWDDZ15LLLX","","320","img/food2.png","76","321","3","1","2","1","1,0.7,0,1,0.7,0,0.7,0,1","0.7,0,1,0.7,0,1,0,1,0.7","2","",""
"","html-keyboard-response","119","41114","0.0-119.0","3K772S5NP9XLGH214UAIG9QWIMVHEX","A2FYFCD16Z3PCC","3VAOOVPI3ZEZMZXPLZ7IWDDZ15LLLX","","null","<img src=""img/food2.png"" style=""width:200px; border:14px solid green;"">","null","","","","","","","","","",""
"","image-keyboard-response","120","41380","0.0-120.0","3K772S5NP9XLGH214UAIG9QWIMVHEX","A2FYFCD16Z3PCC","3VAOOVPI3ZEZMZXPLZ7IWDDZ15LLLX","","265","img/food2.png","76","265","3","1","2","1","1,0.7,0,1,0.7,0,0.7,0,1","0.7,0,1,0.7,0,1,0,1,0.7","2","",""
"","html-keyboard-response","121","41681","0.0-121.0","3K772S5NP9XLGH214UAIG9QWIMVHEX","A2FYFCD16Z3PCC","3VAOOVPI3ZEZMZXPLZ7IWDDZ15LLLX","","null","<img src=""img/food2.png"" style=""width:200px; border:14px solid green;"">","null","","","","","","","","","",""
"","image-keyboard-response","122","41836","0.0-122.0","3K772S5NP9XLGH214UAIG9QWIMVHEX","A2FYFCD16Z3PCC","3VAOOVPI3ZEZMZXPLZ7IWDDZ15LLLX","","153","img/food2.png","76","154","3","1","2","1","1,0.7,0,1,0.7,0,0.7,0,1","0.7,0,1,0.7,0,1,0,1,0.7","2","",""
"","html-keyboard-response","123","42137","0.0-123.0","3K772S5NP9XLGH214UAIG9QWIMVHEX","A2FYFCD16Z3PCC","3VAOOVPI3ZEZMZXPLZ7IWDDZ15LLLX","","null","<img src=""img/food2.png"" style=""width:200px; border:14px solid green;"">","null","","","","","","","","","",""
"","image-keyboard-response","124","42515","0.0-124.0","3K772S5NP9XLGH214UAIG9QWIMVHEX","A2FYFCD16Z3PCC","3VAOOVPI3ZEZMZXPLZ7IWDDZ15LLLX","","378","img/food1.png","76","378","3","1","1","1","1,0.7,0,1,0.7,0,0.7,0,1","0.7,0,1,0.7,0,1,0,1,0.7","2","",""
"","html-keyboard-response","125","42817","0.0-125.0","3K772S5NP9XLGH214UAIG9QWIMVHEX","A2FYFCD16Z3PCC","3VAOOVPI3ZEZMZXPLZ7IWDDZ15LLLX","","null","<img src=""img/food1.png"" style=""width:200px; border:14px solid green;"">","null","","","","","","","","","",""
"","image-keyboard-response","126","43267","0.0-126.0","3K772S5NP9XLGH214UAIG9QWIMVHEX","A2FYFCD16Z3PCC","3VAOOVPI3ZEZMZXPLZ7IWDDZ15LLLX","","450","img/food3.png","75","450","2","1","3","1","1,0.7,0,1,0.7,0,0.7,0,1","0.7,0,1,0.7,0,1,0,1,0.7","2","",""
"","html-keyboard-response","127","43572","0.0-127.0","3K772S5NP9XLGH214UAIG9QWIMVHEX","A2FYFCD16Z3PCC","3VAOOVPI3ZEZMZXPLZ7IWDDZ15LLLX","","null","<img src=""img/food3.png"" style=""width:200px; border:14px solid green;"">","null","","","","","","","","","",""
"","image-keyboard-response","128","43867","0.0-128.0","3K772S5NP9XLGH214UAIG9QWIMVHEX","A2FYFCD16Z3PCC","3VAOOVPI3ZEZMZXPLZ7IWDDZ15LLLX","","294","img/food3.png","75","295","2","1","3","1","1,0.7,0,1,0.7,0,0.7,0,1","0.7,0,1,0.7,0,1,0,1,0.7","2","",""
"","html-keyboard-response","129","44169","0.0-129.0","3K772S5NP9XLGH214UAIG9QWIMVHEX","A2FYFCD16Z3PCC","3VAOOVPI3ZEZMZXPLZ7IWDDZ15LLLX","","null","<img src=""img/food3.png"" style=""width:200px; border:14px solid green;"">","null","","","","","","","","","",""
"","image-keyboard-response","130","44387","0.0-130.0","3K772S5NP9XLGH214UAIG9QWIMVHEX","A2FYFCD16Z3PCC","3VAOOVPI3ZEZMZXPLZ7IWDDZ15LLLX","","219","img/food1.png","75","219","2","0","1","1","1,0.7,0,1,0.7,0,0.7,0,1","0.7,0,1,0.7,0,1,0,1,0.7","2","",""
"","html-keyboard-response","131","44688","0.0-131.0","3K772S5NP9XLGH214UAIG9QWIMVHEX","A2FYFCD16Z3PCC","3VAOOVPI3ZEZMZXPLZ7IWDDZ15LLLX","","null","<img src=""img/food1.png"" style=""width:200px;border:14px solid red;"">","null","","","","","","","","","",""
"","image-keyboard-response","132","45076","0.0-132.0","3K772S5NP9XLGH214UAIG9QWIMVHEX","A2FYFCD16Z3PCC","3VAOOVPI3ZEZMZXPLZ7IWDDZ15LLLX","","387","img/food1.png","76","387","3","1","1","1","1,0.7,0,1,0.7,0,0.7,0,1","0.7,0,1,0.7,0,1,0,1,0.7","2","",""
"","html-keyboard-response","133","45392","0.0-133.0","3K772S5NP9XLGH214UAIG9QWIMVHEX","A2FYFCD16Z3PCC","3VAOOVPI3ZEZMZXPLZ7IWDDZ15LLLX","","null","<img src=""img/food1.png"" style=""width:200px; border:14px solid green;"">","null","","","","","","","","","",""
"","image-keyboard-response","134","45676","0.0-134.0","3K772S5NP9XLGH214UAIG9QWIMVHEX","A2FYFCD16Z3PCC","3VAOOVPI3ZEZMZXPLZ7IWDDZ15LLLX","","283","img/food1.png","76","283","3","1","1","1","1,0.7,0,1,0.7,0,0.7,0,1","0.7,0,1,0.7,0,1,0,1,0.7","2","",""
"","html-keyboard-response","135","45977","0.0-135.0","3K772S5NP9XLGH214UAIG9QWIMVHEX","A2FYFCD16Z3PCC","3VAOOVPI3ZEZMZXPLZ7IWDDZ15LLLX","","null","<img src=""img/food1.png"" style=""width:200px; border:14px solid green;"">","null","","","","","","","","","",""
"","image-keyboard-response","136","46251","0.0-136.0","3K772S5NP9XLGH214UAIG9QWIMVHEX","A2FYFCD16Z3PCC","3VAOOVPI3ZEZMZXPLZ7IWDDZ15LLLX","","274","img/food1.png","76","274","3","1","1","1","1,0.7,0,1,0.7,0,0.7,0,1","0.7,0,1,0.7,0,1,0,1,0.7","2","",""
"","html-keyboard-response","137","46553","0.0-137.0","3K772S5NP9XLGH214UAIG9QWIMVHEX","A2FYFCD16Z3PCC","3VAOOVPI3ZEZMZXPLZ7IWDDZ15LLLX","","null","<img src=""img/food1.png"" style=""width:200px; border:14px solid green;"">","null","","","","","","","","","",""
"","image-keyboard-response","138","47068","0.0-138.0","3K772S5NP9XLGH214UAIG9QWIMVHEX","A2FYFCD16Z3PCC","3VAOOVPI3ZEZMZXPLZ7IWDDZ15LLLX","","513","img/food3.png","75","514","2","1","3","1","1,0.7,0,1,0.7,0,0.7,0,1","0.7,0,1,0.7,0,1,0,1,0.7","2","",""
"","html-keyboard-response","139","47370","0.0-139.0","3K772S5NP9XLGH214UAIG9QWIMVHEX","A2FYFCD16Z3PCC","3VAOOVPI3ZEZMZXPLZ7IWDDZ15LLLX","","null","<img src=""img/food3.png"" style=""width:200px; border:14px solid green;"">","null","","","","","","","","","",""
"","image-keyboard-response","140","47796","0.0-140.0","3K772S5NP9XLGH214UAIG9QWIMVHEX","A2FYFCD16Z3PCC","3VAOOVPI3ZEZMZXPLZ7IWDDZ15LLLX","","425","img/food1.png","76","426","3","1","1","1","1,0.7,0,1,0.7,0,0.7,0,1","0.7,0,1,0.7,0,1,0,1,0.7","2","",""
"","html-keyboard-response","141","48107","0.0-141.0","3K772S5NP9XLGH214UAIG9QWIMVHEX","A2FYFCD16Z3PCC","3VAOOVPI3ZEZMZXPLZ7IWDDZ15LLLX","","null","<img src=""img/food1.png"" style=""width:200px; border:14px solid green;"">","null","","","","","","","","","",""
"","image-keyboard-response","142","48508","0.0-142.0","3K772S5NP9XLGH214UAIG9QWIMVHEX","A2FYFCD16Z3PCC","3VAOOVPI3ZEZMZXPLZ7IWDDZ15LLLX","","399","img/food3.png","76","400","3","1","3","1","1,0.7,0,1,0.7,0,0.7,0,1","0.7,0,1,0.7,0,1,0,1,0.7","2","",""
"","html-keyboard-response","143","48809","0.0-143.0","3K772S5NP9XLGH214UAIG9QWIMVHEX","A2FYFCD16Z3PCC","3VAOOVPI3ZEZMZXPLZ7IWDDZ15LLLX","","null","<img src=""img/food3.png"" style=""width:200px; border:14px solid green;"">","null","","","","","","","","","",""
"","image-keyboard-response","144","49292","0.0-144.0","3K772S5NP9XLGH214UAIG9QWIMVHEX","A2FYFCD16Z3PCC","3VAOOVPI3ZEZMZXPLZ7IWDDZ15LLLX","","483","img/food2.png","76","483","3","1","2","1","1,0.7,0,1,0.7,0,0.7,0,1","0.7,0,1,0.7,0,1,0,1,0.7","2","",""
"","html-keyboard-response","145","49593","0.0-145.0","3K772S5NP9XLGH214UAIG9QWIMVHEX","A2FYFCD16Z3PCC","3VAOOVPI3ZEZMZXPLZ7IWDDZ15LLLX","","null","<img src=""img/food2.png"" style=""width:200px; border:14px solid green;"">","null","","","","","","","","","",""
"","image-keyboard-response","146","49955","0.0-146.0","3K772S5NP9XLGH214UAIG9QWIMVHEX","A2FYFCD16Z3PCC","3VAOOVPI3ZEZMZXPLZ7IWDDZ15LLLX","","362","img/food1.png","76","362","3","1","1","1","1,0.7,0,1,0.7,0,0.7,0,1","0.7,0,1,0.7,0,1,0,1,0.7","2","",""
"","html-keyboard-response","147","50271","0.0-147.0","3K772S5NP9XLGH214UAIG9QWIMVHEX","A2FYFCD16Z3PCC","3VAOOVPI3ZEZMZXPLZ7IWDDZ15LLLX","","null","<img src=""img/food1.png"" style=""width:200px; border:14px solid green;"">","null","","","","","","","","","",""
"","image-keyboard-response","148","50700","0.0-148.0","3K772S5NP9XLGH214UAIG9QWIMVHEX","A2FYFCD16Z3PCC","3VAOOVPI3ZEZMZXPLZ7IWDDZ15LLLX","","427","img/food2.png","76","428","3","1","2","1","1,0.7,0,1,0.7,0,0.7,0,1","0.7,0,1,0.7,0,1,0,1,0.7","2","",""
"","html-keyboard-response","149","51001","0.0-149.0","3K772S5NP9XLGH214UAIG9QWIMVHEX","A2FYFCD16Z3PCC","3VAOOVPI3ZEZMZXPLZ7IWDDZ15LLLX","","null","<img src=""img/food2.png"" style=""width:200px; border:14px solid green;"">","null","","","","","","","","","",""
"","image-keyboard-response","150","51316","0.0-150.0","3K772S5NP9XLGH214UAIG9QWIMVHEX","A2FYFCD16Z3PCC","3VAOOVPI3ZEZMZXPLZ7IWDDZ15LLLX","","314","img/food2.png","76","314","3","1","2","1","1,0.7,0,1,0.7,0,0.7,0,1","0.7,0,1,0.7,0,1,0,1,0.7","2","",""
"","html-keyboard-response","151","51627","0.0-151.0","3K772S5NP9XLGH214UAIG9QWIMVHEX","A2FYFCD16Z3PCC","3VAOOVPI3ZEZMZXPLZ7IWDDZ15LLLX","","null","<img src=""img/food2.png"" style=""width:200px; border:14px solid green;"">","null","","","","","","","","","",""
"","image-keyboard-response","152","52060","0.0-152.0","3K772S5NP9XLGH214UAIG9QWIMVHEX","A2FYFCD16Z3PCC","3VAOOVPI3ZEZMZXPLZ7IWDDZ15LLLX","","431","img/food1.png","75","432","2","0","1","1","1,0.7,0,1,0.7,0,0.7,0,1","0.7,0,1,0.7,0,1,0,1,0.7","2","",""
"","html-keyboard-response","153","52360","0.0-153.0","3K772S5NP9XLGH214UAIG9QWIMVHEX","A2FYFCD16Z3PCC","3VAOOVPI3ZEZMZXPLZ7IWDDZ15LLLX","","null","<img src=""img/food1.png"" style=""width:200px;border:14px solid red;"">","null","","","","","","","","","",""
"","image-keyboard-response","154","52612","0.0-154.0","3K772S5NP9XLGH214UAIG9QWIMVHEX","A2FYFCD16Z3PCC","3VAOOVPI3ZEZMZXPLZ7IWDDZ15LLLX","","250","img/food2.png","76","251","3","1","2","1","1,0.7,0,1,0.7,0,0.7,0,1","0.7,0,1,0.7,0,1,0,1,0.7","2","",""
"","html-keyboard-response","155","52913","0.0-155.0","3K772S5NP9XLGH214UAIG9QWIMVHEX","A2FYFCD16Z3PCC","3VAOOVPI3ZEZMZXPLZ7IWDDZ15LLLX","","null","<img src=""img/food2.png"" style=""width:200px; border:14px solid green;"">","null","","","","","","","","","",""
"","image-keyboard-response","156","53228","0.0-156.0","3K772S5NP9XLGH214UAIG9QWIMVHEX","A2FYFCD16Z3PCC","3VAOOVPI3ZEZMZXPLZ7IWDDZ15LLLX","","315","img/food2.png","76","315","3","1","2","1","1,0.7,0,1,0.7,0,0.7,0,1","0.7,0,1,0.7,0,1,0,1,0.7","2","",""
"","html-keyboard-response","157","53528","0.0-157.0","3K772S5NP9XLGH214UAIG9QWIMVHEX","A2FYFCD16Z3PCC","3VAOOVPI3ZEZMZXPLZ7IWDDZ15LLLX","","null","<img src=""img/food2.png"" style=""width:200px; border:14px solid green;"">","null","","","","","","","","","",""
"","image-keyboard-response","158","53756","0.0-158.0","3K772S5NP9XLGH214UAIG9QWIMVHEX","A2FYFCD16Z3PCC","3VAOOVPI3ZEZMZXPLZ7IWDDZ15LLLX","","227","img/food2.png","76","227","3","1","2","1","1,0.7,0,1,0.7,0,0.7,0,1","0.7,0,1,0.7,0,1,0,1,0.7","2","",""
"","html-keyboard-response","159","54057","0.0-159.0","3K772S5NP9XLGH214UAIG9QWIMVHEX","A2FYFCD16Z3PCC","3VAOOVPI3ZEZMZXPLZ7IWDDZ15LLLX","","null","<img src=""img/food2.png"" style=""width:200px; border:14px solid green;"">","null","","","","","","","","","",""
"","image-keyboard-response","160","54452","0.0-160.0","3K772S5NP9XLGH214UAIG9QWIMVHEX","A2FYFCD16Z3PCC","3VAOOVPI3ZEZMZXPLZ7IWDDZ15LLLX","","393","img/food3.png","75","394","2","1","3","1","1,0.7,0,1,0.7,0,0.7,0,1","0.7,0,1,0.7,0,1,0,1,0.7","2","",""
"","html-keyboard-response","161","54753","0.0-161.0","3K772S5NP9XLGH214UAIG9QWIMVHEX","A2FYFCD16Z3PCC","3VAOOVPI3ZEZMZXPLZ7IWDDZ15LLLX","","null","<img src=""img/food3.png"" style=""width:200px; border:14px solid green;"">","null","","","","","","","","","",""
"","image-keyboard-response","162","55107","0.0-162.0","3K772S5NP9XLGH214UAIG9QWIMVHEX","A2FYFCD16Z3PCC","3VAOOVPI3ZEZMZXPLZ7IWDDZ15LLLX","","353","img/food1.png","76","353","3","1","1","1","1,0.7,0,1,0.7,0,0.7,0,1","0.7,0,1,0.7,0,1,0,1,0.7","2","",""
"","html-keyboard-response","163","55409","0.0-163.0","3K772S5NP9XLGH214UAIG9QWIMVHEX","A2FYFCD16Z3PCC","3VAOOVPI3ZEZMZXPLZ7IWDDZ15LLLX","","null","<img src=""img/food1.png"" style=""width:200px; border:14px solid green;"">","null","","","","","","","","","",""
"","image-keyboard-response","164","55820","0.0-164.0","3K772S5NP9XLGH214UAIG9QWIMVHEX","A2FYFCD16Z3PCC","3VAOOVPI3ZEZMZXPLZ7IWDDZ15LLLX","","410","img/food3.png","75","411","2","1","3","1","1,0.7,0,1,0.7,0,0.7,0,1","0.7,0,1,0.7,0,1,0,1,0.7","2","",""
"","html-keyboard-response","165","56121","0.0-165.0","3K772S5NP9XLGH214UAIG9QWIMVHEX","A2FYFCD16Z3PCC","3VAOOVPI3ZEZMZXPLZ7IWDDZ15LLLX","","null","<img src=""img/food3.png"" style=""width:200px; border:14px solid green;"">","null","","","","","","","","","",""
"","image-keyboard-response","166","56467","0.0-166.0","3K772S5NP9XLGH214UAIG9QWIMVHEX","A2FYFCD16Z3PCC","3VAOOVPI3ZEZMZXPLZ7IWDDZ15LLLX","","345","img/food1.png","76","346","3","1","1","1","1,0.7,0,1,0.7,0,0.7,0,1","0.7,0,1,0.7,0,1,0,1,0.7","2","",""
"","html-keyboard-response","167","56769","0.0-167.0","3K772S5NP9XLGH214UAIG9QWIMVHEX","A2FYFCD16Z3PCC","3VAOOVPI3ZEZMZXPLZ7IWDDZ15LLLX","","null","<img src=""img/food1.png"" style=""width:200px; border:14px solid green;"">","null","","","","","","","","","",""
"","image-keyboard-response","168","57236","0.0-168.0","3K772S5NP9XLGH214UAIG9QWIMVHEX","A2FYFCD16Z3PCC","3VAOOVPI3ZEZMZXPLZ7IWDDZ15LLLX","","465","img/food3.png","75","467","2","1","3","1","1,0.7,0,1,0.7,0,0.7,0,1","0.7,0,1,0.7,0,1,0,1,0.7","2","",""
"","html-keyboard-response","169","57536","0.0-169.0","3K772S5NP9XLGH214UAIG9QWIMVHEX","A2FYFCD16Z3PCC","3VAOOVPI3ZEZMZXPLZ7IWDDZ15LLLX","","null","<img src=""img/food3.png"" style=""width:200px; border:14px solid green;"">","null","","","","","","","","","",""
"","image-keyboard-response","170","57892","0.0-170.0","3K772S5NP9XLGH214UAIG9QWIMVHEX","A2FYFCD16Z3PCC","3VAOOVPI3ZEZMZXPLZ7IWDDZ15LLLX","","355","img/food2.png","76","355","3","1","2","1","1,0.7,0,1,0.7,0,0.7,0,1","0.7,0,1,0.7,0,1,0,1,0.7","2","",""
"","html-keyboard-response","171","58193","0.0-171.0","3K772S5NP9XLGH214UAIG9QWIMVHEX","A2FYFCD16Z3PCC","3VAOOVPI3ZEZMZXPLZ7IWDDZ15LLLX","","null","<img src=""img/food2.png"" style=""width:200px; border:14px solid green;"">","null","","","","","","","","","",""
"","image-keyboard-response","172","58508","0.0-172.0","3K772S5NP9XLGH214UAIG9QWIMVHEX","A2FYFCD16Z3PCC","3VAOOVPI3ZEZMZXPLZ7IWDDZ15LLLX","","314","img/food2.png","76","314","3","1","2","1","1,0.7,0,1,0.7,0,0.7,0,1","0.7,0,1,0.7,0,1,0,1,0.7","2","",""
"","html-keyboard-response","173","58809","0.0-173.0","3K772S5NP9XLGH214UAIG9QWIMVHEX","A2FYFCD16Z3PCC","3VAOOVPI3ZEZMZXPLZ7IWDDZ15LLLX","","null","<img src=""img/food2.png"" style=""width:200px; border:14px solid green;"">","null","","","","","","","","","",""
"","image-keyboard-response","174","59260","0.0-174.0","3K772S5NP9XLGH214UAIG9QWIMVHEX","A2FYFCD16Z3PCC","3VAOOVPI3ZEZMZXPLZ7IWDDZ15LLLX","","449","img/food3.png","75","449","2","1","3","1","1,0.7,0,1,0.7,0,0.7,0,1","0.7,0,1,0.7,0,1,0,1,0.7","2","",""
"","html-keyboard-response","175","59562","0.0-175.0","3K772S5NP9XLGH214UAIG9QWIMVHEX","A2FYFCD16Z3PCC","3VAOOVPI3ZEZMZXPLZ7IWDDZ15LLLX","","null","<img src=""img/food3.png"" style=""width:200px; border:14px solid green;"">","null","","","","","","","","","",""
"","image-keyboard-response","176","59900","0.0-176.0","3K772S5NP9XLGH214UAIG9QWIMVHEX","A2FYFCD16Z3PCC","3VAOOVPI3ZEZMZXPLZ7IWDDZ15LLLX","","337","img/food3.png","75","339","2","1","3","1","1,0.7,0,1,0.7,0,0.7,0,1","0.7,0,1,0.7,0,1,0,1,0.7","2","",""
"","html-keyboard-response","177","60203","0.0-177.0","3K772S5NP9XLGH214UAIG9QWIMVHEX","A2FYFCD16Z3PCC","3VAOOVPI3ZEZMZXPLZ7IWDDZ15LLLX","","null","<img src=""img/food3.png"" style=""width:200px; border:14px solid green;"">","null","","","","","","","","","",""
"","image-keyboard-response","178","60524","0.0-178.0","3K772S5NP9XLGH214UAIG9QWIMVHEX","A2FYFCD16Z3PCC","3VAOOVPI3ZEZMZXPLZ7IWDDZ15LLLX","","321","img/food3.png","75","321","2","1","3","1","1,0.7,0,1,0.7,0,0.7,0,1","0.7,0,1,0.7,0,1,0,1,0.7","2","",""
"","html-keyboard-response","179","60825","0.0-179.0","3K772S5NP9XLGH214UAIG9QWIMVHEX","A2FYFCD16Z3PCC","3VAOOVPI3ZEZMZXPLZ7IWDDZ15LLLX","","null","<img src=""img/food3.png"" style=""width:200px; border:14px solid green;"">","null","","","","","","","","","",""
"","image-keyboard-response","180","61252","0.0-180.0","3K772S5NP9XLGH214UAIG9QWIMVHEX","A2FYFCD16Z3PCC","3VAOOVPI3ZEZMZXPLZ7IWDDZ15LLLX","","427","img/food2.png","76","427","3","1","2","1","1,0.7,0,1,0.7,0,0.7,0,1","0.7,0,1,0.7,0,1,0,1,0.7","2","",""
"","html-keyboard-response","181","61553","0.0-181.0","3K772S5NP9XLGH214UAIG9QWIMVHEX","A2FYFCD16Z3PCC","3VAOOVPI3ZEZMZXPLZ7IWDDZ15LLLX","","null","<img src=""img/food2.png"" style=""width:200px; border:14px solid green;"">","null","","","","","","","","","",""
"","html-keyboard-response","182","68569","0.0-182.0","3K772S5NP9XLGH214UAIG9QWIMVHEX","A2FYFCD16Z3PCC","3VAOOVPI3ZEZMZXPLZ7IWDDZ15LLLX","","","","","","","","","","","","","",""
"","instructions","183","81144","0.0-183.0","3K772S5NP9XLGH214UAIG9QWIMVHEX","A2FYFCD16Z3PCC","3VAOOVPI3ZEZMZXPLZ7IWDDZ15LLLX","[{""page_index"":0,""viewing_time"":11836},{""page_index"":1,""viewing_time"":739}]","12575","","","","","","","","","","","",""
"","image-keyboard-response","184","81876","0.0-184.0","3K772S5NP9XLGH214UAIG9QWIMVHEX","A2FYFCD16Z3PCC","3VAOOVPI3ZEZMZXPLZ7IWDDZ15LLLX","","731","img/food4.png","74","732","1","0","3","2","1,0.7,0,1,0.7,0,0.7,0,1","0.7,0,1,0.7,0,1,0,1,0.7","2","false",""
"","html-keyboard-response","185","82189","0.0-185.0","3K772S5NP9XLGH214UAIG9QWIMVHEX","A2FYFCD16Z3PCC","3VAOOVPI3ZEZMZXPLZ7IWDDZ15LLLX","","null","<img src=""img/food4.png"" style=""width:200px;border:14px solid red;"">","null","","","","","","","","","",""
"","image-keyboard-response","186","82460","0.0-187.0","3K772S5NP9XLGH214UAIG9QWIMVHEX","A2FYFCD16Z3PCC","3VAOOVPI3ZEZMZXPLZ7IWDDZ15LLLX","","271","img/food4.png","74","271","1","0","3","2","1,0.7,0,1,0.7,0,0.7,0,1","0.7,0,1,0.7,0,1,0,1,0.7","2","false",""
"","html-keyboard-response","187","82761","0.0-188.0","3K772S5NP9XLGH214UAIG9QWIMVHEX","A2FYFCD16Z3PCC","3VAOOVPI3ZEZMZXPLZ7IWDDZ15LLLX","","null","<img src=""img/food4.png"" style=""width:200px;border:14px solid red;"">","null","","","","","","","","","",""
"","image-keyboard-response","188","82932","0.0-190.0","3K772S5NP9XLGH214UAIG9QWIMVHEX","A2FYFCD16Z3PCC","3VAOOVPI3ZEZMZXPLZ7IWDDZ15LLLX","","171","img/food4.png","74","171","1","0","3","2","1,0.7,0,1,0.7,0,0.7,0,1","0.7,0,1,0.7,0,1,0,1,0.7","2","false",""
"","html-keyboard-response","189","83234","0.0-191.0","3K772S5NP9XLGH214UAIG9QWIMVHEX","A2FYFCD16Z3PCC","3VAOOVPI3ZEZMZXPLZ7IWDDZ15LLLX","","null","<img src=""img/food4.png"" style=""width:200px;border:14px solid red;"">","null","","","","","","","","","",""
"","image-keyboard-response","190","83772","0.0-193.0","3K772S5NP9XLGH214UAIG9QWIMVHEX","A2FYFCD16Z3PCC","3VAOOVPI3ZEZMZXPLZ7IWDDZ15LLLX","","538","img/food5.png","74","538","1","1","1","2","1,0.7,0,1,0.7,0,0.7,0,1","0.7,0,1,0.7,0,1,0,1,0.7","2","false",""
"","html-keyboard-response","191","84074","0.0-194.0","3K772S5NP9XLGH214UAIG9QWIMVHEX","A2FYFCD16Z3PCC","3VAOOVPI3ZEZMZXPLZ7IWDDZ15LLLX","","null","<img src=""img/food5.png"" style=""width:200px; border:14px solid green;"">","null","","","","","","","","","",""
"","image-keyboard-response","192","84244","0.0-196.0","3K772S5NP9XLGH214UAIG9QWIMVHEX","A2FYFCD16Z3PCC","3VAOOVPI3ZEZMZXPLZ7IWDDZ15LLLX","","169","img/food6.png","74","169","1","1","2","2","1,0.7,0,1,0.7,0,0.7,0,1","0.7,0,1,0.7,0,1,0,1,0.7","2","false",""
"","html-keyboard-response","193","84546","0.0-197.0","3K772S5NP9XLGH214UAIG9QWIMVHEX","A2FYFCD16Z3PCC","3VAOOVPI3ZEZMZXPLZ7IWDDZ15LLLX","","null","<img src=""img/food6.png"" style=""width:200px; border:14px solid green;"">","null","","","","","","","","","",""
"","image-keyboard-response","194","84820","0.0-199.0","3K772S5NP9XLGH214UAIG9QWIMVHEX","A2FYFCD16Z3PCC","3VAOOVPI3ZEZMZXPLZ7IWDDZ15LLLX","","273","img/food6.png","74","273","1","1","2","2","1,0.7,0,1,0.7,0,0.7,0,1","0.7,0,1,0.7,0,1,0,1,0.7","2","false",""
"","html-keyboard-response","195","85122","0.0-200.0","3K772S5NP9XLGH214UAIG9QWIMVHEX","A2FYFCD16Z3PCC","3VAOOVPI3ZEZMZXPLZ7IWDDZ15LLLX","","null","<img src=""img/food6.png"" style=""width:200px; border:14px solid green;"">","null","","","","","","","","","",""
"","image-keyboard-response","196","85340","0.0-202.0","3K772S5NP9XLGH214UAIG9QWIMVHEX","A2FYFCD16Z3PCC","3VAOOVPI3ZEZMZXPLZ7IWDDZ15LLLX","","217","img/food4.png","74","219","1","0","3","2","1,0.7,0,1,0.7,0,0.7,0,1","0.7,0,1,0.7,0,1,0,1,0.7","2","false",""
"","html-keyboard-response","197","85642","0.0-203.0","3K772S5NP9XLGH214UAIG9QWIMVHEX","A2FYFCD16Z3PCC","3VAOOVPI3ZEZMZXPLZ7IWDDZ15LLLX","","null","<img src=""img/food4.png"" style=""width:200px;border:14px solid red;"">","null","","","","","","","","","",""
"","image-keyboard-response","198","86196","0.0-205.0","3K772S5NP9XLGH214UAIG9QWIMVHEX","A2FYFCD16Z3PCC","3VAOOVPI3ZEZMZXPLZ7IWDDZ15LLLX","","553","img/food5.png","74","553","1","1","1","2","1,0.7,0,1,0.7,0,0.7,0,1","0.7,0,1,0.7,0,1,0,1,0.7","2","false",""
"","html-keyboard-response","199","86497","0.0-206.0","3K772S5NP9XLGH214UAIG9QWIMVHEX","A2FYFCD16Z3PCC","3VAOOVPI3ZEZMZXPLZ7IWDDZ15LLLX","","null","<img src=""img/food5.png"" style=""width:200px; border:14px solid green;"">","null","","","","","","","","","",""
"","image-keyboard-response","200","86828","0.0-208.0","3K772S5NP9XLGH214UAIG9QWIMVHEX","A2FYFCD16Z3PCC","3VAOOVPI3ZEZMZXPLZ7IWDDZ15LLLX","","330","img/food4.png","74","330","1","0","3","2","1,0.7,0,1,0.7,0,0.7,0,1","0.7,0,1,0.7,0,1,0,1,0.7","2","false",""
"","html-keyboard-response","201","87129","0.0-209.0","3K772S5NP9XLGH214UAIG9QWIMVHEX","A2FYFCD16Z3PCC","3VAOOVPI3ZEZMZXPLZ7IWDDZ15LLLX","","null","<img src=""img/food4.png"" style=""width:200px;border:14px solid red;"">","null","","","","","","","","","",""
"","image-keyboard-response","202","87500","0.0-211.0","3K772S5NP9XLGH214UAIG9QWIMVHEX","A2FYFCD16Z3PCC","3VAOOVPI3ZEZMZXPLZ7IWDDZ15LLLX","","370","img/food6.png","74","371","1","1","2","2","1,0.7,0,1,0.7,0,0.7,0,1","0.7,0,1,0.7,0,1,0,1,0.7","2","false",""
"","html-keyboard-response","203","87802","0.0-212.0","3K772S5NP9XLGH214UAIG9QWIMVHEX","A2FYFCD16Z3PCC","3VAOOVPI3ZEZMZXPLZ7IWDDZ15LLLX","","null","<img src=""img/food6.png"" style=""width:200px; border:14px solid green;"">","null","","","","","","","","","",""
"","image-keyboard-response","204","88300","0.0-214.0","3K772S5NP9XLGH214UAIG9QWIMVHEX","A2FYFCD16Z3PCC","3VAOOVPI3ZEZMZXPLZ7IWDDZ15LLLX","","497","img/food4.png","75","498","2","1","3","2","1,0.7,0,1,0.7,0,0.7,0,1","0.7,0,1,0.7,0,1,0,1,0.7","2","false",""
"","html-keyboard-response","205","88601","0.0-215.0","3K772S5NP9XLGH214UAIG9QWIMVHEX","A2FYFCD16Z3PCC","3VAOOVPI3ZEZMZXPLZ7IWDDZ15LLLX","","null","<img src=""img/food4.png"" style=""width:200px; border:14px solid green;"">","null","","","","","","","","","",""
"","image-keyboard-response","206","89132","0.0-217.0","3K772S5NP9XLGH214UAIG9QWIMVHEX","A2FYFCD16Z3PCC","3VAOOVPI3ZEZMZXPLZ7IWDDZ15LLLX","","530","img/food6.png","74","531","1","1","2","2","1,0.7,0,1,0.7,0,0.7,0,1","0.7,0,1,0.7,0,1,0,1,0.7","2","false",""
"","html-keyboard-response","207","89433","0.0-218.0","3K772S5NP9XLGH214UAIG9QWIMVHEX","A2FYFCD16Z3PCC","3VAOOVPI3ZEZMZXPLZ7IWDDZ15LLLX","","null","<img src=""img/food6.png"" style=""width:200px; border:14px solid green;"">","null","","","","","","","","","",""
"","image-keyboard-response","208","89684","0.0-220.0","3K772S5NP9XLGH214UAIG9QWIMVHEX","A2FYFCD16Z3PCC","3VAOOVPI3ZEZMZXPLZ7IWDDZ15LLLX","","251","img/food6.png","74","251","1","1","2","2","1,0.7,0,1,0.7,0,0.7,0,1","0.7,0,1,0.7,0,1,0,1,0.7","2","false",""
"","html-keyboard-response","209","89986","0.0-221.0","3K772S5NP9XLGH214UAIG9QWIMVHEX","A2FYFCD16Z3PCC","3VAOOVPI3ZEZMZXPLZ7IWDDZ15LLLX","","null","<img src=""img/food6.png"" style=""width:200px; border:14px solid green;"">","null","","","","","","","","","",""
"","image-keyboard-response","210","90612","0.0-223.0","3K772S5NP9XLGH214UAIG9QWIMVHEX","A2FYFCD16Z3PCC","3VAOOVPI3ZEZMZXPLZ7IWDDZ15LLLX","","626","img/food5.png","74","626","1","0","1","2","1,0.7,0,1,0.7,0,0.7,0,1","0.7,0,1,0.7,0,1,0,1,0.7","2","false",""
"","html-keyboard-response","211","90913","0.0-224.0","3K772S5NP9XLGH214UAIG9QWIMVHEX","A2FYFCD16Z3PCC","3VAOOVPI3ZEZMZXPLZ7IWDDZ15LLLX","","null","<img src=""img/food5.png"" style=""width:200px;border:14px solid red;"">","null","","","","","","","","","",""
"","image-keyboard-response","212","91524","0.0-226.0","3K772S5NP9XLGH214UAIG9QWIMVHEX","A2FYFCD16Z3PCC","3VAOOVPI3ZEZMZXPLZ7IWDDZ15LLLX","","609","img/food6.png","74","609","1","1","2","2","1,0.7,0,1,0.7,0,0.7,0,1","0.7,0,1,0.7,0,1,0,1,0.7","2","false",""
"","html-keyboard-response","213","91827","0.0-227.0","3K772S5NP9XLGH214UAIG9QWIMVHEX","A2FYFCD16Z3PCC","3VAOOVPI3ZEZMZXPLZ7IWDDZ15LLLX","","null","<img src=""img/food6.png"" style=""width:200px; border:14px solid green;"">","null","","","","","","","","","",""
"","image-keyboard-response","214","92196","0.0-229.0","3K772S5NP9XLGH214UAIG9QWIMVHEX","A2FYFCD16Z3PCC","3VAOOVPI3ZEZMZXPLZ7IWDDZ15LLLX","","369","img/food6.png","74","370","1","1","2","2","1,0.7,0,1,0.7,0,0.7,0,1","0.7,0,1,0.7,0,1,0,1,0.7","2","false",""
"","html-keyboard-response","215","92497","0.0-230.0","3K772S5NP9XLGH214UAIG9QWIMVHEX","A2FYFCD16Z3PCC","3VAOOVPI3ZEZMZXPLZ7IWDDZ15LLLX","","null","<img src=""img/food6.png"" style=""width:200px; border:14px solid green;"">","null","","","","","","","","","",""
"","image-keyboard-response","216","92740","0.0-232.0","3K772S5NP9XLGH214UAIG9QWIMVHEX","A2FYFCD16Z3PCC","3VAOOVPI3ZEZMZXPLZ7IWDDZ15LLLX","","242","img/food6.png","74","243","1","0","2","2","1,0.7,0,1,0.7,0,0.7,0,1","0.7,0,1,0.7,0,1,0,1,0.7","2","false",""
"","html-keyboard-response","217","93042","0.0-233.0","3K772S5NP9XLGH214UAIG9QWIMVHEX","A2FYFCD16Z3PCC","3VAOOVPI3ZEZMZXPLZ7IWDDZ15LLLX","","null","<img src=""img/food6.png"" style=""width:200px;border:14px solid red;"">","null","","","","","","","","","",""
"","image-keyboard-response","218","93316","0.0-235.0","3K772S5NP9XLGH214UAIG9QWIMVHEX","A2FYFCD16Z3PCC","3VAOOVPI3ZEZMZXPLZ7IWDDZ15LLLX","","272","img/food6.png","74","273","1","0","2","2","1,0.7,0,1,0.7,0,0.7,0,1","0.7,0,1,0.7,0,1,0,1,0.7","2","false",""
"","html-keyboard-response","219","93618","0.0-236.0","3K772S5NP9XLGH214UAIG9QWIMVHEX","A2FYFCD16Z3PCC","3VAOOVPI3ZEZMZXPLZ7IWDDZ15LLLX","","null","<img src=""img/food6.png"" style=""width:200px;border:14px solid red;"">","null","","","","","","","","","",""
"","image-keyboard-response","220","94132","0.0-238.0","3K772S5NP9XLGH214UAIG9QWIMVHEX","A2FYFCD16Z3PCC","3VAOOVPI3ZEZMZXPLZ7IWDDZ15LLLX","","513","img/food5.png","74","515","1","0","1","2","1,0.7,0,1,0.7,0,0.7,0,1","0.7,0,1,0.7,0,1,0,1,0.7","2","false",""
"","html-keyboard-response","221","94434","0.0-239.0","3K772S5NP9XLGH214UAIG9QWIMVHEX","A2FYFCD16Z3PCC","3VAOOVPI3ZEZMZXPLZ7IWDDZ15LLLX","","null","<img src=""img/food5.png"" style=""width:200px;border:14px solid red;"">","null","","","","","","","","","",""
"","image-keyboard-response","222","94668","0.0-241.0","3K772S5NP9XLGH214UAIG9QWIMVHEX","A2FYFCD16Z3PCC","3VAOOVPI3ZEZMZXPLZ7IWDDZ15LLLX","","233","img/food5.png","74","233","1","1","1","2","1,0.7,0,1,0.7,0,0.7,0,1","0.7,0,1,0.7,0,1,0,1,0.7","2","false",""
"","html-keyboard-response","223","94970","0.0-242.0","3K772S5NP9XLGH214UAIG9QWIMVHEX","A2FYFCD16Z3PCC","3VAOOVPI3ZEZMZXPLZ7IWDDZ15LLLX","","null","<img src=""img/food5.png"" style=""width:200px; border:14px solid green;"">","null","","","","","","","","","",""
"","image-keyboard-response","224","95244","0.0-244.0","3K772S5NP9XLGH214UAIG9QWIMVHEX","A2FYFCD16Z3PCC","3VAOOVPI3ZEZMZXPLZ7IWDDZ15LLLX","","273","img/food5.png","74","275","1","1","1","2","1,0.7,0,1,0.7,0,0.7,0,1","0.7,0,1,0.7,0,1,0,1,0.7","2","false",""
"","html-keyboard-response","225","95546","0.0-245.0","3K772S5NP9XLGH214UAIG9QWIMVHEX","A2FYFCD16Z3PCC","3VAOOVPI3ZEZMZXPLZ7IWDDZ15LLLX","","null","<img src=""img/food5.png"" style=""width:200px; border:14px solid green;"">","null","","","","","","","","","",""
"","image-keyboard-response","226","96004","0.0-247.0","3K772S5NP9XLGH214UAIG9QWIMVHEX","A2FYFCD16Z3PCC","3VAOOVPI3ZEZMZXPLZ7IWDDZ15LLLX","","457","img/food6.png","76","458","3","1","2","2","1,0.7,0,1,0.7,0,0.7,0,1","0.7,0,1,0.7,0,1,0,1,0.7","2","false",""
"","html-keyboard-response","227","96305","0.0-248.0","3K772S5NP9XLGH214UAIG9QWIMVHEX","A2FYFCD16Z3PCC","3VAOOVPI3ZEZMZXPLZ7IWDDZ15LLLX","","null","<img src=""img/food6.png"" style=""width:200px; border:14px solid green;"">","null","","","","","","","","","",""
"","image-keyboard-response","228","96484","0.0-250.0","3K772S5NP9XLGH214UAIG9QWIMVHEX","A2FYFCD16Z3PCC","3VAOOVPI3ZEZMZXPLZ7IWDDZ15LLLX","","177","img/food5.png","76","177","3","1","1","2","1,0.7,0,1,0.7,0,0.7,0,1","0.7,0,1,0.7,0,1,0,1,0.7","2","false",""
"","html-keyboard-response","229","96786","0.0-251.0","3K772S5NP9XLGH214UAIG9QWIMVHEX","A2FYFCD16Z3PCC","3VAOOVPI3ZEZMZXPLZ7IWDDZ15LLLX","","null","<img src=""img/food5.png"" style=""width:200px; border:14px solid green;"">","null","","","","","","","","","",""
"","image-keyboard-response","230","96892","0.0-253.0","3K772S5NP9XLGH214UAIG9QWIMVHEX","A2FYFCD16Z3PCC","3VAOOVPI3ZEZMZXPLZ7IWDDZ15LLLX","","105","img/food5.png","76","105","3","1","1","2","1,0.7,0,1,0.7,0,0.7,0,1","0.7,0,1,0.7,0,1,0,1,0.7","2","false",""
"","html-keyboard-response","231","97194","0.0-254.0","3K772S5NP9XLGH214UAIG9QWIMVHEX","A2FYFCD16Z3PCC","3VAOOVPI3ZEZMZXPLZ7IWDDZ15LLLX","","null","<img src=""img/food5.png"" style=""width:200px; border:14px solid green;"">","null","","","","","","","","","",""
"","image-keyboard-response","232","97364","0.0-256.0","3K772S5NP9XLGH214UAIG9QWIMVHEX","A2FYFCD16Z3PCC","3VAOOVPI3ZEZMZXPLZ7IWDDZ15LLLX","","169","img/food5.png","76","170","3","1","1","2","1,0.7,0,1,0.7,0,0.7,0,1","0.7,0,1,0.7,0,1,0,1,0.7","2","false",""
"","html-keyboard-response","233","97666","0.0-257.0","3K772S5NP9XLGH214UAIG9QWIMVHEX","A2FYFCD16Z3PCC","3VAOOVPI3ZEZMZXPLZ7IWDDZ15LLLX","","null","<img src=""img/food5.png"" style=""width:200px; border:14px solid green;"">","null","","","","","","","","","",""
"","image-keyboard-response","234","97804","0.0-259.0","3K772S5NP9XLGH214UAIG9QWIMVHEX","A2FYFCD16Z3PCC","3VAOOVPI3ZEZMZXPLZ7IWDDZ15LLLX","","137","img/food4.png","76","138","3","1","3","2","1,0.7,0,1,0.7,0,0.7,0,1","0.7,0,1,0.7,0,1,0,1,0.7","2","false",""
"","html-keyboard-response","235","98105","0.0-260.0","3K772S5NP9XLGH214UAIG9QWIMVHEX","A2FYFCD16Z3PCC","3VAOOVPI3ZEZMZXPLZ7IWDDZ15LLLX","","null","<img src=""img/food4.png"" style=""width:200px; border:14px solid green;"">","null","","","","","","","","","",""
"","image-keyboard-response","236","98260","0.0-262.0","3K772S5NP9XLGH214UAIG9QWIMVHEX","A2FYFCD16Z3PCC","3VAOOVPI3ZEZMZXPLZ7IWDDZ15LLLX","","153","img/food6.png","76","153","3","1","2","2","1,0.7,0,1,0.7,0,0.7,0,1","0.7,0,1,0.7,0,1,0,1,0.7","2","false",""
"","html-keyboard-response","237","98563","0.0-263.0","3K772S5NP9XLGH214UAIG9QWIMVHEX","A2FYFCD16Z3PCC","3VAOOVPI3ZEZMZXPLZ7IWDDZ15LLLX","","null","<img src=""img/food6.png"" style=""width:200px; border:14px solid green;"">","null","","","","","","","","","",""
"","image-keyboard-response","238","98748","0.0-265.0","3K772S5NP9XLGH214UAIG9QWIMVHEX","A2FYFCD16Z3PCC","3VAOOVPI3ZEZMZXPLZ7IWDDZ15LLLX","","184","img/food5.png","76","184","3","1","1","2","1,0.7,0,1,0.7,0,0.7,0,1","0.7,0,1,0.7,0,1,0,1,0.7","2","false",""
"","html-keyboard-response","239","99049","0.0-266.0","3K772S5NP9XLGH214UAIG9QWIMVHEX","A2FYFCD16Z3PCC","3VAOOVPI3ZEZMZXPLZ7IWDDZ15LLLX","","null","<img src=""img/food5.png"" style=""width:200px; border:14px solid green;"">","null","","","","","","","","","",""
"","image-keyboard-response","240","99132","0.0-268.0","3K772S5NP9XLGH214UAIG9QWIMVHEX","A2FYFCD16Z3PCC","3VAOOVPI3ZEZMZXPLZ7IWDDZ15LLLX","","82","img/food4.png","76","83","3","0","3","2","1,0.7,0,1,0.7,0,0.7,0,1","0.7,0,1,0.7,0,1,0,1,0.7","2","false",""
"","html-keyboard-response","241","99433","0.0-269.0","3K772S5NP9XLGH214UAIG9QWIMVHEX","A2FYFCD16Z3PCC","3VAOOVPI3ZEZMZXPLZ7IWDDZ15LLLX","","null","<img src=""img/food4.png"" style=""width:200px;border:14px solid red;"">","null","","","","","","","","","",""
"","image-keyboard-response","242","99524","0.0-271.0","3K772S5NP9XLGH214UAIG9QWIMVHEX","A2FYFCD16Z3PCC","3VAOOVPI3ZEZMZXPLZ7IWDDZ15LLLX","","90","img/food4.png","76","91","3","0","3","2","1,0.7,0,1,0.7,0,0.7,0,1","0.7,0,1,0.7,0,1,0,1,0.7","2","false",""
"","html-keyboard-response","243","99825","0.0-272.0","3K772S5NP9XLGH214UAIG9QWIMVHEX","A2FYFCD16Z3PCC","3VAOOVPI3ZEZMZXPLZ7IWDDZ15LLLX","","null","<img src=""img/food4.png"" style=""width:200px;border:14px solid red;"">","null","","","","","","","","","",""
"","image-keyboard-response","244","100060","0.0-274.0","3K772S5NP9XLGH214UAIG9QWIMVHEX","A2FYFCD16Z3PCC","3VAOOVPI3ZEZMZXPLZ7IWDDZ15LLLX","","235","img/food6.png","76","235","3","1","2","2","1,0.7,0,1,0.7,0,0.7,0,1","0.7,0,1,0.7,0,1,0,1,0.7","2","false",""
"","html-keyboard-response","245","100361","0.0-275.0","3K772S5NP9XLGH214UAIG9QWIMVHEX","A2FYFCD16Z3PCC","3VAOOVPI3ZEZMZXPLZ7IWDDZ15LLLX","","null","<img src=""img/food6.png"" style=""width:200px; border:14px solid green;"">","null","","","","","","","","","",""
"","image-keyboard-response","246","100404","0.0-277.0","3K772S5NP9XLGH214UAIG9QWIMVHEX","A2FYFCD16Z3PCC","3VAOOVPI3ZEZMZXPLZ7IWDDZ15LLLX","","42","img/food6.png","76","43","3","1","2","2","1,0.7,0,1,0.7,0,0.7,0,1","0.7,0,1,0.7,0,1,0,1,0.7","2","false",""
"","html-keyboard-response","247","100705","0.0-278.0","3K772S5NP9XLGH214UAIG9QWIMVHEX","A2FYFCD16Z3PCC","3VAOOVPI3ZEZMZXPLZ7IWDDZ15LLLX","","null","<img src=""img/food6.png"" style=""width:200px; border:14px solid green;"">","null","","","","","","","","","",""
"","image-keyboard-response","248","100740","0.0-280.0","3K772S5NP9XLGH214UAIG9QWIMVHEX","A2FYFCD16Z3PCC","3VAOOVPI3ZEZMZXPLZ7IWDDZ15LLLX","","34","img/food6.png","76","35","3","1","2","2","1,0.7,0,1,0.7,0,0.7,0,1","0.7,0,1,0.7,0,1,0,1,0.7","2","false",""
"","html-keyboard-response","249","101042","0.0-281.0","3K772S5NP9XLGH214UAIG9QWIMVHEX","A2FYFCD16Z3PCC","3VAOOVPI3ZEZMZXPLZ7IWDDZ15LLLX","","null","<img src=""img/food6.png"" style=""width:200px; border:14px solid green;"">","null","","","","","","","","","",""
"","image-keyboard-response","250","101100","0.0-283.0","3K772S5NP9XLGH214UAIG9QWIMVHEX","A2FYFCD16Z3PCC","3VAOOVPI3ZEZMZXPLZ7IWDDZ15LLLX","","57","img/food6.png","76","58","3","1","2","2","1,0.7,0,1,0.7,0,0.7,0,1","0.7,0,1,0.7,0,1,0,1,0.7","2","false",""
"","html-keyboard-response","251","101402","0.0-284.0","3K772S5NP9XLGH214UAIG9QWIMVHEX","A2FYFCD16Z3PCC","3VAOOVPI3ZEZMZXPLZ7IWDDZ15LLLX","","null","<img src=""img/food6.png"" style=""width:200px; border:14px solid green;"">","null","","","","","","","","","",""
"","image-keyboard-response","252","101628","0.0-286.0","3K772S5NP9XLGH214UAIG9QWIMVHEX","A2FYFCD16Z3PCC","3VAOOVPI3ZEZMZXPLZ7IWDDZ15LLLX","","226","img/food4.png","76","226","3","1","3","2","1,0.7,0,1,0.7,0,0.7,0,1","0.7,0,1,0.7,0,1,0,1,0.7","2","false",""
"","html-keyboard-response","253","101929","0.0-287.0","3K772S5NP9XLGH214UAIG9QWIMVHEX","A2FYFCD16Z3PCC","3VAOOVPI3ZEZMZXPLZ7IWDDZ15LLLX","","null","<img src=""img/food4.png"" style=""width:200px; border:14px solid green;"">","null","","","","","","","","","",""
"","image-keyboard-response","254","102332","0.0-289.0","3K772S5NP9XLGH214UAIG9QWIMVHEX","A2FYFCD16Z3PCC","3VAOOVPI3ZEZMZXPLZ7IWDDZ15LLLX","","401","img/food4.png","75","402","2","1","3","2","1,0.7,0,1,0.7,0,0.7,0,1","0.7,0,1,0.7,0,1,0,1,0.7","2","false",""
"","html-keyboard-response","255","102634","0.0-290.0","3K772S5NP9XLGH214UAIG9QWIMVHEX","A2FYFCD16Z3PCC","3VAOOVPI3ZEZMZXPLZ7IWDDZ15LLLX","","null","<img src=""img/food4.png"" style=""width:200px; border:14px solid green;"">","null","","","","","","","","","",""
"","image-keyboard-response","256","102932","0.0-292.0","3K772S5NP9XLGH214UAIG9QWIMVHEX","A2FYFCD16Z3PCC","3VAOOVPI3ZEZMZXPLZ7IWDDZ15LLLX","","297","img/food4.png","75","297","2","1","3","2","1,0.7,0,1,0.7,0,0.7,0,1","0.7,0,1,0.7,0,1,0,1,0.7","2","false",""
"","html-keyboard-response","257","103234","0.0-293.0","3K772S5NP9XLGH214UAIG9QWIMVHEX","A2FYFCD16Z3PCC","3VAOOVPI3ZEZMZXPLZ7IWDDZ15LLLX","","null","<img src=""img/food4.png"" style=""width:200px; border:14px solid green;"">","null","","","","","","","","","",""
"","image-keyboard-response","258","103612","0.0-295.0","3K772S5NP9XLGH214UAIG9QWIMVHEX","A2FYFCD16Z3PCC","3VAOOVPI3ZEZMZXPLZ7IWDDZ15LLLX","","375","img/food6.png","76","375","3","1","2","2","1,0.7,0,1,0.7,0,0.7,0,1","0.7,0,1,0.7,0,1,0,1,0.7","2","false",""
"","html-keyboard-response","259","103913","0.0-296.0","3K772S5NP9XLGH214UAIG9QWIMVHEX","A2FYFCD16Z3PCC","3VAOOVPI3ZEZMZXPLZ7IWDDZ15LLLX","","null","<img src=""img/food6.png"" style=""width:200px; border:14px solid green;"">","null","","","","","","","","","",""
"","image-keyboard-response","260","104284","0.0-298.0","3K772S5NP9XLGH214UAIG9QWIMVHEX","A2FYFCD16Z3PCC","3VAOOVPI3ZEZMZXPLZ7IWDDZ15LLLX","","370","img/food4.png","75","370","2","1","3","2","1,0.7,0,1,0.7,0,0.7,0,1","0.7,0,1,0.7,0,1,0,1,0.7","2","false",""
"","html-keyboard-response","261","104585","0.0-299.0","3K772S5NP9XLGH214UAIG9QWIMVHEX","A2FYFCD16Z3PCC","3VAOOVPI3ZEZMZXPLZ7IWDDZ15LLLX","","null","<img src=""img/food4.png"" style=""width:200px; border:14px solid green;"">","null","","","","","","","","","",""
"","image-keyboard-response","262","104916","0.0-301.0","3K772S5NP9XLGH214UAIG9QWIMVHEX","A2FYFCD16Z3PCC","3VAOOVPI3ZEZMZXPLZ7IWDDZ15LLLX","","330","img/food4.png","75","331","2","1","3","2","1,0.7,0,1,0.7,0,0.7,0,1","0.7,0,1,0.7,0,1,0,1,0.7","2","false",""
"","html-keyboard-response","263","105217","0.0-302.0","3K772S5NP9XLGH214UAIG9QWIMVHEX","A2FYFCD16Z3PCC","3VAOOVPI3ZEZMZXPLZ7IWDDZ15LLLX","","null","<img src=""img/food4.png"" style=""width:200px; border:14px solid green;"">","null","","","","","","","","","",""
"","image-keyboard-response","264","105572","0.0-304.0","3K772S5NP9XLGH214UAIG9QWIMVHEX","A2FYFCD16Z3PCC","3VAOOVPI3ZEZMZXPLZ7IWDDZ15LLLX","","354","img/food5.png","76","354","3","1","1","2","1,0.7,0,1,0.7,0,0.7,0,1","0.7,0,1,0.7,0,1,0,1,0.7","2","false",""
"","html-keyboard-response","265","105874","0.0-305.0","3K772S5NP9XLGH214UAIG9QWIMVHEX","A2FYFCD16Z3PCC","3VAOOVPI3ZEZMZXPLZ7IWDDZ15LLLX","","null","<img src=""img/food5.png"" style=""width:200px; border:14px solid green;"">","null","","","","","","","","","",""
"","image-keyboard-response","266","106164","0.0-307.0","3K772S5NP9XLGH214UAIG9QWIMVHEX","A2FYFCD16Z3PCC","3VAOOVPI3ZEZMZXPLZ7IWDDZ15LLLX","","288","img/food4.png","76","290","3","1","3","2","1,0.7,0,1,0.7,0,0.7,0,1","0.7,0,1,0.7,0,1,0,1,0.7","2","false",""
"","html-keyboard-response","267","106465","0.0-308.0","3K772S5NP9XLGH214UAIG9QWIMVHEX","A2FYFCD16Z3PCC","3VAOOVPI3ZEZMZXPLZ7IWDDZ15LLLX","","null","<img src=""img/food4.png"" style=""width:200px; border:14px solid green;"">","null","","","","","","","","","",""
"","image-keyboard-response","268","106668","0.0-310.0","3K772S5NP9XLGH214UAIG9QWIMVHEX","A2FYFCD16Z3PCC","3VAOOVPI3ZEZMZXPLZ7IWDDZ15LLLX","","201","img/food4.png","75","201","2","1","3","2","1,0.7,0,1,0.7,0,0.7,0,1","0.7,0,1,0.7,0,1,0,1,0.7","2","false",""
"","html-keyboard-response","269","106981","0.0-311.0","3K772S5NP9XLGH214UAIG9QWIMVHEX","A2FYFCD16Z3PCC","3VAOOVPI3ZEZMZXPLZ7IWDDZ15LLLX","","null","<img src=""img/food4.png"" style=""width:200px; border:14px solid green;"">","null","","","","","","","","","",""
"","image-keyboard-response","270","107316","0.0-313.0","3K772S5NP9XLGH214UAIG9QWIMVHEX","A2FYFCD16Z3PCC","3VAOOVPI3ZEZMZXPLZ7IWDDZ15LLLX","","334","img/food4.png","75","334","2","1","3","2","1,0.7,0,1,0.7,0,0.7,0,1","0.7,0,1,0.7,0,1,0,1,0.7","2","false",""
"","html-keyboard-response","271","107619","0.0-314.0","3K772S5NP9XLGH214UAIG9QWIMVHEX","A2FYFCD16Z3PCC","3VAOOVPI3ZEZMZXPLZ7IWDDZ15LLLX","","null","<img src=""img/food4.png"" style=""width:200px; border:14px solid green;"">","null","","","","","","","","","",""
"","image-keyboard-response","272","108036","0.0-316.0","3K772S5NP9XLGH214UAIG9QWIMVHEX","A2FYFCD16Z3PCC","3VAOOVPI3ZEZMZXPLZ7IWDDZ15LLLX","","417","img/food5.png","76","418","3","1","1","2","1,0.7,0,1,0.7,0,0.7,0,1","0.7,0,1,0.7,0,1,0,1,0.7","2","false",""
"","html-keyboard-response","273","108337","0.0-317.0","3K772S5NP9XLGH214UAIG9QWIMVHEX","A2FYFCD16Z3PCC","3VAOOVPI3ZEZMZXPLZ7IWDDZ15LLLX","","null","<img src=""img/food5.png"" style=""width:200px; border:14px solid green;"">","null","","","","","","","","","",""
"","image-keyboard-response","274","108868","0.0-319.0","3K772S5NP9XLGH214UAIG9QWIMVHEX","A2FYFCD16Z3PCC","3VAOOVPI3ZEZMZXPLZ7IWDDZ15LLLX","","529","img/food6.png","76","531","3","1","2","2","1,0.7,0,1,0.7,0,0.7,0,1","0.7,0,1,0.7,0,1,0,1,0.7","2","false",""
"","html-keyboard-response","275","109173","0.0-320.0","3K772S5NP9XLGH214UAIG9QWIMVHEX","A2FYFCD16Z3PCC","3VAOOVPI3ZEZMZXPLZ7IWDDZ15LLLX","","null","<img src=""img/food6.png"" style=""width:200px; border:14px solid green;"">","null","","","","","","","","","",""
"","image-keyboard-response","276","109492","0.0-322.0","3K772S5NP9XLGH214UAIG9QWIMVHEX","A2FYFCD16Z3PCC","3VAOOVPI3ZEZMZXPLZ7IWDDZ15LLLX","","318","img/food5.png","76","318","3","1","1","2","1,0.7,0,1,0.7,0,0.7,0,1","0.7,0,1,0.7,0,1,0,1,0.7","2","false",""
"","html-keyboard-response","277","109793","0.0-323.0","3K772S5NP9XLGH214UAIG9QWIMVHEX","A2FYFCD16Z3PCC","3VAOOVPI3ZEZMZXPLZ7IWDDZ15LLLX","","null","<img src=""img/food5.png"" style=""width:200px; border:14px solid green;"">","null","","","","","","","","","",""
"","image-keyboard-response","278","110132","0.0-325.0","3K772S5NP9XLGH214UAIG9QWIMVHEX","A2FYFCD16Z3PCC","3VAOOVPI3ZEZMZXPLZ7IWDDZ15LLLX","","338","img/food6.png","76","338","3","1","2","2","1,0.7,0,1,0.7,0,0.7,0,1","0.7,0,1,0.7,0,1,0,1,0.7","2","false",""
"","html-keyboard-response","279","110434","0.0-326.0","3K772S5NP9XLGH214UAIG9QWIMVHEX","A2FYFCD16Z3PCC","3VAOOVPI3ZEZMZXPLZ7IWDDZ15LLLX","","null","<img src=""img/food6.png"" style=""width:200px; border:14px solid green;"">","null","","","","","","","","","",""
"","image-keyboard-response","280","110932","0.0-328.0","3K772S5NP9XLGH214UAIG9QWIMVHEX","A2FYFCD16Z3PCC","3VAOOVPI3ZEZMZXPLZ7IWDDZ15LLLX","","496","img/food5.png","76","498","3","1","1","2","1,0.7,0,1,0.7,0,0.7,0,1","0.7,0,1,0.7,0,1,0,1,0.7","2","false",""
"","html-keyboard-response","281","111233","0.0-329.0","3K772S5NP9XLGH214UAIG9QWIMVHEX","A2FYFCD16Z3PCC","3VAOOVPI3ZEZMZXPLZ7IWDDZ15LLLX","","null","<img src=""img/food5.png"" style=""width:200px; border:14px solid green;"">","null","","","","","","","","","",""
"","image-keyboard-response","282","111556","0.0-331.0","3K772S5NP9XLGH214UAIG9QWIMVHEX","A2FYFCD16Z3PCC","3VAOOVPI3ZEZMZXPLZ7IWDDZ15LLLX","","323","img/food5.png","76","323","3","1","1","2","1,0.7,0,1,0.7,0,0.7,0,1","0.7,0,1,0.7,0,1,0,1,0.7","2","false",""
"","html-keyboard-response","283","111858","0.0-332.0","3K772S5NP9XLGH214UAIG9QWIMVHEX","A2FYFCD16Z3PCC","3VAOOVPI3ZEZMZXPLZ7IWDDZ15LLLX","","null","<img src=""img/food5.png"" style=""width:200px; border:14px solid green;"">","null","","","","","","","","","",""
"","image-keyboard-response","284","112092","0.0-334.0","3K772S5NP9XLGH214UAIG9QWIMVHEX","A2FYFCD16Z3PCC","3VAOOVPI3ZEZMZXPLZ7IWDDZ15LLLX","","234","img/food6.png","76","234","3","1","2","2","1,0.7,0,1,0.7,0,0.7,0,1","0.7,0,1,0.7,0,1,0,1,0.7","2","false",""
"","html-keyboard-response","285","112393","0.0-335.0","3K772S5NP9XLGH214UAIG9QWIMVHEX","A2FYFCD16Z3PCC","3VAOOVPI3ZEZMZXPLZ7IWDDZ15LLLX","","null","<img src=""img/food6.png"" style=""width:200px; border:14px solid green;"">","null","","","","","","","","","",""
"","image-keyboard-response","286","112740","0.0-337.0","3K772S5NP9XLGH214UAIG9QWIMVHEX","A2FYFCD16Z3PCC","3VAOOVPI3ZEZMZXPLZ7IWDDZ15LLLX","","346","img/food5.png","76","346","3","1","1","2","1,0.7,0,1,0.7,0,0.7,0,1","0.7,0,1,0.7,0,1,0,1,0.7","2","false",""
"","html-keyboard-response","287","113042","0.0-338.0","3K772S5NP9XLGH214UAIG9QWIMVHEX","A2FYFCD16Z3PCC","3VAOOVPI3ZEZMZXPLZ7IWDDZ15LLLX","","null","<img src=""img/food5.png"" style=""width:200px; border:14px solid green;"">","null","","","","","","","","","",""
"","image-keyboard-response","288","113348","0.0-340.0","3K772S5NP9XLGH214UAIG9QWIMVHEX","A2FYFCD16Z3PCC","3VAOOVPI3ZEZMZXPLZ7IWDDZ15LLLX","","305","img/food4.png","76","306","3","1","3","2","1,0.7,0,1,0.7,0,0.7,0,1","0.7,0,1,0.7,0,1,0,1,0.7","2","false",""
"","html-keyboard-response","289","113649","0.0-341.0","3K772S5NP9XLGH214UAIG9QWIMVHEX","A2FYFCD16Z3PCC","3VAOOVPI3ZEZMZXPLZ7IWDDZ15LLLX","","null","<img src=""img/food4.png"" style=""width:200px; border:14px solid green;"">","null","","","","","","","","","",""
"","image-keyboard-response","290","113908","0.0-343.0","3K772S5NP9XLGH214UAIG9QWIMVHEX","A2FYFCD16Z3PCC","3VAOOVPI3ZEZMZXPLZ7IWDDZ15LLLX","","259","img/food4.png","75","259","2","1","3","2","1,0.7,0,1,0.7,0,0.7,0,1","0.7,0,1,0.7,0,1,0,1,0.7","2","false",""
"","html-keyboard-response","291","114210","0.0-344.0","3K772S5NP9XLGH214UAIG9QWIMVHEX","A2FYFCD16Z3PCC","3VAOOVPI3ZEZMZXPLZ7IWDDZ15LLLX","","null","<img src=""img/food4.png"" style=""width:200px; border:14px solid green;"">","null","","","","","","","","","",""
"","image-keyboard-response","292","114596","0.0-346.0","3K772S5NP9XLGH214UAIG9QWIMVHEX","A2FYFCD16Z3PCC","3VAOOVPI3ZEZMZXPLZ7IWDDZ15LLLX","","384","img/food6.png","76","384","3","1","2","2","1,0.7,0,1,0.7,0,0.7,0,1","0.7,0,1,0.7,0,1,0,1,0.7","2","false",""
"","html-keyboard-response","293","114897","0.0-347.0","3K772S5NP9XLGH214UAIG9QWIMVHEX","A2FYFCD16Z3PCC","3VAOOVPI3ZEZMZXPLZ7IWDDZ15LLLX","","null","<img src=""img/food6.png"" style=""width:200px; border:14px solid green;"">","null","","","","","","","","","",""
"","image-keyboard-response","294","115436","0.0-349.0","3K772S5NP9XLGH214UAIG9QWIMVHEX","A2FYFCD16Z3PCC","3VAOOVPI3ZEZMZXPLZ7IWDDZ15LLLX","","537","img/food4.png","75","537","2","1","3","2","1,0.7,0,1,0.7,0,0.7,0,1","0.7,0,1,0.7,0,1,0,1,0.7","2","false",""
"","html-keyboard-response","295","115738","0.0-350.0","3K772S5NP9XLGH214UAIG9QWIMVHEX","A2FYFCD16Z3PCC","3VAOOVPI3ZEZMZXPLZ7IWDDZ15LLLX","","null","<img src=""img/food4.png"" style=""width:200px; border:14px solid green;"">","null","","","","","","","","","",""
"","image-keyboard-response","296","116004","0.0-352.0","3K772S5NP9XLGH214UAIG9QWIMVHEX","A2FYFCD16Z3PCC","3VAOOVPI3ZEZMZXPLZ7IWDDZ15LLLX","","265","img/food5.png","76","266","3","1","1","2","1,0.7,0,1,0.7,0,0.7,0,1","0.7,0,1,0.7,0,1,0,1,0.7","2","false",""
"","html-keyboard-response","297","116305","0.0-353.0","3K772S5NP9XLGH214UAIG9QWIMVHEX","A2FYFCD16Z3PCC","3VAOOVPI3ZEZMZXPLZ7IWDDZ15LLLX","","null","<img src=""img/food5.png"" style=""width:200px; border:14px solid green;"">","null","","","","","","","","","",""
"","image-keyboard-response","298","116892","0.0-355.0","3K772S5NP9XLGH214UAIG9QWIMVHEX","A2FYFCD16Z3PCC","3VAOOVPI3ZEZMZXPLZ7IWDDZ15LLLX","","586","img/food6.png","76","586","3","1","2","2","1,0.7,0,1,0.7,0,0.7,0,1","0.7,0,1,0.7,0,1,0,1,0.7","2","false",""
"","html-keyboard-response","299","117193","0.0-356.0","3K772S5NP9XLGH214UAIG9QWIMVHEX","A2FYFCD16Z3PCC","3VAOOVPI3ZEZMZXPLZ7IWDDZ15LLLX","","null","<img src=""img/food6.png"" style=""width:200px; border:14px solid green;"">","null","","","","","","","","","",""
"","image-keyboard-response","300","117644","0.0-358.0","3K772S5NP9XLGH214UAIG9QWIMVHEX","A2FYFCD16Z3PCC","3VAOOVPI3ZEZMZXPLZ7IWDDZ15LLLX","","451","img/food4.png","75","451","2","1","3","2","1,0.7,0,1,0.7,0,0.7,0,1","0.7,0,1,0.7,0,1,0,1,0.7","2","false",""
"","html-keyboard-response","301","117945","0.0-359.0","3K772S5NP9XLGH214UAIG9QWIMVHEX","A2FYFCD16Z3PCC","3VAOOVPI3ZEZMZXPLZ7IWDDZ15LLLX","","null","<img src=""img/food4.png"" style=""width:200px; border:14px solid green;"">","null","","","","","","","","","",""
"","image-keyboard-response","302","118260","0.0-361.0","3K772S5NP9XLGH214UAIG9QWIMVHEX","A2FYFCD16Z3PCC","3VAOOVPI3ZEZMZXPLZ7IWDDZ15LLLX","","314","img/food5.png","76","315","3","1","1","2","1,0.7,0,1,0.7,0,0.7,0,1","0.7,0,1,0.7,0,1,0,1,0.7","2","false",""
"","html-keyboard-response","303","118562","0.0-362.0","3K772S5NP9XLGH214UAIG9QWIMVHEX","A2FYFCD16Z3PCC","3VAOOVPI3ZEZMZXPLZ7IWDDZ15LLLX","","null","<img src=""img/food5.png"" style=""width:200px; border:14px solid green;"">","null","","","","","","","","","",""
"","image-keyboard-response","304","118980","0.0-364.0","3K772S5NP9XLGH214UAIG9QWIMVHEX","A2FYFCD16Z3PCC","3VAOOVPI3ZEZMZXPLZ7IWDDZ15LLLX","","417","img/food6.png","76","418","3","1","2","2","1,0.7,0,1,0.7,0,0.7,0,1","0.7,0,1,0.7,0,1,0,1,0.7","2","false",""
"","html-keyboard-response","305","119282","0.0-365.0","3K772S5NP9XLGH214UAIG9QWIMVHEX","A2FYFCD16Z3PCC","3VAOOVPI3ZEZMZXPLZ7IWDDZ15LLLX","","null","<img src=""img/food6.png"" style=""width:200px; border:14px solid green;"">","null","","","","","","","","","",""
"","image-keyboard-response","306","119692","0.0-367.0","3K772S5NP9XLGH214UAIG9QWIMVHEX","A2FYFCD16Z3PCC","3VAOOVPI3ZEZMZXPLZ7IWDDZ15LLLX","","409","img/food4.png","75","411","2","1","3","2","1,0.7,0,1,0.7,0,0.7,0,1","0.7,0,1,0.7,0,1,0,1,0.7","2","false",""
"","html-keyboard-response","307","119994","0.0-368.0","3K772S5NP9XLGH214UAIG9QWIMVHEX","A2FYFCD16Z3PCC","3VAOOVPI3ZEZMZXPLZ7IWDDZ15LLLX","","null","<img src=""img/food4.png"" style=""width:200px; border:14px solid green;"">","null","","","","","","","","","",""
"","image-keyboard-response","308","120428","0.0-370.0","3K772S5NP9XLGH214UAIG9QWIMVHEX","A2FYFCD16Z3PCC","3VAOOVPI3ZEZMZXPLZ7IWDDZ15LLLX","","434","img/food6.png","76","434","3","1","2","2","1,0.7,0,1,0.7,0,0.7,0,1","0.7,0,1,0.7,0,1,0,1,0.7","2","false",""
"","html-keyboard-response","309","120729","0.0-371.0","3K772S5NP9XLGH214UAIG9QWIMVHEX","A2FYFCD16Z3PCC","3VAOOVPI3ZEZMZXPLZ7IWDDZ15LLLX","","null","<img src=""img/food6.png"" style=""width:200px; border:14px solid green;"">","null","","","","","","","","","",""
"","image-keyboard-response","310","121149","0.0-373.0","3K772S5NP9XLGH214UAIG9QWIMVHEX","A2FYFCD16Z3PCC","3VAOOVPI3ZEZMZXPLZ7IWDDZ15LLLX","","418","img/food6.png","76","419","3","1","2","2","1,0.7,0,1,0.7,0,0.7,0,1","0.7,0,1,0.7,0,1,0,1,0.7","2","false",""
"","html-keyboard-response","311","121450","0.0-374.0","3K772S5NP9XLGH214UAIG9QWIMVHEX","A2FYFCD16Z3PCC","3VAOOVPI3ZEZMZXPLZ7IWDDZ15LLLX","","null","<img src=""img/food6.png"" style=""width:200px; border:14px solid green;"">","null","","","","","","","","","",""
"","image-keyboard-response","312","121788","0.0-376.0","3K772S5NP9XLGH214UAIG9QWIMVHEX","A2FYFCD16Z3PCC","3VAOOVPI3ZEZMZXPLZ7IWDDZ15LLLX","","339","img/food5.png","75","339","2","0","1","2","1,0.7,0,1,0.7,0,0.7,0,1","0.7,0,1,0.7,0,1,0,1,0.7","2","false",""
"","html-keyboard-response","313","122090","0.0-377.0","3K772S5NP9XLGH214UAIG9QWIMVHEX","A2FYFCD16Z3PCC","3VAOOVPI3ZEZMZXPLZ7IWDDZ15LLLX","","null","<img src=""img/food5.png"" style=""width:200px;border:14px solid red;"">","null","","","","","","","","","",""
"","image-keyboard-response","314","122548","0.0-379.0","3K772S5NP9XLGH214UAIG9QWIMVHEX","A2FYFCD16Z3PCC","3VAOOVPI3ZEZMZXPLZ7IWDDZ15LLLX","","458","img/food6.png","75","459","2","0","2","2","1,0.7,0,1,0.7,0,0.7,0,1","0.7,0,1,0.7,0,1,0,1,0.7","2","false",""
"","html-keyboard-response","315","122850","0.0-380.0","3K772S5NP9XLGH214UAIG9QWIMVHEX","A2FYFCD16Z3PCC","3VAOOVPI3ZEZMZXPLZ7IWDDZ15LLLX","","null","<img src=""img/food6.png"" style=""width:200px;border:14px solid red;"">","null","","","","","","","","","",""
"","image-keyboard-response","316","123052","0.0-382.0","3K772S5NP9XLGH214UAIG9QWIMVHEX","A2FYFCD16Z3PCC","3VAOOVPI3ZEZMZXPLZ7IWDDZ15LLLX","","202","img/food5.png","76","202","3","1","1","2","1,0.7,0,1,0.7,0,0.7,0,1","0.7,0,1,0.7,0,1,0,1,0.7","2","false",""
"","html-keyboard-response","317","123354","0.0-383.0","3K772S5NP9XLGH214UAIG9QWIMVHEX","A2FYFCD16Z3PCC","3VAOOVPI3ZEZMZXPLZ7IWDDZ15LLLX","","null","<img src=""img/food5.png"" style=""width:200px; border:14px solid green;"">","null","","","","","","","","","",""
"","image-keyboard-response","318","123708","0.0-385.0","3K772S5NP9XLGH214UAIG9QWIMVHEX","A2FYFCD16Z3PCC","3VAOOVPI3ZEZMZXPLZ7IWDDZ15LLLX","","354","img/food6.png","76","354","3","1","2","2","1,0.7,0,1,0.7,0,0.7,0,1","0.7,0,1,0.7,0,1,0,1,0.7","2","false",""
"","html-keyboard-response","319","124011","0.0-386.0","3K772S5NP9XLGH214UAIG9QWIMVHEX","A2FYFCD16Z3PCC","3VAOOVPI3ZEZMZXPLZ7IWDDZ15LLLX","","null","<img src=""img/food6.png"" style=""width:200px; border:14px solid green;"">","null","","","","","","","","","",""
"","image-keyboard-response","320","124428","0.0-388.0","3K772S5NP9XLGH214UAIG9QWIMVHEX","A2FYFCD16Z3PCC","3VAOOVPI3ZEZMZXPLZ7IWDDZ15LLLX","","416","img/food5.png","76","417","3","1","1","2","1,0.7,0,1,0.7,0,0.7,0,1","0.7,0,1,0.7,0,1,0,1,0.7","2","false",""
"","html-keyboard-response","321","124729","0.0-389.0","3K772S5NP9XLGH214UAIG9QWIMVHEX","A2FYFCD16Z3PCC","3VAOOVPI3ZEZMZXPLZ7IWDDZ15LLLX","","null","<img src=""img/food5.png"" style=""width:200px; border:14px solid green;"">","null","","","","","","","","","",""
"","image-keyboard-response","322","125028","0.0-391.0","3K772S5NP9XLGH214UAIG9QWIMVHEX","A2FYFCD16Z3PCC","3VAOOVPI3ZEZMZXPLZ7IWDDZ15LLLX","","299","img/food5.png","76","299","3","1","1","2","1,0.7,0,1,0.7,0,0.7,0,1","0.7,0,1,0.7,0,1,0,1,0.7","2","false",""
"","html-keyboard-response","323","125330","0.0-392.0","3K772S5NP9XLGH214UAIG9QWIMVHEX","A2FYFCD16Z3PCC","3VAOOVPI3ZEZMZXPLZ7IWDDZ15LLLX","","null","<img src=""img/food5.png"" style=""width:200px; border:14px solid green;"">","null","","","","","","","","","",""
"","image-keyboard-response","324","125788","0.0-394.0","3K772S5NP9XLGH214UAIG9QWIMVHEX","A2FYFCD16Z3PCC","3VAOOVPI3ZEZMZXPLZ7IWDDZ15LLLX","","458","img/food4.png","75","458","2","1","3","2","1,0.7,0,1,0.7,0,0.7,0,1","0.7,0,1,0.7,0,1,0,1,0.7","2","false",""
"","html-keyboard-response","325","126089","0.0-395.0","3K772S5NP9XLGH214UAIG9QWIMVHEX","A2FYFCD16Z3PCC","3VAOOVPI3ZEZMZXPLZ7IWDDZ15LLLX","","null","<img src=""img/food4.png"" style=""width:200px; border:14px solid green;"">","null","","","","","","","","","",""
"","image-keyboard-response","326","126396","0.0-397.0","3K772S5NP9XLGH214UAIG9QWIMVHEX","A2FYFCD16Z3PCC","3VAOOVPI3ZEZMZXPLZ7IWDDZ15LLLX","","307","img/food4.png","75","307","2","1","3","2","1,0.7,0,1,0.7,0,0.7,0,1","0.7,0,1,0.7,0,1,0,1,0.7","2","false",""
"","html-keyboard-response","327","126697","0.0-398.0","3K772S5NP9XLGH214UAIG9QWIMVHEX","A2FYFCD16Z3PCC","3VAOOVPI3ZEZMZXPLZ7IWDDZ15LLLX","","null","<img src=""img/food4.png"" style=""width:200px; border:14px solid green;"">","null","","","","","","","","","",""
"","image-keyboard-response","328","127060","0.0-400.0","3K772S5NP9XLGH214UAIG9QWIMVHEX","A2FYFCD16Z3PCC","3VAOOVPI3ZEZMZXPLZ7IWDDZ15LLLX","","361","img/food5.png","76","361","3","1","1","2","1,0.7,0,1,0.7,0,0.7,0,1","0.7,0,1,0.7,0,1,0,1,0.7","2","false",""
"","html-keyboard-response","329","127362","0.0-401.0","3K772S5NP9XLGH214UAIG9QWIMVHEX","A2FYFCD16Z3PCC","3VAOOVPI3ZEZMZXPLZ7IWDDZ15LLLX","","null","<img src=""img/food5.png"" style=""width:200px; border:14px solid green;"">","null","","","","","","","","","",""
"","image-keyboard-response","330","127676","0.0-403.0","3K772S5NP9XLGH214UAIG9QWIMVHEX","A2FYFCD16Z3PCC","3VAOOVPI3ZEZMZXPLZ7IWDDZ15LLLX","","313","img/food5.png","76","314","3","1","1","2","1,0.7,0,1,0.7,0,0.7,0,1","0.7,0,1,0.7,0,1,0,1,0.7","2","false",""
"","html-keyboard-response","331","127979","0.0-404.0","3K772S5NP9XLGH214UAIG9QWIMVHEX","A2FYFCD16Z3PCC","3VAOOVPI3ZEZMZXPLZ7IWDDZ15LLLX","","null","<img src=""img/food5.png"" style=""width:200px; border:14px solid green;"">","null","","","","","","","","","",""
"","image-keyboard-response","332","128276","0.0-406.0","3K772S5NP9XLGH214UAIG9QWIMVHEX","A2FYFCD16Z3PCC","3VAOOVPI3ZEZMZXPLZ7IWDDZ15LLLX","","296","img/food5.png","76","298","3","1","1","2","1,0.7,0,1,0.7,0,0.7,0,1","0.7,0,1,0.7,0,1,0,1,0.7","2","false",""
"","html-keyboard-response","333","128578","0.0-407.0","3K772S5NP9XLGH214UAIG9QWIMVHEX","A2FYFCD16Z3PCC","3VAOOVPI3ZEZMZXPLZ7IWDDZ15LLLX","","null","<img src=""img/food5.png"" style=""width:200px; border:14px solid green;"">","null","","","","","","","","","",""
"","image-keyboard-response","334","128996","0.0-409.0","3K772S5NP9XLGH214UAIG9QWIMVHEX","A2FYFCD16Z3PCC","3VAOOVPI3ZEZMZXPLZ7IWDDZ15LLLX","","418","img/food4.png","75","418","2","1","3","2","1,0.7,0,1,0.7,0,0.7,0,1","0.7,0,1,0.7,0,1,0,1,0.7","2","false",""
"","html-keyboard-response","335","129298","0.0-410.0","3K772S5NP9XLGH214UAIG9QWIMVHEX","A2FYFCD16Z3PCC","3VAOOVPI3ZEZMZXPLZ7IWDDZ15LLLX","","null","<img src=""img/food4.png"" style=""width:200px; border:14px solid green;"">","null","","","","","","","","","",""
"","image-keyboard-response","336","129644","0.0-412.0","3K772S5NP9XLGH214UAIG9QWIMVHEX","A2FYFCD16Z3PCC","3VAOOVPI3ZEZMZXPLZ7IWDDZ15LLLX","","346","img/food6.png","76","346","3","1","2","2","1,0.7,0,1,0.7,0,0.7,0,1","0.7,0,1,0.7,0,1,0,1,0.7","2","false",""
"","html-keyboard-response","337","129946","0.0-413.0","3K772S5NP9XLGH214UAIG9QWIMVHEX","A2FYFCD16Z3PCC","3VAOOVPI3ZEZMZXPLZ7IWDDZ15LLLX","","null","<img src=""img/food6.png"" style=""width:200px; border:14px solid green;"">","null","","","","","","","","","",""
"","image-keyboard-response","338","130252","0.0-415.0","3K772S5NP9XLGH214UAIG9QWIMVHEX","A2FYFCD16Z3PCC","3VAOOVPI3ZEZMZXPLZ7IWDDZ15LLLX","","306","img/food5.png","76","306","3","1","1","2","1,0.7,0,1,0.7,0,0.7,0,1","0.7,0,1,0.7,0,1,0,1,0.7","2","false",""
"","html-keyboard-response","339","130554","0.0-416.0","3K772S5NP9XLGH214UAIG9QWIMVHEX","A2FYFCD16Z3PCC","3VAOOVPI3ZEZMZXPLZ7IWDDZ15LLLX","","null","<img src=""img/food5.png"" style=""width:200px; border:14px solid green;"">","null","","","","","","","","","",""
"","image-keyboard-response","340","130980","0.0-418.0","3K772S5NP9XLGH214UAIG9QWIMVHEX","A2FYFCD16Z3PCC","3VAOOVPI3ZEZMZXPLZ7IWDDZ15LLLX","","427","img/food6.png","76","427","3","1","2","2","1,0.7,0,1,0.7,0,0.7,0,1","0.7,0,1,0.7,0,1,0,1,0.7","2","false",""
"","html-keyboard-response","341","131283","0.0-419.0","3K772S5NP9XLGH214UAIG9QWIMVHEX","A2FYFCD16Z3PCC","3VAOOVPI3ZEZMZXPLZ7IWDDZ15LLLX","","null","<img src=""img/food6.png"" style=""width:200px; border:14px solid green;"">","null","","","","","","","","","",""
"","image-keyboard-response","342","131644","0.0-421.0","3K772S5NP9XLGH214UAIG9QWIMVHEX","A2FYFCD16Z3PCC","3VAOOVPI3ZEZMZXPLZ7IWDDZ15LLLX","","361","img/food5.png","76","361","3","1","1","2","1,0.7,0,1,0.7,0,0.7,0,1","0.7,0,1,0.7,0,1,0,1,0.7","2","false",""
"","html-keyboard-response","343","131946","0.0-422.0","3K772S5NP9XLGH214UAIG9QWIMVHEX","A2FYFCD16Z3PCC","3VAOOVPI3ZEZMZXPLZ7IWDDZ15LLLX","","null","<img src=""img/food5.png"" style=""width:200px; border:14px solid green;"">","null","","","","","","","","","",""
"","image-keyboard-response","344","132396","0.0-424.0","3K772S5NP9XLGH214UAIG9QWIMVHEX","A2FYFCD16Z3PCC","3VAOOVPI3ZEZMZXPLZ7IWDDZ15LLLX","","450","img/food4.png","75","450","2","1","3","2","1,0.7,0,1,0.7,0,0.7,0,1","0.7,0,1,0.7,0,1,0,1,0.7","2","false",""
"","html-keyboard-response","345","132699","0.0-425.0","3K772S5NP9XLGH214UAIG9QWIMVHEX","A2FYFCD16Z3PCC","3VAOOVPI3ZEZMZXPLZ7IWDDZ15LLLX","","null","<img src=""img/food4.png"" style=""width:200px; border:14px solid green;"">","null","","","","","","","","","",""
"","image-keyboard-response","346","133140","0.0-427.0","3K772S5NP9XLGH214UAIG9QWIMVHEX","A2FYFCD16Z3PCC","3VAOOVPI3ZEZMZXPLZ7IWDDZ15LLLX","","441","img/food5.png","76","441","3","1","1","2","1,0.7,0,1,0.7,0,0.7,0,1","0.7,0,1,0.7,0,1,0,1,0.7","2","false",""
"","html-keyboard-response","347","133442","0.0-428.0","3K772S5NP9XLGH214UAIG9QWIMVHEX","A2FYFCD16Z3PCC","3VAOOVPI3ZEZMZXPLZ7IWDDZ15LLLX","","null","<img src=""img/food5.png"" style=""width:200px; border:14px solid green;"">","null","","","","","","","","","",""
"","image-keyboard-response","348","133812","0.0-430.0","3K772S5NP9XLGH214UAIG9QWIMVHEX","A2FYFCD16Z3PCC","3VAOOVPI3ZEZMZXPLZ7IWDDZ15LLLX","","369","img/food6.png","76","370","3","1","2","2","1,0.7,0,1,0.7,0,0.7,0,1","0.7,0,1,0.7,0,1,0,1,0.7","2","false",""
"","html-keyboard-response","349","134114","0.0-431.0","3K772S5NP9XLGH214UAIG9QWIMVHEX","A2FYFCD16Z3PCC","3VAOOVPI3ZEZMZXPLZ7IWDDZ15LLLX","","null","<img src=""img/food6.png"" style=""width:200px; border:14px solid green;"">","null","","","","","","","","","",""
"","image-keyboard-response","350","134404","0.0-433.0","3K772S5NP9XLGH214UAIG9QWIMVHEX","A2FYFCD16Z3PCC","3VAOOVPI3ZEZMZXPLZ7IWDDZ15LLLX","","289","img/food4.png","76","290","3","1","3","2","1,0.7,0,1,0.7,0,0.7,0,1","0.7,0,1,0.7,0,1,0,1,0.7","2","false",""
"","html-keyboard-response","351","134707","0.0-434.0","3K772S5NP9XLGH214UAIG9QWIMVHEX","A2FYFCD16Z3PCC","3VAOOVPI3ZEZMZXPLZ7IWDDZ15LLLX","","null","<img src=""img/food4.png"" style=""width:200px; border:14px solid green;"">","null","","","","","","","","","",""
"","image-keyboard-response","352","135012","0.0-436.0","3K772S5NP9XLGH214UAIG9QWIMVHEX","A2FYFCD16Z3PCC","3VAOOVPI3ZEZMZXPLZ7IWDDZ15LLLX","","305","img/food4.png","75","305","2","1","3","2","1,0.7,0,1,0.7,0,0.7,0,1","0.7,0,1,0.7,0,1,0,1,0.7","2","false",""
"","html-keyboard-response","353","135314","0.0-437.0","3K772S5NP9XLGH214UAIG9QWIMVHEX","A2FYFCD16Z3PCC","3VAOOVPI3ZEZMZXPLZ7IWDDZ15LLLX","","null","<img src=""img/food4.png"" style=""width:200px; border:14px solid green;"">","null","","","","","","","","","",""
"","image-keyboard-response","354","135652","0.0-439.0","3K772S5NP9XLGH214UAIG9QWIMVHEX","A2FYFCD16Z3PCC","3VAOOVPI3ZEZMZXPLZ7IWDDZ15LLLX","","337","img/food5.png","76","338","3","1","1","2","1,0.7,0,1,0.7,0,0.7,0,1","0.7,0,1,0.7,0,1,0,1,0.7","2","false",""
"","html-keyboard-response","355","135954","0.0-440.0","3K772S5NP9XLGH214UAIG9QWIMVHEX","A2FYFCD16Z3PCC","3VAOOVPI3ZEZMZXPLZ7IWDDZ15LLLX","","null","<img src=""img/food5.png"" style=""width:200px; border:14px solid green;"">","null","","","","","","","","","",""
"","image-keyboard-response","356","136252","0.0-442.0","3K772S5NP9XLGH214UAIG9QWIMVHEX","A2FYFCD16Z3PCC","3VAOOVPI3ZEZMZXPLZ7IWDDZ15LLLX","","298","img/food4.png","76","298","3","1","3","2","1,0.7,0,1,0.7,0,0.7,0,1","0.7,0,1,0.7,0,1,0,1,0.7","2","false",""
"","html-keyboard-response","357","136554","0.0-443.0","3K772S5NP9XLGH214UAIG9QWIMVHEX","A2FYFCD16Z3PCC","3VAOOVPI3ZEZMZXPLZ7IWDDZ15LLLX","","null","<img src=""img/food4.png"" style=""width:200px; border:14px solid green;"">","null","","","","","","","","","",""
"","image-keyboard-response","358","136772","0.0-445.0","3K772S5NP9XLGH214UAIG9QWIMVHEX","A2FYFCD16Z3PCC","3VAOOVPI3ZEZMZXPLZ7IWDDZ15LLLX","","217","img/food6.png","75","217","2","0","2","2","1,0.7,0,1,0.7,0,0.7,0,1","0.7,0,1,0.7,0,1,0,1,0.7","2","false",""
"","html-keyboard-response","359","137074","0.0-446.0","3K772S5NP9XLGH214UAIG9QWIMVHEX","A2FYFCD16Z3PCC","3VAOOVPI3ZEZMZXPLZ7IWDDZ15LLLX","","null","<img src=""img/food6.png"" style=""width:200px;border:14px solid red;"">","null","","","","","","","","","",""
"","image-keyboard-response","360","137708","0.0-448.0","3K772S5NP9XLGH214UAIG9QWIMVHEX","A2FYFCD16Z3PCC","3VAOOVPI3ZEZMZXPLZ7IWDDZ15LLLX","","633","img/food4.png","75","635","2","1","3","2","1,0.7,0,1,0.7,0,0.7,0,1","0.7,0,1,0.7,0,1,0,1,0.7","2","false",""
"","html-keyboard-response","361","138010","0.0-449.0","3K772S5NP9XLGH214UAIG9QWIMVHEX","A2FYFCD16Z3PCC","3VAOOVPI3ZEZMZXPLZ7IWDDZ15LLLX","","null","<img src=""img/food4.png"" style=""width:200px; border:14px solid green;"">","null","","","","","","","","","",""
"","image-keyboard-response","362","138324","0.0-451.0","3K772S5NP9XLGH214UAIG9QWIMVHEX","A2FYFCD16Z3PCC","3VAOOVPI3ZEZMZXPLZ7IWDDZ15LLLX","","314","img/food5.png","76","315","3","1","1","2","1,0.7,0,1,0.7,0,0.7,0,1","0.7,0,1,0.7,0,1,0,1,0.7","2","false",""
"","html-keyboard-response","363","138627","0.0-452.0","3K772S5NP9XLGH214UAIG9QWIMVHEX","A2FYFCD16Z3PCC","3VAOOVPI3ZEZMZXPLZ7IWDDZ15LLLX","","null","<img src=""img/food5.png"" style=""width:200px; border:14px solid green;"">","null","","","","","","","","","",""
"","instructions","364","140868","0.0-454.0","3K772S5NP9XLGH214UAIG9QWIMVHEX","A2FYFCD16Z3PCC","3VAOOVPI3ZEZMZXPLZ7IWDDZ15LLLX","[{""page_index"":0,""viewing_time"":2240}]","2241","","","","","","","","","","","",""
"","survey-text","365","146430","0.0-455.0","3K772S5NP9XLGH214UAIG9QWIMVHEX","A2FYFCD16Z3PCC","3VAOOVPI3ZEZMZXPLZ7IWDDZ15LLLX","","5560","","","","","","","","","","","","{""Q0"":""A2FYFCD16Z3PCC""}"
