"success","trial_type","trial_index","time_elapsed","internal_node_id","assignmentID","mturkID","hitID","view_history","rt","stimulus","key_press","reactionTime","a","r","warning","s","cond","reward_cond","reward_cond_actual","reward_matrix_idx","responses"
"true","fullscreen","0","4409","0.0-0.0","","","","","","","","","","","","","","","","",""
"","instructions","1","14154","0.0-1.0","","","","[{""page_index"":0,""viewing_time"":1300.699999988079},{""page_index"":1,""viewing_time"":2355.800000011921},{""page_index"":2,""viewing_time"":916.5},{""page_index"":3,""viewing_time"":2149.0999999940395},{""page_index"":4,""viewing_time"":1557},{""page_index"":5,""viewing_time"":763.0999999940395},{""page_index"":6,""viewing_time"":699.4000000059605}]","9742","","","","","","","","","","","",""
"","instructions","2","21248","0.0-2.0","","","","[{""page_index"":0,""viewing_time"":6191.399999976158},{""page_index"":1,""viewing_time"":901.7000000178814}]","7093.399999976158","","","","","","","","","","","",""
"","image-keyboard-response","3","21751","0.0-3.0","","","","","501.09999999403954","img/food6.png","74","502.59999999403954","1","0","false","2","2","1,0.7,0,1,0.7,0,0.7,0,1","0,1,0.7,0,1,0.7,1,0.7,0","3",""
"","html-keyboard-response","4","22068","0.0-4.0","","","","","null","<img src=""img/food6.png"" style=""width:200px;border:14px solid red;"">","null","","","","","","","","","",""
"","image-keyboard-response","5","22757","0.0-6.0","","","","","686.8000000119209","img/food4.png","75","688","2","1","false","3","2","1,0.7,0,1,0.7,0,0.7,0,1","0,1,0.7,0,1,0.7,1,0.7,0","3",""
"","html-keyboard-response","6","23067","0.0-7.0","","","","","null","<img src=""img/food4.png"" style=""width:200px; border:14px solid green;"">","null","","","","","","","","","",""
"","image-keyboard-response","7","23666","0.0-9.0","","","","","598","img/food5.png","74","598.8000000119209","1","0","false","1","2","1,0.7,0,1,0.7,0,0.7,0,1","0,1,0.7,0,1,0.7,1,0.7,0","3",""
"","html-keyboard-response","8","23970","0.0-10.0","","","","","null","<img src=""img/food5.png"" style=""width:200px;border:14px solid red;"">","null","","","","","","","","","",""
"","image-keyboard-response","9","24310","0.0-12.0","","","","","339.59999999403954","img/food5.png","76","340.5","3","1","false","1","2","1,0.7,0,1,0.7,0,0.7,0,1","0,1,0.7,0,1,0.7,1,0.7,0","3",""
"","html-keyboard-response","10","24625","0.0-13.0","","","","","null","<img src=""img/food5.png"" style=""width:200px; border:14px solid green;"">","null","","","","","","","","","",""
"","image-keyboard-response","11","25262","0.0-15.0","","","","","635.5","img/food6.png","74","636.9000000059605","1","0","false","2","2","1,0.7,0,1,0.7,0,0.7,0,1","0,1,0.7,0,1,0.7,1,0.7,0","3",""
"","html-keyboard-response","12","25576","0.0-16.0","","","","","null","<img src=""img/food6.png"" style=""width:200px;border:14px solid red;"">","null","","","","","","","","","",""
"","image-keyboard-response","13","25701","0.0-18.0","","","","","124.09999999403954","img/food5.png","75","125.40000000596046","2","1","false","1","2","1,0.7,0,1,0.7,0,0.7,0,1","0,1,0.7,0,1,0.7,1,0.7,0","3",""
"","html-keyboard-response","14","26012","0.0-19.0","","","","","null","<img src=""img/food5.png"" style=""width:200px; border:14px solid green;"">","null","","","","","","","","","",""
"","image-keyboard-response","15","26701","0.0-21.0","","","","","688.4000000059605","img/food6.png","74","689.4000000059605","1","0","false","2","2","1,0.7,0,1,0.7,0,0.7,0,1","0,1,0.7,0,1,0.7,1,0.7,0","3",""
"","html-keyboard-response","16","27009","0.0-22.0","","","","","null","<img src=""img/food6.png"" style=""width:200px;border:14px solid red;"">","null","","","","","","","","","",""
"","image-keyboard-response","17","27106","0.0-24.0","","","","","96","img/food4.png","76","97.09999999403954","3","0","false","3","2","1,0.7,0,1,0.7,0,0.7,0,1","0,1,0.7,0,1,0.7,1,0.7,0","3",""
"","html-keyboard-response","18","27415","0.0-25.0","","","","","null","<img src=""img/food4.png"" style=""width:200px;border:14px solid red;"">","null","","","","","","","","","",""
"","image-keyboard-response","19","27920","0.0-27.0","","","","","503.69999998807907","img/food4.png","75","504.80000001192093","2","0","false","3","2","1,0.7,0,1,0.7,0,0.7,0,1","0,1,0.7,0,1,0.7,1,0.7,0","3",""
"","html-keyboard-response","20","28223","0.0-28.0","","","","","null","<img src=""img/food4.png"" style=""width:200px;border:14px solid red;"">","null","","","","","","","","","",""
"","image-keyboard-response","21","28972","0.0-30.0","","","","","747.1999999880791","img/food5.png","74","748.5","1","0","false","1","2","1,0.7,0,1,0.7,0,0.7,0,1","0,1,0.7,0,1,0.7,1,0.7,0","3",""
"","html-keyboard-response","22","29274","0.0-31.0","","","","","null","<img src=""img/food5.png"" style=""width:200px;border:14px solid red;"">","null","","","","","","","","","",""
"","image-keyboard-response","23","30084","0.0-33.0","","","","","807.5","img/food4.png","76","809.0999999940395","3","0","false","3","2","1,0.7,0,1,0.7,0,0.7,0,1","0,1,0.7,0,1,0.7,1,0.7,0","3",""
"","html-keyboard-response","24","30386","0.0-34.0","","","","","null","<img src=""img/food4.png"" style=""width:200px;border:14px solid red;"">","null","","","","","","","","","",""
"","image-keyboard-response","25","30554","0.0-36.0","","","","","167.19999998807907","img/food4.png","75","167.90000000596046","2","1","false","3","2","1,0.7,0,1,0.7,0,0.7,0,1","0,1,0.7,0,1,0.7,1,0.7,0","3",""
"","html-keyboard-response","26","30856","0.0-37.0","","","","","null","<img src=""img/food4.png"" style=""width:200px; border:14px solid green;"">","null","","","","","","","","","",""
"","image-keyboard-response","27","31858","0.0-39.0","","","","","","img/food6.png","","1001.9000000059605","-1","0","true","2","2","1,0.7,0,1,0.7,0,0.7,0,1","0,1,0.7,0,1,0.7,1,0.7,0","3",""
"","html-keyboard-response","28","32161","0.0-40.0","","","","","null","<img src=""img/food6.png"" style=""width:200px;border:14px solid red;"">","null","","","","","","","","","",""
"","html-keyboard-response","29","34791","0.0-41.0-0.0","","","","","","","","","","","","","","","","",""
"","image-keyboard-response","30","35671","0.0-42.0","","","","","878.5","img/food5.png","74","879.5999999940395","1","0","false","1","2","1,0.7,0,1,0.7,0,0.7,0,1","0,1,0.7,0,1,0.7,1,0.7,0","3",""
"","html-keyboard-response","31","35972","0.0-43.0","","","","","null","<img src=""img/food5.png"" style=""width:200px;border:14px solid red;"">","null","","","","","","","","","",""
"","image-keyboard-response","32","36257","0.0-45.0","","","","","283.59999999403954","img/food5.png","74","284.39999997615814","1","0","false","1","2","1,0.7,0,1,0.7,0,0.7,0,1","0,1,0.7,0,1,0.7,1,0.7,0","3",""
"","html-keyboard-response","33","36559","0.0-46.0","","","","","null","<img src=""img/food5.png"" style=""width:200px;border:14px solid red;"">","null","","","","","","","","","",""
"","image-keyboard-response","34","36641","0.0-48.0","","","","","80.2000000178814","img/food5.png","75","81.5","2","1","false","1","2","1,0.7,0,1,0.7,0,0.7,0,1","0,1,0.7,0,1,0.7,1,0.7,0","3",""
"","html-keyboard-response","35","36943","0.0-49.0","","","","","null","<img src=""img/food5.png"" style=""width:200px; border:14px solid green;"">","null","","","","","","","","","",""
"","image-keyboard-response","36","37382","0.0-51.0","","","","","436.90000000596046","img/food5.png","75","437.59999999403954","2","1","false","1","2","1,0.7,0,1,0.7,0,0.7,0,1","0,1,0.7,0,1,0.7,1,0.7,0","3",""
"","html-keyboard-response","37","37684","0.0-52.0","","","","","null","<img src=""img/food5.png"" style=""width:200px; border:14px solid green;"">","null","","","","","","","","","",""
"","image-keyboard-response","38","38292","0.0-54.0","","","","","607.3000000119209","img/food6.png","74","608.1999999880791","1","0","false","2","2","1,0.7,0,1,0.7,0,0.7,0,1","0,1,0.7,0,1,0.7,1,0.7,0","3",""
"","html-keyboard-response","39","38605","0.0-55.0","","","","","null","<img src=""img/food6.png"" style=""width:200px;border:14px solid red;"">","null","","","","","","","","","",""
"","image-keyboard-response","40","39227","0.0-57.0","","","","","620.3999999761581","img/food4.png","74","621.2999999821186","1","1","false","3","2","1,0.7,0,1,0.7,0,0.7,0,1","0,1,0.7,0,1,0.7,1,0.7,0","3",""
"","html-keyboard-response","41","39529","0.0-58.0","","","","","null","<img src=""img/food4.png"" style=""width:200px; border:14px solid green;"">","null","","","","","","","","","",""
"","image-keyboard-response","42","40127","0.0-60.0","","","","","596.5999999940395","img/food5.png","75","598.2999999821186","2","1","false","1","2","1,0.7,0,1,0.7,0,0.7,0,1","0,1,0.7,0,1,0.7,1,0.7,0","3",""
"","html-keyboard-response","43","40429","0.0-61.0","","","","","null","<img src=""img/food5.png"" style=""width:200px; border:14px solid green;"">","null","","","","","","","","","",""
"","image-keyboard-response","44","40788","0.0-63.0","","","","","357.80000001192093","img/food6.png","76","358.39999997615814","3","0","false","2","2","1,0.7,0,1,0.7,0,0.7,0,1","0,1,0.7,0,1,0.7,1,0.7,0","3",""
"","html-keyboard-response","45","41101","0.0-64.0","","","","","null","<img src=""img/food6.png"" style=""width:200px;border:14px solid red;"">","null","","","","","","","","","",""
"","image-keyboard-response","46","41487","0.0-66.0","","","","","384.2000000178814","img/food6.png","74","385.2999999821186","1","0","false","2","2","1,0.7,0,1,0.7,0,0.7,0,1","0,1,0.7,0,1,0.7,1,0.7,0","3",""
"","html-keyboard-response","47","41788","0.0-67.0","","","","","null","<img src=""img/food6.png"" style=""width:200px;border:14px solid red;"">","null","","","","","","","","","",""
"","image-keyboard-response","48","42228","0.0-69.0","","","","","438.7000000178814","img/food4.png","74","439.7999999821186","1","1","false","3","2","1,0.7,0,1,0.7,0,0.7,0,1","0,1,0.7,0,1,0.7,1,0.7,0","3",""
"","html-keyboard-response","49","42530","0.0-70.0","","","","","null","<img src=""img/food4.png"" style=""width:200px; border:14px solid green;"">","null","","","","","","","","","",""
"","image-keyboard-response","50","42858","0.0-72.0","","","","","325.69999998807907","img/food5.png","75","327","2","1","false","1","2","1,0.7,0,1,0.7,0,0.7,0,1","0,1,0.7,0,1,0.7,1,0.7,0","3",""
"","html-keyboard-response","51","43160","0.0-73.0","","","","","null","<img src=""img/food5.png"" style=""width:200px; border:14px solid green;"">","null","","","","","","","","","",""
"","image-keyboard-response","52","43883","0.0-75.0","","","","","721.9000000059605","img/food4.png","75","722.6000000238419","2","1","false","3","2","1,0.7,0,1,0.7,0,0.7,0,1","0,1,0.7,0,1,0.7,1,0.7,0","3",""
"","html-keyboard-response","53","44184","0.0-76.0","","","","","null","<img src=""img/food4.png"" style=""width:200px; border:14px solid green;"">","null","","","","","","","","","",""
"","image-keyboard-response","54","45012","0.0-78.0","","","","","825.8000000119209","img/food6.png","76","826.8999999761581","3","0","false","2","2","1,0.7,0,1,0.7,0,0.7,0,1","0,1,0.7,0,1,0.7,1,0.7,0","3",""
"","html-keyboard-response","55","45314","0.0-79.0","","","","","null","<img src=""img/food6.png"" style=""width:200px;border:14px solid red;"">","null","","","","","","","","","",""
"","image-keyboard-response","56","45649","0.0-81.0","","","","","333.30000001192093","img/food6.png","75","334.19999998807907","2","1","false","2","2","1,0.7,0,1,0.7,0,0.7,0,1","0,1,0.7,0,1,0.7,1,0.7,0","3",""
"","html-keyboard-response","57","45951","0.0-82.0","","","","","null","<img src=""img/food6.png"" style=""width:200px; border:14px solid green;"">","null","","","","","","","","","",""
"","image-keyboard-response","58","46442","0.0-84.0","","","","","489.90000000596046","img/food4.png","74","490.89999997615814","1","1","false","3","2","1,0.7,0,1,0.7,0,0.7,0,1","0,1,0.7,0,1,0.7,1,0.7,0","3",""
"","html-keyboard-response","59","46744","0.0-85.0","","","","","null","<img src=""img/food4.png"" style=""width:200px; border:14px solid green;"">","null","","","","","","","","","",""
"","image-keyboard-response","60","47034","0.0-87.0","","","","","289.30000001192093","img/food4.png","74","290.30000001192093","1","1","false","3","2","1,0.7,0,1,0.7,0,0.7,0,1","0,1,0.7,0,1,0.7,1,0.7,0","3",""
"","html-keyboard-response","61","47349","0.0-88.0","","","","","null","<img src=""img/food4.png"" style=""width:200px; border:14px solid green;"">","null","","","","","","","","","",""
"","image-keyboard-response","62","47634","0.0-90.0","","","","","283.90000000596046","img/food4.png","74","285.19999998807907","1","1","false","3","2","1,0.7,0,1,0.7,0,0.7,0,1","0,1,0.7,0,1,0.7,1,0.7,0","3",""
"","html-keyboard-response","63","47937","0.0-91.0","","","","","null","<img src=""img/food4.png"" style=""width:200px; border:14px solid green;"">","null","","","","","","","","","",""
"","image-keyboard-response","64","48274","0.0-93.0","","","","","335.7000000178814","img/food5.png","75","336.7000000178814","2","1","false","1","2","1,0.7,0,1,0.7,0,0.7,0,1","0,1,0.7,0,1,0.7,1,0.7,0","3",""
"","html-keyboard-response","65","48576","0.0-94.0","","","","","null","<img src=""img/food5.png"" style=""width:200px; border:14px solid green;"">","null","","","","","","","","","",""
"","image-keyboard-response","66","48810","0.0-96.0","","","","","232.7000000178814","img/food5.png","75","233.69999998807907","2","1","false","1","2","1,0.7,0,1,0.7,0,0.7,0,1","0,1,0.7,0,1,0.7,1,0.7,0","3",""
"","html-keyboard-response","67","49112","0.0-97.0","","","","","null","<img src=""img/food5.png"" style=""width:200px; border:14px solid green;"">","null","","","","","","","","","",""
"","image-keyboard-response","68","49389","0.0-99.0","","","","","275.30000001192093","img/food5.png","75","276.59999999403954","2","1","false","1","2","1,0.7,0,1,0.7,0,0.7,0,1","0,1,0.7,0,1,0.7,1,0.7,0","3",""
"","html-keyboard-response","69","49691","0.0-100.0","","","","","null","<img src=""img/food5.png"" style=""width:200px; border:14px solid green;"">","null","","","","","","","","","",""
"","image-keyboard-response","70","50078","0.0-102.0","","","","","385.80000001192093","img/food6.png","75","386.90000000596046","2","1","false","2","2","1,0.7,0,1,0.7,0,0.7,0,1","0,1,0.7,0,1,0.7,1,0.7,0","3",""
"","html-keyboard-response","71","50380","0.0-103.0","","","","","null","<img src=""img/food6.png"" style=""width:200px; border:14px solid green;"">","null","","","","","","","","","",""
"","image-keyboard-response","72","50604","0.0-105.0","","","","","223.39999997615814","img/food4.png","75","224.2999999821186","2","1","false","3","2","1,0.7,0,1,0.7,0,0.7,0,1","0,1,0.7,0,1,0.7,1,0.7,0","3",""
"","html-keyboard-response","73","50906","0.0-106.0","","","","","null","<img src=""img/food4.png"" style=""width:200px; border:14px solid green;"">","null","","","","","","","","","",""
"","image-keyboard-response","74","51243","0.0-108.0","","","","","335.40000000596046","img/food4.png","74","336.80000001192093","1","1","false","3","2","1,0.7,0,1,0.7,0,0.7,0,1","0,1,0.7,0,1,0.7,1,0.7,0","3",""
"","html-keyboard-response","75","51544","0.0-109.0","","","","","null","<img src=""img/food4.png"" style=""width:200px; border:14px solid green;"">","null","","","","","","","","","",""
"","image-keyboard-response","76","51760","0.0-111.0","","","","","215.19999998807907","img/food4.png","74","216","1","1","false","3","2","1,0.7,0,1,0.7,0,0.7,0,1","0,1,0.7,0,1,0.7,1,0.7,0","3",""
"","html-keyboard-response","77","52063","0.0-112.0","","","","","null","<img src=""img/food4.png"" style=""width:200px; border:14px solid green;"">","null","","","","","","","","","",""
"","image-keyboard-response","78","52781","0.0-114.0","","","","","716","img/food5.png","74","717.3000000119209","1","0","false","1","2","1,0.7,0,1,0.7,0,0.7,0,1","0,1,0.7,0,1,0.7,1,0.7,0","3",""
"","html-keyboard-response","79","53083","0.0-115.0","","","","","null","<img src=""img/food5.png"" style=""width:200px;border:14px solid red;"">","null","","","","","","","","","",""
"","image-keyboard-response","80","53668","0.0-117.0","","","","","583.8999999761581","img/food6.png","75","584.5999999940395","2","1","false","2","2","1,0.7,0,1,0.7,0,0.7,0,1","0,1,0.7,0,1,0.7,1,0.7,0","3",""
"","html-keyboard-response","81","53970","0.0-118.0","","","","","null","<img src=""img/food6.png"" style=""width:200px; border:14px solid green;"">","null","","","","","","","","","",""
"","image-keyboard-response","82","54122","0.0-120.0","","","","","151.09999999403954","img/food6.png","75","152","2","1","false","2","2","1,0.7,0,1,0.7,0,0.7,0,1","0,1,0.7,0,1,0.7,1,0.7,0","3",""
"","html-keyboard-response","83","54425","0.0-121.0","","","","","null","<img src=""img/food6.png"" style=""width:200px; border:14px solid green;"">","null","","","","","","","","","",""
"","image-keyboard-response","84","54848","0.0-123.0","","","","","421.59999999403954","img/food4.png","74","422.90000000596046","1","1","false","3","2","1,0.7,0,1,0.7,0,0.7,0,1","0,1,0.7,0,1,0.7,1,0.7,0","3",""
"","html-keyboard-response","85","55150","0.0-124.0","","","","","null","<img src=""img/food4.png"" style=""width:200px; border:14px solid green;"">","null","","","","","","","","","",""
"","image-keyboard-response","86","55512","0.0-126.0","","","","","360.09999999403954","img/food5.png","75","361.59999999403954","2","1","false","1","2","1,0.7,0,1,0.7,0,0.7,0,1","0,1,0.7,0,1,0.7,1,0.7,0","3",""
"","html-keyboard-response","87","55814","0.0-127.0","","","","","null","<img src=""img/food5.png"" style=""width:200px; border:14px solid green;"">","null","","","","","","","","","",""
"","image-keyboard-response","88","55979","0.0-129.0","","","","","163.30000001192093","img/food4.png","75","164.40000000596046","2","1","false","3","2","1,0.7,0,1,0.7,0,0.7,0,1","0,1,0.7,0,1,0.7,1,0.7,0","3",""
"","html-keyboard-response","89","56281","0.0-130.0","","","","","null","<img src=""img/food4.png"" style=""width:200px; border:14px solid green;"">","null","","","","","","","","","",""
"","image-keyboard-response","90","56749","0.0-132.0","","","","","467.39999997615814","img/food6.png","74","468.2000000178814","1","0","false","2","2","1,0.7,0,1,0.7,0,0.7,0,1","0,1,0.7,0,1,0.7,1,0.7,0","3",""
"","html-keyboard-response","91","57051","0.0-133.0","","","","","null","<img src=""img/food6.png"" style=""width:200px;border:14px solid red;"">","null","","","","","","","","","",""
"","image-keyboard-response","92","57214","0.0-135.0","","","","","161.7999999821186","img/food4.png","75","162.80000001192093","2","0","false","3","2","1,0.7,0,1,0.7,0,0.7,0,1","0,1,0.7,0,1,0.7,1,0.7,0","3",""
"","html-keyboard-response","93","57516","0.0-136.0","","","","","null","<img src=""img/food4.png"" style=""width:200px;border:14px solid red;"">","null","","","","","","","","","",""
"","image-keyboard-response","94","57592","0.0-138.0","","","","","74.09999999403954","img/food4.png","75","75.59999999403954","2","0","false","3","2","1,0.7,0,1,0.7,0,0.7,0,1","0,1,0.7,0,1,0.7,1,0.7,0","3",""
"","html-keyboard-response","95","57895","0.0-139.0","","","","","null","<img src=""img/food4.png"" style=""width:200px;border:14px solid red;"">","null","","","","","","","","","",""
"","image-keyboard-response","96","58553","0.0-141.0","","","","","656.8000000119209","img/food5.png","74","657.6999999880791","1","0","false","1","2","1,0.7,0,1,0.7,0,0.7,0,1","0,1,0.7,0,1,0.7,1,0.7,0","3",""
"","html-keyboard-response","97","58864","0.0-142.0","","","","","null","<img src=""img/food5.png"" style=""width:200px;border:14px solid red;"">","null","","","","","","","","","",""
"","image-keyboard-response","98","59164","0.0-144.0","","","","","297.90000000596046","img/food5.png","75","299","2","1","false","1","2","1,0.7,0,1,0.7,0,0.7,0,1","0,1,0.7,0,1,0.7,1,0.7,0","3",""
"","html-keyboard-response","99","59465","0.0-145.0","","","","","null","<img src=""img/food5.png"" style=""width:200px; border:14px solid green;"">","null","","","","","","","","","",""
"","image-keyboard-response","100","59661","0.0-147.0","","","","","195.09999999403954","img/food6.png","75","196","2","1","false","2","2","1,0.7,0,1,0.7,0,0.7,0,1","0,1,0.7,0,1,0.7,1,0.7,0","3",""
"","html-keyboard-response","101","59964","0.0-148.0","","","","","null","<img src=""img/food6.png"" style=""width:200px; border:14px solid green;"">","null","","","","","","","","","",""
"","image-keyboard-response","102","60203","0.0-150.0","","","","","237.5","img/food6.png","75","238.59999999403954","2","1","false","2","2","1,0.7,0,1,0.7,0,0.7,0,1","0,1,0.7,0,1,0.7,1,0.7,0","3",""
"","html-keyboard-response","103","60505","0.0-151.0","","","","","null","<img src=""img/food6.png"" style=""width:200px; border:14px solid green;"">","null","","","","","","","","","",""
"","image-keyboard-response","104","60742","0.0-153.0","","","","","235.90000000596046","img/food6.png","75","237.09999999403954","2","1","false","2","2","1,0.7,0,1,0.7,0,0.7,0,1","0,1,0.7,0,1,0.7,1,0.7,0","3",""
"","html-keyboard-response","105","61044","0.0-154.0","","","","","null","<img src=""img/food6.png"" style=""width:200px; border:14px solid green;"">","null","","","","","","","","","",""
"","image-keyboard-response","106","61187","0.0-156.0","","","","","141.7000000178814","img/food5.png","75","142.80000001192093","2","1","false","1","2","1,0.7,0,1,0.7,0,0.7,0,1","0,1,0.7,0,1,0.7,1,0.7,0","3",""
"","html-keyboard-response","107","61489","0.0-157.0","","","","","null","<img src=""img/food5.png"" style=""width:200px; border:14px solid green;"">","null","","","","","","","","","",""
"","image-keyboard-response","108","61980","0.0-159.0","","","","","489.7999999821186","img/food6.png","75","490.7999999821186","2","1","false","2","2","1,0.7,0,1,0.7,0,0.7,0,1","0,1,0.7,0,1,0.7,1,0.7,0","3",""
"","html-keyboard-response","109","62282","0.0-160.0","","","","","null","<img src=""img/food6.png"" style=""width:200px; border:14px solid green;"">","null","","","","","","","","","",""
"","image-keyboard-response","110","62611","0.0-162.0","","","","","327.39999997615814","img/food4.png","74","328.2999999821186","1","1","false","3","2","1,0.7,0,1,0.7,0,0.7,0,1","0,1,0.7,0,1,0.7,1,0.7,0","3",""
"","html-keyboard-response","111","62913","0.0-163.0","","","","","null","<img src=""img/food4.png"" style=""width:200px; border:14px solid green;"">","null","","","","","","","","","",""
"","image-keyboard-response","112","63253","0.0-165.0","","","","","338.2000000178814","img/food6.png","75","339","2","1","false","2","2","1,0.7,0,1,0.7,0,0.7,0,1","0,1,0.7,0,1,0.7,1,0.7,0","3",""
"","html-keyboard-response","113","63554","0.0-166.0","","","","","null","<img src=""img/food6.png"" style=""width:200px; border:14px solid green;"">","null","","","","","","","","","",""
"","image-keyboard-response","114","63623","0.0-168.0","","","","","68","img/food5.png","75","68.5","2","1","false","1","2","1,0.7,0,1,0.7,0,0.7,0,1","0,1,0.7,0,1,0.7,1,0.7,0","3",""
"","html-keyboard-response","115","63925","0.0-169.0","","","","","null","<img src=""img/food5.png"" style=""width:200px; border:14px solid green;"">","null","","","","","","","","","",""
"","image-keyboard-response","116","64122","0.0-171.0","","","","","195.90000000596046","img/food5.png","75","196.7000000178814","2","1","false","1","2","1,0.7,0,1,0.7,0,0.7,0,1","0,1,0.7,0,1,0.7,1,0.7,0","3",""
"","html-keyboard-response","117","64424","0.0-172.0","","","","","null","<img src=""img/food5.png"" style=""width:200px; border:14px solid green;"">","null","","","","","","","","","",""
"","image-keyboard-response","118","64877","0.0-174.0","","","","","451.5","img/food6.png","75","452.39999997615814","2","1","false","2","2","1,0.7,0,1,0.7,0,0.7,0,1","0,1,0.7,0,1,0.7,1,0.7,0","3",""
"","html-keyboard-response","119","65179","0.0-175.0","","","","","null","<img src=""img/food6.png"" style=""width:200px; border:14px solid green;"">","null","","","","","","","","","",""
"","image-keyboard-response","120","65384","0.0-177.0","","","","","203.5","img/food5.png","75","204.7000000178814","2","1","false","1","2","1,0.7,0,1,0.7,0,0.7,0,1","0,1,0.7,0,1,0.7,1,0.7,0","3",""
"","html-keyboard-response","121","65686","0.0-178.0","","","","","null","<img src=""img/food5.png"" style=""width:200px; border:14px solid green;"">","null","","","","","","","","","",""
"","image-keyboard-response","122","65949","0.0-180.0","","","","","261.09999999403954","img/food5.png","75","262.2999999821186","2","1","false","1","2","1,0.7,0,1,0.7,0,0.7,0,1","0,1,0.7,0,1,0.7,1,0.7,0","3",""
"","html-keyboard-response","123","66251","0.0-181.0","","","","","null","<img src=""img/food5.png"" style=""width:200px; border:14px solid green;"">","null","","","","","","","","","",""
"","image-keyboard-response","124","66519","0.0-183.0","","","","","265.90000000596046","img/food5.png","75","267.09999999403954","2","1","false","1","2","1,0.7,0,1,0.7,0,0.7,0,1","0,1,0.7,0,1,0.7,1,0.7,0","3",""
"","html-keyboard-response","125","66822","0.0-184.0","","","","","null","<img src=""img/food5.png"" style=""width:200px; border:14px solid green;"">","null","","","","","","","","","",""
"","image-keyboard-response","126","67372","0.0-186.0","","","","","548.0999999940395","img/food6.png","75","549.2000000178814","2","1","false","2","2","1,0.7,0,1,0.7,0,0.7,0,1","0,1,0.7,0,1,0.7,1,0.7,0","3",""
"","html-keyboard-response","127","67674","0.0-187.0","","","","","null","<img src=""img/food6.png"" style=""width:200px; border:14px solid green;"">","null","","","","","","","","","",""
"","image-keyboard-response","128","67932","0.0-189.0","","","","","257.09999999403954","img/food5.png","75","257.7999999821186","2","1","false","1","2","1,0.7,0,1,0.7,0,0.7,0,1","0,1,0.7,0,1,0.7,1,0.7,0","3",""
"","html-keyboard-response","129","68234","0.0-190.0","","","","","null","<img src=""img/food5.png"" style=""width:200px; border:14px solid green;"">","null","","","","","","","","","",""
"","image-keyboard-response","130","68664","0.0-192.0","","","","","428.89999997615814","img/food4.png","74","429.90000000596046","1","1","false","3","2","1,0.7,0,1,0.7,0,0.7,0,1","0,1,0.7,0,1,0.7,1,0.7,0","3",""
"","html-keyboard-response","131","68966","0.0-193.0","","","","","null","<img src=""img/food4.png"" style=""width:200px; border:14px solid green;"">","null","","","","","","","","","",""
"","image-keyboard-response","132","69357","0.0-195.0","","","","","389.69999998807907","img/food6.png","75","390.5","2","1","false","2","2","1,0.7,0,1,0.7,0,0.7,0,1","0,1,0.7,0,1,0.7,1,0.7,0","3",""
"","html-keyboard-response","133","69658","0.0-196.0","","","","","null","<img src=""img/food6.png"" style=""width:200px; border:14px solid green;"">","null","","","","","","","","","",""
"","image-keyboard-response","134","69725","0.0-198.0","","","","","65.80000001192093","img/food6.png","75","66.5","2","1","false","2","2","1,0.7,0,1,0.7,0,0.7,0,1","0,1,0.7,0,1,0.7,1,0.7,0","3",""
"","html-keyboard-response","135","70026","0.0-199.0","","","","","null","<img src=""img/food6.png"" style=""width:200px; border:14px solid green;"">","null","","","","","","","","","",""
"","image-keyboard-response","136","70397","0.0-201.0","","","","","370","img/food4.png","74","370.69999998807907","1","1","false","3","2","1,0.7,0,1,0.7,0,0.7,0,1","0,1,0.7,0,1,0.7,1,0.7,0","3",""
"","html-keyboard-response","137","70698","0.0-202.0","","","","","null","<img src=""img/food4.png"" style=""width:200px; border:14px solid green;"">","null","","","","","","","","","",""
"","image-keyboard-response","138","70984","0.0-204.0","","","","","283.90000000596046","img/food4.png","74","285.40000000596046","1","1","false","3","2","1,0.7,0,1,0.7,0,0.7,0,1","0,1,0.7,0,1,0.7,1,0.7,0","3",""
"","html-keyboard-response","139","71286","0.0-205.0","","","","","null","<img src=""img/food4.png"" style=""width:200px; border:14px solid green;"">","null","","","","","","","","","",""
"","image-keyboard-response","140","71580","0.0-207.0","","","","","292.59999999403954","img/food5.png","75","293.7999999821186","2","1","false","1","2","1,0.7,0,1,0.7,0,0.7,0,1","0,1,0.7,0,1,0.7,1,0.7,0","3",""
"","html-keyboard-response","141","71882","0.0-208.0","","","","","null","<img src=""img/food5.png"" style=""width:200px; border:14px solid green;"">","null","","","","","","","","","",""
"","image-keyboard-response","142","71905","0.0-210.0","","","","","21.200000017881393","img/food6.png","75","22.19999998807907","2","1","false","2","2","1,0.7,0,1,0.7,0,0.7,0,1","0,1,0.7,0,1,0.7,1,0.7,0","3",""
"","html-keyboard-response","143","72207","0.0-211.0","","","","","null","<img src=""img/food6.png"" style=""width:200px; border:14px solid green;"">","null","","","","","","","","","",""
"","image-keyboard-response","144","72420","0.0-213.0","","","","","211.59999999403954","img/food6.png","75","212.5","2","1","false","2","2","1,0.7,0,1,0.7,0,0.7,0,1","0,1,0.7,0,1,0.7,1,0.7,0","3",""
"","html-keyboard-response","145","72722","0.0-214.0","","","","","null","<img src=""img/food6.png"" style=""width:200px; border:14px solid green;"">","null","","","","","","","","","",""
"","image-keyboard-response","146","73173","0.0-216.0","","","","","449.5","img/food5.png","74","450.40000000596046","1","0","false","1","2","1,0.7,0,1,0.7,0,0.7,0,1","0,1,0.7,0,1,0.7,1,0.7,0","3",""
"","html-keyboard-response","147","73475","0.0-217.0","","","","","null","<img src=""img/food5.png"" style=""width:200px;border:14px solid red;"">","null","","","","","","","","","",""
"","image-keyboard-response","148","73658","0.0-219.0","","","","","182.2000000178814","img/food4.png","75","183.09999999403954","2","1","false","3","2","1,0.7,0,1,0.7,0,0.7,0,1","0,1,0.7,0,1,0.7,1,0.7,0","3",""
"","html-keyboard-response","149","73960","0.0-220.0","","","","","null","<img src=""img/food4.png"" style=""width:200px; border:14px solid green;"">","null","","","","","","","","","",""
"","image-keyboard-response","150","74409","0.0-222.0","","","","","446.90000000596046","img/food4.png","75","448.09999999403954","2","1","false","3","2","1,0.7,0,1,0.7,0,0.7,0,1","0,1,0.7,0,1,0.7,1,0.7,0","3",""
"","html-keyboard-response","151","74711","0.0-223.0","","","","","null","<img src=""img/food4.png"" style=""width:200px; border:14px solid green;"">","null","","","","","","","","","",""
"","image-keyboard-response","152","74972","0.0-225.0","","","","","258.7999999821186","img/food4.png","75","260","2","1","false","3","2","1,0.7,0,1,0.7,0,0.7,0,1","0,1,0.7,0,1,0.7,1,0.7,0","3",""
"","html-keyboard-response","153","75274","0.0-226.0","","","","","null","<img src=""img/food4.png"" style=""width:200px; border:14px solid green;"">","null","","","","","","","","","",""
"","image-keyboard-response","154","75880","0.0-228.0","","","","","604.7999999821186","img/food6.png","75","605.6999999880791","2","1","false","2","2","1,0.7,0,1,0.7,0,0.7,0,1","0,1,0.7,0,1,0.7,1,0.7,0","3",""
"","html-keyboard-response","155","76194","0.0-229.0","","","","","null","<img src=""img/food6.png"" style=""width:200px; border:14px solid green;"">","null","","","","","","","","","",""
"","image-keyboard-response","156","76259","0.0-231.0","","","","","64.30000001192093","img/food5.png","75","64.89999997615814","2","1","false","1","2","1,0.7,0,1,0.7,0,0.7,0,1","0,1,0.7,0,1,0.7,1,0.7,0","3",""
"","html-keyboard-response","157","76561","0.0-232.0","","","","","null","<img src=""img/food5.png"" style=""width:200px; border:14px solid green;"">","null","","","","","","","","","",""
"","image-keyboard-response","158","76700","0.0-234.0","","","","","137.19999998807907","img/food4.png","75","138.59999999403954","2","1","false","3","2","1,0.7,0,1,0.7,0,0.7,0,1","0,1,0.7,0,1,0.7,1,0.7,0","3",""
"","html-keyboard-response","159","77002","0.0-235.0","","","","","null","<img src=""img/food4.png"" style=""width:200px; border:14px solid green;"">","null","","","","","","","","","",""
"","image-keyboard-response","160","77670","0.0-237.0","","","","","666.0999999940395","img/food5.png","75","667.0999999940395","2","1","false","1","2","1,0.7,0,1,0.7,0,0.7,0,1","0,1,0.7,0,1,0.7,1,0.7,0","3",""
"","html-keyboard-response","161","77971","0.0-238.0","","","","","null","<img src=""img/food5.png"" style=""width:200px; border:14px solid green;"">","null","","","","","","","","","",""
"","image-keyboard-response","162","78346","0.0-240.0","","","","","373.30000001192093","img/food6.png","75","373.90000000596046","2","1","false","2","2","1,0.7,0,1,0.7,0,0.7,0,1","0,1,0.7,0,1,0.7,1,0.7,0","3",""
"","html-keyboard-response","163","78658","0.0-241.0","","","","","null","<img src=""img/food6.png"" style=""width:200px; border:14px solid green;"">","null","","","","","","","","","",""
"","image-keyboard-response","164","78886","0.0-243.0","","","","","226.5","img/food4.png","75","227.2999999821186","2","1","false","3","2","1,0.7,0,1,0.7,0,0.7,0,1","0,1,0.7,0,1,0.7,1,0.7,0","3",""
"","html-keyboard-response","165","79188","0.0-244.0","","","","","null","<img src=""img/food4.png"" style=""width:200px; border:14px solid green;"">","null","","","","","","","","","",""
"","image-keyboard-response","166","79678","0.0-246.0","","","","","489.19999998807907","img/food5.png","75","490.09999999403954","2","1","false","1","2","1,0.7,0,1,0.7,0,0.7,0,1","0,1,0.7,0,1,0.7,1,0.7,0","3",""
"","html-keyboard-response","167","79980","0.0-247.0","","","","","null","<img src=""img/food5.png"" style=""width:200px; border:14px solid green;"">","null","","","","","","","","","",""
"","image-keyboard-response","168","80185","0.0-249.0","","","","","203.5","img/food5.png","75","204.40000000596046","2","1","false","1","2","1,0.7,0,1,0.7,0,0.7,0,1","0,1,0.7,0,1,0.7,1,0.7,0","3",""
"","html-keyboard-response","169","80487","0.0-250.0","","","","","null","<img src=""img/food5.png"" style=""width:200px; border:14px solid green;"">","null","","","","","","","","","",""
"","image-keyboard-response","170","81064","0.0-252.0","","","","","575.5","img/food6.png","75","576.7000000178814","2","1","false","2","2","1,0.7,0,1,0.7,0,0.7,0,1","0,1,0.7,0,1,0.7,1,0.7,0","3",""
"","html-keyboard-response","171","81366","0.0-253.0","","","","","null","<img src=""img/food6.png"" style=""width:200px; border:14px solid green;"">","null","","","","","","","","","",""
"","image-keyboard-response","172","81478","0.0-255.0","","","","","110.7000000178814","img/food6.png","75","111.5","2","1","false","2","2","1,0.7,0,1,0.7,0,0.7,0,1","0,1,0.7,0,1,0.7,1,0.7,0","3",""
"","html-keyboard-response","173","81780","0.0-256.0","","","","","null","<img src=""img/food6.png"" style=""width:200px; border:14px solid green;"">","null","","","","","","","","","",""
"","image-keyboard-response","174","82276","0.0-258.0","","","","","495","img/food4.png","74","495.90000000596046","1","1","false","3","2","1,0.7,0,1,0.7,0,0.7,0,1","0,1,0.7,0,1,0.7,1,0.7,0","3",""
"","html-keyboard-response","175","82579","0.0-259.0","","","","","null","<img src=""img/food4.png"" style=""width:200px; border:14px solid green;"">","null","","","","","","","","","",""
"","image-keyboard-response","176","82850","0.0-261.0","","","","","269.30000001192093","img/food4.png","74","270.2999999821186","1","1","false","3","2","1,0.7,0,1,0.7,0,0.7,0,1","0,1,0.7,0,1,0.7,1,0.7,0","3",""
"","html-keyboard-response","177","83151","0.0-262.0","","","","","null","<img src=""img/food4.png"" style=""width:200px; border:14px solid green;"">","null","","","","","","","","","",""
"","image-keyboard-response","178","83408","0.0-264.0","","","","","256.5","img/food4.png","74","257.59999999403954","1","1","false","3","2","1,0.7,0,1,0.7,0,0.7,0,1","0,1,0.7,0,1,0.7,1,0.7,0","3",""
"","html-keyboard-response","179","83710","0.0-265.0","","","","","null","<img src=""img/food4.png"" style=""width:200px; border:14px solid green;"">","null","","","","","","","","","",""
"","image-keyboard-response","180","84096","0.0-267.0","","","","","383.59999999403954","img/food6.png","75","384.7999999821186","2","1","false","2","2","1,0.7,0,1,0.7,0,0.7,0,1","0,1,0.7,0,1,0.7,1,0.7,0","3",""
"","html-keyboard-response","181","84398","0.0-268.0","","","","","null","<img src=""img/food6.png"" style=""width:200px; border:14px solid green;"">","null","","","","","","","","","",""
"","image-keyboard-response","182","84502","0.0-270.0","","","","","102.40000000596046","img/food6.png","75","103.7000000178814","2","1","false","2","2","1,0.7,0,1,0.7,0,0.7,0,1","0,1,0.7,0,1,0.7,1,0.7,0","3",""
"","html-keyboard-response","183","84804","0.0-271.0","","","","","null","<img src=""img/food6.png"" style=""width:200px; border:14px solid green;"">","null","","","","","","","","","",""
"","instructions","184","89894","0.0-273.0","","","","[{""page_index"":0,""viewing_time"":2813.100000023842},{""page_index"":1,""viewing_time"":2275.5999999940395}]","5088.9000000059605","","","","","","","","","","","",""
"","image-keyboard-response","185","90906","0.0-274.0","","","","","1011.5999999940395","img/food1.png","74","1012.7999999821186","1","0","","2","1","1,0.7,0,1,0.7,0,0.7,0,1","0,1,0.7,0,1,0.7,1,0.7,0","3",""
"","html-keyboard-response","186","91208","0.0-275.0","","","","","null","<img src=""img/food1.png"" style=""width:200px;border:14px solid red;"">","null","","","","","","","","","",""
"","image-keyboard-response","187","91580","0.0-276.0","","","","","369.59999999403954","img/food1.png","75","370.7999999821186","2","1","","2","1","1,0.7,0,1,0.7,0,0.7,0,1","0,1,0.7,0,1,0.7,1,0.7,0","3",""
"","html-keyboard-response","188","91882","0.0-277.0","","","","","null","<img src=""img/food1.png"" style=""width:200px; border:14px solid green;"">","null","","","","","","","","","",""
"","image-keyboard-response","189","92655","0.0-278.0","","","","","771.9000000059605","img/food2.png","75","773.0999999940395","2","1","","3","1","1,0.7,0,1,0.7,0,0.7,0,1","0,1,0.7,0,1,0.7,1,0.7,0","3",""
"","html-keyboard-response","190","92970","0.0-279.0","","","","","null","<img src=""img/food2.png"" style=""width:200px; border:14px solid green;"">","null","","","","","","","","","",""
"","image-keyboard-response","191","93375","0.0-280.0","","","","","403.5","img/food1.png","75","404.90000000596046","2","1","","2","1","1,0.7,0,1,0.7,0,0.7,0,1","0,1,0.7,0,1,0.7,1,0.7,0","3",""
"","html-keyboard-response","192","93678","0.0-281.0","","","","","null","<img src=""img/food1.png"" style=""width:200px; border:14px solid green;"">","null","","","","","","","","","",""
"","image-keyboard-response","193","94295","0.0-282.0","","","","","615.7000000178814","img/food3.png","74","616.5999999940395","1","0","","1","1","1,0.7,0,1,0.7,0,0.7,0,1","0,1,0.7,0,1,0.7,1,0.7,0","3",""
"","html-keyboard-response","194","94597","0.0-283.0","","","","","null","<img src=""img/food3.png"" style=""width:200px;border:14px solid red;"">","null","","","","","","","","","",""
"","image-keyboard-response","195","95229","0.0-284.0","","","","","631.2999999821186","img/food1.png","75","632.3000000119209","2","1","","2","1","1,0.7,0,1,0.7,0,0.7,0,1","0,1,0.7,0,1,0.7,1,0.7,0","3",""
"","html-keyboard-response","196","95532","0.0-285.0","","","","","null","<img src=""img/food1.png"" style=""width:200px; border:14px solid green;"">","null","","","","","","","","","",""
"","image-keyboard-response","197","96074","0.0-286.0","","","","","540.5999999940395","img/food2.png","76","542","3","0","","3","1","1,0.7,0,1,0.7,0,0.7,0,1","0,1,0.7,0,1,0.7,1,0.7,0","3",""
"","html-keyboard-response","198","96377","0.0-287.0","","","","","null","<img src=""img/food2.png"" style=""width:200px;border:14px solid red;"">","null","","","","","","","","","",""
"","image-keyboard-response","199","97133","0.0-288.0","","","","","754.6000000238419","img/food3.png","75","755.6999999880791","2","1","","1","1","1,0.7,0,1,0.7,0,0.7,0,1","0,1,0.7,0,1,0.7,1,0.7,0","3",""
"","html-keyboard-response","200","97435","0.0-289.0","","","","","null","<img src=""img/food3.png"" style=""width:200px; border:14px solid green;"">","null","","","","","","","","","",""
"","image-keyboard-response","201","97837","0.0-290.0","","","","","401.89999997615814","img/food1.png","75","402.7999999821186","2","1","","2","1","1,0.7,0,1,0.7,0,0.7,0,1","0,1,0.7,0,1,0.7,1,0.7,0","3",""
"","html-keyboard-response","202","98139","0.0-291.0","","","","","null","<img src=""img/food1.png"" style=""width:200px; border:14px solid green;"">","null","","","","","","","","","",""
"","image-keyboard-response","203","98326","0.0-292.0","","","","","185.7999999821186","img/food1.png","75","186.59999999403954","2","1","","2","1","1,0.7,0,1,0.7,0,0.7,0,1","0,1,0.7,0,1,0.7,1,0.7,0","3",""
"","html-keyboard-response","204","98629","0.0-293.0","","","","","null","<img src=""img/food1.png"" style=""width:200px; border:14px solid green;"">","null","","","","","","","","","",""
"","image-keyboard-response","205","98998","0.0-294.0","","","","","367.19999998807907","img/food3.png","75","368.59999999403954","2","1","","1","1","1,0.7,0,1,0.7,0,0.7,0,1","0,1,0.7,0,1,0.7,1,0.7,0","3",""
"","html-keyboard-response","206","99299","0.0-295.0","","","","","null","<img src=""img/food3.png"" style=""width:200px; border:14px solid green;"">","null","","","","","","","","","",""
"","image-keyboard-response","207","99462","0.0-296.0","","","","","161.7000000178814","img/food1.png","75","162.80000001192093","2","1","","2","1","1,0.7,0,1,0.7,0,0.7,0,1","0,1,0.7,0,1,0.7,1,0.7,0","3",""
"","html-keyboard-response","208","99765","0.0-297.0","","","","","null","<img src=""img/food1.png"" style=""width:200px; border:14px solid green;"">","null","","","","","","","","","",""
"","image-keyboard-response","209","99898","0.0-298.0","","","","","132","img/food1.png","75","133.2999999821186","2","1","","2","1","1,0.7,0,1,0.7,0,0.7,0,1","0,1,0.7,0,1,0.7,1,0.7,0","3",""
"","html-keyboard-response","210","100201","0.0-299.0","","","","","null","<img src=""img/food1.png"" style=""width:200px; border:14px solid green;"">","null","","","","","","","","","",""
"","image-keyboard-response","211","100410","0.0-300.0","","","","","208","img/food2.png","75","208.90000000596046","2","1","","3","1","1,0.7,0,1,0.7,0,0.7,0,1","0,1,0.7,0,1,0.7,1,0.7,0","3",""
"","html-keyboard-response","212","100711","0.0-301.0","","","","","null","<img src=""img/food2.png"" style=""width:200px; border:14px solid green;"">","null","","","","","","","","","",""
"","image-keyboard-response","213","100795","0.0-302.0","","","","","83.40000000596046","img/food3.png","75","84.39999997615814","2","1","","1","1","1,0.7,0,1,0.7,0,0.7,0,1","0,1,0.7,0,1,0.7,1,0.7,0","3",""
"","html-keyboard-response","214","101105","0.0-303.0","","","","","null","<img src=""img/food3.png"" style=""width:200px; border:14px solid green;"">","null","","","","","","","","","",""
"","image-keyboard-response","215","101267","0.0-304.0","","","","","161.09999999403954","img/food2.png","75","162.10000002384186","2","1","","3","1","1,0.7,0,1,0.7,0,0.7,0,1","0,1,0.7,0,1,0.7,1,0.7,0","3",""
"","html-keyboard-response","216","101569","0.0-305.0","","","","","null","<img src=""img/food2.png"" style=""width:200px; border:14px solid green;"">","null","","","","","","","","","",""
"","image-keyboard-response","217","101661","0.0-306.0","","","","","91.09999999403954","img/food3.png","75","91.90000000596046","2","1","","1","1","1,0.7,0,1,0.7,0,0.7,0,1","0,1,0.7,0,1,0.7,1,0.7,0","3",""
"","html-keyboard-response","218","101963","0.0-307.0","","","","","null","<img src=""img/food3.png"" style=""width:200px; border:14px solid green;"">","null","","","","","","","","","",""
"","image-keyboard-response","219","102098","0.0-308.0","","","","","133.7000000178814","img/food3.png","75","135","2","1","","1","1","1,0.7,0,1,0.7,0,0.7,0,1","0,1,0.7,0,1,0.7,1,0.7,0","3",""
"","html-keyboard-response","220","102400","0.0-309.0","","","","","null","<img src=""img/food3.png"" style=""width:200px; border:14px solid green;"">","null","","","","","","","","","",""
"","image-keyboard-response","221","102507","0.0-310.0","","","","","106.40000000596046","img/food3.png","75","107.09999999403954","2","1","","1","1","1,0.7,0,1,0.7,0,0.7,0,1","0,1,0.7,0,1,0.7,1,0.7,0","3",""
"","html-keyboard-response","222","102808","0.0-311.0","","","","","null","<img src=""img/food3.png"" style=""width:200px; border:14px solid green;"">","null","","","","","","","","","",""
"","image-keyboard-response","223","102952","0.0-312.0","","","","","142.30000001192093","img/food2.png","75","142.89999997615814","2","1","","3","1","1,0.7,0,1,0.7,0,0.7,0,1","0,1,0.7,0,1,0.7,1,0.7,0","3",""
"","html-keyboard-response","224","103255","0.0-313.0","","","","","null","<img src=""img/food2.png"" style=""width:200px; border:14px solid green;"">","null","","","","","","","","","",""
"","image-keyboard-response","225","103312","0.0-314.0","","","","","56.29999998211861","img/food2.png","75","57.30000001192093","2","1","","3","1","1,0.7,0,1,0.7,0,0.7,0,1","0,1,0.7,0,1,0.7,1,0.7,0","3",""
"","html-keyboard-response","226","103614","0.0-315.0","","","","","null","<img src=""img/food2.png"" style=""width:200px; border:14px solid green;"">","null","","","","","","","","","",""
"","image-keyboard-response","227","103727","0.0-316.0","","","","","110.69999998807907","img/food1.png","75","112.19999998807907","2","1","","2","1","1,0.7,0,1,0.7,0,0.7,0,1","0,1,0.7,0,1,0.7,1,0.7,0","3",""
"","html-keyboard-response","228","104029","0.0-317.0","","","","","null","<img src=""img/food1.png"" style=""width:200px; border:14px solid green;"">","null","","","","","","","","","",""
"","image-keyboard-response","229","104102","0.0-318.0","","","","","71.2000000178814","img/food1.png","75","72.5","2","1","","2","1","1,0.7,0,1,0.7,0,0.7,0,1","0,1,0.7,0,1,0.7,1,0.7,0","3",""
"","html-keyboard-response","230","104404","0.0-319.0","","","","","null","<img src=""img/food1.png"" style=""width:200px; border:14px solid green;"">","null","","","","","","","","","",""
"","image-keyboard-response","231","104467","0.0-320.0","","","","","61.19999998807907","img/food3.png","75","62.400000005960464","2","1","","1","1","1,0.7,0,1,0.7,0,0.7,0,1","0,1,0.7,0,1,0.7,1,0.7,0","3",""
"","html-keyboard-response","232","104781","0.0-321.0","","","","","null","<img src=""img/food3.png"" style=""width:200px; border:14px solid green;"">","null","","","","","","","","","",""
"","image-keyboard-response","233","104858","0.0-322.0","","","","","75.90000000596046","img/food2.png","75","77.30000001192093","2","1","","3","1","1,0.7,0,1,0.7,0,0.7,0,1","0,1,0.7,0,1,0.7,1,0.7,0","3",""
"","html-keyboard-response","234","105161","0.0-323.0","","","","","null","<img src=""img/food2.png"" style=""width:200px; border:14px solid green;"">","null","","","","","","","","","",""
"","image-keyboard-response","235","105205","0.0-324.0","","","","","42.80000001192093","img/food1.png","75","44.10000002384186","2","1","","2","1","1,0.7,0,1,0.7,0,0.7,0,1","0,1,0.7,0,1,0.7,1,0.7,0","3",""
"","html-keyboard-response","236","105507","0.0-325.0","","","","","null","<img src=""img/food1.png"" style=""width:200px; border:14px solid green;"">","null","","","","","","","","","",""
"","image-keyboard-response","237","105571","0.0-326.0","","","","","63.099999994039536","img/food2.png","75","64","2","1","","3","1","1,0.7,0,1,0.7,0,0.7,0,1","0,1,0.7,0,1,0.7,1,0.7,0","3",""
"","html-keyboard-response","238","105874","0.0-327.0","","","","","null","<img src=""img/food2.png"" style=""width:200px; border:14px solid green;"">","null","","","","","","","","","",""
"","image-keyboard-response","239","105950","0.0-328.0","","","","","74.5","img/food1.png","75","75.7000000178814","2","1","","2","1","1,0.7,0,1,0.7,0,0.7,0,1","0,1,0.7,0,1,0.7,1,0.7,0","3",""
"","html-keyboard-response","240","106251","0.0-329.0","","","","","null","<img src=""img/food1.png"" style=""width:200px; border:14px solid green;"">","null","","","","","","","","","",""
"","image-keyboard-response","241","106280","0.0-330.0","","","","","27.80000001192093","img/food2.png","75","28.900000005960464","2","1","","3","1","1,0.7,0,1,0.7,0,0.7,0,1","0,1,0.7,0,1,0.7,1,0.7,0","3",""
"","html-keyboard-response","242","106582","0.0-331.0","","","","","null","<img src=""img/food2.png"" style=""width:200px; border:14px solid green;"">","null","","","","","","","","","",""
"","image-keyboard-response","243","106673","0.0-332.0","","","","","89.5","img/food2.png","75","90.90000000596046","2","1","","3","1","1,0.7,0,1,0.7,0,0.7,0,1","0,1,0.7,0,1,0.7,1,0.7,0","3",""
"","html-keyboard-response","244","106976","0.0-333.0","","","","","null","<img src=""img/food2.png"" style=""width:200px; border:14px solid green;"">","null","","","","","","","","","",""
"","image-keyboard-response","245","107050","0.0-334.0","","","","","72.59999999403954","img/food2.png","75","73.90000000596046","2","0","","3","1","1,0.7,0,1,0.7,0,0.7,0,1","0,1,0.7,0,1,0.7,1,0.7,0","3",""
"","html-keyboard-response","246","107351","0.0-335.0","","","","","null","<img src=""img/food2.png"" style=""width:200px;border:14px solid red;"">","null","","","","","","","","","",""
"","image-keyboard-response","247","107699","0.0-336.0","","","","","346.40000000596046","img/food1.png","75","347.40000000596046","2","1","","2","1","1,0.7,0,1,0.7,0,0.7,0,1","0,1,0.7,0,1,0.7,1,0.7,0","3",""
"","html-keyboard-response","248","108001","0.0-337.0","","","","","null","<img src=""img/food1.png"" style=""width:200px; border:14px solid green;"">","null","","","","","","","","","",""
"","image-keyboard-response","249","108054","0.0-338.0","","","","","52.599999994039536","img/food3.png","75","53.29999998211861","2","1","","1","1","1,0.7,0,1,0.7,0,0.7,0,1","0,1,0.7,0,1,0.7,1,0.7,0","3",""
"","html-keyboard-response","250","108361","0.0-339.0","","","","","null","<img src=""img/food3.png"" style=""width:200px; border:14px solid green;"">","null","","","","","","","","","",""
"","image-keyboard-response","251","108425","0.0-340.0","","","","","62.30000001192093","img/food2.png","75","63","2","1","","3","1","1,0.7,0,1,0.7,0,0.7,0,1","0,1,0.7,0,1,0.7,1,0.7,0","3",""
"","html-keyboard-response","252","108726","0.0-341.0","","","","","null","<img src=""img/food2.png"" style=""width:200px; border:14px solid green;"">","null","","","","","","","","","",""
"","image-keyboard-response","253","108795","0.0-342.0","","","","","67.80000001192093","img/food1.png","75","68.69999998807907","2","1","","2","1","1,0.7,0,1,0.7,0,0.7,0,1","0,1,0.7,0,1,0.7,1,0.7,0","3",""
"","html-keyboard-response","254","109097","0.0-343.0","","","","","null","<img src=""img/food1.png"" style=""width:200px; border:14px solid green;"">","null","","","","","","","","","",""
"","image-keyboard-response","255","109137","0.0-344.0","","","","","39.400000005960464","img/food3.png","75","40.69999998807907","2","1","","1","1","1,0.7,0,1,0.7,0,0.7,0,1","0,1,0.7,0,1,0.7,1,0.7,0","3",""
"","html-keyboard-response","256","109440","0.0-345.0","","","","","null","<img src=""img/food3.png"" style=""width:200px; border:14px solid green;"">","null","","","","","","","","","",""
"","image-keyboard-response","257","109516","0.0-346.0","","","","","74.90000000596046","img/food3.png","75","75.7999999821186","2","1","","1","1","1,0.7,0,1,0.7,0,0.7,0,1","0,1,0.7,0,1,0.7,1,0.7,0","3",""
"","html-keyboard-response","258","109819","0.0-347.0","","","","","null","<img src=""img/food3.png"" style=""width:200px; border:14px solid green;"">","null","","","","","","","","","",""
"","image-keyboard-response","259","109890","0.0-348.0","","","","","69.69999998807907","img/food2.png","75","70.90000000596046","2","1","","3","1","1,0.7,0,1,0.7,0,0.7,0,1","0,1,0.7,0,1,0.7,1,0.7,0","3",""
"","html-keyboard-response","260","110192","0.0-349.0","","","","","null","<img src=""img/food2.png"" style=""width:200px; border:14px solid green;"">","null","","","","","","","","","",""
"","image-keyboard-response","261","110227","0.0-350.0","","","","","33.79999998211861","img/food1.png","75","35","2","1","","2","1","1,0.7,0,1,0.7,0,0.7,0,1","0,1,0.7,0,1,0.7,1,0.7,0","3",""
"","html-keyboard-response","262","110530","0.0-351.0","","","","","null","<img src=""img/food1.png"" style=""width:200px; border:14px solid green;"">","null","","","","","","","","","",""
"","image-keyboard-response","263","110595","0.0-352.0","","","","","64.19999998807907","img/food3.png","75","64.80000001192093","2","1","","1","1","1,0.7,0,1,0.7,0,0.7,0,1","0,1,0.7,0,1,0.7,1,0.7,0","3",""
"","html-keyboard-response","264","110897","0.0-353.0","","","","","null","<img src=""img/food3.png"" style=""width:200px; border:14px solid green;"">","null","","","","","","","","","",""
"","image-keyboard-response","265","110961","0.0-354.0","","","","","62.5","img/food2.png","75","63.5","2","1","","3","1","1,0.7,0,1,0.7,0,0.7,0,1","0,1,0.7,0,1,0.7,1,0.7,0","3",""
"","html-keyboard-response","266","111263","0.0-355.0","","","","","null","<img src=""img/food2.png"" style=""width:200px; border:14px solid green;"">","null","","","","","","","","","",""
"","image-keyboard-response","267","111320","0.0-356.0","","","","","55.79999998211861","img/food2.png","75","56.80000001192093","2","0","","3","1","1,0.7,0,1,0.7,0,0.7,0,1","0,1,0.7,0,1,0.7,1,0.7,0","3",""
"","html-keyboard-response","268","111623","0.0-357.0","","","","","null","<img src=""img/food2.png"" style=""width:200px;border:14px solid red;"">","null","","","","","","","","","",""
"","image-keyboard-response","269","111647","0.0-358.0","","","","","23.299999982118607","img/food1.png","75","24.30000001192093","2","1","","2","1","1,0.7,0,1,0.7,0,0.7,0,1","0,1,0.7,0,1,0.7,1,0.7,0","3",""
"","html-keyboard-response","270","111949","0.0-359.0","","","","","null","<img src=""img/food1.png"" style=""width:200px; border:14px solid green;"">","null","","","","","","","","","",""
"","image-keyboard-response","271","111980","0.0-360.0","","","","","29.80000001192093","img/food1.png","75","30.69999998807907","2","1","","2","1","1,0.7,0,1,0.7,0,0.7,0,1","0,1,0.7,0,1,0.7,1,0.7,0","3",""
"","html-keyboard-response","272","112295","0.0-361.0","","","","","null","<img src=""img/food1.png"" style=""width:200px; border:14px solid green;"">","null","","","","","","","","","",""
"","image-keyboard-response","273","112345","0.0-362.0","","","","","48.599999994039536","img/food2.png","75","49.69999998807907","2","0","","3","1","1,0.7,0,1,0.7,0,0.7,0,1","0,1,0.7,0,1,0.7,1,0.7,0","3",""
"","html-keyboard-response","274","112647","0.0-363.0","","","","","null","<img src=""img/food2.png"" style=""width:200px;border:14px solid red;"">","null","","","","","","","","","",""
"","image-keyboard-response","275","112691","0.0-364.0","","","","","42.69999998807907","img/food2.png","75","43.900000005960464","2","1","","3","1","1,0.7,0,1,0.7,0,0.7,0,1","0,1,0.7,0,1,0.7,1,0.7,0","3",""
"","html-keyboard-response","276","112993","0.0-365.0","","","","","null","<img src=""img/food2.png"" style=""width:200px; border:14px solid green;"">","null","","","","","","","","","",""
"","image-keyboard-response","277","113051","0.0-366.0","","","","","56.400000005960464","img/food3.png","75","57.5","2","1","","1","1","1,0.7,0,1,0.7,0,0.7,0,1","0,1,0.7,0,1,0.7,1,0.7,0","3",""
"","html-keyboard-response","278","113353","0.0-367.0","","","","","null","<img src=""img/food3.png"" style=""width:200px; border:14px solid green;"">","null","","","","","","","","","",""
"","image-keyboard-response","279","113389","0.0-368.0","","","","","35","img/food3.png","75","36.19999998807907","2","1","","1","1","1,0.7,0,1,0.7,0,0.7,0,1","0,1,0.7,0,1,0.7,1,0.7,0","3",""
"","html-keyboard-response","280","113692","0.0-369.0","","","","","null","<img src=""img/food3.png"" style=""width:200px; border:14px solid green;"">","null","","","","","","","","","",""
"","image-keyboard-response","281","113735","0.0-370.0","","","","","41.29999998211861","img/food3.png","75","42.599999994039536","2","1","","1","1","1,0.7,0,1,0.7,0,0.7,0,1","0,1,0.7,0,1,0.7,1,0.7,0","3",""
"","html-keyboard-response","282","114037","0.0-371.0","","","","","null","<img src=""img/food3.png"" style=""width:200px; border:14px solid green;"">","null","","","","","","","","","",""
"","image-keyboard-response","283","114042","0.0-372.0","","","","","2.9000000059604645","img/food2.png","75","4","2","1","","3","1","1,0.7,0,1,0.7,0,0.7,0,1","0,1,0.7,0,1,0.7,1,0.7,0","3",""
"","html-keyboard-response","284","114345","0.0-373.0","","","","","null","<img src=""img/food2.png"" style=""width:200px; border:14px solid green;"">","null","","","","","","","","","",""
"","image-keyboard-response","285","114385","0.0-374.0","","","","","39","img/food3.png","75","40.30000001192093","2","1","","1","1","1,0.7,0,1,0.7,0,0.7,0,1","0,1,0.7,0,1,0.7,1,0.7,0","3",""
"","html-keyboard-response","286","114688","0.0-375.0","","","","","null","<img src=""img/food3.png"" style=""width:200px; border:14px solid green;"">","null","","","","","","","","","",""
"","image-keyboard-response","287","114740","0.0-376.0","","","","","51.19999998807907","img/food1.png","75","52.5","2","1","","2","1","1,0.7,0,1,0.7,0,0.7,0,1","0,1,0.7,0,1,0.7,1,0.7,0","3",""
"","html-keyboard-response","288","115053","0.0-377.0","","","","","null","<img src=""img/food1.png"" style=""width:200px; border:14px solid green;"">","null","","","","","","","","","",""
"","image-keyboard-response","289","115091","0.0-378.0","","","","","37.5","img/food2.png","75","38.20000001788139","2","0","","3","1","1,0.7,0,1,0.7,0,0.7,0,1","0,1,0.7,0,1,0.7,1,0.7,0","3",""
"","html-keyboard-response","290","115393","0.0-379.0","","","","","null","<img src=""img/food2.png"" style=""width:200px;border:14px solid red;"">","null","","","","","","","","","",""
"","image-keyboard-response","291","115425","0.0-380.0","","","","","30.30000001192093","img/food3.png","75","31.100000023841858","2","1","","1","1","1,0.7,0,1,0.7,0,0.7,0,1","0,1,0.7,0,1,0.7,1,0.7,0","3",""
"","html-keyboard-response","292","115727","0.0-381.0","","","","","null","<img src=""img/food3.png"" style=""width:200px; border:14px solid green;"">","null","","","","","","","","","",""
"","image-keyboard-response","293","115798","0.0-382.0","","","","","70","img/food1.png","75","71.30000001192093","2","1","","2","1","1,0.7,0,1,0.7,0,0.7,0,1","0,1,0.7,0,1,0.7,1,0.7,0","3",""
"","html-keyboard-response","294","116100","0.0-383.0","","","","","null","<img src=""img/food1.png"" style=""width:200px; border:14px solid green;"">","null","","","","","","","","","",""
"","image-keyboard-response","295","116136","0.0-384.0","","","","","34.19999998807907","img/food2.png","75","35.20000001788139","2","1","","3","1","1,0.7,0,1,0.7,0,0.7,0,1","0,1,0.7,0,1,0.7,1,0.7,0","3",""
"","html-keyboard-response","296","116438","0.0-385.0","","","","","null","<img src=""img/food2.png"" style=""width:200px; border:14px solid green;"">","null","","","","","","","","","",""
"","image-keyboard-response","297","116464","0.0-386.0","","","","","25.5","img/food3.png","75","26.19999998807907","2","1","","1","1","1,0.7,0,1,0.7,0,0.7,0,1","0,1,0.7,0,1,0.7,1,0.7,0","3",""
"","html-keyboard-response","298","116766","0.0-387.0","","","","","null","<img src=""img/food3.png"" style=""width:200px; border:14px solid green;"">","null","","","","","","","","","",""
"","image-keyboard-response","299","116801","0.0-388.0","","","","","32.80000001192093","img/food2.png","75","34","2","1","","3","1","1,0.7,0,1,0.7,0,0.7,0,1","0,1,0.7,0,1,0.7,1,0.7,0","3",""
"","html-keyboard-response","300","117103","0.0-389.0","","","","","null","<img src=""img/food2.png"" style=""width:200px; border:14px solid green;"">","null","","","","","","","","","",""
"","image-keyboard-response","301","117147","0.0-390.0","","","","","42.099999994039536","img/food2.png","75","43.599999994039536","2","1","","3","1","1,0.7,0,1,0.7,0,0.7,0,1","0,1,0.7,0,1,0.7,1,0.7,0","3",""
"","html-keyboard-response","302","117449","0.0-391.0","","","","","null","<img src=""img/food2.png"" style=""width:200px; border:14px solid green;"">","null","","","","","","","","","",""
"","image-keyboard-response","303","117498","0.0-392.0","","","","","48.69999998807907","img/food1.png","75","49.30000001192093","2","1","","2","1","1,0.7,0,1,0.7,0,0.7,0,1","0,1,0.7,0,1,0.7,1,0.7,0","3",""
"","html-keyboard-response","304","117801","0.0-393.0","","","","","null","<img src=""img/food1.png"" style=""width:200px; border:14px solid green;"">","null","","","","","","","","","",""
"","image-keyboard-response","305","117814","0.0-394.0","","","","","11.399999976158142","img/food2.png","75","12.599999994039536","2","1","","3","1","1,0.7,0,1,0.7,0,0.7,0,1","0,1,0.7,0,1,0.7,1,0.7,0","3",""
"","html-keyboard-response","306","118116","0.0-395.0","","","","","null","<img src=""img/food2.png"" style=""width:200px; border:14px solid green;"">","null","","","","","","","","","",""
"","image-keyboard-response","307","118146","0.0-396.0","","","","","29.399999976158142","img/food3.png","75","30.200000017881393","2","1","","1","1","1,0.7,0,1,0.7,0,0.7,0,1","0,1,0.7,0,1,0.7,1,0.7,0","3",""
"","html-keyboard-response","308","118447","0.0-397.0","","","","","null","<img src=""img/food3.png"" style=""width:200px; border:14px solid green;"">","null","","","","","","","","","",""
"","image-keyboard-response","309","118470","0.0-398.0","","","","","22.30000001192093","img/food3.png","75","22.900000005960464","2","1","","1","1","1,0.7,0,1,0.7,0,0.7,0,1","0,1,0.7,0,1,0.7,1,0.7,0","3",""
"","html-keyboard-response","310","118772","0.0-399.0","","","","","null","<img src=""img/food3.png"" style=""width:200px; border:14px solid green;"">","null","","","","","","","","","",""
"","image-keyboard-response","311","118824","0.0-400.0","","","","","51","img/food2.png","75","51.900000005960464","2","0","","3","1","1,0.7,0,1,0.7,0,0.7,0,1","0,1,0.7,0,1,0.7,1,0.7,0","3",""
"","html-keyboard-response","312","119126","0.0-401.0","","","","","null","<img src=""img/food2.png"" style=""width:200px;border:14px solid red;"">","null","","","","","","","","","",""
"","image-keyboard-response","313","119165","0.0-402.0","","","","","38.099999994039536","img/food3.png","75","38.900000005960464","2","1","","1","1","1,0.7,0,1,0.7,0,0.7,0,1","0,1,0.7,0,1,0.7,1,0.7,0","3",""
"","html-keyboard-response","314","119467","0.0-403.0","","","","","null","<img src=""img/food3.png"" style=""width:200px; border:14px solid green;"">","null","","","","","","","","","",""
"","image-keyboard-response","315","119501","0.0-404.0","","","","","32.400000005960464","img/food1.png","75","33.599999994039536","2","1","","2","1","1,0.7,0,1,0.7,0,0.7,0,1","0,1,0.7,0,1,0.7,1,0.7,0","3",""
"","html-keyboard-response","316","119802","0.0-405.0","","","","","null","<img src=""img/food1.png"" style=""width:200px; border:14px solid green;"">","null","","","","","","","","","",""
"","image-keyboard-response","317","119829","0.0-406.0","","","","","26","img/food1.png","75","27","2","1","","2","1","1,0.7,0,1,0.7,0,0.7,0,1","0,1,0.7,0,1,0.7,1,0.7,0","3",""
"","html-keyboard-response","318","120132","0.0-407.0","","","","","null","<img src=""img/food1.png"" style=""width:200px; border:14px solid green;"">","null","","","","","","","","","",""
"","image-keyboard-response","319","120189","0.0-408.0","","","","","55.89999997615814","img/food2.png","75","57.099999994039536","2","1","","3","1","1,0.7,0,1,0.7,0,0.7,0,1","0,1,0.7,0,1,0.7,1,0.7,0","3",""
"","html-keyboard-response","320","120491","0.0-409.0","","","","","null","<img src=""img/food2.png"" style=""width:200px; border:14px solid green;"">","null","","","","","","","","","",""
"","image-keyboard-response","321","120531","0.0-410.0","","","","","39","img/food3.png","75","39.70000001788139","2","1","","1","1","1,0.7,0,1,0.7,0,0.7,0,1","0,1,0.7,0,1,0.7,1,0.7,0","3",""
"","html-keyboard-response","322","120832","0.0-411.0","","","","","null","<img src=""img/food3.png"" style=""width:200px; border:14px solid green;"">","null","","","","","","","","","",""
"","image-keyboard-response","323","120882","0.0-412.0","","","","","48.39999997615814","img/food1.png","75","49.599999994039536","2","1","","2","1","1,0.7,0,1,0.7,0,0.7,0,1","0,1,0.7,0,1,0.7,1,0.7,0","3",""
"","html-keyboard-response","324","121184","0.0-413.0","","","","","null","<img src=""img/food1.png"" style=""width:200px; border:14px solid green;"">","null","","","","","","","","","",""
"","image-keyboard-response","325","121205","0.0-414.0","","","","","19.900000005960464","img/food3.png","75","20.799999982118607","2","1","","1","1","1,0.7,0,1,0.7,0,0.7,0,1","0,1,0.7,0,1,0.7,1,0.7,0","3",""
"","html-keyboard-response","326","121507","0.0-415.0","","","","","null","<img src=""img/food3.png"" style=""width:200px; border:14px solid green;"">","null","","","","","","","","","",""
"","image-keyboard-response","327","121551","0.0-416.0","","","","","43.400000005960464","img/food2.png","75","44","2","1","","3","1","1,0.7,0,1,0.7,0,0.7,0,1","0,1,0.7,0,1,0.7,1,0.7,0","3",""
"","html-keyboard-response","328","121852","0.0-417.0","","","","","null","<img src=""img/food2.png"" style=""width:200px; border:14px solid green;"">","null","","","","","","","","","",""
"","image-keyboard-response","329","121902","0.0-418.0","","","","","48.19999998807907","img/food2.png","75","49.599999994039536","2","1","","3","1","1,0.7,0,1,0.7,0,0.7,0,1","0,1,0.7,0,1,0.7,1,0.7,0","3",""
"","html-keyboard-response","330","122205","0.0-419.0","","","","","null","<img src=""img/food2.png"" style=""width:200px; border:14px solid green;"">","null","","","","","","","","","",""
"","image-keyboard-response","331","122248","0.0-420.0","","","","","41.5","img/food3.png","75","42.80000001192093","2","1","","1","1","1,0.7,0,1,0.7,0,0.7,0,1","0,1,0.7,0,1,0.7,1,0.7,0","3",""
"","html-keyboard-response","332","122550","0.0-421.0","","","","","null","<img src=""img/food3.png"" style=""width:200px; border:14px solid green;"">","null","","","","","","","","","",""
"","image-keyboard-response","333","122601","0.0-422.0","","","","","50.69999998807907","img/food3.png","75","51.79999998211861","2","1","","1","1","1,0.7,0,1,0.7,0,0.7,0,1","0,1,0.7,0,1,0.7,1,0.7,0","3",""
"","html-keyboard-response","334","122905","0.0-423.0","","","","","null","<img src=""img/food3.png"" style=""width:200px; border:14px solid green;"">","null","","","","","","","","","",""
"","image-keyboard-response","335","122948","0.0-424.0","","","","","41.80000001192093","img/food3.png","75","42.900000005960464","2","1","","1","1","1,0.7,0,1,0.7,0,0.7,0,1","0,1,0.7,0,1,0.7,1,0.7,0","3",""
"","html-keyboard-response","336","123250","0.0-425.0","","","","","null","<img src=""img/food3.png"" style=""width:200px; border:14px solid green;"">","null","","","","","","","","","",""
"","image-keyboard-response","337","123292","0.0-426.0","","","","","41.19999998807907","img/food2.png","75","41.89999997615814","2","1","","3","1","1,0.7,0,1,0.7,0,0.7,0,1","0,1,0.7,0,1,0.7,1,0.7,0","3",""
"","html-keyboard-response","338","123594","0.0-427.0","","","","","null","<img src=""img/food2.png"" style=""width:200px; border:14px solid green;"">","null","","","","","","","","","",""
"","image-keyboard-response","339","123629","0.0-428.0","","","","","33.19999998807907","img/food3.png","75","34.70000001788139","2","1","","1","1","1,0.7,0,1,0.7,0,0.7,0,1","0,1,0.7,0,1,0.7,1,0.7,0","3",""
"","html-keyboard-response","340","123931","0.0-429.0","","","","","null","<img src=""img/food3.png"" style=""width:200px; border:14px solid green;"">","null","","","","","","","","","",""
"","image-keyboard-response","341","123957","0.0-430.0","","","","","23.900000005960464","img/food3.png","75","25.099999994039536","2","1","","1","1","1,0.7,0,1,0.7,0,0.7,0,1","0,1,0.7,0,1,0.7,1,0.7,0","3",""
"","html-keyboard-response","342","124259","0.0-431.0","","","","","null","<img src=""img/food3.png"" style=""width:200px; border:14px solid green;"">","null","","","","","","","","","",""
"","image-keyboard-response","343","124289","0.0-432.0","","","","","29.200000017881393","img/food3.png","75","30","2","1","","1","1","1,0.7,0,1,0.7,0,0.7,0,1","0,1,0.7,0,1,0.7,1,0.7,0","3",""
"","html-keyboard-response","344","124591","0.0-433.0","","","","","null","<img src=""img/food3.png"" style=""width:200px; border:14px solid green;"">","null","","","","","","","","","",""
"","image-keyboard-response","345","124639","0.0-434.0","","","","","48.099999994039536","img/food2.png","75","48.69999998807907","2","1","","3","1","1,0.7,0,1,0.7,0,0.7,0,1","0,1,0.7,0,1,0.7,1,0.7,0","3",""
"","html-keyboard-response","346","124941","0.0-435.0","","","","","null","<img src=""img/food2.png"" style=""width:200px; border:14px solid green;"">","null","","","","","","","","","",""
"","image-keyboard-response","347","124966","0.0-436.0","","","","","23.900000005960464","img/food2.png","75","25","2","1","","3","1","1,0.7,0,1,0.7,0,0.7,0,1","0,1,0.7,0,1,0.7,1,0.7,0","3",""
"","html-keyboard-response","348","125268","0.0-437.0","","","","","null","<img src=""img/food2.png"" style=""width:200px; border:14px solid green;"">","null","","","","","","","","","",""
"","image-keyboard-response","349","125315","0.0-438.0","","","","","45.900000005960464","img/food1.png","75","46.80000001192093","2","1","","2","1","1,0.7,0,1,0.7,0,0.7,0,1","0,1,0.7,0,1,0.7,1,0.7,0","3",""
"","html-keyboard-response","350","125616","0.0-439.0","","","","","null","<img src=""img/food1.png"" style=""width:200px; border:14px solid green;"">","null","","","","","","","","","",""
"","image-keyboard-response","351","125672","0.0-440.0","","","","","54.400000005960464","img/food1.png","75","55.599999994039536","2","1","","2","1","1,0.7,0,1,0.7,0,0.7,0,1","0,1,0.7,0,1,0.7,1,0.7,0","3",""
"","html-keyboard-response","352","125974","0.0-441.0","","","","","null","<img src=""img/food1.png"" style=""width:200px; border:14px solid green;"">","null","","","","","","","","","",""
"","image-keyboard-response","353","126296","0.0-442.0","","","","","320.90000000596046","img/food1.png","75","322.10000002384186","2","1","","2","1","1,0.7,0,1,0.7,0,0.7,0,1","0,1,0.7,0,1,0.7,1,0.7,0","3",""
"","html-keyboard-response","354","126598","0.0-443.0","","","","","null","<img src=""img/food1.png"" style=""width:200px; border:14px solid green;"">","null","","","","","","","","","",""
"","image-keyboard-response","355","126850","0.0-444.0","","","","","249.89999997615814","img/food3.png","75","251.09999999403954","2","1","","1","1","1,0.7,0,1,0.7,0,0.7,0,1","0,1,0.7,0,1,0.7,1,0.7,0","3",""
"","html-keyboard-response","356","127152","0.0-445.0","","","","","null","<img src=""img/food3.png"" style=""width:200px; border:14px solid green;"">","null","","","","","","","","","",""
"","image-keyboard-response","357","127421","0.0-446.0","","","","","267.19999998807907","img/food1.png","75","268.30000001192093","2","1","","2","1","1,0.7,0,1,0.7,0,0.7,0,1","0,1,0.7,0,1,0.7,1,0.7,0","3",""
"","html-keyboard-response","358","127722","0.0-447.0","","","","","null","<img src=""img/food1.png"" style=""width:200px; border:14px solid green;"">","null","","","","","","","","","",""
"","image-keyboard-response","359","127922","0.0-448.0","","","","","198.40000000596046","img/food1.png","75","199.7999999821186","2","1","","2","1","1,0.7,0,1,0.7,0,0.7,0,1","0,1,0.7,0,1,0.7,1,0.7,0","3",""
"","html-keyboard-response","360","128224","0.0-449.0","","","","","null","<img src=""img/food1.png"" style=""width:200px; border:14px solid green;"">","null","","","","","","","","","",""
"","image-keyboard-response","361","128432","0.0-450.0","","","","","206.80000001192093","img/food1.png","75","207.80000001192093","2","1","","2","1","1,0.7,0,1,0.7,0,0.7,0,1","0,1,0.7,0,1,0.7,1,0.7,0","3",""
"","html-keyboard-response","362","128735","0.0-451.0","","","","","null","<img src=""img/food1.png"" style=""width:200px; border:14px solid green;"">","null","","","","","","","","","",""
"","image-keyboard-response","363","128933","0.0-452.0","","","","","196.90000000596046","img/food1.png","75","198","2","1","","2","1","1,0.7,0,1,0.7,0,0.7,0,1","0,1,0.7,0,1,0.7,1,0.7,0","3",""
"","html-keyboard-response","364","129235","0.0-453.0","","","","","null","<img src=""img/food1.png"" style=""width:200px; border:14px solid green;"">","null","","","","","","","","","",""
"","html-keyboard-response","365","131465","0.0-454.0","","","","","","","","","","","","","","","","",""
"","instructions","366","132570","0.0-455.0","","","","[{""page_index"":0,""viewing_time"":1104.1000000238419}]","1104.4000000059605","","","","","","","","","","","",""
"","survey-text","367","135073","0.0-456.0","","","","","2498.7999999821186","","","","","","","","","","","","{""Q0"":""A2GV9WSNSPX53""}"
