"success","trial_type","trial_index","time_elapsed","internal_node_id","assignmentID","mturkID","hitID","view_history","rt","stimulus","key_press","reactionTime","a","r","s","reward_cond","responses"
"true","fullscreen","0","2745","0.0-0.0","3K4J6M3CXFF4Q8QE4JQEZQO4FHKGAJ","A2H3CV7SIVYREN","3FW4EL5A3LANKRP91N782LFHPY722Q","","","","","","","","","",""
"","instructions","1","19456","0.0-1.0","3K4J6M3CXFF4Q8QE4JQEZQO4FHKGAJ","A2H3CV7SIVYREN","3FW4EL5A3LANKRP91N782LFHPY722Q","[{""page_index"":0,""viewing_time"":1948},{""page_index"":1,""viewing_time"":1447},{""page_index"":2,""viewing_time"":806},{""page_index"":3,""viewing_time"":777},{""page_index"":4,""viewing_time"":3456},{""page_index"":5,""viewing_time"":3167},{""page_index"":6,""viewing_time"":3339},{""page_index"":7,""viewing_time"":1769}]","16710","","","","","","","",""
"","image-keyboard-response","2","21207","0.0-2.0","3K4J6M3CXFF4Q8QE4JQEZQO4FHKGAJ","A2H3CV7SIVYREN","3FW4EL5A3LANKRP91N782LFHPY722Q","","1749","img/food2.png","75","1751","1","0","4","0.8,0.2,0.8,0.2,0.2,0.8,0.2,0.8",""
"","html-keyboard-response","3","21517","0.0-3.0","3K4J6M3CXFF4Q8QE4JQEZQO4FHKGAJ","A2H3CV7SIVYREN","3FW4EL5A3LANKRP91N782LFHPY722Q","","null","<img src=""img/food2.png"" style=""width:200px;border:14px solid red;"">","null","","","","","",""
"","image-keyboard-response","4","22038","0.0-4.0","3K4J6M3CXFF4Q8QE4JQEZQO4FHKGAJ","A2H3CV7SIVYREN","3FW4EL5A3LANKRP91N782LFHPY722Q","","520","img/food2.png","76","520","2","1","4","0.8,0.2,0.8,0.2,0.2,0.8,0.2,0.8",""
"","html-keyboard-response","5","22355","0.0-5.0","3K4J6M3CXFF4Q8QE4JQEZQO4FHKGAJ","A2H3CV7SIVYREN","3FW4EL5A3LANKRP91N782LFHPY722Q","","null","<img src=""img/food2.png"" style=""width:200px; border:14px solid green;"">","null","","","","","",""
"","image-keyboard-response","6","22664","0.0-6.0","3K4J6M3CXFF4Q8QE4JQEZQO4FHKGAJ","A2H3CV7SIVYREN","3FW4EL5A3LANKRP91N782LFHPY722Q","","308","img/food2.png","76","309","2","1","4","0.8,0.2,0.8,0.2,0.2,0.8,0.2,0.8",""
"","html-keyboard-response","7","22969","0.0-7.0","3K4J6M3CXFF4Q8QE4JQEZQO4FHKGAJ","A2H3CV7SIVYREN","3FW4EL5A3LANKRP91N782LFHPY722Q","","null","<img src=""img/food2.png"" style=""width:200px; border:14px solid green;"">","null","","","","","",""
"","image-keyboard-response","8","23110","0.0-8.0","3K4J6M3CXFF4Q8QE4JQEZQO4FHKGAJ","A2H3CV7SIVYREN","3FW4EL5A3LANKRP91N782LFHPY722Q","","140","img/food1.png","76","141","2","0","2","0.8,0.2,0.8,0.2,0.2,0.8,0.2,0.8",""
"","html-keyboard-response","9","23412","0.0-9.0","3K4J6M3CXFF4Q8QE4JQEZQO4FHKGAJ","A2H3CV7SIVYREN","3FW4EL5A3LANKRP91N782LFHPY722Q","","null","<img src=""img/food1.png"" style=""width:200px;border:14px solid red;"">","null","","","","","",""
"","image-keyboard-response","10","23612","0.0-10.0","3K4J6M3CXFF4Q8QE4JQEZQO4FHKGAJ","A2H3CV7SIVYREN","3FW4EL5A3LANKRP91N782LFHPY722Q","","199","img/food3.png","76","201","2","0","1","0.8,0.2,0.8,0.2,0.2,0.8,0.2,0.8",""
"","html-keyboard-response","11","23915","0.0-11.0","3K4J6M3CXFF4Q8QE4JQEZQO4FHKGAJ","A2H3CV7SIVYREN","3FW4EL5A3LANKRP91N782LFHPY722Q","","null","<img src=""img/food3.png"" style=""width:200px;border:14px solid red;"">","null","","","","","",""
"","image-keyboard-response","12","23985","0.0-12.0","3K4J6M3CXFF4Q8QE4JQEZQO4FHKGAJ","A2H3CV7SIVYREN","3FW4EL5A3LANKRP91N782LFHPY722Q","","70","img/food2.png","75","70","1","1","4","0.8,0.2,0.8,0.2,0.2,0.8,0.2,0.8",""
"","html-keyboard-response","13","24393","0.0-13.0","3K4J6M3CXFF4Q8QE4JQEZQO4FHKGAJ","A2H3CV7SIVYREN","3FW4EL5A3LANKRP91N782LFHPY722Q","","null","<img src=""img/food2.png"" style=""width:200px; border:14px solid green;"">","null","","","","","",""
"","image-keyboard-response","14","24481","0.0-14.0","3K4J6M3CXFF4Q8QE4JQEZQO4FHKGAJ","A2H3CV7SIVYREN","3FW4EL5A3LANKRP91N782LFHPY722Q","","86","img/food3.png","76","87","2","0","1","0.8,0.2,0.8,0.2,0.2,0.8,0.2,0.8",""
"","html-keyboard-response","15","24785","0.0-15.0","3K4J6M3CXFF4Q8QE4JQEZQO4FHKGAJ","A2H3CV7SIVYREN","3FW4EL5A3LANKRP91N782LFHPY722Q","","null","<img src=""img/food3.png"" style=""width:200px;border:14px solid red;"">","null","","","","","",""
"","image-keyboard-response","16","24938","0.0-16.0","3K4J6M3CXFF4Q8QE4JQEZQO4FHKGAJ","A2H3CV7SIVYREN","3FW4EL5A3LANKRP91N782LFHPY722Q","","151","img/food2.png","75","153","1","0","4","0.8,0.2,0.8,0.2,0.2,0.8,0.2,0.8",""
"","html-keyboard-response","17","25242","0.0-17.0","3K4J6M3CXFF4Q8QE4JQEZQO4FHKGAJ","A2H3CV7SIVYREN","3FW4EL5A3LANKRP91N782LFHPY722Q","","null","<img src=""img/food2.png"" style=""width:200px;border:14px solid red;"">","null","","","","","",""
"","image-keyboard-response","18","25572","0.0-18.0","3K4J6M3CXFF4Q8QE4JQEZQO4FHKGAJ","A2H3CV7SIVYREN","3FW4EL5A3LANKRP91N782LFHPY722Q","","327","img/food1.png","76","330","2","0","2","0.8,0.2,0.8,0.2,0.2,0.8,0.2,0.8",""
"","html-keyboard-response","19","25874","0.0-19.0","3K4J6M3CXFF4Q8QE4JQEZQO4FHKGAJ","A2H3CV7SIVYREN","3FW4EL5A3LANKRP91N782LFHPY722Q","","null","<img src=""img/food1.png"" style=""width:200px;border:14px solid red;"">","null","","","","","",""
"","image-keyboard-response","20","26152","0.0-20.0","3K4J6M3CXFF4Q8QE4JQEZQO4FHKGAJ","A2H3CV7SIVYREN","3FW4EL5A3LANKRP91N782LFHPY722Q","","277","img/food2.png","76","277","2","1","4","0.8,0.2,0.8,0.2,0.2,0.8,0.2,0.8",""
"","html-keyboard-response","21","26482","0.0-21.0","3K4J6M3CXFF4Q8QE4JQEZQO4FHKGAJ","A2H3CV7SIVYREN","3FW4EL5A3LANKRP91N782LFHPY722Q","","null","<img src=""img/food2.png"" style=""width:200px; border:14px solid green;"">","null","","","","","",""
"","image-keyboard-response","22","26849","0.0-22.0","3K4J6M3CXFF4Q8QE4JQEZQO4FHKGAJ","A2H3CV7SIVYREN","3FW4EL5A3LANKRP91N782LFHPY722Q","","366","img/food6.png","76","367","2","0","3","0.8,0.2,0.8,0.2,0.2,0.8,0.2,0.8",""
"","html-keyboard-response","23","27151","0.0-23.0","3K4J6M3CXFF4Q8QE4JQEZQO4FHKGAJ","A2H3CV7SIVYREN","3FW4EL5A3LANKRP91N782LFHPY722Q","","null","<img src=""img/food6.png"" style=""width:200px;border:14px solid red;"">","null","","","","","",""
"","image-keyboard-response","24","27358","0.0-24.0","3K4J6M3CXFF4Q8QE4JQEZQO4FHKGAJ","A2H3CV7SIVYREN","3FW4EL5A3LANKRP91N782LFHPY722Q","","207","img/food6.png","76","207","2","1","3","0.8,0.2,0.8,0.2,0.2,0.8,0.2,0.8",""
"","html-keyboard-response","25","27671","0.0-25.0","3K4J6M3CXFF4Q8QE4JQEZQO4FHKGAJ","A2H3CV7SIVYREN","3FW4EL5A3LANKRP91N782LFHPY722Q","","null","<img src=""img/food6.png"" style=""width:200px; border:14px solid green;"">","null","","","","","",""
"","image-keyboard-response","26","27832","0.0-26.0","3K4J6M3CXFF4Q8QE4JQEZQO4FHKGAJ","A2H3CV7SIVYREN","3FW4EL5A3LANKRP91N782LFHPY722Q","","160","img/food1.png","75","161","1","1","2","0.8,0.2,0.8,0.2,0.2,0.8,0.2,0.8",""
"","html-keyboard-response","27","28132","0.0-27.0","3K4J6M3CXFF4Q8QE4JQEZQO4FHKGAJ","A2H3CV7SIVYREN","3FW4EL5A3LANKRP91N782LFHPY722Q","","null","<img src=""img/food1.png"" style=""width:200px; border:14px solid green;"">","null","","","","","",""
"","image-keyboard-response","28","28449","0.0-28.0","3K4J6M3CXFF4Q8QE4JQEZQO4FHKGAJ","A2H3CV7SIVYREN","3FW4EL5A3LANKRP91N782LFHPY722Q","","316","img/food3.png","76","317","2","1","1","0.8,0.2,0.8,0.2,0.2,0.8,0.2,0.8",""
"","html-keyboard-response","29","28756","0.0-29.0","3K4J6M3CXFF4Q8QE4JQEZQO4FHKGAJ","A2H3CV7SIVYREN","3FW4EL5A3LANKRP91N782LFHPY722Q","","null","<img src=""img/food3.png"" style=""width:200px; border:14px solid green;"">","null","","","","","",""
"","image-keyboard-response","30","28954","0.0-30.0","3K4J6M3CXFF4Q8QE4JQEZQO4FHKGAJ","A2H3CV7SIVYREN","3FW4EL5A3LANKRP91N782LFHPY722Q","","196","img/food6.png","75","198","1","0","3","0.8,0.2,0.8,0.2,0.2,0.8,0.2,0.8",""
"","html-keyboard-response","31","29258","0.0-31.0","3K4J6M3CXFF4Q8QE4JQEZQO4FHKGAJ","A2H3CV7SIVYREN","3FW4EL5A3LANKRP91N782LFHPY722Q","","null","<img src=""img/food6.png"" style=""width:200px;border:14px solid red;"">","null","","","","","",""
"","image-keyboard-response","32","29381","0.0-32.0","3K4J6M3CXFF4Q8QE4JQEZQO4FHKGAJ","A2H3CV7SIVYREN","3FW4EL5A3LANKRP91N782LFHPY722Q","","122","img/food3.png","76","123","2","0","1","0.8,0.2,0.8,0.2,0.2,0.8,0.2,0.8",""
"","html-keyboard-response","33","29682","0.0-33.0","3K4J6M3CXFF4Q8QE4JQEZQO4FHKGAJ","A2H3CV7SIVYREN","3FW4EL5A3LANKRP91N782LFHPY722Q","","null","<img src=""img/food3.png"" style=""width:200px;border:14px solid red;"">","null","","","","","",""
"","image-keyboard-response","34","29896","0.0-34.0","3K4J6M3CXFF4Q8QE4JQEZQO4FHKGAJ","A2H3CV7SIVYREN","3FW4EL5A3LANKRP91N782LFHPY722Q","","213","img/food6.png","75","215","1","0","3","0.8,0.2,0.8,0.2,0.2,0.8,0.2,0.8",""
"","html-keyboard-response","35","30199","0.0-35.0","3K4J6M3CXFF4Q8QE4JQEZQO4FHKGAJ","A2H3CV7SIVYREN","3FW4EL5A3LANKRP91N782LFHPY722Q","","null","<img src=""img/food6.png"" style=""width:200px;border:14px solid red;"">","null","","","","","",""
"","image-keyboard-response","36","30468","0.0-36.0","3K4J6M3CXFF4Q8QE4JQEZQO4FHKGAJ","A2H3CV7SIVYREN","3FW4EL5A3LANKRP91N782LFHPY722Q","","268","img/food6.png","76","269","2","0","3","0.8,0.2,0.8,0.2,0.2,0.8,0.2,0.8",""
"","html-keyboard-response","37","30774","0.0-37.0","3K4J6M3CXFF4Q8QE4JQEZQO4FHKGAJ","A2H3CV7SIVYREN","3FW4EL5A3LANKRP91N782LFHPY722Q","","null","<img src=""img/food6.png"" style=""width:200px;border:14px solid red;"">","null","","","","","",""
"","image-keyboard-response","38","30950","0.0-38.0","3K4J6M3CXFF4Q8QE4JQEZQO4FHKGAJ","A2H3CV7SIVYREN","3FW4EL5A3LANKRP91N782LFHPY722Q","","175","img/food6.png","76","176","2","1","3","0.8,0.2,0.8,0.2,0.2,0.8,0.2,0.8",""
"","html-keyboard-response","39","31253","0.0-39.0","3K4J6M3CXFF4Q8QE4JQEZQO4FHKGAJ","A2H3CV7SIVYREN","3FW4EL5A3LANKRP91N782LFHPY722Q","","null","<img src=""img/food6.png"" style=""width:200px; border:14px solid green;"">","null","","","","","",""
"","image-keyboard-response","40","31617","0.0-40.0","3K4J6M3CXFF4Q8QE4JQEZQO4FHKGAJ","A2H3CV7SIVYREN","3FW4EL5A3LANKRP91N782LFHPY722Q","","363","img/food6.png","76","364","2","1","3","0.8,0.2,0.8,0.2,0.2,0.8,0.2,0.8",""
"","html-keyboard-response","41","31921","0.0-41.0","3K4J6M3CXFF4Q8QE4JQEZQO4FHKGAJ","A2H3CV7SIVYREN","3FW4EL5A3LANKRP91N782LFHPY722Q","","null","<img src=""img/food6.png"" style=""width:200px; border:14px solid green;"">","null","","","","","",""
"","image-keyboard-response","42","31959","0.0-42.0","3K4J6M3CXFF4Q8QE4JQEZQO4FHKGAJ","A2H3CV7SIVYREN","3FW4EL5A3LANKRP91N782LFHPY722Q","","36","img/food6.png","76","38","2","0","3","0.8,0.2,0.8,0.2,0.2,0.8,0.2,0.8",""
"","html-keyboard-response","43","32291","0.0-43.0","3K4J6M3CXFF4Q8QE4JQEZQO4FHKGAJ","A2H3CV7SIVYREN","3FW4EL5A3LANKRP91N782LFHPY722Q","","null","<img src=""img/food6.png"" style=""width:200px;border:14px solid red;"">","null","","","","","",""
"","image-keyboard-response","44","32367","0.0-44.0","3K4J6M3CXFF4Q8QE4JQEZQO4FHKGAJ","A2H3CV7SIVYREN","3FW4EL5A3LANKRP91N782LFHPY722Q","","74","img/food3.png","76","76","2","0","1","0.8,0.2,0.8,0.2,0.2,0.8,0.2,0.8",""
"","html-keyboard-response","45","32668","0.0-45.0","3K4J6M3CXFF4Q8QE4JQEZQO4FHKGAJ","A2H3CV7SIVYREN","3FW4EL5A3LANKRP91N782LFHPY722Q","","null","<img src=""img/food3.png"" style=""width:200px;border:14px solid red;"">","null","","","","","",""
"","image-keyboard-response","46","33196","0.0-46.0","3K4J6M3CXFF4Q8QE4JQEZQO4FHKGAJ","A2H3CV7SIVYREN","3FW4EL5A3LANKRP91N782LFHPY722Q","","526","img/food3.png","76","527","2","0","1","0.8,0.2,0.8,0.2,0.2,0.8,0.2,0.8",""
"","html-keyboard-response","47","33504","0.0-47.0","3K4J6M3CXFF4Q8QE4JQEZQO4FHKGAJ","A2H3CV7SIVYREN","3FW4EL5A3LANKRP91N782LFHPY722Q","","null","<img src=""img/food3.png"" style=""width:200px;border:14px solid red;"">","null","","","","","",""
"","image-keyboard-response","48","33590","0.0-48.0","3K4J6M3CXFF4Q8QE4JQEZQO4FHKGAJ","A2H3CV7SIVYREN","3FW4EL5A3LANKRP91N782LFHPY722Q","","84","img/food2.png","75","86","1","0","4","0.8,0.2,0.8,0.2,0.2,0.8,0.2,0.8",""
"","html-keyboard-response","49","33890","0.0-49.0","3K4J6M3CXFF4Q8QE4JQEZQO4FHKGAJ","A2H3CV7SIVYREN","3FW4EL5A3LANKRP91N782LFHPY722Q","","null","<img src=""img/food2.png"" style=""width:200px;border:14px solid red;"">","null","","","","","",""
"","image-keyboard-response","50","33931","0.0-50.0","3K4J6M3CXFF4Q8QE4JQEZQO4FHKGAJ","A2H3CV7SIVYREN","3FW4EL5A3LANKRP91N782LFHPY722Q","","40","img/food6.png","75","40","1","0","3","0.8,0.2,0.8,0.2,0.2,0.8,0.2,0.8",""
"","html-keyboard-response","51","34240","0.0-51.0","3K4J6M3CXFF4Q8QE4JQEZQO4FHKGAJ","A2H3CV7SIVYREN","3FW4EL5A3LANKRP91N782LFHPY722Q","","null","<img src=""img/food6.png"" style=""width:200px;border:14px solid red;"">","null","","","","","",""
"","image-keyboard-response","52","34263","0.0-52.0","3K4J6M3CXFF4Q8QE4JQEZQO4FHKGAJ","A2H3CV7SIVYREN","3FW4EL5A3LANKRP91N782LFHPY722Q","","22","img/food6.png","75","23","1","1","3","0.8,0.2,0.8,0.2,0.2,0.8,0.2,0.8",""
"","html-keyboard-response","53","34568","0.0-53.0","3K4J6M3CXFF4Q8QE4JQEZQO4FHKGAJ","A2H3CV7SIVYREN","3FW4EL5A3LANKRP91N782LFHPY722Q","","null","<img src=""img/food6.png"" style=""width:200px; border:14px solid green;"">","null","","","","","",""
"","image-keyboard-response","54","34711","0.0-54.0","3K4J6M3CXFF4Q8QE4JQEZQO4FHKGAJ","A2H3CV7SIVYREN","3FW4EL5A3LANKRP91N782LFHPY722Q","","142","img/food2.png","75","144","1","0","4","0.8,0.2,0.8,0.2,0.2,0.8,0.2,0.8",""
"","html-keyboard-response","55","35017","0.0-55.0","3K4J6M3CXFF4Q8QE4JQEZQO4FHKGAJ","A2H3CV7SIVYREN","3FW4EL5A3LANKRP91N782LFHPY722Q","","null","<img src=""img/food2.png"" style=""width:200px;border:14px solid red;"">","null","","","","","",""
"","image-keyboard-response","56","35119","0.0-56.0","3K4J6M3CXFF4Q8QE4JQEZQO4FHKGAJ","A2H3CV7SIVYREN","3FW4EL5A3LANKRP91N782LFHPY722Q","","99","img/food1.png","75","102","1","1","2","0.8,0.2,0.8,0.2,0.2,0.8,0.2,0.8",""
"","html-keyboard-response","57","35422","0.0-57.0","3K4J6M3CXFF4Q8QE4JQEZQO4FHKGAJ","A2H3CV7SIVYREN","3FW4EL5A3LANKRP91N782LFHPY722Q","","null","<img src=""img/food1.png"" style=""width:200px; border:14px solid green;"">","null","","","","","",""
"","image-keyboard-response","58","35485","0.0-58.0","3K4J6M3CXFF4Q8QE4JQEZQO4FHKGAJ","A2H3CV7SIVYREN","3FW4EL5A3LANKRP91N782LFHPY722Q","","61","img/food2.png","75","62","1","1","4","0.8,0.2,0.8,0.2,0.2,0.8,0.2,0.8",""
"","html-keyboard-response","59","35789","0.0-59.0","3K4J6M3CXFF4Q8QE4JQEZQO4FHKGAJ","A2H3CV7SIVYREN","3FW4EL5A3LANKRP91N782LFHPY722Q","","null","<img src=""img/food2.png"" style=""width:200px; border:14px solid green;"">","null","","","","","",""
"","image-keyboard-response","60","35849","0.0-60.0","3K4J6M3CXFF4Q8QE4JQEZQO4FHKGAJ","A2H3CV7SIVYREN","3FW4EL5A3LANKRP91N782LFHPY722Q","","58","img/food1.png","75","59","1","0","2","0.8,0.2,0.8,0.2,0.2,0.8,0.2,0.8",""
"","html-keyboard-response","61","36152","0.0-61.0","3K4J6M3CXFF4Q8QE4JQEZQO4FHKGAJ","A2H3CV7SIVYREN","3FW4EL5A3LANKRP91N782LFHPY722Q","","null","<img src=""img/food1.png"" style=""width:200px;border:14px solid red;"">","null","","","","","",""
"","image-keyboard-response","62","36262","0.0-62.0","3K4J6M3CXFF4Q8QE4JQEZQO4FHKGAJ","A2H3CV7SIVYREN","3FW4EL5A3LANKRP91N782LFHPY722Q","","108","img/food1.png","75","111","1","0","2","0.8,0.2,0.8,0.2,0.2,0.8,0.2,0.8",""
"","html-keyboard-response","63","36567","0.0-63.0","3K4J6M3CXFF4Q8QE4JQEZQO4FHKGAJ","A2H3CV7SIVYREN","3FW4EL5A3LANKRP91N782LFHPY722Q","","null","<img src=""img/food1.png"" style=""width:200px;border:14px solid red;"">","null","","","","","",""
"","image-keyboard-response","64","36624","0.0-64.0","3K4J6M3CXFF4Q8QE4JQEZQO4FHKGAJ","A2H3CV7SIVYREN","3FW4EL5A3LANKRP91N782LFHPY722Q","","54","img/food2.png","75","56","1","0","4","0.8,0.2,0.8,0.2,0.2,0.8,0.2,0.8",""
"","html-keyboard-response","65","36927","0.0-65.0","3K4J6M3CXFF4Q8QE4JQEZQO4FHKGAJ","A2H3CV7SIVYREN","3FW4EL5A3LANKRP91N782LFHPY722Q","","null","<img src=""img/food2.png"" style=""width:200px;border:14px solid red;"">","null","","","","","",""
"","image-keyboard-response","66","37001","0.0-66.0","3K4J6M3CXFF4Q8QE4JQEZQO4FHKGAJ","A2H3CV7SIVYREN","3FW4EL5A3LANKRP91N782LFHPY722Q","","73","img/food6.png","75","74","1","0","3","0.8,0.2,0.8,0.2,0.2,0.8,0.2,0.8",""
"","html-keyboard-response","67","37360","0.0-67.0","3K4J6M3CXFF4Q8QE4JQEZQO4FHKGAJ","A2H3CV7SIVYREN","3FW4EL5A3LANKRP91N782LFHPY722Q","","null","<img src=""img/food6.png"" style=""width:200px;border:14px solid red;"">","null","","","","","",""
"","image-keyboard-response","68","37493","0.0-68.0","3K4J6M3CXFF4Q8QE4JQEZQO4FHKGAJ","A2H3CV7SIVYREN","3FW4EL5A3LANKRP91N782LFHPY722Q","","131","img/food6.png","76","132","2","0","3","0.8,0.2,0.8,0.2,0.2,0.8,0.2,0.8",""
"","html-keyboard-response","69","37798","0.0-69.0","3K4J6M3CXFF4Q8QE4JQEZQO4FHKGAJ","A2H3CV7SIVYREN","3FW4EL5A3LANKRP91N782LFHPY722Q","","null","<img src=""img/food6.png"" style=""width:200px;border:14px solid red;"">","null","","","","","",""
"","image-keyboard-response","70","37853","0.0-70.0","3K4J6M3CXFF4Q8QE4JQEZQO4FHKGAJ","A2H3CV7SIVYREN","3FW4EL5A3LANKRP91N782LFHPY722Q","","53","img/food1.png","76","54","2","0","2","0.8,0.2,0.8,0.2,0.2,0.8,0.2,0.8",""
"","html-keyboard-response","71","38161","0.0-71.0","3K4J6M3CXFF4Q8QE4JQEZQO4FHKGAJ","A2H3CV7SIVYREN","3FW4EL5A3LANKRP91N782LFHPY722Q","","null","<img src=""img/food1.png"" style=""width:200px;border:14px solid red;"">","null","","","","","",""
"","image-keyboard-response","72","38182","0.0-72.0","3K4J6M3CXFF4Q8QE4JQEZQO4FHKGAJ","A2H3CV7SIVYREN","3FW4EL5A3LANKRP91N782LFHPY722Q","","20","img/food1.png","76","20","2","0","2","0.8,0.2,0.8,0.2,0.2,0.8,0.2,0.8",""
"","html-keyboard-response","73","38486","0.0-73.0","3K4J6M3CXFF4Q8QE4JQEZQO4FHKGAJ","A2H3CV7SIVYREN","3FW4EL5A3LANKRP91N782LFHPY722Q","","null","<img src=""img/food1.png"" style=""width:200px;border:14px solid red;"">","null","","","","","",""
"","image-keyboard-response","74","38586","0.0-74.0","3K4J6M3CXFF4Q8QE4JQEZQO4FHKGAJ","A2H3CV7SIVYREN","3FW4EL5A3LANKRP91N782LFHPY722Q","","99","img/food1.png","76","100","2","1","2","0.8,0.2,0.8,0.2,0.2,0.8,0.2,0.8",""
"","html-keyboard-response","75","38890","0.0-75.0","3K4J6M3CXFF4Q8QE4JQEZQO4FHKGAJ","A2H3CV7SIVYREN","3FW4EL5A3LANKRP91N782LFHPY722Q","","null","<img src=""img/food1.png"" style=""width:200px; border:14px solid green;"">","null","","","","","",""
"","image-keyboard-response","76","39022","0.0-76.0","3K4J6M3CXFF4Q8QE4JQEZQO4FHKGAJ","A2H3CV7SIVYREN","3FW4EL5A3LANKRP91N782LFHPY722Q","","132","img/food2.png","76","132","2","0","4","0.8,0.2,0.8,0.2,0.2,0.8,0.2,0.8",""
"","html-keyboard-response","77","39335","0.0-77.0","3K4J6M3CXFF4Q8QE4JQEZQO4FHKGAJ","A2H3CV7SIVYREN","3FW4EL5A3LANKRP91N782LFHPY722Q","","null","<img src=""img/food2.png"" style=""width:200px;border:14px solid red;"">","null","","","","","",""
"","image-keyboard-response","78","39438","0.0-78.0","3K4J6M3CXFF4Q8QE4JQEZQO4FHKGAJ","A2H3CV7SIVYREN","3FW4EL5A3LANKRP91N782LFHPY722Q","","102","img/food2.png","75","104","1","0","4","0.8,0.2,0.8,0.2,0.2,0.8,0.2,0.8",""
"","html-keyboard-response","79","39741","0.0-79.0","3K4J6M3CXFF4Q8QE4JQEZQO4FHKGAJ","A2H3CV7SIVYREN","3FW4EL5A3LANKRP91N782LFHPY722Q","","null","<img src=""img/food2.png"" style=""width:200px;border:14px solid red;"">","null","","","","","",""
"","image-keyboard-response","80","39790","0.0-80.0","3K4J6M3CXFF4Q8QE4JQEZQO4FHKGAJ","A2H3CV7SIVYREN","3FW4EL5A3LANKRP91N782LFHPY722Q","","48","img/food1.png","76","48","2","0","2","0.8,0.2,0.8,0.2,0.2,0.8,0.2,0.8",""
"","html-keyboard-response","81","40092","0.0-81.0","3K4J6M3CXFF4Q8QE4JQEZQO4FHKGAJ","A2H3CV7SIVYREN","3FW4EL5A3LANKRP91N782LFHPY722Q","","null","<img src=""img/food1.png"" style=""width:200px;border:14px solid red;"">","null","","","","","",""
"","image-keyboard-response","82","40245","0.0-82.0","3K4J6M3CXFF4Q8QE4JQEZQO4FHKGAJ","A2H3CV7SIVYREN","3FW4EL5A3LANKRP91N782LFHPY722Q","","152","img/food2.png","75","153","1","0","4","0.8,0.2,0.8,0.2,0.2,0.8,0.2,0.8",""
"","html-keyboard-response","83","40613","0.0-83.0","3K4J6M3CXFF4Q8QE4JQEZQO4FHKGAJ","A2H3CV7SIVYREN","3FW4EL5A3LANKRP91N782LFHPY722Q","","null","<img src=""img/food2.png"" style=""width:200px;border:14px solid red;"">","null","","","","","",""
"","image-keyboard-response","84","40623","0.0-84.0","3K4J6M3CXFF4Q8QE4JQEZQO4FHKGAJ","A2H3CV7SIVYREN","3FW4EL5A3LANKRP91N782LFHPY722Q","","10","img/food3.png","76","10","2","0","1","0.8,0.2,0.8,0.2,0.2,0.8,0.2,0.8",""
"","html-keyboard-response","85","40929","0.0-85.0","3K4J6M3CXFF4Q8QE4JQEZQO4FHKGAJ","A2H3CV7SIVYREN","3FW4EL5A3LANKRP91N782LFHPY722Q","","null","<img src=""img/food3.png"" style=""width:200px;border:14px solid red;"">","null","","","","","",""
"","image-keyboard-response","86","40976","0.0-86.0","3K4J6M3CXFF4Q8QE4JQEZQO4FHKGAJ","A2H3CV7SIVYREN","3FW4EL5A3LANKRP91N782LFHPY722Q","","47","img/food1.png","76","47","2","1","2","0.8,0.2,0.8,0.2,0.2,0.8,0.2,0.8",""
"","html-keyboard-response","87","41284","0.0-87.0","3K4J6M3CXFF4Q8QE4JQEZQO4FHKGAJ","A2H3CV7SIVYREN","3FW4EL5A3LANKRP91N782LFHPY722Q","","null","<img src=""img/food1.png"" style=""width:200px; border:14px solid green;"">","null","","","","","",""
"","image-keyboard-response","88","41439","0.0-88.0","3K4J6M3CXFF4Q8QE4JQEZQO4FHKGAJ","A2H3CV7SIVYREN","3FW4EL5A3LANKRP91N782LFHPY722Q","","152","img/food2.png","76","154","2","1","4","0.8,0.2,0.8,0.2,0.2,0.8,0.2,0.8",""
"","html-keyboard-response","89","41746","0.0-89.0","3K4J6M3CXFF4Q8QE4JQEZQO4FHKGAJ","A2H3CV7SIVYREN","3FW4EL5A3LANKRP91N782LFHPY722Q","","null","<img src=""img/food2.png"" style=""width:200px; border:14px solid green;"">","null","","","","","",""
"","image-keyboard-response","90","42025","0.0-90.0","3K4J6M3CXFF4Q8QE4JQEZQO4FHKGAJ","A2H3CV7SIVYREN","3FW4EL5A3LANKRP91N782LFHPY722Q","","277","img/food2.png","76","278","2","0","4","0.8,0.2,0.8,0.2,0.2,0.8,0.2,0.8",""
"","html-keyboard-response","91","42439","0.0-91.0","3K4J6M3CXFF4Q8QE4JQEZQO4FHKGAJ","A2H3CV7SIVYREN","3FW4EL5A3LANKRP91N782LFHPY722Q","","null","<img src=""img/food2.png"" style=""width:200px;border:14px solid red;"">","null","","","","","",""
"","image-keyboard-response","92","42677","0.0-92.0","3K4J6M3CXFF4Q8QE4JQEZQO4FHKGAJ","A2H3CV7SIVYREN","3FW4EL5A3LANKRP91N782LFHPY722Q","","236","img/food1.png","76","238","2","0","2","0.8,0.2,0.8,0.2,0.2,0.8,0.2,0.8",""
"","html-keyboard-response","93","42982","0.0-93.0","3K4J6M3CXFF4Q8QE4JQEZQO4FHKGAJ","A2H3CV7SIVYREN","3FW4EL5A3LANKRP91N782LFHPY722Q","","null","<img src=""img/food1.png"" style=""width:200px;border:14px solid red;"">","null","","","","","",""
"","image-keyboard-response","94","43052","0.0-94.0","3K4J6M3CXFF4Q8QE4JQEZQO4FHKGAJ","A2H3CV7SIVYREN","3FW4EL5A3LANKRP91N782LFHPY722Q","","69","img/food3.png","75","69","1","1","1","0.8,0.2,0.8,0.2,0.2,0.8,0.2,0.8",""
"","html-keyboard-response","95","43386","0.0-95.0","3K4J6M3CXFF4Q8QE4JQEZQO4FHKGAJ","A2H3CV7SIVYREN","3FW4EL5A3LANKRP91N782LFHPY722Q","","null","<img src=""img/food3.png"" style=""width:200px; border:14px solid green;"">","null","","","","","",""
"","image-keyboard-response","96","43392","0.0-96.0","3K4J6M3CXFF4Q8QE4JQEZQO4FHKGAJ","A2H3CV7SIVYREN","3FW4EL5A3LANKRP91N782LFHPY722Q","","5","img/food6.png","76","6","2","1","3","0.8,0.2,0.8,0.2,0.2,0.8,0.2,0.8",""
"","html-keyboard-response","97","43698","0.0-97.0","3K4J6M3CXFF4Q8QE4JQEZQO4FHKGAJ","A2H3CV7SIVYREN","3FW4EL5A3LANKRP91N782LFHPY722Q","","null","<img src=""img/food6.png"" style=""width:200px; border:14px solid green;"">","null","","","","","",""
"","image-keyboard-response","98","43757","0.0-98.0","3K4J6M3CXFF4Q8QE4JQEZQO4FHKGAJ","A2H3CV7SIVYREN","3FW4EL5A3LANKRP91N782LFHPY722Q","","58","img/food6.png","75","60","1","0","3","0.8,0.2,0.8,0.2,0.2,0.8,0.2,0.8",""
"","html-keyboard-response","99","44058","0.0-99.0","3K4J6M3CXFF4Q8QE4JQEZQO4FHKGAJ","A2H3CV7SIVYREN","3FW4EL5A3LANKRP91N782LFHPY722Q","","null","<img src=""img/food6.png"" style=""width:200px;border:14px solid red;"">","null","","","","","",""
"","image-keyboard-response","100","44452","0.0-100.0","3K4J6M3CXFF4Q8QE4JQEZQO4FHKGAJ","A2H3CV7SIVYREN","3FW4EL5A3LANKRP91N782LFHPY722Q","","394","img/food6.png","75","394","1","0","3","0.8,0.2,0.8,0.2,0.2,0.8,0.2,0.8",""
"","html-keyboard-response","101","44762","0.0-101.0","3K4J6M3CXFF4Q8QE4JQEZQO4FHKGAJ","A2H3CV7SIVYREN","3FW4EL5A3LANKRP91N782LFHPY722Q","","null","<img src=""img/food6.png"" style=""width:200px;border:14px solid red;"">","null","","","","","",""
"","image-keyboard-response","102","45032","0.0-102.0","3K4J6M3CXFF4Q8QE4JQEZQO4FHKGAJ","A2H3CV7SIVYREN","3FW4EL5A3LANKRP91N782LFHPY722Q","","267","img/food1.png","75","269","1","1","2","0.8,0.2,0.8,0.2,0.2,0.8,0.2,0.8",""
"","html-keyboard-response","103","45338","0.0-103.0","3K4J6M3CXFF4Q8QE4JQEZQO4FHKGAJ","A2H3CV7SIVYREN","3FW4EL5A3LANKRP91N782LFHPY722Q","","null","<img src=""img/food1.png"" style=""width:200px; border:14px solid green;"">","null","","","","","",""
"","image-keyboard-response","104","45576","0.0-104.0","3K4J6M3CXFF4Q8QE4JQEZQO4FHKGAJ","A2H3CV7SIVYREN","3FW4EL5A3LANKRP91N782LFHPY722Q","","237","img/food3.png","75","238","1","1","1","0.8,0.2,0.8,0.2,0.2,0.8,0.2,0.8",""
"","html-keyboard-response","105","45881","0.0-105.0","3K4J6M3CXFF4Q8QE4JQEZQO4FHKGAJ","A2H3CV7SIVYREN","3FW4EL5A3LANKRP91N782LFHPY722Q","","null","<img src=""img/food3.png"" style=""width:200px; border:14px solid green;"">","null","","","","","",""
"","image-keyboard-response","106","46018","0.0-106.0","3K4J6M3CXFF4Q8QE4JQEZQO4FHKGAJ","A2H3CV7SIVYREN","3FW4EL5A3LANKRP91N782LFHPY722Q","","136","img/food6.png","75","137","1","0","3","0.8,0.2,0.8,0.2,0.2,0.8,0.2,0.8",""
"","html-keyboard-response","107","46335","0.0-107.0","3K4J6M3CXFF4Q8QE4JQEZQO4FHKGAJ","A2H3CV7SIVYREN","3FW4EL5A3LANKRP91N782LFHPY722Q","","null","<img src=""img/food6.png"" style=""width:200px;border:14px solid red;"">","null","","","","","",""
"","image-keyboard-response","108","46634","0.0-108.0","3K4J6M3CXFF4Q8QE4JQEZQO4FHKGAJ","A2H3CV7SIVYREN","3FW4EL5A3LANKRP91N782LFHPY722Q","","297","img/food3.png","76","298","2","0","1","0.8,0.2,0.8,0.2,0.2,0.8,0.2,0.8",""
"","html-keyboard-response","109","46934","0.0-109.0","3K4J6M3CXFF4Q8QE4JQEZQO4FHKGAJ","A2H3CV7SIVYREN","3FW4EL5A3LANKRP91N782LFHPY722Q","","null","<img src=""img/food3.png"" style=""width:200px;border:14px solid red;"">","null","","","","","",""
"","image-keyboard-response","110","47057","0.0-110.0","3K4J6M3CXFF4Q8QE4JQEZQO4FHKGAJ","A2H3CV7SIVYREN","3FW4EL5A3LANKRP91N782LFHPY722Q","","122","img/food2.png","75","123","1","0","4","0.8,0.2,0.8,0.2,0.2,0.8,0.2,0.8",""
"","html-keyboard-response","111","47436","0.0-111.0","3K4J6M3CXFF4Q8QE4JQEZQO4FHKGAJ","A2H3CV7SIVYREN","3FW4EL5A3LANKRP91N782LFHPY722Q","","null","<img src=""img/food2.png"" style=""width:200px;border:14px solid red;"">","null","","","","","",""
"","image-keyboard-response","112","47512","0.0-112.0","3K4J6M3CXFF4Q8QE4JQEZQO4FHKGAJ","A2H3CV7SIVYREN","3FW4EL5A3LANKRP91N782LFHPY722Q","","75","img/food3.png","76","76","2","0","1","0.8,0.2,0.8,0.2,0.2,0.8,0.2,0.8",""
"","html-keyboard-response","113","47820","0.0-113.0","3K4J6M3CXFF4Q8QE4JQEZQO4FHKGAJ","A2H3CV7SIVYREN","3FW4EL5A3LANKRP91N782LFHPY722Q","","null","<img src=""img/food3.png"" style=""width:200px;border:14px solid red;"">","null","","","","","",""
"","image-keyboard-response","114","47918","0.0-114.0","3K4J6M3CXFF4Q8QE4JQEZQO4FHKGAJ","A2H3CV7SIVYREN","3FW4EL5A3LANKRP91N782LFHPY722Q","","97","img/food6.png","75","98","1","0","3","0.8,0.2,0.8,0.2,0.2,0.8,0.2,0.8",""
"","html-keyboard-response","115","48222","0.0-115.0","3K4J6M3CXFF4Q8QE4JQEZQO4FHKGAJ","A2H3CV7SIVYREN","3FW4EL5A3LANKRP91N782LFHPY722Q","","null","<img src=""img/food6.png"" style=""width:200px;border:14px solid red;"">","null","","","","","",""
"","image-keyboard-response","116","48443","0.0-116.0","3K4J6M3CXFF4Q8QE4JQEZQO4FHKGAJ","A2H3CV7SIVYREN","3FW4EL5A3LANKRP91N782LFHPY722Q","","220","img/food1.png","76","221","2","0","2","0.8,0.2,0.8,0.2,0.2,0.8,0.2,0.8",""
"","html-keyboard-response","117","48748","0.0-117.0","3K4J6M3CXFF4Q8QE4JQEZQO4FHKGAJ","A2H3CV7SIVYREN","3FW4EL5A3LANKRP91N782LFHPY722Q","","null","<img src=""img/food1.png"" style=""width:200px;border:14px solid red;"">","null","","","","","",""
"","image-keyboard-response","118","49006","0.0-118.0","3K4J6M3CXFF4Q8QE4JQEZQO4FHKGAJ","A2H3CV7SIVYREN","3FW4EL5A3LANKRP91N782LFHPY722Q","","257","img/food3.png","76","258","2","0","1","0.8,0.2,0.8,0.2,0.2,0.8,0.2,0.8",""
"","html-keyboard-response","119","49316","0.0-119.0","3K4J6M3CXFF4Q8QE4JQEZQO4FHKGAJ","A2H3CV7SIVYREN","3FW4EL5A3LANKRP91N782LFHPY722Q","","null","<img src=""img/food3.png"" style=""width:200px;border:14px solid red;"">","null","","","","","",""
"","image-keyboard-response","120","49328","0.0-120.0","3K4J6M3CXFF4Q8QE4JQEZQO4FHKGAJ","A2H3CV7SIVYREN","3FW4EL5A3LANKRP91N782LFHPY722Q","","11","img/food3.png","76","12","2","0","1","0.8,0.2,0.8,0.2,0.2,0.8,0.2,0.8",""
"","html-keyboard-response","121","49634","0.0-121.0","3K4J6M3CXFF4Q8QE4JQEZQO4FHKGAJ","A2H3CV7SIVYREN","3FW4EL5A3LANKRP91N782LFHPY722Q","","null","<img src=""img/food3.png"" style=""width:200px;border:14px solid red;"">","null","","","","","",""
"","image-keyboard-response","122","49646","0.0-122.0","3K4J6M3CXFF4Q8QE4JQEZQO4FHKGAJ","A2H3CV7SIVYREN","3FW4EL5A3LANKRP91N782LFHPY722Q","","11","img/food2.png","75","12","1","0","4","0.8,0.2,0.8,0.2,0.2,0.8,0.2,0.8",""
"","html-keyboard-response","123","49951","0.0-123.0","3K4J6M3CXFF4Q8QE4JQEZQO4FHKGAJ","A2H3CV7SIVYREN","3FW4EL5A3LANKRP91N782LFHPY722Q","","null","<img src=""img/food2.png"" style=""width:200px;border:14px solid red;"">","null","","","","","",""
"","image-keyboard-response","124","51021","0.0-124.0","3K4J6M3CXFF4Q8QE4JQEZQO4FHKGAJ","A2H3CV7SIVYREN","3FW4EL5A3LANKRP91N782LFHPY722Q","","1070","img/food3.png","76","1070","2","0","1","0.8,0.2,0.8,0.2,0.2,0.8,0.2,0.8",""
"","html-keyboard-response","125","51325","0.0-125.0","3K4J6M3CXFF4Q8QE4JQEZQO4FHKGAJ","A2H3CV7SIVYREN","3FW4EL5A3LANKRP91N782LFHPY722Q","","null","<img src=""img/food3.png"" style=""width:200px;border:14px solid red;"">","null","","","","","",""
"","image-keyboard-response","126","51749","0.0-126.0","3K4J6M3CXFF4Q8QE4JQEZQO4FHKGAJ","A2H3CV7SIVYREN","3FW4EL5A3LANKRP91N782LFHPY722Q","","423","img/food3.png","76","423","2","0","1","0.8,0.2,0.8,0.2,0.2,0.8,0.2,0.8",""
"","html-keyboard-response","127","52050","0.0-127.0","3K4J6M3CXFF4Q8QE4JQEZQO4FHKGAJ","A2H3CV7SIVYREN","3FW4EL5A3LANKRP91N782LFHPY722Q","","null","<img src=""img/food3.png"" style=""width:200px;border:14px solid red;"">","null","","","","","",""
"","image-keyboard-response","128","52485","0.0-128.0","3K4J6M3CXFF4Q8QE4JQEZQO4FHKGAJ","A2H3CV7SIVYREN","3FW4EL5A3LANKRP91N782LFHPY722Q","","434","img/food2.png","76","434","2","1","4","0.8,0.2,0.8,0.2,0.2,0.8,0.2,0.8",""
"","html-keyboard-response","129","52792","0.0-129.0","3K4J6M3CXFF4Q8QE4JQEZQO4FHKGAJ","A2H3CV7SIVYREN","3FW4EL5A3LANKRP91N782LFHPY722Q","","null","<img src=""img/food2.png"" style=""width:200px; border:14px solid green;"">","null","","","","","",""
"","image-keyboard-response","130","52965","0.0-130.0","3K4J6M3CXFF4Q8QE4JQEZQO4FHKGAJ","A2H3CV7SIVYREN","3FW4EL5A3LANKRP91N782LFHPY722Q","","172","img/food1.png","76","173","2","1","2","0.8,0.2,0.8,0.2,0.2,0.8,0.2,0.8",""
"","html-keyboard-response","131","53267","0.0-131.0","3K4J6M3CXFF4Q8QE4JQEZQO4FHKGAJ","A2H3CV7SIVYREN","3FW4EL5A3LANKRP91N782LFHPY722Q","","null","<img src=""img/food1.png"" style=""width:200px; border:14px solid green;"">","null","","","","","",""
"","image-keyboard-response","132","53505","0.0-132.0","3K4J6M3CXFF4Q8QE4JQEZQO4FHKGAJ","A2H3CV7SIVYREN","3FW4EL5A3LANKRP91N782LFHPY722Q","","236","img/food3.png","76","237","2","0","1","0.8,0.2,0.8,0.2,0.2,0.8,0.2,0.8",""
"","html-keyboard-response","133","53807","0.0-133.0","3K4J6M3CXFF4Q8QE4JQEZQO4FHKGAJ","A2H3CV7SIVYREN","3FW4EL5A3LANKRP91N782LFHPY722Q","","null","<img src=""img/food3.png"" style=""width:200px;border:14px solid red;"">","null","","","","","",""
"","image-keyboard-response","134","54072","0.0-134.0","3K4J6M3CXFF4Q8QE4JQEZQO4FHKGAJ","A2H3CV7SIVYREN","3FW4EL5A3LANKRP91N782LFHPY722Q","","265","img/food1.png","76","265","2","0","2","0.8,0.2,0.8,0.2,0.2,0.8,0.2,0.8",""
"","html-keyboard-response","135","54376","0.0-135.0","3K4J6M3CXFF4Q8QE4JQEZQO4FHKGAJ","A2H3CV7SIVYREN","3FW4EL5A3LANKRP91N782LFHPY722Q","","null","<img src=""img/food1.png"" style=""width:200px;border:14px solid red;"">","null","","","","","",""
"","image-keyboard-response","136","54533","0.0-136.0","3K4J6M3CXFF4Q8QE4JQEZQO4FHKGAJ","A2H3CV7SIVYREN","3FW4EL5A3LANKRP91N782LFHPY722Q","","156","img/food6.png","76","157","2","1","3","0.8,0.2,0.8,0.2,0.2,0.8,0.2,0.8",""
"","html-keyboard-response","137","54834","0.0-137.0","3K4J6M3CXFF4Q8QE4JQEZQO4FHKGAJ","A2H3CV7SIVYREN","3FW4EL5A3LANKRP91N782LFHPY722Q","","null","<img src=""img/food6.png"" style=""width:200px; border:14px solid green;"">","null","","","","","",""
"","image-keyboard-response","138","55119","0.0-138.0","3K4J6M3CXFF4Q8QE4JQEZQO4FHKGAJ","A2H3CV7SIVYREN","3FW4EL5A3LANKRP91N782LFHPY722Q","","283","img/food1.png","76","285","2","0","2","0.8,0.2,0.8,0.2,0.2,0.8,0.2,0.8",""
"","html-keyboard-response","139","55454","0.0-139.0","3K4J6M3CXFF4Q8QE4JQEZQO4FHKGAJ","A2H3CV7SIVYREN","3FW4EL5A3LANKRP91N782LFHPY722Q","","null","<img src=""img/food1.png"" style=""width:200px;border:14px solid red;"">","null","","","","","",""
"","image-keyboard-response","140","55685","0.0-140.0","3K4J6M3CXFF4Q8QE4JQEZQO4FHKGAJ","A2H3CV7SIVYREN","3FW4EL5A3LANKRP91N782LFHPY722Q","","229","img/food3.png","76","231","2","0","1","0.8,0.2,0.8,0.2,0.2,0.8,0.2,0.8",""
"","html-keyboard-response","141","55990","0.0-141.0","3K4J6M3CXFF4Q8QE4JQEZQO4FHKGAJ","A2H3CV7SIVYREN","3FW4EL5A3LANKRP91N782LFHPY722Q","","null","<img src=""img/food3.png"" style=""width:200px;border:14px solid red;"">","null","","","","","",""
"","image-keyboard-response","142","56206","0.0-142.0","3K4J6M3CXFF4Q8QE4JQEZQO4FHKGAJ","A2H3CV7SIVYREN","3FW4EL5A3LANKRP91N782LFHPY722Q","","215","img/food2.png","76","216","2","0","4","0.8,0.2,0.8,0.2,0.2,0.8,0.2,0.8",""
"","html-keyboard-response","143","56510","0.0-143.0","3K4J6M3CXFF4Q8QE4JQEZQO4FHKGAJ","A2H3CV7SIVYREN","3FW4EL5A3LANKRP91N782LFHPY722Q","","null","<img src=""img/food2.png"" style=""width:200px;border:14px solid red;"">","null","","","","","",""
"","image-keyboard-response","144","56800","0.0-144.0","3K4J6M3CXFF4Q8QE4JQEZQO4FHKGAJ","A2H3CV7SIVYREN","3FW4EL5A3LANKRP91N782LFHPY722Q","","289","img/food1.png","76","290","2","0","2","0.8,0.2,0.8,0.2,0.2,0.8,0.2,0.8",""
"","html-keyboard-response","145","57105","0.0-145.0","3K4J6M3CXFF4Q8QE4JQEZQO4FHKGAJ","A2H3CV7SIVYREN","3FW4EL5A3LANKRP91N782LFHPY722Q","","null","<img src=""img/food1.png"" style=""width:200px;border:14px solid red;"">","null","","","","","",""
"","image-keyboard-response","146","57253","0.0-146.0","3K4J6M3CXFF4Q8QE4JQEZQO4FHKGAJ","A2H3CV7SIVYREN","3FW4EL5A3LANKRP91N782LFHPY722Q","","146","img/food3.png","76","148","2","0","1","0.8,0.2,0.8,0.2,0.2,0.8,0.2,0.8",""
"","html-keyboard-response","147","57591","0.0-147.0","3K4J6M3CXFF4Q8QE4JQEZQO4FHKGAJ","A2H3CV7SIVYREN","3FW4EL5A3LANKRP91N782LFHPY722Q","","null","<img src=""img/food3.png"" style=""width:200px;border:14px solid red;"">","null","","","","","",""
"","image-keyboard-response","148","57771","0.0-148.0","3K4J6M3CXFF4Q8QE4JQEZQO4FHKGAJ","A2H3CV7SIVYREN","3FW4EL5A3LANKRP91N782LFHPY722Q","","178","img/food6.png","76","180","2","1","3","0.8,0.2,0.8,0.2,0.2,0.8,0.2,0.8",""
"","html-keyboard-response","149","58082","0.0-149.0","3K4J6M3CXFF4Q8QE4JQEZQO4FHKGAJ","A2H3CV7SIVYREN","3FW4EL5A3LANKRP91N782LFHPY722Q","","null","<img src=""img/food6.png"" style=""width:200px; border:14px solid green;"">","null","","","","","",""
"","image-keyboard-response","150","58262","0.0-150.0","3K4J6M3CXFF4Q8QE4JQEZQO4FHKGAJ","A2H3CV7SIVYREN","3FW4EL5A3LANKRP91N782LFHPY722Q","","179","img/food6.png","75","181","1","0","3","0.8,0.2,0.8,0.2,0.2,0.8,0.2,0.8",""
"","html-keyboard-response","151","58566","0.0-151.0","3K4J6M3CXFF4Q8QE4JQEZQO4FHKGAJ","A2H3CV7SIVYREN","3FW4EL5A3LANKRP91N782LFHPY722Q","","null","<img src=""img/food6.png"" style=""width:200px;border:14px solid red;"">","null","","","","","",""
"","image-keyboard-response","152","58918","0.0-152.0","3K4J6M3CXFF4Q8QE4JQEZQO4FHKGAJ","A2H3CV7SIVYREN","3FW4EL5A3LANKRP91N782LFHPY722Q","","350","img/food1.png","75","351","1","1","2","0.8,0.2,0.8,0.2,0.2,0.8,0.2,0.8",""
"","html-keyboard-response","153","59224","0.0-153.0","3K4J6M3CXFF4Q8QE4JQEZQO4FHKGAJ","A2H3CV7SIVYREN","3FW4EL5A3LANKRP91N782LFHPY722Q","","null","<img src=""img/food1.png"" style=""width:200px; border:14px solid green;"">","null","","","","","",""
"","image-keyboard-response","154","59376","0.0-154.0","3K4J6M3CXFF4Q8QE4JQEZQO4FHKGAJ","A2H3CV7SIVYREN","3FW4EL5A3LANKRP91N782LFHPY722Q","","151","img/food6.png","76","152","2","1","3","0.8,0.2,0.8,0.2,0.2,0.8,0.2,0.8",""
"","html-keyboard-response","155","59678","0.0-155.0","3K4J6M3CXFF4Q8QE4JQEZQO4FHKGAJ","A2H3CV7SIVYREN","3FW4EL5A3LANKRP91N782LFHPY722Q","","null","<img src=""img/food6.png"" style=""width:200px; border:14px solid green;"">","null","","","","","",""
"","image-keyboard-response","156","59985","0.0-156.0","3K4J6M3CXFF4Q8QE4JQEZQO4FHKGAJ","A2H3CV7SIVYREN","3FW4EL5A3LANKRP91N782LFHPY722Q","","305","img/food3.png","75","307","1","1","1","0.8,0.2,0.8,0.2,0.2,0.8,0.2,0.8",""
"","html-keyboard-response","157","60432","0.0-157.0","3K4J6M3CXFF4Q8QE4JQEZQO4FHKGAJ","A2H3CV7SIVYREN","3FW4EL5A3LANKRP91N782LFHPY722Q","","null","<img src=""img/food3.png"" style=""width:200px; border:14px solid green;"">","null","","","","","",""
"","image-keyboard-response","158","60641","0.0-158.0","3K4J6M3CXFF4Q8QE4JQEZQO4FHKGAJ","A2H3CV7SIVYREN","3FW4EL5A3LANKRP91N782LFHPY722Q","","180","img/food2.png","76","209","2","1","4","0.8,0.2,0.8,0.2,0.2,0.8,0.2,0.8",""
"","html-keyboard-response","159","60944","0.0-159.0","3K4J6M3CXFF4Q8QE4JQEZQO4FHKGAJ","A2H3CV7SIVYREN","3FW4EL5A3LANKRP91N782LFHPY722Q","","null","<img src=""img/food2.png"" style=""width:200px; border:14px solid green;"">","null","","","","","",""
"","image-keyboard-response","160","61204","0.0-160.0","3K4J6M3CXFF4Q8QE4JQEZQO4FHKGAJ","A2H3CV7SIVYREN","3FW4EL5A3LANKRP91N782LFHPY722Q","","259","img/food3.png","75","260","1","0","1","0.8,0.2,0.8,0.2,0.2,0.8,0.2,0.8",""
"","html-keyboard-response","161","61533","0.0-161.0","3K4J6M3CXFF4Q8QE4JQEZQO4FHKGAJ","A2H3CV7SIVYREN","3FW4EL5A3LANKRP91N782LFHPY722Q","","null","<img src=""img/food3.png"" style=""width:200px;border:14px solid red;"">","null","","","","","",""
"","image-keyboard-response","162","61644","0.0-162.0","3K4J6M3CXFF4Q8QE4JQEZQO4FHKGAJ","A2H3CV7SIVYREN","3FW4EL5A3LANKRP91N782LFHPY722Q","","110","img/food2.png","76","110","2","0","4","0.8,0.2,0.8,0.2,0.2,0.8,0.2,0.8",""
"","html-keyboard-response","163","61968","0.0-163.0","3K4J6M3CXFF4Q8QE4JQEZQO4FHKGAJ","A2H3CV7SIVYREN","3FW4EL5A3LANKRP91N782LFHPY722Q","","null","<img src=""img/food2.png"" style=""width:200px;border:14px solid red;"">","null","","","","","",""
"","image-keyboard-response","164","62174","0.0-164.0","3K4J6M3CXFF4Q8QE4JQEZQO4FHKGAJ","A2H3CV7SIVYREN","3FW4EL5A3LANKRP91N782LFHPY722Q","","206","img/food3.png","75","206","1","1","1","0.8,0.2,0.8,0.2,0.2,0.8,0.2,0.8",""
"","html-keyboard-response","165","62498","0.0-165.0","3K4J6M3CXFF4Q8QE4JQEZQO4FHKGAJ","A2H3CV7SIVYREN","3FW4EL5A3LANKRP91N782LFHPY722Q","","null","<img src=""img/food3.png"" style=""width:200px; border:14px solid green;"">","null","","","","","",""
"","image-keyboard-response","166","62596","0.0-166.0","3K4J6M3CXFF4Q8QE4JQEZQO4FHKGAJ","A2H3CV7SIVYREN","3FW4EL5A3LANKRP91N782LFHPY722Q","","96","img/food3.png","76","98","2","0","1","0.8,0.2,0.8,0.2,0.2,0.8,0.2,0.8",""
"","html-keyboard-response","167","62899","0.0-167.0","3K4J6M3CXFF4Q8QE4JQEZQO4FHKGAJ","A2H3CV7SIVYREN","3FW4EL5A3LANKRP91N782LFHPY722Q","","null","<img src=""img/food3.png"" style=""width:200px;border:14px solid red;"">","null","","","","","",""
"","image-keyboard-response","168","63118","0.0-168.0","3K4J6M3CXFF4Q8QE4JQEZQO4FHKGAJ","A2H3CV7SIVYREN","3FW4EL5A3LANKRP91N782LFHPY722Q","","218","img/food2.png","75","219","1","0","4","0.8,0.2,0.8,0.2,0.2,0.8,0.2,0.8",""
"","html-keyboard-response","169","63474","0.0-169.0","3K4J6M3CXFF4Q8QE4JQEZQO4FHKGAJ","A2H3CV7SIVYREN","3FW4EL5A3LANKRP91N782LFHPY722Q","","null","<img src=""img/food2.png"" style=""width:200px;border:14px solid red;"">","null","","","","","",""
"","image-keyboard-response","170","63596","0.0-170.0","3K4J6M3CXFF4Q8QE4JQEZQO4FHKGAJ","A2H3CV7SIVYREN","3FW4EL5A3LANKRP91N782LFHPY722Q","","120","img/food1.png","76","122","2","0","2","0.8,0.2,0.8,0.2,0.2,0.8,0.2,0.8",""
"","html-keyboard-response","171","63901","0.0-171.0","3K4J6M3CXFF4Q8QE4JQEZQO4FHKGAJ","A2H3CV7SIVYREN","3FW4EL5A3LANKRP91N782LFHPY722Q","","null","<img src=""img/food1.png"" style=""width:200px;border:14px solid red;"">","null","","","","","",""
"","image-keyboard-response","172","64066","0.0-172.0","3K4J6M3CXFF4Q8QE4JQEZQO4FHKGAJ","A2H3CV7SIVYREN","3FW4EL5A3LANKRP91N782LFHPY722Q","","164","img/food2.png","75","165","1","0","4","0.8,0.2,0.8,0.2,0.2,0.8,0.2,0.8",""
"","html-keyboard-response","173","64375","0.0-173.0","3K4J6M3CXFF4Q8QE4JQEZQO4FHKGAJ","A2H3CV7SIVYREN","3FW4EL5A3LANKRP91N782LFHPY722Q","","null","<img src=""img/food2.png"" style=""width:200px;border:14px solid red;"">","null","","","","","",""
"","image-keyboard-response","174","64518","0.0-174.0","3K4J6M3CXFF4Q8QE4JQEZQO4FHKGAJ","A2H3CV7SIVYREN","3FW4EL5A3LANKRP91N782LFHPY722Q","","140","img/food2.png","76","143","2","1","4","0.8,0.2,0.8,0.2,0.2,0.8,0.2,0.8",""
"","html-keyboard-response","175","64819","0.0-175.0","3K4J6M3CXFF4Q8QE4JQEZQO4FHKGAJ","A2H3CV7SIVYREN","3FW4EL5A3LANKRP91N782LFHPY722Q","","null","<img src=""img/food2.png"" style=""width:200px; border:14px solid green;"">","null","","","","","",""
"","image-keyboard-response","176","64970","0.0-176.0","3K4J6M3CXFF4Q8QE4JQEZQO4FHKGAJ","A2H3CV7SIVYREN","3FW4EL5A3LANKRP91N782LFHPY722Q","","150","img/food1.png","76","151","2","0","2","0.8,0.2,0.8,0.2,0.2,0.8,0.2,0.8",""
"","html-keyboard-response","177","65277","0.0-177.0","3K4J6M3CXFF4Q8QE4JQEZQO4FHKGAJ","A2H3CV7SIVYREN","3FW4EL5A3LANKRP91N782LFHPY722Q","","null","<img src=""img/food1.png"" style=""width:200px;border:14px solid red;"">","null","","","","","",""
"","image-keyboard-response","178","65519","0.0-178.0","3K4J6M3CXFF4Q8QE4JQEZQO4FHKGAJ","A2H3CV7SIVYREN","3FW4EL5A3LANKRP91N782LFHPY722Q","","240","img/food2.png","76","242","2","1","4","0.8,0.2,0.8,0.2,0.2,0.8,0.2,0.8",""
"","html-keyboard-response","179","65826","0.0-179.0","3K4J6M3CXFF4Q8QE4JQEZQO4FHKGAJ","A2H3CV7SIVYREN","3FW4EL5A3LANKRP91N782LFHPY722Q","","null","<img src=""img/food2.png"" style=""width:200px; border:14px solid green;"">","null","","","","","",""
"","image-keyboard-response","180","66026","0.0-180.0","3K4J6M3CXFF4Q8QE4JQEZQO4FHKGAJ","A2H3CV7SIVYREN","3FW4EL5A3LANKRP91N782LFHPY722Q","","199","img/food2.png","76","200","2","0","4","0.8,0.2,0.8,0.2,0.2,0.8,0.2,0.8",""
"","html-keyboard-response","181","66332","0.0-181.0","3K4J6M3CXFF4Q8QE4JQEZQO4FHKGAJ","A2H3CV7SIVYREN","3FW4EL5A3LANKRP91N782LFHPY722Q","","null","<img src=""img/food2.png"" style=""width:200px;border:14px solid red;"">","null","","","","","",""
"","image-keyboard-response","182","67068","0.0-182.0","3K4J6M3CXFF4Q8QE4JQEZQO4FHKGAJ","A2H3CV7SIVYREN","3FW4EL5A3LANKRP91N782LFHPY722Q","","734","img/food1.png","76","736","2","0","2","0.8,0.2,0.8,0.2,0.2,0.8,0.2,0.8",""
"","html-keyboard-response","183","67370","0.0-183.0","3K4J6M3CXFF4Q8QE4JQEZQO4FHKGAJ","A2H3CV7SIVYREN","3FW4EL5A3LANKRP91N782LFHPY722Q","","null","<img src=""img/food1.png"" style=""width:200px;border:14px solid red;"">","null","","","","","",""
"","image-keyboard-response","184","67719","0.0-184.0","3K4J6M3CXFF4Q8QE4JQEZQO4FHKGAJ","A2H3CV7SIVYREN","3FW4EL5A3LANKRP91N782LFHPY722Q","","349","img/food6.png","76","349","2","1","3","0.8,0.2,0.8,0.2,0.2,0.8,0.2,0.8",""
"","html-keyboard-response","185","68021","0.0-185.0","3K4J6M3CXFF4Q8QE4JQEZQO4FHKGAJ","A2H3CV7SIVYREN","3FW4EL5A3LANKRP91N782LFHPY722Q","","null","<img src=""img/food6.png"" style=""width:200px; border:14px solid green;"">","null","","","","","",""
"","image-keyboard-response","186","68324","0.0-186.0","3K4J6M3CXFF4Q8QE4JQEZQO4FHKGAJ","A2H3CV7SIVYREN","3FW4EL5A3LANKRP91N782LFHPY722Q","","302","img/food1.png","75","302","1","1","2","0.8,0.2,0.8,0.2,0.2,0.8,0.2,0.8",""
"","html-keyboard-response","187","68629","0.0-187.0","3K4J6M3CXFF4Q8QE4JQEZQO4FHKGAJ","A2H3CV7SIVYREN","3FW4EL5A3LANKRP91N782LFHPY722Q","","null","<img src=""img/food1.png"" style=""width:200px; border:14px solid green;"">","null","","","","","",""
"","image-keyboard-response","188","68986","0.0-188.0","3K4J6M3CXFF4Q8QE4JQEZQO4FHKGAJ","A2H3CV7SIVYREN","3FW4EL5A3LANKRP91N782LFHPY722Q","","357","img/food6.png","76","357","2","1","3","0.8,0.2,0.8,0.2,0.2,0.8,0.2,0.8",""
"","html-keyboard-response","189","69292","0.0-189.0","3K4J6M3CXFF4Q8QE4JQEZQO4FHKGAJ","A2H3CV7SIVYREN","3FW4EL5A3LANKRP91N782LFHPY722Q","","null","<img src=""img/food6.png"" style=""width:200px; border:14px solid green;"">","null","","","","","",""
"","image-keyboard-response","190","69685","0.0-190.0","3K4J6M3CXFF4Q8QE4JQEZQO4FHKGAJ","A2H3CV7SIVYREN","3FW4EL5A3LANKRP91N782LFHPY722Q","","390","img/food3.png","76","393","2","0","1","0.8,0.2,0.8,0.2,0.2,0.8,0.2,0.8",""
"","html-keyboard-response","191","69986","0.0-191.0","3K4J6M3CXFF4Q8QE4JQEZQO4FHKGAJ","A2H3CV7SIVYREN","3FW4EL5A3LANKRP91N782LFHPY722Q","","null","<img src=""img/food3.png"" style=""width:200px;border:14px solid red;"">","null","","","","","",""
"","image-keyboard-response","192","70414","0.0-192.0","3K4J6M3CXFF4Q8QE4JQEZQO4FHKGAJ","A2H3CV7SIVYREN","3FW4EL5A3LANKRP91N782LFHPY722Q","","427","img/food3.png","76","428","2","1","1","0.8,0.2,0.8,0.2,0.2,0.8,0.2,0.8",""
"","html-keyboard-response","193","70716","0.0-193.0","3K4J6M3CXFF4Q8QE4JQEZQO4FHKGAJ","A2H3CV7SIVYREN","3FW4EL5A3LANKRP91N782LFHPY722Q","","null","<img src=""img/food3.png"" style=""width:200px; border:14px solid green;"">","null","","","","","",""
"","image-keyboard-response","194","71279","0.0-194.0","3K4J6M3CXFF4Q8QE4JQEZQO4FHKGAJ","A2H3CV7SIVYREN","3FW4EL5A3LANKRP91N782LFHPY722Q","","561","img/food1.png","76","563","2","1","2","0.8,0.2,0.8,0.2,0.2,0.8,0.2,0.8",""
"","html-keyboard-response","195","71581","0.0-195.0","3K4J6M3CXFF4Q8QE4JQEZQO4FHKGAJ","A2H3CV7SIVYREN","3FW4EL5A3LANKRP91N782LFHPY722Q","","null","<img src=""img/food1.png"" style=""width:200px; border:14px solid green;"">","null","","","","","",""
"","image-keyboard-response","196","72077","0.0-196.0","3K4J6M3CXFF4Q8QE4JQEZQO4FHKGAJ","A2H3CV7SIVYREN","3FW4EL5A3LANKRP91N782LFHPY722Q","","494","img/food1.png","76","496","2","1","2","0.8,0.2,0.8,0.2,0.2,0.8,0.2,0.8",""
"","html-keyboard-response","197","72383","0.0-197.0","3K4J6M3CXFF4Q8QE4JQEZQO4FHKGAJ","A2H3CV7SIVYREN","3FW4EL5A3LANKRP91N782LFHPY722Q","","null","<img src=""img/food1.png"" style=""width:200px; border:14px solid green;"">","null","","","","","",""
"","image-keyboard-response","198","72755","0.0-198.0","3K4J6M3CXFF4Q8QE4JQEZQO4FHKGAJ","A2H3CV7SIVYREN","3FW4EL5A3LANKRP91N782LFHPY722Q","","371","img/food3.png","76","371","2","1","1","0.8,0.2,0.8,0.2,0.2,0.8,0.2,0.8",""
"","html-keyboard-response","199","73057","0.0-199.0","3K4J6M3CXFF4Q8QE4JQEZQO4FHKGAJ","A2H3CV7SIVYREN","3FW4EL5A3LANKRP91N782LFHPY722Q","","null","<img src=""img/food3.png"" style=""width:200px; border:14px solid green;"">","null","","","","","",""
"","image-keyboard-response","200","73635","0.0-200.0","3K4J6M3CXFF4Q8QE4JQEZQO4FHKGAJ","A2H3CV7SIVYREN","3FW4EL5A3LANKRP91N782LFHPY722Q","","577","img/food3.png","76","578","2","0","1","0.8,0.2,0.8,0.2,0.2,0.8,0.2,0.8",""
"","html-keyboard-response","201","73944","0.0-201.0","3K4J6M3CXFF4Q8QE4JQEZQO4FHKGAJ","A2H3CV7SIVYREN","3FW4EL5A3LANKRP91N782LFHPY722Q","","null","<img src=""img/food3.png"" style=""width:200px;border:14px solid red;"">","null","","","","","",""
"","image-keyboard-response","202","74375","0.0-202.0","3K4J6M3CXFF4Q8QE4JQEZQO4FHKGAJ","A2H3CV7SIVYREN","3FW4EL5A3LANKRP91N782LFHPY722Q","","431","img/food1.png","75","431","1","1","2","0.8,0.2,0.8,0.2,0.2,0.8,0.2,0.8",""
"","html-keyboard-response","203","74683","0.0-203.0","3K4J6M3CXFF4Q8QE4JQEZQO4FHKGAJ","A2H3CV7SIVYREN","3FW4EL5A3LANKRP91N782LFHPY722Q","","null","<img src=""img/food1.png"" style=""width:200px; border:14px solid green;"">","null","","","","","",""
"","image-keyboard-response","204","74935","0.0-204.0","3K4J6M3CXFF4Q8QE4JQEZQO4FHKGAJ","A2H3CV7SIVYREN","3FW4EL5A3LANKRP91N782LFHPY722Q","","251","img/food6.png","76","251","2","1","3","0.8,0.2,0.8,0.2,0.2,0.8,0.2,0.8",""
"","html-keyboard-response","205","75236","0.0-205.0","3K4J6M3CXFF4Q8QE4JQEZQO4FHKGAJ","A2H3CV7SIVYREN","3FW4EL5A3LANKRP91N782LFHPY722Q","","null","<img src=""img/food6.png"" style=""width:200px; border:14px solid green;"">","null","","","","","",""
"","image-keyboard-response","206","75802","0.0-206.0","3K4J6M3CXFF4Q8QE4JQEZQO4FHKGAJ","A2H3CV7SIVYREN","3FW4EL5A3LANKRP91N782LFHPY722Q","","564","img/food6.png","75","566","1","0","3","0.8,0.2,0.8,0.2,0.2,0.8,0.2,0.8",""
"","html-keyboard-response","207","76113","0.0-207.0","3K4J6M3CXFF4Q8QE4JQEZQO4FHKGAJ","A2H3CV7SIVYREN","3FW4EL5A3LANKRP91N782LFHPY722Q","","null","<img src=""img/food6.png"" style=""width:200px;border:14px solid red;"">","null","","","","","",""
"","image-keyboard-response","208","76440","0.0-208.0","3K4J6M3CXFF4Q8QE4JQEZQO4FHKGAJ","A2H3CV7SIVYREN","3FW4EL5A3LANKRP91N782LFHPY722Q","","326","img/food1.png","76","327","2","0","2","0.8,0.2,0.8,0.2,0.2,0.8,0.2,0.8",""
"","html-keyboard-response","209","76742","0.0-209.0","3K4J6M3CXFF4Q8QE4JQEZQO4FHKGAJ","A2H3CV7SIVYREN","3FW4EL5A3LANKRP91N782LFHPY722Q","","null","<img src=""img/food1.png"" style=""width:200px;border:14px solid red;"">","null","","","","","",""
"","image-keyboard-response","210","76925","0.0-210.0","3K4J6M3CXFF4Q8QE4JQEZQO4FHKGAJ","A2H3CV7SIVYREN","3FW4EL5A3LANKRP91N782LFHPY722Q","","181","img/food3.png","76","183","2","0","1","0.8,0.2,0.8,0.2,0.2,0.8,0.2,0.8",""
"","html-keyboard-response","211","77227","0.0-211.0","3K4J6M3CXFF4Q8QE4JQEZQO4FHKGAJ","A2H3CV7SIVYREN","3FW4EL5A3LANKRP91N782LFHPY722Q","","null","<img src=""img/food3.png"" style=""width:200px;border:14px solid red;"">","null","","","","","",""
"","image-keyboard-response","212","77551","0.0-212.0","3K4J6M3CXFF4Q8QE4JQEZQO4FHKGAJ","A2H3CV7SIVYREN","3FW4EL5A3LANKRP91N782LFHPY722Q","","324","img/food2.png","75","325","1","0","4","0.8,0.2,0.8,0.2,0.2,0.8,0.2,0.8",""
"","html-keyboard-response","213","77857","0.0-213.0","3K4J6M3CXFF4Q8QE4JQEZQO4FHKGAJ","A2H3CV7SIVYREN","3FW4EL5A3LANKRP91N782LFHPY722Q","","null","<img src=""img/food2.png"" style=""width:200px;border:14px solid red;"">","null","","","","","",""
"","image-keyboard-response","214","78142","0.0-214.0","3K4J6M3CXFF4Q8QE4JQEZQO4FHKGAJ","A2H3CV7SIVYREN","3FW4EL5A3LANKRP91N782LFHPY722Q","","285","img/food3.png","76","285","2","0","1","0.8,0.2,0.8,0.2,0.2,0.8,0.2,0.8",""
"","html-keyboard-response","215","78477","0.0-215.0","3K4J6M3CXFF4Q8QE4JQEZQO4FHKGAJ","A2H3CV7SIVYREN","3FW4EL5A3LANKRP91N782LFHPY722Q","","null","<img src=""img/food3.png"" style=""width:200px;border:14px solid red;"">","null","","","","","",""
"","image-keyboard-response","216","78638","0.0-216.0","3K4J6M3CXFF4Q8QE4JQEZQO4FHKGAJ","A2H3CV7SIVYREN","3FW4EL5A3LANKRP91N782LFHPY722Q","","159","img/food2.png","76","161","2","1","4","0.8,0.2,0.8,0.2,0.2,0.8,0.2,0.8",""
"","html-keyboard-response","217","78939","0.0-217.0","3K4J6M3CXFF4Q8QE4JQEZQO4FHKGAJ","A2H3CV7SIVYREN","3FW4EL5A3LANKRP91N782LFHPY722Q","","null","<img src=""img/food2.png"" style=""width:200px; border:14px solid green;"">","null","","","","","",""
"","image-keyboard-response","218","79286","0.0-218.0","3K4J6M3CXFF4Q8QE4JQEZQO4FHKGAJ","A2H3CV7SIVYREN","3FW4EL5A3LANKRP91N782LFHPY722Q","","346","img/food1.png","75","347","1","1","2","0.8,0.2,0.8,0.2,0.2,0.8,0.2,0.8",""
"","html-keyboard-response","219","79617","0.0-219.0","3K4J6M3CXFF4Q8QE4JQEZQO4FHKGAJ","A2H3CV7SIVYREN","3FW4EL5A3LANKRP91N782LFHPY722Q","","null","<img src=""img/food1.png"" style=""width:200px; border:14px solid green;"">","null","","","","","",""
"","image-keyboard-response","220","79875","0.0-220.0","3K4J6M3CXFF4Q8QE4JQEZQO4FHKGAJ","A2H3CV7SIVYREN","3FW4EL5A3LANKRP91N782LFHPY722Q","","257","img/food3.png","76","258","2","0","1","0.8,0.2,0.8,0.2,0.2,0.8,0.2,0.8",""
"","html-keyboard-response","221","80179","0.0-221.0","3K4J6M3CXFF4Q8QE4JQEZQO4FHKGAJ","A2H3CV7SIVYREN","3FW4EL5A3LANKRP91N782LFHPY722Q","","null","<img src=""img/food3.png"" style=""width:200px;border:14px solid red;"">","null","","","","","",""
"","image-keyboard-response","222","80438","0.0-222.0","3K4J6M3CXFF4Q8QE4JQEZQO4FHKGAJ","A2H3CV7SIVYREN","3FW4EL5A3LANKRP91N782LFHPY722Q","","258","img/food1.png","76","260","2","0","2","0.8,0.2,0.8,0.2,0.2,0.8,0.2,0.8",""
"","html-keyboard-response","223","80744","0.0-223.0","3K4J6M3CXFF4Q8QE4JQEZQO4FHKGAJ","A2H3CV7SIVYREN","3FW4EL5A3LANKRP91N782LFHPY722Q","","null","<img src=""img/food1.png"" style=""width:200px;border:14px solid red;"">","null","","","","","",""
"","image-keyboard-response","224","80896","0.0-224.0","3K4J6M3CXFF4Q8QE4JQEZQO4FHKGAJ","A2H3CV7SIVYREN","3FW4EL5A3LANKRP91N782LFHPY722Q","","151","img/food3.png","76","152","2","0","1","0.8,0.2,0.8,0.2,0.2,0.8,0.2,0.8",""
"","html-keyboard-response","225","81202","0.0-225.0","3K4J6M3CXFF4Q8QE4JQEZQO4FHKGAJ","A2H3CV7SIVYREN","3FW4EL5A3LANKRP91N782LFHPY722Q","","null","<img src=""img/food3.png"" style=""width:200px;border:14px solid red;"">","null","","","","","",""
"","image-keyboard-response","226","81411","0.0-226.0","3K4J6M3CXFF4Q8QE4JQEZQO4FHKGAJ","A2H3CV7SIVYREN","3FW4EL5A3LANKRP91N782LFHPY722Q","","208","img/food2.png","76","209","2","1","4","0.8,0.2,0.8,0.2,0.2,0.8,0.2,0.8",""
"","html-keyboard-response","227","81715","0.0-227.0","3K4J6M3CXFF4Q8QE4JQEZQO4FHKGAJ","A2H3CV7SIVYREN","3FW4EL5A3LANKRP91N782LFHPY722Q","","null","<img src=""img/food2.png"" style=""width:200px; border:14px solid green;"">","null","","","","","",""
"","image-keyboard-response","228","81969","0.0-228.0","3K4J6M3CXFF4Q8QE4JQEZQO4FHKGAJ","A2H3CV7SIVYREN","3FW4EL5A3LANKRP91N782LFHPY722Q","","252","img/food6.png","76","254","2","1","3","0.8,0.2,0.8,0.2,0.2,0.8,0.2,0.8",""
"","html-keyboard-response","229","82286","0.0-229.0","3K4J6M3CXFF4Q8QE4JQEZQO4FHKGAJ","A2H3CV7SIVYREN","3FW4EL5A3LANKRP91N782LFHPY722Q","","null","<img src=""img/food6.png"" style=""width:200px; border:14px solid green;"">","null","","","","","",""
"","image-keyboard-response","230","82571","0.0-230.0","3K4J6M3CXFF4Q8QE4JQEZQO4FHKGAJ","A2H3CV7SIVYREN","3FW4EL5A3LANKRP91N782LFHPY722Q","","284","img/food1.png","76","285","2","0","2","0.8,0.2,0.8,0.2,0.2,0.8,0.2,0.8",""
"","html-keyboard-response","231","82906","0.0-231.0","3K4J6M3CXFF4Q8QE4JQEZQO4FHKGAJ","A2H3CV7SIVYREN","3FW4EL5A3LANKRP91N782LFHPY722Q","","null","<img src=""img/food1.png"" style=""width:200px;border:14px solid red;"">","null","","","","","",""
"","image-keyboard-response","232","83102","0.0-232.0","3K4J6M3CXFF4Q8QE4JQEZQO4FHKGAJ","A2H3CV7SIVYREN","3FW4EL5A3LANKRP91N782LFHPY722Q","","194","img/food6.png","76","196","2","1","3","0.8,0.2,0.8,0.2,0.2,0.8,0.2,0.8",""
"","html-keyboard-response","233","83406","0.0-233.0","3K4J6M3CXFF4Q8QE4JQEZQO4FHKGAJ","A2H3CV7SIVYREN","3FW4EL5A3LANKRP91N782LFHPY722Q","","null","<img src=""img/food6.png"" style=""width:200px; border:14px solid green;"">","null","","","","","",""
"","image-keyboard-response","234","83708","0.0-234.0","3K4J6M3CXFF4Q8QE4JQEZQO4FHKGAJ","A2H3CV7SIVYREN","3FW4EL5A3LANKRP91N782LFHPY722Q","","302","img/food6.png","75","302","1","0","3","0.8,0.2,0.8,0.2,0.2,0.8,0.2,0.8",""
"","html-keyboard-response","235","84042","0.0-235.0","3K4J6M3CXFF4Q8QE4JQEZQO4FHKGAJ","A2H3CV7SIVYREN","3FW4EL5A3LANKRP91N782LFHPY722Q","","null","<img src=""img/food6.png"" style=""width:200px;border:14px solid red;"">","null","","","","","",""
"","image-keyboard-response","236","84234","0.0-236.0","3K4J6M3CXFF4Q8QE4JQEZQO4FHKGAJ","A2H3CV7SIVYREN","3FW4EL5A3LANKRP91N782LFHPY722Q","","191","img/food6.png","76","191","2","1","3","0.8,0.2,0.8,0.2,0.2,0.8,0.2,0.8",""
"","html-keyboard-response","237","84539","0.0-237.0","3K4J6M3CXFF4Q8QE4JQEZQO4FHKGAJ","A2H3CV7SIVYREN","3FW4EL5A3LANKRP91N782LFHPY722Q","","null","<img src=""img/food6.png"" style=""width:200px; border:14px solid green;"">","null","","","","","",""
"","image-keyboard-response","238","84912","0.0-238.0","3K4J6M3CXFF4Q8QE4JQEZQO4FHKGAJ","A2H3CV7SIVYREN","3FW4EL5A3LANKRP91N782LFHPY722Q","","372","img/food6.png","76","373","2","1","3","0.8,0.2,0.8,0.2,0.2,0.8,0.2,0.8",""
"","html-keyboard-response","239","85222","0.0-239.0","3K4J6M3CXFF4Q8QE4JQEZQO4FHKGAJ","A2H3CV7SIVYREN","3FW4EL5A3LANKRP91N782LFHPY722Q","","null","<img src=""img/food6.png"" style=""width:200px; border:14px solid green;"">","null","","","","","",""
"","image-keyboard-response","240","85553","0.0-240.0","3K4J6M3CXFF4Q8QE4JQEZQO4FHKGAJ","A2H3CV7SIVYREN","3FW4EL5A3LANKRP91N782LFHPY722Q","","329","img/food2.png","76","330","2","0","4","0.8,0.2,0.8,0.2,0.2,0.8,0.2,0.8",""
"","html-keyboard-response","241","85864","0.0-241.0","3K4J6M3CXFF4Q8QE4JQEZQO4FHKGAJ","A2H3CV7SIVYREN","3FW4EL5A3LANKRP91N782LFHPY722Q","","null","<img src=""img/food2.png"" style=""width:200px;border:14px solid red;"">","null","","","","","",""
"","html-keyboard-response","242","88752","0.0-242.0","3K4J6M3CXFF4Q8QE4JQEZQO4FHKGAJ","A2H3CV7SIVYREN","3FW4EL5A3LANKRP91N782LFHPY722Q","","","","","","","","","",""
"","image-keyboard-response","243","91735","0.0-243.0","3K4J6M3CXFF4Q8QE4JQEZQO4FHKGAJ","A2H3CV7SIVYREN","3FW4EL5A3LANKRP91N782LFHPY722Q","","2981","img/food5.png","75","2982","1","0","1","0.2,0.8,0.2,0.8,0.2,0.8,0.8,0.2",""
"","html-keyboard-response","244","92056","0.0-244.0","3K4J6M3CXFF4Q8QE4JQEZQO4FHKGAJ","A2H3CV7SIVYREN","3FW4EL5A3LANKRP91N782LFHPY722Q","","null","<img src=""img/food5.png"" style=""width:200px;border:14px solid red;"">","null","","","","","",""
"","image-keyboard-response","245","93520","0.0-245.0","3K4J6M3CXFF4Q8QE4JQEZQO4FHKGAJ","A2H3CV7SIVYREN","3FW4EL5A3LANKRP91N782LFHPY722Q","","1458","img/food7.png","75","1459","1","1","4","0.2,0.8,0.2,0.8,0.2,0.8,0.8,0.2",""
"","html-keyboard-response","246","93820","0.0-246.0","3K4J6M3CXFF4Q8QE4JQEZQO4FHKGAJ","A2H3CV7SIVYREN","3FW4EL5A3LANKRP91N782LFHPY722Q","","null","<img src=""img/food7.png"" style=""width:200px; border:14px solid green;"">","null","","","","","",""
"","image-keyboard-response","247","93856","0.0-247.0","3K4J6M3CXFF4Q8QE4JQEZQO4FHKGAJ","A2H3CV7SIVYREN","3FW4EL5A3LANKRP91N782LFHPY722Q","","35","img/food8.png","76","36","2","0","2","0.2,0.8,0.2,0.8,0.2,0.8,0.8,0.2",""
"","html-keyboard-response","248","94161","0.0-248.0","3K4J6M3CXFF4Q8QE4JQEZQO4FHKGAJ","A2H3CV7SIVYREN","3FW4EL5A3LANKRP91N782LFHPY722Q","","null","<img src=""img/food8.png"" style=""width:200px;border:14px solid red;"">","null","","","","","",""
"","image-keyboard-response","249","94253","0.0-249.0","3K4J6M3CXFF4Q8QE4JQEZQO4FHKGAJ","A2H3CV7SIVYREN","3FW4EL5A3LANKRP91N782LFHPY722Q","","90","img/food7.png","76","91","2","0","4","0.2,0.8,0.2,0.8,0.2,0.8,0.8,0.2",""
"","html-keyboard-response","250","94558","0.0-250.0","3K4J6M3CXFF4Q8QE4JQEZQO4FHKGAJ","A2H3CV7SIVYREN","3FW4EL5A3LANKRP91N782LFHPY722Q","","null","<img src=""img/food7.png"" style=""width:200px;border:14px solid red;"">","null","","","","","",""
"","image-keyboard-response","251","94775","0.0-251.0","3K4J6M3CXFF4Q8QE4JQEZQO4FHKGAJ","A2H3CV7SIVYREN","3FW4EL5A3LANKRP91N782LFHPY722Q","","216","img/food7.png","75","216","1","0","4","0.2,0.8,0.2,0.8,0.2,0.8,0.8,0.2",""
"","html-keyboard-response","252","95081","0.0-252.0","3K4J6M3CXFF4Q8QE4JQEZQO4FHKGAJ","A2H3CV7SIVYREN","3FW4EL5A3LANKRP91N782LFHPY722Q","","null","<img src=""img/food7.png"" style=""width:200px;border:14px solid red;"">","null","","","","","",""
"","image-keyboard-response","253","95176","0.0-253.0","3K4J6M3CXFF4Q8QE4JQEZQO4FHKGAJ","A2H3CV7SIVYREN","3FW4EL5A3LANKRP91N782LFHPY722Q","","95","img/food7.png","76","95","2","0","4","0.2,0.8,0.2,0.8,0.2,0.8,0.8,0.2",""
"","html-keyboard-response","254","95477","0.0-254.0","3K4J6M3CXFF4Q8QE4JQEZQO4FHKGAJ","A2H3CV7SIVYREN","3FW4EL5A3LANKRP91N782LFHPY722Q","","null","<img src=""img/food7.png"" style=""width:200px;border:14px solid red;"">","null","","","","","",""
"","image-keyboard-response","255","95706","0.0-255.0","3K4J6M3CXFF4Q8QE4JQEZQO4FHKGAJ","A2H3CV7SIVYREN","3FW4EL5A3LANKRP91N782LFHPY722Q","","227","img/food7.png","75","229","1","1","4","0.2,0.8,0.2,0.8,0.2,0.8,0.8,0.2",""
"","html-keyboard-response","256","96009","0.0-256.0","3K4J6M3CXFF4Q8QE4JQEZQO4FHKGAJ","A2H3CV7SIVYREN","3FW4EL5A3LANKRP91N782LFHPY722Q","","null","<img src=""img/food7.png"" style=""width:200px; border:14px solid green;"">","null","","","","","",""
"","image-keyboard-response","257","96103","0.0-257.0","3K4J6M3CXFF4Q8QE4JQEZQO4FHKGAJ","A2H3CV7SIVYREN","3FW4EL5A3LANKRP91N782LFHPY722Q","","93","img/food8.png","75","93","1","1","2","0.2,0.8,0.2,0.8,0.2,0.8,0.8,0.2",""
"","html-keyboard-response","258","96481","0.0-258.0","3K4J6M3CXFF4Q8QE4JQEZQO4FHKGAJ","A2H3CV7SIVYREN","3FW4EL5A3LANKRP91N782LFHPY722Q","","null","<img src=""img/food8.png"" style=""width:200px; border:14px solid green;"">","null","","","","","",""
"","image-keyboard-response","259","96760","0.0-259.0","3K4J6M3CXFF4Q8QE4JQEZQO4FHKGAJ","A2H3CV7SIVYREN","3FW4EL5A3LANKRP91N782LFHPY722Q","","277","img/food8.png","75","279","1","0","2","0.2,0.8,0.2,0.8,0.2,0.8,0.8,0.2",""
"","html-keyboard-response","260","97065","0.0-260.0","3K4J6M3CXFF4Q8QE4JQEZQO4FHKGAJ","A2H3CV7SIVYREN","3FW4EL5A3LANKRP91N782LFHPY722Q","","null","<img src=""img/food8.png"" style=""width:200px;border:14px solid red;"">","null","","","","","",""
"","image-keyboard-response","261","97126","0.0-261.0","3K4J6M3CXFF4Q8QE4JQEZQO4FHKGAJ","A2H3CV7SIVYREN","3FW4EL5A3LANKRP91N782LFHPY722Q","","60","img/food8.png","75","62","1","1","2","0.2,0.8,0.2,0.8,0.2,0.8,0.8,0.2",""
"","html-keyboard-response","262","97434","0.0-262.0","3K4J6M3CXFF4Q8QE4JQEZQO4FHKGAJ","A2H3CV7SIVYREN","3FW4EL5A3LANKRP91N782LFHPY722Q","","null","<img src=""img/food8.png"" style=""width:200px; border:14px solid green;"">","null","","","","","",""
"","image-keyboard-response","263","97458","0.0-263.0","3K4J6M3CXFF4Q8QE4JQEZQO4FHKGAJ","A2H3CV7SIVYREN","3FW4EL5A3LANKRP91N782LFHPY722Q","","22","img/food5.png","75","23","1","1","1","0.2,0.8,0.2,0.8,0.2,0.8,0.8,0.2",""
"","html-keyboard-response","264","97761","0.0-264.0","3K4J6M3CXFF4Q8QE4JQEZQO4FHKGAJ","A2H3CV7SIVYREN","3FW4EL5A3LANKRP91N782LFHPY722Q","","null","<img src=""img/food5.png"" style=""width:200px; border:14px solid green;"">","null","","","","","",""
"","image-keyboard-response","265","97777","0.0-265.0","3K4J6M3CXFF4Q8QE4JQEZQO4FHKGAJ","A2H3CV7SIVYREN","3FW4EL5A3LANKRP91N782LFHPY722Q","","13","img/food5.png","75","15","1","1","1","0.2,0.8,0.2,0.8,0.2,0.8,0.8,0.2",""
"","html-keyboard-response","266","98085","0.0-266.0","3K4J6M3CXFF4Q8QE4JQEZQO4FHKGAJ","A2H3CV7SIVYREN","3FW4EL5A3LANKRP91N782LFHPY722Q","","null","<img src=""img/food5.png"" style=""width:200px; border:14px solid green;"">","null","","","","","",""
"","image-keyboard-response","267","98181","0.0-267.0","3K4J6M3CXFF4Q8QE4JQEZQO4FHKGAJ","A2H3CV7SIVYREN","3FW4EL5A3LANKRP91N782LFHPY722Q","","95","img/food7.png","75","96","1","0","4","0.2,0.8,0.2,0.8,0.2,0.8,0.8,0.2",""
"","html-keyboard-response","268","98483","0.0-268.0","3K4J6M3CXFF4Q8QE4JQEZQO4FHKGAJ","A2H3CV7SIVYREN","3FW4EL5A3LANKRP91N782LFHPY722Q","","null","<img src=""img/food7.png"" style=""width:200px;border:14px solid red;"">","null","","","","","",""
"","image-keyboard-response","269","98647","0.0-269.0","3K4J6M3CXFF4Q8QE4JQEZQO4FHKGAJ","A2H3CV7SIVYREN","3FW4EL5A3LANKRP91N782LFHPY722Q","","163","img/food4.png","75","163","1","1","3","0.2,0.8,0.2,0.8,0.2,0.8,0.8,0.2",""
"","html-keyboard-response","270","98952","0.0-270.0","3K4J6M3CXFF4Q8QE4JQEZQO4FHKGAJ","A2H3CV7SIVYREN","3FW4EL5A3LANKRP91N782LFHPY722Q","","null","<img src=""img/food4.png"" style=""width:200px; border:14px solid green;"">","null","","","","","",""
"","image-keyboard-response","271","99359","0.0-271.0","3K4J6M3CXFF4Q8QE4JQEZQO4FHKGAJ","A2H3CV7SIVYREN","3FW4EL5A3LANKRP91N782LFHPY722Q","","406","img/food7.png","75","407","1","1","4","0.2,0.8,0.2,0.8,0.2,0.8,0.8,0.2",""
"","html-keyboard-response","272","99667","0.0-272.0","3K4J6M3CXFF4Q8QE4JQEZQO4FHKGAJ","A2H3CV7SIVYREN","3FW4EL5A3LANKRP91N782LFHPY722Q","","null","<img src=""img/food7.png"" style=""width:200px; border:14px solid green;"">","null","","","","","",""
"","image-keyboard-response","273","99676","0.0-273.0","3K4J6M3CXFF4Q8QE4JQEZQO4FHKGAJ","A2H3CV7SIVYREN","3FW4EL5A3LANKRP91N782LFHPY722Q","","8","img/food4.png","75","9","1","0","3","0.2,0.8,0.2,0.8,0.2,0.8,0.8,0.2",""
"","html-keyboard-response","274","100020","0.0-274.0","3K4J6M3CXFF4Q8QE4JQEZQO4FHKGAJ","A2H3CV7SIVYREN","3FW4EL5A3LANKRP91N782LFHPY722Q","","null","<img src=""img/food4.png"" style=""width:200px;border:14px solid red;"">","null","","","","","",""
"","image-keyboard-response","275","100023","0.0-275.0","3K4J6M3CXFF4Q8QE4JQEZQO4FHKGAJ","A2H3CV7SIVYREN","3FW4EL5A3LANKRP91N782LFHPY722Q","","2","img/food5.png","75","3","1","0","1","0.2,0.8,0.2,0.8,0.2,0.8,0.8,0.2",""
"","html-keyboard-response","276","100328","0.0-276.0","3K4J6M3CXFF4Q8QE4JQEZQO4FHKGAJ","A2H3CV7SIVYREN","3FW4EL5A3LANKRP91N782LFHPY722Q","","null","<img src=""img/food5.png"" style=""width:200px;border:14px solid red;"">","null","","","","","",""
"","image-keyboard-response","277","100390","0.0-277.0","3K4J6M3CXFF4Q8QE4JQEZQO4FHKGAJ","A2H3CV7SIVYREN","3FW4EL5A3LANKRP91N782LFHPY722Q","","61","img/food4.png","75","63","1","0","3","0.2,0.8,0.2,0.8,0.2,0.8,0.8,0.2",""
"","html-keyboard-response","278","100697","0.0-278.0","3K4J6M3CXFF4Q8QE4JQEZQO4FHKGAJ","A2H3CV7SIVYREN","3FW4EL5A3LANKRP91N782LFHPY722Q","","null","<img src=""img/food4.png"" style=""width:200px;border:14px solid red;"">","null","","","","","",""
"","image-keyboard-response","279","100705","0.0-279.0","3K4J6M3CXFF4Q8QE4JQEZQO4FHKGAJ","A2H3CV7SIVYREN","3FW4EL5A3LANKRP91N782LFHPY722Q","","8","img/food8.png","75","9","1","0","2","0.2,0.8,0.2,0.8,0.2,0.8,0.8,0.2",""
"","html-keyboard-response","280","101021","0.0-280.0","3K4J6M3CXFF4Q8QE4JQEZQO4FHKGAJ","A2H3CV7SIVYREN","3FW4EL5A3LANKRP91N782LFHPY722Q","","null","<img src=""img/food8.png"" style=""width:200px;border:14px solid red;"">","null","","","","","",""
"","image-keyboard-response","281","101022","0.0-281.0","3K4J6M3CXFF4Q8QE4JQEZQO4FHKGAJ","A2H3CV7SIVYREN","3FW4EL5A3LANKRP91N782LFHPY722Q","","0","img/food4.png","75","1","1","0","3","0.2,0.8,0.2,0.8,0.2,0.8,0.8,0.2",""
"","html-keyboard-response","282","101326","0.0-282.0","3K4J6M3CXFF4Q8QE4JQEZQO4FHKGAJ","A2H3CV7SIVYREN","3FW4EL5A3LANKRP91N782LFHPY722Q","","null","<img src=""img/food4.png"" style=""width:200px;border:14px solid red;"">","null","","","","","",""
"","image-keyboard-response","283","101390","0.0-283.0","3K4J6M3CXFF4Q8QE4JQEZQO4FHKGAJ","A2H3CV7SIVYREN","3FW4EL5A3LANKRP91N782LFHPY722Q","","64","img/food7.png","75","65","1","1","4","0.2,0.8,0.2,0.8,0.2,0.8,0.8,0.2",""
"","html-keyboard-response","284","101694","0.0-284.0","3K4J6M3CXFF4Q8QE4JQEZQO4FHKGAJ","A2H3CV7SIVYREN","3FW4EL5A3LANKRP91N782LFHPY722Q","","null","<img src=""img/food7.png"" style=""width:200px; border:14px solid green;"">","null","","","","","",""
"","image-keyboard-response","285","101771","0.0-285.0","3K4J6M3CXFF4Q8QE4JQEZQO4FHKGAJ","A2H3CV7SIVYREN","3FW4EL5A3LANKRP91N782LFHPY722Q","","75","img/food4.png","75","76","1","0","3","0.2,0.8,0.2,0.8,0.2,0.8,0.8,0.2",""
"","html-keyboard-response","286","102092","0.0-286.0","3K4J6M3CXFF4Q8QE4JQEZQO4FHKGAJ","A2H3CV7SIVYREN","3FW4EL5A3LANKRP91N782LFHPY722Q","","null","<img src=""img/food4.png"" style=""width:200px;border:14px solid red;"">","null","","","","","",""
"","image-keyboard-response","287","102095","0.0-287.0","3K4J6M3CXFF4Q8QE4JQEZQO4FHKGAJ","A2H3CV7SIVYREN","3FW4EL5A3LANKRP91N782LFHPY722Q","","2","img/food7.png","76","3","2","1","4","0.2,0.8,0.2,0.8,0.2,0.8,0.8,0.2",""
"","html-keyboard-response","288","102399","0.0-288.0","3K4J6M3CXFF4Q8QE4JQEZQO4FHKGAJ","A2H3CV7SIVYREN","3FW4EL5A3LANKRP91N782LFHPY722Q","","null","<img src=""img/food7.png"" style=""width:200px; border:14px solid green;"">","null","","","","","",""
"","image-keyboard-response","289","102483","0.0-289.0","3K4J6M3CXFF4Q8QE4JQEZQO4FHKGAJ","A2H3CV7SIVYREN","3FW4EL5A3LANKRP91N782LFHPY722Q","","84","img/food5.png","76","84","2","1","1","0.2,0.8,0.2,0.8,0.2,0.8,0.8,0.2",""
"","html-keyboard-response","290","102791","0.0-290.0","3K4J6M3CXFF4Q8QE4JQEZQO4FHKGAJ","A2H3CV7SIVYREN","3FW4EL5A3LANKRP91N782LFHPY722Q","","null","<img src=""img/food5.png"" style=""width:200px; border:14px solid green;"">","null","","","","","",""
"","image-keyboard-response","291","103027","0.0-291.0","3K4J6M3CXFF4Q8QE4JQEZQO4FHKGAJ","A2H3CV7SIVYREN","3FW4EL5A3LANKRP91N782LFHPY722Q","","235","img/food7.png","76","236","2","0","4","0.2,0.8,0.2,0.8,0.2,0.8,0.8,0.2",""
"","html-keyboard-response","292","103328","0.0-292.0","3K4J6M3CXFF4Q8QE4JQEZQO4FHKGAJ","A2H3CV7SIVYREN","3FW4EL5A3LANKRP91N782LFHPY722Q","","null","<img src=""img/food7.png"" style=""width:200px;border:14px solid red;"">","null","","","","","",""
"","image-keyboard-response","293","103375","0.0-293.0","3K4J6M3CXFF4Q8QE4JQEZQO4FHKGAJ","A2H3CV7SIVYREN","3FW4EL5A3LANKRP91N782LFHPY722Q","","47","img/food7.png","76","47","2","0","4","0.2,0.8,0.2,0.8,0.2,0.8,0.8,0.2",""
"","html-keyboard-response","294","103684","0.0-294.0","3K4J6M3CXFF4Q8QE4JQEZQO4FHKGAJ","A2H3CV7SIVYREN","3FW4EL5A3LANKRP91N782LFHPY722Q","","null","<img src=""img/food7.png"" style=""width:200px;border:14px solid red;"">","null","","","","","",""
"","image-keyboard-response","295","103761","0.0-295.0","3K4J6M3CXFF4Q8QE4JQEZQO4FHKGAJ","A2H3CV7SIVYREN","3FW4EL5A3LANKRP91N782LFHPY722Q","","75","img/food8.png","76","77","2","1","2","0.2,0.8,0.2,0.8,0.2,0.8,0.8,0.2",""
"","html-keyboard-response","296","104067","0.0-296.0","3K4J6M3CXFF4Q8QE4JQEZQO4FHKGAJ","A2H3CV7SIVYREN","3FW4EL5A3LANKRP91N782LFHPY722Q","","null","<img src=""img/food8.png"" style=""width:200px; border:14px solid green;"">","null","","","","","",""
"","image-keyboard-response","297","104171","0.0-297.0","3K4J6M3CXFF4Q8QE4JQEZQO4FHKGAJ","A2H3CV7SIVYREN","3FW4EL5A3LANKRP91N782LFHPY722Q","","102","img/food4.png","75","102","1","0","3","0.2,0.8,0.2,0.8,0.2,0.8,0.8,0.2",""
"","html-keyboard-response","298","104475","0.0-298.0","3K4J6M3CXFF4Q8QE4JQEZQO4FHKGAJ","A2H3CV7SIVYREN","3FW4EL5A3LANKRP91N782LFHPY722Q","","null","<img src=""img/food4.png"" style=""width:200px;border:14px solid red;"">","null","","","","","",""
"","image-keyboard-response","299","104541","0.0-299.0","3K4J6M3CXFF4Q8QE4JQEZQO4FHKGAJ","A2H3CV7SIVYREN","3FW4EL5A3LANKRP91N782LFHPY722Q","","65","img/food4.png","76","65","2","1","3","0.2,0.8,0.2,0.8,0.2,0.8,0.8,0.2",""
"","html-keyboard-response","300","104845","0.0-300.0","3K4J6M3CXFF4Q8QE4JQEZQO4FHKGAJ","A2H3CV7SIVYREN","3FW4EL5A3LANKRP91N782LFHPY722Q","","null","<img src=""img/food4.png"" style=""width:200px; border:14px solid green;"">","null","","","","","",""
"","image-keyboard-response","301","105003","0.0-301.0","3K4J6M3CXFF4Q8QE4JQEZQO4FHKGAJ","A2H3CV7SIVYREN","3FW4EL5A3LANKRP91N782LFHPY722Q","","157","img/food5.png","75","157","1","0","1","0.2,0.8,0.2,0.8,0.2,0.8,0.8,0.2",""
"","html-keyboard-response","302","105304","0.0-302.0","3K4J6M3CXFF4Q8QE4JQEZQO4FHKGAJ","A2H3CV7SIVYREN","3FW4EL5A3LANKRP91N782LFHPY722Q","","null","<img src=""img/food5.png"" style=""width:200px;border:14px solid red;"">","null","","","","","",""
"","image-keyboard-response","303","105387","0.0-303.0","3K4J6M3CXFF4Q8QE4JQEZQO4FHKGAJ","A2H3CV7SIVYREN","3FW4EL5A3LANKRP91N782LFHPY722Q","","82","img/food8.png","76","83","2","1","2","0.2,0.8,0.2,0.8,0.2,0.8,0.8,0.2",""
"","html-keyboard-response","304","105690","0.0-304.0","3K4J6M3CXFF4Q8QE4JQEZQO4FHKGAJ","A2H3CV7SIVYREN","3FW4EL5A3LANKRP91N782LFHPY722Q","","null","<img src=""img/food8.png"" style=""width:200px; border:14px solid green;"">","null","","","","","",""
"","image-keyboard-response","305","105832","0.0-305.0","3K4J6M3CXFF4Q8QE4JQEZQO4FHKGAJ","A2H3CV7SIVYREN","3FW4EL5A3LANKRP91N782LFHPY722Q","","142","img/food4.png","75","142","1","0","3","0.2,0.8,0.2,0.8,0.2,0.8,0.8,0.2",""
"","html-keyboard-response","306","106137","0.0-306.0","3K4J6M3CXFF4Q8QE4JQEZQO4FHKGAJ","A2H3CV7SIVYREN","3FW4EL5A3LANKRP91N782LFHPY722Q","","null","<img src=""img/food4.png"" style=""width:200px;border:14px solid red;"">","null","","","","","",""
"","image-keyboard-response","307","106196","0.0-307.0","3K4J6M3CXFF4Q8QE4JQEZQO4FHKGAJ","A2H3CV7SIVYREN","3FW4EL5A3LANKRP91N782LFHPY722Q","","58","img/food8.png","76","58","2","1","2","0.2,0.8,0.2,0.8,0.2,0.8,0.8,0.2",""
"","html-keyboard-response","308","106498","0.0-308.0","3K4J6M3CXFF4Q8QE4JQEZQO4FHKGAJ","A2H3CV7SIVYREN","3FW4EL5A3LANKRP91N782LFHPY722Q","","null","<img src=""img/food8.png"" style=""width:200px; border:14px solid green;"">","null","","","","","",""
"","image-keyboard-response","309","106692","0.0-309.0","3K4J6M3CXFF4Q8QE4JQEZQO4FHKGAJ","A2H3CV7SIVYREN","3FW4EL5A3LANKRP91N782LFHPY722Q","","193","img/food4.png","75","193","1","0","3","0.2,0.8,0.2,0.8,0.2,0.8,0.8,0.2",""
"","html-keyboard-response","310","107024","0.0-310.0","3K4J6M3CXFF4Q8QE4JQEZQO4FHKGAJ","A2H3CV7SIVYREN","3FW4EL5A3LANKRP91N782LFHPY722Q","","null","<img src=""img/food4.png"" style=""width:200px;border:14px solid red;"">","null","","","","","",""
"","image-keyboard-response","311","107101","0.0-311.0","3K4J6M3CXFF4Q8QE4JQEZQO4FHKGAJ","A2H3CV7SIVYREN","3FW4EL5A3LANKRP91N782LFHPY722Q","","76","img/food5.png","76","77","2","1","1","0.2,0.8,0.2,0.8,0.2,0.8,0.8,0.2",""
"","html-keyboard-response","312","107402","0.0-312.0","3K4J6M3CXFF4Q8QE4JQEZQO4FHKGAJ","A2H3CV7SIVYREN","3FW4EL5A3LANKRP91N782LFHPY722Q","","null","<img src=""img/food5.png"" style=""width:200px; border:14px solid green;"">","null","","","","","",""
"","image-keyboard-response","313","107516","0.0-313.0","3K4J6M3CXFF4Q8QE4JQEZQO4FHKGAJ","A2H3CV7SIVYREN","3FW4EL5A3LANKRP91N782LFHPY722Q","","112","img/food4.png","75","114","1","0","3","0.2,0.8,0.2,0.8,0.2,0.8,0.8,0.2",""
"","html-keyboard-response","314","107817","0.0-314.0","3K4J6M3CXFF4Q8QE4JQEZQO4FHKGAJ","A2H3CV7SIVYREN","3FW4EL5A3LANKRP91N782LFHPY722Q","","null","<img src=""img/food4.png"" style=""width:200px;border:14px solid red;"">","null","","","","","",""
"","image-keyboard-response","315","107899","0.0-315.0","3K4J6M3CXFF4Q8QE4JQEZQO4FHKGAJ","A2H3CV7SIVYREN","3FW4EL5A3LANKRP91N782LFHPY722Q","","80","img/food4.png","76","81","2","1","3","0.2,0.8,0.2,0.8,0.2,0.8,0.8,0.2",""
"","html-keyboard-response","316","108203","0.0-316.0","3K4J6M3CXFF4Q8QE4JQEZQO4FHKGAJ","A2H3CV7SIVYREN","3FW4EL5A3LANKRP91N782LFHPY722Q","","null","<img src=""img/food4.png"" style=""width:200px; border:14px solid green;"">","null","","","","","",""
"","image-keyboard-response","317","108336","0.0-317.0","3K4J6M3CXFF4Q8QE4JQEZQO4FHKGAJ","A2H3CV7SIVYREN","3FW4EL5A3LANKRP91N782LFHPY722Q","","132","img/food7.png","75","133","1","1","4","0.2,0.8,0.2,0.8,0.2,0.8,0.8,0.2",""
"","html-keyboard-response","318","108638","0.0-318.0","3K4J6M3CXFF4Q8QE4JQEZQO4FHKGAJ","A2H3CV7SIVYREN","3FW4EL5A3LANKRP91N782LFHPY722Q","","null","<img src=""img/food7.png"" style=""width:200px; border:14px solid green;"">","null","","","","","",""
"","image-keyboard-response","319","108848","0.0-319.0","3K4J6M3CXFF4Q8QE4JQEZQO4FHKGAJ","A2H3CV7SIVYREN","3FW4EL5A3LANKRP91N782LFHPY722Q","","210","img/food4.png","76","210","2","0","3","0.2,0.8,0.2,0.8,0.2,0.8,0.8,0.2",""
"","html-keyboard-response","320","109149","0.0-320.0","3K4J6M3CXFF4Q8QE4JQEZQO4FHKGAJ","A2H3CV7SIVYREN","3FW4EL5A3LANKRP91N782LFHPY722Q","","null","<img src=""img/food4.png"" style=""width:200px;border:14px solid red;"">","null","","","","","",""
"","image-keyboard-response","321","109287","0.0-321.0","3K4J6M3CXFF4Q8QE4JQEZQO4FHKGAJ","A2H3CV7SIVYREN","3FW4EL5A3LANKRP91N782LFHPY722Q","","137","img/food4.png","75","138","1","0","3","0.2,0.8,0.2,0.8,0.2,0.8,0.8,0.2",""
"","html-keyboard-response","322","109593","0.0-322.0","3K4J6M3CXFF4Q8QE4JQEZQO4FHKGAJ","A2H3CV7SIVYREN","3FW4EL5A3LANKRP91N782LFHPY722Q","","null","<img src=""img/food4.png"" style=""width:200px;border:14px solid red;"">","null","","","","","",""
"","image-keyboard-response","323","109755","0.0-323.0","3K4J6M3CXFF4Q8QE4JQEZQO4FHKGAJ","A2H3CV7SIVYREN","3FW4EL5A3LANKRP91N782LFHPY722Q","","161","img/food4.png","76","161","2","1","3","0.2,0.8,0.2,0.8,0.2,0.8,0.8,0.2",""
"","html-keyboard-response","324","110057","0.0-324.0","3K4J6M3CXFF4Q8QE4JQEZQO4FHKGAJ","A2H3CV7SIVYREN","3FW4EL5A3LANKRP91N782LFHPY722Q","","null","<img src=""img/food4.png"" style=""width:200px; border:14px solid green;"">","null","","","","","",""
"","image-keyboard-response","325","110162","0.0-325.0","3K4J6M3CXFF4Q8QE4JQEZQO4FHKGAJ","A2H3CV7SIVYREN","3FW4EL5A3LANKRP91N782LFHPY722Q","","100","img/food5.png","75","106","1","0","1","0.2,0.8,0.2,0.8,0.2,0.8,0.8,0.2",""
"","html-keyboard-response","326","110466","0.0-326.0","3K4J6M3CXFF4Q8QE4JQEZQO4FHKGAJ","A2H3CV7SIVYREN","3FW4EL5A3LANKRP91N782LFHPY722Q","","null","<img src=""img/food5.png"" style=""width:200px;border:14px solid red;"">","null","","","","","",""
"","image-keyboard-response","327","110618","0.0-327.0","3K4J6M3CXFF4Q8QE4JQEZQO4FHKGAJ","A2H3CV7SIVYREN","3FW4EL5A3LANKRP91N782LFHPY722Q","","151","img/food5.png","76","152","2","0","1","0.2,0.8,0.2,0.8,0.2,0.8,0.8,0.2",""
"","html-keyboard-response","328","110918","0.0-328.0","3K4J6M3CXFF4Q8QE4JQEZQO4FHKGAJ","A2H3CV7SIVYREN","3FW4EL5A3LANKRP91N782LFHPY722Q","","null","<img src=""img/food5.png"" style=""width:200px;border:14px solid red;"">","null","","","","","",""
"","image-keyboard-response","329","111113","0.0-329.0","3K4J6M3CXFF4Q8QE4JQEZQO4FHKGAJ","A2H3CV7SIVYREN","3FW4EL5A3LANKRP91N782LFHPY722Q","","190","img/food8.png","75","195","1","1","2","0.2,0.8,0.2,0.8,0.2,0.8,0.8,0.2",""
"","html-keyboard-response","330","111418","0.0-330.0","3K4J6M3CXFF4Q8QE4JQEZQO4FHKGAJ","A2H3CV7SIVYREN","3FW4EL5A3LANKRP91N782LFHPY722Q","","null","<img src=""img/food8.png"" style=""width:200px; border:14px solid green;"">","null","","","","","",""
"","image-keyboard-response","331","111647","0.0-331.0","3K4J6M3CXFF4Q8QE4JQEZQO4FHKGAJ","A2H3CV7SIVYREN","3FW4EL5A3LANKRP91N782LFHPY722Q","","226","img/food5.png","75","229","1","1","1","0.2,0.8,0.2,0.8,0.2,0.8,0.8,0.2",""
"","html-keyboard-response","332","111949","0.0-332.0","3K4J6M3CXFF4Q8QE4JQEZQO4FHKGAJ","A2H3CV7SIVYREN","3FW4EL5A3LANKRP91N782LFHPY722Q","","null","<img src=""img/food5.png"" style=""width:200px; border:14px solid green;"">","null","","","","","",""
"","image-keyboard-response","333","112145","0.0-333.0","3K4J6M3CXFF4Q8QE4JQEZQO4FHKGAJ","A2H3CV7SIVYREN","3FW4EL5A3LANKRP91N782LFHPY722Q","","194","img/food5.png","75","195","1","1","1","0.2,0.8,0.2,0.8,0.2,0.8,0.8,0.2",""
"","html-keyboard-response","334","112464","0.0-334.0","3K4J6M3CXFF4Q8QE4JQEZQO4FHKGAJ","A2H3CV7SIVYREN","3FW4EL5A3LANKRP91N782LFHPY722Q","","null","<img src=""img/food5.png"" style=""width:200px; border:14px solid green;"">","null","","","","","",""
"","image-keyboard-response","335","112599","0.0-335.0","3K4J6M3CXFF4Q8QE4JQEZQO4FHKGAJ","A2H3CV7SIVYREN","3FW4EL5A3LANKRP91N782LFHPY722Q","","131","img/food4.png","75","132","1","1","3","0.2,0.8,0.2,0.8,0.2,0.8,0.8,0.2",""
"","html-keyboard-response","336","112901","0.0-336.0","3K4J6M3CXFF4Q8QE4JQEZQO4FHKGAJ","A2H3CV7SIVYREN","3FW4EL5A3LANKRP91N782LFHPY722Q","","null","<img src=""img/food4.png"" style=""width:200px; border:14px solid green;"">","null","","","","","",""
"","image-keyboard-response","337","113016","0.0-337.0","3K4J6M3CXFF4Q8QE4JQEZQO4FHKGAJ","A2H3CV7SIVYREN","3FW4EL5A3LANKRP91N782LFHPY722Q","","112","img/food8.png","75","115","1","0","2","0.2,0.8,0.2,0.8,0.2,0.8,0.8,0.2",""
"","html-keyboard-response","338","113320","0.0-338.0","3K4J6M3CXFF4Q8QE4JQEZQO4FHKGAJ","A2H3CV7SIVYREN","3FW4EL5A3LANKRP91N782LFHPY722Q","","null","<img src=""img/food8.png"" style=""width:200px;border:14px solid red;"">","null","","","","","",""
"","image-keyboard-response","339","113561","0.0-339.0","3K4J6M3CXFF4Q8QE4JQEZQO4FHKGAJ","A2H3CV7SIVYREN","3FW4EL5A3LANKRP91N782LFHPY722Q","","239","img/food7.png","75","241","1","1","4","0.2,0.8,0.2,0.8,0.2,0.8,0.8,0.2",""
"","html-keyboard-response","340","113866","0.0-340.0","3K4J6M3CXFF4Q8QE4JQEZQO4FHKGAJ","A2H3CV7SIVYREN","3FW4EL5A3LANKRP91N782LFHPY722Q","","null","<img src=""img/food7.png"" style=""width:200px; border:14px solid green;"">","null","","","","","",""
"","image-keyboard-response","341","114018","0.0-341.0","3K4J6M3CXFF4Q8QE4JQEZQO4FHKGAJ","A2H3CV7SIVYREN","3FW4EL5A3LANKRP91N782LFHPY722Q","","150","img/food8.png","76","152","2","1","2","0.2,0.8,0.2,0.8,0.2,0.8,0.8,0.2",""
"","html-keyboard-response","342","114324","0.0-342.0","3K4J6M3CXFF4Q8QE4JQEZQO4FHKGAJ","A2H3CV7SIVYREN","3FW4EL5A3LANKRP91N782LFHPY722Q","","null","<img src=""img/food8.png"" style=""width:200px; border:14px solid green;"">","null","","","","","",""
"","image-keyboard-response","343","114428","0.0-343.0","3K4J6M3CXFF4Q8QE4JQEZQO4FHKGAJ","A2H3CV7SIVYREN","3FW4EL5A3LANKRP91N782LFHPY722Q","","103","img/food7.png","76","104","2","0","4","0.2,0.8,0.2,0.8,0.2,0.8,0.8,0.2",""
"","html-keyboard-response","344","114765","0.0-344.0","3K4J6M3CXFF4Q8QE4JQEZQO4FHKGAJ","A2H3CV7SIVYREN","3FW4EL5A3LANKRP91N782LFHPY722Q","","null","<img src=""img/food7.png"" style=""width:200px;border:14px solid red;"">","null","","","","","",""
"","image-keyboard-response","345","114840","0.0-345.0","3K4J6M3CXFF4Q8QE4JQEZQO4FHKGAJ","A2H3CV7SIVYREN","3FW4EL5A3LANKRP91N782LFHPY722Q","","73","img/food7.png","76","75","2","0","4","0.2,0.8,0.2,0.8,0.2,0.8,0.8,0.2",""
"","html-keyboard-response","346","115158","0.0-346.0","3K4J6M3CXFF4Q8QE4JQEZQO4FHKGAJ","A2H3CV7SIVYREN","3FW4EL5A3LANKRP91N782LFHPY722Q","","null","<img src=""img/food7.png"" style=""width:200px;border:14px solid red;"">","null","","","","","",""
"","image-keyboard-response","347","115355","0.0-347.0","3K4J6M3CXFF4Q8QE4JQEZQO4FHKGAJ","A2H3CV7SIVYREN","3FW4EL5A3LANKRP91N782LFHPY722Q","","196","img/food8.png","75","197","1","0","2","0.2,0.8,0.2,0.8,0.2,0.8,0.8,0.2",""
"","html-keyboard-response","348","115656","0.0-348.0","3K4J6M3CXFF4Q8QE4JQEZQO4FHKGAJ","A2H3CV7SIVYREN","3FW4EL5A3LANKRP91N782LFHPY722Q","","null","<img src=""img/food8.png"" style=""width:200px;border:14px solid red;"">","null","","","","","",""
"","image-keyboard-response","349","115795","0.0-349.0","3K4J6M3CXFF4Q8QE4JQEZQO4FHKGAJ","A2H3CV7SIVYREN","3FW4EL5A3LANKRP91N782LFHPY722Q","","138","img/food7.png","75","139","1","0","4","0.2,0.8,0.2,0.8,0.2,0.8,0.8,0.2",""
"","html-keyboard-response","350","116101","0.0-350.0","3K4J6M3CXFF4Q8QE4JQEZQO4FHKGAJ","A2H3CV7SIVYREN","3FW4EL5A3LANKRP91N782LFHPY722Q","","null","<img src=""img/food7.png"" style=""width:200px;border:14px solid red;"">","null","","","","","",""
"","image-keyboard-response","351","116322","0.0-351.0","3K4J6M3CXFF4Q8QE4JQEZQO4FHKGAJ","A2H3CV7SIVYREN","3FW4EL5A3LANKRP91N782LFHPY722Q","","219","img/food5.png","75","220","1","1","1","0.2,0.8,0.2,0.8,0.2,0.8,0.8,0.2",""
"","html-keyboard-response","352","116625","0.0-352.0","3K4J6M3CXFF4Q8QE4JQEZQO4FHKGAJ","A2H3CV7SIVYREN","3FW4EL5A3LANKRP91N782LFHPY722Q","","null","<img src=""img/food5.png"" style=""width:200px; border:14px solid green;"">","null","","","","","",""
"","image-keyboard-response","353","116666","0.0-353.0","3K4J6M3CXFF4Q8QE4JQEZQO4FHKGAJ","A2H3CV7SIVYREN","3FW4EL5A3LANKRP91N782LFHPY722Q","","40","img/food4.png","75","41","1","0","3","0.2,0.8,0.2,0.8,0.2,0.8,0.8,0.2",""
"","html-keyboard-response","354","116972","0.0-354.0","3K4J6M3CXFF4Q8QE4JQEZQO4FHKGAJ","A2H3CV7SIVYREN","3FW4EL5A3LANKRP91N782LFHPY722Q","","null","<img src=""img/food4.png"" style=""width:200px;border:14px solid red;"">","null","","","","","",""
"","image-keyboard-response","355","117189","0.0-355.0","3K4J6M3CXFF4Q8QE4JQEZQO4FHKGAJ","A2H3CV7SIVYREN","3FW4EL5A3LANKRP91N782LFHPY722Q","","217","img/food5.png","75","217","1","0","1","0.2,0.8,0.2,0.8,0.2,0.8,0.8,0.2",""
"","html-keyboard-response","356","117492","0.0-356.0","3K4J6M3CXFF4Q8QE4JQEZQO4FHKGAJ","A2H3CV7SIVYREN","3FW4EL5A3LANKRP91N782LFHPY722Q","","null","<img src=""img/food5.png"" style=""width:200px;border:14px solid red;"">","null","","","","","",""
"","image-keyboard-response","357","117748","0.0-357.0","3K4J6M3CXFF4Q8QE4JQEZQO4FHKGAJ","A2H3CV7SIVYREN","3FW4EL5A3LANKRP91N782LFHPY722Q","","254","img/food5.png","75","256","1","1","1","0.2,0.8,0.2,0.8,0.2,0.8,0.8,0.2",""
"","html-keyboard-response","358","118059","0.0-358.0","3K4J6M3CXFF4Q8QE4JQEZQO4FHKGAJ","A2H3CV7SIVYREN","3FW4EL5A3LANKRP91N782LFHPY722Q","","null","<img src=""img/food5.png"" style=""width:200px; border:14px solid green;"">","null","","","","","",""
"","image-keyboard-response","359","118169","0.0-359.0","3K4J6M3CXFF4Q8QE4JQEZQO4FHKGAJ","A2H3CV7SIVYREN","3FW4EL5A3LANKRP91N782LFHPY722Q","","109","img/food4.png","76","109","2","1","3","0.2,0.8,0.2,0.8,0.2,0.8,0.8,0.2",""
"","html-keyboard-response","360","118473","0.0-360.0","3K4J6M3CXFF4Q8QE4JQEZQO4FHKGAJ","A2H3CV7SIVYREN","3FW4EL5A3LANKRP91N782LFHPY722Q","","null","<img src=""img/food4.png"" style=""width:200px; border:14px solid green;"">","null","","","","","",""
"","image-keyboard-response","361","118511","0.0-361.0","3K4J6M3CXFF4Q8QE4JQEZQO4FHKGAJ","A2H3CV7SIVYREN","3FW4EL5A3LANKRP91N782LFHPY722Q","","37","img/food5.png","76","38","2","1","1","0.2,0.8,0.2,0.8,0.2,0.8,0.8,0.2",""
"","html-keyboard-response","362","118819","0.0-362.0","3K4J6M3CXFF4Q8QE4JQEZQO4FHKGAJ","A2H3CV7SIVYREN","3FW4EL5A3LANKRP91N782LFHPY722Q","","null","<img src=""img/food5.png"" style=""width:200px; border:14px solid green;"">","null","","","","","",""
"","image-keyboard-response","363","118948","0.0-363.0","3K4J6M3CXFF4Q8QE4JQEZQO4FHKGAJ","A2H3CV7SIVYREN","3FW4EL5A3LANKRP91N782LFHPY722Q","","127","img/food8.png","76","129","2","1","2","0.2,0.8,0.2,0.8,0.2,0.8,0.8,0.2",""
"","html-keyboard-response","364","119252","0.0-364.0","3K4J6M3CXFF4Q8QE4JQEZQO4FHKGAJ","A2H3CV7SIVYREN","3FW4EL5A3LANKRP91N782LFHPY722Q","","null","<img src=""img/food8.png"" style=""width:200px; border:14px solid green;"">","null","","","","","",""
"","image-keyboard-response","365","119394","0.0-365.0","3K4J6M3CXFF4Q8QE4JQEZQO4FHKGAJ","A2H3CV7SIVYREN","3FW4EL5A3LANKRP91N782LFHPY722Q","","141","img/food5.png","76","142","2","1","1","0.2,0.8,0.2,0.8,0.2,0.8,0.8,0.2",""
"","html-keyboard-response","366","119699","0.0-366.0","3K4J6M3CXFF4Q8QE4JQEZQO4FHKGAJ","A2H3CV7SIVYREN","3FW4EL5A3LANKRP91N782LFHPY722Q","","null","<img src=""img/food5.png"" style=""width:200px; border:14px solid green;"">","null","","","","","",""
"","image-keyboard-response","367","119856","0.0-367.0","3K4J6M3CXFF4Q8QE4JQEZQO4FHKGAJ","A2H3CV7SIVYREN","3FW4EL5A3LANKRP91N782LFHPY722Q","","156","img/food4.png","76","156","2","0","3","0.2,0.8,0.2,0.8,0.2,0.8,0.8,0.2",""
"","html-keyboard-response","368","120176","0.0-368.0","3K4J6M3CXFF4Q8QE4JQEZQO4FHKGAJ","A2H3CV7SIVYREN","3FW4EL5A3LANKRP91N782LFHPY722Q","","null","<img src=""img/food4.png"" style=""width:200px;border:14px solid red;"">","null","","","","","",""
"","image-keyboard-response","369","120339","0.0-369.0","3K4J6M3CXFF4Q8QE4JQEZQO4FHKGAJ","A2H3CV7SIVYREN","3FW4EL5A3LANKRP91N782LFHPY722Q","","162","img/food5.png","76","163","2","1","1","0.2,0.8,0.2,0.8,0.2,0.8,0.8,0.2",""
"","html-keyboard-response","370","120644","0.0-370.0","3K4J6M3CXFF4Q8QE4JQEZQO4FHKGAJ","A2H3CV7SIVYREN","3FW4EL5A3LANKRP91N782LFHPY722Q","","null","<img src=""img/food5.png"" style=""width:200px; border:14px solid green;"">","null","","","","","",""
"","image-keyboard-response","371","121060","0.0-371.0","3K4J6M3CXFF4Q8QE4JQEZQO4FHKGAJ","A2H3CV7SIVYREN","3FW4EL5A3LANKRP91N782LFHPY722Q","","415","img/food8.png","76","416","2","0","2","0.2,0.8,0.2,0.8,0.2,0.8,0.8,0.2",""
"","html-keyboard-response","372","121361","0.0-372.0","3K4J6M3CXFF4Q8QE4JQEZQO4FHKGAJ","A2H3CV7SIVYREN","3FW4EL5A3LANKRP91N782LFHPY722Q","","null","<img src=""img/food8.png"" style=""width:200px;border:14px solid red;"">","null","","","","","",""
"","image-keyboard-response","373","121593","0.0-373.0","3K4J6M3CXFF4Q8QE4JQEZQO4FHKGAJ","A2H3CV7SIVYREN","3FW4EL5A3LANKRP91N782LFHPY722Q","","231","img/food5.png","76","232","2","0","1","0.2,0.8,0.2,0.8,0.2,0.8,0.8,0.2",""
"","html-keyboard-response","374","121898","0.0-374.0","3K4J6M3CXFF4Q8QE4JQEZQO4FHKGAJ","A2H3CV7SIVYREN","3FW4EL5A3LANKRP91N782LFHPY722Q","","null","<img src=""img/food5.png"" style=""width:200px;border:14px solid red;"">","null","","","","","",""
"","image-keyboard-response","375","122103","0.0-375.0","3K4J6M3CXFF4Q8QE4JQEZQO4FHKGAJ","A2H3CV7SIVYREN","3FW4EL5A3LANKRP91N782LFHPY722Q","","203","img/food8.png","76","205","2","1","2","0.2,0.8,0.2,0.8,0.2,0.8,0.8,0.2",""
"","html-keyboard-response","376","122434","0.0-376.0","3K4J6M3CXFF4Q8QE4JQEZQO4FHKGAJ","A2H3CV7SIVYREN","3FW4EL5A3LANKRP91N782LFHPY722Q","","null","<img src=""img/food8.png"" style=""width:200px; border:14px solid green;"">","null","","","","","",""
"","image-keyboard-response","377","122571","0.0-377.0","3K4J6M3CXFF4Q8QE4JQEZQO4FHKGAJ","A2H3CV7SIVYREN","3FW4EL5A3LANKRP91N782LFHPY722Q","","135","img/food4.png","75","137","1","0","3","0.2,0.8,0.2,0.8,0.2,0.8,0.8,0.2",""
"","html-keyboard-response","378","122873","0.0-378.0","3K4J6M3CXFF4Q8QE4JQEZQO4FHKGAJ","A2H3CV7SIVYREN","3FW4EL5A3LANKRP91N782LFHPY722Q","","null","<img src=""img/food4.png"" style=""width:200px;border:14px solid red;"">","null","","","","","",""
"","image-keyboard-response","379","123036","0.0-379.0","3K4J6M3CXFF4Q8QE4JQEZQO4FHKGAJ","A2H3CV7SIVYREN","3FW4EL5A3LANKRP91N782LFHPY722Q","","161","img/food5.png","75","163","1","0","1","0.2,0.8,0.2,0.8,0.2,0.8,0.8,0.2",""
"","html-keyboard-response","380","123340","0.0-380.0","3K4J6M3CXFF4Q8QE4JQEZQO4FHKGAJ","A2H3CV7SIVYREN","3FW4EL5A3LANKRP91N782LFHPY722Q","","null","<img src=""img/food5.png"" style=""width:200px;border:14px solid red;"">","null","","","","","",""
"","image-keyboard-response","381","123639","0.0-381.0","3K4J6M3CXFF4Q8QE4JQEZQO4FHKGAJ","A2H3CV7SIVYREN","3FW4EL5A3LANKRP91N782LFHPY722Q","","298","img/food5.png","76","299","2","1","1","0.2,0.8,0.2,0.8,0.2,0.8,0.8,0.2",""
"","html-keyboard-response","382","123948","0.0-382.0","3K4J6M3CXFF4Q8QE4JQEZQO4FHKGAJ","A2H3CV7SIVYREN","3FW4EL5A3LANKRP91N782LFHPY722Q","","null","<img src=""img/food5.png"" style=""width:200px; border:14px solid green;"">","null","","","","","",""
"","image-keyboard-response","383","124050","0.0-383.0","3K4J6M3CXFF4Q8QE4JQEZQO4FHKGAJ","A2H3CV7SIVYREN","3FW4EL5A3LANKRP91N782LFHPY722Q","","101","img/food5.png","76","102","2","1","1","0.2,0.8,0.2,0.8,0.2,0.8,0.8,0.2",""
"","html-keyboard-response","384","124360","0.0-384.0","3K4J6M3CXFF4Q8QE4JQEZQO4FHKGAJ","A2H3CV7SIVYREN","3FW4EL5A3LANKRP91N782LFHPY722Q","","null","<img src=""img/food5.png"" style=""width:200px; border:14px solid green;"">","null","","","","","",""
"","image-keyboard-response","385","124537","0.0-385.0","3K4J6M3CXFF4Q8QE4JQEZQO4FHKGAJ","A2H3CV7SIVYREN","3FW4EL5A3LANKRP91N782LFHPY722Q","","176","img/food5.png","76","177","2","1","1","0.2,0.8,0.2,0.8,0.2,0.8,0.8,0.2",""
"","html-keyboard-response","386","124843","0.0-386.0","3K4J6M3CXFF4Q8QE4JQEZQO4FHKGAJ","A2H3CV7SIVYREN","3FW4EL5A3LANKRP91N782LFHPY722Q","","null","<img src=""img/food5.png"" style=""width:200px; border:14px solid green;"">","null","","","","","",""
"","image-keyboard-response","387","124995","0.0-387.0","3K4J6M3CXFF4Q8QE4JQEZQO4FHKGAJ","A2H3CV7SIVYREN","3FW4EL5A3LANKRP91N782LFHPY722Q","","151","img/food8.png","76","153","2","1","2","0.2,0.8,0.2,0.8,0.2,0.8,0.8,0.2",""
"","html-keyboard-response","388","125344","0.0-388.0","3K4J6M3CXFF4Q8QE4JQEZQO4FHKGAJ","A2H3CV7SIVYREN","3FW4EL5A3LANKRP91N782LFHPY722Q","","null","<img src=""img/food8.png"" style=""width:200px; border:14px solid green;"">","null","","","","","",""
"","image-keyboard-response","389","125448","0.0-389.0","3K4J6M3CXFF4Q8QE4JQEZQO4FHKGAJ","A2H3CV7SIVYREN","3FW4EL5A3LANKRP91N782LFHPY722Q","","103","img/food8.png","76","104","2","1","2","0.2,0.8,0.2,0.8,0.2,0.8,0.8,0.2",""
"","html-keyboard-response","390","125750","0.0-390.0","3K4J6M3CXFF4Q8QE4JQEZQO4FHKGAJ","A2H3CV7SIVYREN","3FW4EL5A3LANKRP91N782LFHPY722Q","","null","<img src=""img/food8.png"" style=""width:200px; border:14px solid green;"">","null","","","","","",""
"","image-keyboard-response","391","125900","0.0-391.0","3K4J6M3CXFF4Q8QE4JQEZQO4FHKGAJ","A2H3CV7SIVYREN","3FW4EL5A3LANKRP91N782LFHPY722Q","","150","img/food7.png","76","150","2","1","4","0.2,0.8,0.2,0.8,0.2,0.8,0.8,0.2",""
"","html-keyboard-response","392","126202","0.0-392.0","3K4J6M3CXFF4Q8QE4JQEZQO4FHKGAJ","A2H3CV7SIVYREN","3FW4EL5A3LANKRP91N782LFHPY722Q","","null","<img src=""img/food7.png"" style=""width:200px; border:14px solid green;"">","null","","","","","",""
"","image-keyboard-response","393","126574","0.0-393.0","3K4J6M3CXFF4Q8QE4JQEZQO4FHKGAJ","A2H3CV7SIVYREN","3FW4EL5A3LANKRP91N782LFHPY722Q","","371","img/food7.png","76","372","2","0","4","0.2,0.8,0.2,0.8,0.2,0.8,0.8,0.2",""
"","html-keyboard-response","394","126877","0.0-394.0","3K4J6M3CXFF4Q8QE4JQEZQO4FHKGAJ","A2H3CV7SIVYREN","3FW4EL5A3LANKRP91N782LFHPY722Q","","null","<img src=""img/food7.png"" style=""width:200px;border:14px solid red;"">","null","","","","","",""
"","image-keyboard-response","395","126930","0.0-395.0","3K4J6M3CXFF4Q8QE4JQEZQO4FHKGAJ","A2H3CV7SIVYREN","3FW4EL5A3LANKRP91N782LFHPY722Q","","51","img/food5.png","76","52","2","1","1","0.2,0.8,0.2,0.8,0.2,0.8,0.8,0.2",""
"","html-keyboard-response","396","127252","0.0-396.0","3K4J6M3CXFF4Q8QE4JQEZQO4FHKGAJ","A2H3CV7SIVYREN","3FW4EL5A3LANKRP91N782LFHPY722Q","","null","<img src=""img/food5.png"" style=""width:200px; border:14px solid green;"">","null","","","","","",""
"","image-keyboard-response","397","127492","0.0-397.0","3K4J6M3CXFF4Q8QE4JQEZQO4FHKGAJ","A2H3CV7SIVYREN","3FW4EL5A3LANKRP91N782LFHPY722Q","","238","img/food7.png","76","239","2","0","4","0.2,0.8,0.2,0.8,0.2,0.8,0.8,0.2",""
"","html-keyboard-response","398","127801","0.0-398.0","3K4J6M3CXFF4Q8QE4JQEZQO4FHKGAJ","A2H3CV7SIVYREN","3FW4EL5A3LANKRP91N782LFHPY722Q","","null","<img src=""img/food7.png"" style=""width:200px;border:14px solid red;"">","null","","","","","",""
"","image-keyboard-response","399","127948","0.0-399.0","3K4J6M3CXFF4Q8QE4JQEZQO4FHKGAJ","A2H3CV7SIVYREN","3FW4EL5A3LANKRP91N782LFHPY722Q","","146","img/food5.png","76","147","2","1","1","0.2,0.8,0.2,0.8,0.2,0.8,0.8,0.2",""
"","html-keyboard-response","400","128251","0.0-400.0","3K4J6M3CXFF4Q8QE4JQEZQO4FHKGAJ","A2H3CV7SIVYREN","3FW4EL5A3LANKRP91N782LFHPY722Q","","null","<img src=""img/food5.png"" style=""width:200px; border:14px solid green;"">","null","","","","","",""
"","image-keyboard-response","401","128397","0.0-401.0","3K4J6M3CXFF4Q8QE4JQEZQO4FHKGAJ","A2H3CV7SIVYREN","3FW4EL5A3LANKRP91N782LFHPY722Q","","144","img/food7.png","76","146","2","0","4","0.2,0.8,0.2,0.8,0.2,0.8,0.8,0.2",""
"","html-keyboard-response","402","128726","0.0-402.0","3K4J6M3CXFF4Q8QE4JQEZQO4FHKGAJ","A2H3CV7SIVYREN","3FW4EL5A3LANKRP91N782LFHPY722Q","","null","<img src=""img/food7.png"" style=""width:200px;border:14px solid red;"">","null","","","","","",""
"","image-keyboard-response","403","128856","0.0-403.0","3K4J6M3CXFF4Q8QE4JQEZQO4FHKGAJ","A2H3CV7SIVYREN","3FW4EL5A3LANKRP91N782LFHPY722Q","","129","img/food5.png","76","130","2","1","1","0.2,0.8,0.2,0.8,0.2,0.8,0.8,0.2",""
"","html-keyboard-response","404","129178","0.0-404.0","3K4J6M3CXFF4Q8QE4JQEZQO4FHKGAJ","A2H3CV7SIVYREN","3FW4EL5A3LANKRP91N782LFHPY722Q","","null","<img src=""img/food5.png"" style=""width:200px; border:14px solid green;"">","null","","","","","",""
"","image-keyboard-response","405","129246","0.0-405.0","3K4J6M3CXFF4Q8QE4JQEZQO4FHKGAJ","A2H3CV7SIVYREN","3FW4EL5A3LANKRP91N782LFHPY722Q","","65","img/food7.png","76","67","2","0","4","0.2,0.8,0.2,0.8,0.2,0.8,0.8,0.2",""
"","html-keyboard-response","406","129551","0.0-406.0","3K4J6M3CXFF4Q8QE4JQEZQO4FHKGAJ","A2H3CV7SIVYREN","3FW4EL5A3LANKRP91N782LFHPY722Q","","null","<img src=""img/food7.png"" style=""width:200px;border:14px solid red;"">","null","","","","","",""
"","image-keyboard-response","407","129639","0.0-407.0","3K4J6M3CXFF4Q8QE4JQEZQO4FHKGAJ","A2H3CV7SIVYREN","3FW4EL5A3LANKRP91N782LFHPY722Q","","86","img/food8.png","76","88","2","1","2","0.2,0.8,0.2,0.8,0.2,0.8,0.8,0.2",""
"","html-keyboard-response","408","129947","0.0-408.0","3K4J6M3CXFF4Q8QE4JQEZQO4FHKGAJ","A2H3CV7SIVYREN","3FW4EL5A3LANKRP91N782LFHPY722Q","","null","<img src=""img/food8.png"" style=""width:200px; border:14px solid green;"">","null","","","","","",""
"","image-keyboard-response","409","130076","0.0-409.0","3K4J6M3CXFF4Q8QE4JQEZQO4FHKGAJ","A2H3CV7SIVYREN","3FW4EL5A3LANKRP91N782LFHPY722Q","","127","img/food7.png","76","129","2","1","4","0.2,0.8,0.2,0.8,0.2,0.8,0.8,0.2",""
"","html-keyboard-response","410","130386","0.0-410.0","3K4J6M3CXFF4Q8QE4JQEZQO4FHKGAJ","A2H3CV7SIVYREN","3FW4EL5A3LANKRP91N782LFHPY722Q","","null","<img src=""img/food7.png"" style=""width:200px; border:14px solid green;"">","null","","","","","",""
"","image-keyboard-response","411","130594","0.0-411.0","3K4J6M3CXFF4Q8QE4JQEZQO4FHKGAJ","A2H3CV7SIVYREN","3FW4EL5A3LANKRP91N782LFHPY722Q","","207","img/food8.png","76","207","2","1","2","0.2,0.8,0.2,0.8,0.2,0.8,0.8,0.2",""
"","html-keyboard-response","412","130900","0.0-412.0","3K4J6M3CXFF4Q8QE4JQEZQO4FHKGAJ","A2H3CV7SIVYREN","3FW4EL5A3LANKRP91N782LFHPY722Q","","null","<img src=""img/food8.png"" style=""width:200px; border:14px solid green;"">","null","","","","","",""
"","image-keyboard-response","413","131092","0.0-413.0","3K4J6M3CXFF4Q8QE4JQEZQO4FHKGAJ","A2H3CV7SIVYREN","3FW4EL5A3LANKRP91N782LFHPY722Q","","191","img/food8.png","76","192","2","1","2","0.2,0.8,0.2,0.8,0.2,0.8,0.8,0.2",""
"","html-keyboard-response","414","131398","0.0-414.0","3K4J6M3CXFF4Q8QE4JQEZQO4FHKGAJ","A2H3CV7SIVYREN","3FW4EL5A3LANKRP91N782LFHPY722Q","","null","<img src=""img/food8.png"" style=""width:200px; border:14px solid green;"">","null","","","","","",""
"","image-keyboard-response","415","131526","0.0-415.0","3K4J6M3CXFF4Q8QE4JQEZQO4FHKGAJ","A2H3CV7SIVYREN","3FW4EL5A3LANKRP91N782LFHPY722Q","","126","img/food4.png","76","127","2","1","3","0.2,0.8,0.2,0.8,0.2,0.8,0.8,0.2",""
"","html-keyboard-response","416","131830","0.0-416.0","3K4J6M3CXFF4Q8QE4JQEZQO4FHKGAJ","A2H3CV7SIVYREN","3FW4EL5A3LANKRP91N782LFHPY722Q","","null","<img src=""img/food4.png"" style=""width:200px; border:14px solid green;"">","null","","","","","",""
"","image-keyboard-response","417","132155","0.0-417.0","3K4J6M3CXFF4Q8QE4JQEZQO4FHKGAJ","A2H3CV7SIVYREN","3FW4EL5A3LANKRP91N782LFHPY722Q","","323","img/food4.png","76","325","2","1","3","0.2,0.8,0.2,0.8,0.2,0.8,0.8,0.2",""
"","html-keyboard-response","418","132460","0.0-418.0","3K4J6M3CXFF4Q8QE4JQEZQO4FHKGAJ","A2H3CV7SIVYREN","3FW4EL5A3LANKRP91N782LFHPY722Q","","null","<img src=""img/food4.png"" style=""width:200px; border:14px solid green;"">","null","","","","","",""
"","image-keyboard-response","419","132587","0.0-419.0","3K4J6M3CXFF4Q8QE4JQEZQO4FHKGAJ","A2H3CV7SIVYREN","3FW4EL5A3LANKRP91N782LFHPY722Q","","125","img/food4.png","76","127","2","1","3","0.2,0.8,0.2,0.8,0.2,0.8,0.8,0.2",""
"","html-keyboard-response","420","132892","0.0-420.0","3K4J6M3CXFF4Q8QE4JQEZQO4FHKGAJ","A2H3CV7SIVYREN","3FW4EL5A3LANKRP91N782LFHPY722Q","","null","<img src=""img/food4.png"" style=""width:200px; border:14px solid green;"">","null","","","","","",""
"","image-keyboard-response","421","132958","0.0-421.0","3K4J6M3CXFF4Q8QE4JQEZQO4FHKGAJ","A2H3CV7SIVYREN","3FW4EL5A3LANKRP91N782LFHPY722Q","","64","img/food4.png","76","66","2","1","3","0.2,0.8,0.2,0.8,0.2,0.8,0.8,0.2",""
"","html-keyboard-response","422","133262","0.0-422.0","3K4J6M3CXFF4Q8QE4JQEZQO4FHKGAJ","A2H3CV7SIVYREN","3FW4EL5A3LANKRP91N782LFHPY722Q","","null","<img src=""img/food4.png"" style=""width:200px; border:14px solid green;"">","null","","","","","",""
