"success","trial_type","trial_index","time_elapsed","internal_node_id","assignmentID","mturkID","hitID","view_history","rt","stimulus","key_press","reactionTime","a","r","s","cond","reward_cond","reward_cond_actual","reward_matrix_idx","warning","responses"
"true","fullscreen","0","5548","0.0-0.0","3DH6GAKTYZB5D7JMAHSJNJMHWG5ZYS","A2HOUSKURBF8UA","3THR0FZ95PF7SK0MYRNAOUHTWA4OLV","","","","","","","","","","","","","",""
"","instructions","1","47195","0.0-1.0","3DH6GAKTYZB5D7JMAHSJNJMHWG5ZYS","A2HOUSKURBF8UA","3THR0FZ95PF7SK0MYRNAOUHTWA4OLV","[{""page_index"":0,""viewing_time"":6422.4000000003725},{""page_index"":1,""viewing_time"":4814.5999999996275},{""page_index"":2,""viewing_time"":1901.5999999996275},{""page_index"":3,""viewing_time"":4672.9000000003725},{""page_index"":4,""viewing_time"":3914.800000000745},{""page_index"":5,""viewing_time"":6474.799999998882},{""page_index"":6,""viewing_time"":13442.200000001118}]","41644.300000000745","","","","","","","","","","","",""
"","image-keyboard-response","2","47977","0.0-2.0","3DH6GAKTYZB5D7JMAHSJNJMHWG5ZYS","A2HOUSKURBF8UA","3THR0FZ95PF7SK0MYRNAOUHTWA4OLV","","779.8000000007451","img/food1.png","75","782.0999999996275","2","1","2","1","1,0.7,0,1,0.7,0,0.7,0,1","0,1,0.7,0,1,0.7,1,0.7,0","3","",""
"","html-keyboard-response","3","48282","0.0-3.0","3DH6GAKTYZB5D7JMAHSJNJMHWG5ZYS","A2HOUSKURBF8UA","3THR0FZ95PF7SK0MYRNAOUHTWA4OLV","","null","<img src=""img/food1.png"" style=""width:200px; border:14px solid green;"">","null","","","","","","","","","",""
"","image-keyboard-response","4","49112","0.0-4.0","3DH6GAKTYZB5D7JMAHSJNJMHWG5ZYS","A2HOUSKURBF8UA","3THR0FZ95PF7SK0MYRNAOUHTWA4OLV","","828.0999999996275","img/food5.png","76","829.6000000014901","3","1","1","1","1,0.7,0,1,0.7,0,0.7,0,1","0,1,0.7,0,1,0.7,1,0.7,0","3","",""
"","html-keyboard-response","5","49418","0.0-5.0","3DH6GAKTYZB5D7JMAHSJNJMHWG5ZYS","A2HOUSKURBF8UA","3THR0FZ95PF7SK0MYRNAOUHTWA4OLV","","null","<img src=""img/food5.png"" style=""width:200px; border:14px solid green;"">","null","","","","","","","","","",""
"","image-keyboard-response","6","50043","0.0-6.0","3DH6GAKTYZB5D7JMAHSJNJMHWG5ZYS","A2HOUSKURBF8UA","3THR0FZ95PF7SK0MYRNAOUHTWA4OLV","","623.2999999988824","img/food1.png","75","625","2","1","2","1","1,0.7,0,1,0.7,0,0.7,0,1","0,1,0.7,0,1,0.7,1,0.7,0","3","",""
"","html-keyboard-response","7","50346","0.0-7.0","3DH6GAKTYZB5D7JMAHSJNJMHWG5ZYS","A2HOUSKURBF8UA","3THR0FZ95PF7SK0MYRNAOUHTWA4OLV","","null","<img src=""img/food1.png"" style=""width:200px; border:14px solid green;"">","null","","","","","","","","","",""
"","image-keyboard-response","8","50873","0.0-8.0","3DH6GAKTYZB5D7JMAHSJNJMHWG5ZYS","A2HOUSKURBF8UA","3THR0FZ95PF7SK0MYRNAOUHTWA4OLV","","525.2999999988824","img/food5.png","76","527.2999999988824","3","0","1","1","1,0.7,0,1,0.7,0,0.7,0,1","0,1,0.7,0,1,0.7,1,0.7,0","3","",""
"","html-keyboard-response","9","51178","0.0-9.0","3DH6GAKTYZB5D7JMAHSJNJMHWG5ZYS","A2HOUSKURBF8UA","3THR0FZ95PF7SK0MYRNAOUHTWA4OLV","","null","<img src=""img/food5.png"" style=""width:200px;border:14px solid red;"">","null","","","","","","","","","",""
"","image-keyboard-response","10","51785","0.0-10.0","3DH6GAKTYZB5D7JMAHSJNJMHWG5ZYS","A2HOUSKURBF8UA","3THR0FZ95PF7SK0MYRNAOUHTWA4OLV","","605.4000000003725","img/food1.png","75","607.1999999992549","2","1","2","1","1,0.7,0,1,0.7,0,0.7,0,1","0,1,0.7,0,1,0.7,1,0.7,0","3","",""
"","html-keyboard-response","11","52090","0.0-11.0","3DH6GAKTYZB5D7JMAHSJNJMHWG5ZYS","A2HOUSKURBF8UA","3THR0FZ95PF7SK0MYRNAOUHTWA4OLV","","null","<img src=""img/food1.png"" style=""width:200px; border:14px solid green;"">","null","","","","","","","","","",""
"","image-keyboard-response","12","52654","0.0-12.0","3DH6GAKTYZB5D7JMAHSJNJMHWG5ZYS","A2HOUSKURBF8UA","3THR0FZ95PF7SK0MYRNAOUHTWA4OLV","","562.6999999992549","img/food5.png","76","564","3","0","1","1","1,0.7,0,1,0.7,0,0.7,0,1","0,1,0.7,0,1,0.7,1,0.7,0","3","",""
"","html-keyboard-response","13","52967","0.0-13.0","3DH6GAKTYZB5D7JMAHSJNJMHWG5ZYS","A2HOUSKURBF8UA","3THR0FZ95PF7SK0MYRNAOUHTWA4OLV","","null","<img src=""img/food5.png"" style=""width:200px;border:14px solid red;"">","null","","","","","","","","","",""
"","image-keyboard-response","14","53832","0.0-14.0","3DH6GAKTYZB5D7JMAHSJNJMHWG5ZYS","A2HOUSKURBF8UA","3THR0FZ95PF7SK0MYRNAOUHTWA4OLV","","864.1000000014901","img/food5.png","74","865.3999999985099","1","0","1","1","1,0.7,0,1,0.7,0,0.7,0,1","0,1,0.7,0,1,0.7,1,0.7,0","3","",""
"","html-keyboard-response","15","54139","0.0-15.0","3DH6GAKTYZB5D7JMAHSJNJMHWG5ZYS","A2HOUSKURBF8UA","3THR0FZ95PF7SK0MYRNAOUHTWA4OLV","","null","<img src=""img/food5.png"" style=""width:200px;border:14px solid red;"">","null","","","","","","","","","",""
"","image-keyboard-response","16","54588","0.0-16.0","3DH6GAKTYZB5D7JMAHSJNJMHWG5ZYS","A2HOUSKURBF8UA","3THR0FZ95PF7SK0MYRNAOUHTWA4OLV","","447.69999999925494","img/food5.png","75","449.2999999988824","2","1","1","1","1,0.7,0,1,0.7,0,0.7,0,1","0,1,0.7,0,1,0.7,1,0.7,0","3","",""
"","html-keyboard-response","17","54898","0.0-17.0","3DH6GAKTYZB5D7JMAHSJNJMHWG5ZYS","A2HOUSKURBF8UA","3THR0FZ95PF7SK0MYRNAOUHTWA4OLV","","null","<img src=""img/food5.png"" style=""width:200px; border:14px solid green;"">","null","","","","","","","","","",""
"","image-keyboard-response","18","55384","0.0-18.0","3DH6GAKTYZB5D7JMAHSJNJMHWG5ZYS","A2HOUSKURBF8UA","3THR0FZ95PF7SK0MYRNAOUHTWA4OLV","","484.5","img/food1.png","75","486.09999999962747","2","1","2","1","1,0.7,0,1,0.7,0,0.7,0,1","0,1,0.7,0,1,0.7,1,0.7,0","3","",""
"","html-keyboard-response","19","55690","0.0-19.0","3DH6GAKTYZB5D7JMAHSJNJMHWG5ZYS","A2HOUSKURBF8UA","3THR0FZ95PF7SK0MYRNAOUHTWA4OLV","","null","<img src=""img/food1.png"" style=""width:200px; border:14px solid green;"">","null","","","","","","","","","",""
"","image-keyboard-response","20","56176","0.0-20.0","3DH6GAKTYZB5D7JMAHSJNJMHWG5ZYS","A2HOUSKURBF8UA","3THR0FZ95PF7SK0MYRNAOUHTWA4OLV","","484.30000000074506","img/food5.png","75","485.80000000074506","2","1","1","1","1,0.7,0,1,0.7,0,0.7,0,1","0,1,0.7,0,1,0.7,1,0.7,0","3","",""
"","html-keyboard-response","21","56482","0.0-21.0","3DH6GAKTYZB5D7JMAHSJNJMHWG5ZYS","A2HOUSKURBF8UA","3THR0FZ95PF7SK0MYRNAOUHTWA4OLV","","null","<img src=""img/food5.png"" style=""width:200px; border:14px solid green;"">","null","","","","","","","","","",""
"","image-keyboard-response","22","57186","0.0-22.0","3DH6GAKTYZB5D7JMAHSJNJMHWG5ZYS","A2HOUSKURBF8UA","3THR0FZ95PF7SK0MYRNAOUHTWA4OLV","","702.4000000003725","img/food6.png","74","703.9000000003725","1","1","3","1","1,0.7,0,1,0.7,0,0.7,0,1","0,1,0.7,0,1,0.7,1,0.7,0","3","",""
"","html-keyboard-response","23","57490","0.0-23.0","3DH6GAKTYZB5D7JMAHSJNJMHWG5ZYS","A2HOUSKURBF8UA","3THR0FZ95PF7SK0MYRNAOUHTWA4OLV","","null","<img src=""img/food6.png"" style=""width:200px; border:14px solid green;"">","null","","","","","","","","","",""
"","image-keyboard-response","24","58022","0.0-24.0","3DH6GAKTYZB5D7JMAHSJNJMHWG5ZYS","A2HOUSKURBF8UA","3THR0FZ95PF7SK0MYRNAOUHTWA4OLV","","530.8000000007451","img/food1.png","75","532.0999999996275","2","1","2","1","1,0.7,0,1,0.7,0,0.7,0,1","0,1,0.7,0,1,0.7,1,0.7,0","3","",""
"","html-keyboard-response","25","58330","0.0-25.0","3DH6GAKTYZB5D7JMAHSJNJMHWG5ZYS","A2HOUSKURBF8UA","3THR0FZ95PF7SK0MYRNAOUHTWA4OLV","","null","<img src=""img/food1.png"" style=""width:200px; border:14px solid green;"">","null","","","","","","","","","",""
"","image-keyboard-response","26","58880","0.0-26.0","3DH6GAKTYZB5D7JMAHSJNJMHWG5ZYS","A2HOUSKURBF8UA","3THR0FZ95PF7SK0MYRNAOUHTWA4OLV","","548.3000000007451","img/food1.png","75","549.5999999996275","2","1","2","1","1,0.7,0,1,0.7,0,0.7,0,1","0,1,0.7,0,1,0.7,1,0.7,0","3","",""
"","html-keyboard-response","27","59186","0.0-27.0","3DH6GAKTYZB5D7JMAHSJNJMHWG5ZYS","A2HOUSKURBF8UA","3THR0FZ95PF7SK0MYRNAOUHTWA4OLV","","null","<img src=""img/food1.png"" style=""width:200px; border:14px solid green;"">","null","","","","","","","","","",""
"","image-keyboard-response","28","59705","0.0-28.0","3DH6GAKTYZB5D7JMAHSJNJMHWG5ZYS","A2HOUSKURBF8UA","3THR0FZ95PF7SK0MYRNAOUHTWA4OLV","","518.1999999992549","img/food1.png","75","519.5","2","1","2","1","1,0.7,0,1,0.7,0,0.7,0,1","0,1,0.7,0,1,0.7,1,0.7,0","3","",""
"","html-keyboard-response","29","60010","0.0-29.0","3DH6GAKTYZB5D7JMAHSJNJMHWG5ZYS","A2HOUSKURBF8UA","3THR0FZ95PF7SK0MYRNAOUHTWA4OLV","","null","<img src=""img/food1.png"" style=""width:200px; border:14px solid green;"">","null","","","","","","","","","",""
"","image-keyboard-response","30","60616","0.0-30.0","3DH6GAKTYZB5D7JMAHSJNJMHWG5ZYS","A2HOUSKURBF8UA","3THR0FZ95PF7SK0MYRNAOUHTWA4OLV","","603.9000000003725","img/food6.png","74","605.3000000007451","1","1","3","1","1,0.7,0,1,0.7,0,0.7,0,1","0,1,0.7,0,1,0.7,1,0.7,0","3","",""
"","html-keyboard-response","31","60922","0.0-31.0","3DH6GAKTYZB5D7JMAHSJNJMHWG5ZYS","A2HOUSKURBF8UA","3THR0FZ95PF7SK0MYRNAOUHTWA4OLV","","null","<img src=""img/food6.png"" style=""width:200px; border:14px solid green;"">","null","","","","","","","","","",""
"","image-keyboard-response","32","61475","0.0-32.0","3DH6GAKTYZB5D7JMAHSJNJMHWG5ZYS","A2HOUSKURBF8UA","3THR0FZ95PF7SK0MYRNAOUHTWA4OLV","","551.2000000011176","img/food5.png","75","552.7999999988824","2","1","1","1","1,0.7,0,1,0.7,0,0.7,0,1","0,1,0.7,0,1,0.7,1,0.7,0","3","",""
"","html-keyboard-response","33","61778","0.0-33.0","3DH6GAKTYZB5D7JMAHSJNJMHWG5ZYS","A2HOUSKURBF8UA","3THR0FZ95PF7SK0MYRNAOUHTWA4OLV","","null","<img src=""img/food5.png"" style=""width:200px; border:14px solid green;"">","null","","","","","","","","","",""
"","image-keyboard-response","34","62488","0.0-34.0","3DH6GAKTYZB5D7JMAHSJNJMHWG5ZYS","A2HOUSKURBF8UA","3THR0FZ95PF7SK0MYRNAOUHTWA4OLV","","708.2999999988824","img/food1.png","75","709.7999999988824","2","1","2","1","1,0.7,0,1,0.7,0,0.7,0,1","0,1,0.7,0,1,0.7,1,0.7,0","3","",""
"","html-keyboard-response","35","62794","0.0-35.0","3DH6GAKTYZB5D7JMAHSJNJMHWG5ZYS","A2HOUSKURBF8UA","3THR0FZ95PF7SK0MYRNAOUHTWA4OLV","","null","<img src=""img/food1.png"" style=""width:200px; border:14px solid green;"">","null","","","","","","","","","",""
"","image-keyboard-response","36","63332","0.0-36.0","3DH6GAKTYZB5D7JMAHSJNJMHWG5ZYS","A2HOUSKURBF8UA","3THR0FZ95PF7SK0MYRNAOUHTWA4OLV","","536.2999999988824","img/food1.png","75","537.8999999985099","2","1","2","1","1,0.7,0,1,0.7,0,0.7,0,1","0,1,0.7,0,1,0.7,1,0.7,0","3","",""
"","html-keyboard-response","37","63634","0.0-37.0","3DH6GAKTYZB5D7JMAHSJNJMHWG5ZYS","A2HOUSKURBF8UA","3THR0FZ95PF7SK0MYRNAOUHTWA4OLV","","null","<img src=""img/food1.png"" style=""width:200px; border:14px solid green;"">","null","","","","","","","","","",""
"","image-keyboard-response","38","64109","0.0-38.0","3DH6GAKTYZB5D7JMAHSJNJMHWG5ZYS","A2HOUSKURBF8UA","3THR0FZ95PF7SK0MYRNAOUHTWA4OLV","","473.40000000037253","img/food5.png","75","475","2","1","1","1","1,0.7,0,1,0.7,0,0.7,0,1","0,1,0.7,0,1,0.7,1,0.7,0","3","",""
"","html-keyboard-response","39","64418","0.0-39.0","3DH6GAKTYZB5D7JMAHSJNJMHWG5ZYS","A2HOUSKURBF8UA","3THR0FZ95PF7SK0MYRNAOUHTWA4OLV","","null","<img src=""img/food5.png"" style=""width:200px; border:14px solid green;"">","null","","","","","","","","","",""
"","image-keyboard-response","40","64965","0.0-40.0","3DH6GAKTYZB5D7JMAHSJNJMHWG5ZYS","A2HOUSKURBF8UA","3THR0FZ95PF7SK0MYRNAOUHTWA4OLV","","544.9000000003725","img/food6.png","74","546.5","1","1","3","1","1,0.7,0,1,0.7,0,0.7,0,1","0,1,0.7,0,1,0.7,1,0.7,0","3","",""
"","html-keyboard-response","41","65274","0.0-41.0","3DH6GAKTYZB5D7JMAHSJNJMHWG5ZYS","A2HOUSKURBF8UA","3THR0FZ95PF7SK0MYRNAOUHTWA4OLV","","null","<img src=""img/food6.png"" style=""width:200px; border:14px solid green;"">","null","","","","","","","","","",""
"","image-keyboard-response","42","65774","0.0-42.0","3DH6GAKTYZB5D7JMAHSJNJMHWG5ZYS","A2HOUSKURBF8UA","3THR0FZ95PF7SK0MYRNAOUHTWA4OLV","","498","img/food5.png","75","499.5","2","1","1","1","1,0.7,0,1,0.7,0,0.7,0,1","0,1,0.7,0,1,0.7,1,0.7,0","3","",""
"","html-keyboard-response","43","66082","0.0-43.0","3DH6GAKTYZB5D7JMAHSJNJMHWG5ZYS","A2HOUSKURBF8UA","3THR0FZ95PF7SK0MYRNAOUHTWA4OLV","","null","<img src=""img/food5.png"" style=""width:200px; border:14px solid green;"">","null","","","","","","","","","",""
"","image-keyboard-response","44","66828","0.0-44.0","3DH6GAKTYZB5D7JMAHSJNJMHWG5ZYS","A2HOUSKURBF8UA","3THR0FZ95PF7SK0MYRNAOUHTWA4OLV","","743.8999999985099","img/food6.png","74","745.1999999992549","1","1","3","1","1,0.7,0,1,0.7,0,0.7,0,1","0,1,0.7,0,1,0.7,1,0.7,0","3","",""
"","html-keyboard-response","45","67130","0.0-45.0","3DH6GAKTYZB5D7JMAHSJNJMHWG5ZYS","A2HOUSKURBF8UA","3THR0FZ95PF7SK0MYRNAOUHTWA4OLV","","null","<img src=""img/food6.png"" style=""width:200px; border:14px solid green;"">","null","","","","","","","","","",""
"","image-keyboard-response","46","67530","0.0-46.0","3DH6GAKTYZB5D7JMAHSJNJMHWG5ZYS","A2HOUSKURBF8UA","3THR0FZ95PF7SK0MYRNAOUHTWA4OLV","","398.30000000074506","img/food5.png","75","399.8999999985099","2","1","1","1","1,0.7,0,1,0.7,0,0.7,0,1","0,1,0.7,0,1,0.7,1,0.7,0","3","",""
"","html-keyboard-response","47","67834","0.0-47.0","3DH6GAKTYZB5D7JMAHSJNJMHWG5ZYS","A2HOUSKURBF8UA","3THR0FZ95PF7SK0MYRNAOUHTWA4OLV","","null","<img src=""img/food5.png"" style=""width:200px; border:14px solid green;"">","null","","","","","","","","","",""
"","image-keyboard-response","48","68420","0.0-48.0","3DH6GAKTYZB5D7JMAHSJNJMHWG5ZYS","A2HOUSKURBF8UA","3THR0FZ95PF7SK0MYRNAOUHTWA4OLV","","583.4000000003725","img/food1.png","74","585","1","0","2","1","1,0.7,0,1,0.7,0,0.7,0,1","0,1,0.7,0,1,0.7,1,0.7,0","3","",""
"","html-keyboard-response","49","68730","0.0-49.0","3DH6GAKTYZB5D7JMAHSJNJMHWG5ZYS","A2HOUSKURBF8UA","3THR0FZ95PF7SK0MYRNAOUHTWA4OLV","","null","<img src=""img/food1.png"" style=""width:200px;border:14px solid red;"">","null","","","","","","","","","",""
"","image-keyboard-response","50","69343","0.0-50.0","3DH6GAKTYZB5D7JMAHSJNJMHWG5ZYS","A2HOUSKURBF8UA","3THR0FZ95PF7SK0MYRNAOUHTWA4OLV","","612.2000000011176","img/food1.png","75","613.5999999996275","2","1","2","1","1,0.7,0,1,0.7,0,0.7,0,1","0,1,0.7,0,1,0.7,1,0.7,0","3","",""
"","html-keyboard-response","51","69650","0.0-51.0","3DH6GAKTYZB5D7JMAHSJNJMHWG5ZYS","A2HOUSKURBF8UA","3THR0FZ95PF7SK0MYRNAOUHTWA4OLV","","null","<img src=""img/food1.png"" style=""width:200px; border:14px solid green;"">","null","","","","","","","","","",""
"","image-keyboard-response","52","70222","0.0-52.0","3DH6GAKTYZB5D7JMAHSJNJMHWG5ZYS","A2HOUSKURBF8UA","3THR0FZ95PF7SK0MYRNAOUHTWA4OLV","","570.5","img/food5.png","75","571.6999999992549","2","1","1","1","1,0.7,0,1,0.7,0,0.7,0,1","0,1,0.7,0,1,0.7,1,0.7,0","3","",""
"","html-keyboard-response","53","70530","0.0-53.0","3DH6GAKTYZB5D7JMAHSJNJMHWG5ZYS","A2HOUSKURBF8UA","3THR0FZ95PF7SK0MYRNAOUHTWA4OLV","","null","<img src=""img/food5.png"" style=""width:200px; border:14px solid green;"">","null","","","","","","","","","",""
"","image-keyboard-response","54","71084","0.0-54.0","3DH6GAKTYZB5D7JMAHSJNJMHWG5ZYS","A2HOUSKURBF8UA","3THR0FZ95PF7SK0MYRNAOUHTWA4OLV","","552","img/food6.png","74","553.3000000007451","1","1","3","1","1,0.7,0,1,0.7,0,0.7,0,1","0,1,0.7,0,1,0.7,1,0.7,0","3","",""
"","html-keyboard-response","55","71394","0.0-55.0","3DH6GAKTYZB5D7JMAHSJNJMHWG5ZYS","A2HOUSKURBF8UA","3THR0FZ95PF7SK0MYRNAOUHTWA4OLV","","null","<img src=""img/food6.png"" style=""width:200px; border:14px solid green;"">","null","","","","","","","","","",""
"","image-keyboard-response","56","71870","0.0-56.0","3DH6GAKTYZB5D7JMAHSJNJMHWG5ZYS","A2HOUSKURBF8UA","3THR0FZ95PF7SK0MYRNAOUHTWA4OLV","","474.09999999962747","img/food5.png","75","475.7999999988824","2","1","1","1","1,0.7,0,1,0.7,0,0.7,0,1","0,1,0.7,0,1,0.7,1,0.7,0","3","",""
"","html-keyboard-response","57","72178","0.0-57.0","3DH6GAKTYZB5D7JMAHSJNJMHWG5ZYS","A2HOUSKURBF8UA","3THR0FZ95PF7SK0MYRNAOUHTWA4OLV","","null","<img src=""img/food5.png"" style=""width:200px; border:14px solid green;"">","null","","","","","","","","","",""
"","image-keyboard-response","58","72706","0.0-58.0","3DH6GAKTYZB5D7JMAHSJNJMHWG5ZYS","A2HOUSKURBF8UA","3THR0FZ95PF7SK0MYRNAOUHTWA4OLV","","525.8000000007451","img/food6.png","75","527.3999999985099","2","1","3","1","1,0.7,0,1,0.7,0,0.7,0,1","0,1,0.7,0,1,0.7,1,0.7,0","3","",""
"","html-keyboard-response","59","73010","0.0-59.0","3DH6GAKTYZB5D7JMAHSJNJMHWG5ZYS","A2HOUSKURBF8UA","3THR0FZ95PF7SK0MYRNAOUHTWA4OLV","","null","<img src=""img/food6.png"" style=""width:200px; border:14px solid green;"">","null","","","","","","","","","",""
"","image-keyboard-response","60","73636","0.0-60.0","3DH6GAKTYZB5D7JMAHSJNJMHWG5ZYS","A2HOUSKURBF8UA","3THR0FZ95PF7SK0MYRNAOUHTWA4OLV","","624.4000000003725","img/food5.png","75","625.8999999985099","2","1","1","1","1,0.7,0,1,0.7,0,0.7,0,1","0,1,0.7,0,1,0.7,1,0.7,0","3","",""
"","html-keyboard-response","61","73938","0.0-61.0","3DH6GAKTYZB5D7JMAHSJNJMHWG5ZYS","A2HOUSKURBF8UA","3THR0FZ95PF7SK0MYRNAOUHTWA4OLV","","null","<img src=""img/food5.png"" style=""width:200px; border:14px solid green;"">","null","","","","","","","","","",""
"","image-keyboard-response","62","74542","0.0-62.0","3DH6GAKTYZB5D7JMAHSJNJMHWG5ZYS","A2HOUSKURBF8UA","3THR0FZ95PF7SK0MYRNAOUHTWA4OLV","","602.9000000003725","img/food6.png","75","604.2000000011176","2","1","3","1","1,0.7,0,1,0.7,0,0.7,0,1","0,1,0.7,0,1,0.7,1,0.7,0","3","",""
"","html-keyboard-response","63","74850","0.0-63.0","3DH6GAKTYZB5D7JMAHSJNJMHWG5ZYS","A2HOUSKURBF8UA","3THR0FZ95PF7SK0MYRNAOUHTWA4OLV","","null","<img src=""img/food6.png"" style=""width:200px; border:14px solid green;"">","null","","","","","","","","","",""
"","image-keyboard-response","64","75414","0.0-64.0","3DH6GAKTYZB5D7JMAHSJNJMHWG5ZYS","A2HOUSKURBF8UA","3THR0FZ95PF7SK0MYRNAOUHTWA4OLV","","562.9000000003725","img/food6.png","75","564.3999999985099","2","1","3","1","1,0.7,0,1,0.7,0,0.7,0,1","0,1,0.7,0,1,0.7,1,0.7,0","3","",""
"","html-keyboard-response","65","75722","0.0-65.0","3DH6GAKTYZB5D7JMAHSJNJMHWG5ZYS","A2HOUSKURBF8UA","3THR0FZ95PF7SK0MYRNAOUHTWA4OLV","","null","<img src=""img/food6.png"" style=""width:200px; border:14px solid green;"">","null","","","","","","","","","",""
"","image-keyboard-response","66","76205","0.0-66.0","3DH6GAKTYZB5D7JMAHSJNJMHWG5ZYS","A2HOUSKURBF8UA","3THR0FZ95PF7SK0MYRNAOUHTWA4OLV","","481.90000000037253","img/food5.png","75","483.3999999985099","2","1","1","1","1,0.7,0,1,0.7,0,0.7,0,1","0,1,0.7,0,1,0.7,1,0.7,0","3","",""
"","html-keyboard-response","67","76514","0.0-67.0","3DH6GAKTYZB5D7JMAHSJNJMHWG5ZYS","A2HOUSKURBF8UA","3THR0FZ95PF7SK0MYRNAOUHTWA4OLV","","null","<img src=""img/food5.png"" style=""width:200px; border:14px solid green;"">","null","","","","","","","","","",""
"","image-keyboard-response","68","77007","0.0-68.0","3DH6GAKTYZB5D7JMAHSJNJMHWG5ZYS","A2HOUSKURBF8UA","3THR0FZ95PF7SK0MYRNAOUHTWA4OLV","","492","img/food1.png","75","493.30000000074506","2","1","2","1","1,0.7,0,1,0.7,0,0.7,0,1","0,1,0.7,0,1,0.7,1,0.7,0","3","",""
"","html-keyboard-response","69","77314","0.0-69.0","3DH6GAKTYZB5D7JMAHSJNJMHWG5ZYS","A2HOUSKURBF8UA","3THR0FZ95PF7SK0MYRNAOUHTWA4OLV","","null","<img src=""img/food1.png"" style=""width:200px; border:14px solid green;"">","null","","","","","","","","","",""
"","image-keyboard-response","70","77783","0.0-70.0","3DH6GAKTYZB5D7JMAHSJNJMHWG5ZYS","A2HOUSKURBF8UA","3THR0FZ95PF7SK0MYRNAOUHTWA4OLV","","467.09999999962747","img/food6.png","75","468.90000000037253","2","1","3","1","1,0.7,0,1,0.7,0,0.7,0,1","0,1,0.7,0,1,0.7,1,0.7,0","3","",""
"","html-keyboard-response","71","78090","0.0-71.0","3DH6GAKTYZB5D7JMAHSJNJMHWG5ZYS","A2HOUSKURBF8UA","3THR0FZ95PF7SK0MYRNAOUHTWA4OLV","","null","<img src=""img/food6.png"" style=""width:200px; border:14px solid green;"">","null","","","","","","","","","",""
"","image-keyboard-response","72","78619","0.0-72.0","3DH6GAKTYZB5D7JMAHSJNJMHWG5ZYS","A2HOUSKURBF8UA","3THR0FZ95PF7SK0MYRNAOUHTWA4OLV","","527.4000000003725","img/food6.png","75","528.6999999992549","2","0","3","1","1,0.7,0,1,0.7,0,0.7,0,1","0,1,0.7,0,1,0.7,1,0.7,0","3","",""
"","html-keyboard-response","73","78922","0.0-73.0","3DH6GAKTYZB5D7JMAHSJNJMHWG5ZYS","A2HOUSKURBF8UA","3THR0FZ95PF7SK0MYRNAOUHTWA4OLV","","null","<img src=""img/food6.png"" style=""width:200px;border:14px solid red;"">","null","","","","","","","","","",""
"","image-keyboard-response","74","79555","0.0-74.0","3DH6GAKTYZB5D7JMAHSJNJMHWG5ZYS","A2HOUSKURBF8UA","3THR0FZ95PF7SK0MYRNAOUHTWA4OLV","","631.2000000011176","img/food5.png","75","633","2","1","1","1","1,0.7,0,1,0.7,0,0.7,0,1","0,1,0.7,0,1,0.7,1,0.7,0","3","",""
"","html-keyboard-response","75","79858","0.0-75.0","3DH6GAKTYZB5D7JMAHSJNJMHWG5ZYS","A2HOUSKURBF8UA","3THR0FZ95PF7SK0MYRNAOUHTWA4OLV","","null","<img src=""img/food5.png"" style=""width:200px; border:14px solid green;"">","null","","","","","","","","","",""
"","image-keyboard-response","76","80415","0.0-76.0","3DH6GAKTYZB5D7JMAHSJNJMHWG5ZYS","A2HOUSKURBF8UA","3THR0FZ95PF7SK0MYRNAOUHTWA4OLV","","555.7999999988824","img/food6.png","75","557.0999999996275","2","1","3","1","1,0.7,0,1,0.7,0,0.7,0,1","0,1,0.7,0,1,0.7,1,0.7,0","3","",""
"","html-keyboard-response","77","80722","0.0-77.0","3DH6GAKTYZB5D7JMAHSJNJMHWG5ZYS","A2HOUSKURBF8UA","3THR0FZ95PF7SK0MYRNAOUHTWA4OLV","","null","<img src=""img/food6.png"" style=""width:200px; border:14px solid green;"">","null","","","","","","","","","",""
"","image-keyboard-response","78","81231","0.0-78.0","3DH6GAKTYZB5D7JMAHSJNJMHWG5ZYS","A2HOUSKURBF8UA","3THR0FZ95PF7SK0MYRNAOUHTWA4OLV","","503.09999999962747","img/food6.png","75","509.09999999962747","2","0","3","1","1,0.7,0,1,0.7,0,0.7,0,1","0,1,0.7,0,1,0.7,1,0.7,0","3","",""
"","html-keyboard-response","79","81538","0.0-79.0","3DH6GAKTYZB5D7JMAHSJNJMHWG5ZYS","A2HOUSKURBF8UA","3THR0FZ95PF7SK0MYRNAOUHTWA4OLV","","null","<img src=""img/food6.png"" style=""width:200px;border:14px solid red;"">","null","","","","","","","","","",""
"","image-keyboard-response","80","82118","0.0-80.0","3DH6GAKTYZB5D7JMAHSJNJMHWG5ZYS","A2HOUSKURBF8UA","3THR0FZ95PF7SK0MYRNAOUHTWA4OLV","","578.5999999996275","img/food5.png","75","580.4000000003725","2","1","1","1","1,0.7,0,1,0.7,0,0.7,0,1","0,1,0.7,0,1,0.7,1,0.7,0","3","",""
"","html-keyboard-response","81","82427","0.0-81.0","3DH6GAKTYZB5D7JMAHSJNJMHWG5ZYS","A2HOUSKURBF8UA","3THR0FZ95PF7SK0MYRNAOUHTWA4OLV","","null","<img src=""img/food5.png"" style=""width:200px; border:14px solid green;"">","null","","","","","","","","","",""
"","image-keyboard-response","82","82975","0.0-82.0","3DH6GAKTYZB5D7JMAHSJNJMHWG5ZYS","A2HOUSKURBF8UA","3THR0FZ95PF7SK0MYRNAOUHTWA4OLV","","546.5999999996275","img/food5.png","75","548","2","1","1","1","1,0.7,0,1,0.7,0,0.7,0,1","0,1,0.7,0,1,0.7,1,0.7,0","3","",""
"","html-keyboard-response","83","83282","0.0-83.0","3DH6GAKTYZB5D7JMAHSJNJMHWG5ZYS","A2HOUSKURBF8UA","3THR0FZ95PF7SK0MYRNAOUHTWA4OLV","","null","<img src=""img/food5.png"" style=""width:200px; border:14px solid green;"">","null","","","","","","","","","",""
"","image-keyboard-response","84","83822","0.0-84.0","3DH6GAKTYZB5D7JMAHSJNJMHWG5ZYS","A2HOUSKURBF8UA","3THR0FZ95PF7SK0MYRNAOUHTWA4OLV","","537.6999999992549","img/food1.png","75","539.5","2","1","2","1","1,0.7,0,1,0.7,0,0.7,0,1","0,1,0.7,0,1,0.7,1,0.7,0","3","",""
"","html-keyboard-response","85","84130","0.0-85.0","3DH6GAKTYZB5D7JMAHSJNJMHWG5ZYS","A2HOUSKURBF8UA","3THR0FZ95PF7SK0MYRNAOUHTWA4OLV","","null","<img src=""img/food1.png"" style=""width:200px; border:14px solid green;"">","null","","","","","","","","","",""
"","image-keyboard-response","86","84662","0.0-86.0","3DH6GAKTYZB5D7JMAHSJNJMHWG5ZYS","A2HOUSKURBF8UA","3THR0FZ95PF7SK0MYRNAOUHTWA4OLV","","529.9000000003725","img/food1.png","75","531.1999999992549","2","1","2","1","1,0.7,0,1,0.7,0,0.7,0,1","0,1,0.7,0,1,0.7,1,0.7,0","3","",""
"","html-keyboard-response","87","84970","0.0-87.0","3DH6GAKTYZB5D7JMAHSJNJMHWG5ZYS","A2HOUSKURBF8UA","3THR0FZ95PF7SK0MYRNAOUHTWA4OLV","","null","<img src=""img/food1.png"" style=""width:200px; border:14px solid green;"">","null","","","","","","","","","",""
"","image-keyboard-response","88","85455","0.0-88.0","3DH6GAKTYZB5D7JMAHSJNJMHWG5ZYS","A2HOUSKURBF8UA","3THR0FZ95PF7SK0MYRNAOUHTWA4OLV","","483.69999999925494","img/food1.png","75","485.40000000037253","2","1","2","1","1,0.7,0,1,0.7,0,0.7,0,1","0,1,0.7,0,1,0.7,1,0.7,0","3","",""
"","html-keyboard-response","89","85762","0.0-89.0","3DH6GAKTYZB5D7JMAHSJNJMHWG5ZYS","A2HOUSKURBF8UA","3THR0FZ95PF7SK0MYRNAOUHTWA4OLV","","null","<img src=""img/food1.png"" style=""width:200px; border:14px solid green;"">","null","","","","","","","","","",""
"","image-keyboard-response","90","86344","0.0-90.0","3DH6GAKTYZB5D7JMAHSJNJMHWG5ZYS","A2HOUSKURBF8UA","3THR0FZ95PF7SK0MYRNAOUHTWA4OLV","","581.3000000007451","img/food5.png","75","582.7000000011176","2","1","1","1","1,0.7,0,1,0.7,0,0.7,0,1","0,1,0.7,0,1,0.7,1,0.7,0","3","",""
"","html-keyboard-response","91","86650","0.0-91.0","3DH6GAKTYZB5D7JMAHSJNJMHWG5ZYS","A2HOUSKURBF8UA","3THR0FZ95PF7SK0MYRNAOUHTWA4OLV","","null","<img src=""img/food5.png"" style=""width:200px; border:14px solid green;"">","null","","","","","","","","","",""
"","image-keyboard-response","92","87179","0.0-92.0","3DH6GAKTYZB5D7JMAHSJNJMHWG5ZYS","A2HOUSKURBF8UA","3THR0FZ95PF7SK0MYRNAOUHTWA4OLV","","528.1999999992549","img/food6.png","74","529.5999999996275","1","1","3","1","1,0.7,0,1,0.7,0,0.7,0,1","0,1,0.7,0,1,0.7,1,0.7,0","3","",""
"","html-keyboard-response","93","87482","0.0-93.0","3DH6GAKTYZB5D7JMAHSJNJMHWG5ZYS","A2HOUSKURBF8UA","3THR0FZ95PF7SK0MYRNAOUHTWA4OLV","","null","<img src=""img/food6.png"" style=""width:200px; border:14px solid green;"">","null","","","","","","","","","",""
"","image-keyboard-response","94","88007","0.0-94.0","3DH6GAKTYZB5D7JMAHSJNJMHWG5ZYS","A2HOUSKURBF8UA","3THR0FZ95PF7SK0MYRNAOUHTWA4OLV","","522.7999999988824","img/food6.png","74","524.2999999988824","1","1","3","1","1,0.7,0,1,0.7,0,0.7,0,1","0,1,0.7,0,1,0.7,1,0.7,0","3","",""
"","html-keyboard-response","95","88314","0.0-95.0","3DH6GAKTYZB5D7JMAHSJNJMHWG5ZYS","A2HOUSKURBF8UA","3THR0FZ95PF7SK0MYRNAOUHTWA4OLV","","null","<img src=""img/food6.png"" style=""width:200px; border:14px solid green;"">","null","","","","","","","","","",""
"","image-keyboard-response","96","88818","0.0-96.0","3DH6GAKTYZB5D7JMAHSJNJMHWG5ZYS","A2HOUSKURBF8UA","3THR0FZ95PF7SK0MYRNAOUHTWA4OLV","","502.7999999988824","img/food5.png","75","504.3999999985099","2","1","1","1","1,0.7,0,1,0.7,0,0.7,0,1","0,1,0.7,0,1,0.7,1,0.7,0","3","",""
"","html-keyboard-response","97","89122","0.0-97.0","3DH6GAKTYZB5D7JMAHSJNJMHWG5ZYS","A2HOUSKURBF8UA","3THR0FZ95PF7SK0MYRNAOUHTWA4OLV","","null","<img src=""img/food5.png"" style=""width:200px; border:14px solid green;"">","null","","","","","","","","","",""
"","image-keyboard-response","98","89627","0.0-98.0","3DH6GAKTYZB5D7JMAHSJNJMHWG5ZYS","A2HOUSKURBF8UA","3THR0FZ95PF7SK0MYRNAOUHTWA4OLV","","503.90000000037253","img/food6.png","74","505.3999999985099","1","1","3","1","1,0.7,0,1,0.7,0,0.7,0,1","0,1,0.7,0,1,0.7,1,0.7,0","3","",""
"","html-keyboard-response","99","89930","0.0-99.0","3DH6GAKTYZB5D7JMAHSJNJMHWG5ZYS","A2HOUSKURBF8UA","3THR0FZ95PF7SK0MYRNAOUHTWA4OLV","","null","<img src=""img/food6.png"" style=""width:200px; border:14px solid green;"">","null","","","","","","","","","",""
"","image-keyboard-response","100","90445","0.0-100.0","3DH6GAKTYZB5D7JMAHSJNJMHWG5ZYS","A2HOUSKURBF8UA","3THR0FZ95PF7SK0MYRNAOUHTWA4OLV","","512.7999999988824","img/food6.png","74","514","1","1","3","1","1,0.7,0,1,0.7,0,0.7,0,1","0,1,0.7,0,1,0.7,1,0.7,0","3","",""
"","html-keyboard-response","101","90756","0.0-101.0","3DH6GAKTYZB5D7JMAHSJNJMHWG5ZYS","A2HOUSKURBF8UA","3THR0FZ95PF7SK0MYRNAOUHTWA4OLV","","null","<img src=""img/food6.png"" style=""width:200px; border:14px solid green;"">","null","","","","","","","","","",""
"","image-keyboard-response","102","91215","0.0-102.0","3DH6GAKTYZB5D7JMAHSJNJMHWG5ZYS","A2HOUSKURBF8UA","3THR0FZ95PF7SK0MYRNAOUHTWA4OLV","","457","img/food1.png","75","458.59999999962747","2","1","2","1","1,0.7,0,1,0.7,0,0.7,0,1","0,1,0.7,0,1,0.7,1,0.7,0","3","",""
"","html-keyboard-response","103","91522","0.0-103.0","3DH6GAKTYZB5D7JMAHSJNJMHWG5ZYS","A2HOUSKURBF8UA","3THR0FZ95PF7SK0MYRNAOUHTWA4OLV","","null","<img src=""img/food1.png"" style=""width:200px; border:14px solid green;"">","null","","","","","","","","","",""
"","image-keyboard-response","104","92068","0.0-104.0","3DH6GAKTYZB5D7JMAHSJNJMHWG5ZYS","A2HOUSKURBF8UA","3THR0FZ95PF7SK0MYRNAOUHTWA4OLV","","543.5","img/food1.png","75","544.9000000003725","2","1","2","1","1,0.7,0,1,0.7,0,0.7,0,1","0,1,0.7,0,1,0.7,1,0.7,0","3","",""
"","html-keyboard-response","105","92378","0.0-105.0","3DH6GAKTYZB5D7JMAHSJNJMHWG5ZYS","A2HOUSKURBF8UA","3THR0FZ95PF7SK0MYRNAOUHTWA4OLV","","null","<img src=""img/food1.png"" style=""width:200px; border:14px solid green;"">","null","","","","","","","","","",""
"","image-keyboard-response","106","92825","0.0-106.0","3DH6GAKTYZB5D7JMAHSJNJMHWG5ZYS","A2HOUSKURBF8UA","3THR0FZ95PF7SK0MYRNAOUHTWA4OLV","","445.8999999985099","img/food1.png","75","447.09999999962747","2","1","2","1","1,0.7,0,1,0.7,0,0.7,0,1","0,1,0.7,0,1,0.7,1,0.7,0","3","",""
"","html-keyboard-response","107","93130","0.0-107.0","3DH6GAKTYZB5D7JMAHSJNJMHWG5ZYS","A2HOUSKURBF8UA","3THR0FZ95PF7SK0MYRNAOUHTWA4OLV","","null","<img src=""img/food1.png"" style=""width:200px; border:14px solid green;"">","null","","","","","","","","","",""
"","image-keyboard-response","108","93627","0.0-108.0","3DH6GAKTYZB5D7JMAHSJNJMHWG5ZYS","A2HOUSKURBF8UA","3THR0FZ95PF7SK0MYRNAOUHTWA4OLV","","495.40000000037253","img/food1.png","75","497.1000000014901","2","1","2","1","1,0.7,0,1,0.7,0,0.7,0,1","0,1,0.7,0,1,0.7,1,0.7,0","3","",""
"","html-keyboard-response","109","93938","0.0-109.0","3DH6GAKTYZB5D7JMAHSJNJMHWG5ZYS","A2HOUSKURBF8UA","3THR0FZ95PF7SK0MYRNAOUHTWA4OLV","","null","<img src=""img/food1.png"" style=""width:200px; border:14px solid green;"">","null","","","","","","","","","",""
"","image-keyboard-response","110","94523","0.0-110.0","3DH6GAKTYZB5D7JMAHSJNJMHWG5ZYS","A2HOUSKURBF8UA","3THR0FZ95PF7SK0MYRNAOUHTWA4OLV","","583.0999999996275","img/food5.png","75","584.5999999996275","2","1","1","1","1,0.7,0,1,0.7,0,0.7,0,1","0,1,0.7,0,1,0.7,1,0.7,0","3","",""
"","html-keyboard-response","111","94826","0.0-111.0","3DH6GAKTYZB5D7JMAHSJNJMHWG5ZYS","A2HOUSKURBF8UA","3THR0FZ95PF7SK0MYRNAOUHTWA4OLV","","null","<img src=""img/food5.png"" style=""width:200px; border:14px solid green;"">","null","","","","","","","","","",""
"","image-keyboard-response","112","95455","0.0-112.0","3DH6GAKTYZB5D7JMAHSJNJMHWG5ZYS","A2HOUSKURBF8UA","3THR0FZ95PF7SK0MYRNAOUHTWA4OLV","","627.6000000014901","img/food6.png","74","629","1","1","3","1","1,0.7,0,1,0.7,0,0.7,0,1","0,1,0.7,0,1,0.7,1,0.7,0","3","",""
"","html-keyboard-response","113","95762","0.0-113.0","3DH6GAKTYZB5D7JMAHSJNJMHWG5ZYS","A2HOUSKURBF8UA","3THR0FZ95PF7SK0MYRNAOUHTWA4OLV","","null","<img src=""img/food6.png"" style=""width:200px; border:14px solid green;"">","null","","","","","","","","","",""
"","image-keyboard-response","114","96353","0.0-114.0","3DH6GAKTYZB5D7JMAHSJNJMHWG5ZYS","A2HOUSKURBF8UA","3THR0FZ95PF7SK0MYRNAOUHTWA4OLV","","589.7999999988824","img/food5.png","75","591.1999999992549","2","1","1","1","1,0.7,0,1,0.7,0,0.7,0,1","0,1,0.7,0,1,0.7,1,0.7,0","3","",""
"","html-keyboard-response","115","96658","0.0-115.0","3DH6GAKTYZB5D7JMAHSJNJMHWG5ZYS","A2HOUSKURBF8UA","3THR0FZ95PF7SK0MYRNAOUHTWA4OLV","","null","<img src=""img/food5.png"" style=""width:200px; border:14px solid green;"">","null","","","","","","","","","",""
"","image-keyboard-response","116","97086","0.0-116.0","3DH6GAKTYZB5D7JMAHSJNJMHWG5ZYS","A2HOUSKURBF8UA","3THR0FZ95PF7SK0MYRNAOUHTWA4OLV","","426.30000000074506","img/food5.png","75","428","2","1","1","1","1,0.7,0,1,0.7,0,0.7,0,1","0,1,0.7,0,1,0.7,1,0.7,0","3","",""
"","html-keyboard-response","117","97394","0.0-117.0","3DH6GAKTYZB5D7JMAHSJNJMHWG5ZYS","A2HOUSKURBF8UA","3THR0FZ95PF7SK0MYRNAOUHTWA4OLV","","null","<img src=""img/food5.png"" style=""width:200px; border:14px solid green;"">","null","","","","","","","","","",""
"","image-keyboard-response","118","97918","0.0-118.0","3DH6GAKTYZB5D7JMAHSJNJMHWG5ZYS","A2HOUSKURBF8UA","3THR0FZ95PF7SK0MYRNAOUHTWA4OLV","","522","img/food5.png","75","523.6999999992549","2","1","1","1","1,0.7,0,1,0.7,0,0.7,0,1","0,1,0.7,0,1,0.7,1,0.7,0","3","",""
"","html-keyboard-response","119","98226","0.0-119.0","3DH6GAKTYZB5D7JMAHSJNJMHWG5ZYS","A2HOUSKURBF8UA","3THR0FZ95PF7SK0MYRNAOUHTWA4OLV","","null","<img src=""img/food5.png"" style=""width:200px; border:14px solid green;"">","null","","","","","","","","","",""
"","image-keyboard-response","120","98722","0.0-120.0","3DH6GAKTYZB5D7JMAHSJNJMHWG5ZYS","A2HOUSKURBF8UA","3THR0FZ95PF7SK0MYRNAOUHTWA4OLV","","494","img/food6.png","74","495.2999999988824","1","1","3","1","1,0.7,0,1,0.7,0,0.7,0,1","0,1,0.7,0,1,0.7,1,0.7,0","3","",""
"","html-keyboard-response","121","99026","0.0-121.0","3DH6GAKTYZB5D7JMAHSJNJMHWG5ZYS","A2HOUSKURBF8UA","3THR0FZ95PF7SK0MYRNAOUHTWA4OLV","","null","<img src=""img/food6.png"" style=""width:200px; border:14px solid green;"">","null","","","","","","","","","",""
"","image-keyboard-response","122","99563","0.0-122.0","3DH6GAKTYZB5D7JMAHSJNJMHWG5ZYS","A2HOUSKURBF8UA","3THR0FZ95PF7SK0MYRNAOUHTWA4OLV","","535.1999999992549","img/food6.png","74","537.5999999996275","1","1","3","1","1,0.7,0,1,0.7,0,0.7,0,1","0,1,0.7,0,1,0.7,1,0.7,0","3","",""
"","html-keyboard-response","123","99866","0.0-123.0","3DH6GAKTYZB5D7JMAHSJNJMHWG5ZYS","A2HOUSKURBF8UA","3THR0FZ95PF7SK0MYRNAOUHTWA4OLV","","null","<img src=""img/food6.png"" style=""width:200px; border:14px solid green;"">","null","","","","","","","","","",""
"","image-keyboard-response","124","100312","0.0-124.0","3DH6GAKTYZB5D7JMAHSJNJMHWG5ZYS","A2HOUSKURBF8UA","3THR0FZ95PF7SK0MYRNAOUHTWA4OLV","","444.69999999925494","img/food6.png","74","446.30000000074506","1","1","3","1","1,0.7,0,1,0.7,0,0.7,0,1","0,1,0.7,0,1,0.7,1,0.7,0","3","",""
"","html-keyboard-response","125","100618","0.0-125.0","3DH6GAKTYZB5D7JMAHSJNJMHWG5ZYS","A2HOUSKURBF8UA","3THR0FZ95PF7SK0MYRNAOUHTWA4OLV","","null","<img src=""img/food6.png"" style=""width:200px; border:14px solid green;"">","null","","","","","","","","","",""
"","image-keyboard-response","126","101054","0.0-126.0","3DH6GAKTYZB5D7JMAHSJNJMHWG5ZYS","A2HOUSKURBF8UA","3THR0FZ95PF7SK0MYRNAOUHTWA4OLV","","434.7000000011176","img/food1.png","75","436.5","2","1","2","1","1,0.7,0,1,0.7,0,0.7,0,1","0,1,0.7,0,1,0.7,1,0.7,0","3","",""
"","html-keyboard-response","127","101362","0.0-127.0","3DH6GAKTYZB5D7JMAHSJNJMHWG5ZYS","A2HOUSKURBF8UA","3THR0FZ95PF7SK0MYRNAOUHTWA4OLV","","null","<img src=""img/food1.png"" style=""width:200px; border:14px solid green;"">","null","","","","","","","","","",""
"","image-keyboard-response","128","101902","0.0-128.0","3DH6GAKTYZB5D7JMAHSJNJMHWG5ZYS","A2HOUSKURBF8UA","3THR0FZ95PF7SK0MYRNAOUHTWA4OLV","","538.0999999996275","img/food5.png","75","539.5999999996275","2","1","1","1","1,0.7,0,1,0.7,0,0.7,0,1","0,1,0.7,0,1,0.7,1,0.7,0","3","",""
"","html-keyboard-response","129","102210","0.0-129.0","3DH6GAKTYZB5D7JMAHSJNJMHWG5ZYS","A2HOUSKURBF8UA","3THR0FZ95PF7SK0MYRNAOUHTWA4OLV","","null","<img src=""img/food5.png"" style=""width:200px; border:14px solid green;"">","null","","","","","","","","","",""
"","image-keyboard-response","130","102741","0.0-130.0","3DH6GAKTYZB5D7JMAHSJNJMHWG5ZYS","A2HOUSKURBF8UA","3THR0FZ95PF7SK0MYRNAOUHTWA4OLV","","528.9000000003725","img/food5.png","75","530.4000000003725","2","1","1","1","1,0.7,0,1,0.7,0,0.7,0,1","0,1,0.7,0,1,0.7,1,0.7,0","3","",""
"","html-keyboard-response","131","103050","0.0-131.0","3DH6GAKTYZB5D7JMAHSJNJMHWG5ZYS","A2HOUSKURBF8UA","3THR0FZ95PF7SK0MYRNAOUHTWA4OLV","","null","<img src=""img/food5.png"" style=""width:200px; border:14px solid green;"">","null","","","","","","","","","",""
"","image-keyboard-response","132","103560","0.0-132.0","3DH6GAKTYZB5D7JMAHSJNJMHWG5ZYS","A2HOUSKURBF8UA","3THR0FZ95PF7SK0MYRNAOUHTWA4OLV","","508.7000000011176","img/food6.png","74","510.1000000014901","1","1","3","1","1,0.7,0,1,0.7,0,0.7,0,1","0,1,0.7,0,1,0.7,1,0.7,0","3","",""
"","html-keyboard-response","133","103866","0.0-133.0","3DH6GAKTYZB5D7JMAHSJNJMHWG5ZYS","A2HOUSKURBF8UA","3THR0FZ95PF7SK0MYRNAOUHTWA4OLV","","null","<img src=""img/food6.png"" style=""width:200px; border:14px solid green;"">","null","","","","","","","","","",""
"","image-keyboard-response","134","104356","0.0-134.0","3DH6GAKTYZB5D7JMAHSJNJMHWG5ZYS","A2HOUSKURBF8UA","3THR0FZ95PF7SK0MYRNAOUHTWA4OLV","","488.69999999925494","img/food1.png","75","490","2","1","2","1","1,0.7,0,1,0.7,0,0.7,0,1","0,1,0.7,0,1,0.7,1,0.7,0","3","",""
"","html-keyboard-response","135","104666","0.0-135.0","3DH6GAKTYZB5D7JMAHSJNJMHWG5ZYS","A2HOUSKURBF8UA","3THR0FZ95PF7SK0MYRNAOUHTWA4OLV","","null","<img src=""img/food1.png"" style=""width:200px; border:14px solid green;"">","null","","","","","","","","","",""
"","image-keyboard-response","136","105226","0.0-136.0","3DH6GAKTYZB5D7JMAHSJNJMHWG5ZYS","A2HOUSKURBF8UA","3THR0FZ95PF7SK0MYRNAOUHTWA4OLV","","558.4000000003725","img/food5.png","74","560","1","0","1","1","1,0.7,0,1,0.7,0,0.7,0,1","0,1,0.7,0,1,0.7,1,0.7,0","3","",""
"","html-keyboard-response","137","105530","0.0-137.0","3DH6GAKTYZB5D7JMAHSJNJMHWG5ZYS","A2HOUSKURBF8UA","3THR0FZ95PF7SK0MYRNAOUHTWA4OLV","","null","<img src=""img/food5.png"" style=""width:200px;border:14px solid red;"">","null","","","","","","","","","",""
"","image-keyboard-response","138","106064","0.0-138.0","3DH6GAKTYZB5D7JMAHSJNJMHWG5ZYS","A2HOUSKURBF8UA","3THR0FZ95PF7SK0MYRNAOUHTWA4OLV","","532.5","img/food6.png","75","534","2","0","3","1","1,0.7,0,1,0.7,0,0.7,0,1","0,1,0.7,0,1,0.7,1,0.7,0","3","",""
"","html-keyboard-response","139","106370","0.0-139.0","3DH6GAKTYZB5D7JMAHSJNJMHWG5ZYS","A2HOUSKURBF8UA","3THR0FZ95PF7SK0MYRNAOUHTWA4OLV","","null","<img src=""img/food6.png"" style=""width:200px;border:14px solid red;"">","null","","","","","","","","","",""
"","image-keyboard-response","140","107106","0.0-140.0","3DH6GAKTYZB5D7JMAHSJNJMHWG5ZYS","A2HOUSKURBF8UA","3THR0FZ95PF7SK0MYRNAOUHTWA4OLV","","732.7000000011176","img/food6.png","74","734.4000000003725","1","1","3","1","1,0.7,0,1,0.7,0,0.7,0,1","0,1,0.7,0,1,0.7,1,0.7,0","3","",""
"","html-keyboard-response","141","107410","0.0-141.0","3DH6GAKTYZB5D7JMAHSJNJMHWG5ZYS","A2HOUSKURBF8UA","3THR0FZ95PF7SK0MYRNAOUHTWA4OLV","","null","<img src=""img/food6.png"" style=""width:200px; border:14px solid green;"">","null","","","","","","","","","",""
"","image-keyboard-response","142","107976","0.0-142.0","3DH6GAKTYZB5D7JMAHSJNJMHWG5ZYS","A2HOUSKURBF8UA","3THR0FZ95PF7SK0MYRNAOUHTWA4OLV","","564.6000000014901","img/food1.png","75","566.0999999996275","2","1","2","1","1,0.7,0,1,0.7,0,0.7,0,1","0,1,0.7,0,1,0.7,1,0.7,0","3","",""
"","html-keyboard-response","143","108282","0.0-143.0","3DH6GAKTYZB5D7JMAHSJNJMHWG5ZYS","A2HOUSKURBF8UA","3THR0FZ95PF7SK0MYRNAOUHTWA4OLV","","null","<img src=""img/food1.png"" style=""width:200px; border:14px solid green;"">","null","","","","","","","","","",""
"","image-keyboard-response","144","109146","0.0-144.0","3DH6GAKTYZB5D7JMAHSJNJMHWG5ZYS","A2HOUSKURBF8UA","3THR0FZ95PF7SK0MYRNAOUHTWA4OLV","","861.6999999992549","img/food5.png","75","862.9000000003725","2","1","1","1","1,0.7,0,1,0.7,0,0.7,0,1","0,1,0.7,0,1,0.7,1,0.7,0","3","",""
"","html-keyboard-response","145","109450","0.0-145.0","3DH6GAKTYZB5D7JMAHSJNJMHWG5ZYS","A2HOUSKURBF8UA","3THR0FZ95PF7SK0MYRNAOUHTWA4OLV","","null","<img src=""img/food5.png"" style=""width:200px; border:14px solid green;"">","null","","","","","","","","","",""
"","image-keyboard-response","146","110109","0.0-146.0","3DH6GAKTYZB5D7JMAHSJNJMHWG5ZYS","A2HOUSKURBF8UA","3THR0FZ95PF7SK0MYRNAOUHTWA4OLV","","657.2999999988824","img/food6.png","74","659.2000000011176","1","1","3","1","1,0.7,0,1,0.7,0,0.7,0,1","0,1,0.7,0,1,0.7,1,0.7,0","3","",""
"","html-keyboard-response","147","110418","0.0-147.0","3DH6GAKTYZB5D7JMAHSJNJMHWG5ZYS","A2HOUSKURBF8UA","3THR0FZ95PF7SK0MYRNAOUHTWA4OLV","","null","<img src=""img/food6.png"" style=""width:200px; border:14px solid green;"">","null","","","","","","","","","",""
"","image-keyboard-response","148","110933","0.0-148.0","3DH6GAKTYZB5D7JMAHSJNJMHWG5ZYS","A2HOUSKURBF8UA","3THR0FZ95PF7SK0MYRNAOUHTWA4OLV","","512.8000000007451","img/food5.png","75","514.8000000007451","2","1","1","1","1,0.7,0,1,0.7,0,0.7,0,1","0,1,0.7,0,1,0.7,1,0.7,0","3","",""
"","html-keyboard-response","149","111242","0.0-149.0","3DH6GAKTYZB5D7JMAHSJNJMHWG5ZYS","A2HOUSKURBF8UA","3THR0FZ95PF7SK0MYRNAOUHTWA4OLV","","null","<img src=""img/food5.png"" style=""width:200px; border:14px solid green;"">","null","","","","","","","","","",""
"","image-keyboard-response","150","111794","0.0-150.0","3DH6GAKTYZB5D7JMAHSJNJMHWG5ZYS","A2HOUSKURBF8UA","3THR0FZ95PF7SK0MYRNAOUHTWA4OLV","","549.6999999992549","img/food6.png","74","551.3999999985099","1","1","3","1","1,0.7,0,1,0.7,0,0.7,0,1","0,1,0.7,0,1,0.7,1,0.7,0","3","",""
"","html-keyboard-response","151","112098","0.0-151.0","3DH6GAKTYZB5D7JMAHSJNJMHWG5ZYS","A2HOUSKURBF8UA","3THR0FZ95PF7SK0MYRNAOUHTWA4OLV","","null","<img src=""img/food6.png"" style=""width:200px; border:14px solid green;"">","null","","","","","","","","","",""
"","image-keyboard-response","152","112599","0.0-152.0","3DH6GAKTYZB5D7JMAHSJNJMHWG5ZYS","A2HOUSKURBF8UA","3THR0FZ95PF7SK0MYRNAOUHTWA4OLV","","499.30000000074506","img/food6.png","74","500.69999999925494","1","1","3","1","1,0.7,0,1,0.7,0,0.7,0,1","0,1,0.7,0,1,0.7,1,0.7,0","3","",""
"","html-keyboard-response","153","112914","0.0-153.0","3DH6GAKTYZB5D7JMAHSJNJMHWG5ZYS","A2HOUSKURBF8UA","3THR0FZ95PF7SK0MYRNAOUHTWA4OLV","","null","<img src=""img/food6.png"" style=""width:200px; border:14px solid green;"">","null","","","","","","","","","",""
"","image-keyboard-response","154","113366","0.0-154.0","3DH6GAKTYZB5D7JMAHSJNJMHWG5ZYS","A2HOUSKURBF8UA","3THR0FZ95PF7SK0MYRNAOUHTWA4OLV","","450.09999999962747","img/food6.png","74","451.59999999962747","1","1","3","1","1,0.7,0,1,0.7,0,0.7,0,1","0,1,0.7,0,1,0.7,1,0.7,0","3","",""
"","html-keyboard-response","155","113674","0.0-155.0","3DH6GAKTYZB5D7JMAHSJNJMHWG5ZYS","A2HOUSKURBF8UA","3THR0FZ95PF7SK0MYRNAOUHTWA4OLV","","null","<img src=""img/food6.png"" style=""width:200px; border:14px solid green;"">","null","","","","","","","","","",""
"","image-keyboard-response","156","114148","0.0-156.0","3DH6GAKTYZB5D7JMAHSJNJMHWG5ZYS","A2HOUSKURBF8UA","3THR0FZ95PF7SK0MYRNAOUHTWA4OLV","","472.5","img/food1.png","75","474.1000000014901","2","1","2","1","1,0.7,0,1,0.7,0,0.7,0,1","0,1,0.7,0,1,0.7,1,0.7,0","3","",""
"","html-keyboard-response","157","114450","0.0-157.0","3DH6GAKTYZB5D7JMAHSJNJMHWG5ZYS","A2HOUSKURBF8UA","3THR0FZ95PF7SK0MYRNAOUHTWA4OLV","","null","<img src=""img/food1.png"" style=""width:200px; border:14px solid green;"">","null","","","","","","","","","",""
"","image-keyboard-response","158","114971","0.0-158.0","3DH6GAKTYZB5D7JMAHSJNJMHWG5ZYS","A2HOUSKURBF8UA","3THR0FZ95PF7SK0MYRNAOUHTWA4OLV","","519","img/food5.png","75","520.3999999985099","2","1","1","1","1,0.7,0,1,0.7,0,0.7,0,1","0,1,0.7,0,1,0.7,1,0.7,0","3","",""
"","html-keyboard-response","159","115274","0.0-159.0","3DH6GAKTYZB5D7JMAHSJNJMHWG5ZYS","A2HOUSKURBF8UA","3THR0FZ95PF7SK0MYRNAOUHTWA4OLV","","null","<img src=""img/food5.png"" style=""width:200px; border:14px solid green;"">","null","","","","","","","","","",""
"","image-keyboard-response","160","115770","0.0-160.0","3DH6GAKTYZB5D7JMAHSJNJMHWG5ZYS","A2HOUSKURBF8UA","3THR0FZ95PF7SK0MYRNAOUHTWA4OLV","","494.2000000011176","img/food6.png","74","495.69999999925494","1","1","3","1","1,0.7,0,1,0.7,0,0.7,0,1","0,1,0.7,0,1,0.7,1,0.7,0","3","",""
"","html-keyboard-response","161","116074","0.0-161.0","3DH6GAKTYZB5D7JMAHSJNJMHWG5ZYS","A2HOUSKURBF8UA","3THR0FZ95PF7SK0MYRNAOUHTWA4OLV","","null","<img src=""img/food6.png"" style=""width:200px; border:14px solid green;"">","null","","","","","","","","","",""
"","image-keyboard-response","162","116548","0.0-162.0","3DH6GAKTYZB5D7JMAHSJNJMHWG5ZYS","A2HOUSKURBF8UA","3THR0FZ95PF7SK0MYRNAOUHTWA4OLV","","472.6000000014901","img/food1.png","75","474","2","1","2","1","1,0.7,0,1,0.7,0,0.7,0,1","0,1,0.7,0,1,0.7,1,0.7,0","3","",""
"","html-keyboard-response","163","116858","0.0-163.0","3DH6GAKTYZB5D7JMAHSJNJMHWG5ZYS","A2HOUSKURBF8UA","3THR0FZ95PF7SK0MYRNAOUHTWA4OLV","","null","<img src=""img/food1.png"" style=""width:200px; border:14px solid green;"">","null","","","","","","","","","",""
"","image-keyboard-response","164","117293","0.0-164.0","3DH6GAKTYZB5D7JMAHSJNJMHWG5ZYS","A2HOUSKURBF8UA","3THR0FZ95PF7SK0MYRNAOUHTWA4OLV","","433.90000000037253","img/food1.png","75","435.3999999985099","2","1","2","1","1,0.7,0,1,0.7,0,0.7,0,1","0,1,0.7,0,1,0.7,1,0.7,0","3","",""
"","html-keyboard-response","165","117602","0.0-165.0","3DH6GAKTYZB5D7JMAHSJNJMHWG5ZYS","A2HOUSKURBF8UA","3THR0FZ95PF7SK0MYRNAOUHTWA4OLV","","null","<img src=""img/food1.png"" style=""width:200px; border:14px solid green;"">","null","","","","","","","","","",""
"","image-keyboard-response","166","118098","0.0-166.0","3DH6GAKTYZB5D7JMAHSJNJMHWG5ZYS","A2HOUSKURBF8UA","3THR0FZ95PF7SK0MYRNAOUHTWA4OLV","","494.80000000074506","img/food1.png","75","496.09999999962747","2","1","2","1","1,0.7,0,1,0.7,0,0.7,0,1","0,1,0.7,0,1,0.7,1,0.7,0","3","",""
"","html-keyboard-response","167","118402","0.0-167.0","3DH6GAKTYZB5D7JMAHSJNJMHWG5ZYS","A2HOUSKURBF8UA","3THR0FZ95PF7SK0MYRNAOUHTWA4OLV","","null","<img src=""img/food1.png"" style=""width:200px; border:14px solid green;"">","null","","","","","","","","","",""
"","image-keyboard-response","168","118913","0.0-168.0","3DH6GAKTYZB5D7JMAHSJNJMHWG5ZYS","A2HOUSKURBF8UA","3THR0FZ95PF7SK0MYRNAOUHTWA4OLV","","509.80000000074506","img/food1.png","75","511","2","1","2","1","1,0.7,0,1,0.7,0,0.7,0,1","0,1,0.7,0,1,0.7,1,0.7,0","3","",""
"","html-keyboard-response","169","119218","0.0-169.0","3DH6GAKTYZB5D7JMAHSJNJMHWG5ZYS","A2HOUSKURBF8UA","3THR0FZ95PF7SK0MYRNAOUHTWA4OLV","","null","<img src=""img/food1.png"" style=""width:200px; border:14px solid green;"">","null","","","","","","","","","",""
"","image-keyboard-response","170","119703","0.0-170.0","3DH6GAKTYZB5D7JMAHSJNJMHWG5ZYS","A2HOUSKURBF8UA","3THR0FZ95PF7SK0MYRNAOUHTWA4OLV","","482.80000000074506","img/food5.png","75","484","2","1","1","1","1,0.7,0,1,0.7,0,0.7,0,1","0,1,0.7,0,1,0.7,1,0.7,0","3","",""
"","html-keyboard-response","171","120010","0.0-171.0","3DH6GAKTYZB5D7JMAHSJNJMHWG5ZYS","A2HOUSKURBF8UA","3THR0FZ95PF7SK0MYRNAOUHTWA4OLV","","null","<img src=""img/food5.png"" style=""width:200px; border:14px solid green;"">","null","","","","","","","","","",""
"","image-keyboard-response","172","120551","0.0-172.0","3DH6GAKTYZB5D7JMAHSJNJMHWG5ZYS","A2HOUSKURBF8UA","3THR0FZ95PF7SK0MYRNAOUHTWA4OLV","","539.2000000011176","img/food1.png","75","540.5","2","1","2","1","1,0.7,0,1,0.7,0,0.7,0,1","0,1,0.7,0,1,0.7,1,0.7,0","3","",""
"","html-keyboard-response","173","120858","0.0-173.0","3DH6GAKTYZB5D7JMAHSJNJMHWG5ZYS","A2HOUSKURBF8UA","3THR0FZ95PF7SK0MYRNAOUHTWA4OLV","","null","<img src=""img/food1.png"" style=""width:200px; border:14px solid green;"">","null","","","","","","","","","",""
"","image-keyboard-response","174","121331","0.0-174.0","3DH6GAKTYZB5D7JMAHSJNJMHWG5ZYS","A2HOUSKURBF8UA","3THR0FZ95PF7SK0MYRNAOUHTWA4OLV","","471.30000000074506","img/food6.png","74","472.80000000074506","1","1","3","1","1,0.7,0,1,0.7,0,0.7,0,1","0,1,0.7,0,1,0.7,1,0.7,0","3","",""
"","html-keyboard-response","175","121634","0.0-175.0","3DH6GAKTYZB5D7JMAHSJNJMHWG5ZYS","A2HOUSKURBF8UA","3THR0FZ95PF7SK0MYRNAOUHTWA4OLV","","null","<img src=""img/food6.png"" style=""width:200px; border:14px solid green;"">","null","","","","","","","","","",""
"","image-keyboard-response","176","122079","0.0-176.0","3DH6GAKTYZB5D7JMAHSJNJMHWG5ZYS","A2HOUSKURBF8UA","3THR0FZ95PF7SK0MYRNAOUHTWA4OLV","","443.09999999962747","img/food6.png","74","444.59999999962747","1","1","3","1","1,0.7,0,1,0.7,0,0.7,0,1","0,1,0.7,0,1,0.7,1,0.7,0","3","",""
"","html-keyboard-response","177","122386","0.0-177.0","3DH6GAKTYZB5D7JMAHSJNJMHWG5ZYS","A2HOUSKURBF8UA","3THR0FZ95PF7SK0MYRNAOUHTWA4OLV","","null","<img src=""img/food6.png"" style=""width:200px; border:14px solid green;"">","null","","","","","","","","","",""
"","image-keyboard-response","178","122844","0.0-178.0","3DH6GAKTYZB5D7JMAHSJNJMHWG5ZYS","A2HOUSKURBF8UA","3THR0FZ95PF7SK0MYRNAOUHTWA4OLV","","456.09999999962747","img/food1.png","75","457.90000000037253","2","1","2","1","1,0.7,0,1,0.7,0,0.7,0,1","0,1,0.7,0,1,0.7,1,0.7,0","3","",""
"","html-keyboard-response","179","123146","0.0-179.0","3DH6GAKTYZB5D7JMAHSJNJMHWG5ZYS","A2HOUSKURBF8UA","3THR0FZ95PF7SK0MYRNAOUHTWA4OLV","","null","<img src=""img/food1.png"" style=""width:200px; border:14px solid green;"">","null","","","","","","","","","",""
"","image-keyboard-response","180","123596","0.0-180.0","3DH6GAKTYZB5D7JMAHSJNJMHWG5ZYS","A2HOUSKURBF8UA","3THR0FZ95PF7SK0MYRNAOUHTWA4OLV","","448.6000000014901","img/food1.png","75","450","2","1","2","1","1,0.7,0,1,0.7,0,0.7,0,1","0,1,0.7,0,1,0.7,1,0.7,0","3","",""
"","html-keyboard-response","181","123906","0.0-181.0","3DH6GAKTYZB5D7JMAHSJNJMHWG5ZYS","A2HOUSKURBF8UA","3THR0FZ95PF7SK0MYRNAOUHTWA4OLV","","null","<img src=""img/food1.png"" style=""width:200px; border:14px solid green;"">","null","","","","","","","","","",""
"","html-keyboard-response","182","128020","0.0-182.0","3DH6GAKTYZB5D7JMAHSJNJMHWG5ZYS","A2HOUSKURBF8UA","3THR0FZ95PF7SK0MYRNAOUHTWA4OLV","","","","","","","","","","","","","",""
"","instructions","183","145024","0.0-183.0","3DH6GAKTYZB5D7JMAHSJNJMHWG5ZYS","A2HOUSKURBF8UA","3THR0FZ95PF7SK0MYRNAOUHTWA4OLV","[{""page_index"":0,""viewing_time"":15494.5},{""page_index"":1,""viewing_time"":1508.0999999996275}]","17002.900000000373","","","","","","","","","","","",""
"","image-keyboard-response","184","145466","0.0-184.0","3DH6GAKTYZB5D7JMAHSJNJMHWG5ZYS","A2HOUSKURBF8UA","3THR0FZ95PF7SK0MYRNAOUHTWA4OLV","","440.2000000011176","img/food4.png","74","442.09999999962747","1","1","1","2","1,0.7,0,1,0.7,0,0.7,0,1","1,0.7,0,1,0.7,0,0.7,0,1","1","false",""
"","html-keyboard-response","185","145770","0.0-185.0","3DH6GAKTYZB5D7JMAHSJNJMHWG5ZYS","A2HOUSKURBF8UA","3THR0FZ95PF7SK0MYRNAOUHTWA4OLV","","null","<img src=""img/food4.png"" style=""width:200px; border:14px solid green;"">","null","","","","","","","","","",""
"","image-keyboard-response","186","146227","0.0-187.0","3DH6GAKTYZB5D7JMAHSJNJMHWG5ZYS","A2HOUSKURBF8UA","3THR0FZ95PF7SK0MYRNAOUHTWA4OLV","","454.2000000011176","img/food2.png","74","455.7999999988824","1","1","2","2","1,0.7,0,1,0.7,0,0.7,0,1","1,0.7,0,1,0.7,0,0.7,0,1","1","false",""
"","html-keyboard-response","187","146530","0.0-188.0","3DH6GAKTYZB5D7JMAHSJNJMHWG5ZYS","A2HOUSKURBF8UA","3THR0FZ95PF7SK0MYRNAOUHTWA4OLV","","null","<img src=""img/food2.png"" style=""width:200px; border:14px solid green;"">","null","","","","","","","","","",""
"","image-keyboard-response","188","146842","0.0-190.0","3DH6GAKTYZB5D7JMAHSJNJMHWG5ZYS","A2HOUSKURBF8UA","3THR0FZ95PF7SK0MYRNAOUHTWA4OLV","","309.90000000037253","img/food4.png","74","311.6000000014901","1","1","1","2","1,0.7,0,1,0.7,0,0.7,0,1","1,0.7,0,1,0.7,0,0.7,0,1","1","false",""
"","html-keyboard-response","189","147146","0.0-191.0","3DH6GAKTYZB5D7JMAHSJNJMHWG5ZYS","A2HOUSKURBF8UA","3THR0FZ95PF7SK0MYRNAOUHTWA4OLV","","null","<img src=""img/food4.png"" style=""width:200px; border:14px solid green;"">","null","","","","","","","","","",""
"","image-keyboard-response","190","147504","0.0-193.0","3DH6GAKTYZB5D7JMAHSJNJMHWG5ZYS","A2HOUSKURBF8UA","3THR0FZ95PF7SK0MYRNAOUHTWA4OLV","","356","img/food4.png","74","357.6000000014901","1","1","1","2","1,0.7,0,1,0.7,0,0.7,0,1","1,0.7,0,1,0.7,0,0.7,0,1","1","false",""
"","html-keyboard-response","191","147810","0.0-194.0","3DH6GAKTYZB5D7JMAHSJNJMHWG5ZYS","A2HOUSKURBF8UA","3THR0FZ95PF7SK0MYRNAOUHTWA4OLV","","null","<img src=""img/food4.png"" style=""width:200px; border:14px solid green;"">","null","","","","","","","","","",""
"","image-keyboard-response","192","148112","0.0-196.0","3DH6GAKTYZB5D7JMAHSJNJMHWG5ZYS","A2HOUSKURBF8UA","3THR0FZ95PF7SK0MYRNAOUHTWA4OLV","","300.7000000011176","img/food3.png","74","302.09999999962747","1","0","3","2","1,0.7,0,1,0.7,0,0.7,0,1","1,0.7,0,1,0.7,0,0.7,0,1","1","false",""
"","html-keyboard-response","193","148418","0.0-197.0","3DH6GAKTYZB5D7JMAHSJNJMHWG5ZYS","A2HOUSKURBF8UA","3THR0FZ95PF7SK0MYRNAOUHTWA4OLV","","null","<img src=""img/food3.png"" style=""width:200px;border:14px solid red;"">","null","","","","","","","","","",""
"","image-keyboard-response","194","148742","0.0-199.0","3DH6GAKTYZB5D7JMAHSJNJMHWG5ZYS","A2HOUSKURBF8UA","3THR0FZ95PF7SK0MYRNAOUHTWA4OLV","","321.69999999925494","img/food3.png","74","323.6000000014901","1","1","3","2","1,0.7,0,1,0.7,0,0.7,0,1","1,0.7,0,1,0.7,0,0.7,0,1","1","false",""
"","html-keyboard-response","195","149050","0.0-200.0","3DH6GAKTYZB5D7JMAHSJNJMHWG5ZYS","A2HOUSKURBF8UA","3THR0FZ95PF7SK0MYRNAOUHTWA4OLV","","null","<img src=""img/food3.png"" style=""width:200px; border:14px solid green;"">","null","","","","","","","","","",""
"","image-keyboard-response","196","149421","0.0-202.0","3DH6GAKTYZB5D7JMAHSJNJMHWG5ZYS","A2HOUSKURBF8UA","3THR0FZ95PF7SK0MYRNAOUHTWA4OLV","","369.19999999925494","img/food4.png","74","371.30000000074506","1","1","1","2","1,0.7,0,1,0.7,0,0.7,0,1","1,0.7,0,1,0.7,0,0.7,0,1","1","false",""
"","html-keyboard-response","197","149730","0.0-203.0","3DH6GAKTYZB5D7JMAHSJNJMHWG5ZYS","A2HOUSKURBF8UA","3THR0FZ95PF7SK0MYRNAOUHTWA4OLV","","null","<img src=""img/food4.png"" style=""width:200px; border:14px solid green;"">","null","","","","","","","","","",""
"","image-keyboard-response","198","150085","0.0-205.0","3DH6GAKTYZB5D7JMAHSJNJMHWG5ZYS","A2HOUSKURBF8UA","3THR0FZ95PF7SK0MYRNAOUHTWA4OLV","","352.90000000037253","img/food4.png","74","354.6000000014901","1","1","1","2","1,0.7,0,1,0.7,0,0.7,0,1","1,0.7,0,1,0.7,0,0.7,0,1","1","false",""
"","html-keyboard-response","199","150394","0.0-206.0","3DH6GAKTYZB5D7JMAHSJNJMHWG5ZYS","A2HOUSKURBF8UA","3THR0FZ95PF7SK0MYRNAOUHTWA4OLV","","null","<img src=""img/food4.png"" style=""width:200px; border:14px solid green;"">","null","","","","","","","","","",""
"","image-keyboard-response","200","150776","0.0-208.0","3DH6GAKTYZB5D7JMAHSJNJMHWG5ZYS","A2HOUSKURBF8UA","3THR0FZ95PF7SK0MYRNAOUHTWA4OLV","","380.40000000037253","img/food4.png","74","382","1","1","1","2","1,0.7,0,1,0.7,0,0.7,0,1","1,0.7,0,1,0.7,0,0.7,0,1","1","false",""
"","html-keyboard-response","201","151082","0.0-209.0","3DH6GAKTYZB5D7JMAHSJNJMHWG5ZYS","A2HOUSKURBF8UA","3THR0FZ95PF7SK0MYRNAOUHTWA4OLV","","null","<img src=""img/food4.png"" style=""width:200px; border:14px solid green;"">","null","","","","","","","","","",""
"","image-keyboard-response","202","151406","0.0-211.0","3DH6GAKTYZB5D7JMAHSJNJMHWG5ZYS","A2HOUSKURBF8UA","3THR0FZ95PF7SK0MYRNAOUHTWA4OLV","","322.59999999962747","img/food4.png","74","324.2000000011176","1","1","1","2","1,0.7,0,1,0.7,0,0.7,0,1","1,0.7,0,1,0.7,0,0.7,0,1","1","false",""
"","html-keyboard-response","203","151714","0.0-212.0","3DH6GAKTYZB5D7JMAHSJNJMHWG5ZYS","A2HOUSKURBF8UA","3THR0FZ95PF7SK0MYRNAOUHTWA4OLV","","null","<img src=""img/food4.png"" style=""width:200px; border:14px solid green;"">","null","","","","","","","","","",""
"","image-keyboard-response","204","152081","0.0-214.0","3DH6GAKTYZB5D7JMAHSJNJMHWG5ZYS","A2HOUSKURBF8UA","3THR0FZ95PF7SK0MYRNAOUHTWA4OLV","","364.69999999925494","img/food3.png","75","366.30000000074506","2","0","3","2","1,0.7,0,1,0.7,0,0.7,0,1","1,0.7,0,1,0.7,0,0.7,0,1","1","false",""
"","html-keyboard-response","205","152386","0.0-215.0","3DH6GAKTYZB5D7JMAHSJNJMHWG5ZYS","A2HOUSKURBF8UA","3THR0FZ95PF7SK0MYRNAOUHTWA4OLV","","null","<img src=""img/food3.png"" style=""width:200px;border:14px solid red;"">","null","","","","","","","","","",""
"","image-keyboard-response","206","152740","0.0-217.0","3DH6GAKTYZB5D7JMAHSJNJMHWG5ZYS","A2HOUSKURBF8UA","3THR0FZ95PF7SK0MYRNAOUHTWA4OLV","","348.80000000074506","img/food2.png","74","352.09999999962747","1","1","2","2","1,0.7,0,1,0.7,0,0.7,0,1","1,0.7,0,1,0.7,0,0.7,0,1","1","false",""
"","html-keyboard-response","207","153042","0.0-218.0","3DH6GAKTYZB5D7JMAHSJNJMHWG5ZYS","A2HOUSKURBF8UA","3THR0FZ95PF7SK0MYRNAOUHTWA4OLV","","null","<img src=""img/food2.png"" style=""width:200px; border:14px solid green;"">","null","","","","","","","","","",""
"","image-keyboard-response","208","153389","0.0-220.0","3DH6GAKTYZB5D7JMAHSJNJMHWG5ZYS","A2HOUSKURBF8UA","3THR0FZ95PF7SK0MYRNAOUHTWA4OLV","","345.80000000074506","img/food3.png","74","347.2000000011176","1","1","3","2","1,0.7,0,1,0.7,0,0.7,0,1","1,0.7,0,1,0.7,0,0.7,0,1","1","false",""
"","html-keyboard-response","209","153698","0.0-221.0","3DH6GAKTYZB5D7JMAHSJNJMHWG5ZYS","A2HOUSKURBF8UA","3THR0FZ95PF7SK0MYRNAOUHTWA4OLV","","null","<img src=""img/food3.png"" style=""width:200px; border:14px solid green;"">","null","","","","","","","","","",""
"","image-keyboard-response","210","154041","0.0-223.0","3DH6GAKTYZB5D7JMAHSJNJMHWG5ZYS","A2HOUSKURBF8UA","3THR0FZ95PF7SK0MYRNAOUHTWA4OLV","","340.90000000037253","img/food2.png","74","342.80000000074506","1","1","2","2","1,0.7,0,1,0.7,0,0.7,0,1","1,0.7,0,1,0.7,0,0.7,0,1","1","false",""
"","html-keyboard-response","211","154346","0.0-224.0","3DH6GAKTYZB5D7JMAHSJNJMHWG5ZYS","A2HOUSKURBF8UA","3THR0FZ95PF7SK0MYRNAOUHTWA4OLV","","null","<img src=""img/food2.png"" style=""width:200px; border:14px solid green;"">","null","","","","","","","","","",""
"","image-keyboard-response","212","154685","0.0-226.0","3DH6GAKTYZB5D7JMAHSJNJMHWG5ZYS","A2HOUSKURBF8UA","3THR0FZ95PF7SK0MYRNAOUHTWA4OLV","","337.09999999962747","img/food4.png","74","338.69999999925494","1","1","1","2","1,0.7,0,1,0.7,0,0.7,0,1","1,0.7,0,1,0.7,0,0.7,0,1","1","false",""
"","html-keyboard-response","213","154994","0.0-227.0","3DH6GAKTYZB5D7JMAHSJNJMHWG5ZYS","A2HOUSKURBF8UA","3THR0FZ95PF7SK0MYRNAOUHTWA4OLV","","null","<img src=""img/food4.png"" style=""width:200px; border:14px solid green;"">","null","","","","","","","","","",""
"","image-keyboard-response","214","155361","0.0-229.0","3DH6GAKTYZB5D7JMAHSJNJMHWG5ZYS","A2HOUSKURBF8UA","3THR0FZ95PF7SK0MYRNAOUHTWA4OLV","","364.90000000037253","img/food4.png","74","366.5","1","1","1","2","1,0.7,0,1,0.7,0,0.7,0,1","1,0.7,0,1,0.7,0,0.7,0,1","1","false",""
"","html-keyboard-response","215","155666","0.0-230.0","3DH6GAKTYZB5D7JMAHSJNJMHWG5ZYS","A2HOUSKURBF8UA","3THR0FZ95PF7SK0MYRNAOUHTWA4OLV","","null","<img src=""img/food4.png"" style=""width:200px; border:14px solid green;"">","null","","","","","","","","","",""
"","image-keyboard-response","216","155980","0.0-232.0","3DH6GAKTYZB5D7JMAHSJNJMHWG5ZYS","A2HOUSKURBF8UA","3THR0FZ95PF7SK0MYRNAOUHTWA4OLV","","312.09999999962747","img/food4.png","74","313.90000000037253","1","1","1","2","1,0.7,0,1,0.7,0,0.7,0,1","1,0.7,0,1,0.7,0,0.7,0,1","1","false",""
"","html-keyboard-response","217","156290","0.0-233.0","3DH6GAKTYZB5D7JMAHSJNJMHWG5ZYS","A2HOUSKURBF8UA","3THR0FZ95PF7SK0MYRNAOUHTWA4OLV","","null","<img src=""img/food4.png"" style=""width:200px; border:14px solid green;"">","null","","","","","","","","","",""
"","image-keyboard-response","218","156580","0.0-235.0","3DH6GAKTYZB5D7JMAHSJNJMHWG5ZYS","A2HOUSKURBF8UA","3THR0FZ95PF7SK0MYRNAOUHTWA4OLV","","287.6000000014901","img/food3.png","74","289.09999999962747","1","1","3","2","1,0.7,0,1,0.7,0,0.7,0,1","1,0.7,0,1,0.7,0,0.7,0,1","1","false",""
"","html-keyboard-response","219","156891","0.0-236.0","3DH6GAKTYZB5D7JMAHSJNJMHWG5ZYS","A2HOUSKURBF8UA","3THR0FZ95PF7SK0MYRNAOUHTWA4OLV","","null","<img src=""img/food3.png"" style=""width:200px; border:14px solid green;"">","null","","","","","","","","","",""
"","image-keyboard-response","220","157176","0.0-238.0","3DH6GAKTYZB5D7JMAHSJNJMHWG5ZYS","A2HOUSKURBF8UA","3THR0FZ95PF7SK0MYRNAOUHTWA4OLV","","282.80000000074506","img/food2.png","74","284.09999999962747","1","1","2","2","1,0.7,0,1,0.7,0,0.7,0,1","1,0.7,0,1,0.7,0,0.7,0,1","1","false",""
"","html-keyboard-response","221","157482","0.0-239.0","3DH6GAKTYZB5D7JMAHSJNJMHWG5ZYS","A2HOUSKURBF8UA","3THR0FZ95PF7SK0MYRNAOUHTWA4OLV","","null","<img src=""img/food2.png"" style=""width:200px; border:14px solid green;"">","null","","","","","","","","","",""
"","image-keyboard-response","222","157762","0.0-241.0","3DH6GAKTYZB5D7JMAHSJNJMHWG5ZYS","A2HOUSKURBF8UA","3THR0FZ95PF7SK0MYRNAOUHTWA4OLV","","276.5","img/food4.png","74","278.80000000074506","1","1","1","2","1,0.7,0,1,0.7,0,0.7,0,1","1,0.7,0,1,0.7,0,0.7,0,1","1","false",""
"","html-keyboard-response","223","158066","0.0-242.0","3DH6GAKTYZB5D7JMAHSJNJMHWG5ZYS","A2HOUSKURBF8UA","3THR0FZ95PF7SK0MYRNAOUHTWA4OLV","","null","<img src=""img/food4.png"" style=""width:200px; border:14px solid green;"">","null","","","","","","","","","",""
"","image-keyboard-response","224","158355","0.0-244.0","3DH6GAKTYZB5D7JMAHSJNJMHWG5ZYS","A2HOUSKURBF8UA","3THR0FZ95PF7SK0MYRNAOUHTWA4OLV","","286.1000000014901","img/food3.png","74","287.8999999985099","1","1","3","2","1,0.7,0,1,0.7,0,0.7,0,1","1,0.7,0,1,0.7,0,0.7,0,1","1","false",""
"","html-keyboard-response","225","158658","0.0-245.0","3DH6GAKTYZB5D7JMAHSJNJMHWG5ZYS","A2HOUSKURBF8UA","3THR0FZ95PF7SK0MYRNAOUHTWA4OLV","","null","<img src=""img/food3.png"" style=""width:200px; border:14px solid green;"">","null","","","","","","","","","",""
"","image-keyboard-response","226","158932","0.0-247.0","3DH6GAKTYZB5D7JMAHSJNJMHWG5ZYS","A2HOUSKURBF8UA","3THR0FZ95PF7SK0MYRNAOUHTWA4OLV","","271.90000000037253","img/food2.png","74","273.3999999985099","1","1","2","2","1,0.7,0,1,0.7,0,0.7,0,1","1,0.7,0,1,0.7,0,0.7,0,1","1","false",""
"","html-keyboard-response","227","159234","0.0-248.0","3DH6GAKTYZB5D7JMAHSJNJMHWG5ZYS","A2HOUSKURBF8UA","3THR0FZ95PF7SK0MYRNAOUHTWA4OLV","","null","<img src=""img/food2.png"" style=""width:200px; border:14px solid green;"">","null","","","","","","","","","",""
"","image-keyboard-response","228","159493","0.0-250.0","3DH6GAKTYZB5D7JMAHSJNJMHWG5ZYS","A2HOUSKURBF8UA","3THR0FZ95PF7SK0MYRNAOUHTWA4OLV","","257.30000000074506","img/food4.png","74","258.7000000011176","1","1","1","2","1,0.7,0,1,0.7,0,0.7,0,1","1,0.7,0,1,0.7,0,0.7,0,1","1","false",""
"","html-keyboard-response","229","159802","0.0-251.0","3DH6GAKTYZB5D7JMAHSJNJMHWG5ZYS","A2HOUSKURBF8UA","3THR0FZ95PF7SK0MYRNAOUHTWA4OLV","","null","<img src=""img/food4.png"" style=""width:200px; border:14px solid green;"">","null","","","","","","","","","",""
"","image-keyboard-response","230","160006","0.0-253.0","3DH6GAKTYZB5D7JMAHSJNJMHWG5ZYS","A2HOUSKURBF8UA","3THR0FZ95PF7SK0MYRNAOUHTWA4OLV","","202.09999999962747","img/food2.png","74","203.40000000037253","1","1","2","2","1,0.7,0,1,0.7,0,0.7,0,1","1,0.7,0,1,0.7,0,0.7,0,1","1","false",""
"","html-keyboard-response","231","160314","0.0-254.0","3DH6GAKTYZB5D7JMAHSJNJMHWG5ZYS","A2HOUSKURBF8UA","3THR0FZ95PF7SK0MYRNAOUHTWA4OLV","","null","<img src=""img/food2.png"" style=""width:200px; border:14px solid green;"">","null","","","","","","","","","",""
"","image-keyboard-response","232","160580","0.0-256.0","3DH6GAKTYZB5D7JMAHSJNJMHWG5ZYS","A2HOUSKURBF8UA","3THR0FZ95PF7SK0MYRNAOUHTWA4OLV","","263.80000000074506","img/food2.png","74","265.3999999985099","1","1","2","2","1,0.7,0,1,0.7,0,0.7,0,1","1,0.7,0,1,0.7,0,0.7,0,1","1","false",""
"","html-keyboard-response","233","160890","0.0-257.0","3DH6GAKTYZB5D7JMAHSJNJMHWG5ZYS","A2HOUSKURBF8UA","3THR0FZ95PF7SK0MYRNAOUHTWA4OLV","","null","<img src=""img/food2.png"" style=""width:200px; border:14px solid green;"">","null","","","","","","","","","",""
"","image-keyboard-response","234","161123","0.0-259.0","3DH6GAKTYZB5D7JMAHSJNJMHWG5ZYS","A2HOUSKURBF8UA","3THR0FZ95PF7SK0MYRNAOUHTWA4OLV","","230.90000000037253","img/food3.png","74","232.19999999925494","1","0","3","2","1,0.7,0,1,0.7,0,0.7,0,1","1,0.7,0,1,0.7,0,0.7,0,1","1","false",""
"","html-keyboard-response","235","161434","0.0-260.0","3DH6GAKTYZB5D7JMAHSJNJMHWG5ZYS","A2HOUSKURBF8UA","3THR0FZ95PF7SK0MYRNAOUHTWA4OLV","","null","<img src=""img/food3.png"" style=""width:200px;border:14px solid red;"">","null","","","","","","","","","",""
"","image-keyboard-response","236","161732","0.0-262.0","3DH6GAKTYZB5D7JMAHSJNJMHWG5ZYS","A2HOUSKURBF8UA","3THR0FZ95PF7SK0MYRNAOUHTWA4OLV","","295.80000000074506","img/food2.png","74","297.5","1","1","2","2","1,0.7,0,1,0.7,0,0.7,0,1","1,0.7,0,1,0.7,0,0.7,0,1","1","false",""
"","html-keyboard-response","237","162042","0.0-263.0","3DH6GAKTYZB5D7JMAHSJNJMHWG5ZYS","A2HOUSKURBF8UA","3THR0FZ95PF7SK0MYRNAOUHTWA4OLV","","null","<img src=""img/food2.png"" style=""width:200px; border:14px solid green;"">","null","","","","","","","","","",""
"","image-keyboard-response","238","162265","0.0-265.0","3DH6GAKTYZB5D7JMAHSJNJMHWG5ZYS","A2HOUSKURBF8UA","3THR0FZ95PF7SK0MYRNAOUHTWA4OLV","","220.90000000037253","img/food2.png","74","222.5","1","1","2","2","1,0.7,0,1,0.7,0,0.7,0,1","1,0.7,0,1,0.7,0,0.7,0,1","1","false",""
"","html-keyboard-response","239","162570","0.0-266.0","3DH6GAKTYZB5D7JMAHSJNJMHWG5ZYS","A2HOUSKURBF8UA","3THR0FZ95PF7SK0MYRNAOUHTWA4OLV","","null","<img src=""img/food2.png"" style=""width:200px; border:14px solid green;"">","null","","","","","","","","","",""
"","image-keyboard-response","240","162884","0.0-268.0","3DH6GAKTYZB5D7JMAHSJNJMHWG5ZYS","A2HOUSKURBF8UA","3THR0FZ95PF7SK0MYRNAOUHTWA4OLV","","312.19999999925494","img/food2.png","74","313.5","1","1","2","2","1,0.7,0,1,0.7,0,0.7,0,1","1,0.7,0,1,0.7,0,0.7,0,1","1","false",""
"","html-keyboard-response","241","163194","0.0-269.0","3DH6GAKTYZB5D7JMAHSJNJMHWG5ZYS","A2HOUSKURBF8UA","3THR0FZ95PF7SK0MYRNAOUHTWA4OLV","","null","<img src=""img/food2.png"" style=""width:200px; border:14px solid green;"">","null","","","","","","","","","",""
"","image-keyboard-response","242","163570","0.0-271.0","3DH6GAKTYZB5D7JMAHSJNJMHWG5ZYS","A2HOUSKURBF8UA","3THR0FZ95PF7SK0MYRNAOUHTWA4OLV","","374.7000000011176","img/food2.png","74","376.09999999962747","1","1","2","2","1,0.7,0,1,0.7,0,0.7,0,1","1,0.7,0,1,0.7,0,0.7,0,1","1","false",""
"","html-keyboard-response","243","163874","0.0-272.0","3DH6GAKTYZB5D7JMAHSJNJMHWG5ZYS","A2HOUSKURBF8UA","3THR0FZ95PF7SK0MYRNAOUHTWA4OLV","","null","<img src=""img/food2.png"" style=""width:200px; border:14px solid green;"">","null","","","","","","","","","",""
"","image-keyboard-response","244","164108","0.0-274.0","3DH6GAKTYZB5D7JMAHSJNJMHWG5ZYS","A2HOUSKURBF8UA","3THR0FZ95PF7SK0MYRNAOUHTWA4OLV","","232.09999999962747","img/food2.png","74","233.80000000074506","1","1","2","2","1,0.7,0,1,0.7,0,0.7,0,1","1,0.7,0,1,0.7,0,0.7,0,1","1","false",""
"","html-keyboard-response","245","164418","0.0-275.0","3DH6GAKTYZB5D7JMAHSJNJMHWG5ZYS","A2HOUSKURBF8UA","3THR0FZ95PF7SK0MYRNAOUHTWA4OLV","","null","<img src=""img/food2.png"" style=""width:200px; border:14px solid green;"">","null","","","","","","","","","",""
"","image-keyboard-response","246","164656","0.0-277.0","3DH6GAKTYZB5D7JMAHSJNJMHWG5ZYS","A2HOUSKURBF8UA","3THR0FZ95PF7SK0MYRNAOUHTWA4OLV","","235.7000000011176","img/food4.png","74","237.40000000037253","1","1","1","2","1,0.7,0,1,0.7,0,0.7,0,1","1,0.7,0,1,0.7,0,0.7,0,1","1","false",""
"","html-keyboard-response","247","164962","0.0-278.0","3DH6GAKTYZB5D7JMAHSJNJMHWG5ZYS","A2HOUSKURBF8UA","3THR0FZ95PF7SK0MYRNAOUHTWA4OLV","","null","<img src=""img/food4.png"" style=""width:200px; border:14px solid green;"">","null","","","","","","","","","",""
"","image-keyboard-response","248","165286","0.0-280.0","3DH6GAKTYZB5D7JMAHSJNJMHWG5ZYS","A2HOUSKURBF8UA","3THR0FZ95PF7SK0MYRNAOUHTWA4OLV","","321.8999999985099","img/food2.png","74","323.7000000011176","1","1","2","2","1,0.7,0,1,0.7,0,0.7,0,1","1,0.7,0,1,0.7,0,0.7,0,1","1","false",""
"","html-keyboard-response","249","165594","0.0-281.0","3DH6GAKTYZB5D7JMAHSJNJMHWG5ZYS","A2HOUSKURBF8UA","3THR0FZ95PF7SK0MYRNAOUHTWA4OLV","","null","<img src=""img/food2.png"" style=""width:200px; border:14px solid green;"">","null","","","","","","","","","",""
"","image-keyboard-response","250","165868","0.0-283.0","3DH6GAKTYZB5D7JMAHSJNJMHWG5ZYS","A2HOUSKURBF8UA","3THR0FZ95PF7SK0MYRNAOUHTWA4OLV","","272.59999999962747","img/food3.png","74","274.09999999962747","1","1","3","2","1,0.7,0,1,0.7,0,0.7,0,1","1,0.7,0,1,0.7,0,0.7,0,1","1","false",""
"","html-keyboard-response","251","166178","0.0-284.0","3DH6GAKTYZB5D7JMAHSJNJMHWG5ZYS","A2HOUSKURBF8UA","3THR0FZ95PF7SK0MYRNAOUHTWA4OLV","","null","<img src=""img/food3.png"" style=""width:200px; border:14px solid green;"">","null","","","","","","","","","",""
"","image-keyboard-response","252","166509","0.0-286.0","3DH6GAKTYZB5D7JMAHSJNJMHWG5ZYS","A2HOUSKURBF8UA","3THR0FZ95PF7SK0MYRNAOUHTWA4OLV","","329.09999999962747","img/food4.png","74","330.69999999925494","1","1","1","2","1,0.7,0,1,0.7,0,0.7,0,1","1,0.7,0,1,0.7,0,0.7,0,1","1","false",""
"","html-keyboard-response","253","166818","0.0-287.0","3DH6GAKTYZB5D7JMAHSJNJMHWG5ZYS","A2HOUSKURBF8UA","3THR0FZ95PF7SK0MYRNAOUHTWA4OLV","","null","<img src=""img/food4.png"" style=""width:200px; border:14px solid green;"">","null","","","","","","","","","",""
"","image-keyboard-response","254","167058","0.0-289.0","3DH6GAKTYZB5D7JMAHSJNJMHWG5ZYS","A2HOUSKURBF8UA","3THR0FZ95PF7SK0MYRNAOUHTWA4OLV","","238.2000000011176","img/food2.png","74","239.59999999962747","1","1","2","2","1,0.7,0,1,0.7,0,0.7,0,1","1,0.7,0,1,0.7,0,0.7,0,1","1","false",""
"","html-keyboard-response","255","167362","0.0-290.0","3DH6GAKTYZB5D7JMAHSJNJMHWG5ZYS","A2HOUSKURBF8UA","3THR0FZ95PF7SK0MYRNAOUHTWA4OLV","","null","<img src=""img/food2.png"" style=""width:200px; border:14px solid green;"">","null","","","","","","","","","",""
"","image-keyboard-response","256","167696","0.0-292.0","3DH6GAKTYZB5D7JMAHSJNJMHWG5ZYS","A2HOUSKURBF8UA","3THR0FZ95PF7SK0MYRNAOUHTWA4OLV","","331.90000000037253","img/food4.png","74","333.5","1","1","1","2","1,0.7,0,1,0.7,0,0.7,0,1","1,0.7,0,1,0.7,0,0.7,0,1","1","false",""
"","html-keyboard-response","257","168002","0.0-293.0","3DH6GAKTYZB5D7JMAHSJNJMHWG5ZYS","A2HOUSKURBF8UA","3THR0FZ95PF7SK0MYRNAOUHTWA4OLV","","null","<img src=""img/food4.png"" style=""width:200px; border:14px solid green;"">","null","","","","","","","","","",""
"","image-keyboard-response","258","168301","0.0-295.0","3DH6GAKTYZB5D7JMAHSJNJMHWG5ZYS","A2HOUSKURBF8UA","3THR0FZ95PF7SK0MYRNAOUHTWA4OLV","","296.90000000037253","img/food3.png","74","298.59999999962747","1","1","3","2","1,0.7,0,1,0.7,0,0.7,0,1","1,0.7,0,1,0.7,0,0.7,0,1","1","false",""
"","html-keyboard-response","259","168610","0.0-296.0","3DH6GAKTYZB5D7JMAHSJNJMHWG5ZYS","A2HOUSKURBF8UA","3THR0FZ95PF7SK0MYRNAOUHTWA4OLV","","null","<img src=""img/food3.png"" style=""width:200px; border:14px solid green;"">","null","","","","","","","","","",""
"","image-keyboard-response","260","168852","0.0-298.0","3DH6GAKTYZB5D7JMAHSJNJMHWG5ZYS","A2HOUSKURBF8UA","3THR0FZ95PF7SK0MYRNAOUHTWA4OLV","","240.80000000074506","img/food3.png","74","242.2000000011176","1","1","3","2","1,0.7,0,1,0.7,0,0.7,0,1","1,0.7,0,1,0.7,0,0.7,0,1","1","false",""
"","html-keyboard-response","261","169162","0.0-299.0","3DH6GAKTYZB5D7JMAHSJNJMHWG5ZYS","A2HOUSKURBF8UA","3THR0FZ95PF7SK0MYRNAOUHTWA4OLV","","null","<img src=""img/food3.png"" style=""width:200px; border:14px solid green;"">","null","","","","","","","","","",""
"","image-keyboard-response","262","169418","0.0-301.0","3DH6GAKTYZB5D7JMAHSJNJMHWG5ZYS","A2HOUSKURBF8UA","3THR0FZ95PF7SK0MYRNAOUHTWA4OLV","","253.30000000074506","img/food3.png","74","254.80000000074506","1","0","3","2","1,0.7,0,1,0.7,0,0.7,0,1","1,0.7,0,1,0.7,0,0.7,0,1","1","false",""
"","html-keyboard-response","263","169722","0.0-302.0","3DH6GAKTYZB5D7JMAHSJNJMHWG5ZYS","A2HOUSKURBF8UA","3THR0FZ95PF7SK0MYRNAOUHTWA4OLV","","null","<img src=""img/food3.png"" style=""width:200px;border:14px solid red;"">","null","","","","","","","","","",""
"","image-keyboard-response","264","169996","0.0-304.0","3DH6GAKTYZB5D7JMAHSJNJMHWG5ZYS","A2HOUSKURBF8UA","3THR0FZ95PF7SK0MYRNAOUHTWA4OLV","","272.2000000011176","img/food3.png","74","273.6000000014901","1","0","3","2","1,0.7,0,1,0.7,0,0.7,0,1","1,0.7,0,1,0.7,0,0.7,0,1","1","false",""
"","html-keyboard-response","265","170306","0.0-305.0","3DH6GAKTYZB5D7JMAHSJNJMHWG5ZYS","A2HOUSKURBF8UA","3THR0FZ95PF7SK0MYRNAOUHTWA4OLV","","null","<img src=""img/food3.png"" style=""width:200px;border:14px solid red;"">","null","","","","","","","","","",""
"","image-keyboard-response","266","170764","0.0-307.0","3DH6GAKTYZB5D7JMAHSJNJMHWG5ZYS","A2HOUSKURBF8UA","3THR0FZ95PF7SK0MYRNAOUHTWA4OLV","","456.3999999985099","img/food3.png","76","457.7999999988824","3","1","3","2","1,0.7,0,1,0.7,0,0.7,0,1","1,0.7,0,1,0.7,0,0.7,0,1","1","false",""
"","html-keyboard-response","267","171074","0.0-308.0","3DH6GAKTYZB5D7JMAHSJNJMHWG5ZYS","A2HOUSKURBF8UA","3THR0FZ95PF7SK0MYRNAOUHTWA4OLV","","null","<img src=""img/food3.png"" style=""width:200px; border:14px solid green;"">","null","","","","","","","","","",""
"","image-keyboard-response","268","171334","0.0-310.0","3DH6GAKTYZB5D7JMAHSJNJMHWG5ZYS","A2HOUSKURBF8UA","3THR0FZ95PF7SK0MYRNAOUHTWA4OLV","","258.40000000037253","img/food3.png","76","259.80000000074506","3","1","3","2","1,0.7,0,1,0.7,0,0.7,0,1","1,0.7,0,1,0.7,0,0.7,0,1","1","false",""
"","html-keyboard-response","269","171642","0.0-311.0","3DH6GAKTYZB5D7JMAHSJNJMHWG5ZYS","A2HOUSKURBF8UA","3THR0FZ95PF7SK0MYRNAOUHTWA4OLV","","null","<img src=""img/food3.png"" style=""width:200px; border:14px solid green;"">","null","","","","","","","","","",""
"","image-keyboard-response","270","171877","0.0-313.0","3DH6GAKTYZB5D7JMAHSJNJMHWG5ZYS","A2HOUSKURBF8UA","3THR0FZ95PF7SK0MYRNAOUHTWA4OLV","","233.90000000037253","img/food2.png","76","235.30000000074506","3","0","2","2","1,0.7,0,1,0.7,0,0.7,0,1","1,0.7,0,1,0.7,0,0.7,0,1","1","false",""
"","html-keyboard-response","271","172186","0.0-314.0","3DH6GAKTYZB5D7JMAHSJNJMHWG5ZYS","A2HOUSKURBF8UA","3THR0FZ95PF7SK0MYRNAOUHTWA4OLV","","null","<img src=""img/food2.png"" style=""width:200px;border:14px solid red;"">","null","","","","","","","","","",""
"","image-keyboard-response","272","172494","0.0-316.0","3DH6GAKTYZB5D7JMAHSJNJMHWG5ZYS","A2HOUSKURBF8UA","3THR0FZ95PF7SK0MYRNAOUHTWA4OLV","","305.7000000011176","img/food4.png","74","307.19999999925494","1","1","1","2","1,0.7,0,1,0.7,0,0.7,0,1","1,0.7,0,1,0.7,0,0.7,0,1","1","false",""
"","html-keyboard-response","273","172856","0.0-317.0","3DH6GAKTYZB5D7JMAHSJNJMHWG5ZYS","A2HOUSKURBF8UA","3THR0FZ95PF7SK0MYRNAOUHTWA4OLV","","null","<img src=""img/food4.png"" style=""width:200px; border:14px solid green;"">","null","","","","","","","","","",""
"","image-keyboard-response","274","173093","0.0-319.0","3DH6GAKTYZB5D7JMAHSJNJMHWG5ZYS","A2HOUSKURBF8UA","3THR0FZ95PF7SK0MYRNAOUHTWA4OLV","","235.40000000037253","img/food3.png","74","237","1","0","3","2","1,0.7,0,1,0.7,0,0.7,0,1","1,0.7,0,1,0.7,0,0.7,0,1","1","false",""
"","html-keyboard-response","275","173403","0.0-320.0","3DH6GAKTYZB5D7JMAHSJNJMHWG5ZYS","A2HOUSKURBF8UA","3THR0FZ95PF7SK0MYRNAOUHTWA4OLV","","null","<img src=""img/food3.png"" style=""width:200px;border:14px solid red;"">","null","","","","","","","","","",""
"","image-keyboard-response","276","173669","0.0-322.0","3DH6GAKTYZB5D7JMAHSJNJMHWG5ZYS","A2HOUSKURBF8UA","3THR0FZ95PF7SK0MYRNAOUHTWA4OLV","","264.80000000074506","img/food4.png","76","266.30000000074506","3","0","1","2","1,0.7,0,1,0.7,0,0.7,0,1","1,0.7,0,1,0.7,0,0.7,0,1","1","false",""
"","html-keyboard-response","277","173978","0.0-323.0","3DH6GAKTYZB5D7JMAHSJNJMHWG5ZYS","A2HOUSKURBF8UA","3THR0FZ95PF7SK0MYRNAOUHTWA4OLV","","null","<img src=""img/food4.png"" style=""width:200px;border:14px solid red;"">","null","","","","","","","","","",""
"","image-keyboard-response","278","174181","0.0-325.0","3DH6GAKTYZB5D7JMAHSJNJMHWG5ZYS","A2HOUSKURBF8UA","3THR0FZ95PF7SK0MYRNAOUHTWA4OLV","","201","img/food3.png","74","202.5","1","1","3","2","1,0.7,0,1,0.7,0,0.7,0,1","1,0.7,0,1,0.7,0,0.7,0,1","1","false",""
"","html-keyboard-response","279","174490","0.0-326.0","3DH6GAKTYZB5D7JMAHSJNJMHWG5ZYS","A2HOUSKURBF8UA","3THR0FZ95PF7SK0MYRNAOUHTWA4OLV","","null","<img src=""img/food3.png"" style=""width:200px; border:14px solid green;"">","null","","","","","","","","","",""
"","image-keyboard-response","280","174939","0.0-328.0","3DH6GAKTYZB5D7JMAHSJNJMHWG5ZYS","A2HOUSKURBF8UA","3THR0FZ95PF7SK0MYRNAOUHTWA4OLV","","447","img/food3.png","76","449.09999999962747","3","1","3","2","1,0.7,0,1,0.7,0,0.7,0,1","1,0.7,0,1,0.7,0,0.7,0,1","1","false",""
"","html-keyboard-response","281","175242","0.0-329.0","3DH6GAKTYZB5D7JMAHSJNJMHWG5ZYS","A2HOUSKURBF8UA","3THR0FZ95PF7SK0MYRNAOUHTWA4OLV","","null","<img src=""img/food3.png"" style=""width:200px; border:14px solid green;"">","null","","","","","","","","","",""
"","image-keyboard-response","282","175511","0.0-331.0","3DH6GAKTYZB5D7JMAHSJNJMHWG5ZYS","A2HOUSKURBF8UA","3THR0FZ95PF7SK0MYRNAOUHTWA4OLV","","267.19999999925494","img/food2.png","76","268.59999999962747","3","0","2","2","1,0.7,0,1,0.7,0,0.7,0,1","1,0.7,0,1,0.7,0,0.7,0,1","1","false",""
"","html-keyboard-response","283","175818","0.0-332.0","3DH6GAKTYZB5D7JMAHSJNJMHWG5ZYS","A2HOUSKURBF8UA","3THR0FZ95PF7SK0MYRNAOUHTWA4OLV","","null","<img src=""img/food2.png"" style=""width:200px;border:14px solid red;"">","null","","","","","","","","","",""
"","image-keyboard-response","284","176131","0.0-334.0","3DH6GAKTYZB5D7JMAHSJNJMHWG5ZYS","A2HOUSKURBF8UA","3THR0FZ95PF7SK0MYRNAOUHTWA4OLV","","311.90000000037253","img/food4.png","74","313.30000000074506","1","1","1","2","1,0.7,0,1,0.7,0,0.7,0,1","1,0.7,0,1,0.7,0,0.7,0,1","1","false",""
"","html-keyboard-response","285","176442","0.0-335.0","3DH6GAKTYZB5D7JMAHSJNJMHWG5ZYS","A2HOUSKURBF8UA","3THR0FZ95PF7SK0MYRNAOUHTWA4OLV","","null","<img src=""img/food4.png"" style=""width:200px; border:14px solid green;"">","null","","","","","","","","","",""
"","image-keyboard-response","286","176804","0.0-337.0","3DH6GAKTYZB5D7JMAHSJNJMHWG5ZYS","A2HOUSKURBF8UA","3THR0FZ95PF7SK0MYRNAOUHTWA4OLV","","359.7999999988824","img/food3.png","74","361.09999999962747","1","0","3","2","1,0.7,0,1,0.7,0,0.7,0,1","1,0.7,0,1,0.7,0,0.7,0,1","1","false",""
"","html-keyboard-response","287","177114","0.0-338.0","3DH6GAKTYZB5D7JMAHSJNJMHWG5ZYS","A2HOUSKURBF8UA","3THR0FZ95PF7SK0MYRNAOUHTWA4OLV","","null","<img src=""img/food3.png"" style=""width:200px;border:14px solid red;"">","null","","","","","","","","","",""
"","image-keyboard-response","288","177535","0.0-340.0","3DH6GAKTYZB5D7JMAHSJNJMHWG5ZYS","A2HOUSKURBF8UA","3THR0FZ95PF7SK0MYRNAOUHTWA4OLV","","418.09999999962747","img/food2.png","74","419.8999999985099","1","1","2","2","1,0.7,0,1,0.7,0,0.7,0,1","1,0.7,0,1,0.7,0,0.7,0,1","1","false",""
"","html-keyboard-response","289","177842","0.0-341.0","3DH6GAKTYZB5D7JMAHSJNJMHWG5ZYS","A2HOUSKURBF8UA","3THR0FZ95PF7SK0MYRNAOUHTWA4OLV","","null","<img src=""img/food2.png"" style=""width:200px; border:14px solid green;"">","null","","","","","","","","","",""
"","image-keyboard-response","290","178209","0.0-343.0","3DH6GAKTYZB5D7JMAHSJNJMHWG5ZYS","A2HOUSKURBF8UA","3THR0FZ95PF7SK0MYRNAOUHTWA4OLV","","364.5","img/food4.png","74","366.30000000074506","1","1","1","2","1,0.7,0,1,0.7,0,0.7,0,1","1,0.7,0,1,0.7,0,0.7,0,1","1","false",""
"","html-keyboard-response","291","178514","0.0-344.0","3DH6GAKTYZB5D7JMAHSJNJMHWG5ZYS","A2HOUSKURBF8UA","3THR0FZ95PF7SK0MYRNAOUHTWA4OLV","","null","<img src=""img/food4.png"" style=""width:200px; border:14px solid green;"">","null","","","","","","","","","",""
"","image-keyboard-response","292","178875","0.0-346.0","3DH6GAKTYZB5D7JMAHSJNJMHWG5ZYS","A2HOUSKURBF8UA","3THR0FZ95PF7SK0MYRNAOUHTWA4OLV","","359.1000000014901","img/food4.png","74","360.6000000014901","1","1","1","2","1,0.7,0,1,0.7,0,0.7,0,1","1,0.7,0,1,0.7,0,0.7,0,1","1","false",""
"","html-keyboard-response","293","179178","0.0-347.0","3DH6GAKTYZB5D7JMAHSJNJMHWG5ZYS","A2HOUSKURBF8UA","3THR0FZ95PF7SK0MYRNAOUHTWA4OLV","","null","<img src=""img/food4.png"" style=""width:200px; border:14px solid green;"">","null","","","","","","","","","",""
"","image-keyboard-response","294","179795","0.0-349.0","3DH6GAKTYZB5D7JMAHSJNJMHWG5ZYS","A2HOUSKURBF8UA","3THR0FZ95PF7SK0MYRNAOUHTWA4OLV","","615.6999999992549","img/food2.png","74","617.1000000014901","1","1","2","2","1,0.7,0,1,0.7,0,0.7,0,1","1,0.7,0,1,0.7,0,0.7,0,1","1","false",""
"","html-keyboard-response","295","180098","0.0-350.0","3DH6GAKTYZB5D7JMAHSJNJMHWG5ZYS","A2HOUSKURBF8UA","3THR0FZ95PF7SK0MYRNAOUHTWA4OLV","","null","<img src=""img/food2.png"" style=""width:200px; border:14px solid green;"">","null","","","","","","","","","",""
"","image-keyboard-response","296","180403","0.0-352.0","3DH6GAKTYZB5D7JMAHSJNJMHWG5ZYS","A2HOUSKURBF8UA","3THR0FZ95PF7SK0MYRNAOUHTWA4OLV","","303.5","img/food4.png","74","304.90000000037253","1","1","1","2","1,0.7,0,1,0.7,0,0.7,0,1","1,0.7,0,1,0.7,0,0.7,0,1","1","false",""
"","html-keyboard-response","297","180714","0.0-353.0","3DH6GAKTYZB5D7JMAHSJNJMHWG5ZYS","A2HOUSKURBF8UA","3THR0FZ95PF7SK0MYRNAOUHTWA4OLV","","null","<img src=""img/food4.png"" style=""width:200px; border:14px solid green;"">","null","","","","","","","","","",""
"","image-keyboard-response","298","180975","0.0-355.0","3DH6GAKTYZB5D7JMAHSJNJMHWG5ZYS","A2HOUSKURBF8UA","3THR0FZ95PF7SK0MYRNAOUHTWA4OLV","","259.30000000074506","img/food3.png","74","260.7000000011176","1","0","3","2","1,0.7,0,1,0.7,0,0.7,0,1","1,0.7,0,1,0.7,0,0.7,0,1","1","false",""
"","html-keyboard-response","299","181282","0.0-356.0","3DH6GAKTYZB5D7JMAHSJNJMHWG5ZYS","A2HOUSKURBF8UA","3THR0FZ95PF7SK0MYRNAOUHTWA4OLV","","null","<img src=""img/food3.png"" style=""width:200px;border:14px solid red;"">","null","","","","","","","","","",""
"","image-keyboard-response","300","181514","0.0-358.0","3DH6GAKTYZB5D7JMAHSJNJMHWG5ZYS","A2HOUSKURBF8UA","3THR0FZ95PF7SK0MYRNAOUHTWA4OLV","","230.2999999988824","img/food3.png","74","231.7000000011176","1","0","3","2","1,0.7,0,1,0.7,0,0.7,0,1","1,0.7,0,1,0.7,0,0.7,0,1","1","false",""
"","html-keyboard-response","301","181818","0.0-359.0","3DH6GAKTYZB5D7JMAHSJNJMHWG5ZYS","A2HOUSKURBF8UA","3THR0FZ95PF7SK0MYRNAOUHTWA4OLV","","null","<img src=""img/food3.png"" style=""width:200px;border:14px solid red;"">","null","","","","","","","","","",""
"","image-keyboard-response","302","182041","0.0-361.0","3DH6GAKTYZB5D7JMAHSJNJMHWG5ZYS","A2HOUSKURBF8UA","3THR0FZ95PF7SK0MYRNAOUHTWA4OLV","","220.5","img/food3.png","76","222.09999999962747","3","1","3","2","1,0.7,0,1,0.7,0,0.7,0,1","1,0.7,0,1,0.7,0,0.7,0,1","1","false",""
"","html-keyboard-response","303","182347","0.0-362.0","3DH6GAKTYZB5D7JMAHSJNJMHWG5ZYS","A2HOUSKURBF8UA","3THR0FZ95PF7SK0MYRNAOUHTWA4OLV","","null","<img src=""img/food3.png"" style=""width:200px; border:14px solid green;"">","null","","","","","","","","","",""
"","image-keyboard-response","304","182684","0.0-364.0","3DH6GAKTYZB5D7JMAHSJNJMHWG5ZYS","A2HOUSKURBF8UA","3THR0FZ95PF7SK0MYRNAOUHTWA4OLV","","335","img/food4.png","74","336.40000000037253","1","1","1","2","1,0.7,0,1,0.7,0,0.7,0,1","1,0.7,0,1,0.7,0,0.7,0,1","1","false",""
"","html-keyboard-response","305","182994","0.0-365.0","3DH6GAKTYZB5D7JMAHSJNJMHWG5ZYS","A2HOUSKURBF8UA","3THR0FZ95PF7SK0MYRNAOUHTWA4OLV","","null","<img src=""img/food4.png"" style=""width:200px; border:14px solid green;"">","null","","","","","","","","","",""
"","image-keyboard-response","306","183307","0.0-367.0","3DH6GAKTYZB5D7JMAHSJNJMHWG5ZYS","A2HOUSKURBF8UA","3THR0FZ95PF7SK0MYRNAOUHTWA4OLV","","310.7999999988824","img/food4.png","74","312.5","1","1","1","2","1,0.7,0,1,0.7,0,0.7,0,1","1,0.7,0,1,0.7,0,0.7,0,1","1","false",""
"","html-keyboard-response","307","183610","0.0-368.0","3DH6GAKTYZB5D7JMAHSJNJMHWG5ZYS","A2HOUSKURBF8UA","3THR0FZ95PF7SK0MYRNAOUHTWA4OLV","","null","<img src=""img/food4.png"" style=""width:200px; border:14px solid green;"">","null","","","","","","","","","",""
"","image-keyboard-response","308","183975","0.0-370.0","3DH6GAKTYZB5D7JMAHSJNJMHWG5ZYS","A2HOUSKURBF8UA","3THR0FZ95PF7SK0MYRNAOUHTWA4OLV","","363.40000000037253","img/food4.png","74","364.90000000037253","1","1","1","2","1,0.7,0,1,0.7,0,0.7,0,1","1,0.7,0,1,0.7,0,0.7,0,1","1","false",""
"","html-keyboard-response","309","184282","0.0-371.0","3DH6GAKTYZB5D7JMAHSJNJMHWG5ZYS","A2HOUSKURBF8UA","3THR0FZ95PF7SK0MYRNAOUHTWA4OLV","","null","<img src=""img/food4.png"" style=""width:200px; border:14px solid green;"">","null","","","","","","","","","",""
"","image-keyboard-response","310","184756","0.0-373.0","3DH6GAKTYZB5D7JMAHSJNJMHWG5ZYS","A2HOUSKURBF8UA","3THR0FZ95PF7SK0MYRNAOUHTWA4OLV","","472.09999999962747","img/food2.png","74","473.40000000037253","1","1","2","2","1,0.7,0,1,0.7,0,0.7,0,1","1,0.7,0,1,0.7,0,0.7,0,1","1","false",""
"","html-keyboard-response","311","185066","0.0-374.0","3DH6GAKTYZB5D7JMAHSJNJMHWG5ZYS","A2HOUSKURBF8UA","3THR0FZ95PF7SK0MYRNAOUHTWA4OLV","","null","<img src=""img/food2.png"" style=""width:200px; border:14px solid green;"">","null","","","","","","","","","",""
"","image-keyboard-response","312","185337","0.0-376.0","3DH6GAKTYZB5D7JMAHSJNJMHWG5ZYS","A2HOUSKURBF8UA","3THR0FZ95PF7SK0MYRNAOUHTWA4OLV","","268.5","img/food3.png","74","269.90000000037253","1","0","3","2","1,0.7,0,1,0.7,0,0.7,0,1","1,0.7,0,1,0.7,0,0.7,0,1","1","false",""
"","html-keyboard-response","313","185642","0.0-377.0","3DH6GAKTYZB5D7JMAHSJNJMHWG5ZYS","A2HOUSKURBF8UA","3THR0FZ95PF7SK0MYRNAOUHTWA4OLV","","null","<img src=""img/food3.png"" style=""width:200px;border:14px solid red;"">","null","","","","","","","","","",""
"","image-keyboard-response","314","185942","0.0-379.0","3DH6GAKTYZB5D7JMAHSJNJMHWG5ZYS","A2HOUSKURBF8UA","3THR0FZ95PF7SK0MYRNAOUHTWA4OLV","","298.7000000011176","img/food2.png","76","300.40000000037253","3","0","2","2","1,0.7,0,1,0.7,0,0.7,0,1","1,0.7,0,1,0.7,0,0.7,0,1","1","false",""
"","html-keyboard-response","315","186250","0.0-380.0","3DH6GAKTYZB5D7JMAHSJNJMHWG5ZYS","A2HOUSKURBF8UA","3THR0FZ95PF7SK0MYRNAOUHTWA4OLV","","null","<img src=""img/food2.png"" style=""width:200px;border:14px solid red;"">","null","","","","","","","","","",""
"","image-keyboard-response","316","186539","0.0-382.0","3DH6GAKTYZB5D7JMAHSJNJMHWG5ZYS","A2HOUSKURBF8UA","3THR0FZ95PF7SK0MYRNAOUHTWA4OLV","","286.59999999962747","img/food2.png","74","288","1","1","2","2","1,0.7,0,1,0.7,0,0.7,0,1","1,0.7,0,1,0.7,0,0.7,0,1","1","false",""
"","html-keyboard-response","317","186842","0.0-383.0","3DH6GAKTYZB5D7JMAHSJNJMHWG5ZYS","A2HOUSKURBF8UA","3THR0FZ95PF7SK0MYRNAOUHTWA4OLV","","null","<img src=""img/food2.png"" style=""width:200px; border:14px solid green;"">","null","","","","","","","","","",""
"","image-keyboard-response","318","187136","0.0-385.0","3DH6GAKTYZB5D7JMAHSJNJMHWG5ZYS","A2HOUSKURBF8UA","3THR0FZ95PF7SK0MYRNAOUHTWA4OLV","","292.19999999925494","img/food4.png","74","293.5","1","1","1","2","1,0.7,0,1,0.7,0,0.7,0,1","1,0.7,0,1,0.7,0,0.7,0,1","1","false",""
"","html-keyboard-response","319","187442","0.0-386.0","3DH6GAKTYZB5D7JMAHSJNJMHWG5ZYS","A2HOUSKURBF8UA","3THR0FZ95PF7SK0MYRNAOUHTWA4OLV","","null","<img src=""img/food4.png"" style=""width:200px; border:14px solid green;"">","null","","","","","","","","","",""
"","image-keyboard-response","320","187836","0.0-388.0","3DH6GAKTYZB5D7JMAHSJNJMHWG5ZYS","A2HOUSKURBF8UA","3THR0FZ95PF7SK0MYRNAOUHTWA4OLV","","392","img/food2.png","74","393.40000000037253","1","1","2","2","1,0.7,0,1,0.7,0,0.7,0,1","1,0.7,0,1,0.7,0,0.7,0,1","1","false",""
"","html-keyboard-response","321","188146","0.0-389.0","3DH6GAKTYZB5D7JMAHSJNJMHWG5ZYS","A2HOUSKURBF8UA","3THR0FZ95PF7SK0MYRNAOUHTWA4OLV","","null","<img src=""img/food2.png"" style=""width:200px; border:14px solid green;"">","null","","","","","","","","","",""
"","image-keyboard-response","322","188414","0.0-391.0","3DH6GAKTYZB5D7JMAHSJNJMHWG5ZYS","A2HOUSKURBF8UA","3THR0FZ95PF7SK0MYRNAOUHTWA4OLV","","266.09999999962747","img/food3.png","74","267.59999999962747","1","1","3","2","1,0.7,0,1,0.7,0,0.7,0,1","1,0.7,0,1,0.7,0,0.7,0,1","1","false",""
"","html-keyboard-response","323","188722","0.0-392.0","3DH6GAKTYZB5D7JMAHSJNJMHWG5ZYS","A2HOUSKURBF8UA","3THR0FZ95PF7SK0MYRNAOUHTWA4OLV","","null","<img src=""img/food3.png"" style=""width:200px; border:14px solid green;"">","null","","","","","","","","","",""
"","image-keyboard-response","324","188991","0.0-394.0","3DH6GAKTYZB5D7JMAHSJNJMHWG5ZYS","A2HOUSKURBF8UA","3THR0FZ95PF7SK0MYRNAOUHTWA4OLV","","267","img/food4.png","74","268.40000000037253","1","1","1","2","1,0.7,0,1,0.7,0,0.7,0,1","1,0.7,0,1,0.7,0,0.7,0,1","1","false",""
"","html-keyboard-response","325","189298","0.0-395.0","3DH6GAKTYZB5D7JMAHSJNJMHWG5ZYS","A2HOUSKURBF8UA","3THR0FZ95PF7SK0MYRNAOUHTWA4OLV","","null","<img src=""img/food4.png"" style=""width:200px; border:14px solid green;"">","null","","","","","","","","","",""
"","image-keyboard-response","326","189538","0.0-397.0","3DH6GAKTYZB5D7JMAHSJNJMHWG5ZYS","A2HOUSKURBF8UA","3THR0FZ95PF7SK0MYRNAOUHTWA4OLV","","237.80000000074506","img/food4.png","74","239.40000000037253","1","1","1","2","1,0.7,0,1,0.7,0,0.7,0,1","1,0.7,0,1,0.7,0,0.7,0,1","1","false",""
"","html-keyboard-response","327","189842","0.0-398.0","3DH6GAKTYZB5D7JMAHSJNJMHWG5ZYS","A2HOUSKURBF8UA","3THR0FZ95PF7SK0MYRNAOUHTWA4OLV","","null","<img src=""img/food4.png"" style=""width:200px; border:14px solid green;"">","null","","","","","","","","","",""
"","image-keyboard-response","328","190174","0.0-400.0","3DH6GAKTYZB5D7JMAHSJNJMHWG5ZYS","A2HOUSKURBF8UA","3THR0FZ95PF7SK0MYRNAOUHTWA4OLV","","329.69999999925494","img/food2.png","74","331.09999999962747","1","1","2","2","1,0.7,0,1,0.7,0,0.7,0,1","1,0.7,0,1,0.7,0,0.7,0,1","1","false",""
"","html-keyboard-response","329","190482","0.0-401.0","3DH6GAKTYZB5D7JMAHSJNJMHWG5ZYS","A2HOUSKURBF8UA","3THR0FZ95PF7SK0MYRNAOUHTWA4OLV","","null","<img src=""img/food2.png"" style=""width:200px; border:14px solid green;"">","null","","","","","","","","","",""
"","image-keyboard-response","330","190662","0.0-403.0","3DH6GAKTYZB5D7JMAHSJNJMHWG5ZYS","A2HOUSKURBF8UA","3THR0FZ95PF7SK0MYRNAOUHTWA4OLV","","178","img/food3.png","74","179.5","1","1","3","2","1,0.7,0,1,0.7,0,0.7,0,1","1,0.7,0,1,0.7,0,0.7,0,1","1","false",""
"","html-keyboard-response","331","190970","0.0-404.0","3DH6GAKTYZB5D7JMAHSJNJMHWG5ZYS","A2HOUSKURBF8UA","3THR0FZ95PF7SK0MYRNAOUHTWA4OLV","","null","<img src=""img/food3.png"" style=""width:200px; border:14px solid green;"">","null","","","","","","","","","",""
"","image-keyboard-response","332","191161","0.0-406.0","3DH6GAKTYZB5D7JMAHSJNJMHWG5ZYS","A2HOUSKURBF8UA","3THR0FZ95PF7SK0MYRNAOUHTWA4OLV","","189.09999999962747","img/food3.png","76","190.7000000011176","3","1","3","2","1,0.7,0,1,0.7,0,0.7,0,1","1,0.7,0,1,0.7,0,0.7,0,1","1","false",""
"","html-keyboard-response","333","191474","0.0-407.0","3DH6GAKTYZB5D7JMAHSJNJMHWG5ZYS","A2HOUSKURBF8UA","3THR0FZ95PF7SK0MYRNAOUHTWA4OLV","","null","<img src=""img/food3.png"" style=""width:200px; border:14px solid green;"">","null","","","","","","","","","",""
"","image-keyboard-response","334","191802","0.0-409.0","3DH6GAKTYZB5D7JMAHSJNJMHWG5ZYS","A2HOUSKURBF8UA","3THR0FZ95PF7SK0MYRNAOUHTWA4OLV","","327","img/food2.png","74","328.30000000074506","1","1","2","2","1,0.7,0,1,0.7,0,0.7,0,1","1,0.7,0,1,0.7,0,0.7,0,1","1","false",""
"","html-keyboard-response","335","192106","0.0-410.0","3DH6GAKTYZB5D7JMAHSJNJMHWG5ZYS","A2HOUSKURBF8UA","3THR0FZ95PF7SK0MYRNAOUHTWA4OLV","","null","<img src=""img/food2.png"" style=""width:200px; border:14px solid green;"">","null","","","","","","","","","",""
"","image-keyboard-response","336","192397","0.0-412.0","3DH6GAKTYZB5D7JMAHSJNJMHWG5ZYS","A2HOUSKURBF8UA","3THR0FZ95PF7SK0MYRNAOUHTWA4OLV","","289.2000000011176","img/food3.png","74","290.7999999988824","1","1","3","2","1,0.7,0,1,0.7,0,0.7,0,1","1,0.7,0,1,0.7,0,0.7,0,1","1","false",""
"","html-keyboard-response","337","192709","0.0-413.0","3DH6GAKTYZB5D7JMAHSJNJMHWG5ZYS","A2HOUSKURBF8UA","3THR0FZ95PF7SK0MYRNAOUHTWA4OLV","","null","<img src=""img/food3.png"" style=""width:200px; border:14px solid green;"">","null","","","","","","","","","",""
"","image-keyboard-response","338","193122","0.0-415.0","3DH6GAKTYZB5D7JMAHSJNJMHWG5ZYS","A2HOUSKURBF8UA","3THR0FZ95PF7SK0MYRNAOUHTWA4OLV","","411.09999999962747","img/food2.png","74","412.80000000074506","1","1","2","2","1,0.7,0,1,0.7,0,0.7,0,1","1,0.7,0,1,0.7,0,0.7,0,1","1","false",""
"","html-keyboard-response","339","193426","0.0-416.0","3DH6GAKTYZB5D7JMAHSJNJMHWG5ZYS","A2HOUSKURBF8UA","3THR0FZ95PF7SK0MYRNAOUHTWA4OLV","","null","<img src=""img/food2.png"" style=""width:200px; border:14px solid green;"">","null","","","","","","","","","",""
"","image-keyboard-response","340","193684","0.0-418.0","3DH6GAKTYZB5D7JMAHSJNJMHWG5ZYS","A2HOUSKURBF8UA","3THR0FZ95PF7SK0MYRNAOUHTWA4OLV","","255.69999999925494","img/food2.png","74","257.19999999925494","1","1","2","2","1,0.7,0,1,0.7,0,0.7,0,1","1,0.7,0,1,0.7,0,0.7,0,1","1","false",""
"","html-keyboard-response","341","193994","0.0-419.0","3DH6GAKTYZB5D7JMAHSJNJMHWG5ZYS","A2HOUSKURBF8UA","3THR0FZ95PF7SK0MYRNAOUHTWA4OLV","","null","<img src=""img/food2.png"" style=""width:200px; border:14px solid green;"">","null","","","","","","","","","",""
"","image-keyboard-response","342","194181","0.0-421.0","3DH6GAKTYZB5D7JMAHSJNJMHWG5ZYS","A2HOUSKURBF8UA","3THR0FZ95PF7SK0MYRNAOUHTWA4OLV","","185","img/food3.png","74","186.90000000037253","1","1","3","2","1,0.7,0,1,0.7,0,0.7,0,1","1,0.7,0,1,0.7,0,0.7,0,1","1","false",""
"","html-keyboard-response","343","194490","0.0-422.0","3DH6GAKTYZB5D7JMAHSJNJMHWG5ZYS","A2HOUSKURBF8UA","3THR0FZ95PF7SK0MYRNAOUHTWA4OLV","","null","<img src=""img/food3.png"" style=""width:200px; border:14px solid green;"">","null","","","","","","","","","",""
"","image-keyboard-response","344","194845","0.0-424.0","3DH6GAKTYZB5D7JMAHSJNJMHWG5ZYS","A2HOUSKURBF8UA","3THR0FZ95PF7SK0MYRNAOUHTWA4OLV","","353.30000000074506","img/food3.png","74","354.90000000037253","1","1","3","2","1,0.7,0,1,0.7,0,0.7,0,1","1,0.7,0,1,0.7,0,0.7,0,1","1","false",""
"","html-keyboard-response","345","195154","0.0-425.0","3DH6GAKTYZB5D7JMAHSJNJMHWG5ZYS","A2HOUSKURBF8UA","3THR0FZ95PF7SK0MYRNAOUHTWA4OLV","","null","<img src=""img/food3.png"" style=""width:200px; border:14px solid green;"">","null","","","","","","","","","",""
"","image-keyboard-response","346","195596","0.0-427.0","3DH6GAKTYZB5D7JMAHSJNJMHWG5ZYS","A2HOUSKURBF8UA","3THR0FZ95PF7SK0MYRNAOUHTWA4OLV","","440.40000000037253","img/food2.png","74","441.80000000074506","1","1","2","2","1,0.7,0,1,0.7,0,0.7,0,1","1,0.7,0,1,0.7,0,0.7,0,1","1","false",""
"","html-keyboard-response","347","195906","0.0-428.0","3DH6GAKTYZB5D7JMAHSJNJMHWG5ZYS","A2HOUSKURBF8UA","3THR0FZ95PF7SK0MYRNAOUHTWA4OLV","","null","<img src=""img/food2.png"" style=""width:200px; border:14px solid green;"">","null","","","","","","","","","",""
"","image-keyboard-response","348","196137","0.0-430.0","3DH6GAKTYZB5D7JMAHSJNJMHWG5ZYS","A2HOUSKURBF8UA","3THR0FZ95PF7SK0MYRNAOUHTWA4OLV","","228.2999999988824","img/food4.png","74","230","1","1","1","2","1,0.7,0,1,0.7,0,0.7,0,1","1,0.7,0,1,0.7,0,0.7,0,1","1","false",""
"","html-keyboard-response","349","196442","0.0-431.0","3DH6GAKTYZB5D7JMAHSJNJMHWG5ZYS","A2HOUSKURBF8UA","3THR0FZ95PF7SK0MYRNAOUHTWA4OLV","","null","<img src=""img/food4.png"" style=""width:200px; border:14px solid green;"">","null","","","","","","","","","",""
"","image-keyboard-response","350","196645","0.0-433.0","3DH6GAKTYZB5D7JMAHSJNJMHWG5ZYS","A2HOUSKURBF8UA","3THR0FZ95PF7SK0MYRNAOUHTWA4OLV","","200.59999999962747","img/food4.png","74","202.2999999988824","1","1","1","2","1,0.7,0,1,0.7,0,0.7,0,1","1,0.7,0,1,0.7,0,0.7,0,1","1","false",""
"","html-keyboard-response","351","196954","0.0-434.0","3DH6GAKTYZB5D7JMAHSJNJMHWG5ZYS","A2HOUSKURBF8UA","3THR0FZ95PF7SK0MYRNAOUHTWA4OLV","","null","<img src=""img/food4.png"" style=""width:200px; border:14px solid green;"">","null","","","","","","","","","",""
"","image-keyboard-response","352","197152","0.0-436.0","3DH6GAKTYZB5D7JMAHSJNJMHWG5ZYS","A2HOUSKURBF8UA","3THR0FZ95PF7SK0MYRNAOUHTWA4OLV","","196.09999999962747","img/food3.png","74","198.2000000011176","1","1","3","2","1,0.7,0,1,0.7,0,0.7,0,1","1,0.7,0,1,0.7,0,0.7,0,1","1","false",""
"","html-keyboard-response","353","197458","0.0-437.0","3DH6GAKTYZB5D7JMAHSJNJMHWG5ZYS","A2HOUSKURBF8UA","3THR0FZ95PF7SK0MYRNAOUHTWA4OLV","","null","<img src=""img/food3.png"" style=""width:200px; border:14px solid green;"">","null","","","","","","","","","",""
"","image-keyboard-response","354","197649","0.0-439.0","3DH6GAKTYZB5D7JMAHSJNJMHWG5ZYS","A2HOUSKURBF8UA","3THR0FZ95PF7SK0MYRNAOUHTWA4OLV","","189","img/food2.png","74","190.30000000074506","1","1","2","2","1,0.7,0,1,0.7,0,0.7,0,1","1,0.7,0,1,0.7,0,0.7,0,1","1","false",""
"","html-keyboard-response","355","197954","0.0-440.0","3DH6GAKTYZB5D7JMAHSJNJMHWG5ZYS","A2HOUSKURBF8UA","3THR0FZ95PF7SK0MYRNAOUHTWA4OLV","","null","<img src=""img/food2.png"" style=""width:200px; border:14px solid green;"">","null","","","","","","","","","",""
"","image-keyboard-response","356","198169","0.0-442.0","3DH6GAKTYZB5D7JMAHSJNJMHWG5ZYS","A2HOUSKURBF8UA","3THR0FZ95PF7SK0MYRNAOUHTWA4OLV","","213.2000000011176","img/food2.png","74","214.59999999962747","1","1","2","2","1,0.7,0,1,0.7,0,0.7,0,1","1,0.7,0,1,0.7,0,0.7,0,1","1","false",""
"","html-keyboard-response","357","198474","0.0-443.0","3DH6GAKTYZB5D7JMAHSJNJMHWG5ZYS","A2HOUSKURBF8UA","3THR0FZ95PF7SK0MYRNAOUHTWA4OLV","","null","<img src=""img/food2.png"" style=""width:200px; border:14px solid green;"">","null","","","","","","","","","",""
"","image-keyboard-response","358","198548","0.0-445.0","3DH6GAKTYZB5D7JMAHSJNJMHWG5ZYS","A2HOUSKURBF8UA","3THR0FZ95PF7SK0MYRNAOUHTWA4OLV","","72.39999999850988","img/food4.png","74","73.90000000037253","1","1","1","2","1,0.7,0,1,0.7,0,0.7,0,1","1,0.7,0,1,0.7,0,0.7,0,1","1","false",""
"","html-keyboard-response","359","198858","0.0-446.0","3DH6GAKTYZB5D7JMAHSJNJMHWG5ZYS","A2HOUSKURBF8UA","3THR0FZ95PF7SK0MYRNAOUHTWA4OLV","","null","<img src=""img/food4.png"" style=""width:200px; border:14px solid green;"">","null","","","","","","","","","",""
"","image-keyboard-response","360","198914","0.0-448.0","3DH6GAKTYZB5D7JMAHSJNJMHWG5ZYS","A2HOUSKURBF8UA","3THR0FZ95PF7SK0MYRNAOUHTWA4OLV","","54.40000000037253","img/food2.png","74","55.90000000037253","1","1","2","2","1,0.7,0,1,0.7,0,0.7,0,1","1,0.7,0,1,0.7,0,0.7,0,1","1","false",""
"","html-keyboard-response","361","199218","0.0-449.0","3DH6GAKTYZB5D7JMAHSJNJMHWG5ZYS","A2HOUSKURBF8UA","3THR0FZ95PF7SK0MYRNAOUHTWA4OLV","","null","<img src=""img/food2.png"" style=""width:200px; border:14px solid green;"">","null","","","","","","","","","",""
"","image-keyboard-response","362","199249","0.0-451.0","3DH6GAKTYZB5D7JMAHSJNJMHWG5ZYS","A2HOUSKURBF8UA","3THR0FZ95PF7SK0MYRNAOUHTWA4OLV","","28","img/food3.png","74","30.100000001490116","1","1","3","2","1,0.7,0,1,0.7,0,0.7,0,1","1,0.7,0,1,0.7,0,0.7,0,1","1","false",""
"","html-keyboard-response","363","199554","0.0-452.0","3DH6GAKTYZB5D7JMAHSJNJMHWG5ZYS","A2HOUSKURBF8UA","3THR0FZ95PF7SK0MYRNAOUHTWA4OLV","","null","<img src=""img/food3.png"" style=""width:200px; border:14px solid green;"">","null","","","","","","","","","",""
"","instructions","364","204381","0.0-454.0","3DH6GAKTYZB5D7JMAHSJNJMHWG5ZYS","A2HOUSKURBF8UA","3THR0FZ95PF7SK0MYRNAOUHTWA4OLV","[{""page_index"":0,""viewing_time"":4825.200000001118}]","4825.60000000149","","","","","","","","","","","",""
"","survey-text","365","210129","0.0-455.0","3DH6GAKTYZB5D7JMAHSJNJMHWG5ZYS","A2HOUSKURBF8UA","3THR0FZ95PF7SK0MYRNAOUHTWA4OLV","","5742.800000000745","","","","","","","","","","","","{""Q0"":""A2HOUSKURBF8UA""}"
