"success","trial_type","trial_index","time_elapsed","internal_node_id","assignmentID","mturkID","hitID","view_history","rt","stimulus","key_press","reactionTime","a","r","s","reward_cond","warning","responses"
"true","fullscreen","0","2324","0.0-0.0","3NC5L260MP8NECOK3IPEI08X5JEFOA","A2J1ANUL0BYKUK","30F94FBDNR6BS3JI3VKF41RBJN4TBU","","","","","","","","","","",""
"","instructions","1","22977","0.0-1.0","3NC5L260MP8NECOK3IPEI08X5JEFOA","A2J1ANUL0BYKUK","30F94FBDNR6BS3JI3VKF41RBJN4TBU","[{""page_index"":0,""viewing_time"":2823.399999856949},{""page_index"":1,""viewing_time"":602.9000000953674},{""page_index"":2,""viewing_time"":1114},{""page_index"":3,""viewing_time"":2037.7999999523163},{""page_index"":4,""viewing_time"":1075.5999999046326},{""page_index"":5,""viewing_time"":2765.300000190735},{""page_index"":6,""viewing_time"":10231.799999952316}]","20651.299999952316","","","","","","","","",""
"","image-keyboard-response","2","24783","0.0-2.0","3NC5L260MP8NECOK3IPEI08X5JEFOA","A2J1ANUL0BYKUK","30F94FBDNR6BS3JI3VKF41RBJN4TBU","","1805.3999998569489","img/food6.png","74","1806","1","1","3","1,0.5,0,1,0.5,0,0.5,0,1","",""
"","html-keyboard-response","3","25098","0.0-3.0","3NC5L260MP8NECOK3IPEI08X5JEFOA","A2J1ANUL0BYKUK","30F94FBDNR6BS3JI3VKF41RBJN4TBU","","null","<img src=""img/food6.png"" style=""width:200px; border:14px solid green;"">","null","","","","","","",""
"","image-keyboard-response","4","25701","0.0-4.0","3NC5L260MP8NECOK3IPEI08X5JEFOA","A2J1ANUL0BYKUK","30F94FBDNR6BS3JI3VKF41RBJN4TBU","","601.8999998569489","img/food4.png","75","602.5","2","1","1","1,0.5,0,1,0.5,0,0.5,0,1","",""
"","html-keyboard-response","5","26004","0.0-5.0","3NC5L260MP8NECOK3IPEI08X5JEFOA","A2J1ANUL0BYKUK","30F94FBDNR6BS3JI3VKF41RBJN4TBU","","null","<img src=""img/food4.png"" style=""width:200px; border:14px solid green;"">","null","","","","","","",""
"","image-keyboard-response","6","26743","0.0-6.0","3NC5L260MP8NECOK3IPEI08X5JEFOA","A2J1ANUL0BYKUK","30F94FBDNR6BS3JI3VKF41RBJN4TBU","","737.7000000476837","img/food2.png","76","738.2999999523163","3","0","2","1,0.5,0,1,0.5,0,0.5,0,1","",""
"","html-keyboard-response","7","27052","0.0-7.0","3NC5L260MP8NECOK3IPEI08X5JEFOA","A2J1ANUL0BYKUK","30F94FBDNR6BS3JI3VKF41RBJN4TBU","","null","<img src=""img/food2.png"" style=""width:200px;border:14px solid red;"">","null","","","","","","",""
"","image-keyboard-response","8","27823","0.0-8.0","3NC5L260MP8NECOK3IPEI08X5JEFOA","A2J1ANUL0BYKUK","30F94FBDNR6BS3JI3VKF41RBJN4TBU","","769.7999999523163","img/food2.png","75","770.3999998569489","2","1","2","1,0.5,0,1,0.5,0,0.5,0,1","",""
"","html-keyboard-response","9","28137","0.0-9.0","3NC5L260MP8NECOK3IPEI08X5JEFOA","A2J1ANUL0BYKUK","30F94FBDNR6BS3JI3VKF41RBJN4TBU","","null","<img src=""img/food2.png"" style=""width:200px; border:14px solid green;"">","null","","","","","","",""
"","image-keyboard-response","10","28921","0.0-10.0","3NC5L260MP8NECOK3IPEI08X5JEFOA","A2J1ANUL0BYKUK","30F94FBDNR6BS3JI3VKF41RBJN4TBU","","783","img/food6.png","74","783.5","1","0","3","1,0.5,0,1,0.5,0,0.5,0,1","",""
"","html-keyboard-response","11","29233","0.0-11.0","3NC5L260MP8NECOK3IPEI08X5JEFOA","A2J1ANUL0BYKUK","30F94FBDNR6BS3JI3VKF41RBJN4TBU","","null","<img src=""img/food6.png"" style=""width:200px;border:14px solid red;"">","null","","","","","","",""
"","image-keyboard-response","12","29886","0.0-12.0","3NC5L260MP8NECOK3IPEI08X5JEFOA","A2J1ANUL0BYKUK","30F94FBDNR6BS3JI3VKF41RBJN4TBU","","652.1000001430511","img/food4.png","75","652.6999998092651","2","0","1","1,0.5,0,1,0.5,0,0.5,0,1","",""
"","html-keyboard-response","13","30188","0.0-13.0","3NC5L260MP8NECOK3IPEI08X5JEFOA","A2J1ANUL0BYKUK","30F94FBDNR6BS3JI3VKF41RBJN4TBU","","null","<img src=""img/food4.png"" style=""width:200px;border:14px solid red;"">","null","","","","","","",""
"","image-keyboard-response","14","30856","0.0-14.0","3NC5L260MP8NECOK3IPEI08X5JEFOA","A2J1ANUL0BYKUK","30F94FBDNR6BS3JI3VKF41RBJN4TBU","","667.3999998569489","img/food4.png","76","667.9000000953674","3","0","1","1,0.5,0,1,0.5,0,0.5,0,1","",""
"","html-keyboard-response","15","31158","0.0-15.0","3NC5L260MP8NECOK3IPEI08X5JEFOA","A2J1ANUL0BYKUK","30F94FBDNR6BS3JI3VKF41RBJN4TBU","","null","<img src=""img/food4.png"" style=""width:200px;border:14px solid red;"">","null","","","","","","",""
"","image-keyboard-response","16","31525","0.0-16.0","3NC5L260MP8NECOK3IPEI08X5JEFOA","A2J1ANUL0BYKUK","30F94FBDNR6BS3JI3VKF41RBJN4TBU","","366.19999980926514","img/food4.png","74","366.7000000476837","1","1","1","1,0.5,0,1,0.5,0,0.5,0,1","",""
"","html-keyboard-response","17","31827","0.0-17.0","3NC5L260MP8NECOK3IPEI08X5JEFOA","A2J1ANUL0BYKUK","30F94FBDNR6BS3JI3VKF41RBJN4TBU","","null","<img src=""img/food4.png"" style=""width:200px; border:14px solid green;"">","null","","","","","","",""
"","image-keyboard-response","18","32769","0.0-18.0","3NC5L260MP8NECOK3IPEI08X5JEFOA","A2J1ANUL0BYKUK","30F94FBDNR6BS3JI3VKF41RBJN4TBU","","940.6999998092651","img/food6.png","74","941.3999998569489","1","1","3","1,0.5,0,1,0.5,0,0.5,0,1","",""
"","html-keyboard-response","19","33079","0.0-19.0","3NC5L260MP8NECOK3IPEI08X5JEFOA","A2J1ANUL0BYKUK","30F94FBDNR6BS3JI3VKF41RBJN4TBU","","null","<img src=""img/food6.png"" style=""width:200px; border:14px solid green;"">","null","","","","","","",""
"","image-keyboard-response","20","33578","0.0-20.0","3NC5L260MP8NECOK3IPEI08X5JEFOA","A2J1ANUL0BYKUK","30F94FBDNR6BS3JI3VKF41RBJN4TBU","","499.09999990463257","img/food6.png","74","499.7000000476837","1","0","3","1,0.5,0,1,0.5,0,0.5,0,1","",""
"","html-keyboard-response","21","33892","0.0-21.0","3NC5L260MP8NECOK3IPEI08X5JEFOA","A2J1ANUL0BYKUK","30F94FBDNR6BS3JI3VKF41RBJN4TBU","","null","<img src=""img/food6.png"" style=""width:200px;border:14px solid red;"">","null","","","","","","",""
"","image-keyboard-response","22","34551","0.0-22.0","3NC5L260MP8NECOK3IPEI08X5JEFOA","A2J1ANUL0BYKUK","30F94FBDNR6BS3JI3VKF41RBJN4TBU","","658.7000000476837","img/food4.png","74","659.2000000476837","1","1","1","1,0.5,0,1,0.5,0,0.5,0,1","",""
"","html-keyboard-response","23","34853","0.0-23.0","3NC5L260MP8NECOK3IPEI08X5JEFOA","A2J1ANUL0BYKUK","30F94FBDNR6BS3JI3VKF41RBJN4TBU","","null","<img src=""img/food4.png"" style=""width:200px; border:14px solid green;"">","null","","","","","","",""
"","image-keyboard-response","24","35687","0.0-24.0","3NC5L260MP8NECOK3IPEI08X5JEFOA","A2J1ANUL0BYKUK","30F94FBDNR6BS3JI3VKF41RBJN4TBU","","834.2999999523163","img/food2.png","75","834.7999999523163","2","1","2","1,0.5,0,1,0.5,0,0.5,0,1","",""
"","html-keyboard-response","25","35989","0.0-25.0","3NC5L260MP8NECOK3IPEI08X5JEFOA","A2J1ANUL0BYKUK","30F94FBDNR6BS3JI3VKF41RBJN4TBU","","null","<img src=""img/food2.png"" style=""width:200px; border:14px solid green;"">","null","","","","","","",""
"","image-keyboard-response","26","36339","0.0-26.0","3NC5L260MP8NECOK3IPEI08X5JEFOA","A2J1ANUL0BYKUK","30F94FBDNR6BS3JI3VKF41RBJN4TBU","","349.39999985694885","img/food2.png","75","349.7999999523163","2","1","2","1,0.5,0,1,0.5,0,0.5,0,1","",""
"","html-keyboard-response","27","36640","0.0-27.0","3NC5L260MP8NECOK3IPEI08X5JEFOA","A2J1ANUL0BYKUK","30F94FBDNR6BS3JI3VKF41RBJN4TBU","","null","<img src=""img/food2.png"" style=""width:200px; border:14px solid green;"">","null","","","","","","",""
"","image-keyboard-response","28","36891","0.0-28.0","3NC5L260MP8NECOK3IPEI08X5JEFOA","A2J1ANUL0BYKUK","30F94FBDNR6BS3JI3VKF41RBJN4TBU","","250.79999995231628","img/food2.png","75","251.5","2","1","2","1,0.5,0,1,0.5,0,0.5,0,1","",""
"","html-keyboard-response","29","37193","0.0-29.0","3NC5L260MP8NECOK3IPEI08X5JEFOA","A2J1ANUL0BYKUK","30F94FBDNR6BS3JI3VKF41RBJN4TBU","","null","<img src=""img/food2.png"" style=""width:200px; border:14px solid green;"">","null","","","","","","",""
"","image-keyboard-response","30","37652","0.0-30.0","3NC5L260MP8NECOK3IPEI08X5JEFOA","A2J1ANUL0BYKUK","30F94FBDNR6BS3JI3VKF41RBJN4TBU","","458.40000009536743","img/food6.png","74","458.7999999523163","1","0","3","1,0.5,0,1,0.5,0,0.5,0,1","",""
"","html-keyboard-response","31","37954","0.0-31.0","3NC5L260MP8NECOK3IPEI08X5JEFOA","A2J1ANUL0BYKUK","30F94FBDNR6BS3JI3VKF41RBJN4TBU","","null","<img src=""img/food6.png"" style=""width:200px;border:14px solid red;"">","null","","","","","","",""
"","image-keyboard-response","32","39212","0.0-32.0","3NC5L260MP8NECOK3IPEI08X5JEFOA","A2J1ANUL0BYKUK","30F94FBDNR6BS3JI3VKF41RBJN4TBU","","1257.2000000476837","img/food2.png","75","1257.6000001430511","2","1","2","1,0.5,0,1,0.5,0,0.5,0,1","",""
"","html-keyboard-response","33","39513","0.0-33.0","3NC5L260MP8NECOK3IPEI08X5JEFOA","A2J1ANUL0BYKUK","30F94FBDNR6BS3JI3VKF41RBJN4TBU","","null","<img src=""img/food2.png"" style=""width:200px; border:14px solid green;"">","null","","","","","","",""
"","image-keyboard-response","34","40137","0.0-34.0","3NC5L260MP8NECOK3IPEI08X5JEFOA","A2J1ANUL0BYKUK","30F94FBDNR6BS3JI3VKF41RBJN4TBU","","624","img/food6.png","76","624.3999998569489","3","1","3","1,0.5,0,1,0.5,0,0.5,0,1","",""
"","html-keyboard-response","35","40439","0.0-35.0","3NC5L260MP8NECOK3IPEI08X5JEFOA","A2J1ANUL0BYKUK","30F94FBDNR6BS3JI3VKF41RBJN4TBU","","null","<img src=""img/food6.png"" style=""width:200px; border:14px solid green;"">","null","","","","","","",""
"","image-keyboard-response","36","41027","0.0-36.0","3NC5L260MP8NECOK3IPEI08X5JEFOA","A2J1ANUL0BYKUK","30F94FBDNR6BS3JI3VKF41RBJN4TBU","","587.5","img/food4.png","75","587.9000000953674","2","1","1","1,0.5,0,1,0.5,0,0.5,0,1","",""
"","html-keyboard-response","37","41330","0.0-37.0","3NC5L260MP8NECOK3IPEI08X5JEFOA","A2J1ANUL0BYKUK","30F94FBDNR6BS3JI3VKF41RBJN4TBU","","null","<img src=""img/food4.png"" style=""width:200px; border:14px solid green;"">","null","","","","","","",""
"","image-keyboard-response","38","41710","0.0-38.0","3NC5L260MP8NECOK3IPEI08X5JEFOA","A2J1ANUL0BYKUK","30F94FBDNR6BS3JI3VKF41RBJN4TBU","","379.7000000476837","img/food6.png","76","380.2000000476837","3","1","3","1,0.5,0,1,0.5,0,0.5,0,1","",""
"","html-keyboard-response","39","42012","0.0-39.0","3NC5L260MP8NECOK3IPEI08X5JEFOA","A2J1ANUL0BYKUK","30F94FBDNR6BS3JI3VKF41RBJN4TBU","","null","<img src=""img/food6.png"" style=""width:200px; border:14px solid green;"">","null","","","","","","",""
"","image-keyboard-response","40","42442","0.0-40.0","3NC5L260MP8NECOK3IPEI08X5JEFOA","A2J1ANUL0BYKUK","30F94FBDNR6BS3JI3VKF41RBJN4TBU","","429.2000000476837","img/food6.png","76","429.7999999523163","3","1","3","1,0.5,0,1,0.5,0,0.5,0,1","",""
"","html-keyboard-response","41","42743","0.0-41.0","3NC5L260MP8NECOK3IPEI08X5JEFOA","A2J1ANUL0BYKUK","30F94FBDNR6BS3JI3VKF41RBJN4TBU","","null","<img src=""img/food6.png"" style=""width:200px; border:14px solid green;"">","null","","","","","","",""
"","image-keyboard-response","42","43250","0.0-42.0","3NC5L260MP8NECOK3IPEI08X5JEFOA","A2J1ANUL0BYKUK","30F94FBDNR6BS3JI3VKF41RBJN4TBU","","506.2999999523163","img/food2.png","75","506.7999999523163","2","1","2","1,0.5,0,1,0.5,0,0.5,0,1","",""
"","html-keyboard-response","43","43552","0.0-43.0","3NC5L260MP8NECOK3IPEI08X5JEFOA","A2J1ANUL0BYKUK","30F94FBDNR6BS3JI3VKF41RBJN4TBU","","null","<img src=""img/food2.png"" style=""width:200px; border:14px solid green;"">","null","","","","","","",""
"","image-keyboard-response","44","44057","0.0-44.0","3NC5L260MP8NECOK3IPEI08X5JEFOA","A2J1ANUL0BYKUK","30F94FBDNR6BS3JI3VKF41RBJN4TBU","","504.7000000476837","img/food6.png","76","505.09999990463257","3","1","3","1,0.5,0,1,0.5,0,0.5,0,1","",""
"","html-keyboard-response","45","44359","0.0-45.0","3NC5L260MP8NECOK3IPEI08X5JEFOA","A2J1ANUL0BYKUK","30F94FBDNR6BS3JI3VKF41RBJN4TBU","","null","<img src=""img/food6.png"" style=""width:200px; border:14px solid green;"">","null","","","","","","",""
"","image-keyboard-response","46","44721","0.0-46.0","3NC5L260MP8NECOK3IPEI08X5JEFOA","A2J1ANUL0BYKUK","30F94FBDNR6BS3JI3VKF41RBJN4TBU","","361.40000009536743","img/food4.png","75","361.90000009536743","2","0","1","1,0.5,0,1,0.5,0,0.5,0,1","",""
"","html-keyboard-response","47","45023","0.0-47.0","3NC5L260MP8NECOK3IPEI08X5JEFOA","A2J1ANUL0BYKUK","30F94FBDNR6BS3JI3VKF41RBJN4TBU","","null","<img src=""img/food4.png"" style=""width:200px;border:14px solid red;"">","null","","","","","","",""
"","image-keyboard-response","48","45721","0.0-48.0","3NC5L260MP8NECOK3IPEI08X5JEFOA","A2J1ANUL0BYKUK","30F94FBDNR6BS3JI3VKF41RBJN4TBU","","697.6999998092651","img/food2.png","74","698.2999999523163","1","1","2","1,0.5,0,1,0.5,0,0.5,0,1","",""
"","html-keyboard-response","49","46022","0.0-49.0","3NC5L260MP8NECOK3IPEI08X5JEFOA","A2J1ANUL0BYKUK","30F94FBDNR6BS3JI3VKF41RBJN4TBU","","null","<img src=""img/food2.png"" style=""width:200px; border:14px solid green;"">","null","","","","","","",""
"","image-keyboard-response","50","46640","0.0-50.0","3NC5L260MP8NECOK3IPEI08X5JEFOA","A2J1ANUL0BYKUK","30F94FBDNR6BS3JI3VKF41RBJN4TBU","","616.6000001430511","img/food6.png","75","617.1000001430511","2","0","3","1,0.5,0,1,0.5,0,0.5,0,1","",""
"","html-keyboard-response","51","46941","0.0-51.0","3NC5L260MP8NECOK3IPEI08X5JEFOA","A2J1ANUL0BYKUK","30F94FBDNR6BS3JI3VKF41RBJN4TBU","","null","<img src=""img/food6.png"" style=""width:200px;border:14px solid red;"">","null","","","","","","",""
"","image-keyboard-response","52","47397","0.0-52.0","3NC5L260MP8NECOK3IPEI08X5JEFOA","A2J1ANUL0BYKUK","30F94FBDNR6BS3JI3VKF41RBJN4TBU","","454.90000009536743","img/food6.png","74","455.5","1","0","3","1,0.5,0,1,0.5,0,0.5,0,1","",""
"","html-keyboard-response","53","47698","0.0-53.0","3NC5L260MP8NECOK3IPEI08X5JEFOA","A2J1ANUL0BYKUK","30F94FBDNR6BS3JI3VKF41RBJN4TBU","","null","<img src=""img/food6.png"" style=""width:200px;border:14px solid red;"">","null","","","","","","",""
"","image-keyboard-response","54","48096","0.0-54.0","3NC5L260MP8NECOK3IPEI08X5JEFOA","A2J1ANUL0BYKUK","30F94FBDNR6BS3JI3VKF41RBJN4TBU","","396.5","img/food6.png","76","397.19999980926514","3","1","3","1,0.5,0,1,0.5,0,0.5,0,1","",""
"","html-keyboard-response","55","48397","0.0-55.0","3NC5L260MP8NECOK3IPEI08X5JEFOA","A2J1ANUL0BYKUK","30F94FBDNR6BS3JI3VKF41RBJN4TBU","","null","<img src=""img/food6.png"" style=""width:200px; border:14px solid green;"">","null","","","","","","",""
"","image-keyboard-response","56","49036","0.0-56.0","3NC5L260MP8NECOK3IPEI08X5JEFOA","A2J1ANUL0BYKUK","30F94FBDNR6BS3JI3VKF41RBJN4TBU","","637.7999999523163","img/food4.png","75","638.2999999523163","2","0","1","1,0.5,0,1,0.5,0,0.5,0,1","",""
"","html-keyboard-response","57","49337","0.0-57.0","3NC5L260MP8NECOK3IPEI08X5JEFOA","A2J1ANUL0BYKUK","30F94FBDNR6BS3JI3VKF41RBJN4TBU","","null","<img src=""img/food4.png"" style=""width:200px;border:14px solid red;"">","null","","","","","","",""
"","image-keyboard-response","58","49745","0.0-58.0","3NC5L260MP8NECOK3IPEI08X5JEFOA","A2J1ANUL0BYKUK","30F94FBDNR6BS3JI3VKF41RBJN4TBU","","408","img/food4.png","76","408.40000009536743","3","0","1","1,0.5,0,1,0.5,0,0.5,0,1","",""
"","html-keyboard-response","59","50048","0.0-59.0","3NC5L260MP8NECOK3IPEI08X5JEFOA","A2J1ANUL0BYKUK","30F94FBDNR6BS3JI3VKF41RBJN4TBU","","null","<img src=""img/food4.png"" style=""width:200px;border:14px solid red;"">","null","","","","","","",""
"","image-keyboard-response","60","50100","0.0-60.0","3NC5L260MP8NECOK3IPEI08X5JEFOA","A2J1ANUL0BYKUK","30F94FBDNR6BS3JI3VKF41RBJN4TBU","","51.40000009536743","img/food4.png","74","51.90000009536743","1","1","1","1,0.5,0,1,0.5,0,0.5,0,1","",""
"","html-keyboard-response","61","50400","0.0-61.0","3NC5L260MP8NECOK3IPEI08X5JEFOA","A2J1ANUL0BYKUK","30F94FBDNR6BS3JI3VKF41RBJN4TBU","","null","<img src=""img/food4.png"" style=""width:200px; border:14px solid green;"">","null","","","","","","",""
"","image-keyboard-response","62","50978","0.0-62.0","3NC5L260MP8NECOK3IPEI08X5JEFOA","A2J1ANUL0BYKUK","30F94FBDNR6BS3JI3VKF41RBJN4TBU","","577","img/food2.png","74","577.3999998569489","1","1","2","1,0.5,0,1,0.5,0,0.5,0,1","",""
"","html-keyboard-response","63","51280","0.0-63.0","3NC5L260MP8NECOK3IPEI08X5JEFOA","A2J1ANUL0BYKUK","30F94FBDNR6BS3JI3VKF41RBJN4TBU","","null","<img src=""img/food2.png"" style=""width:200px; border:14px solid green;"">","null","","","","","","",""
"","image-keyboard-response","64","52086","0.0-64.0","3NC5L260MP8NECOK3IPEI08X5JEFOA","A2J1ANUL0BYKUK","30F94FBDNR6BS3JI3VKF41RBJN4TBU","","804.5999999046326","img/food4.png","74","805.4000000953674","1","1","1","1,0.5,0,1,0.5,0,0.5,0,1","",""
"","html-keyboard-response","65","52391","0.0-65.0","3NC5L260MP8NECOK3IPEI08X5JEFOA","A2J1ANUL0BYKUK","30F94FBDNR6BS3JI3VKF41RBJN4TBU","","null","<img src=""img/food4.png"" style=""width:200px; border:14px solid green;"">","null","","","","","","",""
"","image-keyboard-response","66","52787","0.0-66.0","3NC5L260MP8NECOK3IPEI08X5JEFOA","A2J1ANUL0BYKUK","30F94FBDNR6BS3JI3VKF41RBJN4TBU","","395.39999985694885","img/food4.png","74","396","1","1","1","1,0.5,0,1,0.5,0,0.5,0,1","",""
"","html-keyboard-response","67","53088","0.0-67.0","3NC5L260MP8NECOK3IPEI08X5JEFOA","A2J1ANUL0BYKUK","30F94FBDNR6BS3JI3VKF41RBJN4TBU","","null","<img src=""img/food4.png"" style=""width:200px; border:14px solid green;"">","null","","","","","","",""
"","image-keyboard-response","68","53378","0.0-68.0","3NC5L260MP8NECOK3IPEI08X5JEFOA","A2J1ANUL0BYKUK","30F94FBDNR6BS3JI3VKF41RBJN4TBU","","289","img/food4.png","74","289.2999999523163","1","1","1","1,0.5,0,1,0.5,0,0.5,0,1","",""
"","html-keyboard-response","69","53678","0.0-69.0","3NC5L260MP8NECOK3IPEI08X5JEFOA","A2J1ANUL0BYKUK","30F94FBDNR6BS3JI3VKF41RBJN4TBU","","null","<img src=""img/food4.png"" style=""width:200px; border:14px solid green;"">","null","","","","","","",""
"","image-keyboard-response","70","53905","0.0-70.0","3NC5L260MP8NECOK3IPEI08X5JEFOA","A2J1ANUL0BYKUK","30F94FBDNR6BS3JI3VKF41RBJN4TBU","","225.60000014305115","img/food2.png","74","226","1","1","2","1,0.5,0,1,0.5,0,0.5,0,1","",""
"","html-keyboard-response","71","54205","0.0-71.0","3NC5L260MP8NECOK3IPEI08X5JEFOA","A2J1ANUL0BYKUK","30F94FBDNR6BS3JI3VKF41RBJN4TBU","","null","<img src=""img/food2.png"" style=""width:200px; border:14px solid green;"">","null","","","","","","",""
"","image-keyboard-response","72","54445","0.0-72.0","3NC5L260MP8NECOK3IPEI08X5JEFOA","A2J1ANUL0BYKUK","30F94FBDNR6BS3JI3VKF41RBJN4TBU","","239.5","img/food4.png","74","239.90000009536743","1","1","1","1,0.5,0,1,0.5,0,0.5,0,1","",""
"","html-keyboard-response","73","54747","0.0-73.0","3NC5L260MP8NECOK3IPEI08X5JEFOA","A2J1ANUL0BYKUK","30F94FBDNR6BS3JI3VKF41RBJN4TBU","","null","<img src=""img/food4.png"" style=""width:200px; border:14px solid green;"">","null","","","","","","",""
"","image-keyboard-response","74","54945","0.0-74.0","3NC5L260MP8NECOK3IPEI08X5JEFOA","A2J1ANUL0BYKUK","30F94FBDNR6BS3JI3VKF41RBJN4TBU","","196.60000014305115","img/food6.png","74","197","1","1","3","1,0.5,0,1,0.5,0,0.5,0,1","",""
"","html-keyboard-response","75","55247","0.0-75.0","3NC5L260MP8NECOK3IPEI08X5JEFOA","A2J1ANUL0BYKUK","30F94FBDNR6BS3JI3VKF41RBJN4TBU","","null","<img src=""img/food6.png"" style=""width:200px; border:14px solid green;"">","null","","","","","","",""
"","image-keyboard-response","76","55473","0.0-76.0","3NC5L260MP8NECOK3IPEI08X5JEFOA","A2J1ANUL0BYKUK","30F94FBDNR6BS3JI3VKF41RBJN4TBU","","226.09999990463257","img/food6.png","74","226.5","1","1","3","1,0.5,0,1,0.5,0,0.5,0,1","",""
"","html-keyboard-response","77","55776","0.0-77.0","3NC5L260MP8NECOK3IPEI08X5JEFOA","A2J1ANUL0BYKUK","30F94FBDNR6BS3JI3VKF41RBJN4TBU","","null","<img src=""img/food6.png"" style=""width:200px; border:14px solid green;"">","null","","","","","","",""
"","image-keyboard-response","78","55956","0.0-78.0","3NC5L260MP8NECOK3IPEI08X5JEFOA","A2J1ANUL0BYKUK","30F94FBDNR6BS3JI3VKF41RBJN4TBU","","180.29999995231628","img/food2.png","74","180.70000004768372","1","1","2","1,0.5,0,1,0.5,0,0.5,0,1","",""
"","html-keyboard-response","79","56258","0.0-79.0","3NC5L260MP8NECOK3IPEI08X5JEFOA","A2J1ANUL0BYKUK","30F94FBDNR6BS3JI3VKF41RBJN4TBU","","null","<img src=""img/food2.png"" style=""width:200px; border:14px solid green;"">","null","","","","","","",""
"","image-keyboard-response","80","56461","0.0-80.0","3NC5L260MP8NECOK3IPEI08X5JEFOA","A2J1ANUL0BYKUK","30F94FBDNR6BS3JI3VKF41RBJN4TBU","","201.70000004768372","img/food2.png","74","202.29999995231628","1","1","2","1,0.5,0,1,0.5,0,0.5,0,1","",""
"","html-keyboard-response","81","56763","0.0-81.0","3NC5L260MP8NECOK3IPEI08X5JEFOA","A2J1ANUL0BYKUK","30F94FBDNR6BS3JI3VKF41RBJN4TBU","","null","<img src=""img/food2.png"" style=""width:200px; border:14px solid green;"">","null","","","","","","",""
"","image-keyboard-response","82","56979","0.0-82.0","3NC5L260MP8NECOK3IPEI08X5JEFOA","A2J1ANUL0BYKUK","30F94FBDNR6BS3JI3VKF41RBJN4TBU","","215","img/food4.png","74","215.5","1","1","1","1,0.5,0,1,0.5,0,0.5,0,1","",""
"","html-keyboard-response","83","57279","0.0-83.0","3NC5L260MP8NECOK3IPEI08X5JEFOA","A2J1ANUL0BYKUK","30F94FBDNR6BS3JI3VKF41RBJN4TBU","","null","<img src=""img/food4.png"" style=""width:200px; border:14px solid green;"">","null","","","","","","",""
"","image-keyboard-response","84","57456","0.0-84.0","3NC5L260MP8NECOK3IPEI08X5JEFOA","A2J1ANUL0BYKUK","30F94FBDNR6BS3JI3VKF41RBJN4TBU","","176","img/food2.png","74","176.70000004768372","1","1","2","1,0.5,0,1,0.5,0,0.5,0,1","",""
"","html-keyboard-response","85","57758","0.0-85.0","3NC5L260MP8NECOK3IPEI08X5JEFOA","A2J1ANUL0BYKUK","30F94FBDNR6BS3JI3VKF41RBJN4TBU","","null","<img src=""img/food2.png"" style=""width:200px; border:14px solid green;"">","null","","","","","","",""
"","image-keyboard-response","86","57945","0.0-86.0","3NC5L260MP8NECOK3IPEI08X5JEFOA","A2J1ANUL0BYKUK","30F94FBDNR6BS3JI3VKF41RBJN4TBU","","185.70000004768372","img/food4.png","74","186","1","1","1","1,0.5,0,1,0.5,0,0.5,0,1","",""
"","html-keyboard-response","87","58247","0.0-87.0","3NC5L260MP8NECOK3IPEI08X5JEFOA","A2J1ANUL0BYKUK","30F94FBDNR6BS3JI3VKF41RBJN4TBU","","null","<img src=""img/food4.png"" style=""width:200px; border:14px solid green;"">","null","","","","","","",""
"","image-keyboard-response","88","58445","0.0-88.0","3NC5L260MP8NECOK3IPEI08X5JEFOA","A2J1ANUL0BYKUK","30F94FBDNR6BS3JI3VKF41RBJN4TBU","","196.79999995231628","img/food4.png","74","197.30000019073486","1","1","1","1,0.5,0,1,0.5,0,0.5,0,1","",""
"","html-keyboard-response","89","58747","0.0-89.0","3NC5L260MP8NECOK3IPEI08X5JEFOA","A2J1ANUL0BYKUK","30F94FBDNR6BS3JI3VKF41RBJN4TBU","","null","<img src=""img/food4.png"" style=""width:200px; border:14px solid green;"">","null","","","","","","",""
"","image-keyboard-response","90","58941","0.0-90.0","3NC5L260MP8NECOK3IPEI08X5JEFOA","A2J1ANUL0BYKUK","30F94FBDNR6BS3JI3VKF41RBJN4TBU","","193.39999985694885","img/food2.png","74","194.09999990463257","1","1","2","1,0.5,0,1,0.5,0,0.5,0,1","",""
"","html-keyboard-response","91","59243","0.0-91.0","3NC5L260MP8NECOK3IPEI08X5JEFOA","A2J1ANUL0BYKUK","30F94FBDNR6BS3JI3VKF41RBJN4TBU","","null","<img src=""img/food2.png"" style=""width:200px; border:14px solid green;"">","null","","","","","","",""
"","image-keyboard-response","92","59426","0.0-92.0","3NC5L260MP8NECOK3IPEI08X5JEFOA","A2J1ANUL0BYKUK","30F94FBDNR6BS3JI3VKF41RBJN4TBU","","182.29999995231628","img/food6.png","74","182.70000004768372","1","0","3","1,0.5,0,1,0.5,0,0.5,0,1","",""
"","html-keyboard-response","93","59728","0.0-93.0","3NC5L260MP8NECOK3IPEI08X5JEFOA","A2J1ANUL0BYKUK","30F94FBDNR6BS3JI3VKF41RBJN4TBU","","null","<img src=""img/food6.png"" style=""width:200px;border:14px solid red;"">","null","","","","","","",""
"","image-keyboard-response","94","60268","0.0-94.0","3NC5L260MP8NECOK3IPEI08X5JEFOA","A2J1ANUL0BYKUK","30F94FBDNR6BS3JI3VKF41RBJN4TBU","","539.7000000476837","img/food6.png","75","540.2000000476837","2","0","3","1,0.5,0,1,0.5,0,0.5,0,1","",""
"","html-keyboard-response","95","60569","0.0-95.0","3NC5L260MP8NECOK3IPEI08X5JEFOA","A2J1ANUL0BYKUK","30F94FBDNR6BS3JI3VKF41RBJN4TBU","","null","<img src=""img/food6.png"" style=""width:200px;border:14px solid red;"">","null","","","","","","",""
"","image-keyboard-response","96","60778","0.0-96.0","3NC5L260MP8NECOK3IPEI08X5JEFOA","A2J1ANUL0BYKUK","30F94FBDNR6BS3JI3VKF41RBJN4TBU","","208.09999990463257","img/food2.png","76","208.60000014305115","3","0","2","1,0.5,0,1,0.5,0,0.5,0,1","",""
"","html-keyboard-response","97","61091","0.0-97.0","3NC5L260MP8NECOK3IPEI08X5JEFOA","A2J1ANUL0BYKUK","30F94FBDNR6BS3JI3VKF41RBJN4TBU","","null","<img src=""img/food2.png"" style=""width:200px;border:14px solid red;"">","null","","","","","","",""
"","image-keyboard-response","98","61212","0.0-98.0","3NC5L260MP8NECOK3IPEI08X5JEFOA","A2J1ANUL0BYKUK","30F94FBDNR6BS3JI3VKF41RBJN4TBU","","120.40000009536743","img/food6.png","74","120.90000009536743","1","1","3","1,0.5,0,1,0.5,0,0.5,0,1","",""
"","html-keyboard-response","99","61514","0.0-99.0","3NC5L260MP8NECOK3IPEI08X5JEFOA","A2J1ANUL0BYKUK","30F94FBDNR6BS3JI3VKF41RBJN4TBU","","null","<img src=""img/food6.png"" style=""width:200px; border:14px solid green;"">","null","","","","","","",""
"","image-keyboard-response","100","61704","0.0-100.0","3NC5L260MP8NECOK3IPEI08X5JEFOA","A2J1ANUL0BYKUK","30F94FBDNR6BS3JI3VKF41RBJN4TBU","","189.90000009536743","img/food6.png","74","190.40000009536743","1","0","3","1,0.5,0,1,0.5,0,0.5,0,1","",""
"","html-keyboard-response","101","62006","0.0-101.0","3NC5L260MP8NECOK3IPEI08X5JEFOA","A2J1ANUL0BYKUK","30F94FBDNR6BS3JI3VKF41RBJN4TBU","","null","<img src=""img/food6.png"" style=""width:200px;border:14px solid red;"">","null","","","","","","",""
"","image-keyboard-response","102","62157","0.0-102.0","3NC5L260MP8NECOK3IPEI08X5JEFOA","A2J1ANUL0BYKUK","30F94FBDNR6BS3JI3VKF41RBJN4TBU","","151.40000009536743","img/food2.png","75","151.79999995231628","2","0","2","1,0.5,0,1,0.5,0,0.5,0,1","",""
"","html-keyboard-response","103","62460","0.0-103.0","3NC5L260MP8NECOK3IPEI08X5JEFOA","A2J1ANUL0BYKUK","30F94FBDNR6BS3JI3VKF41RBJN4TBU","","null","<img src=""img/food2.png"" style=""width:200px;border:14px solid red;"">","null","","","","","","",""
"","image-keyboard-response","104","62578","0.0-104.0","3NC5L260MP8NECOK3IPEI08X5JEFOA","A2J1ANUL0BYKUK","30F94FBDNR6BS3JI3VKF41RBJN4TBU","","117.59999990463257","img/food2.png","76","118.10000014305115","3","0","2","1,0.5,0,1,0.5,0,0.5,0,1","",""
"","html-keyboard-response","105","62887","0.0-105.0","3NC5L260MP8NECOK3IPEI08X5JEFOA","A2J1ANUL0BYKUK","30F94FBDNR6BS3JI3VKF41RBJN4TBU","","null","<img src=""img/food2.png"" style=""width:200px;border:14px solid red;"">","null","","","","","","",""
"","image-keyboard-response","106","62936","0.0-106.0","3NC5L260MP8NECOK3IPEI08X5JEFOA","A2J1ANUL0BYKUK","30F94FBDNR6BS3JI3VKF41RBJN4TBU","","48.200000047683716","img/food6.png","74","48.60000014305115","1","1","3","1,0.5,0,1,0.5,0,0.5,0,1","",""
"","html-keyboard-response","107","63247","0.0-107.0","3NC5L260MP8NECOK3IPEI08X5JEFOA","A2J1ANUL0BYKUK","30F94FBDNR6BS3JI3VKF41RBJN4TBU","","null","<img src=""img/food6.png"" style=""width:200px; border:14px solid green;"">","null","","","","","","",""
"","image-keyboard-response","108","63453","0.0-108.0","3NC5L260MP8NECOK3IPEI08X5JEFOA","A2J1ANUL0BYKUK","30F94FBDNR6BS3JI3VKF41RBJN4TBU","","205.19999980926514","img/food6.png","74","205.70000004768372","1","0","3","1,0.5,0,1,0.5,0,0.5,0,1","",""
"","html-keyboard-response","109","63754","0.0-109.0","3NC5L260MP8NECOK3IPEI08X5JEFOA","A2J1ANUL0BYKUK","30F94FBDNR6BS3JI3VKF41RBJN4TBU","","null","<img src=""img/food6.png"" style=""width:200px;border:14px solid red;"">","null","","","","","","",""
"","image-keyboard-response","110","63900","0.0-110.0","3NC5L260MP8NECOK3IPEI08X5JEFOA","A2J1ANUL0BYKUK","30F94FBDNR6BS3JI3VKF41RBJN4TBU","","145.39999985694885","img/food6.png","75","146","2","0","3","1,0.5,0,1,0.5,0,0.5,0,1","",""
"","html-keyboard-response","111","64202","0.0-111.0","3NC5L260MP8NECOK3IPEI08X5JEFOA","A2J1ANUL0BYKUK","30F94FBDNR6BS3JI3VKF41RBJN4TBU","","null","<img src=""img/food6.png"" style=""width:200px;border:14px solid red;"">","null","","","","","","",""
"","image-keyboard-response","112","64358","0.0-112.0","3NC5L260MP8NECOK3IPEI08X5JEFOA","A2J1ANUL0BYKUK","30F94FBDNR6BS3JI3VKF41RBJN4TBU","","155.29999995231628","img/food2.png","76","155.90000009536743","3","0","2","1,0.5,0,1,0.5,0,0.5,0,1","",""
"","html-keyboard-response","113","64659","0.0-113.0","3NC5L260MP8NECOK3IPEI08X5JEFOA","A2J1ANUL0BYKUK","30F94FBDNR6BS3JI3VKF41RBJN4TBU","","null","<img src=""img/food2.png"" style=""width:200px;border:14px solid red;"">","null","","","","","","",""
"","image-keyboard-response","114","64781","0.0-114.0","3NC5L260MP8NECOK3IPEI08X5JEFOA","A2J1ANUL0BYKUK","30F94FBDNR6BS3JI3VKF41RBJN4TBU","","121.59999990463257","img/food6.png","74","122.09999990463257","1","0","3","1,0.5,0,1,0.5,0,0.5,0,1","",""
"","html-keyboard-response","115","65083","0.0-115.0","3NC5L260MP8NECOK3IPEI08X5JEFOA","A2J1ANUL0BYKUK","30F94FBDNR6BS3JI3VKF41RBJN4TBU","","null","<img src=""img/food6.png"" style=""width:200px;border:14px solid red;"">","null","","","","","","",""
"","image-keyboard-response","116","65785","0.0-116.0","3NC5L260MP8NECOK3IPEI08X5JEFOA","A2J1ANUL0BYKUK","30F94FBDNR6BS3JI3VKF41RBJN4TBU","","701.5999999046326","img/food2.png","74","702","1","1","2","1,0.5,0,1,0.5,0,0.5,0,1","",""
"","html-keyboard-response","117","66087","0.0-117.0","3NC5L260MP8NECOK3IPEI08X5JEFOA","A2J1ANUL0BYKUK","30F94FBDNR6BS3JI3VKF41RBJN4TBU","","null","<img src=""img/food2.png"" style=""width:200px; border:14px solid green;"">","null","","","","","","",""
"","image-keyboard-response","118","66293","0.0-118.0","3NC5L260MP8NECOK3IPEI08X5JEFOA","A2J1ANUL0BYKUK","30F94FBDNR6BS3JI3VKF41RBJN4TBU","","205","img/food6.png","74","205.59999990463257","1","1","3","1,0.5,0,1,0.5,0,0.5,0,1","",""
"","html-keyboard-response","119","66601","0.0-119.0","3NC5L260MP8NECOK3IPEI08X5JEFOA","A2J1ANUL0BYKUK","30F94FBDNR6BS3JI3VKF41RBJN4TBU","","null","<img src=""img/food6.png"" style=""width:200px; border:14px solid green;"">","null","","","","","","",""
"","image-keyboard-response","120","66827","0.0-120.0","3NC5L260MP8NECOK3IPEI08X5JEFOA","A2J1ANUL0BYKUK","30F94FBDNR6BS3JI3VKF41RBJN4TBU","","224.79999995231628","img/food6.png","74","225.20000004768372","1","1","3","1,0.5,0,1,0.5,0,0.5,0,1","",""
"","html-keyboard-response","121","67128","0.0-121.0","3NC5L260MP8NECOK3IPEI08X5JEFOA","A2J1ANUL0BYKUK","30F94FBDNR6BS3JI3VKF41RBJN4TBU","","null","<img src=""img/food6.png"" style=""width:200px; border:14px solid green;"">","null","","","","","","",""
"","image-keyboard-response","122","67312","0.0-122.0","3NC5L260MP8NECOK3IPEI08X5JEFOA","A2J1ANUL0BYKUK","30F94FBDNR6BS3JI3VKF41RBJN4TBU","","182.70000004768372","img/food4.png","74","183.30000019073486","1","1","1","1,0.5,0,1,0.5,0,0.5,0,1","",""
"","html-keyboard-response","123","67615","0.0-123.0","3NC5L260MP8NECOK3IPEI08X5JEFOA","A2J1ANUL0BYKUK","30F94FBDNR6BS3JI3VKF41RBJN4TBU","","null","<img src=""img/food4.png"" style=""width:200px; border:14px solid green;"">","null","","","","","","",""
"","image-keyboard-response","124","67867","0.0-124.0","3NC5L260MP8NECOK3IPEI08X5JEFOA","A2J1ANUL0BYKUK","30F94FBDNR6BS3JI3VKF41RBJN4TBU","","251.5","img/food4.png","74","252.09999990463257","1","1","1","1,0.5,0,1,0.5,0,0.5,0,1","",""
"","html-keyboard-response","125","68176","0.0-125.0","3NC5L260MP8NECOK3IPEI08X5JEFOA","A2J1ANUL0BYKUK","30F94FBDNR6BS3JI3VKF41RBJN4TBU","","null","<img src=""img/food4.png"" style=""width:200px; border:14px solid green;"">","null","","","","","","",""
"","image-keyboard-response","126","68368","0.0-126.0","3NC5L260MP8NECOK3IPEI08X5JEFOA","A2J1ANUL0BYKUK","30F94FBDNR6BS3JI3VKF41RBJN4TBU","","191.59999990463257","img/food6.png","74","192","1","0","3","1,0.5,0,1,0.5,0,0.5,0,1","",""
"","html-keyboard-response","127","68675","0.0-127.0","3NC5L260MP8NECOK3IPEI08X5JEFOA","A2J1ANUL0BYKUK","30F94FBDNR6BS3JI3VKF41RBJN4TBU","","null","<img src=""img/food6.png"" style=""width:200px;border:14px solid red;"">","null","","","","","","",""
"","image-keyboard-response","128","68932","0.0-128.0","3NC5L260MP8NECOK3IPEI08X5JEFOA","A2J1ANUL0BYKUK","30F94FBDNR6BS3JI3VKF41RBJN4TBU","","256.60000014305115","img/food2.png","75","256.89999985694885","2","0","2","1,0.5,0,1,0.5,0,0.5,0,1","",""
"","html-keyboard-response","129","69234","0.0-129.0","3NC5L260MP8NECOK3IPEI08X5JEFOA","A2J1ANUL0BYKUK","30F94FBDNR6BS3JI3VKF41RBJN4TBU","","null","<img src=""img/food2.png"" style=""width:200px;border:14px solid red;"">","null","","","","","","",""
"","image-keyboard-response","130","69330","0.0-130.0","3NC5L260MP8NECOK3IPEI08X5JEFOA","A2J1ANUL0BYKUK","30F94FBDNR6BS3JI3VKF41RBJN4TBU","","95.39999985694885","img/food4.png","76","96","3","0","1","1,0.5,0,1,0.5,0,0.5,0,1","",""
"","html-keyboard-response","131","69632","0.0-131.0","3NC5L260MP8NECOK3IPEI08X5JEFOA","A2J1ANUL0BYKUK","30F94FBDNR6BS3JI3VKF41RBJN4TBU","","null","<img src=""img/food4.png"" style=""width:200px;border:14px solid red;"">","null","","","","","","",""
"","image-keyboard-response","132","69737","0.0-132.0","3NC5L260MP8NECOK3IPEI08X5JEFOA","A2J1ANUL0BYKUK","30F94FBDNR6BS3JI3VKF41RBJN4TBU","","104.39999985694885","img/food4.png","74","104.90000009536743","1","1","1","1,0.5,0,1,0.5,0,0.5,0,1","",""
"","html-keyboard-response","133","70038","0.0-133.0","3NC5L260MP8NECOK3IPEI08X5JEFOA","A2J1ANUL0BYKUK","30F94FBDNR6BS3JI3VKF41RBJN4TBU","","null","<img src=""img/food4.png"" style=""width:200px; border:14px solid green;"">","null","","","","","","",""
"","image-keyboard-response","134","70282","0.0-134.0","3NC5L260MP8NECOK3IPEI08X5JEFOA","A2J1ANUL0BYKUK","30F94FBDNR6BS3JI3VKF41RBJN4TBU","","242.60000014305115","img/food2.png","74","243.29999995231628","1","1","2","1,0.5,0,1,0.5,0,0.5,0,1","",""
"","html-keyboard-response","135","70585","0.0-135.0","3NC5L260MP8NECOK3IPEI08X5JEFOA","A2J1ANUL0BYKUK","30F94FBDNR6BS3JI3VKF41RBJN4TBU","","null","<img src=""img/food2.png"" style=""width:200px; border:14px solid green;"">","null","","","","","","",""
"","image-keyboard-response","136","70796","0.0-136.0","3NC5L260MP8NECOK3IPEI08X5JEFOA","A2J1ANUL0BYKUK","30F94FBDNR6BS3JI3VKF41RBJN4TBU","","210.89999985694885","img/food4.png","74","211.40000009536743","1","1","1","1,0.5,0,1,0.5,0,0.5,0,1","",""
"","html-keyboard-response","137","71098","0.0-137.0","3NC5L260MP8NECOK3IPEI08X5JEFOA","A2J1ANUL0BYKUK","30F94FBDNR6BS3JI3VKF41RBJN4TBU","","null","<img src=""img/food4.png"" style=""width:200px; border:14px solid green;"">","null","","","","","","",""
"","image-keyboard-response","138","71497","0.0-138.0","3NC5L260MP8NECOK3IPEI08X5JEFOA","A2J1ANUL0BYKUK","30F94FBDNR6BS3JI3VKF41RBJN4TBU","","398.30000019073486","img/food4.png","74","398.90000009536743","1","1","1","1,0.5,0,1,0.5,0,0.5,0,1","",""
"","html-keyboard-response","139","71808","0.0-139.0","3NC5L260MP8NECOK3IPEI08X5JEFOA","A2J1ANUL0BYKUK","30F94FBDNR6BS3JI3VKF41RBJN4TBU","","null","<img src=""img/food4.png"" style=""width:200px; border:14px solid green;"">","null","","","","","","",""
"","image-keyboard-response","140","72504","0.0-140.0","3NC5L260MP8NECOK3IPEI08X5JEFOA","A2J1ANUL0BYKUK","30F94FBDNR6BS3JI3VKF41RBJN4TBU","","695.4000000953674","img/food4.png","74","695.8999998569489","1","1","1","1,0.5,0,1,0.5,0,0.5,0,1","",""
"","html-keyboard-response","141","72806","0.0-141.0","3NC5L260MP8NECOK3IPEI08X5JEFOA","A2J1ANUL0BYKUK","30F94FBDNR6BS3JI3VKF41RBJN4TBU","","null","<img src=""img/food4.png"" style=""width:200px; border:14px solid green;"">","null","","","","","","",""
"","image-keyboard-response","142","73631","0.0-142.0","3NC5L260MP8NECOK3IPEI08X5JEFOA","A2J1ANUL0BYKUK","30F94FBDNR6BS3JI3VKF41RBJN4TBU","","823.8999998569489","img/food6.png","75","824.4000000953674","2","0","3","1,0.5,0,1,0.5,0,0.5,0,1","",""
"","html-keyboard-response","143","73932","0.0-143.0","3NC5L260MP8NECOK3IPEI08X5JEFOA","A2J1ANUL0BYKUK","30F94FBDNR6BS3JI3VKF41RBJN4TBU","","null","<img src=""img/food6.png"" style=""width:200px;border:14px solid red;"">","null","","","","","","",""
"","image-keyboard-response","144","74019","0.0-144.0","3NC5L260MP8NECOK3IPEI08X5JEFOA","A2J1ANUL0BYKUK","30F94FBDNR6BS3JI3VKF41RBJN4TBU","","86.09999990463257","img/food4.png","76","86.69999980926514","3","0","1","1,0.5,0,1,0.5,0,0.5,0,1","",""
"","html-keyboard-response","145","74321","0.0-145.0","3NC5L260MP8NECOK3IPEI08X5JEFOA","A2J1ANUL0BYKUK","30F94FBDNR6BS3JI3VKF41RBJN4TBU","","null","<img src=""img/food4.png"" style=""width:200px;border:14px solid red;"">","null","","","","","","",""
"","image-keyboard-response","146","75051","0.0-146.0","3NC5L260MP8NECOK3IPEI08X5JEFOA","A2J1ANUL0BYKUK","30F94FBDNR6BS3JI3VKF41RBJN4TBU","","729.1999998092651","img/food2.png","74","729.5999999046326","1","1","2","1,0.5,0,1,0.5,0,0.5,0,1","",""
"","html-keyboard-response","147","75352","0.0-147.0","3NC5L260MP8NECOK3IPEI08X5JEFOA","A2J1ANUL0BYKUK","30F94FBDNR6BS3JI3VKF41RBJN4TBU","","null","<img src=""img/food2.png"" style=""width:200px; border:14px solid green;"">","null","","","","","","",""
"","image-keyboard-response","148","75573","0.0-148.0","3NC5L260MP8NECOK3IPEI08X5JEFOA","A2J1ANUL0BYKUK","30F94FBDNR6BS3JI3VKF41RBJN4TBU","","220.40000009536743","img/food6.png","74","221.09999990463257","1","0","3","1,0.5,0,1,0.5,0,0.5,0,1","",""
"","html-keyboard-response","149","75876","0.0-149.0","3NC5L260MP8NECOK3IPEI08X5JEFOA","A2J1ANUL0BYKUK","30F94FBDNR6BS3JI3VKF41RBJN4TBU","","null","<img src=""img/food6.png"" style=""width:200px;border:14px solid red;"">","null","","","","","","",""
"","image-keyboard-response","150","76319","0.0-150.0","3NC5L260MP8NECOK3IPEI08X5JEFOA","A2J1ANUL0BYKUK","30F94FBDNR6BS3JI3VKF41RBJN4TBU","","442.7999999523163","img/food2.png","76","443.30000019073486","3","0","2","1,0.5,0,1,0.5,0,0.5,0,1","",""
"","html-keyboard-response","151","76625","0.0-151.0","3NC5L260MP8NECOK3IPEI08X5JEFOA","A2J1ANUL0BYKUK","30F94FBDNR6BS3JI3VKF41RBJN4TBU","","null","<img src=""img/food2.png"" style=""width:200px;border:14px solid red;"">","null","","","","","","",""
"","image-keyboard-response","152","76977","0.0-152.0","3NC5L260MP8NECOK3IPEI08X5JEFOA","A2J1ANUL0BYKUK","30F94FBDNR6BS3JI3VKF41RBJN4TBU","","351.7999999523163","img/food6.png","75","352.10000014305115","2","0","3","1,0.5,0,1,0.5,0,0.5,0,1","",""
"","html-keyboard-response","153","77279","0.0-153.0","3NC5L260MP8NECOK3IPEI08X5JEFOA","A2J1ANUL0BYKUK","30F94FBDNR6BS3JI3VKF41RBJN4TBU","","null","<img src=""img/food6.png"" style=""width:200px;border:14px solid red;"">","null","","","","","","",""
"","image-keyboard-response","154","77399","0.0-154.0","3NC5L260MP8NECOK3IPEI08X5JEFOA","A2J1ANUL0BYKUK","30F94FBDNR6BS3JI3VKF41RBJN4TBU","","119.39999985694885","img/food4.png","74","120","1","1","1","1,0.5,0,1,0.5,0,0.5,0,1","",""
"","html-keyboard-response","155","77700","0.0-155.0","3NC5L260MP8NECOK3IPEI08X5JEFOA","A2J1ANUL0BYKUK","30F94FBDNR6BS3JI3VKF41RBJN4TBU","","null","<img src=""img/food4.png"" style=""width:200px; border:14px solid green;"">","null","","","","","","",""
"","image-keyboard-response","156","77943","0.0-156.0","3NC5L260MP8NECOK3IPEI08X5JEFOA","A2J1ANUL0BYKUK","30F94FBDNR6BS3JI3VKF41RBJN4TBU","","242.10000014305115","img/food4.png","74","242.39999985694885","1","1","1","1,0.5,0,1,0.5,0,0.5,0,1","",""
"","html-keyboard-response","157","78244","0.0-157.0","3NC5L260MP8NECOK3IPEI08X5JEFOA","A2J1ANUL0BYKUK","30F94FBDNR6BS3JI3VKF41RBJN4TBU","","null","<img src=""img/food4.png"" style=""width:200px; border:14px solid green;"">","null","","","","","","",""
"","image-keyboard-response","158","78457","0.0-158.0","3NC5L260MP8NECOK3IPEI08X5JEFOA","A2J1ANUL0BYKUK","30F94FBDNR6BS3JI3VKF41RBJN4TBU","","211.89999985694885","img/food2.png","74","212.5","1","1","2","1,0.5,0,1,0.5,0,0.5,0,1","",""
"","html-keyboard-response","159","78759","0.0-159.0","3NC5L260MP8NECOK3IPEI08X5JEFOA","A2J1ANUL0BYKUK","30F94FBDNR6BS3JI3VKF41RBJN4TBU","","null","<img src=""img/food2.png"" style=""width:200px; border:14px solid green;"">","null","","","","","","",""
"","image-keyboard-response","160","78943","0.0-160.0","3NC5L260MP8NECOK3IPEI08X5JEFOA","A2J1ANUL0BYKUK","30F94FBDNR6BS3JI3VKF41RBJN4TBU","","184.19999980926514","img/food2.png","74","184.70000004768372","1","1","2","1,0.5,0,1,0.5,0,0.5,0,1","",""
"","html-keyboard-response","161","79245","0.0-161.0","3NC5L260MP8NECOK3IPEI08X5JEFOA","A2J1ANUL0BYKUK","30F94FBDNR6BS3JI3VKF41RBJN4TBU","","null","<img src=""img/food2.png"" style=""width:200px; border:14px solid green;"">","null","","","","","","",""
"","image-keyboard-response","162","79417","0.0-162.0","3NC5L260MP8NECOK3IPEI08X5JEFOA","A2J1ANUL0BYKUK","30F94FBDNR6BS3JI3VKF41RBJN4TBU","","171.60000014305115","img/food2.png","74","172.09999990463257","1","1","2","1,0.5,0,1,0.5,0,0.5,0,1","",""
"","html-keyboard-response","163","79718","0.0-163.0","3NC5L260MP8NECOK3IPEI08X5JEFOA","A2J1ANUL0BYKUK","30F94FBDNR6BS3JI3VKF41RBJN4TBU","","null","<img src=""img/food2.png"" style=""width:200px; border:14px solid green;"">","null","","","","","","",""
"","image-keyboard-response","164","79904","0.0-164.0","3NC5L260MP8NECOK3IPEI08X5JEFOA","A2J1ANUL0BYKUK","30F94FBDNR6BS3JI3VKF41RBJN4TBU","","185.09999990463257","img/food6.png","74","185.5","1","1","3","1,0.5,0,1,0.5,0,0.5,0,1","",""
"","html-keyboard-response","165","80206","0.0-165.0","3NC5L260MP8NECOK3IPEI08X5JEFOA","A2J1ANUL0BYKUK","30F94FBDNR6BS3JI3VKF41RBJN4TBU","","null","<img src=""img/food6.png"" style=""width:200px; border:14px solid green;"">","null","","","","","","",""
"","image-keyboard-response","166","80410","0.0-166.0","3NC5L260MP8NECOK3IPEI08X5JEFOA","A2J1ANUL0BYKUK","30F94FBDNR6BS3JI3VKF41RBJN4TBU","","203","img/food2.png","74","203.39999985694885","1","1","2","1,0.5,0,1,0.5,0,0.5,0,1","",""
"","html-keyboard-response","167","80712","0.0-167.0","3NC5L260MP8NECOK3IPEI08X5JEFOA","A2J1ANUL0BYKUK","30F94FBDNR6BS3JI3VKF41RBJN4TBU","","null","<img src=""img/food2.png"" style=""width:200px; border:14px solid green;"">","null","","","","","","",""
"","image-keyboard-response","168","80896","0.0-168.0","3NC5L260MP8NECOK3IPEI08X5JEFOA","A2J1ANUL0BYKUK","30F94FBDNR6BS3JI3VKF41RBJN4TBU","","184.09999990463257","img/food4.png","74","184.60000014305115","1","1","1","1,0.5,0,1,0.5,0,0.5,0,1","",""
"","html-keyboard-response","169","81198","0.0-169.0","3NC5L260MP8NECOK3IPEI08X5JEFOA","A2J1ANUL0BYKUK","30F94FBDNR6BS3JI3VKF41RBJN4TBU","","null","<img src=""img/food4.png"" style=""width:200px; border:14px solid green;"">","null","","","","","","",""
"","image-keyboard-response","170","81350","0.0-170.0","3NC5L260MP8NECOK3IPEI08X5JEFOA","A2J1ANUL0BYKUK","30F94FBDNR6BS3JI3VKF41RBJN4TBU","","151.19999980926514","img/food2.png","74","151.5","1","1","2","1,0.5,0,1,0.5,0,0.5,0,1","",""
"","html-keyboard-response","171","81651","0.0-171.0","3NC5L260MP8NECOK3IPEI08X5JEFOA","A2J1ANUL0BYKUK","30F94FBDNR6BS3JI3VKF41RBJN4TBU","","null","<img src=""img/food2.png"" style=""width:200px; border:14px solid green;"">","null","","","","","","",""
"","image-keyboard-response","172","81850","0.0-172.0","3NC5L260MP8NECOK3IPEI08X5JEFOA","A2J1ANUL0BYKUK","30F94FBDNR6BS3JI3VKF41RBJN4TBU","","198.20000004768372","img/food2.png","74","198.79999995231628","1","1","2","1,0.5,0,1,0.5,0,0.5,0,1","",""
"","html-keyboard-response","173","82151","0.0-173.0","3NC5L260MP8NECOK3IPEI08X5JEFOA","A2J1ANUL0BYKUK","30F94FBDNR6BS3JI3VKF41RBJN4TBU","","null","<img src=""img/food2.png"" style=""width:200px; border:14px solid green;"">","null","","","","","","",""
"","image-keyboard-response","174","82340","0.0-174.0","3NC5L260MP8NECOK3IPEI08X5JEFOA","A2J1ANUL0BYKUK","30F94FBDNR6BS3JI3VKF41RBJN4TBU","","188.89999985694885","img/food2.png","74","189.5","1","1","2","1,0.5,0,1,0.5,0,0.5,0,1","",""
"","html-keyboard-response","175","82641","0.0-175.0","3NC5L260MP8NECOK3IPEI08X5JEFOA","A2J1ANUL0BYKUK","30F94FBDNR6BS3JI3VKF41RBJN4TBU","","null","<img src=""img/food2.png"" style=""width:200px; border:14px solid green;"">","null","","","","","","",""
"","image-keyboard-response","176","82810","0.0-176.0","3NC5L260MP8NECOK3IPEI08X5JEFOA","A2J1ANUL0BYKUK","30F94FBDNR6BS3JI3VKF41RBJN4TBU","","168","img/food6.png","74","168.5","1","0","3","1,0.5,0,1,0.5,0,0.5,0,1","",""
"","html-keyboard-response","177","83112","0.0-177.0","3NC5L260MP8NECOK3IPEI08X5JEFOA","A2J1ANUL0BYKUK","30F94FBDNR6BS3JI3VKF41RBJN4TBU","","null","<img src=""img/food6.png"" style=""width:200px;border:14px solid red;"">","null","","","","","","",""
"","image-keyboard-response","178","83292","0.0-178.0","3NC5L260MP8NECOK3IPEI08X5JEFOA","A2J1ANUL0BYKUK","30F94FBDNR6BS3JI3VKF41RBJN4TBU","","179.5","img/food4.png","74","180.10000014305115","1","1","1","1,0.5,0,1,0.5,0,0.5,0,1","",""
"","html-keyboard-response","179","83594","0.0-179.0","3NC5L260MP8NECOK3IPEI08X5JEFOA","A2J1ANUL0BYKUK","30F94FBDNR6BS3JI3VKF41RBJN4TBU","","null","<img src=""img/food4.png"" style=""width:200px; border:14px solid green;"">","null","","","","","","",""
"","image-keyboard-response","180","83772","0.0-180.0","3NC5L260MP8NECOK3IPEI08X5JEFOA","A2J1ANUL0BYKUK","30F94FBDNR6BS3JI3VKF41RBJN4TBU","","177.59999990463257","img/food4.png","74","178","1","1","1","1,0.5,0,1,0.5,0,0.5,0,1","",""
"","html-keyboard-response","181","84073","0.0-181.0","3NC5L260MP8NECOK3IPEI08X5JEFOA","A2J1ANUL0BYKUK","30F94FBDNR6BS3JI3VKF41RBJN4TBU","","null","<img src=""img/food4.png"" style=""width:200px; border:14px solid green;"">","null","","","","","","",""
"","html-keyboard-response","182","87045","0.0-182.0","3NC5L260MP8NECOK3IPEI08X5JEFOA","A2J1ANUL0BYKUK","30F94FBDNR6BS3JI3VKF41RBJN4TBU","","","","","","","","","","",""
"","instructions","183","101605","0.0-183.0","3NC5L260MP8NECOK3IPEI08X5JEFOA","A2J1ANUL0BYKUK","30F94FBDNR6BS3JI3VKF41RBJN4TBU","[{""page_index"":0,""viewing_time"":12558.599999904633},{""page_index"":1,""viewing_time"":2000.7999999523163}]","14559.599999904633","","","","","","","","",""
"","image-keyboard-response","184","102607","0.0-184.0","3NC5L260MP8NECOK3IPEI08X5JEFOA","A2J1ANUL0BYKUK","30F94FBDNR6BS3JI3VKF41RBJN4TBU","","","img/food5.png","","1001.3999998569489","-1","0","3","1,0.5,0,1,0.5,0,0.5,0,1","true",""
"","html-keyboard-response","185","102908","0.0-185.0","3NC5L260MP8NECOK3IPEI08X5JEFOA","A2J1ANUL0BYKUK","30F94FBDNR6BS3JI3VKF41RBJN4TBU","","null","<img src=""img/food5.png"" style=""width:200px;border:14px solid red;"">","null","","","","","","",""
"","html-keyboard-response","186","108742","0.0-186.0-0.0","3NC5L260MP8NECOK3IPEI08X5JEFOA","A2J1ANUL0BYKUK","30F94FBDNR6BS3JI3VKF41RBJN4TBU","","","","","","","","","","",""
"","image-keyboard-response","187","109284","0.0-187.0","3NC5L260MP8NECOK3IPEI08X5JEFOA","A2J1ANUL0BYKUK","30F94FBDNR6BS3JI3VKF41RBJN4TBU","","540.9000000953674","img/food5.png","74","541.5","1","1","3","1,0.5,0,1,0.5,0,0.5,0,1","false",""
"","html-keyboard-response","188","109586","0.0-188.0","3NC5L260MP8NECOK3IPEI08X5JEFOA","A2J1ANUL0BYKUK","30F94FBDNR6BS3JI3VKF41RBJN4TBU","","null","<img src=""img/food5.png"" style=""width:200px; border:14px solid green;"">","null","","","","","","",""
"","image-keyboard-response","189","110094","0.0-190.0","3NC5L260MP8NECOK3IPEI08X5JEFOA","A2J1ANUL0BYKUK","30F94FBDNR6BS3JI3VKF41RBJN4TBU","","507.09999990463257","img/food1.png","75","507.40000009536743","2","1","2","1,0.5,0,1,0.5,0,0.5,0,1","false",""
"","html-keyboard-response","190","110395","0.0-191.0","3NC5L260MP8NECOK3IPEI08X5JEFOA","A2J1ANUL0BYKUK","30F94FBDNR6BS3JI3VKF41RBJN4TBU","","null","<img src=""img/food1.png"" style=""width:200px; border:14px solid green;"">","null","","","","","","",""
"","image-keyboard-response","191","110710","0.0-193.0","3NC5L260MP8NECOK3IPEI08X5JEFOA","A2J1ANUL0BYKUK","30F94FBDNR6BS3JI3VKF41RBJN4TBU","","314.40000009536743","img/food1.png","76","314.7999999523163","3","0","2","1,0.5,0,1,0.5,0,0.5,0,1","false",""
"","html-keyboard-response","192","111012","0.0-194.0","3NC5L260MP8NECOK3IPEI08X5JEFOA","A2J1ANUL0BYKUK","30F94FBDNR6BS3JI3VKF41RBJN4TBU","","null","<img src=""img/food1.png"" style=""width:200px;border:14px solid red;"">","null","","","","","","",""
"","image-keyboard-response","193","111408","0.0-196.0","3NC5L260MP8NECOK3IPEI08X5JEFOA","A2J1ANUL0BYKUK","30F94FBDNR6BS3JI3VKF41RBJN4TBU","","394.60000014305115","img/food1.png","75","395.09999990463257","2","0","2","1,0.5,0,1,0.5,0,0.5,0,1","false",""
"","html-keyboard-response","194","111709","0.0-197.0","3NC5L260MP8NECOK3IPEI08X5JEFOA","A2J1ANUL0BYKUK","30F94FBDNR6BS3JI3VKF41RBJN4TBU","","null","<img src=""img/food1.png"" style=""width:200px;border:14px solid red;"">","null","","","","","","",""
"","image-keyboard-response","195","112010","0.0-199.0","3NC5L260MP8NECOK3IPEI08X5JEFOA","A2J1ANUL0BYKUK","30F94FBDNR6BS3JI3VKF41RBJN4TBU","","300.2999999523163","img/food1.png","74","300.7999999523163","1","1","2","1,0.5,0,1,0.5,0,0.5,0,1","false",""
"","html-keyboard-response","196","112311","0.0-200.0","3NC5L260MP8NECOK3IPEI08X5JEFOA","A2J1ANUL0BYKUK","30F94FBDNR6BS3JI3VKF41RBJN4TBU","","null","<img src=""img/food1.png"" style=""width:200px; border:14px solid green;"">","null","","","","","","",""
"","image-keyboard-response","197","112656","0.0-202.0","3NC5L260MP8NECOK3IPEI08X5JEFOA","A2J1ANUL0BYKUK","30F94FBDNR6BS3JI3VKF41RBJN4TBU","","343.59999990463257","img/food3.png","74","344.2999999523163","1","1","1","1,0.5,0,1,0.5,0,0.5,0,1","false",""
"","html-keyboard-response","198","112957","0.0-203.0","3NC5L260MP8NECOK3IPEI08X5JEFOA","A2J1ANUL0BYKUK","30F94FBDNR6BS3JI3VKF41RBJN4TBU","","null","<img src=""img/food3.png"" style=""width:200px; border:14px solid green;"">","null","","","","","","",""
"","image-keyboard-response","199","113234","0.0-205.0","3NC5L260MP8NECOK3IPEI08X5JEFOA","A2J1ANUL0BYKUK","30F94FBDNR6BS3JI3VKF41RBJN4TBU","","275.59999990463257","img/food3.png","74","276.09999990463257","1","1","1","1,0.5,0,1,0.5,0,0.5,0,1","false",""
"","html-keyboard-response","200","113538","0.0-206.0","3NC5L260MP8NECOK3IPEI08X5JEFOA","A2J1ANUL0BYKUK","30F94FBDNR6BS3JI3VKF41RBJN4TBU","","null","<img src=""img/food3.png"" style=""width:200px; border:14px solid green;"">","null","","","","","","",""
"","image-keyboard-response","201","113884","0.0-208.0","3NC5L260MP8NECOK3IPEI08X5JEFOA","A2J1ANUL0BYKUK","30F94FBDNR6BS3JI3VKF41RBJN4TBU","","345","img/food1.png","74","345.5","1","1","2","1,0.5,0,1,0.5,0,0.5,0,1","false",""
"","html-keyboard-response","202","114186","0.0-209.0","3NC5L260MP8NECOK3IPEI08X5JEFOA","A2J1ANUL0BYKUK","30F94FBDNR6BS3JI3VKF41RBJN4TBU","","null","<img src=""img/food1.png"" style=""width:200px; border:14px solid green;"">","null","","","","","","",""
"","image-keyboard-response","203","114483","0.0-211.0","3NC5L260MP8NECOK3IPEI08X5JEFOA","A2J1ANUL0BYKUK","30F94FBDNR6BS3JI3VKF41RBJN4TBU","","296.60000014305115","img/food5.png","74","297","1","1","3","1,0.5,0,1,0.5,0,0.5,0,1","false",""
"","html-keyboard-response","204","114785","0.0-212.0","3NC5L260MP8NECOK3IPEI08X5JEFOA","A2J1ANUL0BYKUK","30F94FBDNR6BS3JI3VKF41RBJN4TBU","","null","<img src=""img/food5.png"" style=""width:200px; border:14px solid green;"">","null","","","","","","",""
"","image-keyboard-response","205","115045","0.0-214.0","3NC5L260MP8NECOK3IPEI08X5JEFOA","A2J1ANUL0BYKUK","30F94FBDNR6BS3JI3VKF41RBJN4TBU","","259","img/food1.png","74","259.7000000476837","1","1","2","1,0.5,0,1,0.5,0,0.5,0,1","false",""
"","html-keyboard-response","206","115347","0.0-215.0","3NC5L260MP8NECOK3IPEI08X5JEFOA","A2J1ANUL0BYKUK","30F94FBDNR6BS3JI3VKF41RBJN4TBU","","null","<img src=""img/food1.png"" style=""width:200px; border:14px solid green;"">","null","","","","","","",""
"","image-keyboard-response","207","115603","0.0-217.0","3NC5L260MP8NECOK3IPEI08X5JEFOA","A2J1ANUL0BYKUK","30F94FBDNR6BS3JI3VKF41RBJN4TBU","","254.60000014305115","img/food1.png","74","255.09999990463257","1","1","2","1,0.5,0,1,0.5,0,0.5,0,1","false",""
"","html-keyboard-response","208","115905","0.0-218.0","3NC5L260MP8NECOK3IPEI08X5JEFOA","A2J1ANUL0BYKUK","30F94FBDNR6BS3JI3VKF41RBJN4TBU","","null","<img src=""img/food1.png"" style=""width:200px; border:14px solid green;"">","null","","","","","","",""
"","image-keyboard-response","209","116137","0.0-220.0","3NC5L260MP8NECOK3IPEI08X5JEFOA","A2J1ANUL0BYKUK","30F94FBDNR6BS3JI3VKF41RBJN4TBU","","231.39999985694885","img/food3.png","74","231.89999985694885","1","1","1","1,0.5,0,1,0.5,0,0.5,0,1","false",""
"","html-keyboard-response","210","116438","0.0-221.0","3NC5L260MP8NECOK3IPEI08X5JEFOA","A2J1ANUL0BYKUK","30F94FBDNR6BS3JI3VKF41RBJN4TBU","","null","<img src=""img/food3.png"" style=""width:200px; border:14px solid green;"">","null","","","","","","",""
"","image-keyboard-response","211","116695","0.0-223.0","3NC5L260MP8NECOK3IPEI08X5JEFOA","A2J1ANUL0BYKUK","30F94FBDNR6BS3JI3VKF41RBJN4TBU","","255.90000009536743","img/food5.png","74","256.2999999523163","1","1","3","1,0.5,0,1,0.5,0,0.5,0,1","false",""
"","html-keyboard-response","212","117012","0.0-224.0","3NC5L260MP8NECOK3IPEI08X5JEFOA","A2J1ANUL0BYKUK","30F94FBDNR6BS3JI3VKF41RBJN4TBU","","null","<img src=""img/food5.png"" style=""width:200px; border:14px solid green;"">","null","","","","","","",""
"","image-keyboard-response","213","117233","0.0-226.0","3NC5L260MP8NECOK3IPEI08X5JEFOA","A2J1ANUL0BYKUK","30F94FBDNR6BS3JI3VKF41RBJN4TBU","","220.59999990463257","img/food5.png","74","221.09999990463257","1","1","3","1,0.5,0,1,0.5,0,0.5,0,1","false",""
"","html-keyboard-response","214","117534","0.0-227.0","3NC5L260MP8NECOK3IPEI08X5JEFOA","A2J1ANUL0BYKUK","30F94FBDNR6BS3JI3VKF41RBJN4TBU","","null","<img src=""img/food5.png"" style=""width:200px; border:14px solid green;"">","null","","","","","","",""
"","image-keyboard-response","215","117751","0.0-229.0","3NC5L260MP8NECOK3IPEI08X5JEFOA","A2J1ANUL0BYKUK","30F94FBDNR6BS3JI3VKF41RBJN4TBU","","215.90000009536743","img/food1.png","74","216.40000009536743","1","1","2","1,0.5,0,1,0.5,0,0.5,0,1","false",""
"","html-keyboard-response","216","118052","0.0-230.0","3NC5L260MP8NECOK3IPEI08X5JEFOA","A2J1ANUL0BYKUK","30F94FBDNR6BS3JI3VKF41RBJN4TBU","","null","<img src=""img/food1.png"" style=""width:200px; border:14px solid green;"">","null","","","","","","",""
"","image-keyboard-response","217","118295","0.0-232.0","3NC5L260MP8NECOK3IPEI08X5JEFOA","A2J1ANUL0BYKUK","30F94FBDNR6BS3JI3VKF41RBJN4TBU","","241.90000009536743","img/food3.png","74","242.40000009536743","1","1","1","1,0.5,0,1,0.5,0,0.5,0,1","false",""
"","html-keyboard-response","218","118598","0.0-233.0","3NC5L260MP8NECOK3IPEI08X5JEFOA","A2J1ANUL0BYKUK","30F94FBDNR6BS3JI3VKF41RBJN4TBU","","null","<img src=""img/food3.png"" style=""width:200px; border:14px solid green;"">","null","","","","","","",""
"","image-keyboard-response","219","118795","0.0-235.0","3NC5L260MP8NECOK3IPEI08X5JEFOA","A2J1ANUL0BYKUK","30F94FBDNR6BS3JI3VKF41RBJN4TBU","","196.59999990463257","img/food3.png","74","197.09999990463257","1","1","1","1,0.5,0,1,0.5,0,0.5,0,1","false",""
"","html-keyboard-response","220","119096","0.0-236.0","3NC5L260MP8NECOK3IPEI08X5JEFOA","A2J1ANUL0BYKUK","30F94FBDNR6BS3JI3VKF41RBJN4TBU","","null","<img src=""img/food3.png"" style=""width:200px; border:14px solid green;"">","null","","","","","","",""
"","image-keyboard-response","221","119322","0.0-238.0","3NC5L260MP8NECOK3IPEI08X5JEFOA","A2J1ANUL0BYKUK","30F94FBDNR6BS3JI3VKF41RBJN4TBU","","225.29999995231628","img/food5.png","74","225.79999995231628","1","0","3","1,0.5,0,1,0.5,0,0.5,0,1","false",""
"","html-keyboard-response","222","119633","0.0-239.0","3NC5L260MP8NECOK3IPEI08X5JEFOA","A2J1ANUL0BYKUK","30F94FBDNR6BS3JI3VKF41RBJN4TBU","","null","<img src=""img/food5.png"" style=""width:200px;border:14px solid red;"">","null","","","","","","",""
"","image-keyboard-response","223","119856","0.0-241.0","3NC5L260MP8NECOK3IPEI08X5JEFOA","A2J1ANUL0BYKUK","30F94FBDNR6BS3JI3VKF41RBJN4TBU","","222","img/food1.png","74","222.29999995231628","1","1","2","1,0.5,0,1,0.5,0,0.5,0,1","false",""
"","html-keyboard-response","224","120158","0.0-242.0","3NC5L260MP8NECOK3IPEI08X5JEFOA","A2J1ANUL0BYKUK","30F94FBDNR6BS3JI3VKF41RBJN4TBU","","null","<img src=""img/food1.png"" style=""width:200px; border:14px solid green;"">","null","","","","","","",""
"","image-keyboard-response","225","120284","0.0-244.0","3NC5L260MP8NECOK3IPEI08X5JEFOA","A2J1ANUL0BYKUK","30F94FBDNR6BS3JI3VKF41RBJN4TBU","","125.40000009536743","img/food5.png","74","125.79999995231628","1","1","3","1,0.5,0,1,0.5,0,0.5,0,1","false",""
"","html-keyboard-response","226","120588","0.0-245.0","3NC5L260MP8NECOK3IPEI08X5JEFOA","A2J1ANUL0BYKUK","30F94FBDNR6BS3JI3VKF41RBJN4TBU","","null","<img src=""img/food5.png"" style=""width:200px; border:14px solid green;"">","null","","","","","","",""
"","image-keyboard-response","227","120805","0.0-247.0","3NC5L260MP8NECOK3IPEI08X5JEFOA","A2J1ANUL0BYKUK","30F94FBDNR6BS3JI3VKF41RBJN4TBU","","216.29999995231628","img/food3.png","74","216.70000004768372","1","1","1","1,0.5,0,1,0.5,0,0.5,0,1","false",""
"","html-keyboard-response","228","121108","0.0-248.0","3NC5L260MP8NECOK3IPEI08X5JEFOA","A2J1ANUL0BYKUK","30F94FBDNR6BS3JI3VKF41RBJN4TBU","","null","<img src=""img/food3.png"" style=""width:200px; border:14px solid green;"">","null","","","","","","",""
"","image-keyboard-response","229","121271","0.0-250.0","3NC5L260MP8NECOK3IPEI08X5JEFOA","A2J1ANUL0BYKUK","30F94FBDNR6BS3JI3VKF41RBJN4TBU","","162.5","img/food3.png","74","162.90000009536743","1","1","1","1,0.5,0,1,0.5,0,0.5,0,1","false",""
"","html-keyboard-response","230","121573","0.0-251.0","3NC5L260MP8NECOK3IPEI08X5JEFOA","A2J1ANUL0BYKUK","30F94FBDNR6BS3JI3VKF41RBJN4TBU","","null","<img src=""img/food3.png"" style=""width:200px; border:14px solid green;"">","null","","","","","","",""
"","image-keyboard-response","231","121790","0.0-253.0","3NC5L260MP8NECOK3IPEI08X5JEFOA","A2J1ANUL0BYKUK","30F94FBDNR6BS3JI3VKF41RBJN4TBU","","216.09999990463257","img/food1.png","74","216.59999990463257","1","1","2","1,0.5,0,1,0.5,0,0.5,0,1","false",""
"","html-keyboard-response","232","122091","0.0-254.0","3NC5L260MP8NECOK3IPEI08X5JEFOA","A2J1ANUL0BYKUK","30F94FBDNR6BS3JI3VKF41RBJN4TBU","","null","<img src=""img/food1.png"" style=""width:200px; border:14px solid green;"">","null","","","","","","",""
"","image-keyboard-response","233","122236","0.0-256.0","3NC5L260MP8NECOK3IPEI08X5JEFOA","A2J1ANUL0BYKUK","30F94FBDNR6BS3JI3VKF41RBJN4TBU","","144","img/food1.png","74","144.40000009536743","1","1","2","1,0.5,0,1,0.5,0,0.5,0,1","false",""
"","html-keyboard-response","234","122538","0.0-257.0","3NC5L260MP8NECOK3IPEI08X5JEFOA","A2J1ANUL0BYKUK","30F94FBDNR6BS3JI3VKF41RBJN4TBU","","null","<img src=""img/food1.png"" style=""width:200px; border:14px solid green;"">","null","","","","","","",""
"","image-keyboard-response","235","122732","0.0-259.0","3NC5L260MP8NECOK3IPEI08X5JEFOA","A2J1ANUL0BYKUK","30F94FBDNR6BS3JI3VKF41RBJN4TBU","","193.39999985694885","img/food3.png","74","193.90000009536743","1","1","1","1,0.5,0,1,0.5,0,0.5,0,1","false",""
"","html-keyboard-response","236","123034","0.0-260.0","3NC5L260MP8NECOK3IPEI08X5JEFOA","A2J1ANUL0BYKUK","30F94FBDNR6BS3JI3VKF41RBJN4TBU","","null","<img src=""img/food3.png"" style=""width:200px; border:14px solid green;"">","null","","","","","","",""
"","image-keyboard-response","237","123246","0.0-262.0","3NC5L260MP8NECOK3IPEI08X5JEFOA","A2J1ANUL0BYKUK","30F94FBDNR6BS3JI3VKF41RBJN4TBU","","211.29999995231628","img/food3.png","74","211.79999995231628","1","1","1","1,0.5,0,1,0.5,0,0.5,0,1","false",""
"","html-keyboard-response","238","123547","0.0-263.0","3NC5L260MP8NECOK3IPEI08X5JEFOA","A2J1ANUL0BYKUK","30F94FBDNR6BS3JI3VKF41RBJN4TBU","","null","<img src=""img/food3.png"" style=""width:200px; border:14px solid green;"">","null","","","","","","",""
"","image-keyboard-response","239","123743","0.0-265.0","3NC5L260MP8NECOK3IPEI08X5JEFOA","A2J1ANUL0BYKUK","30F94FBDNR6BS3JI3VKF41RBJN4TBU","","194.89999985694885","img/food5.png","74","195.40000009536743","1","1","3","1,0.5,0,1,0.5,0,0.5,0,1","false",""
"","html-keyboard-response","240","124045","0.0-266.0","3NC5L260MP8NECOK3IPEI08X5JEFOA","A2J1ANUL0BYKUK","30F94FBDNR6BS3JI3VKF41RBJN4TBU","","null","<img src=""img/food5.png"" style=""width:200px; border:14px solid green;"">","null","","","","","","",""
"","image-keyboard-response","241","124244","0.0-268.0","3NC5L260MP8NECOK3IPEI08X5JEFOA","A2J1ANUL0BYKUK","30F94FBDNR6BS3JI3VKF41RBJN4TBU","","198.29999995231628","img/food1.png","74","198.79999995231628","1","1","2","1,0.5,0,1,0.5,0,0.5,0,1","false",""
"","html-keyboard-response","242","124545","0.0-269.0","3NC5L260MP8NECOK3IPEI08X5JEFOA","A2J1ANUL0BYKUK","30F94FBDNR6BS3JI3VKF41RBJN4TBU","","null","<img src=""img/food1.png"" style=""width:200px; border:14px solid green;"">","null","","","","","","",""
"","image-keyboard-response","243","124756","0.0-271.0","3NC5L260MP8NECOK3IPEI08X5JEFOA","A2J1ANUL0BYKUK","30F94FBDNR6BS3JI3VKF41RBJN4TBU","","210.29999995231628","img/food3.png","74","210.60000014305115","1","1","1","1,0.5,0,1,0.5,0,0.5,0,1","false",""
"","html-keyboard-response","244","125057","0.0-272.0","3NC5L260MP8NECOK3IPEI08X5JEFOA","A2J1ANUL0BYKUK","30F94FBDNR6BS3JI3VKF41RBJN4TBU","","null","<img src=""img/food3.png"" style=""width:200px; border:14px solid green;"">","null","","","","","","",""
"","image-keyboard-response","245","125262","0.0-274.0","3NC5L260MP8NECOK3IPEI08X5JEFOA","A2J1ANUL0BYKUK","30F94FBDNR6BS3JI3VKF41RBJN4TBU","","203.60000014305115","img/food3.png","74","204.10000014305115","1","1","1","1,0.5,0,1,0.5,0,0.5,0,1","false",""
"","html-keyboard-response","246","125563","0.0-275.0","3NC5L260MP8NECOK3IPEI08X5JEFOA","A2J1ANUL0BYKUK","30F94FBDNR6BS3JI3VKF41RBJN4TBU","","null","<img src=""img/food3.png"" style=""width:200px; border:14px solid green;"">","null","","","","","","",""
"","image-keyboard-response","247","125757","0.0-277.0","3NC5L260MP8NECOK3IPEI08X5JEFOA","A2J1ANUL0BYKUK","30F94FBDNR6BS3JI3VKF41RBJN4TBU","","192.79999995231628","img/food5.png","74","193.29999995231628","1","1","3","1,0.5,0,1,0.5,0,0.5,0,1","false",""
"","html-keyboard-response","248","126058","0.0-278.0","3NC5L260MP8NECOK3IPEI08X5JEFOA","A2J1ANUL0BYKUK","30F94FBDNR6BS3JI3VKF41RBJN4TBU","","null","<img src=""img/food5.png"" style=""width:200px; border:14px solid green;"">","null","","","","","","",""
"","image-keyboard-response","249","126247","0.0-280.0","3NC5L260MP8NECOK3IPEI08X5JEFOA","A2J1ANUL0BYKUK","30F94FBDNR6BS3JI3VKF41RBJN4TBU","","187.80000019073486","img/food3.png","74","188.29999995231628","1","1","1","1,0.5,0,1,0.5,0,0.5,0,1","false",""
"","html-keyboard-response","250","126549","0.0-281.0","3NC5L260MP8NECOK3IPEI08X5JEFOA","A2J1ANUL0BYKUK","30F94FBDNR6BS3JI3VKF41RBJN4TBU","","null","<img src=""img/food3.png"" style=""width:200px; border:14px solid green;"">","null","","","","","","",""
"","image-keyboard-response","251","126731","0.0-283.0","3NC5L260MP8NECOK3IPEI08X5JEFOA","A2J1ANUL0BYKUK","30F94FBDNR6BS3JI3VKF41RBJN4TBU","","181.29999995231628","img/food3.png","74","181.89999985694885","1","1","1","1,0.5,0,1,0.5,0,0.5,0,1","false",""
"","html-keyboard-response","252","127032","0.0-284.0","3NC5L260MP8NECOK3IPEI08X5JEFOA","A2J1ANUL0BYKUK","30F94FBDNR6BS3JI3VKF41RBJN4TBU","","null","<img src=""img/food3.png"" style=""width:200px; border:14px solid green;"">","null","","","","","","",""
"","image-keyboard-response","253","127173","0.0-286.0","3NC5L260MP8NECOK3IPEI08X5JEFOA","A2J1ANUL0BYKUK","30F94FBDNR6BS3JI3VKF41RBJN4TBU","","140.09999990463257","img/food1.png","74","140.59999990463257","1","1","2","1,0.5,0,1,0.5,0,0.5,0,1","false",""
"","html-keyboard-response","254","127475","0.0-287.0","3NC5L260MP8NECOK3IPEI08X5JEFOA","A2J1ANUL0BYKUK","30F94FBDNR6BS3JI3VKF41RBJN4TBU","","null","<img src=""img/food1.png"" style=""width:200px; border:14px solid green;"">","null","","","","","","",""
"","image-keyboard-response","255","127683","0.0-289.0","3NC5L260MP8NECOK3IPEI08X5JEFOA","A2J1ANUL0BYKUK","30F94FBDNR6BS3JI3VKF41RBJN4TBU","","207.29999995231628","img/food3.png","74","207.79999995231628","1","1","1","1,0.5,0,1,0.5,0,0.5,0,1","false",""
"","html-keyboard-response","256","127985","0.0-290.0","3NC5L260MP8NECOK3IPEI08X5JEFOA","A2J1ANUL0BYKUK","30F94FBDNR6BS3JI3VKF41RBJN4TBU","","null","<img src=""img/food3.png"" style=""width:200px; border:14px solid green;"">","null","","","","","","",""
"","image-keyboard-response","257","128135","0.0-292.0","3NC5L260MP8NECOK3IPEI08X5JEFOA","A2J1ANUL0BYKUK","30F94FBDNR6BS3JI3VKF41RBJN4TBU","","149.59999990463257","img/food5.png","74","150","1","0","3","1,0.5,0,1,0.5,0,0.5,0,1","false",""
"","html-keyboard-response","258","128437","0.0-293.0","3NC5L260MP8NECOK3IPEI08X5JEFOA","A2J1ANUL0BYKUK","30F94FBDNR6BS3JI3VKF41RBJN4TBU","","null","<img src=""img/food5.png"" style=""width:200px;border:14px solid red;"">","null","","","","","","",""
"","image-keyboard-response","259","128608","0.0-295.0","3NC5L260MP8NECOK3IPEI08X5JEFOA","A2J1ANUL0BYKUK","30F94FBDNR6BS3JI3VKF41RBJN4TBU","","170.20000004768372","img/food5.png","74","170.5","1","1","3","1,0.5,0,1,0.5,0,0.5,0,1","false",""
"","html-keyboard-response","260","128909","0.0-296.0","3NC5L260MP8NECOK3IPEI08X5JEFOA","A2J1ANUL0BYKUK","30F94FBDNR6BS3JI3VKF41RBJN4TBU","","null","<img src=""img/food5.png"" style=""width:200px; border:14px solid green;"">","null","","","","","","",""
"","image-keyboard-response","261","129011","0.0-298.0","3NC5L260MP8NECOK3IPEI08X5JEFOA","A2J1ANUL0BYKUK","30F94FBDNR6BS3JI3VKF41RBJN4TBU","","101.29999995231628","img/food3.png","74","101.70000004768372","1","1","1","1,0.5,0,1,0.5,0,0.5,0,1","false",""
"","html-keyboard-response","262","129313","0.0-299.0","3NC5L260MP8NECOK3IPEI08X5JEFOA","A2J1ANUL0BYKUK","30F94FBDNR6BS3JI3VKF41RBJN4TBU","","null","<img src=""img/food3.png"" style=""width:200px; border:14px solid green;"">","null","","","","","","",""
"","image-keyboard-response","263","129544","0.0-301.0","3NC5L260MP8NECOK3IPEI08X5JEFOA","A2J1ANUL0BYKUK","30F94FBDNR6BS3JI3VKF41RBJN4TBU","","231","img/food3.png","74","231.70000004768372","1","1","1","1,0.5,0,1,0.5,0,0.5,0,1","false",""
"","html-keyboard-response","264","129846","0.0-302.0","3NC5L260MP8NECOK3IPEI08X5JEFOA","A2J1ANUL0BYKUK","30F94FBDNR6BS3JI3VKF41RBJN4TBU","","null","<img src=""img/food3.png"" style=""width:200px; border:14px solid green;"">","null","","","","","","",""
"","image-keyboard-response","265","130035","0.0-304.0","3NC5L260MP8NECOK3IPEI08X5JEFOA","A2J1ANUL0BYKUK","30F94FBDNR6BS3JI3VKF41RBJN4TBU","","188.5","img/food5.png","74","188.89999985694885","1","1","3","1,0.5,0,1,0.5,0,0.5,0,1","false",""
"","html-keyboard-response","266","130336","0.0-305.0","3NC5L260MP8NECOK3IPEI08X5JEFOA","A2J1ANUL0BYKUK","30F94FBDNR6BS3JI3VKF41RBJN4TBU","","null","<img src=""img/food5.png"" style=""width:200px; border:14px solid green;"">","null","","","","","","",""
"","image-keyboard-response","267","130530","0.0-307.0","3NC5L260MP8NECOK3IPEI08X5JEFOA","A2J1ANUL0BYKUK","30F94FBDNR6BS3JI3VKF41RBJN4TBU","","193.40000009536743","img/food5.png","74","194","1","1","3","1,0.5,0,1,0.5,0,0.5,0,1","false",""
"","html-keyboard-response","268","130832","0.0-308.0","3NC5L260MP8NECOK3IPEI08X5JEFOA","A2J1ANUL0BYKUK","30F94FBDNR6BS3JI3VKF41RBJN4TBU","","null","<img src=""img/food5.png"" style=""width:200px; border:14px solid green;"">","null","","","","","","",""
"","image-keyboard-response","269","131023","0.0-310.0","3NC5L260MP8NECOK3IPEI08X5JEFOA","A2J1ANUL0BYKUK","30F94FBDNR6BS3JI3VKF41RBJN4TBU","","190.79999995231628","img/food5.png","74","191.20000004768372","1","1","3","1,0.5,0,1,0.5,0,0.5,0,1","false",""
"","html-keyboard-response","270","131325","0.0-311.0","3NC5L260MP8NECOK3IPEI08X5JEFOA","A2J1ANUL0BYKUK","30F94FBDNR6BS3JI3VKF41RBJN4TBU","","null","<img src=""img/food5.png"" style=""width:200px; border:14px solid green;"">","null","","","","","","",""
"","image-keyboard-response","271","131526","0.0-313.0","3NC5L260MP8NECOK3IPEI08X5JEFOA","A2J1ANUL0BYKUK","30F94FBDNR6BS3JI3VKF41RBJN4TBU","","200.20000004768372","img/food3.png","74","200.89999985694885","1","1","1","1,0.5,0,1,0.5,0,0.5,0,1","false",""
"","html-keyboard-response","272","131827","0.0-314.0","3NC5L260MP8NECOK3IPEI08X5JEFOA","A2J1ANUL0BYKUK","30F94FBDNR6BS3JI3VKF41RBJN4TBU","","null","<img src=""img/food3.png"" style=""width:200px; border:14px solid green;"">","null","","","","","","",""
"","image-keyboard-response","273","131984","0.0-316.0","3NC5L260MP8NECOK3IPEI08X5JEFOA","A2J1ANUL0BYKUK","30F94FBDNR6BS3JI3VKF41RBJN4TBU","","156.29999995231628","img/food3.png","74","156.90000009536743","1","1","1","1,0.5,0,1,0.5,0,0.5,0,1","false",""
"","html-keyboard-response","274","132286","0.0-317.0","3NC5L260MP8NECOK3IPEI08X5JEFOA","A2J1ANUL0BYKUK","30F94FBDNR6BS3JI3VKF41RBJN4TBU","","null","<img src=""img/food3.png"" style=""width:200px; border:14px solid green;"">","null","","","","","","",""
"","image-keyboard-response","275","132423","0.0-319.0","3NC5L260MP8NECOK3IPEI08X5JEFOA","A2J1ANUL0BYKUK","30F94FBDNR6BS3JI3VKF41RBJN4TBU","","136.5","img/food1.png","74","137.20000004768372","1","1","2","1,0.5,0,1,0.5,0,0.5,0,1","false",""
"","html-keyboard-response","276","132725","0.0-320.0","3NC5L260MP8NECOK3IPEI08X5JEFOA","A2J1ANUL0BYKUK","30F94FBDNR6BS3JI3VKF41RBJN4TBU","","null","<img src=""img/food1.png"" style=""width:200px; border:14px solid green;"">","null","","","","","","",""
"","image-keyboard-response","277","132922","0.0-322.0","3NC5L260MP8NECOK3IPEI08X5JEFOA","A2J1ANUL0BYKUK","30F94FBDNR6BS3JI3VKF41RBJN4TBU","","196.70000004768372","img/food3.png","74","197.09999990463257","1","1","1","1,0.5,0,1,0.5,0,0.5,0,1","false",""
"","html-keyboard-response","278","133224","0.0-323.0","3NC5L260MP8NECOK3IPEI08X5JEFOA","A2J1ANUL0BYKUK","30F94FBDNR6BS3JI3VKF41RBJN4TBU","","null","<img src=""img/food3.png"" style=""width:200px; border:14px solid green;"">","null","","","","","","",""
"","image-keyboard-response","279","133362","0.0-325.0","3NC5L260MP8NECOK3IPEI08X5JEFOA","A2J1ANUL0BYKUK","30F94FBDNR6BS3JI3VKF41RBJN4TBU","","137.29999995231628","img/food1.png","74","137.79999995231628","1","1","2","1,0.5,0,1,0.5,0,0.5,0,1","false",""
"","html-keyboard-response","280","133665","0.0-326.0","3NC5L260MP8NECOK3IPEI08X5JEFOA","A2J1ANUL0BYKUK","30F94FBDNR6BS3JI3VKF41RBJN4TBU","","null","<img src=""img/food1.png"" style=""width:200px; border:14px solid green;"">","null","","","","","","",""
"","image-keyboard-response","281","133807","0.0-328.0","3NC5L260MP8NECOK3IPEI08X5JEFOA","A2J1ANUL0BYKUK","30F94FBDNR6BS3JI3VKF41RBJN4TBU","","142","img/food5.png","74","142.40000009536743","1","0","3","1,0.5,0,1,0.5,0,0.5,0,1","false",""
"","html-keyboard-response","282","134121","0.0-329.0","3NC5L260MP8NECOK3IPEI08X5JEFOA","A2J1ANUL0BYKUK","30F94FBDNR6BS3JI3VKF41RBJN4TBU","","null","<img src=""img/food5.png"" style=""width:200px;border:14px solid red;"">","null","","","","","","",""
"","image-keyboard-response","283","134290","0.0-331.0","3NC5L260MP8NECOK3IPEI08X5JEFOA","A2J1ANUL0BYKUK","30F94FBDNR6BS3JI3VKF41RBJN4TBU","","168.39999985694885","img/food5.png","74","168.89999985694885","1","0","3","1,0.5,0,1,0.5,0,0.5,0,1","false",""
"","html-keyboard-response","284","134591","0.0-332.0","3NC5L260MP8NECOK3IPEI08X5JEFOA","A2J1ANUL0BYKUK","30F94FBDNR6BS3JI3VKF41RBJN4TBU","","null","<img src=""img/food5.png"" style=""width:200px;border:14px solid red;"">","null","","","","","","",""
"","image-keyboard-response","285","134799","0.0-334.0","3NC5L260MP8NECOK3IPEI08X5JEFOA","A2J1ANUL0BYKUK","30F94FBDNR6BS3JI3VKF41RBJN4TBU","","207.39999985694885","img/food1.png","74","207.79999995231628","1","1","2","1,0.5,0,1,0.5,0,0.5,0,1","false",""
"","html-keyboard-response","286","135101","0.0-335.0","3NC5L260MP8NECOK3IPEI08X5JEFOA","A2J1ANUL0BYKUK","30F94FBDNR6BS3JI3VKF41RBJN4TBU","","null","<img src=""img/food1.png"" style=""width:200px; border:14px solid green;"">","null","","","","","","",""
"","image-keyboard-response","287","135274","0.0-337.0","3NC5L260MP8NECOK3IPEI08X5JEFOA","A2J1ANUL0BYKUK","30F94FBDNR6BS3JI3VKF41RBJN4TBU","","171.79999995231628","img/food1.png","74","172.40000009536743","1","1","2","1,0.5,0,1,0.5,0,0.5,0,1","false",""
"","html-keyboard-response","288","135576","0.0-338.0","3NC5L260MP8NECOK3IPEI08X5JEFOA","A2J1ANUL0BYKUK","30F94FBDNR6BS3JI3VKF41RBJN4TBU","","null","<img src=""img/food1.png"" style=""width:200px; border:14px solid green;"">","null","","","","","","",""
"","image-keyboard-response","289","135779","0.0-340.0","3NC5L260MP8NECOK3IPEI08X5JEFOA","A2J1ANUL0BYKUK","30F94FBDNR6BS3JI3VKF41RBJN4TBU","","203","img/food3.png","74","203.39999985694885","1","1","1","1,0.5,0,1,0.5,0,0.5,0,1","false",""
"","html-keyboard-response","290","136081","0.0-341.0","3NC5L260MP8NECOK3IPEI08X5JEFOA","A2J1ANUL0BYKUK","30F94FBDNR6BS3JI3VKF41RBJN4TBU","","null","<img src=""img/food3.png"" style=""width:200px; border:14px solid green;"">","null","","","","","","",""
"","image-keyboard-response","291","136251","0.0-343.0","3NC5L260MP8NECOK3IPEI08X5JEFOA","A2J1ANUL0BYKUK","30F94FBDNR6BS3JI3VKF41RBJN4TBU","","169.20000004768372","img/food5.png","74","169.59999990463257","1","1","3","1,0.5,0,1,0.5,0,0.5,0,1","false",""
"","html-keyboard-response","292","136552","0.0-344.0","3NC5L260MP8NECOK3IPEI08X5JEFOA","A2J1ANUL0BYKUK","30F94FBDNR6BS3JI3VKF41RBJN4TBU","","null","<img src=""img/food5.png"" style=""width:200px; border:14px solid green;"">","null","","","","","","",""
"","image-keyboard-response","293","136757","0.0-346.0","3NC5L260MP8NECOK3IPEI08X5JEFOA","A2J1ANUL0BYKUK","30F94FBDNR6BS3JI3VKF41RBJN4TBU","","204.29999995231628","img/food1.png","74","204.79999995231628","1","1","2","1,0.5,0,1,0.5,0,0.5,0,1","false",""
"","html-keyboard-response","294","137058","0.0-347.0","3NC5L260MP8NECOK3IPEI08X5JEFOA","A2J1ANUL0BYKUK","30F94FBDNR6BS3JI3VKF41RBJN4TBU","","null","<img src=""img/food1.png"" style=""width:200px; border:14px solid green;"">","null","","","","","","",""
"","image-keyboard-response","295","137241","0.0-349.0","3NC5L260MP8NECOK3IPEI08X5JEFOA","A2J1ANUL0BYKUK","30F94FBDNR6BS3JI3VKF41RBJN4TBU","","182.10000014305115","img/food1.png","74","182.60000014305115","1","1","2","1,0.5,0,1,0.5,0,0.5,0,1","false",""
"","html-keyboard-response","296","137542","0.0-350.0","3NC5L260MP8NECOK3IPEI08X5JEFOA","A2J1ANUL0BYKUK","30F94FBDNR6BS3JI3VKF41RBJN4TBU","","null","<img src=""img/food1.png"" style=""width:200px; border:14px solid green;"">","null","","","","","","",""
"","image-keyboard-response","297","137731","0.0-352.0","3NC5L260MP8NECOK3IPEI08X5JEFOA","A2J1ANUL0BYKUK","30F94FBDNR6BS3JI3VKF41RBJN4TBU","","188.70000004768372","img/food1.png","74","189.09999990463257","1","1","2","1,0.5,0,1,0.5,0,0.5,0,1","false",""
"","html-keyboard-response","298","138034","0.0-353.0","3NC5L260MP8NECOK3IPEI08X5JEFOA","A2J1ANUL0BYKUK","30F94FBDNR6BS3JI3VKF41RBJN4TBU","","null","<img src=""img/food1.png"" style=""width:200px; border:14px solid green;"">","null","","","","","","",""
"","image-keyboard-response","299","138260","0.0-355.0","3NC5L260MP8NECOK3IPEI08X5JEFOA","A2J1ANUL0BYKUK","30F94FBDNR6BS3JI3VKF41RBJN4TBU","","225.40000009536743","img/food3.png","74","225.79999995231628","1","1","1","1,0.5,0,1,0.5,0,0.5,0,1","false",""
"","html-keyboard-response","300","138561","0.0-356.0","3NC5L260MP8NECOK3IPEI08X5JEFOA","A2J1ANUL0BYKUK","30F94FBDNR6BS3JI3VKF41RBJN4TBU","","null","<img src=""img/food3.png"" style=""width:200px; border:14px solid green;"">","null","","","","","","",""
"","image-keyboard-response","301","138691","0.0-358.0","3NC5L260MP8NECOK3IPEI08X5JEFOA","A2J1ANUL0BYKUK","30F94FBDNR6BS3JI3VKF41RBJN4TBU","","128.70000004768372","img/food5.png","74","129.19999980926514","1","1","3","1,0.5,0,1,0.5,0,0.5,0,1","false",""
"","html-keyboard-response","302","138992","0.0-359.0","3NC5L260MP8NECOK3IPEI08X5JEFOA","A2J1ANUL0BYKUK","30F94FBDNR6BS3JI3VKF41RBJN4TBU","","null","<img src=""img/food5.png"" style=""width:200px; border:14px solid green;"">","null","","","","","","",""
"","image-keyboard-response","303","139163","0.0-361.0","3NC5L260MP8NECOK3IPEI08X5JEFOA","A2J1ANUL0BYKUK","30F94FBDNR6BS3JI3VKF41RBJN4TBU","","169.5","img/food3.png","74","170","1","1","1","1,0.5,0,1,0.5,0,0.5,0,1","false",""
"","html-keyboard-response","304","139465","0.0-362.0","3NC5L260MP8NECOK3IPEI08X5JEFOA","A2J1ANUL0BYKUK","30F94FBDNR6BS3JI3VKF41RBJN4TBU","","null","<img src=""img/food3.png"" style=""width:200px; border:14px solid green;"">","null","","","","","","",""
"","image-keyboard-response","305","139649","0.0-364.0","3NC5L260MP8NECOK3IPEI08X5JEFOA","A2J1ANUL0BYKUK","30F94FBDNR6BS3JI3VKF41RBJN4TBU","","183.59999990463257","img/food5.png","74","184.09999990463257","1","1","3","1,0.5,0,1,0.5,0,0.5,0,1","false",""
"","html-keyboard-response","306","139950","0.0-365.0","3NC5L260MP8NECOK3IPEI08X5JEFOA","A2J1ANUL0BYKUK","30F94FBDNR6BS3JI3VKF41RBJN4TBU","","null","<img src=""img/food5.png"" style=""width:200px; border:14px solid green;"">","null","","","","","","",""
"","image-keyboard-response","307","140126","0.0-367.0","3NC5L260MP8NECOK3IPEI08X5JEFOA","A2J1ANUL0BYKUK","30F94FBDNR6BS3JI3VKF41RBJN4TBU","","175.5","img/food3.png","74","176","1","1","1","1,0.5,0,1,0.5,0,0.5,0,1","false",""
"","html-keyboard-response","308","140428","0.0-368.0","3NC5L260MP8NECOK3IPEI08X5JEFOA","A2J1ANUL0BYKUK","30F94FBDNR6BS3JI3VKF41RBJN4TBU","","null","<img src=""img/food3.png"" style=""width:200px; border:14px solid green;"">","null","","","","","","",""
"","image-keyboard-response","309","140558","0.0-370.0","3NC5L260MP8NECOK3IPEI08X5JEFOA","A2J1ANUL0BYKUK","30F94FBDNR6BS3JI3VKF41RBJN4TBU","","129.5","img/food5.png","74","129.90000009536743","1","0","3","1,0.5,0,1,0.5,0,0.5,0,1","false",""
"","html-keyboard-response","310","140860","0.0-371.0","3NC5L260MP8NECOK3IPEI08X5JEFOA","A2J1ANUL0BYKUK","30F94FBDNR6BS3JI3VKF41RBJN4TBU","","null","<img src=""img/food5.png"" style=""width:200px;border:14px solid red;"">","null","","","","","","",""
"","image-keyboard-response","311","141092","0.0-373.0","3NC5L260MP8NECOK3IPEI08X5JEFOA","A2J1ANUL0BYKUK","30F94FBDNR6BS3JI3VKF41RBJN4TBU","","231","img/food1.png","74","231.5","1","1","2","1,0.5,0,1,0.5,0,0.5,0,1","false",""
"","html-keyboard-response","312","141395","0.0-374.0","3NC5L260MP8NECOK3IPEI08X5JEFOA","A2J1ANUL0BYKUK","30F94FBDNR6BS3JI3VKF41RBJN4TBU","","null","<img src=""img/food1.png"" style=""width:200px; border:14px solid green;"">","null","","","","","","",""
"","image-keyboard-response","313","141530","0.0-376.0","3NC5L260MP8NECOK3IPEI08X5JEFOA","A2J1ANUL0BYKUK","30F94FBDNR6BS3JI3VKF41RBJN4TBU","","134.59999990463257","img/food3.png","74","135","1","1","1","1,0.5,0,1,0.5,0,0.5,0,1","false",""
"","html-keyboard-response","314","141832","0.0-377.0","3NC5L260MP8NECOK3IPEI08X5JEFOA","A2J1ANUL0BYKUK","30F94FBDNR6BS3JI3VKF41RBJN4TBU","","null","<img src=""img/food3.png"" style=""width:200px; border:14px solid green;"">","null","","","","","","",""
"","image-keyboard-response","315","142035","0.0-379.0","3NC5L260MP8NECOK3IPEI08X5JEFOA","A2J1ANUL0BYKUK","30F94FBDNR6BS3JI3VKF41RBJN4TBU","","201.90000009536743","img/food1.png","74","202.5","1","1","2","1,0.5,0,1,0.5,0,0.5,0,1","false",""
"","html-keyboard-response","316","142337","0.0-380.0","3NC5L260MP8NECOK3IPEI08X5JEFOA","A2J1ANUL0BYKUK","30F94FBDNR6BS3JI3VKF41RBJN4TBU","","null","<img src=""img/food1.png"" style=""width:200px; border:14px solid green;"">","null","","","","","","",""
"","image-keyboard-response","317","142506","0.0-382.0","3NC5L260MP8NECOK3IPEI08X5JEFOA","A2J1ANUL0BYKUK","30F94FBDNR6BS3JI3VKF41RBJN4TBU","","168.29999995231628","img/food3.png","74","168.60000014305115","1","1","1","1,0.5,0,1,0.5,0,0.5,0,1","false",""
"","html-keyboard-response","318","142807","0.0-383.0","3NC5L260MP8NECOK3IPEI08X5JEFOA","A2J1ANUL0BYKUK","30F94FBDNR6BS3JI3VKF41RBJN4TBU","","null","<img src=""img/food3.png"" style=""width:200px; border:14px solid green;"">","null","","","","","","",""
"","image-keyboard-response","319","142988","0.0-385.0","3NC5L260MP8NECOK3IPEI08X5JEFOA","A2J1ANUL0BYKUK","30F94FBDNR6BS3JI3VKF41RBJN4TBU","","179.69999980926514","img/food1.png","74","180.09999990463257","1","1","2","1,0.5,0,1,0.5,0,0.5,0,1","false",""
"","html-keyboard-response","320","143290","0.0-386.0","3NC5L260MP8NECOK3IPEI08X5JEFOA","A2J1ANUL0BYKUK","30F94FBDNR6BS3JI3VKF41RBJN4TBU","","null","<img src=""img/food1.png"" style=""width:200px; border:14px solid green;"">","null","","","","","","",""
"","image-keyboard-response","321","143372","0.0-388.0","3NC5L260MP8NECOK3IPEI08X5JEFOA","A2J1ANUL0BYKUK","30F94FBDNR6BS3JI3VKF41RBJN4TBU","","81.70000004768372","img/food3.png","74","82","1","1","1","1,0.5,0,1,0.5,0,0.5,0,1","false",""
"","html-keyboard-response","322","143675","0.0-389.0","3NC5L260MP8NECOK3IPEI08X5JEFOA","A2J1ANUL0BYKUK","30F94FBDNR6BS3JI3VKF41RBJN4TBU","","null","<img src=""img/food3.png"" style=""width:200px; border:14px solid green;"">","null","","","","","","",""
"","image-keyboard-response","323","143878","0.0-391.0","3NC5L260MP8NECOK3IPEI08X5JEFOA","A2J1ANUL0BYKUK","30F94FBDNR6BS3JI3VKF41RBJN4TBU","","201.29999995231628","img/food5.png","74","202","1","0","3","1,0.5,0,1,0.5,0,0.5,0,1","false",""
"","html-keyboard-response","324","144180","0.0-392.0","3NC5L260MP8NECOK3IPEI08X5JEFOA","A2J1ANUL0BYKUK","30F94FBDNR6BS3JI3VKF41RBJN4TBU","","null","<img src=""img/food5.png"" style=""width:200px;border:14px solid red;"">","null","","","","","","",""
"","image-keyboard-response","325","144330","0.0-394.0","3NC5L260MP8NECOK3IPEI08X5JEFOA","A2J1ANUL0BYKUK","30F94FBDNR6BS3JI3VKF41RBJN4TBU","","149.5","img/food3.png","74","149.89999985694885","1","1","1","1,0.5,0,1,0.5,0,0.5,0,1","false",""
"","html-keyboard-response","326","144632","0.0-395.0","3NC5L260MP8NECOK3IPEI08X5JEFOA","A2J1ANUL0BYKUK","30F94FBDNR6BS3JI3VKF41RBJN4TBU","","null","<img src=""img/food3.png"" style=""width:200px; border:14px solid green;"">","null","","","","","","",""
"","image-keyboard-response","327","144858","0.0-397.0","3NC5L260MP8NECOK3IPEI08X5JEFOA","A2J1ANUL0BYKUK","30F94FBDNR6BS3JI3VKF41RBJN4TBU","","224.90000009536743","img/food1.png","74","225.39999985694885","1","1","2","1,0.5,0,1,0.5,0,0.5,0,1","false",""
"","html-keyboard-response","328","145160","0.0-398.0","3NC5L260MP8NECOK3IPEI08X5JEFOA","A2J1ANUL0BYKUK","30F94FBDNR6BS3JI3VKF41RBJN4TBU","","null","<img src=""img/food1.png"" style=""width:200px; border:14px solid green;"">","null","","","","","","",""
"","image-keyboard-response","329","145317","0.0-400.0","3NC5L260MP8NECOK3IPEI08X5JEFOA","A2J1ANUL0BYKUK","30F94FBDNR6BS3JI3VKF41RBJN4TBU","","155.70000004768372","img/food3.png","74","156.20000004768372","1","1","1","1,0.5,0,1,0.5,0,0.5,0,1","false",""
"","html-keyboard-response","330","145618","0.0-401.0","3NC5L260MP8NECOK3IPEI08X5JEFOA","A2J1ANUL0BYKUK","30F94FBDNR6BS3JI3VKF41RBJN4TBU","","null","<img src=""img/food3.png"" style=""width:200px; border:14px solid green;"">","null","","","","","","",""
"","image-keyboard-response","331","145823","0.0-403.0","3NC5L260MP8NECOK3IPEI08X5JEFOA","A2J1ANUL0BYKUK","30F94FBDNR6BS3JI3VKF41RBJN4TBU","","204.20000004768372","img/food5.png","74","204.79999995231628","1","1","3","1,0.5,0,1,0.5,0,0.5,0,1","false",""
"","html-keyboard-response","332","146125","0.0-404.0","3NC5L260MP8NECOK3IPEI08X5JEFOA","A2J1ANUL0BYKUK","30F94FBDNR6BS3JI3VKF41RBJN4TBU","","null","<img src=""img/food5.png"" style=""width:200px; border:14px solid green;"">","null","","","","","","",""
"","image-keyboard-response","333","146319","0.0-406.0","3NC5L260MP8NECOK3IPEI08X5JEFOA","A2J1ANUL0BYKUK","30F94FBDNR6BS3JI3VKF41RBJN4TBU","","193.5","img/food5.png","74","193.90000009536743","1","1","3","1,0.5,0,1,0.5,0,0.5,0,1","false",""
"","html-keyboard-response","334","146620","0.0-407.0","3NC5L260MP8NECOK3IPEI08X5JEFOA","A2J1ANUL0BYKUK","30F94FBDNR6BS3JI3VKF41RBJN4TBU","","null","<img src=""img/food5.png"" style=""width:200px; border:14px solid green;"">","null","","","","","","",""
"","image-keyboard-response","335","146761","0.0-409.0","3NC5L260MP8NECOK3IPEI08X5JEFOA","A2J1ANUL0BYKUK","30F94FBDNR6BS3JI3VKF41RBJN4TBU","","139.5","img/food1.png","74","140","1","1","2","1,0.5,0,1,0.5,0,0.5,0,1","false",""
"","html-keyboard-response","336","147063","0.0-410.0","3NC5L260MP8NECOK3IPEI08X5JEFOA","A2J1ANUL0BYKUK","30F94FBDNR6BS3JI3VKF41RBJN4TBU","","null","<img src=""img/food1.png"" style=""width:200px; border:14px solid green;"">","null","","","","","","",""
"","image-keyboard-response","337","147239","0.0-412.0","3NC5L260MP8NECOK3IPEI08X5JEFOA","A2J1ANUL0BYKUK","30F94FBDNR6BS3JI3VKF41RBJN4TBU","","175.59999990463257","img/food5.png","74","176.09999990463257","1","1","3","1,0.5,0,1,0.5,0,0.5,0,1","false",""
"","html-keyboard-response","338","147540","0.0-413.0","3NC5L260MP8NECOK3IPEI08X5JEFOA","A2J1ANUL0BYKUK","30F94FBDNR6BS3JI3VKF41RBJN4TBU","","null","<img src=""img/food5.png"" style=""width:200px; border:14px solid green;"">","null","","","","","","",""
"","image-keyboard-response","339","147749","0.0-415.0","3NC5L260MP8NECOK3IPEI08X5JEFOA","A2J1ANUL0BYKUK","30F94FBDNR6BS3JI3VKF41RBJN4TBU","","207.70000004768372","img/food5.png","74","208.09999990463257","1","1","3","1,0.5,0,1,0.5,0,0.5,0,1","false",""
"","html-keyboard-response","340","148050","0.0-416.0","3NC5L260MP8NECOK3IPEI08X5JEFOA","A2J1ANUL0BYKUK","30F94FBDNR6BS3JI3VKF41RBJN4TBU","","null","<img src=""img/food5.png"" style=""width:200px; border:14px solid green;"">","null","","","","","","",""
"","image-keyboard-response","341","148241","0.0-418.0","3NC5L260MP8NECOK3IPEI08X5JEFOA","A2J1ANUL0BYKUK","30F94FBDNR6BS3JI3VKF41RBJN4TBU","","189.59999990463257","img/food1.png","74","190.20000004768372","1","1","2","1,0.5,0,1,0.5,0,0.5,0,1","false",""
"","html-keyboard-response","342","148543","0.0-419.0","3NC5L260MP8NECOK3IPEI08X5JEFOA","A2J1ANUL0BYKUK","30F94FBDNR6BS3JI3VKF41RBJN4TBU","","null","<img src=""img/food1.png"" style=""width:200px; border:14px solid green;"">","null","","","","","","",""
"","image-keyboard-response","343","148746","0.0-421.0","3NC5L260MP8NECOK3IPEI08X5JEFOA","A2J1ANUL0BYKUK","30F94FBDNR6BS3JI3VKF41RBJN4TBU","","202.29999995231628","img/food5.png","74","202.70000004768372","1","1","3","1,0.5,0,1,0.5,0,0.5,0,1","false",""
"","html-keyboard-response","344","149047","0.0-422.0","3NC5L260MP8NECOK3IPEI08X5JEFOA","A2J1ANUL0BYKUK","30F94FBDNR6BS3JI3VKF41RBJN4TBU","","null","<img src=""img/food5.png"" style=""width:200px; border:14px solid green;"">","null","","","","","","",""
"","image-keyboard-response","345","149201","0.0-424.0","3NC5L260MP8NECOK3IPEI08X5JEFOA","A2J1ANUL0BYKUK","30F94FBDNR6BS3JI3VKF41RBJN4TBU","","152.79999995231628","img/food1.png","74","153.20000004768372","1","1","2","1,0.5,0,1,0.5,0,0.5,0,1","false",""
"","html-keyboard-response","346","149502","0.0-425.0","3NC5L260MP8NECOK3IPEI08X5JEFOA","A2J1ANUL0BYKUK","30F94FBDNR6BS3JI3VKF41RBJN4TBU","","null","<img src=""img/food1.png"" style=""width:200px; border:14px solid green;"">","null","","","","","","",""
"","image-keyboard-response","347","149710","0.0-427.0","3NC5L260MP8NECOK3IPEI08X5JEFOA","A2J1ANUL0BYKUK","30F94FBDNR6BS3JI3VKF41RBJN4TBU","","206.69999980926514","img/food3.png","74","207.20000004768372","1","1","1","1,0.5,0,1,0.5,0,0.5,0,1","false",""
"","html-keyboard-response","348","150012","0.0-428.0","3NC5L260MP8NECOK3IPEI08X5JEFOA","A2J1ANUL0BYKUK","30F94FBDNR6BS3JI3VKF41RBJN4TBU","","null","<img src=""img/food3.png"" style=""width:200px; border:14px solid green;"">","null","","","","","","",""
"","image-keyboard-response","349","150181","0.0-430.0","3NC5L260MP8NECOK3IPEI08X5JEFOA","A2J1ANUL0BYKUK","30F94FBDNR6BS3JI3VKF41RBJN4TBU","","168.59999990463257","img/food1.png","74","169","1","1","2","1,0.5,0,1,0.5,0,0.5,0,1","false",""
"","html-keyboard-response","350","150483","0.0-431.0","3NC5L260MP8NECOK3IPEI08X5JEFOA","A2J1ANUL0BYKUK","30F94FBDNR6BS3JI3VKF41RBJN4TBU","","null","<img src=""img/food1.png"" style=""width:200px; border:14px solid green;"">","null","","","","","","",""
"","image-keyboard-response","351","150699","0.0-433.0","3NC5L260MP8NECOK3IPEI08X5JEFOA","A2J1ANUL0BYKUK","30F94FBDNR6BS3JI3VKF41RBJN4TBU","","215.20000004768372","img/food1.png","74","215.5","1","1","2","1,0.5,0,1,0.5,0,0.5,0,1","false",""
"","html-keyboard-response","352","151001","0.0-434.0","3NC5L260MP8NECOK3IPEI08X5JEFOA","A2J1ANUL0BYKUK","30F94FBDNR6BS3JI3VKF41RBJN4TBU","","null","<img src=""img/food1.png"" style=""width:200px; border:14px solid green;"">","null","","","","","","",""
"","image-keyboard-response","353","151198","0.0-436.0","3NC5L260MP8NECOK3IPEI08X5JEFOA","A2J1ANUL0BYKUK","30F94FBDNR6BS3JI3VKF41RBJN4TBU","","196.09999990463257","img/food5.png","74","196.59999990463257","1","1","3","1,0.5,0,1,0.5,0,0.5,0,1","false",""
"","html-keyboard-response","354","151500","0.0-437.0","3NC5L260MP8NECOK3IPEI08X5JEFOA","A2J1ANUL0BYKUK","30F94FBDNR6BS3JI3VKF41RBJN4TBU","","null","<img src=""img/food5.png"" style=""width:200px; border:14px solid green;"">","null","","","","","","",""
"","image-keyboard-response","355","151676","0.0-439.0","3NC5L260MP8NECOK3IPEI08X5JEFOA","A2J1ANUL0BYKUK","30F94FBDNR6BS3JI3VKF41RBJN4TBU","","175.40000009536743","img/food5.png","74","175.90000009536743","1","1","3","1,0.5,0,1,0.5,0,0.5,0,1","false",""
"","html-keyboard-response","356","151977","0.0-440.0","3NC5L260MP8NECOK3IPEI08X5JEFOA","A2J1ANUL0BYKUK","30F94FBDNR6BS3JI3VKF41RBJN4TBU","","null","<img src=""img/food5.png"" style=""width:200px; border:14px solid green;"">","null","","","","","","",""
"","image-keyboard-response","357","152182","0.0-442.0","3NC5L260MP8NECOK3IPEI08X5JEFOA","A2J1ANUL0BYKUK","30F94FBDNR6BS3JI3VKF41RBJN4TBU","","204.10000014305115","img/food5.png","74","204.5","1","1","3","1,0.5,0,1,0.5,0,0.5,0,1","false",""
"","html-keyboard-response","358","152495","0.0-443.0","3NC5L260MP8NECOK3IPEI08X5JEFOA","A2J1ANUL0BYKUK","30F94FBDNR6BS3JI3VKF41RBJN4TBU","","null","<img src=""img/food5.png"" style=""width:200px; border:14px solid green;"">","null","","","","","","",""
"","image-keyboard-response","359","152638","0.0-445.0","3NC5L260MP8NECOK3IPEI08X5JEFOA","A2J1ANUL0BYKUK","30F94FBDNR6BS3JI3VKF41RBJN4TBU","","142.20000004768372","img/food3.png","74","142.69999980926514","1","1","1","1,0.5,0,1,0.5,0,0.5,0,1","false",""
"","html-keyboard-response","360","152939","0.0-446.0","3NC5L260MP8NECOK3IPEI08X5JEFOA","A2J1ANUL0BYKUK","30F94FBDNR6BS3JI3VKF41RBJN4TBU","","null","<img src=""img/food3.png"" style=""width:200px; border:14px solid green;"">","null","","","","","","",""
"","image-keyboard-response","361","153143","0.0-448.0","3NC5L260MP8NECOK3IPEI08X5JEFOA","A2J1ANUL0BYKUK","30F94FBDNR6BS3JI3VKF41RBJN4TBU","","203.90000009536743","img/food5.png","74","204.39999985694885","1","1","3","1,0.5,0,1,0.5,0,0.5,0,1","false",""
"","html-keyboard-response","362","153446","0.0-449.0","3NC5L260MP8NECOK3IPEI08X5JEFOA","A2J1ANUL0BYKUK","30F94FBDNR6BS3JI3VKF41RBJN4TBU","","null","<img src=""img/food5.png"" style=""width:200px; border:14px solid green;"">","null","","","","","","",""
"","image-keyboard-response","363","153661","0.0-451.0","3NC5L260MP8NECOK3IPEI08X5JEFOA","A2J1ANUL0BYKUK","30F94FBDNR6BS3JI3VKF41RBJN4TBU","","214.20000004768372","img/food1.png","74","214.59999990463257","1","1","2","1,0.5,0,1,0.5,0,0.5,0,1","false",""
"","html-keyboard-response","364","153962","0.0-452.0","3NC5L260MP8NECOK3IPEI08X5JEFOA","A2J1ANUL0BYKUK","30F94FBDNR6BS3JI3VKF41RBJN4TBU","","null","<img src=""img/food1.png"" style=""width:200px; border:14px solid green;"">","null","","","","","","",""
"","instructions","365","155867","0.0-454.0","3NC5L260MP8NECOK3IPEI08X5JEFOA","A2J1ANUL0BYKUK","30F94FBDNR6BS3JI3VKF41RBJN4TBU","[{""page_index"":0,""viewing_time"":1904.1000001430511}]","1904.2999999523163","","","","","","","","",""
"","survey-text","366","160415","0.0-455.0","3NC5L260MP8NECOK3IPEI08X5JEFOA","A2J1ANUL0BYKUK","30F94FBDNR6BS3JI3VKF41RBJN4TBU","","4546.700000047684","","","","","","","","","{""Q0"":""A2J1ANUL0BYKUK""}"
