"success","trial_type","trial_index","time_elapsed","internal_node_id","assignmentID","mturkID","hitID","view_history","rt","stimulus","key_press","reactionTime","a","r","s","reward_cond","warning","responses"
"true","fullscreen","0","2324","0.0-0.0","3KB8R4ZV1FT99IV6AXQAU18A0AGGBE","A2JDYN6QM8M5UN","3KVQ0UJWPX71V463XQYDOZYIDLRW5D","","","","","","","","","","",""
"","instructions","1","11699","0.0-1.0","3KB8R4ZV1FT99IV6AXQAU18A0AGGBE","A2JDYN6QM8M5UN","3KVQ0UJWPX71V463XQYDOZYIDLRW5D","[{""page_index"":0,""viewing_time"":3683.900000035763},{""page_index"":1,""viewing_time"":687},{""page_index"":2,""viewing_time"":347.89999997615814},{""page_index"":3,""viewing_time"":1053.300000011921},{""page_index"":4,""viewing_time"":1187.300000011921},{""page_index"":5,""viewing_time"":1364.300000011921},{""page_index"":6,""viewing_time"":1048.0999999642372}]","9372.5","","","","","","","","",""
"","image-keyboard-response","2","12315","0.0-2.0","3KB8R4ZV1FT99IV6AXQAU18A0AGGBE","A2JDYN6QM8M5UN","3KVQ0UJWPX71V463XQYDOZYIDLRW5D","","613.6999999880791","img/food3.png","74","615.6999999880791","1","1","3","1,0.7,0,1,0.7,0,0.7,0,1","",""
"","html-keyboard-response","3","12618","0.0-3.0","3KB8R4ZV1FT99IV6AXQAU18A0AGGBE","A2JDYN6QM8M5UN","3KVQ0UJWPX71V463XQYDOZYIDLRW5D","","null","<img src=""img/food3.png"" style=""width:200px; border:14px solid green;"">","null","","","","","","",""
"","image-keyboard-response","4","13346","0.0-4.0","3KB8R4ZV1FT99IV6AXQAU18A0AGGBE","A2JDYN6QM8M5UN","3KVQ0UJWPX71V463XQYDOZYIDLRW5D","","726.5999999642372","img/food1.png","75","728.4000000357628","2","0","2","1,0.7,0,1,0.7,0,0.7,0,1","",""
"","html-keyboard-response","5","13659","0.0-5.0","3KB8R4ZV1FT99IV6AXQAU18A0AGGBE","A2JDYN6QM8M5UN","3KVQ0UJWPX71V463XQYDOZYIDLRW5D","","null","<img src=""img/food1.png"" style=""width:200px;border:14px solid red;"">","null","","","","","","",""
"","image-keyboard-response","6","14442","0.0-6.0","3KB8R4ZV1FT99IV6AXQAU18A0AGGBE","A2JDYN6QM8M5UN","3KVQ0UJWPX71V463XQYDOZYIDLRW5D","","780.2999999523163","img/food1.png","74","782","1","1","2","1,0.7,0,1,0.7,0,0.7,0,1","",""
"","html-keyboard-response","7","14759","0.0-7.0","3KB8R4ZV1FT99IV6AXQAU18A0AGGBE","A2JDYN6QM8M5UN","3KVQ0UJWPX71V463XQYDOZYIDLRW5D","","null","<img src=""img/food1.png"" style=""width:200px; border:14px solid green;"">","null","","","","","","",""
"","image-keyboard-response","8","15137","0.0-8.0","3KB8R4ZV1FT99IV6AXQAU18A0AGGBE","A2JDYN6QM8M5UN","3KVQ0UJWPX71V463XQYDOZYIDLRW5D","","376.19999998807907","img/food1.png","74","378","1","1","2","1,0.7,0,1,0.7,0,0.7,0,1","",""
"","html-keyboard-response","9","15450","0.0-9.0","3KB8R4ZV1FT99IV6AXQAU18A0AGGBE","A2JDYN6QM8M5UN","3KVQ0UJWPX71V463XQYDOZYIDLRW5D","","null","<img src=""img/food1.png"" style=""width:200px; border:14px solid green;"">","null","","","","","","",""
"","image-keyboard-response","10","15795","0.0-10.0","3KB8R4ZV1FT99IV6AXQAU18A0AGGBE","A2JDYN6QM8M5UN","3KVQ0UJWPX71V463XQYDOZYIDLRW5D","","341.4000000357628","img/food1.png","74","344.10000002384186","1","1","2","1,0.7,0,1,0.7,0,0.7,0,1","",""
"","html-keyboard-response","11","16107","0.0-11.0","3KB8R4ZV1FT99IV6AXQAU18A0AGGBE","A2JDYN6QM8M5UN","3KVQ0UJWPX71V463XQYDOZYIDLRW5D","","null","<img src=""img/food1.png"" style=""width:200px; border:14px solid green;"">","null","","","","","","",""
"","image-keyboard-response","12","17362","0.0-12.0","3KB8R4ZV1FT99IV6AXQAU18A0AGGBE","A2JDYN6QM8M5UN","3KVQ0UJWPX71V463XQYDOZYIDLRW5D","","1252.5999999642372","img/food6.png","76","1254.300000011921","3","0","1","1,0.7,0,1,0.7,0,0.7,0,1","",""
"","html-keyboard-response","13","17668","0.0-13.0","3KB8R4ZV1FT99IV6AXQAU18A0AGGBE","A2JDYN6QM8M5UN","3KVQ0UJWPX71V463XQYDOZYIDLRW5D","","null","<img src=""img/food6.png"" style=""width:200px;border:14px solid red;"">","null","","","","","","",""
"","image-keyboard-response","14","18306","0.0-14.0","3KB8R4ZV1FT99IV6AXQAU18A0AGGBE","A2JDYN6QM8M5UN","3KVQ0UJWPX71V463XQYDOZYIDLRW5D","","635.1999999880791","img/food3.png","74","636.8999999761581","1","1","3","1,0.7,0,1,0.7,0,0.7,0,1","",""
"","html-keyboard-response","15","18618","0.0-15.0","3KB8R4ZV1FT99IV6AXQAU18A0AGGBE","A2JDYN6QM8M5UN","3KVQ0UJWPX71V463XQYDOZYIDLRW5D","","null","<img src=""img/food3.png"" style=""width:200px; border:14px solid green;"">","null","","","","","","",""
"","image-keyboard-response","16","19409","0.0-16.0","3KB8R4ZV1FT99IV6AXQAU18A0AGGBE","A2JDYN6QM8M5UN","3KVQ0UJWPX71V463XQYDOZYIDLRW5D","","789.8000000119209","img/food1.png","74","791.2999999523163","1","1","2","1,0.7,0,1,0.7,0,0.7,0,1","",""
"","html-keyboard-response","17","19725","0.0-17.0","3KB8R4ZV1FT99IV6AXQAU18A0AGGBE","A2JDYN6QM8M5UN","3KVQ0UJWPX71V463XQYDOZYIDLRW5D","","null","<img src=""img/food1.png"" style=""width:200px; border:14px solid green;"">","null","","","","","","",""
"","image-keyboard-response","18","20409","0.0-18.0","3KB8R4ZV1FT99IV6AXQAU18A0AGGBE","A2JDYN6QM8M5UN","3KVQ0UJWPX71V463XQYDOZYIDLRW5D","","682.4000000357628","img/food3.png","74","684","1","0","3","1,0.7,0,1,0.7,0,0.7,0,1","",""
"","html-keyboard-response","19","20715","0.0-19.0","3KB8R4ZV1FT99IV6AXQAU18A0AGGBE","A2JDYN6QM8M5UN","3KVQ0UJWPX71V463XQYDOZYIDLRW5D","","null","<img src=""img/food3.png"" style=""width:200px;border:14px solid red;"">","null","","","","","","",""
"","image-keyboard-response","20","21442","0.0-20.0","3KB8R4ZV1FT99IV6AXQAU18A0AGGBE","A2JDYN6QM8M5UN","3KVQ0UJWPX71V463XQYDOZYIDLRW5D","","725.1000000238419","img/food6.png","74","726.5999999642372","1","1","1","1,0.7,0,1,0.7,0,0.7,0,1","",""
"","html-keyboard-response","21","21746","0.0-21.0","3KB8R4ZV1FT99IV6AXQAU18A0AGGBE","A2JDYN6QM8M5UN","3KVQ0UJWPX71V463XQYDOZYIDLRW5D","","null","<img src=""img/food6.png"" style=""width:200px; border:14px solid green;"">","null","","","","","","",""
"","image-keyboard-response","22","22346","0.0-22.0","3KB8R4ZV1FT99IV6AXQAU18A0AGGBE","A2JDYN6QM8M5UN","3KVQ0UJWPX71V463XQYDOZYIDLRW5D","","597.7999999523163","img/food1.png","74","599.1000000238419","1","1","2","1,0.7,0,1,0.7,0,0.7,0,1","",""
"","html-keyboard-response","23","22652","0.0-23.0","3KB8R4ZV1FT99IV6AXQAU18A0AGGBE","A2JDYN6QM8M5UN","3KVQ0UJWPX71V463XQYDOZYIDLRW5D","","null","<img src=""img/food1.png"" style=""width:200px; border:14px solid green;"">","null","","","","","","",""
"","image-keyboard-response","24","23465","0.0-24.0","3KB8R4ZV1FT99IV6AXQAU18A0AGGBE","A2JDYN6QM8M5UN","3KVQ0UJWPX71V463XQYDOZYIDLRW5D","","812.3000000119209","img/food3.png","75","813.5","2","0","3","1,0.7,0,1,0.7,0,0.7,0,1","",""
"","html-keyboard-response","25","23779","0.0-25.0","3KB8R4ZV1FT99IV6AXQAU18A0AGGBE","A2JDYN6QM8M5UN","3KVQ0UJWPX71V463XQYDOZYIDLRW5D","","null","<img src=""img/food3.png"" style=""width:200px;border:14px solid red;"">","null","","","","","","",""
"","image-keyboard-response","26","24378","0.0-26.0","3KB8R4ZV1FT99IV6AXQAU18A0AGGBE","A2JDYN6QM8M5UN","3KVQ0UJWPX71V463XQYDOZYIDLRW5D","","596.5999999642372","img/food3.png","76","598.0999999642372","3","1","3","1,0.7,0,1,0.7,0,0.7,0,1","",""
"","html-keyboard-response","27","24690","0.0-27.0","3KB8R4ZV1FT99IV6AXQAU18A0AGGBE","A2JDYN6QM8M5UN","3KVQ0UJWPX71V463XQYDOZYIDLRW5D","","null","<img src=""img/food3.png"" style=""width:200px; border:14px solid green;"">","null","","","","","","",""
"","image-keyboard-response","28","25234","0.0-28.0","3KB8R4ZV1FT99IV6AXQAU18A0AGGBE","A2JDYN6QM8M5UN","3KVQ0UJWPX71V463XQYDOZYIDLRW5D","","542","img/food6.png","74","543.6999999880791","1","1","1","1,0.7,0,1,0.7,0,0.7,0,1","",""
"","html-keyboard-response","29","25550","0.0-29.0","3KB8R4ZV1FT99IV6AXQAU18A0AGGBE","A2JDYN6QM8M5UN","3KVQ0UJWPX71V463XQYDOZYIDLRW5D","","null","<img src=""img/food6.png"" style=""width:200px; border:14px solid green;"">","null","","","","","","",""
"","image-keyboard-response","30","25994","0.0-30.0","3KB8R4ZV1FT99IV6AXQAU18A0AGGBE","A2JDYN6QM8M5UN","3KVQ0UJWPX71V463XQYDOZYIDLRW5D","","441.69999998807907","img/food1.png","74","443.5","1","1","2","1,0.7,0,1,0.7,0,0.7,0,1","",""
"","html-keyboard-response","31","26299","0.0-31.0","3KB8R4ZV1FT99IV6AXQAU18A0AGGBE","A2JDYN6QM8M5UN","3KVQ0UJWPX71V463XQYDOZYIDLRW5D","","null","<img src=""img/food1.png"" style=""width:200px; border:14px solid green;"">","null","","","","","","",""
"","image-keyboard-response","32","26777","0.0-32.0","3KB8R4ZV1FT99IV6AXQAU18A0AGGBE","A2JDYN6QM8M5UN","3KVQ0UJWPX71V463XQYDOZYIDLRW5D","","476.89999997615814","img/food6.png","74","478.39999997615814","1","1","1","1,0.7,0,1,0.7,0,0.7,0,1","",""
"","html-keyboard-response","33","27079","0.0-33.0","3KB8R4ZV1FT99IV6AXQAU18A0AGGBE","A2JDYN6QM8M5UN","3KVQ0UJWPX71V463XQYDOZYIDLRW5D","","null","<img src=""img/food6.png"" style=""width:200px; border:14px solid green;"">","null","","","","","","",""
"","image-keyboard-response","34","27466","0.0-34.0","3KB8R4ZV1FT99IV6AXQAU18A0AGGBE","A2JDYN6QM8M5UN","3KVQ0UJWPX71V463XQYDOZYIDLRW5D","","385.69999998807907","img/food1.png","74","386.80000001192093","1","1","2","1,0.7,0,1,0.7,0,0.7,0,1","",""
"","html-keyboard-response","35","27768","0.0-35.0","3KB8R4ZV1FT99IV6AXQAU18A0AGGBE","A2JDYN6QM8M5UN","3KVQ0UJWPX71V463XQYDOZYIDLRW5D","","null","<img src=""img/food1.png"" style=""width:200px; border:14px solid green;"">","null","","","","","","",""
"","image-keyboard-response","36","28234","0.0-36.0","3KB8R4ZV1FT99IV6AXQAU18A0AGGBE","A2JDYN6QM8M5UN","3KVQ0UJWPX71V463XQYDOZYIDLRW5D","","464.69999998807907","img/food3.png","76","466.10000002384186","3","1","3","1,0.7,0,1,0.7,0,0.7,0,1","",""
"","html-keyboard-response","37","28551","0.0-37.0","3KB8R4ZV1FT99IV6AXQAU18A0AGGBE","A2JDYN6QM8M5UN","3KVQ0UJWPX71V463XQYDOZYIDLRW5D","","null","<img src=""img/food3.png"" style=""width:200px; border:14px solid green;"">","null","","","","","","",""
"","image-keyboard-response","38","29065","0.0-38.0","3KB8R4ZV1FT99IV6AXQAU18A0AGGBE","A2JDYN6QM8M5UN","3KVQ0UJWPX71V463XQYDOZYIDLRW5D","","512.9000000357628","img/food6.png","74","514.1000000238419","1","1","1","1,0.7,0,1,0.7,0,0.7,0,1","",""
"","html-keyboard-response","39","29380","0.0-39.0","3KB8R4ZV1FT99IV6AXQAU18A0AGGBE","A2JDYN6QM8M5UN","3KVQ0UJWPX71V463XQYDOZYIDLRW5D","","null","<img src=""img/food6.png"" style=""width:200px; border:14px solid green;"">","null","","","","","","",""
"","image-keyboard-response","40","29802","0.0-40.0","3KB8R4ZV1FT99IV6AXQAU18A0AGGBE","A2JDYN6QM8M5UN","3KVQ0UJWPX71V463XQYDOZYIDLRW5D","","420.19999998807907","img/food3.png","76","422","3","1","3","1,0.7,0,1,0.7,0,0.7,0,1","",""
"","html-keyboard-response","41","30105","0.0-41.0","3KB8R4ZV1FT99IV6AXQAU18A0AGGBE","A2JDYN6QM8M5UN","3KVQ0UJWPX71V463XQYDOZYIDLRW5D","","null","<img src=""img/food3.png"" style=""width:200px; border:14px solid green;"">","null","","","","","","",""
"","image-keyboard-response","42","30584","0.0-42.0","3KB8R4ZV1FT99IV6AXQAU18A0AGGBE","A2JDYN6QM8M5UN","3KVQ0UJWPX71V463XQYDOZYIDLRW5D","","477.80000001192093","img/food1.png","74","478.80000001192093","1","1","2","1,0.7,0,1,0.7,0,0.7,0,1","",""
"","html-keyboard-response","43","30887","0.0-43.0","3KB8R4ZV1FT99IV6AXQAU18A0AGGBE","A2JDYN6QM8M5UN","3KVQ0UJWPX71V463XQYDOZYIDLRW5D","","null","<img src=""img/food1.png"" style=""width:200px; border:14px solid green;"">","null","","","","","","",""
"","image-keyboard-response","44","31898","0.0-44.0","3KB8R4ZV1FT99IV6AXQAU18A0AGGBE","A2JDYN6QM8M5UN","3KVQ0UJWPX71V463XQYDOZYIDLRW5D","","1008.8999999761581","img/food6.png","74","1010.5999999642372","1","1","1","1,0.7,0,1,0.7,0,0.7,0,1","",""
"","html-keyboard-response","45","32201","0.0-45.0","3KB8R4ZV1FT99IV6AXQAU18A0AGGBE","A2JDYN6QM8M5UN","3KVQ0UJWPX71V463XQYDOZYIDLRW5D","","null","<img src=""img/food6.png"" style=""width:200px; border:14px solid green;"">","null","","","","","","",""
"","image-keyboard-response","46","32546","0.0-46.0","3KB8R4ZV1FT99IV6AXQAU18A0AGGBE","A2JDYN6QM8M5UN","3KVQ0UJWPX71V463XQYDOZYIDLRW5D","","342.89999997615814","img/food1.png","74","344.30000001192093","1","1","2","1,0.7,0,1,0.7,0,0.7,0,1","",""
"","html-keyboard-response","47","32849","0.0-47.0","3KB8R4ZV1FT99IV6AXQAU18A0AGGBE","A2JDYN6QM8M5UN","3KVQ0UJWPX71V463XQYDOZYIDLRW5D","","null","<img src=""img/food1.png"" style=""width:200px; border:14px solid green;"">","null","","","","","","",""
"","image-keyboard-response","48","33217","0.0-48.0","3KB8R4ZV1FT99IV6AXQAU18A0AGGBE","A2JDYN6QM8M5UN","3KVQ0UJWPX71V463XQYDOZYIDLRW5D","","366.7000000476837","img/food3.png","76","368.19999998807907","3","1","3","1,0.7,0,1,0.7,0,0.7,0,1","",""
"","html-keyboard-response","49","33520","0.0-49.0","3KB8R4ZV1FT99IV6AXQAU18A0AGGBE","A2JDYN6QM8M5UN","3KVQ0UJWPX71V463XQYDOZYIDLRW5D","","null","<img src=""img/food3.png"" style=""width:200px; border:14px solid green;"">","null","","","","","","",""
"","image-keyboard-response","50","34233","0.0-50.0","3KB8R4ZV1FT99IV6AXQAU18A0AGGBE","A2JDYN6QM8M5UN","3KVQ0UJWPX71V463XQYDOZYIDLRW5D","","711.5999999642372","img/food1.png","74","713.0999999642372","1","1","2","1,0.7,0,1,0.7,0,0.7,0,1","",""
"","html-keyboard-response","51","34536","0.0-51.0","3KB8R4ZV1FT99IV6AXQAU18A0AGGBE","A2JDYN6QM8M5UN","3KVQ0UJWPX71V463XQYDOZYIDLRW5D","","null","<img src=""img/food1.png"" style=""width:200px; border:14px solid green;"">","null","","","","","","",""
"","image-keyboard-response","52","34970","0.0-52.0","3KB8R4ZV1FT99IV6AXQAU18A0AGGBE","A2JDYN6QM8M5UN","3KVQ0UJWPX71V463XQYDOZYIDLRW5D","","431.7999999523163","img/food6.png","74","433.30000001192093","1","1","1","1,0.7,0,1,0.7,0,0.7,0,1","",""
"","html-keyboard-response","53","35273","0.0-53.0","3KB8R4ZV1FT99IV6AXQAU18A0AGGBE","A2JDYN6QM8M5UN","3KVQ0UJWPX71V463XQYDOZYIDLRW5D","","null","<img src=""img/food6.png"" style=""width:200px; border:14px solid green;"">","null","","","","","","",""
"","image-keyboard-response","54","35625","0.0-54.0","3KB8R4ZV1FT99IV6AXQAU18A0AGGBE","A2JDYN6QM8M5UN","3KVQ0UJWPX71V463XQYDOZYIDLRW5D","","349.7000000476837","img/food6.png","74","351.69999998807907","1","1","1","1,0.7,0,1,0.7,0,0.7,0,1","",""
"","html-keyboard-response","55","35927","0.0-55.0","3KB8R4ZV1FT99IV6AXQAU18A0AGGBE","A2JDYN6QM8M5UN","3KVQ0UJWPX71V463XQYDOZYIDLRW5D","","null","<img src=""img/food6.png"" style=""width:200px; border:14px solid green;"">","null","","","","","","",""
"","image-keyboard-response","56","36393","0.0-56.0","3KB8R4ZV1FT99IV6AXQAU18A0AGGBE","A2JDYN6QM8M5UN","3KVQ0UJWPX71V463XQYDOZYIDLRW5D","","465","img/food1.png","76","466.19999998807907","3","0","2","1,0.7,0,1,0.7,0,0.7,0,1","",""
"","html-keyboard-response","57","36696","0.0-57.0","3KB8R4ZV1FT99IV6AXQAU18A0AGGBE","A2JDYN6QM8M5UN","3KVQ0UJWPX71V463XQYDOZYIDLRW5D","","null","<img src=""img/food1.png"" style=""width:200px;border:14px solid red;"">","null","","","","","","",""
"","image-keyboard-response","58","37322","0.0-58.0","3KB8R4ZV1FT99IV6AXQAU18A0AGGBE","A2JDYN6QM8M5UN","3KVQ0UJWPX71V463XQYDOZYIDLRW5D","","623.8000000119209","img/food3.png","76","625.3000000119209","3","1","3","1,0.7,0,1,0.7,0,0.7,0,1","",""
"","html-keyboard-response","59","37624","0.0-59.0","3KB8R4ZV1FT99IV6AXQAU18A0AGGBE","A2JDYN6QM8M5UN","3KVQ0UJWPX71V463XQYDOZYIDLRW5D","","null","<img src=""img/food3.png"" style=""width:200px; border:14px solid green;"">","null","","","","","","",""
"","image-keyboard-response","60","38025","0.0-60.0","3KB8R4ZV1FT99IV6AXQAU18A0AGGBE","A2JDYN6QM8M5UN","3KVQ0UJWPX71V463XQYDOZYIDLRW5D","","399.5999999642372","img/food6.png","74","401.0999999642372","1","1","1","1,0.7,0,1,0.7,0,0.7,0,1","",""
"","html-keyboard-response","61","38328","0.0-61.0","3KB8R4ZV1FT99IV6AXQAU18A0AGGBE","A2JDYN6QM8M5UN","3KVQ0UJWPX71V463XQYDOZYIDLRW5D","","null","<img src=""img/food6.png"" style=""width:200px; border:14px solid green;"">","null","","","","","","",""
"","image-keyboard-response","62","38704","0.0-62.0","3KB8R4ZV1FT99IV6AXQAU18A0AGGBE","A2JDYN6QM8M5UN","3KVQ0UJWPX71V463XQYDOZYIDLRW5D","","374.69999998807907","img/food3.png","76","375.80000001192093","3","1","3","1,0.7,0,1,0.7,0,0.7,0,1","",""
"","html-keyboard-response","63","39006","0.0-63.0","3KB8R4ZV1FT99IV6AXQAU18A0AGGBE","A2JDYN6QM8M5UN","3KVQ0UJWPX71V463XQYDOZYIDLRW5D","","null","<img src=""img/food3.png"" style=""width:200px; border:14px solid green;"">","null","","","","","","",""
"","image-keyboard-response","64","39361","0.0-64.0","3KB8R4ZV1FT99IV6AXQAU18A0AGGBE","A2JDYN6QM8M5UN","3KVQ0UJWPX71V463XQYDOZYIDLRW5D","","353.30000001192093","img/food3.png","76","355","3","1","3","1,0.7,0,1,0.7,0,0.7,0,1","",""
"","html-keyboard-response","65","39664","0.0-65.0","3KB8R4ZV1FT99IV6AXQAU18A0AGGBE","A2JDYN6QM8M5UN","3KVQ0UJWPX71V463XQYDOZYIDLRW5D","","null","<img src=""img/food3.png"" style=""width:200px; border:14px solid green;"">","null","","","","","","",""
"","image-keyboard-response","66","40041","0.0-66.0","3KB8R4ZV1FT99IV6AXQAU18A0AGGBE","A2JDYN6QM8M5UN","3KVQ0UJWPX71V463XQYDOZYIDLRW5D","","375.5","img/food6.png","74","376.9000000357628","1","1","1","1,0.7,0,1,0.7,0,0.7,0,1","",""
"","html-keyboard-response","67","40343","0.0-67.0","3KB8R4ZV1FT99IV6AXQAU18A0AGGBE","A2JDYN6QM8M5UN","3KVQ0UJWPX71V463XQYDOZYIDLRW5D","","null","<img src=""img/food6.png"" style=""width:200px; border:14px solid green;"">","null","","","","","","",""
"","image-keyboard-response","68","40681","0.0-68.0","3KB8R4ZV1FT99IV6AXQAU18A0AGGBE","A2JDYN6QM8M5UN","3KVQ0UJWPX71V463XQYDOZYIDLRW5D","","335.9000000357628","img/food6.png","74","337.5","1","1","1","1,0.7,0,1,0.7,0,0.7,0,1","",""
"","html-keyboard-response","69","40983","0.0-69.0","3KB8R4ZV1FT99IV6AXQAU18A0AGGBE","A2JDYN6QM8M5UN","3KVQ0UJWPX71V463XQYDOZYIDLRW5D","","null","<img src=""img/food6.png"" style=""width:200px; border:14px solid green;"">","null","","","","","","",""
"","image-keyboard-response","70","41313","0.0-70.0","3KB8R4ZV1FT99IV6AXQAU18A0AGGBE","A2JDYN6QM8M5UN","3KVQ0UJWPX71V463XQYDOZYIDLRW5D","","327.80000001192093","img/food6.png","74","329","1","1","1","1,0.7,0,1,0.7,0,0.7,0,1","",""
"","html-keyboard-response","71","41615","0.0-71.0","3KB8R4ZV1FT99IV6AXQAU18A0AGGBE","A2JDYN6QM8M5UN","3KVQ0UJWPX71V463XQYDOZYIDLRW5D","","null","<img src=""img/food6.png"" style=""width:200px; border:14px solid green;"">","null","","","","","","",""
"","image-keyboard-response","72","42010","0.0-72.0","3KB8R4ZV1FT99IV6AXQAU18A0AGGBE","A2JDYN6QM8M5UN","3KVQ0UJWPX71V463XQYDOZYIDLRW5D","","393.19999998807907","img/food3.png","76","394.69999998807907","3","1","3","1,0.7,0,1,0.7,0,0.7,0,1","",""
"","html-keyboard-response","73","42312","0.0-73.0","3KB8R4ZV1FT99IV6AXQAU18A0AGGBE","A2JDYN6QM8M5UN","3KVQ0UJWPX71V463XQYDOZYIDLRW5D","","null","<img src=""img/food3.png"" style=""width:200px; border:14px solid green;"">","null","","","","","","",""
"","image-keyboard-response","74","42746","0.0-74.0","3KB8R4ZV1FT99IV6AXQAU18A0AGGBE","A2JDYN6QM8M5UN","3KVQ0UJWPX71V463XQYDOZYIDLRW5D","","431.69999998807907","img/food6.png","74","433.2999999523163","1","1","1","1,0.7,0,1,0.7,0,0.7,0,1","",""
"","html-keyboard-response","75","43048","0.0-75.0","3KB8R4ZV1FT99IV6AXQAU18A0AGGBE","A2JDYN6QM8M5UN","3KVQ0UJWPX71V463XQYDOZYIDLRW5D","","null","<img src=""img/food6.png"" style=""width:200px; border:14px solid green;"">","null","","","","","","",""
"","image-keyboard-response","76","43562","0.0-76.0","3KB8R4ZV1FT99IV6AXQAU18A0AGGBE","A2JDYN6QM8M5UN","3KVQ0UJWPX71V463XQYDOZYIDLRW5D","","512","img/food3.png","76","513.6000000238419","3","1","3","1,0.7,0,1,0.7,0,0.7,0,1","",""
"","html-keyboard-response","77","43864","0.0-77.0","3KB8R4ZV1FT99IV6AXQAU18A0AGGBE","A2JDYN6QM8M5UN","3KVQ0UJWPX71V463XQYDOZYIDLRW5D","","null","<img src=""img/food3.png"" style=""width:200px; border:14px solid green;"">","null","","","","","","",""
"","image-keyboard-response","78","44234","0.0-78.0","3KB8R4ZV1FT99IV6AXQAU18A0AGGBE","A2JDYN6QM8M5UN","3KVQ0UJWPX71V463XQYDOZYIDLRW5D","","368","img/food6.png","74","369.39999997615814","1","1","1","1,0.7,0,1,0.7,0,0.7,0,1","",""
"","html-keyboard-response","79","44536","0.0-79.0","3KB8R4ZV1FT99IV6AXQAU18A0AGGBE","A2JDYN6QM8M5UN","3KVQ0UJWPX71V463XQYDOZYIDLRW5D","","null","<img src=""img/food6.png"" style=""width:200px; border:14px solid green;"">","null","","","","","","",""
"","image-keyboard-response","80","44873","0.0-80.0","3KB8R4ZV1FT99IV6AXQAU18A0AGGBE","A2JDYN6QM8M5UN","3KVQ0UJWPX71V463XQYDOZYIDLRW5D","","336.0999999642372","img/food6.png","74","337.4000000357628","1","1","1","1,0.7,0,1,0.7,0,0.7,0,1","",""
"","html-keyboard-response","81","45176","0.0-81.0","3KB8R4ZV1FT99IV6AXQAU18A0AGGBE","A2JDYN6QM8M5UN","3KVQ0UJWPX71V463XQYDOZYIDLRW5D","","null","<img src=""img/food6.png"" style=""width:200px; border:14px solid green;"">","null","","","","","","",""
"","image-keyboard-response","82","45689","0.0-82.0","3KB8R4ZV1FT99IV6AXQAU18A0AGGBE","A2JDYN6QM8M5UN","3KVQ0UJWPX71V463XQYDOZYIDLRW5D","","511.5999999642372","img/food3.png","76","513.0999999642372","3","1","3","1,0.7,0,1,0.7,0,0.7,0,1","",""
"","html-keyboard-response","83","45992","0.0-83.0","3KB8R4ZV1FT99IV6AXQAU18A0AGGBE","A2JDYN6QM8M5UN","3KVQ0UJWPX71V463XQYDOZYIDLRW5D","","null","<img src=""img/food3.png"" style=""width:200px; border:14px solid green;"">","null","","","","","","",""
"","image-keyboard-response","84","46417","0.0-84.0","3KB8R4ZV1FT99IV6AXQAU18A0AGGBE","A2JDYN6QM8M5UN","3KVQ0UJWPX71V463XQYDOZYIDLRW5D","","423.19999998807907","img/food1.png","74","425.0999999642372","1","1","2","1,0.7,0,1,0.7,0,0.7,0,1","",""
"","html-keyboard-response","85","46721","0.0-85.0","3KB8R4ZV1FT99IV6AXQAU18A0AGGBE","A2JDYN6QM8M5UN","3KVQ0UJWPX71V463XQYDOZYIDLRW5D","","null","<img src=""img/food1.png"" style=""width:200px; border:14px solid green;"">","null","","","","","","",""
"","image-keyboard-response","86","47217","0.0-86.0","3KB8R4ZV1FT99IV6AXQAU18A0AGGBE","A2JDYN6QM8M5UN","3KVQ0UJWPX71V463XQYDOZYIDLRW5D","","494.39999997615814","img/food3.png","76","496","3","1","3","1,0.7,0,1,0.7,0,0.7,0,1","",""
"","html-keyboard-response","87","47520","0.0-87.0","3KB8R4ZV1FT99IV6AXQAU18A0AGGBE","A2JDYN6QM8M5UN","3KVQ0UJWPX71V463XQYDOZYIDLRW5D","","null","<img src=""img/food3.png"" style=""width:200px; border:14px solid green;"">","null","","","","","","",""
"","image-keyboard-response","88","47873","0.0-88.0","3KB8R4ZV1FT99IV6AXQAU18A0AGGBE","A2JDYN6QM8M5UN","3KVQ0UJWPX71V463XQYDOZYIDLRW5D","","351.89999997615814","img/food3.png","76","353.19999998807907","3","1","3","1,0.7,0,1,0.7,0,0.7,0,1","",""
"","html-keyboard-response","89","48176","0.0-89.0","3KB8R4ZV1FT99IV6AXQAU18A0AGGBE","A2JDYN6QM8M5UN","3KVQ0UJWPX71V463XQYDOZYIDLRW5D","","null","<img src=""img/food3.png"" style=""width:200px; border:14px solid green;"">","null","","","","","","",""
"","image-keyboard-response","90","48513","0.0-90.0","3KB8R4ZV1FT99IV6AXQAU18A0AGGBE","A2JDYN6QM8M5UN","3KVQ0UJWPX71V463XQYDOZYIDLRW5D","","335.7000000476837","img/food3.png","76","336.9000000357628","3","1","3","1,0.7,0,1,0.7,0,0.7,0,1","",""
"","html-keyboard-response","91","48816","0.0-91.0","3KB8R4ZV1FT99IV6AXQAU18A0AGGBE","A2JDYN6QM8M5UN","3KVQ0UJWPX71V463XQYDOZYIDLRW5D","","null","<img src=""img/food3.png"" style=""width:200px; border:14px solid green;"">","null","","","","","","",""
"","image-keyboard-response","92","49177","0.0-92.0","3KB8R4ZV1FT99IV6AXQAU18A0AGGBE","A2JDYN6QM8M5UN","3KVQ0UJWPX71V463XQYDOZYIDLRW5D","","359.19999998807907","img/food1.png","74","360.69999998807907","1","1","2","1,0.7,0,1,0.7,0,0.7,0,1","",""
"","html-keyboard-response","93","49480","0.0-93.0","3KB8R4ZV1FT99IV6AXQAU18A0AGGBE","A2JDYN6QM8M5UN","3KVQ0UJWPX71V463XQYDOZYIDLRW5D","","null","<img src=""img/food1.png"" style=""width:200px; border:14px solid green;"">","null","","","","","","",""
"","image-keyboard-response","94","49809","0.0-94.0","3KB8R4ZV1FT99IV6AXQAU18A0AGGBE","A2JDYN6QM8M5UN","3KVQ0UJWPX71V463XQYDOZYIDLRW5D","","327.89999997615814","img/food1.png","74","329.2999999523163","1","1","2","1,0.7,0,1,0.7,0,0.7,0,1","",""
"","html-keyboard-response","95","50112","0.0-95.0","3KB8R4ZV1FT99IV6AXQAU18A0AGGBE","A2JDYN6QM8M5UN","3KVQ0UJWPX71V463XQYDOZYIDLRW5D","","null","<img src=""img/food1.png"" style=""width:200px; border:14px solid green;"">","null","","","","","","",""
"","image-keyboard-response","96","50634","0.0-96.0","3KB8R4ZV1FT99IV6AXQAU18A0AGGBE","A2JDYN6QM8M5UN","3KVQ0UJWPX71V463XQYDOZYIDLRW5D","","520.3000000119209","img/food6.png","74","522.1999999880791","1","1","1","1,0.7,0,1,0.7,0,0.7,0,1","",""
"","html-keyboard-response","97","50937","0.0-97.0","3KB8R4ZV1FT99IV6AXQAU18A0AGGBE","A2JDYN6QM8M5UN","3KVQ0UJWPX71V463XQYDOZYIDLRW5D","","null","<img src=""img/food6.png"" style=""width:200px; border:14px solid green;"">","null","","","","","","",""
"","image-keyboard-response","98","51273","0.0-98.0","3KB8R4ZV1FT99IV6AXQAU18A0AGGBE","A2JDYN6QM8M5UN","3KVQ0UJWPX71V463XQYDOZYIDLRW5D","","334.60000002384186","img/food6.png","74","335.89999997615814","1","1","1","1,0.7,0,1,0.7,0,0.7,0,1","",""
"","html-keyboard-response","99","51577","0.0-99.0","3KB8R4ZV1FT99IV6AXQAU18A0AGGBE","A2JDYN6QM8M5UN","3KVQ0UJWPX71V463XQYDOZYIDLRW5D","","null","<img src=""img/food6.png"" style=""width:200px; border:14px solid green;"">","null","","","","","","",""
"","image-keyboard-response","100","51912","0.0-100.0","3KB8R4ZV1FT99IV6AXQAU18A0AGGBE","A2JDYN6QM8M5UN","3KVQ0UJWPX71V463XQYDOZYIDLRW5D","","333.7999999523163","img/food6.png","74","334.89999997615814","1","1","1","1,0.7,0,1,0.7,0,0.7,0,1","",""
"","html-keyboard-response","101","52214","0.0-101.0","3KB8R4ZV1FT99IV6AXQAU18A0AGGBE","A2JDYN6QM8M5UN","3KVQ0UJWPX71V463XQYDOZYIDLRW5D","","null","<img src=""img/food6.png"" style=""width:200px; border:14px solid green;"">","null","","","","","","",""
"","image-keyboard-response","102","52898","0.0-102.0","3KB8R4ZV1FT99IV6AXQAU18A0AGGBE","A2JDYN6QM8M5UN","3KVQ0UJWPX71V463XQYDOZYIDLRW5D","","682.3999999761581","img/food1.png","74","684","1","1","2","1,0.7,0,1,0.7,0,0.7,0,1","",""
"","html-keyboard-response","103","53201","0.0-103.0","3KB8R4ZV1FT99IV6AXQAU18A0AGGBE","A2JDYN6QM8M5UN","3KVQ0UJWPX71V463XQYDOZYIDLRW5D","","null","<img src=""img/food1.png"" style=""width:200px; border:14px solid green;"">","null","","","","","","",""
"","image-keyboard-response","104","53530","0.0-104.0","3KB8R4ZV1FT99IV6AXQAU18A0AGGBE","A2JDYN6QM8M5UN","3KVQ0UJWPX71V463XQYDOZYIDLRW5D","","326.69999998807907","img/food1.png","74","328.30000001192093","1","1","2","1,0.7,0,1,0.7,0,0.7,0,1","",""
"","html-keyboard-response","105","53832","0.0-105.0","3KB8R4ZV1FT99IV6AXQAU18A0AGGBE","A2JDYN6QM8M5UN","3KVQ0UJWPX71V463XQYDOZYIDLRW5D","","null","<img src=""img/food1.png"" style=""width:200px; border:14px solid green;"">","null","","","","","","",""
"","image-keyboard-response","106","54129","0.0-106.0","3KB8R4ZV1FT99IV6AXQAU18A0AGGBE","A2JDYN6QM8M5UN","3KVQ0UJWPX71V463XQYDOZYIDLRW5D","","295.89999997615814","img/food1.png","74","297.39999997615814","1","1","2","1,0.7,0,1,0.7,0,0.7,0,1","",""
"","html-keyboard-response","107","54432","0.0-107.0","3KB8R4ZV1FT99IV6AXQAU18A0AGGBE","A2JDYN6QM8M5UN","3KVQ0UJWPX71V463XQYDOZYIDLRW5D","","null","<img src=""img/food1.png"" style=""width:200px; border:14px solid green;"">","null","","","","","","",""
"","image-keyboard-response","108","54834","0.0-108.0","3KB8R4ZV1FT99IV6AXQAU18A0AGGBE","A2JDYN6QM8M5UN","3KVQ0UJWPX71V463XQYDOZYIDLRW5D","","400","img/food3.png","76","401.5","3","1","3","1,0.7,0,1,0.7,0,0.7,0,1","",""
"","html-keyboard-response","109","55136","0.0-109.0","3KB8R4ZV1FT99IV6AXQAU18A0AGGBE","A2JDYN6QM8M5UN","3KVQ0UJWPX71V463XQYDOZYIDLRW5D","","null","<img src=""img/food3.png"" style=""width:200px; border:14px solid green;"">","null","","","","","","",""
"","image-keyboard-response","110","55505","0.0-110.0","3KB8R4ZV1FT99IV6AXQAU18A0AGGBE","A2JDYN6QM8M5UN","3KVQ0UJWPX71V463XQYDOZYIDLRW5D","","365.9000000357628","img/food3.png","76","367.80000001192093","3","1","3","1,0.7,0,1,0.7,0,0.7,0,1","",""
"","html-keyboard-response","111","55807","0.0-111.0","3KB8R4ZV1FT99IV6AXQAU18A0AGGBE","A2JDYN6QM8M5UN","3KVQ0UJWPX71V463XQYDOZYIDLRW5D","","null","<img src=""img/food3.png"" style=""width:200px; border:14px solid green;"">","null","","","","","","",""
"","image-keyboard-response","112","56185","0.0-112.0","3KB8R4ZV1FT99IV6AXQAU18A0AGGBE","A2JDYN6QM8M5UN","3KVQ0UJWPX71V463XQYDOZYIDLRW5D","","376.30000001192093","img/food1.png","74","377.5","1","1","2","1,0.7,0,1,0.7,0,0.7,0,1","",""
"","html-keyboard-response","113","56487","0.0-113.0","3KB8R4ZV1FT99IV6AXQAU18A0AGGBE","A2JDYN6QM8M5UN","3KVQ0UJWPX71V463XQYDOZYIDLRW5D","","null","<img src=""img/food1.png"" style=""width:200px; border:14px solid green;"">","null","","","","","","",""
"","image-keyboard-response","114","56866","0.0-114.0","3KB8R4ZV1FT99IV6AXQAU18A0AGGBE","A2JDYN6QM8M5UN","3KVQ0UJWPX71V463XQYDOZYIDLRW5D","","376.80000001192093","img/food6.png","74","378.5","1","1","1","1,0.7,0,1,0.7,0,0.7,0,1","",""
"","html-keyboard-response","115","57168","0.0-115.0","3KB8R4ZV1FT99IV6AXQAU18A0AGGBE","A2JDYN6QM8M5UN","3KVQ0UJWPX71V463XQYDOZYIDLRW5D","","null","<img src=""img/food6.png"" style=""width:200px; border:14px solid green;"">","null","","","","","","",""
"","image-keyboard-response","116","57642","0.0-116.0","3KB8R4ZV1FT99IV6AXQAU18A0AGGBE","A2JDYN6QM8M5UN","3KVQ0UJWPX71V463XQYDOZYIDLRW5D","","472.5","img/food3.png","76","473.80000001192093","3","1","3","1,0.7,0,1,0.7,0,0.7,0,1","",""
"","html-keyboard-response","117","57946","0.0-117.0","3KB8R4ZV1FT99IV6AXQAU18A0AGGBE","A2JDYN6QM8M5UN","3KVQ0UJWPX71V463XQYDOZYIDLRW5D","","null","<img src=""img/food3.png"" style=""width:200px; border:14px solid green;"">","null","","","","","","",""
"","image-keyboard-response","118","58281","0.0-118.0","3KB8R4ZV1FT99IV6AXQAU18A0AGGBE","A2JDYN6QM8M5UN","3KVQ0UJWPX71V463XQYDOZYIDLRW5D","","333.39999997615814","img/food3.png","76","334.7999999523163","3","1","3","1,0.7,0,1,0.7,0,0.7,0,1","",""
"","html-keyboard-response","119","58584","0.0-119.0","3KB8R4ZV1FT99IV6AXQAU18A0AGGBE","A2JDYN6QM8M5UN","3KVQ0UJWPX71V463XQYDOZYIDLRW5D","","null","<img src=""img/food3.png"" style=""width:200px; border:14px solid green;"">","null","","","","","","",""
"","image-keyboard-response","120","59002","0.0-120.0","3KB8R4ZV1FT99IV6AXQAU18A0AGGBE","A2JDYN6QM8M5UN","3KVQ0UJWPX71V463XQYDOZYIDLRW5D","","415.69999998807907","img/food1.png","74","417.7999999523163","1","1","2","1,0.7,0,1,0.7,0,0.7,0,1","",""
"","html-keyboard-response","121","59304","0.0-121.0","3KB8R4ZV1FT99IV6AXQAU18A0AGGBE","A2JDYN6QM8M5UN","3KVQ0UJWPX71V463XQYDOZYIDLRW5D","","null","<img src=""img/food1.png"" style=""width:200px; border:14px solid green;"">","null","","","","","","",""
"","image-keyboard-response","122","59785","0.0-122.0","3KB8R4ZV1FT99IV6AXQAU18A0AGGBE","A2JDYN6QM8M5UN","3KVQ0UJWPX71V463XQYDOZYIDLRW5D","","478.9000000357628","img/food3.png","76","480.5999999642372","3","1","3","1,0.7,0,1,0.7,0,0.7,0,1","",""
"","html-keyboard-response","123","60087","0.0-123.0","3KB8R4ZV1FT99IV6AXQAU18A0AGGBE","A2JDYN6QM8M5UN","3KVQ0UJWPX71V463XQYDOZYIDLRW5D","","null","<img src=""img/food3.png"" style=""width:200px; border:14px solid green;"">","null","","","","","","",""
"","image-keyboard-response","124","60433","0.0-124.0","3KB8R4ZV1FT99IV6AXQAU18A0AGGBE","A2JDYN6QM8M5UN","3KVQ0UJWPX71V463XQYDOZYIDLRW5D","","343.80000001192093","img/food3.png","76","345.39999997615814","3","1","3","1,0.7,0,1,0.7,0,0.7,0,1","",""
"","html-keyboard-response","125","60736","0.0-125.0","3KB8R4ZV1FT99IV6AXQAU18A0AGGBE","A2JDYN6QM8M5UN","3KVQ0UJWPX71V463XQYDOZYIDLRW5D","","null","<img src=""img/food3.png"" style=""width:200px; border:14px solid green;"">","null","","","","","","",""
"","image-keyboard-response","126","61082","0.0-126.0","3KB8R4ZV1FT99IV6AXQAU18A0AGGBE","A2JDYN6QM8M5UN","3KVQ0UJWPX71V463XQYDOZYIDLRW5D","","343.69999998807907","img/food3.png","76","345.69999998807907","3","1","3","1,0.7,0,1,0.7,0,0.7,0,1","",""
"","html-keyboard-response","127","61385","0.0-127.0","3KB8R4ZV1FT99IV6AXQAU18A0AGGBE","A2JDYN6QM8M5UN","3KVQ0UJWPX71V463XQYDOZYIDLRW5D","","null","<img src=""img/food3.png"" style=""width:200px; border:14px solid green;"">","null","","","","","","",""
"","image-keyboard-response","128","61753","0.0-128.0","3KB8R4ZV1FT99IV6AXQAU18A0AGGBE","A2JDYN6QM8M5UN","3KVQ0UJWPX71V463XQYDOZYIDLRW5D","","366.69999998807907","img/food6.png","74","368.19999998807907","1","1","1","1,0.7,0,1,0.7,0,0.7,0,1","",""
"","html-keyboard-response","129","62057","0.0-129.0","3KB8R4ZV1FT99IV6AXQAU18A0AGGBE","A2JDYN6QM8M5UN","3KVQ0UJWPX71V463XQYDOZYIDLRW5D","","null","<img src=""img/food6.png"" style=""width:200px; border:14px solid green;"">","null","","","","","","",""
"","image-keyboard-response","130","62545","0.0-130.0","3KB8R4ZV1FT99IV6AXQAU18A0AGGBE","A2JDYN6QM8M5UN","3KVQ0UJWPX71V463XQYDOZYIDLRW5D","","486","img/food3.png","76","487.60000002384186","3","1","3","1,0.7,0,1,0.7,0,0.7,0,1","",""
"","html-keyboard-response","131","62847","0.0-131.0","3KB8R4ZV1FT99IV6AXQAU18A0AGGBE","A2JDYN6QM8M5UN","3KVQ0UJWPX71V463XQYDOZYIDLRW5D","","null","<img src=""img/food3.png"" style=""width:200px; border:14px solid green;"">","null","","","","","","",""
"","image-keyboard-response","132","63168","0.0-132.0","3KB8R4ZV1FT99IV6AXQAU18A0AGGBE","A2JDYN6QM8M5UN","3KVQ0UJWPX71V463XQYDOZYIDLRW5D","","319.10000002384186","img/food3.png","76","320.19999998807907","3","1","3","1,0.7,0,1,0.7,0,0.7,0,1","",""
"","html-keyboard-response","133","63470","0.0-133.0","3KB8R4ZV1FT99IV6AXQAU18A0AGGBE","A2JDYN6QM8M5UN","3KVQ0UJWPX71V463XQYDOZYIDLRW5D","","null","<img src=""img/food3.png"" style=""width:200px; border:14px solid green;"">","null","","","","","","",""
"","image-keyboard-response","134","63953","0.0-134.0","3KB8R4ZV1FT99IV6AXQAU18A0AGGBE","A2JDYN6QM8M5UN","3KVQ0UJWPX71V463XQYDOZYIDLRW5D","","481.69999998807907","img/food1.png","74","482.5","1","1","2","1,0.7,0,1,0.7,0,0.7,0,1","",""
"","html-keyboard-response","135","64255","0.0-135.0","3KB8R4ZV1FT99IV6AXQAU18A0AGGBE","A2JDYN6QM8M5UN","3KVQ0UJWPX71V463XQYDOZYIDLRW5D","","null","<img src=""img/food1.png"" style=""width:200px; border:14px solid green;"">","null","","","","","","",""
"","image-keyboard-response","136","64897","0.0-136.0","3KB8R4ZV1FT99IV6AXQAU18A0AGGBE","A2JDYN6QM8M5UN","3KVQ0UJWPX71V463XQYDOZYIDLRW5D","","641","img/food6.png","74","642","1","1","1","1,0.7,0,1,0.7,0,0.7,0,1","",""
"","html-keyboard-response","137","65199","0.0-137.0","3KB8R4ZV1FT99IV6AXQAU18A0AGGBE","A2JDYN6QM8M5UN","3KVQ0UJWPX71V463XQYDOZYIDLRW5D","","null","<img src=""img/food6.png"" style=""width:200px; border:14px solid green;"">","null","","","","","","",""
"","image-keyboard-response","138","65513","0.0-138.0","3KB8R4ZV1FT99IV6AXQAU18A0AGGBE","A2JDYN6QM8M5UN","3KVQ0UJWPX71V463XQYDOZYIDLRW5D","","311.60000002384186","img/food6.png","74","313.19999998807907","1","1","1","1,0.7,0,1,0.7,0,0.7,0,1","",""
"","html-keyboard-response","139","65815","0.0-139.0","3KB8R4ZV1FT99IV6AXQAU18A0AGGBE","A2JDYN6QM8M5UN","3KVQ0UJWPX71V463XQYDOZYIDLRW5D","","null","<img src=""img/food6.png"" style=""width:200px; border:14px solid green;"">","null","","","","","","",""
"","image-keyboard-response","140","66465","0.0-140.0","3KB8R4ZV1FT99IV6AXQAU18A0AGGBE","A2JDYN6QM8M5UN","3KVQ0UJWPX71V463XQYDOZYIDLRW5D","","648.1000000238419","img/food1.png","74","649.6000000238419","1","1","2","1,0.7,0,1,0.7,0,0.7,0,1","",""
"","html-keyboard-response","141","66768","0.0-141.0","3KB8R4ZV1FT99IV6AXQAU18A0AGGBE","A2JDYN6QM8M5UN","3KVQ0UJWPX71V463XQYDOZYIDLRW5D","","null","<img src=""img/food1.png"" style=""width:200px; border:14px solid green;"">","null","","","","","","",""
"","image-keyboard-response","142","67169","0.0-142.0","3KB8R4ZV1FT99IV6AXQAU18A0AGGBE","A2JDYN6QM8M5UN","3KVQ0UJWPX71V463XQYDOZYIDLRW5D","","399.30000001192093","img/food6.png","74","400.80000001192093","1","1","1","1,0.7,0,1,0.7,0,0.7,0,1","",""
"","html-keyboard-response","143","67471","0.0-143.0","3KB8R4ZV1FT99IV6AXQAU18A0AGGBE","A2JDYN6QM8M5UN","3KVQ0UJWPX71V463XQYDOZYIDLRW5D","","null","<img src=""img/food6.png"" style=""width:200px; border:14px solid green;"">","null","","","","","","",""
"","image-keyboard-response","144","67961","0.0-144.0","3KB8R4ZV1FT99IV6AXQAU18A0AGGBE","A2JDYN6QM8M5UN","3KVQ0UJWPX71V463XQYDOZYIDLRW5D","","488.39999997615814","img/food1.png","74","489.80000001192093","1","1","2","1,0.7,0,1,0.7,0,0.7,0,1","",""
"","html-keyboard-response","145","68275","0.0-145.0","3KB8R4ZV1FT99IV6AXQAU18A0AGGBE","A2JDYN6QM8M5UN","3KVQ0UJWPX71V463XQYDOZYIDLRW5D","","null","<img src=""img/food1.png"" style=""width:200px; border:14px solid green;"">","null","","","","","","",""
"","image-keyboard-response","146","68561","0.0-146.0","3KB8R4ZV1FT99IV6AXQAU18A0AGGBE","A2JDYN6QM8M5UN","3KVQ0UJWPX71V463XQYDOZYIDLRW5D","","285.10000002384186","img/food1.png","74","286.2999999523163","1","1","2","1,0.7,0,1,0.7,0,0.7,0,1","",""
"","html-keyboard-response","147","68864","0.0-147.0","3KB8R4ZV1FT99IV6AXQAU18A0AGGBE","A2JDYN6QM8M5UN","3KVQ0UJWPX71V463XQYDOZYIDLRW5D","","null","<img src=""img/food1.png"" style=""width:200px; border:14px solid green;"">","null","","","","","","",""
"","image-keyboard-response","148","69201","0.0-148.0","3KB8R4ZV1FT99IV6AXQAU18A0AGGBE","A2JDYN6QM8M5UN","3KVQ0UJWPX71V463XQYDOZYIDLRW5D","","335.39999997615814","img/food1.png","74","336.80000001192093","1","1","2","1,0.7,0,1,0.7,0,0.7,0,1","",""
"","html-keyboard-response","149","69504","0.0-149.0","3KB8R4ZV1FT99IV6AXQAU18A0AGGBE","A2JDYN6QM8M5UN","3KVQ0UJWPX71V463XQYDOZYIDLRW5D","","null","<img src=""img/food1.png"" style=""width:200px; border:14px solid green;"">","null","","","","","","",""
"","image-keyboard-response","150","69817","0.0-150.0","3KB8R4ZV1FT99IV6AXQAU18A0AGGBE","A2JDYN6QM8M5UN","3KVQ0UJWPX71V463XQYDOZYIDLRW5D","","311.4000000357628","img/food1.png","74","312.7999999523163","1","1","2","1,0.7,0,1,0.7,0,0.7,0,1","",""
"","html-keyboard-response","151","70120","0.0-151.0","3KB8R4ZV1FT99IV6AXQAU18A0AGGBE","A2JDYN6QM8M5UN","3KVQ0UJWPX71V463XQYDOZYIDLRW5D","","null","<img src=""img/food1.png"" style=""width:200px; border:14px solid green;"">","null","","","","","","",""
"","image-keyboard-response","152","70408","0.0-152.0","3KB8R4ZV1FT99IV6AXQAU18A0AGGBE","A2JDYN6QM8M5UN","3KVQ0UJWPX71V463XQYDOZYIDLRW5D","","286.4000000357628","img/food1.png","74","287.5999999642372","1","1","2","1,0.7,0,1,0.7,0,0.7,0,1","",""
"","html-keyboard-response","153","70710","0.0-153.0","3KB8R4ZV1FT99IV6AXQAU18A0AGGBE","A2JDYN6QM8M5UN","3KVQ0UJWPX71V463XQYDOZYIDLRW5D","","null","<img src=""img/food1.png"" style=""width:200px; border:14px solid green;"">","null","","","","","","",""
"","image-keyboard-response","154","71145","0.0-154.0","3KB8R4ZV1FT99IV6AXQAU18A0AGGBE","A2JDYN6QM8M5UN","3KVQ0UJWPX71V463XQYDOZYIDLRW5D","","433.10000002384186","img/food3.png","76","434.5","3","1","3","1,0.7,0,1,0.7,0,0.7,0,1","",""
"","html-keyboard-response","155","71449","0.0-155.0","3KB8R4ZV1FT99IV6AXQAU18A0AGGBE","A2JDYN6QM8M5UN","3KVQ0UJWPX71V463XQYDOZYIDLRW5D","","null","<img src=""img/food3.png"" style=""width:200px; border:14px solid green;"">","null","","","","","","",""
"","image-keyboard-response","156","71841","0.0-156.0","3KB8R4ZV1FT99IV6AXQAU18A0AGGBE","A2JDYN6QM8M5UN","3KVQ0UJWPX71V463XQYDOZYIDLRW5D","","390.5","img/food1.png","74","392.10000002384186","1","1","2","1,0.7,0,1,0.7,0,0.7,0,1","",""
"","html-keyboard-response","157","72144","0.0-157.0","3KB8R4ZV1FT99IV6AXQAU18A0AGGBE","A2JDYN6QM8M5UN","3KVQ0UJWPX71V463XQYDOZYIDLRW5D","","null","<img src=""img/food1.png"" style=""width:200px; border:14px solid green;"">","null","","","","","","",""
"","image-keyboard-response","158","72617","0.0-158.0","3KB8R4ZV1FT99IV6AXQAU18A0AGGBE","A2JDYN6QM8M5UN","3KVQ0UJWPX71V463XQYDOZYIDLRW5D","","470.80000001192093","img/food6.png","74","472.89999997615814","1","1","1","1,0.7,0,1,0.7,0,0.7,0,1","",""
"","html-keyboard-response","159","72920","0.0-159.0","3KB8R4ZV1FT99IV6AXQAU18A0AGGBE","A2JDYN6QM8M5UN","3KVQ0UJWPX71V463XQYDOZYIDLRW5D","","null","<img src=""img/food6.png"" style=""width:200px; border:14px solid green;"">","null","","","","","","",""
"","image-keyboard-response","160","73265","0.0-160.0","3KB8R4ZV1FT99IV6AXQAU18A0AGGBE","A2JDYN6QM8M5UN","3KVQ0UJWPX71V463XQYDOZYIDLRW5D","","343.5","img/food1.png","74","345.10000002384186","1","1","2","1,0.7,0,1,0.7,0,0.7,0,1","",""
"","html-keyboard-response","161","73567","0.0-161.0","3KB8R4ZV1FT99IV6AXQAU18A0AGGBE","A2JDYN6QM8M5UN","3KVQ0UJWPX71V463XQYDOZYIDLRW5D","","null","<img src=""img/food1.png"" style=""width:200px; border:14px solid green;"">","null","","","","","","",""
"","image-keyboard-response","162","74057","0.0-162.0","3KB8R4ZV1FT99IV6AXQAU18A0AGGBE","A2JDYN6QM8M5UN","3KVQ0UJWPX71V463XQYDOZYIDLRW5D","","487.7000000476837","img/food6.png","74","489.19999998807907","1","1","1","1,0.7,0,1,0.7,0,0.7,0,1","",""
"","html-keyboard-response","163","74360","0.0-163.0","3KB8R4ZV1FT99IV6AXQAU18A0AGGBE","A2JDYN6QM8M5UN","3KVQ0UJWPX71V463XQYDOZYIDLRW5D","","null","<img src=""img/food6.png"" style=""width:200px; border:14px solid green;"">","null","","","","","","",""
"","image-keyboard-response","164","74848","0.0-164.0","3KB8R4ZV1FT99IV6AXQAU18A0AGGBE","A2JDYN6QM8M5UN","3KVQ0UJWPX71V463XQYDOZYIDLRW5D","","484.80000001192093","img/food3.png","76","486.0999999642372","3","1","3","1,0.7,0,1,0.7,0,0.7,0,1","",""
"","html-keyboard-response","165","75150","0.0-165.0","3KB8R4ZV1FT99IV6AXQAU18A0AGGBE","A2JDYN6QM8M5UN","3KVQ0UJWPX71V463XQYDOZYIDLRW5D","","null","<img src=""img/food3.png"" style=""width:200px; border:14px solid green;"">","null","","","","","","",""
"","image-keyboard-response","166","75537","0.0-166.0","3KB8R4ZV1FT99IV6AXQAU18A0AGGBE","A2JDYN6QM8M5UN","3KVQ0UJWPX71V463XQYDOZYIDLRW5D","","384.80000001192093","img/food6.png","74","386.39999997615814","1","1","1","1,0.7,0,1,0.7,0,0.7,0,1","",""
"","html-keyboard-response","167","75840","0.0-167.0","3KB8R4ZV1FT99IV6AXQAU18A0AGGBE","A2JDYN6QM8M5UN","3KVQ0UJWPX71V463XQYDOZYIDLRW5D","","null","<img src=""img/food6.png"" style=""width:200px; border:14px solid green;"">","null","","","","","","",""
"","image-keyboard-response","168","76169","0.0-168.0","3KB8R4ZV1FT99IV6AXQAU18A0AGGBE","A2JDYN6QM8M5UN","3KVQ0UJWPX71V463XQYDOZYIDLRW5D","","327","img/food6.png","74","328.4000000357628","1","1","1","1,0.7,0,1,0.7,0,0.7,0,1","",""
"","html-keyboard-response","169","76471","0.0-169.0","3KB8R4ZV1FT99IV6AXQAU18A0AGGBE","A2JDYN6QM8M5UN","3KVQ0UJWPX71V463XQYDOZYIDLRW5D","","null","<img src=""img/food6.png"" style=""width:200px; border:14px solid green;"">","null","","","","","","",""
"","image-keyboard-response","170","76785","0.0-170.0","3KB8R4ZV1FT99IV6AXQAU18A0AGGBE","A2JDYN6QM8M5UN","3KVQ0UJWPX71V463XQYDOZYIDLRW5D","","312.4000000357628","img/food6.png","74","313.69999998807907","1","1","1","1,0.7,0,1,0.7,0,0.7,0,1","",""
"","html-keyboard-response","171","77087","0.0-171.0","3KB8R4ZV1FT99IV6AXQAU18A0AGGBE","A2JDYN6QM8M5UN","3KVQ0UJWPX71V463XQYDOZYIDLRW5D","","null","<img src=""img/food6.png"" style=""width:200px; border:14px solid green;"">","null","","","","","","",""
"","image-keyboard-response","172","77513","0.0-172.0","3KB8R4ZV1FT99IV6AXQAU18A0AGGBE","A2JDYN6QM8M5UN","3KVQ0UJWPX71V463XQYDOZYIDLRW5D","","424.30000001192093","img/food3.png","76","425.80000001192093","3","1","3","1,0.7,0,1,0.7,0,0.7,0,1","",""
"","html-keyboard-response","173","77816","0.0-173.0","3KB8R4ZV1FT99IV6AXQAU18A0AGGBE","A2JDYN6QM8M5UN","3KVQ0UJWPX71V463XQYDOZYIDLRW5D","","null","<img src=""img/food3.png"" style=""width:200px; border:14px solid green;"">","null","","","","","","",""
"","image-keyboard-response","174","78137","0.0-174.0","3KB8R4ZV1FT99IV6AXQAU18A0AGGBE","A2JDYN6QM8M5UN","3KVQ0UJWPX71V463XQYDOZYIDLRW5D","","319.39999997615814","img/food3.png","76","320.69999998807907","3","1","3","1,0.7,0,1,0.7,0,0.7,0,1","",""
"","html-keyboard-response","175","78440","0.0-175.0","3KB8R4ZV1FT99IV6AXQAU18A0AGGBE","A2JDYN6QM8M5UN","3KVQ0UJWPX71V463XQYDOZYIDLRW5D","","null","<img src=""img/food3.png"" style=""width:200px; border:14px solid green;"">","null","","","","","","",""
"","image-keyboard-response","176","78825","0.0-176.0","3KB8R4ZV1FT99IV6AXQAU18A0AGGBE","A2JDYN6QM8M5UN","3KVQ0UJWPX71V463XQYDOZYIDLRW5D","","383.19999998807907","img/food6.png","74","384.69999998807907","1","1","1","1,0.7,0,1,0.7,0,0.7,0,1","",""
"","html-keyboard-response","177","79129","0.0-177.0","3KB8R4ZV1FT99IV6AXQAU18A0AGGBE","A2JDYN6QM8M5UN","3KVQ0UJWPX71V463XQYDOZYIDLRW5D","","null","<img src=""img/food6.png"" style=""width:200px; border:14px solid green;"">","null","","","","","","",""
"","image-keyboard-response","178","79601","0.0-178.0","3KB8R4ZV1FT99IV6AXQAU18A0AGGBE","A2JDYN6QM8M5UN","3KVQ0UJWPX71V463XQYDOZYIDLRW5D","","470.10000002384186","img/food1.png","74","471.80000001192093","1","1","2","1,0.7,0,1,0.7,0,0.7,0,1","",""
"","html-keyboard-response","179","79903","0.0-179.0","3KB8R4ZV1FT99IV6AXQAU18A0AGGBE","A2JDYN6QM8M5UN","3KVQ0UJWPX71V463XQYDOZYIDLRW5D","","null","<img src=""img/food1.png"" style=""width:200px; border:14px solid green;"">","null","","","","","","",""
"","image-keyboard-response","180","80368","0.0-180.0","3KB8R4ZV1FT99IV6AXQAU18A0AGGBE","A2JDYN6QM8M5UN","3KVQ0UJWPX71V463XQYDOZYIDLRW5D","","464.19999998807907","img/food6.png","74","465.30000001192093","1","1","1","1,0.7,0,1,0.7,0,0.7,0,1","",""
"","html-keyboard-response","181","80671","0.0-181.0","3KB8R4ZV1FT99IV6AXQAU18A0AGGBE","A2JDYN6QM8M5UN","3KVQ0UJWPX71V463XQYDOZYIDLRW5D","","null","<img src=""img/food6.png"" style=""width:200px; border:14px solid green;"">","null","","","","","","",""
"","html-keyboard-response","182","82476","0.0-182.0","3KB8R4ZV1FT99IV6AXQAU18A0AGGBE","A2JDYN6QM8M5UN","3KVQ0UJWPX71V463XQYDOZYIDLRW5D","","","","","","","","","","",""
"","instructions","183","91536","0.0-183.0","3KB8R4ZV1FT99IV6AXQAU18A0AGGBE","A2JDYN6QM8M5UN","3KVQ0UJWPX71V463XQYDOZYIDLRW5D","[{""page_index"":0,""viewing_time"":8137.300000011921},{""page_index"":1,""viewing_time"":922}]","9059.599999964237","","","","","","","","",""
"","image-keyboard-response","184","92177","0.0-184.0","3KB8R4ZV1FT99IV6AXQAU18A0AGGBE","A2JDYN6QM8M5UN","3KVQ0UJWPX71V463XQYDOZYIDLRW5D","","639.6999999880791","img/food4.png","74","641.1999999880791","1","1","2","1,0.7,0,1,0.7,0,0.7,0,1","false",""
"","html-keyboard-response","185","92480","0.0-185.0","3KB8R4ZV1FT99IV6AXQAU18A0AGGBE","A2JDYN6QM8M5UN","3KVQ0UJWPX71V463XQYDOZYIDLRW5D","","null","<img src=""img/food4.png"" style=""width:200px; border:14px solid green;"">","null","","","","","","",""
"","image-keyboard-response","186","93145","0.0-187.0","3KB8R4ZV1FT99IV6AXQAU18A0AGGBE","A2JDYN6QM8M5UN","3KVQ0UJWPX71V463XQYDOZYIDLRW5D","","663.1999999880791","img/food2.png","75","664.5","2","0","3","1,0.7,0,1,0.7,0,0.7,0,1","false",""
"","html-keyboard-response","187","93448","0.0-188.0","3KB8R4ZV1FT99IV6AXQAU18A0AGGBE","A2JDYN6QM8M5UN","3KVQ0UJWPX71V463XQYDOZYIDLRW5D","","null","<img src=""img/food2.png"" style=""width:200px;border:14px solid red;"">","null","","","","","","",""
"","image-keyboard-response","188","93993","0.0-190.0","3KB8R4ZV1FT99IV6AXQAU18A0AGGBE","A2JDYN6QM8M5UN","3KVQ0UJWPX71V463XQYDOZYIDLRW5D","","542.6999999880791","img/food2.png","76","544.5","3","1","3","1,0.7,0,1,0.7,0,0.7,0,1","false",""
"","html-keyboard-response","189","94296","0.0-191.0","3KB8R4ZV1FT99IV6AXQAU18A0AGGBE","A2JDYN6QM8M5UN","3KVQ0UJWPX71V463XQYDOZYIDLRW5D","","null","<img src=""img/food2.png"" style=""width:200px; border:14px solid green;"">","null","","","","","","",""
"","image-keyboard-response","190","95049","0.0-193.0","3KB8R4ZV1FT99IV6AXQAU18A0AGGBE","A2JDYN6QM8M5UN","3KVQ0UJWPX71V463XQYDOZYIDLRW5D","","750.8000000119209","img/food5.png","75","752.3999999761581","2","0","1","1,0.7,0,1,0.7,0,0.7,0,1","false",""
"","html-keyboard-response","191","95351","0.0-194.0","3KB8R4ZV1FT99IV6AXQAU18A0AGGBE","A2JDYN6QM8M5UN","3KVQ0UJWPX71V463XQYDOZYIDLRW5D","","null","<img src=""img/food5.png"" style=""width:200px;border:14px solid red;"">","null","","","","","","",""
"","image-keyboard-response","192","96001","0.0-196.0","3KB8R4ZV1FT99IV6AXQAU18A0AGGBE","A2JDYN6QM8M5UN","3KVQ0UJWPX71V463XQYDOZYIDLRW5D","","647.3000000119209","img/food5.png","74","648.8999999761581","1","1","1","1,0.7,0,1,0.7,0,0.7,0,1","false",""
"","html-keyboard-response","193","96304","0.0-197.0","3KB8R4ZV1FT99IV6AXQAU18A0AGGBE","A2JDYN6QM8M5UN","3KVQ0UJWPX71V463XQYDOZYIDLRW5D","","null","<img src=""img/food5.png"" style=""width:200px; border:14px solid green;"">","null","","","","","","",""
"","image-keyboard-response","194","96737","0.0-199.0","3KB8R4ZV1FT99IV6AXQAU18A0AGGBE","A2JDYN6QM8M5UN","3KVQ0UJWPX71V463XQYDOZYIDLRW5D","","430.19999998807907","img/food5.png","74","432.19999998807907","1","1","1","1,0.7,0,1,0.7,0,0.7,0,1","false",""
"","html-keyboard-response","195","97039","0.0-200.0","3KB8R4ZV1FT99IV6AXQAU18A0AGGBE","A2JDYN6QM8M5UN","3KVQ0UJWPX71V463XQYDOZYIDLRW5D","","null","<img src=""img/food5.png"" style=""width:200px; border:14px solid green;"">","null","","","","","","",""
"","image-keyboard-response","196","97361","0.0-202.0","3KB8R4ZV1FT99IV6AXQAU18A0AGGBE","A2JDYN6QM8M5UN","3KVQ0UJWPX71V463XQYDOZYIDLRW5D","","319.4000000357628","img/food5.png","74","321","1","1","1","1,0.7,0,1,0.7,0,0.7,0,1","false",""
"","html-keyboard-response","197","97679","0.0-203.0","3KB8R4ZV1FT99IV6AXQAU18A0AGGBE","A2JDYN6QM8M5UN","3KVQ0UJWPX71V463XQYDOZYIDLRW5D","","null","<img src=""img/food5.png"" style=""width:200px; border:14px solid green;"">","null","","","","","","",""
"","image-keyboard-response","198","98362","0.0-205.0","3KB8R4ZV1FT99IV6AXQAU18A0AGGBE","A2JDYN6QM8M5UN","3KVQ0UJWPX71V463XQYDOZYIDLRW5D","","681.1000000238419","img/food2.png","76","682.3999999761581","3","1","3","1,0.7,0,1,0.7,0,0.7,0,1","false",""
"","html-keyboard-response","199","98663","0.0-206.0","3KB8R4ZV1FT99IV6AXQAU18A0AGGBE","A2JDYN6QM8M5UN","3KVQ0UJWPX71V463XQYDOZYIDLRW5D","","null","<img src=""img/food2.png"" style=""width:200px; border:14px solid green;"">","null","","","","","","",""
"","image-keyboard-response","200","99089","0.0-208.0","3KB8R4ZV1FT99IV6AXQAU18A0AGGBE","A2JDYN6QM8M5UN","3KVQ0UJWPX71V463XQYDOZYIDLRW5D","","423.2000000476837","img/food4.png","74","424.69999998807907","1","1","2","1,0.7,0,1,0.7,0,0.7,0,1","false",""
"","html-keyboard-response","201","99393","0.0-209.0","3KB8R4ZV1FT99IV6AXQAU18A0AGGBE","A2JDYN6QM8M5UN","3KVQ0UJWPX71V463XQYDOZYIDLRW5D","","null","<img src=""img/food4.png"" style=""width:200px; border:14px solid green;"">","null","","","","","","",""
"","image-keyboard-response","202","99721","0.0-211.0","3KB8R4ZV1FT99IV6AXQAU18A0AGGBE","A2JDYN6QM8M5UN","3KVQ0UJWPX71V463XQYDOZYIDLRW5D","","326.30000001192093","img/food4.png","74","327.5999999642372","1","1","2","1,0.7,0,1,0.7,0,0.7,0,1","false",""
"","html-keyboard-response","203","100024","0.0-212.0","3KB8R4ZV1FT99IV6AXQAU18A0AGGBE","A2JDYN6QM8M5UN","3KVQ0UJWPX71V463XQYDOZYIDLRW5D","","null","<img src=""img/food4.png"" style=""width:200px; border:14px solid green;"">","null","","","","","","",""
"","image-keyboard-response","204","100553","0.0-214.0","3KB8R4ZV1FT99IV6AXQAU18A0AGGBE","A2JDYN6QM8M5UN","3KVQ0UJWPX71V463XQYDOZYIDLRW5D","","527.1999999880791","img/food5.png","74","528.9000000357628","1","1","1","1,0.7,0,1,0.7,0,0.7,0,1","false",""
"","html-keyboard-response","205","100856","0.0-215.0","3KB8R4ZV1FT99IV6AXQAU18A0AGGBE","A2JDYN6QM8M5UN","3KVQ0UJWPX71V463XQYDOZYIDLRW5D","","null","<img src=""img/food5.png"" style=""width:200px; border:14px solid green;"">","null","","","","","","",""
"","image-keyboard-response","206","101353","0.0-217.0","3KB8R4ZV1FT99IV6AXQAU18A0AGGBE","A2JDYN6QM8M5UN","3KVQ0UJWPX71V463XQYDOZYIDLRW5D","","494.4000000357628","img/food4.png","74","496","1","1","2","1,0.7,0,1,0.7,0,0.7,0,1","false",""
"","html-keyboard-response","207","101655","0.0-218.0","3KB8R4ZV1FT99IV6AXQAU18A0AGGBE","A2JDYN6QM8M5UN","3KVQ0UJWPX71V463XQYDOZYIDLRW5D","","null","<img src=""img/food4.png"" style=""width:200px; border:14px solid green;"">","null","","","","","","",""
"","image-keyboard-response","208","101994","0.0-220.0","3KB8R4ZV1FT99IV6AXQAU18A0AGGBE","A2JDYN6QM8M5UN","3KVQ0UJWPX71V463XQYDOZYIDLRW5D","","336.19999998807907","img/food5.png","74","337.69999998807907","1","1","1","1,0.7,0,1,0.7,0,0.7,0,1","false",""
"","html-keyboard-response","209","102297","0.0-221.0","3KB8R4ZV1FT99IV6AXQAU18A0AGGBE","A2JDYN6QM8M5UN","3KVQ0UJWPX71V463XQYDOZYIDLRW5D","","null","<img src=""img/food5.png"" style=""width:200px; border:14px solid green;"">","null","","","","","","",""
"","image-keyboard-response","210","102673","0.0-223.0","3KB8R4ZV1FT99IV6AXQAU18A0AGGBE","A2JDYN6QM8M5UN","3KVQ0UJWPX71V463XQYDOZYIDLRW5D","","373.60000002384186","img/food4.png","74","375.0999999642372","1","1","2","1,0.7,0,1,0.7,0,0.7,0,1","false",""
"","html-keyboard-response","211","102976","0.0-224.0","3KB8R4ZV1FT99IV6AXQAU18A0AGGBE","A2JDYN6QM8M5UN","3KVQ0UJWPX71V463XQYDOZYIDLRW5D","","null","<img src=""img/food4.png"" style=""width:200px; border:14px solid green;"">","null","","","","","","",""
"","image-keyboard-response","212","103313","0.0-226.0","3KB8R4ZV1FT99IV6AXQAU18A0AGGBE","A2JDYN6QM8M5UN","3KVQ0UJWPX71V463XQYDOZYIDLRW5D","","334.69999998807907","img/food4.png","74","336.19999998807907","1","1","2","1,0.7,0,1,0.7,0,0.7,0,1","false",""
"","html-keyboard-response","213","103615","0.0-227.0","3KB8R4ZV1FT99IV6AXQAU18A0AGGBE","A2JDYN6QM8M5UN","3KVQ0UJWPX71V463XQYDOZYIDLRW5D","","null","<img src=""img/food4.png"" style=""width:200px; border:14px solid green;"">","null","","","","","","",""
"","image-keyboard-response","214","104033","0.0-229.0","3KB8R4ZV1FT99IV6AXQAU18A0AGGBE","A2JDYN6QM8M5UN","3KVQ0UJWPX71V463XQYDOZYIDLRW5D","","416","img/food2.png","76","417.60000002384186","3","1","3","1,0.7,0,1,0.7,0,0.7,0,1","false",""
"","html-keyboard-response","215","104336","0.0-230.0","3KB8R4ZV1FT99IV6AXQAU18A0AGGBE","A2JDYN6QM8M5UN","3KVQ0UJWPX71V463XQYDOZYIDLRW5D","","null","<img src=""img/food2.png"" style=""width:200px; border:14px solid green;"">","null","","","","","","",""
"","image-keyboard-response","216","104697","0.0-232.0","3KB8R4ZV1FT99IV6AXQAU18A0AGGBE","A2JDYN6QM8M5UN","3KVQ0UJWPX71V463XQYDOZYIDLRW5D","","359","img/food5.png","74","360.5","1","1","1","1,0.7,0,1,0.7,0,0.7,0,1","false",""
"","html-keyboard-response","217","104999","0.0-233.0","3KB8R4ZV1FT99IV6AXQAU18A0AGGBE","A2JDYN6QM8M5UN","3KVQ0UJWPX71V463XQYDOZYIDLRW5D","","null","<img src=""img/food5.png"" style=""width:200px; border:14px solid green;"">","null","","","","","","",""
"","image-keyboard-response","218","105441","0.0-235.0","3KB8R4ZV1FT99IV6AXQAU18A0AGGBE","A2JDYN6QM8M5UN","3KVQ0UJWPX71V463XQYDOZYIDLRW5D","","439.60000002384186","img/food2.png","76","441.30000001192093","3","1","3","1,0.7,0,1,0.7,0,0.7,0,1","false",""
"","html-keyboard-response","219","105744","0.0-236.0","3KB8R4ZV1FT99IV6AXQAU18A0AGGBE","A2JDYN6QM8M5UN","3KVQ0UJWPX71V463XQYDOZYIDLRW5D","","null","<img src=""img/food2.png"" style=""width:200px; border:14px solid green;"">","null","","","","","","",""
"","image-keyboard-response","220","106066","0.0-238.0","3KB8R4ZV1FT99IV6AXQAU18A0AGGBE","A2JDYN6QM8M5UN","3KVQ0UJWPX71V463XQYDOZYIDLRW5D","","319.39999997615814","img/food2.png","76","321.39999997615814","3","1","3","1,0.7,0,1,0.7,0,0.7,0,1","false",""
"","html-keyboard-response","221","106368","0.0-239.0","3KB8R4ZV1FT99IV6AXQAU18A0AGGBE","A2JDYN6QM8M5UN","3KVQ0UJWPX71V463XQYDOZYIDLRW5D","","null","<img src=""img/food2.png"" style=""width:200px; border:14px solid green;"">","null","","","","","","",""
"","image-keyboard-response","222","106681","0.0-241.0","3KB8R4ZV1FT99IV6AXQAU18A0AGGBE","A2JDYN6QM8M5UN","3KVQ0UJWPX71V463XQYDOZYIDLRW5D","","310.39999997615814","img/food2.png","76","312.2000000476837","3","1","3","1,0.7,0,1,0.7,0,0.7,0,1","false",""
"","html-keyboard-response","223","106984","0.0-242.0","3KB8R4ZV1FT99IV6AXQAU18A0AGGBE","A2JDYN6QM8M5UN","3KVQ0UJWPX71V463XQYDOZYIDLRW5D","","null","<img src=""img/food2.png"" style=""width:200px; border:14px solid green;"">","null","","","","","","",""
"","image-keyboard-response","224","107321","0.0-244.0","3KB8R4ZV1FT99IV6AXQAU18A0AGGBE","A2JDYN6QM8M5UN","3KVQ0UJWPX71V463XQYDOZYIDLRW5D","","334.39999997615814","img/food2.png","76","336","3","1","3","1,0.7,0,1,0.7,0,0.7,0,1","false",""
"","html-keyboard-response","225","107625","0.0-245.0","3KB8R4ZV1FT99IV6AXQAU18A0AGGBE","A2JDYN6QM8M5UN","3KVQ0UJWPX71V463XQYDOZYIDLRW5D","","null","<img src=""img/food2.png"" style=""width:200px; border:14px solid green;"">","null","","","","","","",""
"","image-keyboard-response","226","107937","0.0-247.0","3KB8R4ZV1FT99IV6AXQAU18A0AGGBE","A2JDYN6QM8M5UN","3KVQ0UJWPX71V463XQYDOZYIDLRW5D","","310","img/food5.png","74","311.5999999642372","1","1","1","1,0.7,0,1,0.7,0,0.7,0,1","false",""
"","html-keyboard-response","227","108240","0.0-248.0","3KB8R4ZV1FT99IV6AXQAU18A0AGGBE","A2JDYN6QM8M5UN","3KVQ0UJWPX71V463XQYDOZYIDLRW5D","","null","<img src=""img/food5.png"" style=""width:200px; border:14px solid green;"">","null","","","","","","",""
"","image-keyboard-response","228","108585","0.0-250.0","3KB8R4ZV1FT99IV6AXQAU18A0AGGBE","A2JDYN6QM8M5UN","3KVQ0UJWPX71V463XQYDOZYIDLRW5D","","342.69999998807907","img/food4.png","74","343.9000000357628","1","1","2","1,0.7,0,1,0.7,0,0.7,0,1","false",""
"","html-keyboard-response","229","108887","0.0-251.0","3KB8R4ZV1FT99IV6AXQAU18A0AGGBE","A2JDYN6QM8M5UN","3KVQ0UJWPX71V463XQYDOZYIDLRW5D","","null","<img src=""img/food4.png"" style=""width:200px; border:14px solid green;"">","null","","","","","","",""
"","image-keyboard-response","230","109249","0.0-253.0","3KB8R4ZV1FT99IV6AXQAU18A0AGGBE","A2JDYN6QM8M5UN","3KVQ0UJWPX71V463XQYDOZYIDLRW5D","","359.80000001192093","img/food2.png","76","361.2999999523163","3","1","3","1,0.7,0,1,0.7,0,0.7,0,1","false",""
"","html-keyboard-response","231","109551","0.0-254.0","3KB8R4ZV1FT99IV6AXQAU18A0AGGBE","A2JDYN6QM8M5UN","3KVQ0UJWPX71V463XQYDOZYIDLRW5D","","null","<img src=""img/food2.png"" style=""width:200px; border:14px solid green;"">","null","","","","","","",""
"","image-keyboard-response","232","109897","0.0-256.0","3KB8R4ZV1FT99IV6AXQAU18A0AGGBE","A2JDYN6QM8M5UN","3KVQ0UJWPX71V463XQYDOZYIDLRW5D","","343.39999997615814","img/food4.png","74","344.89999997615814","1","1","2","1,0.7,0,1,0.7,0,0.7,0,1","false",""
"","html-keyboard-response","233","110200","0.0-257.0","3KB8R4ZV1FT99IV6AXQAU18A0AGGBE","A2JDYN6QM8M5UN","3KVQ0UJWPX71V463XQYDOZYIDLRW5D","","null","<img src=""img/food4.png"" style=""width:200px; border:14px solid green;"">","null","","","","","","",""
"","image-keyboard-response","234","110650","0.0-259.0","3KB8R4ZV1FT99IV6AXQAU18A0AGGBE","A2JDYN6QM8M5UN","3KVQ0UJWPX71V463XQYDOZYIDLRW5D","","448.10000002384186","img/food5.png","74","449.5","1","1","1","1,0.7,0,1,0.7,0,0.7,0,1","false",""
"","html-keyboard-response","235","110959","0.0-260.0","3KB8R4ZV1FT99IV6AXQAU18A0AGGBE","A2JDYN6QM8M5UN","3KVQ0UJWPX71V463XQYDOZYIDLRW5D","","null","<img src=""img/food5.png"" style=""width:200px; border:14px solid green;"">","null","","","","","","",""
"","image-keyboard-response","236","111377","0.0-262.0","3KB8R4ZV1FT99IV6AXQAU18A0AGGBE","A2JDYN6QM8M5UN","3KVQ0UJWPX71V463XQYDOZYIDLRW5D","","416.0999999642372","img/food2.png","76","417.80000001192093","3","1","3","1,0.7,0,1,0.7,0,0.7,0,1","false",""
"","html-keyboard-response","237","111680","0.0-263.0","3KB8R4ZV1FT99IV6AXQAU18A0AGGBE","A2JDYN6QM8M5UN","3KVQ0UJWPX71V463XQYDOZYIDLRW5D","","null","<img src=""img/food2.png"" style=""width:200px; border:14px solid green;"">","null","","","","","","",""
"","image-keyboard-response","238","112049","0.0-265.0","3KB8R4ZV1FT99IV6AXQAU18A0AGGBE","A2JDYN6QM8M5UN","3KVQ0UJWPX71V463XQYDOZYIDLRW5D","","365.5","img/food5.png","74","367.69999998807907","1","1","1","1,0.7,0,1,0.7,0,0.7,0,1","false",""
"","html-keyboard-response","239","112352","0.0-266.0","3KB8R4ZV1FT99IV6AXQAU18A0AGGBE","A2JDYN6QM8M5UN","3KVQ0UJWPX71V463XQYDOZYIDLRW5D","","null","<img src=""img/food5.png"" style=""width:200px; border:14px solid green;"">","null","","","","","","",""
"","image-keyboard-response","240","112769","0.0-268.0","3KB8R4ZV1FT99IV6AXQAU18A0AGGBE","A2JDYN6QM8M5UN","3KVQ0UJWPX71V463XQYDOZYIDLRW5D","","414.89999997615814","img/food2.png","76","416.30000001192093","3","1","3","1,0.7,0,1,0.7,0,0.7,0,1","false",""
"","html-keyboard-response","241","113072","0.0-269.0","3KB8R4ZV1FT99IV6AXQAU18A0AGGBE","A2JDYN6QM8M5UN","3KVQ0UJWPX71V463XQYDOZYIDLRW5D","","null","<img src=""img/food2.png"" style=""width:200px; border:14px solid green;"">","null","","","","","","",""
"","image-keyboard-response","242","113377","0.0-271.0","3KB8R4ZV1FT99IV6AXQAU18A0AGGBE","A2JDYN6QM8M5UN","3KVQ0UJWPX71V463XQYDOZYIDLRW5D","","302.80000001192093","img/food2.png","76","304.39999997615814","3","1","3","1,0.7,0,1,0.7,0,0.7,0,1","false",""
"","html-keyboard-response","243","113680","0.0-272.0","3KB8R4ZV1FT99IV6AXQAU18A0AGGBE","A2JDYN6QM8M5UN","3KVQ0UJWPX71V463XQYDOZYIDLRW5D","","null","<img src=""img/food2.png"" style=""width:200px; border:14px solid green;"">","null","","","","","","",""
"","image-keyboard-response","244","114009","0.0-274.0","3KB8R4ZV1FT99IV6AXQAU18A0AGGBE","A2JDYN6QM8M5UN","3KVQ0UJWPX71V463XQYDOZYIDLRW5D","","326.2000000476837","img/food5.png","74","327.69999998807907","1","1","1","1,0.7,0,1,0.7,0,0.7,0,1","false",""
"","html-keyboard-response","245","114311","0.0-275.0","3KB8R4ZV1FT99IV6AXQAU18A0AGGBE","A2JDYN6QM8M5UN","3KVQ0UJWPX71V463XQYDOZYIDLRW5D","","null","<img src=""img/food5.png"" style=""width:200px; border:14px solid green;"">","null","","","","","","",""
"","image-keyboard-response","246","114720","0.0-277.0","3KB8R4ZV1FT99IV6AXQAU18A0AGGBE","A2JDYN6QM8M5UN","3KVQ0UJWPX71V463XQYDOZYIDLRW5D","","407.2000000476837","img/food2.png","76","408.30000001192093","3","1","3","1,0.7,0,1,0.7,0,0.7,0,1","false",""
"","html-keyboard-response","247","115022","0.0-278.0","3KB8R4ZV1FT99IV6AXQAU18A0AGGBE","A2JDYN6QM8M5UN","3KVQ0UJWPX71V463XQYDOZYIDLRW5D","","null","<img src=""img/food2.png"" style=""width:200px; border:14px solid green;"">","null","","","","","","",""
"","image-keyboard-response","248","115361","0.0-280.0","3KB8R4ZV1FT99IV6AXQAU18A0AGGBE","A2JDYN6QM8M5UN","3KVQ0UJWPX71V463XQYDOZYIDLRW5D","","336.60000002384186","img/food4.png","74","338.10000002384186","1","1","2","1,0.7,0,1,0.7,0,0.7,0,1","false",""
"","html-keyboard-response","249","115664","0.0-281.0","3KB8R4ZV1FT99IV6AXQAU18A0AGGBE","A2JDYN6QM8M5UN","3KVQ0UJWPX71V463XQYDOZYIDLRW5D","","null","<img src=""img/food4.png"" style=""width:200px; border:14px solid green;"">","null","","","","","","",""
"","image-keyboard-response","250","116049","0.0-283.0","3KB8R4ZV1FT99IV6AXQAU18A0AGGBE","A2JDYN6QM8M5UN","3KVQ0UJWPX71V463XQYDOZYIDLRW5D","","382.69999998807907","img/food5.png","74","384.2999999523163","1","1","1","1,0.7,0,1,0.7,0,0.7,0,1","false",""
"","html-keyboard-response","251","116352","0.0-284.0","3KB8R4ZV1FT99IV6AXQAU18A0AGGBE","A2JDYN6QM8M5UN","3KVQ0UJWPX71V463XQYDOZYIDLRW5D","","null","<img src=""img/food5.png"" style=""width:200px; border:14px solid green;"">","null","","","","","","",""
"","image-keyboard-response","252","116673","0.0-286.0","3KB8R4ZV1FT99IV6AXQAU18A0AGGBE","A2JDYN6QM8M5UN","3KVQ0UJWPX71V463XQYDOZYIDLRW5D","","318.60000002384186","img/food5.png","74","320.19999998807907","1","1","1","1,0.7,0,1,0.7,0,0.7,0,1","false",""
"","html-keyboard-response","253","116976","0.0-287.0","3KB8R4ZV1FT99IV6AXQAU18A0AGGBE","A2JDYN6QM8M5UN","3KVQ0UJWPX71V463XQYDOZYIDLRW5D","","null","<img src=""img/food5.png"" style=""width:200px; border:14px solid green;"">","null","","","","","","",""
"","image-keyboard-response","254","117353","0.0-289.0","3KB8R4ZV1FT99IV6AXQAU18A0AGGBE","A2JDYN6QM8M5UN","3KVQ0UJWPX71V463XQYDOZYIDLRW5D","","374.80000001192093","img/food4.png","74","376.5","1","1","2","1,0.7,0,1,0.7,0,0.7,0,1","false",""
"","html-keyboard-response","255","117656","0.0-290.0","3KB8R4ZV1FT99IV6AXQAU18A0AGGBE","A2JDYN6QM8M5UN","3KVQ0UJWPX71V463XQYDOZYIDLRW5D","","null","<img src=""img/food4.png"" style=""width:200px; border:14px solid green;"">","null","","","","","","",""
"","image-keyboard-response","256","117937","0.0-292.0","3KB8R4ZV1FT99IV6AXQAU18A0AGGBE","A2JDYN6QM8M5UN","3KVQ0UJWPX71V463XQYDOZYIDLRW5D","","278.80000001192093","img/food4.png","74","280.5","1","1","2","1,0.7,0,1,0.7,0,0.7,0,1","false",""
"","html-keyboard-response","257","118240","0.0-293.0","3KB8R4ZV1FT99IV6AXQAU18A0AGGBE","A2JDYN6QM8M5UN","3KVQ0UJWPX71V463XQYDOZYIDLRW5D","","null","<img src=""img/food4.png"" style=""width:200px; border:14px solid green;"">","null","","","","","","",""
"","image-keyboard-response","258","118625","0.0-295.0","3KB8R4ZV1FT99IV6AXQAU18A0AGGBE","A2JDYN6QM8M5UN","3KVQ0UJWPX71V463XQYDOZYIDLRW5D","","382.9000000357628","img/food2.png","76","384.5","3","1","3","1,0.7,0,1,0.7,0,0.7,0,1","false",""
"","html-keyboard-response","259","118928","0.0-296.0","3KB8R4ZV1FT99IV6AXQAU18A0AGGBE","A2JDYN6QM8M5UN","3KVQ0UJWPX71V463XQYDOZYIDLRW5D","","null","<img src=""img/food2.png"" style=""width:200px; border:14px solid green;"">","null","","","","","","",""
"","image-keyboard-response","260","119281","0.0-298.0","3KB8R4ZV1FT99IV6AXQAU18A0AGGBE","A2JDYN6QM8M5UN","3KVQ0UJWPX71V463XQYDOZYIDLRW5D","","350.80000001192093","img/food4.png","74","352.4000000357628","1","1","2","1,0.7,0,1,0.7,0,0.7,0,1","false",""
"","html-keyboard-response","261","119584","0.0-299.0","3KB8R4ZV1FT99IV6AXQAU18A0AGGBE","A2JDYN6QM8M5UN","3KVQ0UJWPX71V463XQYDOZYIDLRW5D","","null","<img src=""img/food4.png"" style=""width:200px; border:14px solid green;"">","null","","","","","","",""
"","image-keyboard-response","262","119881","0.0-301.0","3KB8R4ZV1FT99IV6AXQAU18A0AGGBE","A2JDYN6QM8M5UN","3KVQ0UJWPX71V463XQYDOZYIDLRW5D","","295.30000001192093","img/food4.png","74","296.9000000357628","1","1","2","1,0.7,0,1,0.7,0,0.7,0,1","false",""
"","html-keyboard-response","263","120184","0.0-302.0","3KB8R4ZV1FT99IV6AXQAU18A0AGGBE","A2JDYN6QM8M5UN","3KVQ0UJWPX71V463XQYDOZYIDLRW5D","","null","<img src=""img/food4.png"" style=""width:200px; border:14px solid green;"">","null","","","","","","",""
"","image-keyboard-response","264","120465","0.0-304.0","3KB8R4ZV1FT99IV6AXQAU18A0AGGBE","A2JDYN6QM8M5UN","3KVQ0UJWPX71V463XQYDOZYIDLRW5D","","279.2000000476837","img/food4.png","74","280.7999999523163","1","1","2","1,0.7,0,1,0.7,0,0.7,0,1","false",""
"","html-keyboard-response","265","120768","0.0-305.0","3KB8R4ZV1FT99IV6AXQAU18A0AGGBE","A2JDYN6QM8M5UN","3KVQ0UJWPX71V463XQYDOZYIDLRW5D","","null","<img src=""img/food4.png"" style=""width:200px; border:14px solid green;"">","null","","","","","","",""
"","image-keyboard-response","266","121057","0.0-307.0","3KB8R4ZV1FT99IV6AXQAU18A0AGGBE","A2JDYN6QM8M5UN","3KVQ0UJWPX71V463XQYDOZYIDLRW5D","","287.30000001192093","img/food4.png","74","288.69999998807907","1","1","2","1,0.7,0,1,0.7,0,0.7,0,1","false",""
"","html-keyboard-response","267","121360","0.0-308.0","3KB8R4ZV1FT99IV6AXQAU18A0AGGBE","A2JDYN6QM8M5UN","3KVQ0UJWPX71V463XQYDOZYIDLRW5D","","null","<img src=""img/food4.png"" style=""width:200px; border:14px solid green;"">","null","","","","","","",""
"","image-keyboard-response","268","121721","0.0-310.0","3KB8R4ZV1FT99IV6AXQAU18A0AGGBE","A2JDYN6QM8M5UN","3KVQ0UJWPX71V463XQYDOZYIDLRW5D","","359.10000002384186","img/food5.png","76","360.60000002384186","3","0","1","1,0.7,0,1,0.7,0,0.7,0,1","false",""
"","html-keyboard-response","269","122024","0.0-311.0","3KB8R4ZV1FT99IV6AXQAU18A0AGGBE","A2JDYN6QM8M5UN","3KVQ0UJWPX71V463XQYDOZYIDLRW5D","","null","<img src=""img/food5.png"" style=""width:200px;border:14px solid red;"">","null","","","","","","",""
"","image-keyboard-response","270","122065","0.0-313.0","3KB8R4ZV1FT99IV6AXQAU18A0AGGBE","A2JDYN6QM8M5UN","3KVQ0UJWPX71V463XQYDOZYIDLRW5D","","38.80000001192093","img/food5.png","74","40.19999998807907","1","1","1","1,0.7,0,1,0.7,0,0.7,0,1","false",""
"","html-keyboard-response","271","122368","0.0-314.0","3KB8R4ZV1FT99IV6AXQAU18A0AGGBE","A2JDYN6QM8M5UN","3KVQ0UJWPX71V463XQYDOZYIDLRW5D","","null","<img src=""img/food5.png"" style=""width:200px; border:14px solid green;"">","null","","","","","","",""
"","image-keyboard-response","272","122665","0.0-316.0","3KB8R4ZV1FT99IV6AXQAU18A0AGGBE","A2JDYN6QM8M5UN","3KVQ0UJWPX71V463XQYDOZYIDLRW5D","","295.4000000357628","img/food5.png","74","296.80000001192093","1","1","1","1,0.7,0,1,0.7,0,0.7,0,1","false",""
"","html-keyboard-response","273","122968","0.0-317.0","3KB8R4ZV1FT99IV6AXQAU18A0AGGBE","A2JDYN6QM8M5UN","3KVQ0UJWPX71V463XQYDOZYIDLRW5D","","null","<img src=""img/food5.png"" style=""width:200px; border:14px solid green;"">","null","","","","","","",""
"","image-keyboard-response","274","123297","0.0-319.0","3KB8R4ZV1FT99IV6AXQAU18A0AGGBE","A2JDYN6QM8M5UN","3KVQ0UJWPX71V463XQYDOZYIDLRW5D","","327.19999998807907","img/food5.png","74","328.60000002384186","1","1","1","1,0.7,0,1,0.7,0,0.7,0,1","false",""
"","html-keyboard-response","275","123599","0.0-320.0","3KB8R4ZV1FT99IV6AXQAU18A0AGGBE","A2JDYN6QM8M5UN","3KVQ0UJWPX71V463XQYDOZYIDLRW5D","","null","<img src=""img/food5.png"" style=""width:200px; border:14px solid green;"">","null","","","","","","",""
"","image-keyboard-response","276","123881","0.0-322.0","3KB8R4ZV1FT99IV6AXQAU18A0AGGBE","A2JDYN6QM8M5UN","3KVQ0UJWPX71V463XQYDOZYIDLRW5D","","279.80000001192093","img/food5.png","74","281.19999998807907","1","1","1","1,0.7,0,1,0.7,0,0.7,0,1","false",""
"","html-keyboard-response","277","124183","0.0-323.0","3KB8R4ZV1FT99IV6AXQAU18A0AGGBE","A2JDYN6QM8M5UN","3KVQ0UJWPX71V463XQYDOZYIDLRW5D","","null","<img src=""img/food5.png"" style=""width:200px; border:14px solid green;"">","null","","","","","","",""
"","image-keyboard-response","278","124609","0.0-325.0","3KB8R4ZV1FT99IV6AXQAU18A0AGGBE","A2JDYN6QM8M5UN","3KVQ0UJWPX71V463XQYDOZYIDLRW5D","","424.30000001192093","img/food2.png","76","425.5","3","1","3","1,0.7,0,1,0.7,0,0.7,0,1","false",""
"","html-keyboard-response","279","124911","0.0-326.0","3KB8R4ZV1FT99IV6AXQAU18A0AGGBE","A2JDYN6QM8M5UN","3KVQ0UJWPX71V463XQYDOZYIDLRW5D","","null","<img src=""img/food2.png"" style=""width:200px; border:14px solid green;"">","null","","","","","","",""
"","image-keyboard-response","280","125217","0.0-328.0","3KB8R4ZV1FT99IV6AXQAU18A0AGGBE","A2JDYN6QM8M5UN","3KVQ0UJWPX71V463XQYDOZYIDLRW5D","","303.69999998807907","img/food2.png","76","305.19999998807907","3","1","3","1,0.7,0,1,0.7,0,0.7,0,1","false",""
"","html-keyboard-response","281","125520","0.0-329.0","3KB8R4ZV1FT99IV6AXQAU18A0AGGBE","A2JDYN6QM8M5UN","3KVQ0UJWPX71V463XQYDOZYIDLRW5D","","null","<img src=""img/food2.png"" style=""width:200px; border:14px solid green;"">","null","","","","","","",""
"","image-keyboard-response","282","125833","0.0-331.0","3KB8R4ZV1FT99IV6AXQAU18A0AGGBE","A2JDYN6QM8M5UN","3KVQ0UJWPX71V463XQYDOZYIDLRW5D","","310.9000000357628","img/food4.png","74","312.5","1","1","2","1,0.7,0,1,0.7,0,0.7,0,1","false",""
"","html-keyboard-response","283","126136","0.0-332.0","3KB8R4ZV1FT99IV6AXQAU18A0AGGBE","A2JDYN6QM8M5UN","3KVQ0UJWPX71V463XQYDOZYIDLRW5D","","null","<img src=""img/food4.png"" style=""width:200px; border:14px solid green;"">","null","","","","","","",""
"","image-keyboard-response","284","126449","0.0-334.0","3KB8R4ZV1FT99IV6AXQAU18A0AGGBE","A2JDYN6QM8M5UN","3KVQ0UJWPX71V463XQYDOZYIDLRW5D","","310.5","img/food4.png","74","312.0999999642372","1","1","2","1,0.7,0,1,0.7,0,0.7,0,1","false",""
"","html-keyboard-response","285","126752","0.0-335.0","3KB8R4ZV1FT99IV6AXQAU18A0AGGBE","A2JDYN6QM8M5UN","3KVQ0UJWPX71V463XQYDOZYIDLRW5D","","null","<img src=""img/food4.png"" style=""width:200px; border:14px solid green;"">","null","","","","","","",""
"","image-keyboard-response","286","127089","0.0-337.0","3KB8R4ZV1FT99IV6AXQAU18A0AGGBE","A2JDYN6QM8M5UN","3KVQ0UJWPX71V463XQYDOZYIDLRW5D","","334.89999997615814","img/food2.png","76","336.69999998807907","3","1","3","1,0.7,0,1,0.7,0,0.7,0,1","false",""
"","html-keyboard-response","287","127391","0.0-338.0","3KB8R4ZV1FT99IV6AXQAU18A0AGGBE","A2JDYN6QM8M5UN","3KVQ0UJWPX71V463XQYDOZYIDLRW5D","","null","<img src=""img/food2.png"" style=""width:200px; border:14px solid green;"">","null","","","","","","",""
"","image-keyboard-response","288","127729","0.0-340.0","3KB8R4ZV1FT99IV6AXQAU18A0AGGBE","A2JDYN6QM8M5UN","3KVQ0UJWPX71V463XQYDOZYIDLRW5D","","335.39999997615814","img/food5.png","74","337.19999998807907","1","1","1","1,0.7,0,1,0.7,0,0.7,0,1","false",""
"","html-keyboard-response","289","128032","0.0-341.0","3KB8R4ZV1FT99IV6AXQAU18A0AGGBE","A2JDYN6QM8M5UN","3KVQ0UJWPX71V463XQYDOZYIDLRW5D","","null","<img src=""img/food5.png"" style=""width:200px; border:14px solid green;"">","null","","","","","","",""
"","image-keyboard-response","290","128417","0.0-343.0","3KB8R4ZV1FT99IV6AXQAU18A0AGGBE","A2JDYN6QM8M5UN","3KVQ0UJWPX71V463XQYDOZYIDLRW5D","","383.10000002384186","img/food2.png","76","384.69999998807907","3","1","3","1,0.7,0,1,0.7,0,0.7,0,1","false",""
"","html-keyboard-response","291","128720","0.0-344.0","3KB8R4ZV1FT99IV6AXQAU18A0AGGBE","A2JDYN6QM8M5UN","3KVQ0UJWPX71V463XQYDOZYIDLRW5D","","null","<img src=""img/food2.png"" style=""width:200px; border:14px solid green;"">","null","","","","","","",""
"","image-keyboard-response","292","129049","0.0-346.0","3KB8R4ZV1FT99IV6AXQAU18A0AGGBE","A2JDYN6QM8M5UN","3KVQ0UJWPX71V463XQYDOZYIDLRW5D","","327.80000001192093","img/food2.png","76","329","3","1","3","1,0.7,0,1,0.7,0,0.7,0,1","false",""
"","html-keyboard-response","293","129352","0.0-347.0","3KB8R4ZV1FT99IV6AXQAU18A0AGGBE","A2JDYN6QM8M5UN","3KVQ0UJWPX71V463XQYDOZYIDLRW5D","","null","<img src=""img/food2.png"" style=""width:200px; border:14px solid green;"">","null","","","","","","",""
"","image-keyboard-response","294","129961","0.0-349.0","3KB8R4ZV1FT99IV6AXQAU18A0AGGBE","A2JDYN6QM8M5UN","3KVQ0UJWPX71V463XQYDOZYIDLRW5D","","606.6000000238419","img/food4.png","74","607.8999999761581","1","1","2","1,0.7,0,1,0.7,0,0.7,0,1","false",""
"","html-keyboard-response","295","130263","0.0-350.0","3KB8R4ZV1FT99IV6AXQAU18A0AGGBE","A2JDYN6QM8M5UN","3KVQ0UJWPX71V463XQYDOZYIDLRW5D","","null","<img src=""img/food4.png"" style=""width:200px; border:14px solid green;"">","null","","","","","","",""
"","image-keyboard-response","296","130521","0.0-352.0","3KB8R4ZV1FT99IV6AXQAU18A0AGGBE","A2JDYN6QM8M5UN","3KVQ0UJWPX71V463XQYDOZYIDLRW5D","","255.19999998807907","img/food4.png","74","256.69999998807907","1","1","2","1,0.7,0,1,0.7,0,0.7,0,1","false",""
"","html-keyboard-response","297","130824","0.0-353.0","3KB8R4ZV1FT99IV6AXQAU18A0AGGBE","A2JDYN6QM8M5UN","3KVQ0UJWPX71V463XQYDOZYIDLRW5D","","null","<img src=""img/food4.png"" style=""width:200px; border:14px solid green;"">","null","","","","","","",""
"","image-keyboard-response","298","131258","0.0-355.0","3KB8R4ZV1FT99IV6AXQAU18A0AGGBE","A2JDYN6QM8M5UN","3KVQ0UJWPX71V463XQYDOZYIDLRW5D","","431.7999999523163","img/food2.png","76","433.2000000476837","3","1","3","1,0.7,0,1,0.7,0,0.7,0,1","false",""
"","html-keyboard-response","299","131560","0.0-356.0","3KB8R4ZV1FT99IV6AXQAU18A0AGGBE","A2JDYN6QM8M5UN","3KVQ0UJWPX71V463XQYDOZYIDLRW5D","","null","<img src=""img/food2.png"" style=""width:200px; border:14px solid green;"">","null","","","","","","",""
"","image-keyboard-response","300","131977","0.0-358.0","3KB8R4ZV1FT99IV6AXQAU18A0AGGBE","A2JDYN6QM8M5UN","3KVQ0UJWPX71V463XQYDOZYIDLRW5D","","414.30000001192093","img/food5.png","74","415.80000001192093","1","1","1","1,0.7,0,1,0.7,0,0.7,0,1","false",""
"","html-keyboard-response","301","132280","0.0-359.0","3KB8R4ZV1FT99IV6AXQAU18A0AGGBE","A2JDYN6QM8M5UN","3KVQ0UJWPX71V463XQYDOZYIDLRW5D","","null","<img src=""img/food5.png"" style=""width:200px; border:14px solid green;"">","null","","","","","","",""
"","image-keyboard-response","302","132692","0.0-361.0","3KB8R4ZV1FT99IV6AXQAU18A0AGGBE","A2JDYN6QM8M5UN","3KVQ0UJWPX71V463XQYDOZYIDLRW5D","","410","img/food2.png","74","411.19999998807907","1","1","3","1,0.7,0,1,0.7,0,0.7,0,1","false",""
"","html-keyboard-response","303","132994","0.0-362.0","3KB8R4ZV1FT99IV6AXQAU18A0AGGBE","A2JDYN6QM8M5UN","3KVQ0UJWPX71V463XQYDOZYIDLRW5D","","null","<img src=""img/food2.png"" style=""width:200px; border:14px solid green;"">","null","","","","","","",""
"","image-keyboard-response","304","133619","0.0-364.0","3KB8R4ZV1FT99IV6AXQAU18A0AGGBE","A2JDYN6QM8M5UN","3KVQ0UJWPX71V463XQYDOZYIDLRW5D","","623.3000000119209","img/food5.png","74","625.3000000119209","1","1","1","1,0.7,0,1,0.7,0,0.7,0,1","false",""
"","html-keyboard-response","305","133922","0.0-365.0","3KB8R4ZV1FT99IV6AXQAU18A0AGGBE","A2JDYN6QM8M5UN","3KVQ0UJWPX71V463XQYDOZYIDLRW5D","","null","<img src=""img/food5.png"" style=""width:200px; border:14px solid green;"">","null","","","","","","",""
"","image-keyboard-response","306","134273","0.0-367.0","3KB8R4ZV1FT99IV6AXQAU18A0AGGBE","A2JDYN6QM8M5UN","3KVQ0UJWPX71V463XQYDOZYIDLRW5D","","349.5","img/food5.png","74","350.39999997615814","1","1","1","1,0.7,0,1,0.7,0,0.7,0,1","false",""
"","html-keyboard-response","307","134575","0.0-368.0","3KB8R4ZV1FT99IV6AXQAU18A0AGGBE","A2JDYN6QM8M5UN","3KVQ0UJWPX71V463XQYDOZYIDLRW5D","","null","<img src=""img/food5.png"" style=""width:200px; border:14px solid green;"">","null","","","","","","",""
"","image-keyboard-response","308","135073","0.0-370.0","3KB8R4ZV1FT99IV6AXQAU18A0AGGBE","A2JDYN6QM8M5UN","3KVQ0UJWPX71V463XQYDOZYIDLRW5D","","496.30000001192093","img/food4.png","74","498","1","1","2","1,0.7,0,1,0.7,0,0.7,0,1","false",""
"","html-keyboard-response","309","135375","0.0-371.0","3KB8R4ZV1FT99IV6AXQAU18A0AGGBE","A2JDYN6QM8M5UN","3KVQ0UJWPX71V463XQYDOZYIDLRW5D","","null","<img src=""img/food4.png"" style=""width:200px; border:14px solid green;"">","null","","","","","","",""
"","image-keyboard-response","310","135777","0.0-373.0","3KB8R4ZV1FT99IV6AXQAU18A0AGGBE","A2JDYN6QM8M5UN","3KVQ0UJWPX71V463XQYDOZYIDLRW5D","","399.39999997615814","img/food2.png","76","400.80000001192093","3","1","3","1,0.7,0,1,0.7,0,0.7,0,1","false",""
"","html-keyboard-response","311","136079","0.0-374.0","3KB8R4ZV1FT99IV6AXQAU18A0AGGBE","A2JDYN6QM8M5UN","3KVQ0UJWPX71V463XQYDOZYIDLRW5D","","null","<img src=""img/food2.png"" style=""width:200px; border:14px solid green;"">","null","","","","","","",""
"","image-keyboard-response","312","136434","0.0-376.0","3KB8R4ZV1FT99IV6AXQAU18A0AGGBE","A2JDYN6QM8M5UN","3KVQ0UJWPX71V463XQYDOZYIDLRW5D","","352.5999999642372","img/food4.png","74","354.5","1","1","2","1,0.7,0,1,0.7,0,0.7,0,1","false",""
"","html-keyboard-response","313","136738","0.0-377.0","3KB8R4ZV1FT99IV6AXQAU18A0AGGBE","A2JDYN6QM8M5UN","3KVQ0UJWPX71V463XQYDOZYIDLRW5D","","null","<img src=""img/food4.png"" style=""width:200px; border:14px solid green;"">","null","","","","","","",""
"","image-keyboard-response","314","137050","0.0-379.0","3KB8R4ZV1FT99IV6AXQAU18A0AGGBE","A2JDYN6QM8M5UN","3KVQ0UJWPX71V463XQYDOZYIDLRW5D","","309.30000001192093","img/food4.png","74","311.10000002384186","1","1","2","1,0.7,0,1,0.7,0,0.7,0,1","false",""
"","html-keyboard-response","315","137353","0.0-380.0","3KB8R4ZV1FT99IV6AXQAU18A0AGGBE","A2JDYN6QM8M5UN","3KVQ0UJWPX71V463XQYDOZYIDLRW5D","","null","<img src=""img/food4.png"" style=""width:200px; border:14px solid green;"">","null","","","","","","",""
"","image-keyboard-response","316","137865","0.0-382.0","3KB8R4ZV1FT99IV6AXQAU18A0AGGBE","A2JDYN6QM8M5UN","3KVQ0UJWPX71V463XQYDOZYIDLRW5D","","510.19999998807907","img/food5.png","74","511.80000001192093","1","1","1","1,0.7,0,1,0.7,0,0.7,0,1","false",""
"","html-keyboard-response","317","138169","0.0-383.0","3KB8R4ZV1FT99IV6AXQAU18A0AGGBE","A2JDYN6QM8M5UN","3KVQ0UJWPX71V463XQYDOZYIDLRW5D","","null","<img src=""img/food5.png"" style=""width:200px; border:14px solid green;"">","null","","","","","","",""
"","image-keyboard-response","318","138473","0.0-385.0","3KB8R4ZV1FT99IV6AXQAU18A0AGGBE","A2JDYN6QM8M5UN","3KVQ0UJWPX71V463XQYDOZYIDLRW5D","","302.60000002384186","img/food5.png","74","304.2000000476837","1","1","1","1,0.7,0,1,0.7,0,0.7,0,1","false",""
"","html-keyboard-response","319","138776","0.0-386.0","3KB8R4ZV1FT99IV6AXQAU18A0AGGBE","A2JDYN6QM8M5UN","3KVQ0UJWPX71V463XQYDOZYIDLRW5D","","null","<img src=""img/food5.png"" style=""width:200px; border:14px solid green;"">","null","","","","","","",""
"","image-keyboard-response","320","139096","0.0-388.0","3KB8R4ZV1FT99IV6AXQAU18A0AGGBE","A2JDYN6QM8M5UN","3KVQ0UJWPX71V463XQYDOZYIDLRW5D","","317.60000002384186","img/food4.png","74","319","1","1","2","1,0.7,0,1,0.7,0,0.7,0,1","false",""
"","html-keyboard-response","321","139398","0.0-389.0","3KB8R4ZV1FT99IV6AXQAU18A0AGGBE","A2JDYN6QM8M5UN","3KVQ0UJWPX71V463XQYDOZYIDLRW5D","","null","<img src=""img/food4.png"" style=""width:200px; border:14px solid green;"">","null","","","","","","",""
"","image-keyboard-response","322","139697","0.0-391.0","3KB8R4ZV1FT99IV6AXQAU18A0AGGBE","A2JDYN6QM8M5UN","3KVQ0UJWPX71V463XQYDOZYIDLRW5D","","296.80000001192093","img/food4.png","74","298.5","1","1","2","1,0.7,0,1,0.7,0,0.7,0,1","false",""
"","html-keyboard-response","323","140000","0.0-392.0","3KB8R4ZV1FT99IV6AXQAU18A0AGGBE","A2JDYN6QM8M5UN","3KVQ0UJWPX71V463XQYDOZYIDLRW5D","","null","<img src=""img/food4.png"" style=""width:200px; border:14px solid green;"">","null","","","","","","",""
"","image-keyboard-response","324","140297","0.0-394.0","3KB8R4ZV1FT99IV6AXQAU18A0AGGBE","A2JDYN6QM8M5UN","3KVQ0UJWPX71V463XQYDOZYIDLRW5D","","294.69999998807907","img/food4.png","74","296.19999998807907","1","1","2","1,0.7,0,1,0.7,0,0.7,0,1","false",""
"","html-keyboard-response","325","140600","0.0-395.0","3KB8R4ZV1FT99IV6AXQAU18A0AGGBE","A2JDYN6QM8M5UN","3KVQ0UJWPX71V463XQYDOZYIDLRW5D","","null","<img src=""img/food4.png"" style=""width:200px; border:14px solid green;"">","null","","","","","","",""
"","image-keyboard-response","326","141057","0.0-397.0","3KB8R4ZV1FT99IV6AXQAU18A0AGGBE","A2JDYN6QM8M5UN","3KVQ0UJWPX71V463XQYDOZYIDLRW5D","","454.69999998807907","img/food5.png","74","456.5999999642372","1","1","1","1,0.7,0,1,0.7,0,0.7,0,1","false",""
"","html-keyboard-response","327","141360","0.0-398.0","3KB8R4ZV1FT99IV6AXQAU18A0AGGBE","A2JDYN6QM8M5UN","3KVQ0UJWPX71V463XQYDOZYIDLRW5D","","null","<img src=""img/food5.png"" style=""width:200px; border:14px solid green;"">","null","","","","","","",""
"","image-keyboard-response","328","141642","0.0-400.0","3KB8R4ZV1FT99IV6AXQAU18A0AGGBE","A2JDYN6QM8M5UN","3KVQ0UJWPX71V463XQYDOZYIDLRW5D","","279.69999998807907","img/food5.png","74","281.30000001192093","1","1","1","1,0.7,0,1,0.7,0,0.7,0,1","false",""
"","html-keyboard-response","329","141945","0.0-401.0","3KB8R4ZV1FT99IV6AXQAU18A0AGGBE","A2JDYN6QM8M5UN","3KVQ0UJWPX71V463XQYDOZYIDLRW5D","","null","<img src=""img/food5.png"" style=""width:200px; border:14px solid green;"">","null","","","","","","",""
"","image-keyboard-response","330","142209","0.0-403.0","3KB8R4ZV1FT99IV6AXQAU18A0AGGBE","A2JDYN6QM8M5UN","3KVQ0UJWPX71V463XQYDOZYIDLRW5D","","261.30000001192093","img/food4.png","74","262.80000001192093","1","1","2","1,0.7,0,1,0.7,0,0.7,0,1","false",""
"","html-keyboard-response","331","142512","0.0-404.0","3KB8R4ZV1FT99IV6AXQAU18A0AGGBE","A2JDYN6QM8M5UN","3KVQ0UJWPX71V463XQYDOZYIDLRW5D","","null","<img src=""img/food4.png"" style=""width:200px; border:14px solid green;"">","null","","","","","","",""
"","image-keyboard-response","332","143152","0.0-406.0","3KB8R4ZV1FT99IV6AXQAU18A0AGGBE","A2JDYN6QM8M5UN","3KVQ0UJWPX71V463XQYDOZYIDLRW5D","","638.3999999761581","img/food2.png","76","639.5999999642372","3","1","3","1,0.7,0,1,0.7,0,0.7,0,1","false",""
"","html-keyboard-response","333","143455","0.0-407.0","3KB8R4ZV1FT99IV6AXQAU18A0AGGBE","A2JDYN6QM8M5UN","3KVQ0UJWPX71V463XQYDOZYIDLRW5D","","null","<img src=""img/food2.png"" style=""width:200px; border:14px solid green;"">","null","","","","","","",""
"","image-keyboard-response","334","143785","0.0-409.0","3KB8R4ZV1FT99IV6AXQAU18A0AGGBE","A2JDYN6QM8M5UN","3KVQ0UJWPX71V463XQYDOZYIDLRW5D","","328.5","img/food5.png","74","330.19999998807907","1","1","1","1,0.7,0,1,0.7,0,0.7,0,1","false",""
"","html-keyboard-response","335","144088","0.0-410.0","3KB8R4ZV1FT99IV6AXQAU18A0AGGBE","A2JDYN6QM8M5UN","3KVQ0UJWPX71V463XQYDOZYIDLRW5D","","null","<img src=""img/food5.png"" style=""width:200px; border:14px solid green;"">","null","","","","","","",""
"","image-keyboard-response","336","144362","0.0-412.0","3KB8R4ZV1FT99IV6AXQAU18A0AGGBE","A2JDYN6QM8M5UN","3KVQ0UJWPX71V463XQYDOZYIDLRW5D","","271.30000001192093","img/food5.png","74","272.80000001192093","1","1","1","1,0.7,0,1,0.7,0,0.7,0,1","false",""
"","html-keyboard-response","337","144664","0.0-413.0","3KB8R4ZV1FT99IV6AXQAU18A0AGGBE","A2JDYN6QM8M5UN","3KVQ0UJWPX71V463XQYDOZYIDLRW5D","","null","<img src=""img/food5.png"" style=""width:200px; border:14px solid green;"">","null","","","","","","",""
"","image-keyboard-response","338","145081","0.0-415.0","3KB8R4ZV1FT99IV6AXQAU18A0AGGBE","A2JDYN6QM8M5UN","3KVQ0UJWPX71V463XQYDOZYIDLRW5D","","414.30000001192093","img/food2.png","76","415.89999997615814","3","1","3","1,0.7,0,1,0.7,0,0.7,0,1","false",""
"","html-keyboard-response","339","145383","0.0-416.0","3KB8R4ZV1FT99IV6AXQAU18A0AGGBE","A2JDYN6QM8M5UN","3KVQ0UJWPX71V463XQYDOZYIDLRW5D","","null","<img src=""img/food2.png"" style=""width:200px; border:14px solid green;"">","null","","","","","","",""
"","image-keyboard-response","340","145769","0.0-418.0","3KB8R4ZV1FT99IV6AXQAU18A0AGGBE","A2JDYN6QM8M5UN","3KVQ0UJWPX71V463XQYDOZYIDLRW5D","","383.60000002384186","img/food5.png","74","385.19999998807907","1","1","1","1,0.7,0,1,0.7,0,0.7,0,1","false",""
"","html-keyboard-response","341","146071","0.0-419.0","3KB8R4ZV1FT99IV6AXQAU18A0AGGBE","A2JDYN6QM8M5UN","3KVQ0UJWPX71V463XQYDOZYIDLRW5D","","null","<img src=""img/food5.png"" style=""width:200px; border:14px solid green;"">","null","","","","","","",""
"","image-keyboard-response","342","146369","0.0-421.0","3KB8R4ZV1FT99IV6AXQAU18A0AGGBE","A2JDYN6QM8M5UN","3KVQ0UJWPX71V463XQYDOZYIDLRW5D","","295.5","img/food2.png","74","297","1","1","3","1,0.7,0,1,0.7,0,0.7,0,1","false",""
"","html-keyboard-response","343","146672","0.0-422.0","3KB8R4ZV1FT99IV6AXQAU18A0AGGBE","A2JDYN6QM8M5UN","3KVQ0UJWPX71V463XQYDOZYIDLRW5D","","null","<img src=""img/food2.png"" style=""width:200px; border:14px solid green;"">","null","","","","","","",""
"","image-keyboard-response","344","147145","0.0-424.0","3KB8R4ZV1FT99IV6AXQAU18A0AGGBE","A2JDYN6QM8M5UN","3KVQ0UJWPX71V463XQYDOZYIDLRW5D","","471.69999998807907","img/food4.png","74","473.30000001192093","1","1","2","1,0.7,0,1,0.7,0,0.7,0,1","false",""
"","html-keyboard-response","345","147448","0.0-425.0","3KB8R4ZV1FT99IV6AXQAU18A0AGGBE","A2JDYN6QM8M5UN","3KVQ0UJWPX71V463XQYDOZYIDLRW5D","","null","<img src=""img/food4.png"" style=""width:200px; border:14px solid green;"">","null","","","","","","",""
"","image-keyboard-response","346","147817","0.0-427.0","3KB8R4ZV1FT99IV6AXQAU18A0AGGBE","A2JDYN6QM8M5UN","3KVQ0UJWPX71V463XQYDOZYIDLRW5D","","367.60000002384186","img/food2.png","74","368.80000001192093","1","0","3","1,0.7,0,1,0.7,0,0.7,0,1","false",""
"","html-keyboard-response","347","148120","0.0-428.0","3KB8R4ZV1FT99IV6AXQAU18A0AGGBE","A2JDYN6QM8M5UN","3KVQ0UJWPX71V463XQYDOZYIDLRW5D","","null","<img src=""img/food2.png"" style=""width:200px;border:14px solid red;"">","null","","","","","","",""
"","image-keyboard-response","348","148561","0.0-430.0","3KB8R4ZV1FT99IV6AXQAU18A0AGGBE","A2JDYN6QM8M5UN","3KVQ0UJWPX71V463XQYDOZYIDLRW5D","","438.60000002384186","img/food5.png","74","440.30000001192093","1","1","1","1,0.7,0,1,0.7,0,0.7,0,1","false",""
"","html-keyboard-response","349","148864","0.0-431.0","3KB8R4ZV1FT99IV6AXQAU18A0AGGBE","A2JDYN6QM8M5UN","3KVQ0UJWPX71V463XQYDOZYIDLRW5D","","null","<img src=""img/food5.png"" style=""width:200px; border:14px solid green;"">","null","","","","","","",""
"","image-keyboard-response","350","149274","0.0-433.0","3KB8R4ZV1FT99IV6AXQAU18A0AGGBE","A2JDYN6QM8M5UN","3KVQ0UJWPX71V463XQYDOZYIDLRW5D","","407.2000000476837","img/food4.png","74","409.4000000357628","1","1","2","1,0.7,0,1,0.7,0,0.7,0,1","false",""
"","html-keyboard-response","351","149577","0.0-434.0","3KB8R4ZV1FT99IV6AXQAU18A0AGGBE","A2JDYN6QM8M5UN","3KVQ0UJWPX71V463XQYDOZYIDLRW5D","","null","<img src=""img/food4.png"" style=""width:200px; border:14px solid green;"">","null","","","","","","",""
"","image-keyboard-response","352","149889","0.0-436.0","3KB8R4ZV1FT99IV6AXQAU18A0AGGBE","A2JDYN6QM8M5UN","3KVQ0UJWPX71V463XQYDOZYIDLRW5D","","309.7000000476837","img/food4.png","74","311.0999999642372","1","1","2","1,0.7,0,1,0.7,0,0.7,0,1","false",""
"","html-keyboard-response","353","150192","0.0-437.0","3KB8R4ZV1FT99IV6AXQAU18A0AGGBE","A2JDYN6QM8M5UN","3KVQ0UJWPX71V463XQYDOZYIDLRW5D","","null","<img src=""img/food4.png"" style=""width:200px; border:14px solid green;"">","null","","","","","","",""
"","image-keyboard-response","354","150489","0.0-439.0","3KB8R4ZV1FT99IV6AXQAU18A0AGGBE","A2JDYN6QM8M5UN","3KVQ0UJWPX71V463XQYDOZYIDLRW5D","","294.89999997615814","img/food4.png","74","296.4000000357628","1","1","2","1,0.7,0,1,0.7,0,0.7,0,1","false",""
"","html-keyboard-response","355","150791","0.0-440.0","3KB8R4ZV1FT99IV6AXQAU18A0AGGBE","A2JDYN6QM8M5UN","3KVQ0UJWPX71V463XQYDOZYIDLRW5D","","null","<img src=""img/food4.png"" style=""width:200px; border:14px solid green;"">","null","","","","","","",""
"","image-keyboard-response","356","151161","0.0-442.0","3KB8R4ZV1FT99IV6AXQAU18A0AGGBE","A2JDYN6QM8M5UN","3KVQ0UJWPX71V463XQYDOZYIDLRW5D","","367.60000002384186","img/food2.png","76","369.0999999642372","3","1","3","1,0.7,0,1,0.7,0,0.7,0,1","false",""
"","html-keyboard-response","357","151464","0.0-443.0","3KB8R4ZV1FT99IV6AXQAU18A0AGGBE","A2JDYN6QM8M5UN","3KVQ0UJWPX71V463XQYDOZYIDLRW5D","","null","<img src=""img/food2.png"" style=""width:200px; border:14px solid green;"">","null","","","","","","",""
"","image-keyboard-response","358","151794","0.0-445.0","3KB8R4ZV1FT99IV6AXQAU18A0AGGBE","A2JDYN6QM8M5UN","3KVQ0UJWPX71V463XQYDOZYIDLRW5D","","327.2999999523163","img/food2.png","76","328.89999997615814","3","1","3","1,0.7,0,1,0.7,0,0.7,0,1","false",""
"","html-keyboard-response","359","152096","0.0-446.0","3KB8R4ZV1FT99IV6AXQAU18A0AGGBE","A2JDYN6QM8M5UN","3KVQ0UJWPX71V463XQYDOZYIDLRW5D","","null","<img src=""img/food2.png"" style=""width:200px; border:14px solid green;"">","null","","","","","","",""
"","image-keyboard-response","360","152417","0.0-448.0","3KB8R4ZV1FT99IV6AXQAU18A0AGGBE","A2JDYN6QM8M5UN","3KVQ0UJWPX71V463XQYDOZYIDLRW5D","","319.10000002384186","img/food2.png","76","320.69999998807907","3","1","3","1,0.7,0,1,0.7,0,0.7,0,1","false",""
"","html-keyboard-response","361","152720","0.0-449.0","3KB8R4ZV1FT99IV6AXQAU18A0AGGBE","A2JDYN6QM8M5UN","3KVQ0UJWPX71V463XQYDOZYIDLRW5D","","null","<img src=""img/food2.png"" style=""width:200px; border:14px solid green;"">","null","","","","","","",""
"","image-keyboard-response","362","153017","0.0-451.0","3KB8R4ZV1FT99IV6AXQAU18A0AGGBE","A2JDYN6QM8M5UN","3KVQ0UJWPX71V463XQYDOZYIDLRW5D","","295.5","img/food2.png","76","296.5","3","1","3","1,0.7,0,1,0.7,0,0.7,0,1","false",""
"","html-keyboard-response","363","153319","0.0-452.0","3KB8R4ZV1FT99IV6AXQAU18A0AGGBE","A2JDYN6QM8M5UN","3KVQ0UJWPX71V463XQYDOZYIDLRW5D","","null","<img src=""img/food2.png"" style=""width:200px; border:14px solid green;"">","null","","","","","","",""
"","instructions","364","155485","0.0-454.0","3KB8R4ZV1FT99IV6AXQAU18A0AGGBE","A2JDYN6QM8M5UN","3KVQ0UJWPX71V463XQYDOZYIDLRW5D","[{""page_index"":0,""viewing_time"":2164.600000023842}]","2164.899999976158","","","","","","","","",""
"","survey-text","365","157637","0.0-455.0","3KB8R4ZV1FT99IV6AXQAU18A0AGGBE","A2JDYN6QM8M5UN","3KVQ0UJWPX71V463XQYDOZYIDLRW5D","","2148.5","","","","","","","","","{""Q0"":""A2JDYN6QM8M5UN""}"
