"success","trial_type","trial_index","time_elapsed","internal_node_id","assignmentID","mturkID","hitID","view_history","rt","stimulus","key_press","reactionTime","a","r","warning","s","cond","reward_cond","reward_cond_actual","reward_matrix_idx","responses"
"true","fullscreen","0","2364","0.0-0.0","3TS1AR6UQR0GT6WLMW8C7EM2HEIF74","A2JI8LMB1EEQ4Z","335VBRURDJMQFRMOFGHOE9WKSHX9E1","","","","","","","","","","","","","",""
"","instructions","1","9810","0.0-1.0","3TS1AR6UQR0GT6WLMW8C7EM2HEIF74","A2JI8LMB1EEQ4Z","335VBRURDJMQFRMOFGHOE9WKSHX9E1","[{""page_index"":0,""viewing_time"":953.5},{""page_index"":1,""viewing_time"":583.8000001907349},{""page_index"":2,""viewing_time"":464},{""page_index"":3,""viewing_time"":2195.800000190735},{""page_index"":4,""viewing_time"":922},{""page_index"":5,""viewing_time"":623.8999996185303},{""page_index"":6,""viewing_time"":1698.1999998092651}]","7442.699999809265","","","","","","","","","","","",""
"","instructions","2","23520","0.0-2.0","3TS1AR6UQR0GT6WLMW8C7EM2HEIF74","A2JI8LMB1EEQ4Z","335VBRURDJMQFRMOFGHOE9WKSHX9E1","[{""page_index"":0,""viewing_time"":11264.60000038147},{""page_index"":1,""viewing_time"":2443.8999996185303}]","13709","","","","","","","","","","","",""
"","image-keyboard-response","3","24057","0.0-3.0","3TS1AR6UQR0GT6WLMW8C7EM2HEIF74","A2JI8LMB1EEQ4Z","335VBRURDJMQFRMOFGHOE9WKSHX9E1","","533.6999998092651","img/food1.png","74","536.1999998092651","1","1","false","3","2","1,0.5,0,1,0.5,0,0.5,0,1","0,1,0.5,0,1,0.5,1,0.5,0","3",""
"","html-keyboard-response","4","24364","0.0-4.0","3TS1AR6UQR0GT6WLMW8C7EM2HEIF74","A2JI8LMB1EEQ4Z","335VBRURDJMQFRMOFGHOE9WKSHX9E1","","null","<img src=""img/food1.png"" style=""width:200px; border:14px solid green;"">","null","","","","","","","","","",""
"","image-keyboard-response","5","24984","0.0-6.0","3TS1AR6UQR0GT6WLMW8C7EM2HEIF74","A2JI8LMB1EEQ4Z","335VBRURDJMQFRMOFGHOE9WKSHX9E1","","617.3999996185303","img/food2.png","75","618.6999998092651","2","1","false","2","2","1,0.5,0,1,0.5,0,0.5,0,1","0,1,0.5,0,1,0.5,1,0.5,0","3",""
"","html-keyboard-response","6","25292","0.0-7.0","3TS1AR6UQR0GT6WLMW8C7EM2HEIF74","A2JI8LMB1EEQ4Z","335VBRURDJMQFRMOFGHOE9WKSHX9E1","","null","<img src=""img/food2.png"" style=""width:200px; border:14px solid green;"">","null","","","","","","","","","",""
"","image-keyboard-response","7","25816","0.0-9.0","3TS1AR6UQR0GT6WLMW8C7EM2HEIF74","A2JI8LMB1EEQ4Z","335VBRURDJMQFRMOFGHOE9WKSHX9E1","","521.5","img/food2.png","75","522.9000005722046","2","1","false","2","2","1,0.5,0,1,0.5,0,0.5,0,1","0,1,0.5,0,1,0.5,1,0.5,0","3",""
"","html-keyboard-response","8","26124","0.0-10.0","3TS1AR6UQR0GT6WLMW8C7EM2HEIF74","A2JI8LMB1EEQ4Z","335VBRURDJMQFRMOFGHOE9WKSHX9E1","","null","<img src=""img/food2.png"" style=""width:200px; border:14px solid green;"">","null","","","","","","","","","",""
"","image-keyboard-response","9","26696","0.0-12.0","3TS1AR6UQR0GT6WLMW8C7EM2HEIF74","A2JI8LMB1EEQ4Z","335VBRURDJMQFRMOFGHOE9WKSHX9E1","","569.5","img/food3.png","76","570.9000005722046","3","0","false","1","2","1,0.5,0,1,0.5,0,0.5,0,1","0,1,0.5,0,1,0.5,1,0.5,0","3",""
"","html-keyboard-response","10","27004","0.0-13.0","3TS1AR6UQR0GT6WLMW8C7EM2HEIF74","A2JI8LMB1EEQ4Z","335VBRURDJMQFRMOFGHOE9WKSHX9E1","","null","<img src=""img/food3.png"" style=""width:200px;border:14px solid red;"">","null","","","","","","","","","",""
"","image-keyboard-response","11","27832","0.0-15.0","3TS1AR6UQR0GT6WLMW8C7EM2HEIF74","A2JI8LMB1EEQ4Z","335VBRURDJMQFRMOFGHOE9WKSHX9E1","","825.5999994277954","img/food2.png","74","827","1","0","false","2","2","1,0.5,0,1,0.5,0,0.5,0,1","0,1,0.5,0,1,0.5,1,0.5,0","3",""
"","html-keyboard-response","12","28140","0.0-16.0","3TS1AR6UQR0GT6WLMW8C7EM2HEIF74","A2JI8LMB1EEQ4Z","335VBRURDJMQFRMOFGHOE9WKSHX9E1","","null","<img src=""img/food2.png"" style=""width:200px;border:14px solid red;"">","null","","","","","","","","","",""
"","image-keyboard-response","13","28456","0.0-18.0","3TS1AR6UQR0GT6WLMW8C7EM2HEIF74","A2JI8LMB1EEQ4Z","335VBRURDJMQFRMOFGHOE9WKSHX9E1","","313.69999980926514","img/food2.png","75","314.8999996185303","2","1","false","2","2","1,0.5,0,1,0.5,0,0.5,0,1","0,1,0.5,0,1,0.5,1,0.5,0","3",""
"","html-keyboard-response","14","28764","0.0-19.0","3TS1AR6UQR0GT6WLMW8C7EM2HEIF74","A2JI8LMB1EEQ4Z","335VBRURDJMQFRMOFGHOE9WKSHX9E1","","null","<img src=""img/food2.png"" style=""width:200px; border:14px solid green;"">","null","","","","","","","","","",""
"","image-keyboard-response","15","29136","0.0-21.0","3TS1AR6UQR0GT6WLMW8C7EM2HEIF74","A2JI8LMB1EEQ4Z","335VBRURDJMQFRMOFGHOE9WKSHX9E1","","369.6000003814697","img/food2.png","75","370.8999996185303","2","1","false","2","2","1,0.5,0,1,0.5,0,0.5,0,1","0,1,0.5,0,1,0.5,1,0.5,0","3",""
"","html-keyboard-response","16","29444","0.0-22.0","3TS1AR6UQR0GT6WLMW8C7EM2HEIF74","A2JI8LMB1EEQ4Z","335VBRURDJMQFRMOFGHOE9WKSHX9E1","","null","<img src=""img/food2.png"" style=""width:200px; border:14px solid green;"">","null","","","","","","","","","",""
"","image-keyboard-response","17","29992","0.0-24.0","3TS1AR6UQR0GT6WLMW8C7EM2HEIF74","A2JI8LMB1EEQ4Z","335VBRURDJMQFRMOFGHOE9WKSHX9E1","","545.8000001907349","img/food1.png","74","546.8999996185303","1","1","false","3","2","1,0.5,0,1,0.5,0,0.5,0,1","0,1,0.5,0,1,0.5,1,0.5,0","3",""
"","html-keyboard-response","18","30300","0.0-25.0","3TS1AR6UQR0GT6WLMW8C7EM2HEIF74","A2JI8LMB1EEQ4Z","335VBRURDJMQFRMOFGHOE9WKSHX9E1","","null","<img src=""img/food1.png"" style=""width:200px; border:14px solid green;"">","null","","","","","","","","","",""
"","image-keyboard-response","19","30624","0.0-27.0","3TS1AR6UQR0GT6WLMW8C7EM2HEIF74","A2JI8LMB1EEQ4Z","335VBRURDJMQFRMOFGHOE9WKSHX9E1","","321.6000003814697","img/food1.png","74","322.8999996185303","1","1","false","3","2","1,0.5,0,1,0.5,0,0.5,0,1","0,1,0.5,0,1,0.5,1,0.5,0","3",""
"","html-keyboard-response","20","30932","0.0-28.0","3TS1AR6UQR0GT6WLMW8C7EM2HEIF74","A2JI8LMB1EEQ4Z","335VBRURDJMQFRMOFGHOE9WKSHX9E1","","null","<img src=""img/food1.png"" style=""width:200px; border:14px solid green;"">","null","","","","","","","","","",""
"","image-keyboard-response","21","31545","0.0-30.0","3TS1AR6UQR0GT6WLMW8C7EM2HEIF74","A2JI8LMB1EEQ4Z","335VBRURDJMQFRMOFGHOE9WKSHX9E1","","610.3999996185303","img/food3.png","76","611.5999994277954","3","0","false","1","2","1,0.5,0,1,0.5,0,0.5,0,1","0,1,0.5,0,1,0.5,1,0.5,0","3",""
"","html-keyboard-response","22","31852","0.0-31.0","3TS1AR6UQR0GT6WLMW8C7EM2HEIF74","A2JI8LMB1EEQ4Z","335VBRURDJMQFRMOFGHOE9WKSHX9E1","","null","<img src=""img/food3.png"" style=""width:200px;border:14px solid red;"">","null","","","","","","","","","",""
"","image-keyboard-response","23","32624","0.0-33.0","3TS1AR6UQR0GT6WLMW8C7EM2HEIF74","A2JI8LMB1EEQ4Z","335VBRURDJMQFRMOFGHOE9WKSHX9E1","","769.2999992370605","img/food2.png","74","770.6000003814697","1","0","false","2","2","1,0.5,0,1,0.5,0,0.5,0,1","0,1,0.5,0,1,0.5,1,0.5,0","3",""
"","html-keyboard-response","24","32932","0.0-34.0","3TS1AR6UQR0GT6WLMW8C7EM2HEIF74","A2JI8LMB1EEQ4Z","335VBRURDJMQFRMOFGHOE9WKSHX9E1","","null","<img src=""img/food2.png"" style=""width:200px;border:14px solid red;"">","null","","","","","","","","","",""
"","image-keyboard-response","25","33136","0.0-36.0","3TS1AR6UQR0GT6WLMW8C7EM2HEIF74","A2JI8LMB1EEQ4Z","335VBRURDJMQFRMOFGHOE9WKSHX9E1","","201.5","img/food3.png","75","202.69999980926514","2","1","false","1","2","1,0.5,0,1,0.5,0,0.5,0,1","0,1,0.5,0,1,0.5,1,0.5,0","3",""
"","html-keyboard-response","26","33444","0.0-37.0","3TS1AR6UQR0GT6WLMW8C7EM2HEIF74","A2JI8LMB1EEQ4Z","335VBRURDJMQFRMOFGHOE9WKSHX9E1","","null","<img src=""img/food3.png"" style=""width:200px; border:14px solid green;"">","null","","","","","","","","","",""
"","image-keyboard-response","27","34400","0.0-39.0","3TS1AR6UQR0GT6WLMW8C7EM2HEIF74","A2JI8LMB1EEQ4Z","335VBRURDJMQFRMOFGHOE9WKSHX9E1","","953.5","img/food2.png","74","954.8000001907349","1","0","false","2","2","1,0.5,0,1,0.5,0,0.5,0,1","0,1,0.5,0,1,0.5,1,0.5,0","3",""
"","html-keyboard-response","28","34709","0.0-40.0","3TS1AR6UQR0GT6WLMW8C7EM2HEIF74","A2JI8LMB1EEQ4Z","335VBRURDJMQFRMOFGHOE9WKSHX9E1","","null","<img src=""img/food2.png"" style=""width:200px;border:14px solid red;"">","null","","","","","","","","","",""
"","image-keyboard-response","29","35280","0.0-42.0","3TS1AR6UQR0GT6WLMW8C7EM2HEIF74","A2JI8LMB1EEQ4Z","335VBRURDJMQFRMOFGHOE9WKSHX9E1","","568.6999998092651","img/food3.png","74","570.3000001907349","1","0","false","1","2","1,0.5,0,1,0.5,0,0.5,0,1","0,1,0.5,0,1,0.5,1,0.5,0","3",""
"","html-keyboard-response","30","35588","0.0-43.0","3TS1AR6UQR0GT6WLMW8C7EM2HEIF74","A2JI8LMB1EEQ4Z","335VBRURDJMQFRMOFGHOE9WKSHX9E1","","null","<img src=""img/food3.png"" style=""width:200px;border:14px solid red;"">","null","","","","","","","","","",""
"","image-keyboard-response","31","35927","0.0-45.0","3TS1AR6UQR0GT6WLMW8C7EM2HEIF74","A2JI8LMB1EEQ4Z","335VBRURDJMQFRMOFGHOE9WKSHX9E1","","337.1000003814697","img/food1.png","75","338","2","0","false","3","2","1,0.5,0,1,0.5,0,0.5,0,1","0,1,0.5,0,1,0.5,1,0.5,0","3",""
"","html-keyboard-response","32","36237","0.0-46.0","3TS1AR6UQR0GT6WLMW8C7EM2HEIF74","A2JI8LMB1EEQ4Z","335VBRURDJMQFRMOFGHOE9WKSHX9E1","","null","<img src=""img/food1.png"" style=""width:200px;border:14px solid red;"">","null","","","","","","","","","",""
"","image-keyboard-response","33","36744","0.0-48.0","3TS1AR6UQR0GT6WLMW8C7EM2HEIF74","A2JI8LMB1EEQ4Z","335VBRURDJMQFRMOFGHOE9WKSHX9E1","","505.1000003814697","img/food2.png","76","506.5","3","1","false","2","2","1,0.5,0,1,0.5,0,0.5,0,1","0,1,0.5,0,1,0.5,1,0.5,0","3",""
"","html-keyboard-response","34","37052","0.0-49.0","3TS1AR6UQR0GT6WLMW8C7EM2HEIF74","A2JI8LMB1EEQ4Z","335VBRURDJMQFRMOFGHOE9WKSHX9E1","","null","<img src=""img/food2.png"" style=""width:200px; border:14px solid green;"">","null","","","","","","","","","",""
"","image-keyboard-response","35","37640","0.0-51.0","3TS1AR6UQR0GT6WLMW8C7EM2HEIF74","A2JI8LMB1EEQ4Z","335VBRURDJMQFRMOFGHOE9WKSHX9E1","","585.1999998092651","img/food3.png","75","586.5","2","1","false","1","2","1,0.5,0,1,0.5,0,0.5,0,1","0,1,0.5,0,1,0.5,1,0.5,0","3",""
"","html-keyboard-response","36","37948","0.0-52.0","3TS1AR6UQR0GT6WLMW8C7EM2HEIF74","A2JI8LMB1EEQ4Z","335VBRURDJMQFRMOFGHOE9WKSHX9E1","","null","<img src=""img/food3.png"" style=""width:200px; border:14px solid green;"">","null","","","","","","","","","",""
"","image-keyboard-response","37","38688","0.0-54.0","3TS1AR6UQR0GT6WLMW8C7EM2HEIF74","A2JI8LMB1EEQ4Z","335VBRURDJMQFRMOFGHOE9WKSHX9E1","","737.2999992370605","img/food2.png","75","738.5","2","1","false","2","2","1,0.5,0,1,0.5,0,0.5,0,1","0,1,0.5,0,1,0.5,1,0.5,0","3",""
"","html-keyboard-response","38","38996","0.0-55.0","3TS1AR6UQR0GT6WLMW8C7EM2HEIF74","A2JI8LMB1EEQ4Z","335VBRURDJMQFRMOFGHOE9WKSHX9E1","","null","<img src=""img/food2.png"" style=""width:200px; border:14px solid green;"">","null","","","","","","","","","",""
"","image-keyboard-response","39","39647","0.0-57.0","3TS1AR6UQR0GT6WLMW8C7EM2HEIF74","A2JI8LMB1EEQ4Z","335VBRURDJMQFRMOFGHOE9WKSHX9E1","","649.1000003814697","img/food3.png","74","650.3000001907349","1","0","false","1","2","1,0.5,0,1,0.5,0,0.5,0,1","0,1,0.5,0,1,0.5,1,0.5,0","3",""
"","html-keyboard-response","40","39957","0.0-58.0","3TS1AR6UQR0GT6WLMW8C7EM2HEIF74","A2JI8LMB1EEQ4Z","335VBRURDJMQFRMOFGHOE9WKSHX9E1","","null","<img src=""img/food3.png"" style=""width:200px;border:14px solid red;"">","null","","","","","","","","","",""
"","image-keyboard-response","41","40311","0.0-60.0","3TS1AR6UQR0GT6WLMW8C7EM2HEIF74","A2JI8LMB1EEQ4Z","335VBRURDJMQFRMOFGHOE9WKSHX9E1","","352.8999996185303","img/food3.png","74","354.0999994277954","1","0","false","1","2","1,0.5,0,1,0.5,0,0.5,0,1","0,1,0.5,0,1,0.5,1,0.5,0","3",""
"","html-keyboard-response","42","40621","0.0-61.0","3TS1AR6UQR0GT6WLMW8C7EM2HEIF74","A2JI8LMB1EEQ4Z","335VBRURDJMQFRMOFGHOE9WKSHX9E1","","null","<img src=""img/food3.png"" style=""width:200px;border:14px solid red;"">","null","","","","","","","","","",""
"","image-keyboard-response","43","41336","0.0-63.0","3TS1AR6UQR0GT6WLMW8C7EM2HEIF74","A2JI8LMB1EEQ4Z","335VBRURDJMQFRMOFGHOE9WKSHX9E1","","713.5","img/food1.png","74","714.6999998092651","1","1","false","3","2","1,0.5,0,1,0.5,0,0.5,0,1","0,1,0.5,0,1,0.5,1,0.5,0","3",""
"","html-keyboard-response","44","41645","0.0-64.0","3TS1AR6UQR0GT6WLMW8C7EM2HEIF74","A2JI8LMB1EEQ4Z","335VBRURDJMQFRMOFGHOE9WKSHX9E1","","null","<img src=""img/food1.png"" style=""width:200px; border:14px solid green;"">","null","","","","","","","","","",""
"","image-keyboard-response","45","42168","0.0-66.0","3TS1AR6UQR0GT6WLMW8C7EM2HEIF74","A2JI8LMB1EEQ4Z","335VBRURDJMQFRMOFGHOE9WKSHX9E1","","521.1999998092651","img/food1.png","74","522.6999998092651","1","1","false","3","2","1,0.5,0,1,0.5,0,0.5,0,1","0,1,0.5,0,1,0.5,1,0.5,0","3",""
"","html-keyboard-response","46","42477","0.0-67.0","3TS1AR6UQR0GT6WLMW8C7EM2HEIF74","A2JI8LMB1EEQ4Z","335VBRURDJMQFRMOFGHOE9WKSHX9E1","","null","<img src=""img/food1.png"" style=""width:200px; border:14px solid green;"">","null","","","","","","","","","",""
"","image-keyboard-response","47","42807","0.0-69.0","3TS1AR6UQR0GT6WLMW8C7EM2HEIF74","A2JI8LMB1EEQ4Z","335VBRURDJMQFRMOFGHOE9WKSHX9E1","","328.69999980926514","img/food1.png","74","329.79999923706055","1","1","false","3","2","1,0.5,0,1,0.5,0,0.5,0,1","0,1,0.5,0,1,0.5,1,0.5,0","3",""
"","html-keyboard-response","48","43117","0.0-70.0","3TS1AR6UQR0GT6WLMW8C7EM2HEIF74","A2JI8LMB1EEQ4Z","335VBRURDJMQFRMOFGHOE9WKSHX9E1","","null","<img src=""img/food1.png"" style=""width:200px; border:14px solid green;"">","null","","","","","","","","","",""
"","image-keyboard-response","49","43480","0.0-72.0","3TS1AR6UQR0GT6WLMW8C7EM2HEIF74","A2JI8LMB1EEQ4Z","335VBRURDJMQFRMOFGHOE9WKSHX9E1","","360.70000076293945","img/food1.png","74","362.1000003814697","1","1","false","3","2","1,0.5,0,1,0.5,0,0.5,0,1","0,1,0.5,0,1,0.5,1,0.5,0","3",""
"","html-keyboard-response","50","43789","0.0-73.0","3TS1AR6UQR0GT6WLMW8C7EM2HEIF74","A2JI8LMB1EEQ4Z","335VBRURDJMQFRMOFGHOE9WKSHX9E1","","null","<img src=""img/food1.png"" style=""width:200px; border:14px solid green;"">","null","","","","","","","","","",""
"","image-keyboard-response","51","44551","0.0-75.0","3TS1AR6UQR0GT6WLMW8C7EM2HEIF74","A2JI8LMB1EEQ4Z","335VBRURDJMQFRMOFGHOE9WKSHX9E1","","760.7000007629395","img/food2.png","75","761.9000005722046","2","1","false","2","2","1,0.5,0,1,0.5,0,0.5,0,1","0,1,0.5,0,1,0.5,1,0.5,0","3",""
"","html-keyboard-response","52","44860","0.0-76.0","3TS1AR6UQR0GT6WLMW8C7EM2HEIF74","A2JI8LMB1EEQ4Z","335VBRURDJMQFRMOFGHOE9WKSHX9E1","","null","<img src=""img/food2.png"" style=""width:200px; border:14px solid green;"">","null","","","","","","","","","",""
"","image-keyboard-response","53","45135","0.0-78.0","3TS1AR6UQR0GT6WLMW8C7EM2HEIF74","A2JI8LMB1EEQ4Z","335VBRURDJMQFRMOFGHOE9WKSHX9E1","","273.70000076293945","img/food2.png","75","274.8999996185303","2","1","false","2","2","1,0.5,0,1,0.5,0,0.5,0,1","0,1,0.5,0,1,0.5,1,0.5,0","3",""
"","html-keyboard-response","54","45444","0.0-79.0","3TS1AR6UQR0GT6WLMW8C7EM2HEIF74","A2JI8LMB1EEQ4Z","335VBRURDJMQFRMOFGHOE9WKSHX9E1","","null","<img src=""img/food2.png"" style=""width:200px; border:14px solid green;"">","null","","","","","","","","","",""
"","image-keyboard-response","55","46127","0.0-81.0","3TS1AR6UQR0GT6WLMW8C7EM2HEIF74","A2JI8LMB1EEQ4Z","335VBRURDJMQFRMOFGHOE9WKSHX9E1","","681.6000003814697","img/food1.png","74","682.8000001907349","1","1","false","3","2","1,0.5,0,1,0.5,0,0.5,0,1","0,1,0.5,0,1,0.5,1,0.5,0","3",""
"","html-keyboard-response","56","46436","0.0-82.0","3TS1AR6UQR0GT6WLMW8C7EM2HEIF74","A2JI8LMB1EEQ4Z","335VBRURDJMQFRMOFGHOE9WKSHX9E1","","null","<img src=""img/food1.png"" style=""width:200px; border:14px solid green;"">","null","","","","","","","","","",""
"","image-keyboard-response","57","46759","0.0-84.0","3TS1AR6UQR0GT6WLMW8C7EM2HEIF74","A2JI8LMB1EEQ4Z","335VBRURDJMQFRMOFGHOE9WKSHX9E1","","321.19999980926514","img/food1.png","74","322.3999996185303","1","1","false","3","2","1,0.5,0,1,0.5,0,0.5,0,1","0,1,0.5,0,1,0.5,1,0.5,0","3",""
"","html-keyboard-response","58","47068","0.0-85.0","3TS1AR6UQR0GT6WLMW8C7EM2HEIF74","A2JI8LMB1EEQ4Z","335VBRURDJMQFRMOFGHOE9WKSHX9E1","","null","<img src=""img/food1.png"" style=""width:200px; border:14px solid green;"">","null","","","","","","","","","",""
"","image-keyboard-response","59","47751","0.0-87.0","3TS1AR6UQR0GT6WLMW8C7EM2HEIF74","A2JI8LMB1EEQ4Z","335VBRURDJMQFRMOFGHOE9WKSHX9E1","","681.6000003814697","img/food3.png","76","682.8999996185303","3","1","false","1","2","1,0.5,0,1,0.5,0,0.5,0,1","0,1,0.5,0,1,0.5,1,0.5,0","3",""
"","html-keyboard-response","60","48060","0.0-88.0","3TS1AR6UQR0GT6WLMW8C7EM2HEIF74","A2JI8LMB1EEQ4Z","335VBRURDJMQFRMOFGHOE9WKSHX9E1","","null","<img src=""img/food3.png"" style=""width:200px; border:14px solid green;"">","null","","","","","","","","","",""
"","image-keyboard-response","61","48831","0.0-90.0","3TS1AR6UQR0GT6WLMW8C7EM2HEIF74","A2JI8LMB1EEQ4Z","335VBRURDJMQFRMOFGHOE9WKSHX9E1","","769.3999996185303","img/food2.png","75","770.3000001907349","2","1","false","2","2","1,0.5,0,1,0.5,0,0.5,0,1","0,1,0.5,0,1,0.5,1,0.5,0","3",""
"","html-keyboard-response","62","49140","0.0-91.0","3TS1AR6UQR0GT6WLMW8C7EM2HEIF74","A2JI8LMB1EEQ4Z","335VBRURDJMQFRMOFGHOE9WKSHX9E1","","null","<img src=""img/food2.png"" style=""width:200px; border:14px solid green;"">","null","","","","","","","","","",""
"","image-keyboard-response","63","49463","0.0-93.0","3TS1AR6UQR0GT6WLMW8C7EM2HEIF74","A2JI8LMB1EEQ4Z","335VBRURDJMQFRMOFGHOE9WKSHX9E1","","321.3999996185303","img/food2.png","75","322.4000005722046","2","1","false","2","2","1,0.5,0,1,0.5,0,0.5,0,1","0,1,0.5,0,1,0.5,1,0.5,0","3",""
"","html-keyboard-response","64","49772","0.0-94.0","3TS1AR6UQR0GT6WLMW8C7EM2HEIF74","A2JI8LMB1EEQ4Z","335VBRURDJMQFRMOFGHOE9WKSHX9E1","","null","<img src=""img/food2.png"" style=""width:200px; border:14px solid green;"">","null","","","","","","","","","",""
"","image-keyboard-response","65","50087","0.0-96.0","3TS1AR6UQR0GT6WLMW8C7EM2HEIF74","A2JI8LMB1EEQ4Z","335VBRURDJMQFRMOFGHOE9WKSHX9E1","","313.3999996185303","img/food2.png","75","314.6000003814697","2","1","false","2","2","1,0.5,0,1,0.5,0,0.5,0,1","0,1,0.5,0,1,0.5,1,0.5,0","3",""
"","html-keyboard-response","66","50396","0.0-97.0","3TS1AR6UQR0GT6WLMW8C7EM2HEIF74","A2JI8LMB1EEQ4Z","335VBRURDJMQFRMOFGHOE9WKSHX9E1","","null","<img src=""img/food2.png"" style=""width:200px; border:14px solid green;"">","null","","","","","","","","","",""
"","image-keyboard-response","67","51071","0.0-99.0","3TS1AR6UQR0GT6WLMW8C7EM2HEIF74","A2JI8LMB1EEQ4Z","335VBRURDJMQFRMOFGHOE9WKSHX9E1","","673.2999992370605","img/food3.png","76","674.4000005722046","3","0","false","1","2","1,0.5,0,1,0.5,0,0.5,0,1","0,1,0.5,0,1,0.5,1,0.5,0","3",""
"","html-keyboard-response","68","51380","0.0-100.0","3TS1AR6UQR0GT6WLMW8C7EM2HEIF74","A2JI8LMB1EEQ4Z","335VBRURDJMQFRMOFGHOE9WKSHX9E1","","null","<img src=""img/food3.png"" style=""width:200px;border:14px solid red;"">","null","","","","","","","","","",""
"","image-keyboard-response","69","51935","0.0-102.0","3TS1AR6UQR0GT6WLMW8C7EM2HEIF74","A2JI8LMB1EEQ4Z","335VBRURDJMQFRMOFGHOE9WKSHX9E1","","553.1999998092651","img/food1.png","74","554.3000001907349","1","1","false","3","2","1,0.5,0,1,0.5,0,0.5,0,1","0,1,0.5,0,1,0.5,1,0.5,0","3",""
"","html-keyboard-response","70","52244","0.0-103.0","3TS1AR6UQR0GT6WLMW8C7EM2HEIF74","A2JI8LMB1EEQ4Z","335VBRURDJMQFRMOFGHOE9WKSHX9E1","","null","<img src=""img/food1.png"" style=""width:200px; border:14px solid green;"">","null","","","","","","","","","",""
"","image-keyboard-response","71","52960","0.0-105.0","3TS1AR6UQR0GT6WLMW8C7EM2HEIF74","A2JI8LMB1EEQ4Z","335VBRURDJMQFRMOFGHOE9WKSHX9E1","","713.5999994277954","img/food2.png","75","715","2","1","false","2","2","1,0.5,0,1,0.5,0,0.5,0,1","0,1,0.5,0,1,0.5,1,0.5,0","3",""
"","html-keyboard-response","72","53268","0.0-106.0","3TS1AR6UQR0GT6WLMW8C7EM2HEIF74","A2JI8LMB1EEQ4Z","335VBRURDJMQFRMOFGHOE9WKSHX9E1","","null","<img src=""img/food2.png"" style=""width:200px; border:14px solid green;"">","null","","","","","","","","","",""
"","image-keyboard-response","73","53887","0.0-108.0","3TS1AR6UQR0GT6WLMW8C7EM2HEIF74","A2JI8LMB1EEQ4Z","335VBRURDJMQFRMOFGHOE9WKSHX9E1","","617.1000003814697","img/food3.png","76","618.0999994277954","3","1","false","1","2","1,0.5,0,1,0.5,0,0.5,0,1","0,1,0.5,0,1,0.5,1,0.5,0","3",""
"","html-keyboard-response","74","54196","0.0-109.0","3TS1AR6UQR0GT6WLMW8C7EM2HEIF74","A2JI8LMB1EEQ4Z","335VBRURDJMQFRMOFGHOE9WKSHX9E1","","null","<img src=""img/food3.png"" style=""width:200px; border:14px solid green;"">","null","","","","","","","","","",""
"","image-keyboard-response","75","54711","0.0-111.0","3TS1AR6UQR0GT6WLMW8C7EM2HEIF74","A2JI8LMB1EEQ4Z","335VBRURDJMQFRMOFGHOE9WKSHX9E1","","513","img/food1.png","74","514.2999992370605","1","1","false","3","2","1,0.5,0,1,0.5,0,0.5,0,1","0,1,0.5,0,1,0.5,1,0.5,0","3",""
"","html-keyboard-response","76","55020","0.0-112.0","3TS1AR6UQR0GT6WLMW8C7EM2HEIF74","A2JI8LMB1EEQ4Z","335VBRURDJMQFRMOFGHOE9WKSHX9E1","","null","<img src=""img/food1.png"" style=""width:200px; border:14px solid green;"">","null","","","","","","","","","",""
"","image-keyboard-response","77","55583","0.0-114.0","3TS1AR6UQR0GT6WLMW8C7EM2HEIF74","A2JI8LMB1EEQ4Z","335VBRURDJMQFRMOFGHOE9WKSHX9E1","","560.9000005722046","img/food3.png","76","562.1999998092651","3","0","false","1","2","1,0.5,0,1,0.5,0,0.5,0,1","0,1,0.5,0,1,0.5,1,0.5,0","3",""
"","html-keyboard-response","78","55892","0.0-115.0","3TS1AR6UQR0GT6WLMW8C7EM2HEIF74","A2JI8LMB1EEQ4Z","335VBRURDJMQFRMOFGHOE9WKSHX9E1","","null","<img src=""img/food3.png"" style=""width:200px;border:14px solid red;"">","null","","","","","","","","","",""
"","image-keyboard-response","79","56439","0.0-117.0","3TS1AR6UQR0GT6WLMW8C7EM2HEIF74","A2JI8LMB1EEQ4Z","335VBRURDJMQFRMOFGHOE9WKSHX9E1","","544.8999996185303","img/food1.png","74","546","1","1","false","3","2","1,0.5,0,1,0.5,0,0.5,0,1","0,1,0.5,0,1,0.5,1,0.5,0","3",""
"","html-keyboard-response","80","56748","0.0-118.0","3TS1AR6UQR0GT6WLMW8C7EM2HEIF74","A2JI8LMB1EEQ4Z","335VBRURDJMQFRMOFGHOE9WKSHX9E1","","null","<img src=""img/food1.png"" style=""width:200px; border:14px solid green;"">","null","","","","","","","","","",""
"","image-keyboard-response","81","57087","0.0-120.0","3TS1AR6UQR0GT6WLMW8C7EM2HEIF74","A2JI8LMB1EEQ4Z","335VBRURDJMQFRMOFGHOE9WKSHX9E1","","336.9000005722046","img/food1.png","74","338.19999980926514","1","1","false","3","2","1,0.5,0,1,0.5,0,0.5,0,1","0,1,0.5,0,1,0.5,1,0.5,0","3",""
"","html-keyboard-response","82","57396","0.0-121.0","3TS1AR6UQR0GT6WLMW8C7EM2HEIF74","A2JI8LMB1EEQ4Z","335VBRURDJMQFRMOFGHOE9WKSHX9E1","","null","<img src=""img/food1.png"" style=""width:200px; border:14px solid green;"">","null","","","","","","","","","",""
"","image-keyboard-response","83","57767","0.0-123.0","3TS1AR6UQR0GT6WLMW8C7EM2HEIF74","A2JI8LMB1EEQ4Z","335VBRURDJMQFRMOFGHOE9WKSHX9E1","","368.80000019073486","img/food1.png","74","370.1000003814697","1","1","false","3","2","1,0.5,0,1,0.5,0,0.5,0,1","0,1,0.5,0,1,0.5,1,0.5,0","3",""
"","html-keyboard-response","84","58076","0.0-124.0","3TS1AR6UQR0GT6WLMW8C7EM2HEIF74","A2JI8LMB1EEQ4Z","335VBRURDJMQFRMOFGHOE9WKSHX9E1","","null","<img src=""img/food1.png"" style=""width:200px; border:14px solid green;"">","null","","","","","","","","","",""
"","image-keyboard-response","85","58672","0.0-126.0","3TS1AR6UQR0GT6WLMW8C7EM2HEIF74","A2JI8LMB1EEQ4Z","335VBRURDJMQFRMOFGHOE9WKSHX9E1","","592.8000001907349","img/food2.png","75","594.1000003814697","2","1","false","2","2","1,0.5,0,1,0.5,0,0.5,0,1","0,1,0.5,0,1,0.5,1,0.5,0","3",""
"","html-keyboard-response","86","58981","0.0-127.0","3TS1AR6UQR0GT6WLMW8C7EM2HEIF74","A2JI8LMB1EEQ4Z","335VBRURDJMQFRMOFGHOE9WKSHX9E1","","null","<img src=""img/food2.png"" style=""width:200px; border:14px solid green;"">","null","","","","","","","","","",""
"","image-keyboard-response","87","59600","0.0-129.0","3TS1AR6UQR0GT6WLMW8C7EM2HEIF74","A2JI8LMB1EEQ4Z","335VBRURDJMQFRMOFGHOE9WKSHX9E1","","616.6999998092651","img/food3.png","76","618","3","1","false","1","2","1,0.5,0,1,0.5,0,0.5,0,1","0,1,0.5,0,1,0.5,1,0.5,0","3",""
"","html-keyboard-response","88","59909","0.0-130.0","3TS1AR6UQR0GT6WLMW8C7EM2HEIF74","A2JI8LMB1EEQ4Z","335VBRURDJMQFRMOFGHOE9WKSHX9E1","","null","<img src=""img/food3.png"" style=""width:200px; border:14px solid green;"">","null","","","","","","","","","",""
"","image-keyboard-response","89","60608","0.0-132.0","3TS1AR6UQR0GT6WLMW8C7EM2HEIF74","A2JI8LMB1EEQ4Z","335VBRURDJMQFRMOFGHOE9WKSHX9E1","","697.3000001907349","img/food2.png","75","698.3999996185303","2","1","false","2","2","1,0.5,0,1,0.5,0,0.5,0,1","0,1,0.5,0,1,0.5,1,0.5,0","3",""
"","html-keyboard-response","90","60918","0.0-133.0","3TS1AR6UQR0GT6WLMW8C7EM2HEIF74","A2JI8LMB1EEQ4Z","335VBRURDJMQFRMOFGHOE9WKSHX9E1","","null","<img src=""img/food2.png"" style=""width:200px; border:14px solid green;"">","null","","","","","","","","","",""
"","image-keyboard-response","91","61456","0.0-135.0","3TS1AR6UQR0GT6WLMW8C7EM2HEIF74","A2JI8LMB1EEQ4Z","335VBRURDJMQFRMOFGHOE9WKSHX9E1","","536.6999998092651","img/food3.png","76","537.8000001907349","3","0","false","1","2","1,0.5,0,1,0.5,0,0.5,0,1","0,1,0.5,0,1,0.5,1,0.5,0","3",""
"","html-keyboard-response","92","61766","0.0-136.0","3TS1AR6UQR0GT6WLMW8C7EM2HEIF74","A2JI8LMB1EEQ4Z","335VBRURDJMQFRMOFGHOE9WKSHX9E1","","null","<img src=""img/food3.png"" style=""width:200px;border:14px solid red;"">","null","","","","","","","","","",""
"","image-keyboard-response","93","62336","0.0-138.0","3TS1AR6UQR0GT6WLMW8C7EM2HEIF74","A2JI8LMB1EEQ4Z","335VBRURDJMQFRMOFGHOE9WKSHX9E1","","568.6999998092651","img/food1.png","74","570","1","1","false","3","2","1,0.5,0,1,0.5,0,0.5,0,1","0,1,0.5,0,1,0.5,1,0.5,0","3",""
"","html-keyboard-response","94","62646","0.0-139.0","3TS1AR6UQR0GT6WLMW8C7EM2HEIF74","A2JI8LMB1EEQ4Z","335VBRURDJMQFRMOFGHOE9WKSHX9E1","","null","<img src=""img/food1.png"" style=""width:200px; border:14px solid green;"">","null","","","","","","","","","",""
"","image-keyboard-response","95","63337","0.0-141.0","3TS1AR6UQR0GT6WLMW8C7EM2HEIF74","A2JI8LMB1EEQ4Z","335VBRURDJMQFRMOFGHOE9WKSHX9E1","","689.1000003814697","img/food3.png","76","690.5","3","1","false","1","2","1,0.5,0,1,0.5,0,0.5,0,1","0,1,0.5,0,1,0.5,1,0.5,0","3",""
"","html-keyboard-response","96","63647","0.0-142.0","3TS1AR6UQR0GT6WLMW8C7EM2HEIF74","A2JI8LMB1EEQ4Z","335VBRURDJMQFRMOFGHOE9WKSHX9E1","","null","<img src=""img/food3.png"" style=""width:200px; border:14px solid green;"">","null","","","","","","","","","",""
"","image-keyboard-response","97","64248","0.0-144.0","3TS1AR6UQR0GT6WLMW8C7EM2HEIF74","A2JI8LMB1EEQ4Z","335VBRURDJMQFRMOFGHOE9WKSHX9E1","","599.1000003814697","img/food2.png","75","600.1999998092651","2","1","false","2","2","1,0.5,0,1,0.5,0,0.5,0,1","0,1,0.5,0,1,0.5,1,0.5,0","3",""
"","html-keyboard-response","98","64558","0.0-145.0","3TS1AR6UQR0GT6WLMW8C7EM2HEIF74","A2JI8LMB1EEQ4Z","335VBRURDJMQFRMOFGHOE9WKSHX9E1","","null","<img src=""img/food2.png"" style=""width:200px; border:14px solid green;"">","null","","","","","","","","","",""
"","image-keyboard-response","99","65176","0.0-147.0","3TS1AR6UQR0GT6WLMW8C7EM2HEIF74","A2JI8LMB1EEQ4Z","335VBRURDJMQFRMOFGHOE9WKSHX9E1","","616.3999996185303","img/food3.png","76","617.6999998092651","3","0","false","1","2","1,0.5,0,1,0.5,0,0.5,0,1","0,1,0.5,0,1,0.5,1,0.5,0","3",""
"","html-keyboard-response","100","65486","0.0-148.0","3TS1AR6UQR0GT6WLMW8C7EM2HEIF74","A2JI8LMB1EEQ4Z","335VBRURDJMQFRMOFGHOE9WKSHX9E1","","null","<img src=""img/food3.png"" style=""width:200px;border:14px solid red;"">","null","","","","","","","","","",""
"","image-keyboard-response","101","66168","0.0-150.0","3TS1AR6UQR0GT6WLMW8C7EM2HEIF74","A2JI8LMB1EEQ4Z","335VBRURDJMQFRMOFGHOE9WKSHX9E1","","680.3999996185303","img/food2.png","75","681.6999998092651","2","1","false","2","2","1,0.5,0,1,0.5,0,0.5,0,1","0,1,0.5,0,1,0.5,1,0.5,0","3",""
"","html-keyboard-response","102","66478","0.0-151.0","3TS1AR6UQR0GT6WLMW8C7EM2HEIF74","A2JI8LMB1EEQ4Z","335VBRURDJMQFRMOFGHOE9WKSHX9E1","","null","<img src=""img/food2.png"" style=""width:200px; border:14px solid green;"">","null","","","","","","","","","",""
"","image-keyboard-response","103","66968","0.0-153.0","3TS1AR6UQR0GT6WLMW8C7EM2HEIF74","A2JI8LMB1EEQ4Z","335VBRURDJMQFRMOFGHOE9WKSHX9E1","","488.3999996185303","img/food1.png","74","489.5999994277954","1","1","false","3","2","1,0.5,0,1,0.5,0,0.5,0,1","0,1,0.5,0,1,0.5,1,0.5,0","3",""
"","html-keyboard-response","104","67278","0.0-154.0","3TS1AR6UQR0GT6WLMW8C7EM2HEIF74","A2JI8LMB1EEQ4Z","335VBRURDJMQFRMOFGHOE9WKSHX9E1","","null","<img src=""img/food1.png"" style=""width:200px; border:14px solid green;"">","null","","","","","","","","","",""
"","image-keyboard-response","105","67792","0.0-156.0","3TS1AR6UQR0GT6WLMW8C7EM2HEIF74","A2JI8LMB1EEQ4Z","335VBRURDJMQFRMOFGHOE9WKSHX9E1","","512.3999996185303","img/food2.png","75","513.6999998092651","2","1","false","2","2","1,0.5,0,1,0.5,0,0.5,0,1","0,1,0.5,0,1,0.5,1,0.5,0","3",""
"","html-keyboard-response","106","68101","0.0-157.0","3TS1AR6UQR0GT6WLMW8C7EM2HEIF74","A2JI8LMB1EEQ4Z","335VBRURDJMQFRMOFGHOE9WKSHX9E1","","null","<img src=""img/food2.png"" style=""width:200px; border:14px solid green;"">","null","","","","","","","","","",""
"","image-keyboard-response","107","68696","0.0-159.0","3TS1AR6UQR0GT6WLMW8C7EM2HEIF74","A2JI8LMB1EEQ4Z","335VBRURDJMQFRMOFGHOE9WKSHX9E1","","593.1000003814697","img/food1.png","74","594.3000001907349","1","1","false","3","2","1,0.5,0,1,0.5,0,0.5,0,1","0,1,0.5,0,1,0.5,1,0.5,0","3",""
"","html-keyboard-response","108","69005","0.0-160.0","3TS1AR6UQR0GT6WLMW8C7EM2HEIF74","A2JI8LMB1EEQ4Z","335VBRURDJMQFRMOFGHOE9WKSHX9E1","","null","<img src=""img/food1.png"" style=""width:200px; border:14px solid green;"">","null","","","","","","","","","",""
"","image-keyboard-response","109","69640","0.0-162.0","3TS1AR6UQR0GT6WLMW8C7EM2HEIF74","A2JI8LMB1EEQ4Z","335VBRURDJMQFRMOFGHOE9WKSHX9E1","","633","img/food3.png","76","634.3000001907349","3","1","false","1","2","1,0.5,0,1,0.5,0,0.5,0,1","0,1,0.5,0,1,0.5,1,0.5,0","3",""
"","html-keyboard-response","110","69949","0.0-163.0","3TS1AR6UQR0GT6WLMW8C7EM2HEIF74","A2JI8LMB1EEQ4Z","335VBRURDJMQFRMOFGHOE9WKSHX9E1","","null","<img src=""img/food3.png"" style=""width:200px; border:14px solid green;"">","null","","","","","","","","","",""
"","image-keyboard-response","111","70592","0.0-165.0","3TS1AR6UQR0GT6WLMW8C7EM2HEIF74","A2JI8LMB1EEQ4Z","335VBRURDJMQFRMOFGHOE9WKSHX9E1","","641","img/food1.png","74","642.3000001907349","1","1","false","3","2","1,0.5,0,1,0.5,0,0.5,0,1","0,1,0.5,0,1,0.5,1,0.5,0","3",""
"","html-keyboard-response","112","70901","0.0-166.0","3TS1AR6UQR0GT6WLMW8C7EM2HEIF74","A2JI8LMB1EEQ4Z","335VBRURDJMQFRMOFGHOE9WKSHX9E1","","null","<img src=""img/food1.png"" style=""width:200px; border:14px solid green;"">","null","","","","","","","","","",""
"","image-keyboard-response","113","71728","0.0-168.0","3TS1AR6UQR0GT6WLMW8C7EM2HEIF74","A2JI8LMB1EEQ4Z","335VBRURDJMQFRMOFGHOE9WKSHX9E1","","824.8999996185303","img/food3.png","76","826.2000007629395","3","0","false","1","2","1,0.5,0,1,0.5,0,0.5,0,1","0,1,0.5,0,1,0.5,1,0.5,0","3",""
"","html-keyboard-response","114","72037","0.0-169.0","3TS1AR6UQR0GT6WLMW8C7EM2HEIF74","A2JI8LMB1EEQ4Z","335VBRURDJMQFRMOFGHOE9WKSHX9E1","","null","<img src=""img/food3.png"" style=""width:200px;border:14px solid red;"">","null","","","","","","","","","",""
"","image-keyboard-response","115","72608","0.0-171.0","3TS1AR6UQR0GT6WLMW8C7EM2HEIF74","A2JI8LMB1EEQ4Z","335VBRURDJMQFRMOFGHOE9WKSHX9E1","","568.8999996185303","img/food2.png","75","570.2000007629395","2","1","false","2","2","1,0.5,0,1,0.5,0,0.5,0,1","0,1,0.5,0,1,0.5,1,0.5,0","3",""
"","html-keyboard-response","116","72917","0.0-172.0","3TS1AR6UQR0GT6WLMW8C7EM2HEIF74","A2JI8LMB1EEQ4Z","335VBRURDJMQFRMOFGHOE9WKSHX9E1","","null","<img src=""img/food2.png"" style=""width:200px; border:14px solid green;"">","null","","","","","","","","","",""
"","image-keyboard-response","117","73465","0.0-174.0","3TS1AR6UQR0GT6WLMW8C7EM2HEIF74","A2JI8LMB1EEQ4Z","335VBRURDJMQFRMOFGHOE9WKSHX9E1","","545.8999996185303","img/food1.png","74","547.1000003814697","1","1","false","3","2","1,0.5,0,1,0.5,0,0.5,0,1","0,1,0.5,0,1,0.5,1,0.5,0","3",""
"","html-keyboard-response","118","73773","0.0-175.0","3TS1AR6UQR0GT6WLMW8C7EM2HEIF74","A2JI8LMB1EEQ4Z","335VBRURDJMQFRMOFGHOE9WKSHX9E1","","null","<img src=""img/food1.png"" style=""width:200px; border:14px solid green;"">","null","","","","","","","","","",""
"","image-keyboard-response","119","74360","0.0-177.0","3TS1AR6UQR0GT6WLMW8C7EM2HEIF74","A2JI8LMB1EEQ4Z","335VBRURDJMQFRMOFGHOE9WKSHX9E1","","585","img/food2.png","75","586.3000001907349","2","1","false","2","2","1,0.5,0,1,0.5,0,0.5,0,1","0,1,0.5,0,1,0.5,1,0.5,0","3",""
"","html-keyboard-response","120","74669","0.0-178.0","3TS1AR6UQR0GT6WLMW8C7EM2HEIF74","A2JI8LMB1EEQ4Z","335VBRURDJMQFRMOFGHOE9WKSHX9E1","","null","<img src=""img/food2.png"" style=""width:200px; border:14px solid green;"">","null","","","","","","","","","",""
"","image-keyboard-response","121","75303","0.0-180.0","3TS1AR6UQR0GT6WLMW8C7EM2HEIF74","A2JI8LMB1EEQ4Z","335VBRURDJMQFRMOFGHOE9WKSHX9E1","","632.3999996185303","img/food3.png","76","633.5","3","1","false","1","2","1,0.5,0,1,0.5,0,0.5,0,1","0,1,0.5,0,1,0.5,1,0.5,0","3",""
"","html-keyboard-response","122","75613","0.0-181.0","3TS1AR6UQR0GT6WLMW8C7EM2HEIF74","A2JI8LMB1EEQ4Z","335VBRURDJMQFRMOFGHOE9WKSHX9E1","","null","<img src=""img/food3.png"" style=""width:200px; border:14px solid green;"">","null","","","","","","","","","",""
"","image-keyboard-response","123","76152","0.0-183.0","3TS1AR6UQR0GT6WLMW8C7EM2HEIF74","A2JI8LMB1EEQ4Z","335VBRURDJMQFRMOFGHOE9WKSHX9E1","","536.4000005722046","img/food1.png","74","537.5","1","1","false","3","2","1,0.5,0,1,0.5,0,0.5,0,1","0,1,0.5,0,1,0.5,1,0.5,0","3",""
"","html-keyboard-response","124","76461","0.0-184.0","3TS1AR6UQR0GT6WLMW8C7EM2HEIF74","A2JI8LMB1EEQ4Z","335VBRURDJMQFRMOFGHOE9WKSHX9E1","","null","<img src=""img/food1.png"" style=""width:200px; border:14px solid green;"">","null","","","","","","","","","",""
"","image-keyboard-response","125","76792","0.0-186.0","3TS1AR6UQR0GT6WLMW8C7EM2HEIF74","A2JI8LMB1EEQ4Z","335VBRURDJMQFRMOFGHOE9WKSHX9E1","","328.5999994277954","img/food1.png","74","329.79999923706055","1","1","false","3","2","1,0.5,0,1,0.5,0,0.5,0,1","0,1,0.5,0,1,0.5,1,0.5,0","3",""
"","html-keyboard-response","126","77101","0.0-187.0","3TS1AR6UQR0GT6WLMW8C7EM2HEIF74","A2JI8LMB1EEQ4Z","335VBRURDJMQFRMOFGHOE9WKSHX9E1","","null","<img src=""img/food1.png"" style=""width:200px; border:14px solid green;"">","null","","","","","","","","","",""
"","image-keyboard-response","127","77456","0.0-189.0","3TS1AR6UQR0GT6WLMW8C7EM2HEIF74","A2JI8LMB1EEQ4Z","335VBRURDJMQFRMOFGHOE9WKSHX9E1","","352.5","img/food1.png","74","353.79999923706055","1","1","false","3","2","1,0.5,0,1,0.5,0,0.5,0,1","0,1,0.5,0,1,0.5,1,0.5,0","3",""
"","html-keyboard-response","128","77765","0.0-190.0","3TS1AR6UQR0GT6WLMW8C7EM2HEIF74","A2JI8LMB1EEQ4Z","335VBRURDJMQFRMOFGHOE9WKSHX9E1","","null","<img src=""img/food1.png"" style=""width:200px; border:14px solid green;"">","null","","","","","","","","","",""
"","image-keyboard-response","129","78392","0.0-192.0","3TS1AR6UQR0GT6WLMW8C7EM2HEIF74","A2JI8LMB1EEQ4Z","335VBRURDJMQFRMOFGHOE9WKSHX9E1","","625.1000003814697","img/food3.png","76","626.4000005722046","3","1","false","1","2","1,0.5,0,1,0.5,0,0.5,0,1","0,1,0.5,0,1,0.5,1,0.5,0","3",""
"","html-keyboard-response","130","78701","0.0-193.0","3TS1AR6UQR0GT6WLMW8C7EM2HEIF74","A2JI8LMB1EEQ4Z","335VBRURDJMQFRMOFGHOE9WKSHX9E1","","null","<img src=""img/food3.png"" style=""width:200px; border:14px solid green;"">","null","","","","","","","","","",""
"","image-keyboard-response","131","79264","0.0-195.0","3TS1AR6UQR0GT6WLMW8C7EM2HEIF74","A2JI8LMB1EEQ4Z","335VBRURDJMQFRMOFGHOE9WKSHX9E1","","560.4000005722046","img/food2.png","75","561.8000001907349","2","1","false","2","2","1,0.5,0,1,0.5,0,0.5,0,1","0,1,0.5,0,1,0.5,1,0.5,0","3",""
"","html-keyboard-response","132","79573","0.0-196.0","3TS1AR6UQR0GT6WLMW8C7EM2HEIF74","A2JI8LMB1EEQ4Z","335VBRURDJMQFRMOFGHOE9WKSHX9E1","","null","<img src=""img/food2.png"" style=""width:200px; border:14px solid green;"">","null","","","","","","","","","",""
"","image-keyboard-response","133","80256","0.0-198.0","3TS1AR6UQR0GT6WLMW8C7EM2HEIF74","A2JI8LMB1EEQ4Z","335VBRURDJMQFRMOFGHOE9WKSHX9E1","","680","img/food3.png","76","681.4000005722046","3","1","false","1","2","1,0.5,0,1,0.5,0,0.5,0,1","0,1,0.5,0,1,0.5,1,0.5,0","3",""
"","html-keyboard-response","134","80565","0.0-199.0","3TS1AR6UQR0GT6WLMW8C7EM2HEIF74","A2JI8LMB1EEQ4Z","335VBRURDJMQFRMOFGHOE9WKSHX9E1","","null","<img src=""img/food3.png"" style=""width:200px; border:14px solid green;"">","null","","","","","","","","","",""
"","image-keyboard-response","135","81257","0.0-201.0","3TS1AR6UQR0GT6WLMW8C7EM2HEIF74","A2JI8LMB1EEQ4Z","335VBRURDJMQFRMOFGHOE9WKSHX9E1","","689.5","img/food2.png","75","690.6000003814697","2","1","false","2","2","1,0.5,0,1,0.5,0,0.5,0,1","0,1,0.5,0,1,0.5,1,0.5,0","3",""
"","html-keyboard-response","136","81565","0.0-202.0","3TS1AR6UQR0GT6WLMW8C7EM2HEIF74","A2JI8LMB1EEQ4Z","335VBRURDJMQFRMOFGHOE9WKSHX9E1","","null","<img src=""img/food2.png"" style=""width:200px; border:14px solid green;"">","null","","","","","","","","","",""
"","image-keyboard-response","137","82016","0.0-204.0","3TS1AR6UQR0GT6WLMW8C7EM2HEIF74","A2JI8LMB1EEQ4Z","335VBRURDJMQFRMOFGHOE9WKSHX9E1","","448.19999980926514","img/food3.png","76","449.5","3","0","false","1","2","1,0.5,0,1,0.5,0,0.5,0,1","0,1,0.5,0,1,0.5,1,0.5,0","3",""
"","html-keyboard-response","138","82325","0.0-205.0","3TS1AR6UQR0GT6WLMW8C7EM2HEIF74","A2JI8LMB1EEQ4Z","335VBRURDJMQFRMOFGHOE9WKSHX9E1","","null","<img src=""img/food3.png"" style=""width:200px;border:14px solid red;"">","null","","","","","","","","","",""
"","image-keyboard-response","139","82967","0.0-207.0","3TS1AR6UQR0GT6WLMW8C7EM2HEIF74","A2JI8LMB1EEQ4Z","335VBRURDJMQFRMOFGHOE9WKSHX9E1","","640.0999994277954","img/food3.png","76","641.5","3","1","false","1","2","1,0.5,0,1,0.5,0,0.5,0,1","0,1,0.5,0,1,0.5,1,0.5,0","3",""
"","html-keyboard-response","140","83277","0.0-208.0","3TS1AR6UQR0GT6WLMW8C7EM2HEIF74","A2JI8LMB1EEQ4Z","335VBRURDJMQFRMOFGHOE9WKSHX9E1","","null","<img src=""img/food3.png"" style=""width:200px; border:14px solid green;"">","null","","","","","","","","","",""
"","image-keyboard-response","141","83864","0.0-210.0","3TS1AR6UQR0GT6WLMW8C7EM2HEIF74","A2JI8LMB1EEQ4Z","335VBRURDJMQFRMOFGHOE9WKSHX9E1","","584.6999998092651","img/food1.png","74","585.9000005722046","1","1","false","3","2","1,0.5,0,1,0.5,0,0.5,0,1","0,1,0.5,0,1,0.5,1,0.5,0","3",""
"","html-keyboard-response","142","84174","0.0-211.0","3TS1AR6UQR0GT6WLMW8C7EM2HEIF74","A2JI8LMB1EEQ4Z","335VBRURDJMQFRMOFGHOE9WKSHX9E1","","null","<img src=""img/food1.png"" style=""width:200px; border:14px solid green;"">","null","","","","","","","","","",""
"","image-keyboard-response","143","84584","0.0-213.0","3TS1AR6UQR0GT6WLMW8C7EM2HEIF74","A2JI8LMB1EEQ4Z","335VBRURDJMQFRMOFGHOE9WKSHX9E1","","408.19999980926514","img/food1.png","74","409.30000019073486","1","1","false","3","2","1,0.5,0,1,0.5,0,0.5,0,1","0,1,0.5,0,1,0.5,1,0.5,0","3",""
"","html-keyboard-response","144","84894","0.0-214.0","3TS1AR6UQR0GT6WLMW8C7EM2HEIF74","A2JI8LMB1EEQ4Z","335VBRURDJMQFRMOFGHOE9WKSHX9E1","","null","<img src=""img/food1.png"" style=""width:200px; border:14px solid green;"">","null","","","","","","","","","",""
"","image-keyboard-response","145","85471","0.0-216.0","3TS1AR6UQR0GT6WLMW8C7EM2HEIF74","A2JI8LMB1EEQ4Z","335VBRURDJMQFRMOFGHOE9WKSHX9E1","","576","img/food2.png","75","577.1999998092651","2","1","false","2","2","1,0.5,0,1,0.5,0,0.5,0,1","0,1,0.5,0,1,0.5,1,0.5,0","3",""
"","html-keyboard-response","146","85782","0.0-217.0","3TS1AR6UQR0GT6WLMW8C7EM2HEIF74","A2JI8LMB1EEQ4Z","335VBRURDJMQFRMOFGHOE9WKSHX9E1","","null","<img src=""img/food2.png"" style=""width:200px; border:14px solid green;"">","null","","","","","","","","","",""
"","image-keyboard-response","147","86255","0.0-219.0","3TS1AR6UQR0GT6WLMW8C7EM2HEIF74","A2JI8LMB1EEQ4Z","335VBRURDJMQFRMOFGHOE9WKSHX9E1","","471.9000005722046","img/food3.png","76","473","3","1","false","1","2","1,0.5,0,1,0.5,0,0.5,0,1","0,1,0.5,0,1,0.5,1,0.5,0","3",""
"","html-keyboard-response","148","86566","0.0-220.0","3TS1AR6UQR0GT6WLMW8C7EM2HEIF74","A2JI8LMB1EEQ4Z","335VBRURDJMQFRMOFGHOE9WKSHX9E1","","null","<img src=""img/food3.png"" style=""width:200px; border:14px solid green;"">","null","","","","","","","","","",""
"","image-keyboard-response","149","87096","0.0-222.0","3TS1AR6UQR0GT6WLMW8C7EM2HEIF74","A2JI8LMB1EEQ4Z","335VBRURDJMQFRMOFGHOE9WKSHX9E1","","528.1000003814697","img/food1.png","74","529.4000005722046","1","1","false","3","2","1,0.5,0,1,0.5,0,0.5,0,1","0,1,0.5,0,1,0.5,1,0.5,0","3",""
"","html-keyboard-response","150","87406","0.0-223.0","3TS1AR6UQR0GT6WLMW8C7EM2HEIF74","A2JI8LMB1EEQ4Z","335VBRURDJMQFRMOFGHOE9WKSHX9E1","","null","<img src=""img/food1.png"" style=""width:200px; border:14px solid green;"">","null","","","","","","","","","",""
"","image-keyboard-response","151","87944","0.0-225.0","3TS1AR6UQR0GT6WLMW8C7EM2HEIF74","A2JI8LMB1EEQ4Z","335VBRURDJMQFRMOFGHOE9WKSHX9E1","","536","img/food2.png","75","537.1999998092651","2","1","false","2","2","1,0.5,0,1,0.5,0,0.5,0,1","0,1,0.5,0,1,0.5,1,0.5,0","3",""
"","html-keyboard-response","152","88254","0.0-226.0","3TS1AR6UQR0GT6WLMW8C7EM2HEIF74","A2JI8LMB1EEQ4Z","335VBRURDJMQFRMOFGHOE9WKSHX9E1","","null","<img src=""img/food2.png"" style=""width:200px; border:14px solid green;"">","null","","","","","","","","","",""
"","image-keyboard-response","153","88751","0.0-228.0","3TS1AR6UQR0GT6WLMW8C7EM2HEIF74","A2JI8LMB1EEQ4Z","335VBRURDJMQFRMOFGHOE9WKSHX9E1","","495.70000076293945","img/food1.png","74","497","1","1","false","3","2","1,0.5,0,1,0.5,0,0.5,0,1","0,1,0.5,0,1,0.5,1,0.5,0","3",""
"","html-keyboard-response","154","89062","0.0-229.0","3TS1AR6UQR0GT6WLMW8C7EM2HEIF74","A2JI8LMB1EEQ4Z","335VBRURDJMQFRMOFGHOE9WKSHX9E1","","null","<img src=""img/food1.png"" style=""width:200px; border:14px solid green;"">","null","","","","","","","","","",""
"","image-keyboard-response","155","89448","0.0-231.0","3TS1AR6UQR0GT6WLMW8C7EM2HEIF74","A2JI8LMB1EEQ4Z","335VBRURDJMQFRMOFGHOE9WKSHX9E1","","383.80000019073486","img/food1.png","74","385.0999994277954","1","1","false","3","2","1,0.5,0,1,0.5,0,0.5,0,1","0,1,0.5,0,1,0.5,1,0.5,0","3",""
"","html-keyboard-response","156","89758","0.0-232.0","3TS1AR6UQR0GT6WLMW8C7EM2HEIF74","A2JI8LMB1EEQ4Z","335VBRURDJMQFRMOFGHOE9WKSHX9E1","","null","<img src=""img/food1.png"" style=""width:200px; border:14px solid green;"">","null","","","","","","","","","",""
"","image-keyboard-response","157","90303","0.0-234.0","3TS1AR6UQR0GT6WLMW8C7EM2HEIF74","A2JI8LMB1EEQ4Z","335VBRURDJMQFRMOFGHOE9WKSHX9E1","","543.3000001907349","img/food2.png","75","544.7000007629395","2","1","false","2","2","1,0.5,0,1,0.5,0,0.5,0,1","0,1,0.5,0,1,0.5,1,0.5,0","3",""
"","html-keyboard-response","158","90614","0.0-235.0","3TS1AR6UQR0GT6WLMW8C7EM2HEIF74","A2JI8LMB1EEQ4Z","335VBRURDJMQFRMOFGHOE9WKSHX9E1","","null","<img src=""img/food2.png"" style=""width:200px; border:14px solid green;"">","null","","","","","","","","","",""
"","image-keyboard-response","159","91207","0.0-237.0","3TS1AR6UQR0GT6WLMW8C7EM2HEIF74","A2JI8LMB1EEQ4Z","335VBRURDJMQFRMOFGHOE9WKSHX9E1","","591.8000001907349","img/food1.png","74","592.9000005722046","1","1","false","3","2","1,0.5,0,1,0.5,0,0.5,0,1","0,1,0.5,0,1,0.5,1,0.5,0","3",""
"","html-keyboard-response","160","91518","0.0-238.0","3TS1AR6UQR0GT6WLMW8C7EM2HEIF74","A2JI8LMB1EEQ4Z","335VBRURDJMQFRMOFGHOE9WKSHX9E1","","null","<img src=""img/food1.png"" style=""width:200px; border:14px solid green;"">","null","","","","","","","","","",""
"","image-keyboard-response","161","91848","0.0-240.0","3TS1AR6UQR0GT6WLMW8C7EM2HEIF74","A2JI8LMB1EEQ4Z","335VBRURDJMQFRMOFGHOE9WKSHX9E1","","328.30000019073486","img/food1.png","74","329.5","1","1","false","3","2","1,0.5,0,1,0.5,0,0.5,0,1","0,1,0.5,0,1,0.5,1,0.5,0","3",""
"","html-keyboard-response","162","92157","0.0-241.0","3TS1AR6UQR0GT6WLMW8C7EM2HEIF74","A2JI8LMB1EEQ4Z","335VBRURDJMQFRMOFGHOE9WKSHX9E1","","null","<img src=""img/food1.png"" style=""width:200px; border:14px solid green;"">","null","","","","","","","","","",""
"","image-keyboard-response","163","92655","0.0-243.0","3TS1AR6UQR0GT6WLMW8C7EM2HEIF74","A2JI8LMB1EEQ4Z","335VBRURDJMQFRMOFGHOE9WKSHX9E1","","496.5","img/food3.png","76","497.9000005722046","3","0","false","1","2","1,0.5,0,1,0.5,0,0.5,0,1","0,1,0.5,0,1,0.5,1,0.5,0","3",""
"","html-keyboard-response","164","92965","0.0-244.0","3TS1AR6UQR0GT6WLMW8C7EM2HEIF74","A2JI8LMB1EEQ4Z","335VBRURDJMQFRMOFGHOE9WKSHX9E1","","null","<img src=""img/food3.png"" style=""width:200px;border:14px solid red;"">","null","","","","","","","","","",""
"","image-keyboard-response","165","93327","0.0-246.0","3TS1AR6UQR0GT6WLMW8C7EM2HEIF74","A2JI8LMB1EEQ4Z","335VBRURDJMQFRMOFGHOE9WKSHX9E1","","360.5","img/food3.png","76","361.80000019073486","3","0","false","1","2","1,0.5,0,1,0.5,0,0.5,0,1","0,1,0.5,0,1,0.5,1,0.5,0","3",""
"","html-keyboard-response","166","93637","0.0-247.0","3TS1AR6UQR0GT6WLMW8C7EM2HEIF74","A2JI8LMB1EEQ4Z","335VBRURDJMQFRMOFGHOE9WKSHX9E1","","null","<img src=""img/food3.png"" style=""width:200px;border:14px solid red;"">","null","","","","","","","","","",""
"","image-keyboard-response","167","94001","0.0-249.0","3TS1AR6UQR0GT6WLMW8C7EM2HEIF74","A2JI8LMB1EEQ4Z","335VBRURDJMQFRMOFGHOE9WKSHX9E1","","362.0999994277954","img/food3.png","76","363.30000019073486","3","0","false","1","2","1,0.5,0,1,0.5,0,0.5,0,1","0,1,0.5,0,1,0.5,1,0.5,0","3",""
"","html-keyboard-response","168","94309","0.0-250.0","3TS1AR6UQR0GT6WLMW8C7EM2HEIF74","A2JI8LMB1EEQ4Z","335VBRURDJMQFRMOFGHOE9WKSHX9E1","","null","<img src=""img/food3.png"" style=""width:200px;border:14px solid red;"">","null","","","","","","","","","",""
"","image-keyboard-response","169","94831","0.0-252.0","3TS1AR6UQR0GT6WLMW8C7EM2HEIF74","A2JI8LMB1EEQ4Z","335VBRURDJMQFRMOFGHOE9WKSHX9E1","","520.3999996185303","img/food2.png","75","521.8000001907349","2","1","false","2","2","1,0.5,0,1,0.5,0,0.5,0,1","0,1,0.5,0,1,0.5,1,0.5,0","3",""
"","html-keyboard-response","170","95141","0.0-253.0","3TS1AR6UQR0GT6WLMW8C7EM2HEIF74","A2JI8LMB1EEQ4Z","335VBRURDJMQFRMOFGHOE9WKSHX9E1","","null","<img src=""img/food2.png"" style=""width:200px; border:14px solid green;"">","null","","","","","","","","","",""
"","image-keyboard-response","171","95663","0.0-255.0","3TS1AR6UQR0GT6WLMW8C7EM2HEIF74","A2JI8LMB1EEQ4Z","335VBRURDJMQFRMOFGHOE9WKSHX9E1","","520.2999992370605","img/food3.png","76","521.5","3","0","false","1","2","1,0.5,0,1,0.5,0,0.5,0,1","0,1,0.5,0,1,0.5,1,0.5,0","3",""
"","html-keyboard-response","172","95973","0.0-256.0","3TS1AR6UQR0GT6WLMW8C7EM2HEIF74","A2JI8LMB1EEQ4Z","335VBRURDJMQFRMOFGHOE9WKSHX9E1","","null","<img src=""img/food3.png"" style=""width:200px;border:14px solid red;"">","null","","","","","","","","","",""
"","image-keyboard-response","173","96487","0.0-258.0","3TS1AR6UQR0GT6WLMW8C7EM2HEIF74","A2JI8LMB1EEQ4Z","335VBRURDJMQFRMOFGHOE9WKSHX9E1","","512.0999994277954","img/food2.png","75","513.5","2","1","false","2","2","1,0.5,0,1,0.5,0,0.5,0,1","0,1,0.5,0,1,0.5,1,0.5,0","3",""
"","html-keyboard-response","174","96797","0.0-259.0","3TS1AR6UQR0GT6WLMW8C7EM2HEIF74","A2JI8LMB1EEQ4Z","335VBRURDJMQFRMOFGHOE9WKSHX9E1","","null","<img src=""img/food2.png"" style=""width:200px; border:14px solid green;"">","null","","","","","","","","","",""
"","image-keyboard-response","175","97351","0.0-261.0","3TS1AR6UQR0GT6WLMW8C7EM2HEIF74","A2JI8LMB1EEQ4Z","335VBRURDJMQFRMOFGHOE9WKSHX9E1","","552.1999998092651","img/food3.png","76","553.5","3","1","false","1","2","1,0.5,0,1,0.5,0,0.5,0,1","0,1,0.5,0,1,0.5,1,0.5,0","3",""
"","html-keyboard-response","176","97661","0.0-262.0","3TS1AR6UQR0GT6WLMW8C7EM2HEIF74","A2JI8LMB1EEQ4Z","335VBRURDJMQFRMOFGHOE9WKSHX9E1","","null","<img src=""img/food3.png"" style=""width:200px; border:14px solid green;"">","null","","","","","","","","","",""
"","image-keyboard-response","177","98311","0.0-264.0","3TS1AR6UQR0GT6WLMW8C7EM2HEIF74","A2JI8LMB1EEQ4Z","335VBRURDJMQFRMOFGHOE9WKSHX9E1","","648.3000001907349","img/food3.png","76","649.5","3","0","false","1","2","1,0.5,0,1,0.5,0,0.5,0,1","0,1,0.5,0,1,0.5,1,0.5,0","3",""
"","html-keyboard-response","178","98621","0.0-265.0","3TS1AR6UQR0GT6WLMW8C7EM2HEIF74","A2JI8LMB1EEQ4Z","335VBRURDJMQFRMOFGHOE9WKSHX9E1","","null","<img src=""img/food3.png"" style=""width:200px;border:14px solid red;"">","null","","","","","","","","","",""
"","image-keyboard-response","179","99303","0.0-267.0","3TS1AR6UQR0GT6WLMW8C7EM2HEIF74","A2JI8LMB1EEQ4Z","335VBRURDJMQFRMOFGHOE9WKSHX9E1","","679.8000001907349","img/food2.png","75","680.8000001907349","2","1","false","2","2","1,0.5,0,1,0.5,0,0.5,0,1","0,1,0.5,0,1,0.5,1,0.5,0","3",""
"","html-keyboard-response","180","99605","0.0-268.0","3TS1AR6UQR0GT6WLMW8C7EM2HEIF74","A2JI8LMB1EEQ4Z","335VBRURDJMQFRMOFGHOE9WKSHX9E1","","null","<img src=""img/food2.png"" style=""width:200px; border:14px solid green;"">","null","","","","","","","","","",""
"","image-keyboard-response","181","100255","0.0-270.0","3TS1AR6UQR0GT6WLMW8C7EM2HEIF74","A2JI8LMB1EEQ4Z","335VBRURDJMQFRMOFGHOE9WKSHX9E1","","648","img/food3.png","76","649.2999992370605","3","0","false","1","2","1,0.5,0,1,0.5,0,0.5,0,1","0,1,0.5,0,1,0.5,1,0.5,0","3",""
"","html-keyboard-response","182","100557","0.0-271.0","3TS1AR6UQR0GT6WLMW8C7EM2HEIF74","A2JI8LMB1EEQ4Z","335VBRURDJMQFRMOFGHOE9WKSHX9E1","","null","<img src=""img/food3.png"" style=""width:200px;border:14px solid red;"">","null","","","","","","","","","",""
"","instructions","183","108502","0.0-273.0","3TS1AR6UQR0GT6WLMW8C7EM2HEIF74","A2JI8LMB1EEQ4Z","335VBRURDJMQFRMOFGHOE9WKSHX9E1","[{""page_index"":0,""viewing_time"":6636.800000190735},{""page_index"":1,""viewing_time"":1306}]","7943.300000190735","","","","","","","","","","","",""
"","image-keyboard-response","184","109671","0.0-274.0","3TS1AR6UQR0GT6WLMW8C7EM2HEIF74","A2JI8LMB1EEQ4Z","335VBRURDJMQFRMOFGHOE9WKSHX9E1","","1167.3999996185303","img/food6.png","74","1169.1000003814697","1","0","","3","1","1,0.5,0,1,0.5,0,0.5,0,1","0.5,0,1,0.5,0,1,0,1,0.5","2",""
"","html-keyboard-response","185","109982","0.0-275.0","3TS1AR6UQR0GT6WLMW8C7EM2HEIF74","A2JI8LMB1EEQ4Z","335VBRURDJMQFRMOFGHOE9WKSHX9E1","","null","<img src=""img/food6.png"" style=""width:200px;border:14px solid red;"">","null","","","","","","","","","",""
"","image-keyboard-response","186","111167","0.0-276.0","3TS1AR6UQR0GT6WLMW8C7EM2HEIF74","A2JI8LMB1EEQ4Z","335VBRURDJMQFRMOFGHOE9WKSHX9E1","","1183.6000003814697","img/food4.png","74","1185","1","1","","1","1","1,0.5,0,1,0.5,0,0.5,0,1","0.5,0,1,0.5,0,1,0,1,0.5","2",""
"","html-keyboard-response","187","111478","0.0-277.0","3TS1AR6UQR0GT6WLMW8C7EM2HEIF74","A2JI8LMB1EEQ4Z","335VBRURDJMQFRMOFGHOE9WKSHX9E1","","null","<img src=""img/food4.png"" style=""width:200px; border:14px solid green;"">","null","","","","","","","","","",""
"","image-keyboard-response","188","111991","0.0-278.0","3TS1AR6UQR0GT6WLMW8C7EM2HEIF74","A2JI8LMB1EEQ4Z","335VBRURDJMQFRMOFGHOE9WKSHX9E1","","511.5999994277954","img/food4.png","74","512.9000005722046","1","1","","1","1","1,0.5,0,1,0.5,0,0.5,0,1","0.5,0,1,0.5,0,1,0,1,0.5","2",""
"","html-keyboard-response","189","112302","0.0-279.0","3TS1AR6UQR0GT6WLMW8C7EM2HEIF74","A2JI8LMB1EEQ4Z","335VBRURDJMQFRMOFGHOE9WKSHX9E1","","null","<img src=""img/food4.png"" style=""width:200px; border:14px solid green;"">","null","","","","","","","","","",""
"","image-keyboard-response","190","113055","0.0-280.0","3TS1AR6UQR0GT6WLMW8C7EM2HEIF74","A2JI8LMB1EEQ4Z","335VBRURDJMQFRMOFGHOE9WKSHX9E1","","751.4000005722046","img/food5.png","75","752.8999996185303","2","0","","2","1","1,0.5,0,1,0.5,0,0.5,0,1","0.5,0,1,0.5,0,1,0,1,0.5","2",""
"","html-keyboard-response","191","113366","0.0-281.0","3TS1AR6UQR0GT6WLMW8C7EM2HEIF74","A2JI8LMB1EEQ4Z","335VBRURDJMQFRMOFGHOE9WKSHX9E1","","null","<img src=""img/food5.png"" style=""width:200px;border:14px solid red;"">","null","","","","","","","","","",""
"","image-keyboard-response","192","113711","0.0-282.0","3TS1AR6UQR0GT6WLMW8C7EM2HEIF74","A2JI8LMB1EEQ4Z","335VBRURDJMQFRMOFGHOE9WKSHX9E1","","343.5","img/food5.png","76","344.8999996185303","3","1","","2","1","1,0.5,0,1,0.5,0,0.5,0,1","0.5,0,1,0.5,0,1,0,1,0.5","2",""
"","html-keyboard-response","193","114022","0.0-283.0","3TS1AR6UQR0GT6WLMW8C7EM2HEIF74","A2JI8LMB1EEQ4Z","335VBRURDJMQFRMOFGHOE9WKSHX9E1","","null","<img src=""img/food5.png"" style=""width:200px; border:14px solid green;"">","null","","","","","","","","","",""
"","image-keyboard-response","194","114743","0.0-284.0","3TS1AR6UQR0GT6WLMW8C7EM2HEIF74","A2JI8LMB1EEQ4Z","335VBRURDJMQFRMOFGHOE9WKSHX9E1","","719.3000001907349","img/food4.png","74","720.7999992370605","1","1","","1","1","1,0.5,0,1,0.5,0,0.5,0,1","0.5,0,1,0.5,0,1,0,1,0.5","2",""
"","html-keyboard-response","195","115054","0.0-285.0","3TS1AR6UQR0GT6WLMW8C7EM2HEIF74","A2JI8LMB1EEQ4Z","335VBRURDJMQFRMOFGHOE9WKSHX9E1","","null","<img src=""img/food4.png"" style=""width:200px; border:14px solid green;"">","null","","","","","","","","","",""
"","image-keyboard-response","196","115607","0.0-286.0","3TS1AR6UQR0GT6WLMW8C7EM2HEIF74","A2JI8LMB1EEQ4Z","335VBRURDJMQFRMOFGHOE9WKSHX9E1","","551.3000001907349","img/food5.png","76","552.6000003814697","3","1","","2","1","1,0.5,0,1,0.5,0,0.5,0,1","0.5,0,1,0.5,0,1,0,1,0.5","2",""
"","html-keyboard-response","197","115917","0.0-287.0","3TS1AR6UQR0GT6WLMW8C7EM2HEIF74","A2JI8LMB1EEQ4Z","335VBRURDJMQFRMOFGHOE9WKSHX9E1","","null","<img src=""img/food5.png"" style=""width:200px; border:14px solid green;"">","null","","","","","","","","","",""
"","image-keyboard-response","198","116503","0.0-288.0","3TS1AR6UQR0GT6WLMW8C7EM2HEIF74","A2JI8LMB1EEQ4Z","335VBRURDJMQFRMOFGHOE9WKSHX9E1","","584.3000001907349","img/food6.png","75","585.5999994277954","2","1","","3","1","1,0.5,0,1,0.5,0,0.5,0,1","0.5,0,1,0.5,0,1,0,1,0.5","2",""
"","html-keyboard-response","199","116813","0.0-289.0","3TS1AR6UQR0GT6WLMW8C7EM2HEIF74","A2JI8LMB1EEQ4Z","335VBRURDJMQFRMOFGHOE9WKSHX9E1","","null","<img src=""img/food6.png"" style=""width:200px; border:14px solid green;"">","null","","","","","","","","","",""
"","image-keyboard-response","200","117496","0.0-290.0","3TS1AR6UQR0GT6WLMW8C7EM2HEIF74","A2JI8LMB1EEQ4Z","335VBRURDJMQFRMOFGHOE9WKSHX9E1","","681","img/food4.png","74","682.2999992370605","1","1","","1","1","1,0.5,0,1,0.5,0,0.5,0,1","0.5,0,1,0.5,0,1,0,1,0.5","2",""
"","html-keyboard-response","201","117805","0.0-291.0","3TS1AR6UQR0GT6WLMW8C7EM2HEIF74","A2JI8LMB1EEQ4Z","335VBRURDJMQFRMOFGHOE9WKSHX9E1","","null","<img src=""img/food4.png"" style=""width:200px; border:14px solid green;"">","null","","","","","","","","","",""
"","image-keyboard-response","202","118399","0.0-292.0","3TS1AR6UQR0GT6WLMW8C7EM2HEIF74","A2JI8LMB1EEQ4Z","335VBRURDJMQFRMOFGHOE9WKSHX9E1","","592.3000001907349","img/food4.png","74","593.5","1","1","","1","1","1,0.5,0,1,0.5,0,0.5,0,1","0.5,0,1,0.5,0,1,0,1,0.5","2",""
"","html-keyboard-response","203","118701","0.0-293.0","3TS1AR6UQR0GT6WLMW8C7EM2HEIF74","A2JI8LMB1EEQ4Z","335VBRURDJMQFRMOFGHOE9WKSHX9E1","","null","<img src=""img/food4.png"" style=""width:200px; border:14px solid green;"">","null","","","","","","","","","",""
"","image-keyboard-response","204","119391","0.0-294.0","3TS1AR6UQR0GT6WLMW8C7EM2HEIF74","A2JI8LMB1EEQ4Z","335VBRURDJMQFRMOFGHOE9WKSHX9E1","","688.1000003814697","img/food4.png","74","689.4000005722046","1","0","","1","1","1,0.5,0,1,0.5,0,0.5,0,1","0.5,0,1,0.5,0,1,0,1,0.5","2",""
"","html-keyboard-response","205","119693","0.0-295.0","3TS1AR6UQR0GT6WLMW8C7EM2HEIF74","A2JI8LMB1EEQ4Z","335VBRURDJMQFRMOFGHOE9WKSHX9E1","","null","<img src=""img/food4.png"" style=""width:200px;border:14px solid red;"">","null","","","","","","","","","",""
"","image-keyboard-response","206","120591","0.0-296.0","3TS1AR6UQR0GT6WLMW8C7EM2HEIF74","A2JI8LMB1EEQ4Z","335VBRURDJMQFRMOFGHOE9WKSHX9E1","","896","img/food6.png","76","897.3000001907349","3","1","","3","1","1,0.5,0,1,0.5,0,0.5,0,1","0.5,0,1,0.5,0,1,0,1,0.5","2",""
"","html-keyboard-response","207","120894","0.0-297.0","3TS1AR6UQR0GT6WLMW8C7EM2HEIF74","A2JI8LMB1EEQ4Z","335VBRURDJMQFRMOFGHOE9WKSHX9E1","","null","<img src=""img/food6.png"" style=""width:200px; border:14px solid green;"">","null","","","","","","","","","",""
"","image-keyboard-response","208","121471","0.0-298.0","3TS1AR6UQR0GT6WLMW8C7EM2HEIF74","A2JI8LMB1EEQ4Z","335VBRURDJMQFRMOFGHOE9WKSHX9E1","","575.8000001907349","img/food4.png","74","577.1999998092651","1","1","","1","1","1,0.5,0,1,0.5,0,0.5,0,1","0.5,0,1,0.5,0,1,0,1,0.5","2",""
"","html-keyboard-response","209","121774","0.0-299.0","3TS1AR6UQR0GT6WLMW8C7EM2HEIF74","A2JI8LMB1EEQ4Z","335VBRURDJMQFRMOFGHOE9WKSHX9E1","","null","<img src=""img/food4.png"" style=""width:200px; border:14px solid green;"">","null","","","","","","","","","",""
"","image-keyboard-response","210","122359","0.0-300.0","3TS1AR6UQR0GT6WLMW8C7EM2HEIF74","A2JI8LMB1EEQ4Z","335VBRURDJMQFRMOFGHOE9WKSHX9E1","","583.8999996185303","img/food5.png","75","585.3000001907349","2","0","","2","1","1,0.5,0,1,0.5,0,0.5,0,1","0.5,0,1,0.5,0,1,0,1,0.5","2",""
"","html-keyboard-response","211","122662","0.0-301.0","3TS1AR6UQR0GT6WLMW8C7EM2HEIF74","A2JI8LMB1EEQ4Z","335VBRURDJMQFRMOFGHOE9WKSHX9E1","","null","<img src=""img/food5.png"" style=""width:200px;border:14px solid red;"">","null","","","","","","","","","",""
"","image-keyboard-response","212","123295","0.0-302.0","3TS1AR6UQR0GT6WLMW8C7EM2HEIF74","A2JI8LMB1EEQ4Z","335VBRURDJMQFRMOFGHOE9WKSHX9E1","","631.8999996185303","img/food4.png","74","633.2000007629395","1","0","","1","1","1,0.5,0,1,0.5,0,0.5,0,1","0.5,0,1,0.5,0,1,0,1,0.5","2",""
"","html-keyboard-response","213","123598","0.0-303.0","3TS1AR6UQR0GT6WLMW8C7EM2HEIF74","A2JI8LMB1EEQ4Z","335VBRURDJMQFRMOFGHOE9WKSHX9E1","","null","<img src=""img/food4.png"" style=""width:200px;border:14px solid red;"">","null","","","","","","","","","",""
"","image-keyboard-response","214","124351","0.0-304.0","3TS1AR6UQR0GT6WLMW8C7EM2HEIF74","A2JI8LMB1EEQ4Z","335VBRURDJMQFRMOFGHOE9WKSHX9E1","","751.6999998092651","img/food6.png","76","753.1000003814697","3","1","","3","1","1,0.5,0,1,0.5,0,0.5,0,1","0.5,0,1,0.5,0,1,0,1,0.5","2",""
"","html-keyboard-response","215","124654","0.0-305.0","3TS1AR6UQR0GT6WLMW8C7EM2HEIF74","A2JI8LMB1EEQ4Z","335VBRURDJMQFRMOFGHOE9WKSHX9E1","","null","<img src=""img/food6.png"" style=""width:200px; border:14px solid green;"">","null","","","","","","","","","",""
"","image-keyboard-response","216","125383","0.0-306.0","3TS1AR6UQR0GT6WLMW8C7EM2HEIF74","A2JI8LMB1EEQ4Z","335VBRURDJMQFRMOFGHOE9WKSHX9E1","","727.6000003814697","img/food5.png","75","729.1000003814697","2","0","","2","1","1,0.5,0,1,0.5,0,0.5,0,1","0.5,0,1,0.5,0,1,0,1,0.5","2",""
"","html-keyboard-response","217","125686","0.0-307.0","3TS1AR6UQR0GT6WLMW8C7EM2HEIF74","A2JI8LMB1EEQ4Z","335VBRURDJMQFRMOFGHOE9WKSHX9E1","","null","<img src=""img/food5.png"" style=""width:200px;border:14px solid red;"">","null","","","","","","","","","",""
"","image-keyboard-response","218","126327","0.0-308.0","3TS1AR6UQR0GT6WLMW8C7EM2HEIF74","A2JI8LMB1EEQ4Z","335VBRURDJMQFRMOFGHOE9WKSHX9E1","","639.5","img/food6.png","76","641","3","1","","3","1","1,0.5,0,1,0.5,0,0.5,0,1","0.5,0,1,0.5,0,1,0,1,0.5","2",""
"","html-keyboard-response","219","126630","0.0-309.0","3TS1AR6UQR0GT6WLMW8C7EM2HEIF74","A2JI8LMB1EEQ4Z","335VBRURDJMQFRMOFGHOE9WKSHX9E1","","null","<img src=""img/food6.png"" style=""width:200px; border:14px solid green;"">","null","","","","","","","","","",""
"","image-keyboard-response","220","127191","0.0-310.0","3TS1AR6UQR0GT6WLMW8C7EM2HEIF74","A2JI8LMB1EEQ4Z","335VBRURDJMQFRMOFGHOE9WKSHX9E1","","559.3000001907349","img/food6.png","76","560.5","3","0","","3","1","1,0.5,0,1,0.5,0,0.5,0,1","0.5,0,1,0.5,0,1,0,1,0.5","2",""
"","html-keyboard-response","221","127494","0.0-311.0","3TS1AR6UQR0GT6WLMW8C7EM2HEIF74","A2JI8LMB1EEQ4Z","335VBRURDJMQFRMOFGHOE9WKSHX9E1","","null","<img src=""img/food6.png"" style=""width:200px;border:14px solid red;"">","null","","","","","","","","","",""
"","image-keyboard-response","222","128376","0.0-312.0","3TS1AR6UQR0GT6WLMW8C7EM2HEIF74","A2JI8LMB1EEQ4Z","335VBRURDJMQFRMOFGHOE9WKSHX9E1","","880","img/food5.png","75","881.3999996185303","2","0","","2","1","1,0.5,0,1,0.5,0,0.5,0,1","0.5,0,1,0.5,0,1,0,1,0.5","2",""
"","html-keyboard-response","223","128678","0.0-313.0","3TS1AR6UQR0GT6WLMW8C7EM2HEIF74","A2JI8LMB1EEQ4Z","335VBRURDJMQFRMOFGHOE9WKSHX9E1","","null","<img src=""img/food5.png"" style=""width:200px;border:14px solid red;"">","null","","","","","","","","","",""
"","image-keyboard-response","224","129289","0.0-314.0","3TS1AR6UQR0GT6WLMW8C7EM2HEIF74","A2JI8LMB1EEQ4Z","335VBRURDJMQFRMOFGHOE9WKSHX9E1","","608.7000007629395","img/food4.png","74","610","1","0","","1","1","1,0.5,0,1,0.5,0,0.5,0,1","0.5,0,1,0.5,0,1,0,1,0.5","2",""
"","html-keyboard-response","225","129598","0.0-315.0","3TS1AR6UQR0GT6WLMW8C7EM2HEIF74","A2JI8LMB1EEQ4Z","335VBRURDJMQFRMOFGHOE9WKSHX9E1","","null","<img src=""img/food4.png"" style=""width:200px;border:14px solid red;"">","null","","","","","","","","","",""
"","image-keyboard-response","226","130687","0.0-316.0","3TS1AR6UQR0GT6WLMW8C7EM2HEIF74","A2JI8LMB1EEQ4Z","335VBRURDJMQFRMOFGHOE9WKSHX9E1","","1087","img/food6.png","76","1088.3000001907349","3","1","","3","1","1,0.5,0,1,0.5,0,0.5,0,1","0.5,0,1,0.5,0,1,0,1,0.5","2",""
"","html-keyboard-response","227","130990","0.0-317.0","3TS1AR6UQR0GT6WLMW8C7EM2HEIF74","A2JI8LMB1EEQ4Z","335VBRURDJMQFRMOFGHOE9WKSHX9E1","","null","<img src=""img/food6.png"" style=""width:200px; border:14px solid green;"">","null","","","","","","","","","",""
"","image-keyboard-response","228","131359","0.0-318.0","3TS1AR6UQR0GT6WLMW8C7EM2HEIF74","A2JI8LMB1EEQ4Z","335VBRURDJMQFRMOFGHOE9WKSHX9E1","","367.3999996185303","img/food6.png","76","368.80000019073486","3","0","","3","1","1,0.5,0,1,0.5,0,0.5,0,1","0.5,0,1,0.5,0,1,0,1,0.5","2",""
"","html-keyboard-response","229","131662","0.0-319.0","3TS1AR6UQR0GT6WLMW8C7EM2HEIF74","A2JI8LMB1EEQ4Z","335VBRURDJMQFRMOFGHOE9WKSHX9E1","","null","<img src=""img/food6.png"" style=""width:200px;border:14px solid red;"">","null","","","","","","","","","",""
"","image-keyboard-response","230","132303","0.0-320.0","3TS1AR6UQR0GT6WLMW8C7EM2HEIF74","A2JI8LMB1EEQ4Z","335VBRURDJMQFRMOFGHOE9WKSHX9E1","","639.1999998092651","img/food6.png","76","640.6000003814697","3","0","","3","1","1,0.5,0,1,0.5,0,0.5,0,1","0.5,0,1,0.5,0,1,0,1,0.5","2",""
"","html-keyboard-response","231","132606","0.0-321.0","3TS1AR6UQR0GT6WLMW8C7EM2HEIF74","A2JI8LMB1EEQ4Z","335VBRURDJMQFRMOFGHOE9WKSHX9E1","","null","<img src=""img/food6.png"" style=""width:200px;border:14px solid red;"">","null","","","","","","","","","",""
"","image-keyboard-response","232","132983","0.0-322.0","3TS1AR6UQR0GT6WLMW8C7EM2HEIF74","A2JI8LMB1EEQ4Z","335VBRURDJMQFRMOFGHOE9WKSHX9E1","","375","img/food6.png","76","376","3","1","","3","1","1,0.5,0,1,0.5,0,0.5,0,1","0.5,0,1,0.5,0,1,0,1,0.5","2",""
"","html-keyboard-response","233","133286","0.0-323.0","3TS1AR6UQR0GT6WLMW8C7EM2HEIF74","A2JI8LMB1EEQ4Z","335VBRURDJMQFRMOFGHOE9WKSHX9E1","","null","<img src=""img/food6.png"" style=""width:200px; border:14px solid green;"">","null","","","","","","","","","",""
"","image-keyboard-response","234","133991","0.0-324.0","3TS1AR6UQR0GT6WLMW8C7EM2HEIF74","A2JI8LMB1EEQ4Z","335VBRURDJMQFRMOFGHOE9WKSHX9E1","","703.3000001907349","img/food6.png","76","704.1999998092651","3","1","","3","1","1,0.5,0,1,0.5,0,0.5,0,1","0.5,0,1,0.5,0,1,0,1,0.5","2",""
"","html-keyboard-response","235","134294","0.0-325.0","3TS1AR6UQR0GT6WLMW8C7EM2HEIF74","A2JI8LMB1EEQ4Z","335VBRURDJMQFRMOFGHOE9WKSHX9E1","","null","<img src=""img/food6.png"" style=""width:200px; border:14px solid green;"">","null","","","","","","","","","",""
"","image-keyboard-response","236","135039","0.0-326.0","3TS1AR6UQR0GT6WLMW8C7EM2HEIF74","A2JI8LMB1EEQ4Z","335VBRURDJMQFRMOFGHOE9WKSHX9E1","","743.1000003814697","img/food6.png","76","744","3","1","","3","1","1,0.5,0,1,0.5,0,0.5,0,1","0.5,0,1,0.5,0,1,0,1,0.5","2",""
"","html-keyboard-response","237","135342","0.0-327.0","3TS1AR6UQR0GT6WLMW8C7EM2HEIF74","A2JI8LMB1EEQ4Z","335VBRURDJMQFRMOFGHOE9WKSHX9E1","","null","<img src=""img/food6.png"" style=""width:200px; border:14px solid green;"">","null","","","","","","","","","",""
"","image-keyboard-response","238","135646","0.0-328.0","3TS1AR6UQR0GT6WLMW8C7EM2HEIF74","A2JI8LMB1EEQ4Z","335VBRURDJMQFRMOFGHOE9WKSHX9E1","","303.19999980926514","img/food6.png","76","304.1000003814697","3","1","","3","1","1,0.5,0,1,0.5,0,0.5,0,1","0.5,0,1,0.5,0,1,0,1,0.5","2",""
"","html-keyboard-response","239","135950","0.0-329.0","3TS1AR6UQR0GT6WLMW8C7EM2HEIF74","A2JI8LMB1EEQ4Z","335VBRURDJMQFRMOFGHOE9WKSHX9E1","","null","<img src=""img/food6.png"" style=""width:200px; border:14px solid green;"">","null","","","","","","","","","",""
"","image-keyboard-response","240","136655","0.0-330.0","3TS1AR6UQR0GT6WLMW8C7EM2HEIF74","A2JI8LMB1EEQ4Z","335VBRURDJMQFRMOFGHOE9WKSHX9E1","","703.5","img/food5.png","75","704.3999996185303","2","0","","2","1","1,0.5,0,1,0.5,0,0.5,0,1","0.5,0,1,0.5,0,1,0,1,0.5","2",""
"","html-keyboard-response","241","136958","0.0-331.0","3TS1AR6UQR0GT6WLMW8C7EM2HEIF74","A2JI8LMB1EEQ4Z","335VBRURDJMQFRMOFGHOE9WKSHX9E1","","null","<img src=""img/food5.png"" style=""width:200px;border:14px solid red;"">","null","","","","","","","","","",""
"","image-keyboard-response","242","137343","0.0-332.0","3TS1AR6UQR0GT6WLMW8C7EM2HEIF74","A2JI8LMB1EEQ4Z","335VBRURDJMQFRMOFGHOE9WKSHX9E1","","383.0999994277954","img/food5.png","75","384","2","0","","2","1","1,0.5,0,1,0.5,0,0.5,0,1","0.5,0,1,0.5,0,1,0,1,0.5","2",""
"","html-keyboard-response","243","137646","0.0-333.0","3TS1AR6UQR0GT6WLMW8C7EM2HEIF74","A2JI8LMB1EEQ4Z","335VBRURDJMQFRMOFGHOE9WKSHX9E1","","null","<img src=""img/food5.png"" style=""width:200px;border:14px solid red;"">","null","","","","","","","","","",""
"","image-keyboard-response","244","137919","0.0-334.0","3TS1AR6UQR0GT6WLMW8C7EM2HEIF74","A2JI8LMB1EEQ4Z","335VBRURDJMQFRMOFGHOE9WKSHX9E1","","271.5","img/food5.png","75","272.5","2","0","","2","1","1,0.5,0,1,0.5,0,0.5,0,1","0.5,0,1,0.5,0,1,0,1,0.5","2",""
"","html-keyboard-response","245","138222","0.0-335.0","3TS1AR6UQR0GT6WLMW8C7EM2HEIF74","A2JI8LMB1EEQ4Z","335VBRURDJMQFRMOFGHOE9WKSHX9E1","","null","<img src=""img/food5.png"" style=""width:200px;border:14px solid red;"">","null","","","","","","","","","",""
"","image-keyboard-response","246","139471","0.0-336.0","3TS1AR6UQR0GT6WLMW8C7EM2HEIF74","A2JI8LMB1EEQ4Z","335VBRURDJMQFRMOFGHOE9WKSHX9E1","","1247.6000003814697","img/food6.png","76","1248.3999996185303","3","1","","3","1","1,0.5,0,1,0.5,0,0.5,0,1","0.5,0,1,0.5,0,1,0,1,0.5","2",""
"","html-keyboard-response","247","139774","0.0-337.0","3TS1AR6UQR0GT6WLMW8C7EM2HEIF74","A2JI8LMB1EEQ4Z","335VBRURDJMQFRMOFGHOE9WKSHX9E1","","null","<img src=""img/food6.png"" style=""width:200px; border:14px solid green;"">","null","","","","","","","","","",""
"","image-keyboard-response","248","140295","0.0-338.0","3TS1AR6UQR0GT6WLMW8C7EM2HEIF74","A2JI8LMB1EEQ4Z","335VBRURDJMQFRMOFGHOE9WKSHX9E1","","519.5","img/food6.png","76","520.3999996185303","3","1","","3","1","1,0.5,0,1,0.5,0,0.5,0,1","0.5,0,1,0.5,0,1,0,1,0.5","2",""
"","html-keyboard-response","249","140598","0.0-339.0","3TS1AR6UQR0GT6WLMW8C7EM2HEIF74","A2JI8LMB1EEQ4Z","335VBRURDJMQFRMOFGHOE9WKSHX9E1","","null","<img src=""img/food6.png"" style=""width:200px; border:14px solid green;"">","null","","","","","","","","","",""
"","image-keyboard-response","250","141270","0.0-340.0","3TS1AR6UQR0GT6WLMW8C7EM2HEIF74","A2JI8LMB1EEQ4Z","335VBRURDJMQFRMOFGHOE9WKSHX9E1","","671.1000003814697","img/food4.png","74","671.9000005722046","1","1","","1","1","1,0.5,0,1,0.5,0,0.5,0,1","0.5,0,1,0.5,0,1,0,1,0.5","2",""
"","html-keyboard-response","251","141573","0.0-341.0","3TS1AR6UQR0GT6WLMW8C7EM2HEIF74","A2JI8LMB1EEQ4Z","335VBRURDJMQFRMOFGHOE9WKSHX9E1","","null","<img src=""img/food4.png"" style=""width:200px; border:14px solid green;"">","null","","","","","","","","","",""
"","image-keyboard-response","252","141918","0.0-342.0","3TS1AR6UQR0GT6WLMW8C7EM2HEIF74","A2JI8LMB1EEQ4Z","335VBRURDJMQFRMOFGHOE9WKSHX9E1","","343.80000019073486","img/food4.png","74","344.80000019073486","1","0","","1","1","1,0.5,0,1,0.5,0,0.5,0,1","0.5,0,1,0.5,0,1,0,1,0.5","2",""
"","html-keyboard-response","253","142221","0.0-343.0","3TS1AR6UQR0GT6WLMW8C7EM2HEIF74","A2JI8LMB1EEQ4Z","335VBRURDJMQFRMOFGHOE9WKSHX9E1","","null","<img src=""img/food4.png"" style=""width:200px;border:14px solid red;"">","null","","","","","","","","","",""
"","image-keyboard-response","254","142743","0.0-344.0","3TS1AR6UQR0GT6WLMW8C7EM2HEIF74","A2JI8LMB1EEQ4Z","335VBRURDJMQFRMOFGHOE9WKSHX9E1","","520.1000003814697","img/food4.png","74","521.1000003814697","1","0","","1","1","1,0.5,0,1,0.5,0,0.5,0,1","0.5,0,1,0.5,0,1,0,1,0.5","2",""
"","html-keyboard-response","255","143045","0.0-345.0","3TS1AR6UQR0GT6WLMW8C7EM2HEIF74","A2JI8LMB1EEQ4Z","335VBRURDJMQFRMOFGHOE9WKSHX9E1","","null","<img src=""img/food4.png"" style=""width:200px;border:14px solid red;"">","null","","","","","","","","","",""
"","image-keyboard-response","256","144079","0.0-346.0","3TS1AR6UQR0GT6WLMW8C7EM2HEIF74","A2JI8LMB1EEQ4Z","335VBRURDJMQFRMOFGHOE9WKSHX9E1","","1031.7999992370605","img/food5.png","76","1033.1000003814697","3","1","","2","1","1,0.5,0,1,0.5,0,0.5,0,1","0.5,0,1,0.5,0,1,0,1,0.5","2",""
"","html-keyboard-response","257","144382","0.0-347.0","3TS1AR6UQR0GT6WLMW8C7EM2HEIF74","A2JI8LMB1EEQ4Z","335VBRURDJMQFRMOFGHOE9WKSHX9E1","","null","<img src=""img/food5.png"" style=""width:200px; border:14px solid green;"">","null","","","","","","","","","",""
"","image-keyboard-response","258","144799","0.0-348.0","3TS1AR6UQR0GT6WLMW8C7EM2HEIF74","A2JI8LMB1EEQ4Z","335VBRURDJMQFRMOFGHOE9WKSHX9E1","","415.30000019073486","img/food5.png","76","416.69999980926514","3","1","","2","1","1,0.5,0,1,0.5,0,0.5,0,1","0.5,0,1,0.5,0,1,0,1,0.5","2",""
"","html-keyboard-response","259","145102","0.0-349.0","3TS1AR6UQR0GT6WLMW8C7EM2HEIF74","A2JI8LMB1EEQ4Z","335VBRURDJMQFRMOFGHOE9WKSHX9E1","","null","<img src=""img/food5.png"" style=""width:200px; border:14px solid green;"">","null","","","","","","","","","",""
"","image-keyboard-response","260","146055","0.0-350.0","3TS1AR6UQR0GT6WLMW8C7EM2HEIF74","A2JI8LMB1EEQ4Z","335VBRURDJMQFRMOFGHOE9WKSHX9E1","","951.3000001907349","img/food6.png","76","952.6999998092651","3","1","","3","1","1,0.5,0,1,0.5,0,0.5,0,1","0.5,0,1,0.5,0,1,0,1,0.5","2",""
"","html-keyboard-response","261","146358","0.0-351.0","3TS1AR6UQR0GT6WLMW8C7EM2HEIF74","A2JI8LMB1EEQ4Z","335VBRURDJMQFRMOFGHOE9WKSHX9E1","","null","<img src=""img/food6.png"" style=""width:200px; border:14px solid green;"">","null","","","","","","","","","",""
"","image-keyboard-response","262","146894","0.0-352.0","3TS1AR6UQR0GT6WLMW8C7EM2HEIF74","A2JI8LMB1EEQ4Z","335VBRURDJMQFRMOFGHOE9WKSHX9E1","","535.1999998092651","img/food5.png","76","536.3000001907349","3","1","","2","1","1,0.5,0,1,0.5,0,0.5,0,1","0.5,0,1,0.5,0,1,0,1,0.5","2",""
"","html-keyboard-response","263","147198","0.0-353.0","3TS1AR6UQR0GT6WLMW8C7EM2HEIF74","A2JI8LMB1EEQ4Z","335VBRURDJMQFRMOFGHOE9WKSHX9E1","","null","<img src=""img/food5.png"" style=""width:200px; border:14px solid green;"">","null","","","","","","","","","",""
"","image-keyboard-response","264","147663","0.0-354.0","3TS1AR6UQR0GT6WLMW8C7EM2HEIF74","A2JI8LMB1EEQ4Z","335VBRURDJMQFRMOFGHOE9WKSHX9E1","","463.29999923706055","img/food6.png","76","464.5","3","0","","3","1","1,0.5,0,1,0.5,0,0.5,0,1","0.5,0,1,0.5,0,1,0,1,0.5","2",""
"","html-keyboard-response","265","147966","0.0-355.0","3TS1AR6UQR0GT6WLMW8C7EM2HEIF74","A2JI8LMB1EEQ4Z","335VBRURDJMQFRMOFGHOE9WKSHX9E1","","null","<img src=""img/food6.png"" style=""width:200px;border:14px solid red;"">","null","","","","","","","","","",""
"","image-keyboard-response","266","148807","0.0-356.0","3TS1AR6UQR0GT6WLMW8C7EM2HEIF74","A2JI8LMB1EEQ4Z","335VBRURDJMQFRMOFGHOE9WKSHX9E1","","839.2999992370605","img/food4.png","74","840.7000007629395","1","0","","1","1","1,0.5,0,1,0.5,0,0.5,0,1","0.5,0,1,0.5,0,1,0,1,0.5","2",""
"","html-keyboard-response","267","149110","0.0-357.0","3TS1AR6UQR0GT6WLMW8C7EM2HEIF74","A2JI8LMB1EEQ4Z","335VBRURDJMQFRMOFGHOE9WKSHX9E1","","null","<img src=""img/food4.png"" style=""width:200px;border:14px solid red;"">","null","","","","","","","","","",""
"","image-keyboard-response","268","149735","0.0-358.0","3TS1AR6UQR0GT6WLMW8C7EM2HEIF74","A2JI8LMB1EEQ4Z","335VBRURDJMQFRMOFGHOE9WKSHX9E1","","623.6999998092651","img/food4.png","74","625.1999998092651","1","1","","1","1","1,0.5,0,1,0.5,0,0.5,0,1","0.5,0,1,0.5,0,1,0,1,0.5","2",""
"","html-keyboard-response","269","150038","0.0-359.0","3TS1AR6UQR0GT6WLMW8C7EM2HEIF74","A2JI8LMB1EEQ4Z","335VBRURDJMQFRMOFGHOE9WKSHX9E1","","null","<img src=""img/food4.png"" style=""width:200px; border:14px solid green;"">","null","","","","","","","","","",""
"","image-keyboard-response","270","150599","0.0-360.0","3TS1AR6UQR0GT6WLMW8C7EM2HEIF74","A2JI8LMB1EEQ4Z","335VBRURDJMQFRMOFGHOE9WKSHX9E1","","559","img/food4.png","74","560.3000001907349","1","0","","1","1","1,0.5,0,1,0.5,0,0.5,0,1","0.5,0,1,0.5,0,1,0,1,0.5","2",""
"","html-keyboard-response","271","150902","0.0-361.0","3TS1AR6UQR0GT6WLMW8C7EM2HEIF74","A2JI8LMB1EEQ4Z","335VBRURDJMQFRMOFGHOE9WKSHX9E1","","null","<img src=""img/food4.png"" style=""width:200px;border:14px solid red;"">","null","","","","","","","","","",""
"","image-keyboard-response","272","151239","0.0-362.0","3TS1AR6UQR0GT6WLMW8C7EM2HEIF74","A2JI8LMB1EEQ4Z","335VBRURDJMQFRMOFGHOE9WKSHX9E1","","334.70000076293945","img/food4.png","74","336.19999980926514","1","1","","1","1","1,0.5,0,1,0.5,0,0.5,0,1","0.5,0,1,0.5,0,1,0,1,0.5","2",""
"","html-keyboard-response","273","151542","0.0-363.0","3TS1AR6UQR0GT6WLMW8C7EM2HEIF74","A2JI8LMB1EEQ4Z","335VBRURDJMQFRMOFGHOE9WKSHX9E1","","null","<img src=""img/food4.png"" style=""width:200px; border:14px solid green;"">","null","","","","","","","","","",""
"","image-keyboard-response","274","152111","0.0-364.0","3TS1AR6UQR0GT6WLMW8C7EM2HEIF74","A2JI8LMB1EEQ4Z","335VBRURDJMQFRMOFGHOE9WKSHX9E1","","567","img/food4.png","74","568.3999996185303","1","0","","1","1","1,0.5,0,1,0.5,0,0.5,0,1","0.5,0,1,0.5,0,1,0,1,0.5","2",""
"","html-keyboard-response","275","152414","0.0-365.0","3TS1AR6UQR0GT6WLMW8C7EM2HEIF74","A2JI8LMB1EEQ4Z","335VBRURDJMQFRMOFGHOE9WKSHX9E1","","null","<img src=""img/food4.png"" style=""width:200px;border:14px solid red;"">","null","","","","","","","","","",""
"","image-keyboard-response","276","153175","0.0-366.0","3TS1AR6UQR0GT6WLMW8C7EM2HEIF74","A2JI8LMB1EEQ4Z","335VBRURDJMQFRMOFGHOE9WKSHX9E1","","758.8999996185303","img/food5.png","76","760.2999992370605","3","1","","2","1","1,0.5,0,1,0.5,0,0.5,0,1","0.5,0,1,0.5,0,1,0,1,0.5","2",""
"","html-keyboard-response","277","153478","0.0-367.0","3TS1AR6UQR0GT6WLMW8C7EM2HEIF74","A2JI8LMB1EEQ4Z","335VBRURDJMQFRMOFGHOE9WKSHX9E1","","null","<img src=""img/food5.png"" style=""width:200px; border:14px solid green;"">","null","","","","","","","","","",""
"","image-keyboard-response","278","153703","0.0-368.0","3TS1AR6UQR0GT6WLMW8C7EM2HEIF74","A2JI8LMB1EEQ4Z","335VBRURDJMQFRMOFGHOE9WKSHX9E1","","223","img/food6.png","76","224.39999961853027","3","1","","3","1","1,0.5,0,1,0.5,0,0.5,0,1","0.5,0,1,0.5,0,1,0,1,0.5","2",""
"","html-keyboard-response","279","154007","0.0-369.0","3TS1AR6UQR0GT6WLMW8C7EM2HEIF74","A2JI8LMB1EEQ4Z","335VBRURDJMQFRMOFGHOE9WKSHX9E1","","null","<img src=""img/food6.png"" style=""width:200px; border:14px solid green;"">","null","","","","","","","","","",""
"","image-keyboard-response","280","154479","0.0-370.0","3TS1AR6UQR0GT6WLMW8C7EM2HEIF74","A2JI8LMB1EEQ4Z","335VBRURDJMQFRMOFGHOE9WKSHX9E1","","470.30000019073486","img/food4.png","76","471.5","3","1","","1","1","1,0.5,0,1,0.5,0,0.5,0,1","0.5,0,1,0.5,0,1,0,1,0.5","2",""
"","html-keyboard-response","281","154782","0.0-371.0","3TS1AR6UQR0GT6WLMW8C7EM2HEIF74","A2JI8LMB1EEQ4Z","335VBRURDJMQFRMOFGHOE9WKSHX9E1","","null","<img src=""img/food4.png"" style=""width:200px; border:14px solid green;"">","null","","","","","","","","","",""
"","image-keyboard-response","282","156791","0.0-372.0","3TS1AR6UQR0GT6WLMW8C7EM2HEIF74","A2JI8LMB1EEQ4Z","335VBRURDJMQFRMOFGHOE9WKSHX9E1","","2006.5","img/food5.png","76","2007.8000001907349","3","1","","2","1","1,0.5,0,1,0.5,0,0.5,0,1","0.5,0,1,0.5,0,1,0,1,0.5","2",""
"","html-keyboard-response","283","157094","0.0-373.0","3TS1AR6UQR0GT6WLMW8C7EM2HEIF74","A2JI8LMB1EEQ4Z","335VBRURDJMQFRMOFGHOE9WKSHX9E1","","null","<img src=""img/food5.png"" style=""width:200px; border:14px solid green;"">","null","","","","","","","","","",""
"","image-keyboard-response","284","157671","0.0-374.0","3TS1AR6UQR0GT6WLMW8C7EM2HEIF74","A2JI8LMB1EEQ4Z","335VBRURDJMQFRMOFGHOE9WKSHX9E1","","574.5999994277954","img/food6.png","76","576.0999994277954","3","0","","3","1","1,0.5,0,1,0.5,0,0.5,0,1","0.5,0,1,0.5,0,1,0,1,0.5","2",""
"","html-keyboard-response","285","157974","0.0-375.0","3TS1AR6UQR0GT6WLMW8C7EM2HEIF74","A2JI8LMB1EEQ4Z","335VBRURDJMQFRMOFGHOE9WKSHX9E1","","null","<img src=""img/food6.png"" style=""width:200px;border:14px solid red;"">","null","","","","","","","","","",""
"","image-keyboard-response","286","158431","0.0-376.0","3TS1AR6UQR0GT6WLMW8C7EM2HEIF74","A2JI8LMB1EEQ4Z","335VBRURDJMQFRMOFGHOE9WKSHX9E1","","454.69999980926514","img/food6.png","76","456.1000003814697","3","0","","3","1","1,0.5,0,1,0.5,0,0.5,0,1","0.5,0,1,0.5,0,1,0,1,0.5","2",""
"","html-keyboard-response","287","158734","0.0-377.0","3TS1AR6UQR0GT6WLMW8C7EM2HEIF74","A2JI8LMB1EEQ4Z","335VBRURDJMQFRMOFGHOE9WKSHX9E1","","null","<img src=""img/food6.png"" style=""width:200px;border:14px solid red;"">","null","","","","","","","","","",""
"","image-keyboard-response","288","159270","0.0-378.0","3TS1AR6UQR0GT6WLMW8C7EM2HEIF74","A2JI8LMB1EEQ4Z","335VBRURDJMQFRMOFGHOE9WKSHX9E1","","534.3000001907349","img/food6.png","75","535.6000003814697","2","1","","3","1","1,0.5,0,1,0.5,0,0.5,0,1","0.5,0,1,0.5,0,1,0,1,0.5","2",""
"","html-keyboard-response","289","159574","0.0-379.0","3TS1AR6UQR0GT6WLMW8C7EM2HEIF74","A2JI8LMB1EEQ4Z","335VBRURDJMQFRMOFGHOE9WKSHX9E1","","null","<img src=""img/food6.png"" style=""width:200px; border:14px solid green;"">","null","","","","","","","","","",""
"","image-keyboard-response","290","161007","0.0-380.0","3TS1AR6UQR0GT6WLMW8C7EM2HEIF74","A2JI8LMB1EEQ4Z","335VBRURDJMQFRMOFGHOE9WKSHX9E1","","1430.6000003814697","img/food5.png","74","1432.0999994277954","1","1","","2","1","1,0.5,0,1,0.5,0,0.5,0,1","0.5,0,1,0.5,0,1,0,1,0.5","2",""
"","html-keyboard-response","291","161310","0.0-381.0","3TS1AR6UQR0GT6WLMW8C7EM2HEIF74","A2JI8LMB1EEQ4Z","335VBRURDJMQFRMOFGHOE9WKSHX9E1","","null","<img src=""img/food5.png"" style=""width:200px; border:14px solid green;"">","null","","","","","","","","","",""
"","image-keyboard-response","292","162254","0.0-382.0","3TS1AR6UQR0GT6WLMW8C7EM2HEIF74","A2JI8LMB1EEQ4Z","335VBRURDJMQFRMOFGHOE9WKSHX9E1","","942","img/food4.png","74","943.1999998092651","1","0","","1","1","1,0.5,0,1,0.5,0,0.5,0,1","0.5,0,1,0.5,0,1,0,1,0.5","2",""
"","html-keyboard-response","293","162558","0.0-383.0","3TS1AR6UQR0GT6WLMW8C7EM2HEIF74","A2JI8LMB1EEQ4Z","335VBRURDJMQFRMOFGHOE9WKSHX9E1","","null","<img src=""img/food4.png"" style=""width:200px;border:14px solid red;"">","null","","","","","","","","","",""
"","image-keyboard-response","294","163862","0.0-384.0","3TS1AR6UQR0GT6WLMW8C7EM2HEIF74","A2JI8LMB1EEQ4Z","335VBRURDJMQFRMOFGHOE9WKSHX9E1","","1302.2999992370605","img/food5.png","74","1303.7000007629395","1","0","","2","1","1,0.5,0,1,0.5,0,0.5,0,1","0.5,0,1,0.5,0,1,0,1,0.5","2",""
"","html-keyboard-response","295","164165","0.0-385.0","3TS1AR6UQR0GT6WLMW8C7EM2HEIF74","A2JI8LMB1EEQ4Z","335VBRURDJMQFRMOFGHOE9WKSHX9E1","","null","<img src=""img/food5.png"" style=""width:200px;border:14px solid red;"">","null","","","","","","","","","",""
"","image-keyboard-response","296","164870","0.0-386.0","3TS1AR6UQR0GT6WLMW8C7EM2HEIF74","A2JI8LMB1EEQ4Z","335VBRURDJMQFRMOFGHOE9WKSHX9E1","","703","img/food5.png","76","704.3999996185303","3","1","","2","1","1,0.5,0,1,0.5,0,0.5,0,1","0.5,0,1,0.5,0,1,0,1,0.5","2",""
"","html-keyboard-response","297","165173","0.0-387.0","3TS1AR6UQR0GT6WLMW8C7EM2HEIF74","A2JI8LMB1EEQ4Z","335VBRURDJMQFRMOFGHOE9WKSHX9E1","","null","<img src=""img/food5.png"" style=""width:200px; border:14px solid green;"">","null","","","","","","","","","",""
"","image-keyboard-response","298","165510","0.0-388.0","3TS1AR6UQR0GT6WLMW8C7EM2HEIF74","A2JI8LMB1EEQ4Z","335VBRURDJMQFRMOFGHOE9WKSHX9E1","","335.19999980926514","img/food5.png","76","336.6000003814697","3","1","","2","1","1,0.5,0,1,0.5,0,0.5,0,1","0.5,0,1,0.5,0,1,0,1,0.5","2",""
"","html-keyboard-response","299","165813","0.0-389.0","3TS1AR6UQR0GT6WLMW8C7EM2HEIF74","A2JI8LMB1EEQ4Z","335VBRURDJMQFRMOFGHOE9WKSHX9E1","","null","<img src=""img/food5.png"" style=""width:200px; border:14px solid green;"">","null","","","","","","","","","",""
"","image-keyboard-response","300","166566","0.0-390.0","3TS1AR6UQR0GT6WLMW8C7EM2HEIF74","A2JI8LMB1EEQ4Z","335VBRURDJMQFRMOFGHOE9WKSHX9E1","","751.0999994277954","img/food6.png","76","752.5","3","1","","3","1","1,0.5,0,1,0.5,0,0.5,0,1","0.5,0,1,0.5,0,1,0,1,0.5","2",""
"","html-keyboard-response","301","166869","0.0-391.0","3TS1AR6UQR0GT6WLMW8C7EM2HEIF74","A2JI8LMB1EEQ4Z","335VBRURDJMQFRMOFGHOE9WKSHX9E1","","null","<img src=""img/food6.png"" style=""width:200px; border:14px solid green;"">","null","","","","","","","","","",""
"","image-keyboard-response","302","167447","0.0-392.0","3TS1AR6UQR0GT6WLMW8C7EM2HEIF74","A2JI8LMB1EEQ4Z","335VBRURDJMQFRMOFGHOE9WKSHX9E1","","575.8000001907349","img/food4.png","74","576.9000005722046","1","1","","1","1","1,0.5,0,1,0.5,0,0.5,0,1","0.5,0,1,0.5,0,1,0,1,0.5","2",""
"","html-keyboard-response","303","167749","0.0-393.0","3TS1AR6UQR0GT6WLMW8C7EM2HEIF74","A2JI8LMB1EEQ4Z","335VBRURDJMQFRMOFGHOE9WKSHX9E1","","null","<img src=""img/food4.png"" style=""width:200px; border:14px solid green;"">","null","","","","","","","","","",""
"","image-keyboard-response","304","168270","0.0-394.0","3TS1AR6UQR0GT6WLMW8C7EM2HEIF74","A2JI8LMB1EEQ4Z","335VBRURDJMQFRMOFGHOE9WKSHX9E1","","519","img/food6.png","76","520.1999998092651","3","0","","3","1","1,0.5,0,1,0.5,0,0.5,0,1","0.5,0,1,0.5,0,1,0,1,0.5","2",""
"","html-keyboard-response","305","168574","0.0-395.0","3TS1AR6UQR0GT6WLMW8C7EM2HEIF74","A2JI8LMB1EEQ4Z","335VBRURDJMQFRMOFGHOE9WKSHX9E1","","null","<img src=""img/food6.png"" style=""width:200px;border:14px solid red;"">","null","","","","","","","","","",""
"","image-keyboard-response","306","168998","0.0-396.0","3TS1AR6UQR0GT6WLMW8C7EM2HEIF74","A2JI8LMB1EEQ4Z","335VBRURDJMQFRMOFGHOE9WKSHX9E1","","422.69999980926514","img/food5.png","76","423.80000019073486","3","1","","2","1","1,0.5,0,1,0.5,0,0.5,0,1","0.5,0,1,0.5,0,1,0,1,0.5","2",""
"","html-keyboard-response","307","169301","0.0-397.0","3TS1AR6UQR0GT6WLMW8C7EM2HEIF74","A2JI8LMB1EEQ4Z","335VBRURDJMQFRMOFGHOE9WKSHX9E1","","null","<img src=""img/food5.png"" style=""width:200px; border:14px solid green;"">","null","","","","","","","","","",""
"","image-keyboard-response","308","169766","0.0-398.0","3TS1AR6UQR0GT6WLMW8C7EM2HEIF74","A2JI8LMB1EEQ4Z","335VBRURDJMQFRMOFGHOE9WKSHX9E1","","463","img/food4.png","74","464.30000019073486","1","0","","1","1","1,0.5,0,1,0.5,0,0.5,0,1","0.5,0,1,0.5,0,1,0,1,0.5","2",""
"","html-keyboard-response","309","170070","0.0-399.0","3TS1AR6UQR0GT6WLMW8C7EM2HEIF74","A2JI8LMB1EEQ4Z","335VBRURDJMQFRMOFGHOE9WKSHX9E1","","null","<img src=""img/food4.png"" style=""width:200px;border:14px solid red;"">","null","","","","","","","","","",""
"","image-keyboard-response","310","170438","0.0-400.0","3TS1AR6UQR0GT6WLMW8C7EM2HEIF74","A2JI8LMB1EEQ4Z","335VBRURDJMQFRMOFGHOE9WKSHX9E1","","366.80000019073486","img/food4.png","74","368","1","0","","1","1","1,0.5,0,1,0.5,0,0.5,0,1","0.5,0,1,0.5,0,1,0,1,0.5","2",""
"","html-keyboard-response","311","170742","0.0-401.0","3TS1AR6UQR0GT6WLMW8C7EM2HEIF74","A2JI8LMB1EEQ4Z","335VBRURDJMQFRMOFGHOE9WKSHX9E1","","null","<img src=""img/food4.png"" style=""width:200px;border:14px solid red;"">","null","","","","","","","","","",""
"","image-keyboard-response","312","171575","0.0-402.0","3TS1AR6UQR0GT6WLMW8C7EM2HEIF74","A2JI8LMB1EEQ4Z","335VBRURDJMQFRMOFGHOE9WKSHX9E1","","831.6000003814697","img/food5.png","76","833","3","1","","2","1","1,0.5,0,1,0.5,0,0.5,0,1","0.5,0,1,0.5,0,1,0,1,0.5","2",""
"","html-keyboard-response","313","171878","0.0-403.0","3TS1AR6UQR0GT6WLMW8C7EM2HEIF74","A2JI8LMB1EEQ4Z","335VBRURDJMQFRMOFGHOE9WKSHX9E1","","null","<img src=""img/food5.png"" style=""width:200px; border:14px solid green;"">","null","","","","","","","","","",""
"","image-keyboard-response","314","172486","0.0-404.0","3TS1AR6UQR0GT6WLMW8C7EM2HEIF74","A2JI8LMB1EEQ4Z","335VBRURDJMQFRMOFGHOE9WKSHX9E1","","606.8000001907349","img/food6.png","76","608","3","0","","3","1","1,0.5,0,1,0.5,0,0.5,0,1","0.5,0,1,0.5,0,1,0,1,0.5","2",""
"","html-keyboard-response","315","172790","0.0-405.0","3TS1AR6UQR0GT6WLMW8C7EM2HEIF74","A2JI8LMB1EEQ4Z","335VBRURDJMQFRMOFGHOE9WKSHX9E1","","null","<img src=""img/food6.png"" style=""width:200px;border:14px solid red;"">","null","","","","","","","","","",""
"","image-keyboard-response","316","173654","0.0-406.0","3TS1AR6UQR0GT6WLMW8C7EM2HEIF74","A2JI8LMB1EEQ4Z","335VBRURDJMQFRMOFGHOE9WKSHX9E1","","862.8000001907349","img/food4.png","75","863.8000001907349","2","0","","1","1","1,0.5,0,1,0.5,0,0.5,0,1","0.5,0,1,0.5,0,1,0,1,0.5","2",""
"","html-keyboard-response","317","173958","0.0-407.0","3TS1AR6UQR0GT6WLMW8C7EM2HEIF74","A2JI8LMB1EEQ4Z","335VBRURDJMQFRMOFGHOE9WKSHX9E1","","null","<img src=""img/food4.png"" style=""width:200px;border:14px solid red;"">","null","","","","","","","","","",""
"","image-keyboard-response","318","174718","0.0-408.0","3TS1AR6UQR0GT6WLMW8C7EM2HEIF74","A2JI8LMB1EEQ4Z","335VBRURDJMQFRMOFGHOE9WKSHX9E1","","758.3999996185303","img/food5.png","76","759.6999998092651","3","1","","2","1","1,0.5,0,1,0.5,0,0.5,0,1","0.5,0,1,0.5,0,1,0,1,0.5","2",""
"","html-keyboard-response","319","175022","0.0-409.0","3TS1AR6UQR0GT6WLMW8C7EM2HEIF74","A2JI8LMB1EEQ4Z","335VBRURDJMQFRMOFGHOE9WKSHX9E1","","null","<img src=""img/food5.png"" style=""width:200px; border:14px solid green;"">","null","","","","","","","","","",""
"","image-keyboard-response","320","175542","0.0-410.0","3TS1AR6UQR0GT6WLMW8C7EM2HEIF74","A2JI8LMB1EEQ4Z","335VBRURDJMQFRMOFGHOE9WKSHX9E1","","518.3000001907349","img/food4.png","74","519.6999998092651","1","1","","1","1","1,0.5,0,1,0.5,0,0.5,0,1","0.5,0,1,0.5,0,1,0,1,0.5","2",""
"","html-keyboard-response","321","175846","0.0-411.0","3TS1AR6UQR0GT6WLMW8C7EM2HEIF74","A2JI8LMB1EEQ4Z","335VBRURDJMQFRMOFGHOE9WKSHX9E1","","null","<img src=""img/food4.png"" style=""width:200px; border:14px solid green;"">","null","","","","","","","","","",""
"","image-keyboard-response","322","176678","0.0-412.0","3TS1AR6UQR0GT6WLMW8C7EM2HEIF74","A2JI8LMB1EEQ4Z","335VBRURDJMQFRMOFGHOE9WKSHX9E1","","830.4000005722046","img/food5.png","76","831.8000001907349","3","1","","2","1","1,0.5,0,1,0.5,0,0.5,0,1","0.5,0,1,0.5,0,1,0,1,0.5","2",""
"","html-keyboard-response","323","176982","0.0-413.0","3TS1AR6UQR0GT6WLMW8C7EM2HEIF74","A2JI8LMB1EEQ4Z","335VBRURDJMQFRMOFGHOE9WKSHX9E1","","null","<img src=""img/food5.png"" style=""width:200px; border:14px solid green;"">","null","","","","","","","","","",""
"","image-keyboard-response","324","177342","0.0-414.0","3TS1AR6UQR0GT6WLMW8C7EM2HEIF74","A2JI8LMB1EEQ4Z","335VBRURDJMQFRMOFGHOE9WKSHX9E1","","358.3999996185303","img/food5.png","76","359.5999994277954","3","1","","2","1","1,0.5,0,1,0.5,0,0.5,0,1","0.5,0,1,0.5,0,1,0,1,0.5","2",""
"","html-keyboard-response","325","177646","0.0-415.0","3TS1AR6UQR0GT6WLMW8C7EM2HEIF74","A2JI8LMB1EEQ4Z","335VBRURDJMQFRMOFGHOE9WKSHX9E1","","null","<img src=""img/food5.png"" style=""width:200px; border:14px solid green;"">","null","","","","","","","","","",""
"","image-keyboard-response","326","178310","0.0-416.0","3TS1AR6UQR0GT6WLMW8C7EM2HEIF74","A2JI8LMB1EEQ4Z","335VBRURDJMQFRMOFGHOE9WKSHX9E1","","662.3999996185303","img/food4.png","74","663.5999994277954","1","1","","1","1","1,0.5,0,1,0.5,0,0.5,0,1","0.5,0,1,0.5,0,1,0,1,0.5","2",""
"","html-keyboard-response","327","178614","0.0-417.0","3TS1AR6UQR0GT6WLMW8C7EM2HEIF74","A2JI8LMB1EEQ4Z","335VBRURDJMQFRMOFGHOE9WKSHX9E1","","null","<img src=""img/food4.png"" style=""width:200px; border:14px solid green;"">","null","","","","","","","","","",""
"","image-keyboard-response","328","178951","0.0-418.0","3TS1AR6UQR0GT6WLMW8C7EM2HEIF74","A2JI8LMB1EEQ4Z","335VBRURDJMQFRMOFGHOE9WKSHX9E1","","334.30000019073486","img/food4.png","74","335.5","1","1","","1","1","1,0.5,0,1,0.5,0,0.5,0,1","0.5,0,1,0.5,0,1,0,1,0.5","2",""
"","html-keyboard-response","329","179255","0.0-419.0","3TS1AR6UQR0GT6WLMW8C7EM2HEIF74","A2JI8LMB1EEQ4Z","335VBRURDJMQFRMOFGHOE9WKSHX9E1","","null","<img src=""img/food4.png"" style=""width:200px; border:14px solid green;"">","null","","","","","","","","","",""
"","image-keyboard-response","330","179559","0.0-420.0","3TS1AR6UQR0GT6WLMW8C7EM2HEIF74","A2JI8LMB1EEQ4Z","335VBRURDJMQFRMOFGHOE9WKSHX9E1","","302.19999980926514","img/food4.png","74","303.5","1","1","","1","1","1,0.5,0,1,0.5,0,0.5,0,1","0.5,0,1,0.5,0,1,0,1,0.5","2",""
"","html-keyboard-response","331","179863","0.0-421.0","3TS1AR6UQR0GT6WLMW8C7EM2HEIF74","A2JI8LMB1EEQ4Z","335VBRURDJMQFRMOFGHOE9WKSHX9E1","","null","<img src=""img/food4.png"" style=""width:200px; border:14px solid green;"">","null","","","","","","","","","",""
"","image-keyboard-response","332","180511","0.0-422.0","3TS1AR6UQR0GT6WLMW8C7EM2HEIF74","A2JI8LMB1EEQ4Z","335VBRURDJMQFRMOFGHOE9WKSHX9E1","","646.3000001907349","img/food4.png","74","647.5","1","0","","1","1","1,0.5,0,1,0.5,0,0.5,0,1","0.5,0,1,0.5,0,1,0,1,0.5","2",""
"","html-keyboard-response","333","180815","0.0-423.0","3TS1AR6UQR0GT6WLMW8C7EM2HEIF74","A2JI8LMB1EEQ4Z","335VBRURDJMQFRMOFGHOE9WKSHX9E1","","null","<img src=""img/food4.png"" style=""width:200px;border:14px solid red;"">","null","","","","","","","","","",""
"","image-keyboard-response","334","181495","0.0-424.0","3TS1AR6UQR0GT6WLMW8C7EM2HEIF74","A2JI8LMB1EEQ4Z","335VBRURDJMQFRMOFGHOE9WKSHX9E1","","678","img/food5.png","76","679.2000007629395","3","1","","2","1","1,0.5,0,1,0.5,0,0.5,0,1","0.5,0,1,0.5,0,1,0,1,0.5","2",""
"","html-keyboard-response","335","181799","0.0-425.0","3TS1AR6UQR0GT6WLMW8C7EM2HEIF74","A2JI8LMB1EEQ4Z","335VBRURDJMQFRMOFGHOE9WKSHX9E1","","null","<img src=""img/food5.png"" style=""width:200px; border:14px solid green;"">","null","","","","","","","","","",""
"","image-keyboard-response","336","182504","0.0-426.0","3TS1AR6UQR0GT6WLMW8C7EM2HEIF74","A2JI8LMB1EEQ4Z","335VBRURDJMQFRMOFGHOE9WKSHX9E1","","702.8999996185303","img/food4.png","74","704.1999998092651","1","1","","1","1","1,0.5,0,1,0.5,0,0.5,0,1","0.5,0,1,0.5,0,1,0,1,0.5","2",""
"","html-keyboard-response","337","182807","0.0-427.0","3TS1AR6UQR0GT6WLMW8C7EM2HEIF74","A2JI8LMB1EEQ4Z","335VBRURDJMQFRMOFGHOE9WKSHX9E1","","null","<img src=""img/food4.png"" style=""width:200px; border:14px solid green;"">","null","","","","","","","","","",""
"","image-keyboard-response","338","183375","0.0-428.0","3TS1AR6UQR0GT6WLMW8C7EM2HEIF74","A2JI8LMB1EEQ4Z","335VBRURDJMQFRMOFGHOE9WKSHX9E1","","566","img/food5.png","76","567.2000007629395","3","1","","2","1","1,0.5,0,1,0.5,0,0.5,0,1","0.5,0,1,0.5,0,1,0,1,0.5","2",""
"","html-keyboard-response","339","183679","0.0-429.0","3TS1AR6UQR0GT6WLMW8C7EM2HEIF74","A2JI8LMB1EEQ4Z","335VBRURDJMQFRMOFGHOE9WKSHX9E1","","null","<img src=""img/food5.png"" style=""width:200px; border:14px solid green;"">","null","","","","","","","","","",""
"","image-keyboard-response","340","184055","0.0-430.0","3TS1AR6UQR0GT6WLMW8C7EM2HEIF74","A2JI8LMB1EEQ4Z","335VBRURDJMQFRMOFGHOE9WKSHX9E1","","374","img/food5.png","76","375.30000019073486","3","1","","2","1","1,0.5,0,1,0.5,0,0.5,0,1","0.5,0,1,0.5,0,1,0,1,0.5","2",""
"","html-keyboard-response","341","184359","0.0-431.0","3TS1AR6UQR0GT6WLMW8C7EM2HEIF74","A2JI8LMB1EEQ4Z","335VBRURDJMQFRMOFGHOE9WKSHX9E1","","null","<img src=""img/food5.png"" style=""width:200px; border:14px solid green;"">","null","","","","","","","","","",""
"","image-keyboard-response","342","184711","0.0-432.0","3TS1AR6UQR0GT6WLMW8C7EM2HEIF74","A2JI8LMB1EEQ4Z","335VBRURDJMQFRMOFGHOE9WKSHX9E1","","349.8999996185303","img/food5.png","76","351.20000076293945","3","1","","2","1","1,0.5,0,1,0.5,0,0.5,0,1","0.5,0,1,0.5,0,1,0,1,0.5","2",""
"","html-keyboard-response","343","185015","0.0-433.0","3TS1AR6UQR0GT6WLMW8C7EM2HEIF74","A2JI8LMB1EEQ4Z","335VBRURDJMQFRMOFGHOE9WKSHX9E1","","null","<img src=""img/food5.png"" style=""width:200px; border:14px solid green;"">","null","","","","","","","","","",""
"","image-keyboard-response","344","185503","0.0-434.0","3TS1AR6UQR0GT6WLMW8C7EM2HEIF74","A2JI8LMB1EEQ4Z","335VBRURDJMQFRMOFGHOE9WKSHX9E1","","485.8999996185303","img/food6.png","76","487.20000076293945","3","1","","3","1","1,0.5,0,1,0.5,0,0.5,0,1","0.5,0,1,0.5,0,1,0,1,0.5","2",""
"","html-keyboard-response","345","185807","0.0-435.0","3TS1AR6UQR0GT6WLMW8C7EM2HEIF74","A2JI8LMB1EEQ4Z","335VBRURDJMQFRMOFGHOE9WKSHX9E1","","null","<img src=""img/food6.png"" style=""width:200px; border:14px solid green;"">","null","","","","","","","","","",""
"","image-keyboard-response","346","186159","0.0-436.0","3TS1AR6UQR0GT6WLMW8C7EM2HEIF74","A2JI8LMB1EEQ4Z","335VBRURDJMQFRMOFGHOE9WKSHX9E1","","349.80000019073486","img/food6.png","76","351.1000003814697","3","1","","3","1","1,0.5,0,1,0.5,0,0.5,0,1","0.5,0,1,0.5,0,1,0,1,0.5","2",""
"","html-keyboard-response","347","186463","0.0-437.0","3TS1AR6UQR0GT6WLMW8C7EM2HEIF74","A2JI8LMB1EEQ4Z","335VBRURDJMQFRMOFGHOE9WKSHX9E1","","null","<img src=""img/food6.png"" style=""width:200px; border:14px solid green;"">","null","","","","","","","","","",""
"","image-keyboard-response","348","186959","0.0-438.0","3TS1AR6UQR0GT6WLMW8C7EM2HEIF74","A2JI8LMB1EEQ4Z","335VBRURDJMQFRMOFGHOE9WKSHX9E1","","493.69999980926514","img/food5.png","76","494.8999996185303","3","1","","2","1","1,0.5,0,1,0.5,0,0.5,0,1","0.5,0,1,0.5,0,1,0,1,0.5","2",""
"","html-keyboard-response","349","187263","0.0-439.0","3TS1AR6UQR0GT6WLMW8C7EM2HEIF74","A2JI8LMB1EEQ4Z","335VBRURDJMQFRMOFGHOE9WKSHX9E1","","null","<img src=""img/food5.png"" style=""width:200px; border:14px solid green;"">","null","","","","","","","","","",""
"","image-keyboard-response","350","187719","0.0-440.0","3TS1AR6UQR0GT6WLMW8C7EM2HEIF74","A2JI8LMB1EEQ4Z","335VBRURDJMQFRMOFGHOE9WKSHX9E1","","453.80000019073486","img/food4.png","74","455.19999980926514","1","0","","1","1","1,0.5,0,1,0.5,0,0.5,0,1","0.5,0,1,0.5,0,1,0,1,0.5","2",""
"","html-keyboard-response","351","188023","0.0-441.0","3TS1AR6UQR0GT6WLMW8C7EM2HEIF74","A2JI8LMB1EEQ4Z","335VBRURDJMQFRMOFGHOE9WKSHX9E1","","null","<img src=""img/food4.png"" style=""width:200px;border:14px solid red;"">","null","","","","","","","","","",""
"","image-keyboard-response","352","188495","0.0-442.0","3TS1AR6UQR0GT6WLMW8C7EM2HEIF74","A2JI8LMB1EEQ4Z","335VBRURDJMQFRMOFGHOE9WKSHX9E1","","469.5999994277954","img/food6.png","76","471","3","1","","3","1","1,0.5,0,1,0.5,0,0.5,0,1","0.5,0,1,0.5,0,1,0,1,0.5","2",""
"","html-keyboard-response","353","188798","0.0-443.0","3TS1AR6UQR0GT6WLMW8C7EM2HEIF74","A2JI8LMB1EEQ4Z","335VBRURDJMQFRMOFGHOE9WKSHX9E1","","null","<img src=""img/food6.png"" style=""width:200px; border:14px solid green;"">","null","","","","","","","","","",""
"","image-keyboard-response","354","189135","0.0-444.0","3TS1AR6UQR0GT6WLMW8C7EM2HEIF74","A2JI8LMB1EEQ4Z","335VBRURDJMQFRMOFGHOE9WKSHX9E1","","334.69999980926514","img/food6.png","76","335.8999996185303","3","1","","3","1","1,0.5,0,1,0.5,0,0.5,0,1","0.5,0,1,0.5,0,1,0,1,0.5","2",""
"","html-keyboard-response","355","189438","0.0-445.0","3TS1AR6UQR0GT6WLMW8C7EM2HEIF74","A2JI8LMB1EEQ4Z","335VBRURDJMQFRMOFGHOE9WKSHX9E1","","null","<img src=""img/food6.png"" style=""width:200px; border:14px solid green;"">","null","","","","","","","","","",""
"","image-keyboard-response","356","190015","0.0-446.0","3TS1AR6UQR0GT6WLMW8C7EM2HEIF74","A2JI8LMB1EEQ4Z","335VBRURDJMQFRMOFGHOE9WKSHX9E1","","574.5","img/food5.png","76","575.8000001907349","3","1","","2","1","1,0.5,0,1,0.5,0,0.5,0,1","0.5,0,1,0.5,0,1,0,1,0.5","2",""
"","html-keyboard-response","357","190318","0.0-447.0","3TS1AR6UQR0GT6WLMW8C7EM2HEIF74","A2JI8LMB1EEQ4Z","335VBRURDJMQFRMOFGHOE9WKSHX9E1","","null","<img src=""img/food5.png"" style=""width:200px; border:14px solid green;"">","null","","","","","","","","","",""
"","image-keyboard-response","358","190919","0.0-448.0","3TS1AR6UQR0GT6WLMW8C7EM2HEIF74","A2JI8LMB1EEQ4Z","335VBRURDJMQFRMOFGHOE9WKSHX9E1","","598.5","img/food6.png","76","599.7999992370605","3","1","","3","1","1,0.5,0,1,0.5,0,0.5,0,1","0.5,0,1,0.5,0,1,0,1,0.5","2",""
"","html-keyboard-response","359","191222","0.0-449.0","3TS1AR6UQR0GT6WLMW8C7EM2HEIF74","A2JI8LMB1EEQ4Z","335VBRURDJMQFRMOFGHOE9WKSHX9E1","","null","<img src=""img/food6.png"" style=""width:200px; border:14px solid green;"">","null","","","","","","","","","",""
"","image-keyboard-response","360","191551","0.0-450.0","3TS1AR6UQR0GT6WLMW8C7EM2HEIF74","A2JI8LMB1EEQ4Z","335VBRURDJMQFRMOFGHOE9WKSHX9E1","","326.6000003814697","img/food6.png","76","327.9000005722046","3","0","","3","1","1,0.5,0,1,0.5,0,0.5,0,1","0.5,0,1,0.5,0,1,0,1,0.5","2",""
"","html-keyboard-response","361","191854","0.0-451.0","3TS1AR6UQR0GT6WLMW8C7EM2HEIF74","A2JI8LMB1EEQ4Z","335VBRURDJMQFRMOFGHOE9WKSHX9E1","","null","<img src=""img/food6.png"" style=""width:200px;border:14px solid red;"">","null","","","","","","","","","",""
"","image-keyboard-response","362","192343","0.0-452.0","3TS1AR6UQR0GT6WLMW8C7EM2HEIF74","A2JI8LMB1EEQ4Z","335VBRURDJMQFRMOFGHOE9WKSHX9E1","","486.4000005722046","img/food5.png","76","487.69999980926514","3","1","","2","1","1,0.5,0,1,0.5,0,0.5,0,1","0.5,0,1,0.5,0,1,0,1,0.5","2",""
"","html-keyboard-response","363","192646","0.0-453.0","3TS1AR6UQR0GT6WLMW8C7EM2HEIF74","A2JI8LMB1EEQ4Z","335VBRURDJMQFRMOFGHOE9WKSHX9E1","","null","<img src=""img/food5.png"" style=""width:200px; border:14px solid green;"">","null","","","","","","","","","",""
"","html-keyboard-response","364","194923","0.0-454.0","3TS1AR6UQR0GT6WLMW8C7EM2HEIF74","A2JI8LMB1EEQ4Z","335VBRURDJMQFRMOFGHOE9WKSHX9E1","","","","","","","","","","","","","",""
"","instructions","365","196567","0.0-455.0","3TS1AR6UQR0GT6WLMW8C7EM2HEIF74","A2JI8LMB1EEQ4Z","335VBRURDJMQFRMOFGHOE9WKSHX9E1","[{""page_index"":0,""viewing_time"":1642.2999992370605}]","1642.6999998092651","","","","","","","","","","","",""
"","survey-text","366","199323","0.0-456.0","3TS1AR6UQR0GT6WLMW8C7EM2HEIF74","A2JI8LMB1EEQ4Z","335VBRURDJMQFRMOFGHOE9WKSHX9E1","","2750.4000005722046","","","","","","","","","","","","{""Q0"":""A2JI8LMB1EEQ4Z""}"
