"success","trial_type","trial_index","time_elapsed","internal_node_id","assignmentID","mturkID","hitID","view_history","rt","stimulus","key_press","reactionTime","a","r","s","cond","reward_cond","reward_cond_actual","reward_matrix_idx","warning","responses"
"true","fullscreen","0","5615","0.0-0.0","3BXQMRHWK0KOXR0YLR50CWKVMNCMUZ","A2JZTR2ZSALGH4","3ECKRY5B1QIH1N6NFX1ECCW5ZDKIZQ","","","","","","","","","","","","","",""
"","instructions","1","40091","0.0-1.0","3BXQMRHWK0KOXR0YLR50CWKVMNCMUZ","A2JZTR2ZSALGH4","3ECKRY5B1QIH1N6NFX1ECCW5ZDKIZQ","[{""page_index"":0,""viewing_time"":4658.799999998882},{""page_index"":1,""viewing_time"":2329.4000000003725},{""page_index"":2,""viewing_time"":3207.4000000003725},{""page_index"":3,""viewing_time"":11524.400000000373},{""page_index"":4,""viewing_time"":5570.699999999255},{""page_index"":5,""viewing_time"":3217.4000000003725},{""page_index"":6,""viewing_time"":3954.0999999996275}]","34467.29999999888","","","","","","","","","","","",""
"","image-keyboard-response","2","41789","0.0-2.0","3BXQMRHWK0KOXR0YLR50CWKVMNCMUZ","A2JZTR2ZSALGH4","3ECKRY5B1QIH1N6NFX1ECCW5ZDKIZQ","","1690.0999999996275","img/food2.png","74","1696.5","1","0","2","1","1,0.5,0,1,0.5,0,0.5,0,1","0,1,0.5,0,1,0.5,1,0.5,0","3","",""
"","html-keyboard-response","3","42096","0.0-3.0","3BXQMRHWK0KOXR0YLR50CWKVMNCMUZ","A2JZTR2ZSALGH4","3ECKRY5B1QIH1N6NFX1ECCW5ZDKIZQ","","null","<img src=""img/food2.png"" style=""width:200px;border:14px solid red;"">","null","","","","","","","","","",""
"","image-keyboard-response","4","43586","0.0-4.0","3BXQMRHWK0KOXR0YLR50CWKVMNCMUZ","A2JZTR2ZSALGH4","3ECKRY5B1QIH1N6NFX1ECCW5ZDKIZQ","","1483.5","img/food1.png","74","1488.699999999255","1","1","3","1","1,0.5,0,1,0.5,0,0.5,0,1","0,1,0.5,0,1,0.5,1,0.5,0","3","",""
"","html-keyboard-response","5","43898","0.0-5.0","3BXQMRHWK0KOXR0YLR50CWKVMNCMUZ","A2JZTR2ZSALGH4","3ECKRY5B1QIH1N6NFX1ECCW5ZDKIZQ","","null","<img src=""img/food1.png"" style=""width:200px; border:14px solid green;"">","null","","","","","","","","","",""
"","image-keyboard-response","6","45652","0.0-6.0","3BXQMRHWK0KOXR0YLR50CWKVMNCMUZ","A2JZTR2ZSALGH4","3ECKRY5B1QIH1N6NFX1ECCW5ZDKIZQ","","1747","img/food2.png","74","1749.8999999985099","1","0","2","1","1,0.5,0,1,0.5,0,0.5,0,1","0,1,0.5,0,1,0.5,1,0.5,0","3","",""
"","html-keyboard-response","7","45957","0.0-7.0","3BXQMRHWK0KOXR0YLR50CWKVMNCMUZ","A2JZTR2ZSALGH4","3ECKRY5B1QIH1N6NFX1ECCW5ZDKIZQ","","null","<img src=""img/food2.png"" style=""width:200px;border:14px solid red;"">","null","","","","","","","","","",""
"","image-keyboard-response","8","47121","0.0-8.0","3BXQMRHWK0KOXR0YLR50CWKVMNCMUZ","A2JZTR2ZSALGH4","3ECKRY5B1QIH1N6NFX1ECCW5ZDKIZQ","","1159.4000000003725","img/food2.png","75","1162.300000000745","2","1","2","1","1,0.5,0,1,0.5,0,0.5,0,1","0,1,0.5,0,1,0.5,1,0.5,0","3","",""
"","html-keyboard-response","9","47427","0.0-9.0","3BXQMRHWK0KOXR0YLR50CWKVMNCMUZ","A2JZTR2ZSALGH4","3ECKRY5B1QIH1N6NFX1ECCW5ZDKIZQ","","null","<img src=""img/food2.png"" style=""width:200px; border:14px solid green;"">","null","","","","","","","","","",""
"","image-keyboard-response","10","48723","0.0-10.0","3BXQMRHWK0KOXR0YLR50CWKVMNCMUZ","A2JZTR2ZSALGH4","3ECKRY5B1QIH1N6NFX1ECCW5ZDKIZQ","","1285.699999999255","img/food3.png","76","1292.800000000745","3","0","1","1","1,0.5,0,1,0.5,0,0.5,0,1","0,1,0.5,0,1,0.5,1,0.5,0","3","",""
"","html-keyboard-response","11","49030","0.0-11.0","3BXQMRHWK0KOXR0YLR50CWKVMNCMUZ","A2JZTR2ZSALGH4","3ECKRY5B1QIH1N6NFX1ECCW5ZDKIZQ","","null","<img src=""img/food3.png"" style=""width:200px;border:14px solid red;"">","null","","","","","","","","","",""
"","image-keyboard-response","12","50556","0.0-12.0","3BXQMRHWK0KOXR0YLR50CWKVMNCMUZ","A2JZTR2ZSALGH4","3ECKRY5B1QIH1N6NFX1ECCW5ZDKIZQ","","1518.4000000003725","img/food1.png","74","1525.9000000003725","1","1","3","1","1,0.5,0,1,0.5,0,0.5,0,1","0,1,0.5,0,1,0.5,1,0.5,0","3","",""
"","html-keyboard-response","13","50862","0.0-13.0","3BXQMRHWK0KOXR0YLR50CWKVMNCMUZ","A2JZTR2ZSALGH4","3ECKRY5B1QIH1N6NFX1ECCW5ZDKIZQ","","null","<img src=""img/food1.png"" style=""width:200px; border:14px solid green;"">","null","","","","","","","","","",""
"","image-keyboard-response","14","52172","0.0-14.0","3BXQMRHWK0KOXR0YLR50CWKVMNCMUZ","A2JZTR2ZSALGH4","3ECKRY5B1QIH1N6NFX1ECCW5ZDKIZQ","","1303","img/food3.png","75","1309.4000000003725","2","1","1","1","1,0.5,0,1,0.5,0,0.5,0,1","0,1,0.5,0,1,0.5,1,0.5,0","3","",""
"","html-keyboard-response","15","52481","0.0-15.0","3BXQMRHWK0KOXR0YLR50CWKVMNCMUZ","A2JZTR2ZSALGH4","3ECKRY5B1QIH1N6NFX1ECCW5ZDKIZQ","","null","<img src=""img/food3.png"" style=""width:200px; border:14px solid green;"">","null","","","","","","","","","",""
"","image-keyboard-response","16","53470","0.0-16.0","3BXQMRHWK0KOXR0YLR50CWKVMNCMUZ","A2JZTR2ZSALGH4","3ECKRY5B1QIH1N6NFX1ECCW5ZDKIZQ","","977.5","img/food2.png","75","986.5","2","1","2","1","1,0.5,0,1,0.5,0,0.5,0,1","0,1,0.5,0,1,0.5,1,0.5,0","3","",""
"","html-keyboard-response","17","53776","0.0-17.0","3BXQMRHWK0KOXR0YLR50CWKVMNCMUZ","A2JZTR2ZSALGH4","3ECKRY5B1QIH1N6NFX1ECCW5ZDKIZQ","","null","<img src=""img/food2.png"" style=""width:200px; border:14px solid green;"">","null","","","","","","","","","",""
"","image-keyboard-response","18","55406","0.0-18.0","3BXQMRHWK0KOXR0YLR50CWKVMNCMUZ","A2JZTR2ZSALGH4","3ECKRY5B1QIH1N6NFX1ECCW5ZDKIZQ","","1625.2999999988824","img/food3.png","74","1628.8999999985099","1","0","1","1","1,0.5,0,1,0.5,0,0.5,0,1","0,1,0.5,0,1,0.5,1,0.5,0","3","",""
"","html-keyboard-response","19","55714","0.0-19.0","3BXQMRHWK0KOXR0YLR50CWKVMNCMUZ","A2JZTR2ZSALGH4","3ECKRY5B1QIH1N6NFX1ECCW5ZDKIZQ","","null","<img src=""img/food3.png"" style=""width:200px;border:14px solid red;"">","null","","","","","","","","","",""
"","image-keyboard-response","20","56648","0.0-20.0","3BXQMRHWK0KOXR0YLR50CWKVMNCMUZ","A2JZTR2ZSALGH4","3ECKRY5B1QIH1N6NFX1ECCW5ZDKIZQ","","924.3999999985099","img/food3.png","75","931.8000000007451","2","1","1","1","1,0.5,0,1,0.5,0,0.5,0,1","0,1,0.5,0,1,0.5,1,0.5,0","3","",""
"","html-keyboard-response","21","56954","0.0-21.0","3BXQMRHWK0KOXR0YLR50CWKVMNCMUZ","A2JZTR2ZSALGH4","3ECKRY5B1QIH1N6NFX1ECCW5ZDKIZQ","","null","<img src=""img/food3.png"" style=""width:200px; border:14px solid green;"">","null","","","","","","","","","",""
"","image-keyboard-response","22","58559","0.0-22.0","3BXQMRHWK0KOXR0YLR50CWKVMNCMUZ","A2JZTR2ZSALGH4","3ECKRY5B1QIH1N6NFX1ECCW5ZDKIZQ","","1598.0999999996275","img/food2.png","75","1604.0999999996275","2","1","2","1","1,0.5,0,1,0.5,0,0.5,0,1","0,1,0.5,0,1,0.5,1,0.5,0","3","",""
"","html-keyboard-response","23","58866","0.0-23.0","3BXQMRHWK0KOXR0YLR50CWKVMNCMUZ","A2JZTR2ZSALGH4","3ECKRY5B1QIH1N6NFX1ECCW5ZDKIZQ","","null","<img src=""img/food2.png"" style=""width:200px; border:14px solid green;"">","null","","","","","","","","","",""
"","image-keyboard-response","24","59549","0.0-24.0","3BXQMRHWK0KOXR0YLR50CWKVMNCMUZ","A2JZTR2ZSALGH4","3ECKRY5B1QIH1N6NFX1ECCW5ZDKIZQ","","678","img/food2.png","75","682.2000000011176","2","1","2","1","1,0.5,0,1,0.5,0,0.5,0,1","0,1,0.5,0,1,0.5,1,0.5,0","3","",""
"","html-keyboard-response","25","59856","0.0-25.0","3BXQMRHWK0KOXR0YLR50CWKVMNCMUZ","A2JZTR2ZSALGH4","3ECKRY5B1QIH1N6NFX1ECCW5ZDKIZQ","","null","<img src=""img/food2.png"" style=""width:200px; border:14px solid green;"">","null","","","","","","","","","",""
"","image-keyboard-response","26","60991","0.0-26.0","3BXQMRHWK0KOXR0YLR50CWKVMNCMUZ","A2JZTR2ZSALGH4","3ECKRY5B1QIH1N6NFX1ECCW5ZDKIZQ","","1131.1000000014901","img/food1.png","75","1133.5999999996275","2","1","3","1","1,0.5,0,1,0.5,0,0.5,0,1","0,1,0.5,0,1,0.5,1,0.5,0","3","",""
"","html-keyboard-response","27","61296","0.0-27.0","3BXQMRHWK0KOXR0YLR50CWKVMNCMUZ","A2JZTR2ZSALGH4","3ECKRY5B1QIH1N6NFX1ECCW5ZDKIZQ","","null","<img src=""img/food1.png"" style=""width:200px; border:14px solid green;"">","null","","","","","","","","","",""
"","image-keyboard-response","28","61927","0.0-28.0","3BXQMRHWK0KOXR0YLR50CWKVMNCMUZ","A2JZTR2ZSALGH4","3ECKRY5B1QIH1N6NFX1ECCW5ZDKIZQ","","626.5999999996275","img/food1.png","75","630.4000000003725","2","0","3","1","1,0.5,0,1,0.5,0,0.5,0,1","0,1,0.5,0,1,0.5,1,0.5,0","3","",""
"","html-keyboard-response","29","62234","0.0-29.0","3BXQMRHWK0KOXR0YLR50CWKVMNCMUZ","A2JZTR2ZSALGH4","3ECKRY5B1QIH1N6NFX1ECCW5ZDKIZQ","","null","<img src=""img/food1.png"" style=""width:200px;border:14px solid red;"">","null","","","","","","","","","",""
"","image-keyboard-response","30","63010","0.0-30.0","3BXQMRHWK0KOXR0YLR50CWKVMNCMUZ","A2JZTR2ZSALGH4","3ECKRY5B1QIH1N6NFX1ECCW5ZDKIZQ","","769.4000000003725","img/food1.png","75","775.2999999988824","2","1","3","1","1,0.5,0,1,0.5,0,0.5,0,1","0,1,0.5,0,1,0.5,1,0.5,0","3","",""
"","html-keyboard-response","31","63318","0.0-31.0","3BXQMRHWK0KOXR0YLR50CWKVMNCMUZ","A2JZTR2ZSALGH4","3ECKRY5B1QIH1N6NFX1ECCW5ZDKIZQ","","null","<img src=""img/food1.png"" style=""width:200px; border:14px solid green;"">","null","","","","","","","","","",""
"","image-keyboard-response","32","64247","0.0-32.0","3BXQMRHWK0KOXR0YLR50CWKVMNCMUZ","A2JZTR2ZSALGH4","3ECKRY5B1QIH1N6NFX1ECCW5ZDKIZQ","","919.7999999988824","img/food3.png","74","927.3999999985099","1","0","1","1","1,0.5,0,1,0.5,0,0.5,0,1","0,1,0.5,0,1,0.5,1,0.5,0","3","",""
"","html-keyboard-response","33","64553","0.0-33.0","3BXQMRHWK0KOXR0YLR50CWKVMNCMUZ","A2JZTR2ZSALGH4","3ECKRY5B1QIH1N6NFX1ECCW5ZDKIZQ","","null","<img src=""img/food3.png"" style=""width:200px;border:14px solid red;"">","null","","","","","","","","","",""
"","image-keyboard-response","34","65205","0.0-34.0","3BXQMRHWK0KOXR0YLR50CWKVMNCMUZ","A2JZTR2ZSALGH4","3ECKRY5B1QIH1N6NFX1ECCW5ZDKIZQ","","644.3000000007451","img/food3.png","75","650.1999999992549","2","1","1","1","1,0.5,0,1,0.5,0,0.5,0,1","0,1,0.5,0,1,0.5,1,0.5,0","3","",""
"","html-keyboard-response","35","65511","0.0-35.0","3BXQMRHWK0KOXR0YLR50CWKVMNCMUZ","A2JZTR2ZSALGH4","3ECKRY5B1QIH1N6NFX1ECCW5ZDKIZQ","","null","<img src=""img/food3.png"" style=""width:200px; border:14px solid green;"">","null","","","","","","","","","",""
"","image-keyboard-response","36","66419","0.0-36.0","3BXQMRHWK0KOXR0YLR50CWKVMNCMUZ","A2JZTR2ZSALGH4","3ECKRY5B1QIH1N6NFX1ECCW5ZDKIZQ","","901.4000000003725","img/food3.png","75","906.5999999996275","2","1","1","1","1,0.5,0,1,0.5,0,0.5,0,1","0,1,0.5,0,1,0.5,1,0.5,0","3","",""
"","html-keyboard-response","37","66724","0.0-37.0","3BXQMRHWK0KOXR0YLR50CWKVMNCMUZ","A2JZTR2ZSALGH4","3ECKRY5B1QIH1N6NFX1ECCW5ZDKIZQ","","null","<img src=""img/food3.png"" style=""width:200px; border:14px solid green;"">","null","","","","","","","","","",""
"","image-keyboard-response","38","67480","0.0-38.0","3BXQMRHWK0KOXR0YLR50CWKVMNCMUZ","A2JZTR2ZSALGH4","3ECKRY5B1QIH1N6NFX1ECCW5ZDKIZQ","","748.4000000003725","img/food3.png","75","753.5999999996275","2","1","1","1","1,0.5,0,1,0.5,0,0.5,0,1","0,1,0.5,0,1,0.5,1,0.5,0","3","",""
"","html-keyboard-response","39","67790","0.0-39.0","3BXQMRHWK0KOXR0YLR50CWKVMNCMUZ","A2JZTR2ZSALGH4","3ECKRY5B1QIH1N6NFX1ECCW5ZDKIZQ","","null","<img src=""img/food3.png"" style=""width:200px; border:14px solid green;"">","null","","","","","","","","","",""
"","image-keyboard-response","40","69827","0.0-40.0","3BXQMRHWK0KOXR0YLR50CWKVMNCMUZ","A2JZTR2ZSALGH4","3ECKRY5B1QIH1N6NFX1ECCW5ZDKIZQ","","2030.7999999988824","img/food1.png","74","2035.5","1","1","3","1","1,0.5,0,1,0.5,0,0.5,0,1","0,1,0.5,0,1,0.5,1,0.5,0","3","",""
"","html-keyboard-response","41","70133","0.0-41.0","3BXQMRHWK0KOXR0YLR50CWKVMNCMUZ","A2JZTR2ZSALGH4","3ECKRY5B1QIH1N6NFX1ECCW5ZDKIZQ","","null","<img src=""img/food1.png"" style=""width:200px; border:14px solid green;"">","null","","","","","","","","","",""
"","image-keyboard-response","42","71153","0.0-42.0","3BXQMRHWK0KOXR0YLR50CWKVMNCMUZ","A2JZTR2ZSALGH4","3ECKRY5B1QIH1N6NFX1ECCW5ZDKIZQ","","1013.2000000011176","img/food2.png","75","1019.9000000003725","2","1","2","1","1,0.5,0,1,0.5,0,0.5,0,1","0,1,0.5,0,1,0.5,1,0.5,0","3","",""
"","html-keyboard-response","43","71459","0.0-43.0","3BXQMRHWK0KOXR0YLR50CWKVMNCMUZ","A2JZTR2ZSALGH4","3ECKRY5B1QIH1N6NFX1ECCW5ZDKIZQ","","null","<img src=""img/food2.png"" style=""width:200px; border:14px solid green;"">","null","","","","","","","","","",""
"","image-keyboard-response","44","72767","0.0-44.0","3BXQMRHWK0KOXR0YLR50CWKVMNCMUZ","A2JZTR2ZSALGH4","3ECKRY5B1QIH1N6NFX1ECCW5ZDKIZQ","","1300.5","img/food1.png","74","1305.7999999988824","1","1","3","1","1,0.5,0,1,0.5,0,0.5,0,1","0,1,0.5,0,1,0.5,1,0.5,0","3","",""
"","html-keyboard-response","45","73071","0.0-45.0","3BXQMRHWK0KOXR0YLR50CWKVMNCMUZ","A2JZTR2ZSALGH4","3ECKRY5B1QIH1N6NFX1ECCW5ZDKIZQ","","null","<img src=""img/food1.png"" style=""width:200px; border:14px solid green;"">","null","","","","","","","","","",""
"","image-keyboard-response","46","75255","0.0-46.0","3BXQMRHWK0KOXR0YLR50CWKVMNCMUZ","A2JZTR2ZSALGH4","3ECKRY5B1QIH1N6NFX1ECCW5ZDKIZQ","","2177.2000000011176","img/food2.png","75","2182.10000000149","2","1","2","1","1,0.5,0,1,0.5,0,0.5,0,1","0,1,0.5,0,1,0.5,1,0.5,0","3","",""
"","html-keyboard-response","47","75561","0.0-47.0","3BXQMRHWK0KOXR0YLR50CWKVMNCMUZ","A2JZTR2ZSALGH4","3ECKRY5B1QIH1N6NFX1ECCW5ZDKIZQ","","null","<img src=""img/food2.png"" style=""width:200px; border:14px solid green;"">","null","","","","","","","","","",""
"","image-keyboard-response","48","76815","0.0-48.0","3BXQMRHWK0KOXR0YLR50CWKVMNCMUZ","A2JZTR2ZSALGH4","3ECKRY5B1QIH1N6NFX1ECCW5ZDKIZQ","","1247.9000000003725","img/food3.png","75","1253.7000000011176","2","1","1","1","1,0.5,0,1,0.5,0,0.5,0,1","0,1,0.5,0,1,0.5,1,0.5,0","3","",""
"","html-keyboard-response","49","77124","0.0-49.0","3BXQMRHWK0KOXR0YLR50CWKVMNCMUZ","A2JZTR2ZSALGH4","3ECKRY5B1QIH1N6NFX1ECCW5ZDKIZQ","","null","<img src=""img/food3.png"" style=""width:200px; border:14px solid green;"">","null","","","","","","","","","",""
"","image-keyboard-response","50","77900","0.0-50.0","3BXQMRHWK0KOXR0YLR50CWKVMNCMUZ","A2JZTR2ZSALGH4","3ECKRY5B1QIH1N6NFX1ECCW5ZDKIZQ","","769.7000000011176","img/food3.png","75","775","2","1","1","1","1,0.5,0,1,0.5,0,0.5,0,1","0,1,0.5,0,1,0.5,1,0.5,0","3","",""
"","html-keyboard-response","51","78206","0.0-51.0","3BXQMRHWK0KOXR0YLR50CWKVMNCMUZ","A2JZTR2ZSALGH4","3ECKRY5B1QIH1N6NFX1ECCW5ZDKIZQ","","null","<img src=""img/food3.png"" style=""width:200px; border:14px solid green;"">","null","","","","","","","","","",""
"","image-keyboard-response","52","78982","0.0-52.0","3BXQMRHWK0KOXR0YLR50CWKVMNCMUZ","A2JZTR2ZSALGH4","3ECKRY5B1QIH1N6NFX1ECCW5ZDKIZQ","","770.3000000007451","img/food3.png","75","774.9000000003725","2","1","1","1","1,0.5,0,1,0.5,0,0.5,0,1","0,1,0.5,0,1,0.5,1,0.5,0","3","",""
"","html-keyboard-response","53","79290","0.0-53.0","3BXQMRHWK0KOXR0YLR50CWKVMNCMUZ","A2JZTR2ZSALGH4","3ECKRY5B1QIH1N6NFX1ECCW5ZDKIZQ","","null","<img src=""img/food3.png"" style=""width:200px; border:14px solid green;"">","null","","","","","","","","","",""
"","image-keyboard-response","54","80747","0.0-54.0","3BXQMRHWK0KOXR0YLR50CWKVMNCMUZ","A2JZTR2ZSALGH4","3ECKRY5B1QIH1N6NFX1ECCW5ZDKIZQ","","1449.2999999988824","img/food1.png","74","1457","1","1","3","1","1,0.5,0,1,0.5,0,0.5,0,1","0,1,0.5,0,1,0.5,1,0.5,0","3","",""
"","html-keyboard-response","55","81055","0.0-55.0","3BXQMRHWK0KOXR0YLR50CWKVMNCMUZ","A2JZTR2ZSALGH4","3ECKRY5B1QIH1N6NFX1ECCW5ZDKIZQ","","null","<img src=""img/food1.png"" style=""width:200px; border:14px solid green;"">","null","","","","","","","","","",""
"","image-keyboard-response","56","81906","0.0-56.0","3BXQMRHWK0KOXR0YLR50CWKVMNCMUZ","A2JZTR2ZSALGH4","3ECKRY5B1QIH1N6NFX1ECCW5ZDKIZQ","","843.6999999992549","img/food2.png","75","848.8999999985099","2","1","2","1","1,0.5,0,1,0.5,0,0.5,0,1","0,1,0.5,0,1,0.5,1,0.5,0","3","",""
"","html-keyboard-response","57","82212","0.0-57.0","3BXQMRHWK0KOXR0YLR50CWKVMNCMUZ","A2JZTR2ZSALGH4","3ECKRY5B1QIH1N6NFX1ECCW5ZDKIZQ","","null","<img src=""img/food2.png"" style=""width:200px; border:14px solid green;"">","null","","","","","","","","","",""
"","image-keyboard-response","58","83388","0.0-58.0","3BXQMRHWK0KOXR0YLR50CWKVMNCMUZ","A2JZTR2ZSALGH4","3ECKRY5B1QIH1N6NFX1ECCW5ZDKIZQ","","1166","img/food3.png","75","1174","2","1","1","1","1,0.5,0,1,0.5,0,0.5,0,1","0,1,0.5,0,1,0.5,1,0.5,0","3","",""
"","html-keyboard-response","59","83696","0.0-59.0","3BXQMRHWK0KOXR0YLR50CWKVMNCMUZ","A2JZTR2ZSALGH4","3ECKRY5B1QIH1N6NFX1ECCW5ZDKIZQ","","null","<img src=""img/food3.png"" style=""width:200px; border:14px solid green;"">","null","","","","","","","","","",""
"","image-keyboard-response","60","84451","0.0-60.0","3BXQMRHWK0KOXR0YLR50CWKVMNCMUZ","A2JZTR2ZSALGH4","3ECKRY5B1QIH1N6NFX1ECCW5ZDKIZQ","","748.4000000003725","img/food3.png","75","752.5","2","1","1","1","1,0.5,0,1,0.5,0,0.5,0,1","0,1,0.5,0,1,0.5,1,0.5,0","3","",""
"","html-keyboard-response","61","84758","0.0-61.0","3BXQMRHWK0KOXR0YLR50CWKVMNCMUZ","A2JZTR2ZSALGH4","3ECKRY5B1QIH1N6NFX1ECCW5ZDKIZQ","","null","<img src=""img/food3.png"" style=""width:200px; border:14px solid green;"">","null","","","","","","","","","",""
"","image-keyboard-response","62","85963","0.0-62.0","3BXQMRHWK0KOXR0YLR50CWKVMNCMUZ","A2JZTR2ZSALGH4","3ECKRY5B1QIH1N6NFX1ECCW5ZDKIZQ","","1200.5999999996275","img/food2.png","75","1204","2","1","2","1","1,0.5,0,1,0.5,0,0.5,0,1","0,1,0.5,0,1,0.5,1,0.5,0","3","",""
"","html-keyboard-response","63","86270","0.0-63.0","3BXQMRHWK0KOXR0YLR50CWKVMNCMUZ","A2JZTR2ZSALGH4","3ECKRY5B1QIH1N6NFX1ECCW5ZDKIZQ","","null","<img src=""img/food2.png"" style=""width:200px; border:14px solid green;"">","null","","","","","","","","","",""
"","image-keyboard-response","64","87753","0.0-64.0","3BXQMRHWK0KOXR0YLR50CWKVMNCMUZ","A2JZTR2ZSALGH4","3ECKRY5B1QIH1N6NFX1ECCW5ZDKIZQ","","1478.0999999996275","img/food1.png","75","1482.300000000745","2","1","3","1","1,0.5,0,1,0.5,0,0.5,0,1","0,1,0.5,0,1,0.5,1,0.5,0","3","",""
"","html-keyboard-response","65","88059","0.0-65.0","3BXQMRHWK0KOXR0YLR50CWKVMNCMUZ","A2JZTR2ZSALGH4","3ECKRY5B1QIH1N6NFX1ECCW5ZDKIZQ","","null","<img src=""img/food1.png"" style=""width:200px; border:14px solid green;"">","null","","","","","","","","","",""
"","image-keyboard-response","66","89023","0.0-66.0","3BXQMRHWK0KOXR0YLR50CWKVMNCMUZ","A2JZTR2ZSALGH4","3ECKRY5B1QIH1N6NFX1ECCW5ZDKIZQ","","951.8999999985099","img/food2.png","74","961.5","1","0","2","1","1,0.5,0,1,0.5,0,0.5,0,1","0,1,0.5,0,1,0.5,1,0.5,0","3","",""
"","html-keyboard-response","67","89328","0.0-67.0","3BXQMRHWK0KOXR0YLR50CWKVMNCMUZ","A2JZTR2ZSALGH4","3ECKRY5B1QIH1N6NFX1ECCW5ZDKIZQ","","null","<img src=""img/food2.png"" style=""width:200px;border:14px solid red;"">","null","","","","","","","","","",""
"","image-keyboard-response","68","90022","0.0-68.0","3BXQMRHWK0KOXR0YLR50CWKVMNCMUZ","A2JZTR2ZSALGH4","3ECKRY5B1QIH1N6NFX1ECCW5ZDKIZQ","","686.2000000011176","img/food2.png","75","699.2999999988824","2","1","2","1","1,0.5,0,1,0.5,0,0.5,0,1","0,1,0.5,0,1,0.5,1,0.5,0","3","",""
"","html-keyboard-response","69","90337","0.0-69.0","3BXQMRHWK0KOXR0YLR50CWKVMNCMUZ","A2JZTR2ZSALGH4","3ECKRY5B1QIH1N6NFX1ECCW5ZDKIZQ","","null","<img src=""img/food2.png"" style=""width:200px; border:14px solid green;"">","null","","","","","","","","","",""
"","image-keyboard-response","70","91394","0.0-70.0","3BXQMRHWK0KOXR0YLR50CWKVMNCMUZ","A2JZTR2ZSALGH4","3ECKRY5B1QIH1N6NFX1ECCW5ZDKIZQ","","1052","img/food1.png","75","1056.9000000003725","2","1","3","1","1,0.5,0,1,0.5,0,0.5,0,1","0,1,0.5,0,1,0.5,1,0.5,0","3","",""
"","html-keyboard-response","71","91702","0.0-71.0","3BXQMRHWK0KOXR0YLR50CWKVMNCMUZ","A2JZTR2ZSALGH4","3ECKRY5B1QIH1N6NFX1ECCW5ZDKIZQ","","null","<img src=""img/food1.png"" style=""width:200px; border:14px solid green;"">","null","","","","","","","","","",""
"","image-keyboard-response","72","92709","0.0-72.0","3BXQMRHWK0KOXR0YLR50CWKVMNCMUZ","A2JZTR2ZSALGH4","3ECKRY5B1QIH1N6NFX1ECCW5ZDKIZQ","","999.1000000014901","img/food3.png","75","1005.6999999992549","2","1","1","1","1,0.5,0,1,0.5,0,0.5,0,1","0,1,0.5,0,1,0.5,1,0.5,0","3","",""
"","html-keyboard-response","73","93018","0.0-73.0","3BXQMRHWK0KOXR0YLR50CWKVMNCMUZ","A2JZTR2ZSALGH4","3ECKRY5B1QIH1N6NFX1ECCW5ZDKIZQ","","null","<img src=""img/food3.png"" style=""width:200px; border:14px solid green;"">","null","","","","","","","","","",""
"","image-keyboard-response","74","93892","0.0-74.0","3BXQMRHWK0KOXR0YLR50CWKVMNCMUZ","A2JZTR2ZSALGH4","3ECKRY5B1QIH1N6NFX1ECCW5ZDKIZQ","","866.9000000003725","img/food1.png","75","872.5999999996275","2","1","3","1","1,0.5,0,1,0.5,0,0.5,0,1","0,1,0.5,0,1,0.5,1,0.5,0","3","",""
"","html-keyboard-response","75","94199","0.0-75.0","3BXQMRHWK0KOXR0YLR50CWKVMNCMUZ","A2JZTR2ZSALGH4","3ECKRY5B1QIH1N6NFX1ECCW5ZDKIZQ","","null","<img src=""img/food1.png"" style=""width:200px; border:14px solid green;"">","null","","","","","","","","","",""
"","image-keyboard-response","76","95017","0.0-76.0","3BXQMRHWK0KOXR0YLR50CWKVMNCMUZ","A2JZTR2ZSALGH4","3ECKRY5B1QIH1N6NFX1ECCW5ZDKIZQ","","810.3000000007451","img/food1.png","75","816.5","2","0","3","1","1,0.5,0,1,0.5,0,0.5,0,1","0,1,0.5,0,1,0.5,1,0.5,0","3","",""
"","html-keyboard-response","77","95323","0.0-77.0","3BXQMRHWK0KOXR0YLR50CWKVMNCMUZ","A2JZTR2ZSALGH4","3ECKRY5B1QIH1N6NFX1ECCW5ZDKIZQ","","null","<img src=""img/food1.png"" style=""width:200px;border:14px solid red;"">","null","","","","","","","","","",""
"","image-keyboard-response","78","96157","0.0-78.0","3BXQMRHWK0KOXR0YLR50CWKVMNCMUZ","A2JZTR2ZSALGH4","3ECKRY5B1QIH1N6NFX1ECCW5ZDKIZQ","","826.7999999988824","img/food1.png","75","832.6999999992549","2","0","3","1","1,0.5,0,1,0.5,0,0.5,0,1","0,1,0.5,0,1,0.5,1,0.5,0","3","",""
"","html-keyboard-response","79","96462","0.0-79.0","3BXQMRHWK0KOXR0YLR50CWKVMNCMUZ","A2JZTR2ZSALGH4","3ECKRY5B1QIH1N6NFX1ECCW5ZDKIZQ","","null","<img src=""img/food1.png"" style=""width:200px;border:14px solid red;"">","null","","","","","","","","","",""
"","image-keyboard-response","80","97229","0.0-80.0","3BXQMRHWK0KOXR0YLR50CWKVMNCMUZ","A2JZTR2ZSALGH4","3ECKRY5B1QIH1N6NFX1ECCW5ZDKIZQ","","761.3000000007451","img/food1.png","75","766.1999999992549","2","1","3","1","1,0.5,0,1,0.5,0,0.5,0,1","0,1,0.5,0,1,0.5,1,0.5,0","3","",""
"","html-keyboard-response","81","97537","0.0-81.0","3BXQMRHWK0KOXR0YLR50CWKVMNCMUZ","A2JZTR2ZSALGH4","3ECKRY5B1QIH1N6NFX1ECCW5ZDKIZQ","","null","<img src=""img/food1.png"" style=""width:200px; border:14px solid green;"">","null","","","","","","","","","",""
"","image-keyboard-response","82","98525","0.0-82.0","3BXQMRHWK0KOXR0YLR50CWKVMNCMUZ","A2JZTR2ZSALGH4","3ECKRY5B1QIH1N6NFX1ECCW5ZDKIZQ","","980.2000000011176","img/food3.png","75","986.5","2","1","1","1","1,0.5,0,1,0.5,0,0.5,0,1","0,1,0.5,0,1,0.5,1,0.5,0","3","",""
"","html-keyboard-response","83","98829","0.0-83.0","3BXQMRHWK0KOXR0YLR50CWKVMNCMUZ","A2JZTR2ZSALGH4","3ECKRY5B1QIH1N6NFX1ECCW5ZDKIZQ","","null","<img src=""img/food3.png"" style=""width:200px; border:14px solid green;"">","null","","","","","","","","","",""
"","image-keyboard-response","84","100008","0.0-84.0","3BXQMRHWK0KOXR0YLR50CWKVMNCMUZ","A2JZTR2ZSALGH4","3ECKRY5B1QIH1N6NFX1ECCW5ZDKIZQ","","1171.6000000014901","img/food3.png","75","1176.7999999988824","2","1","1","1","1,0.5,0,1,0.5,0,0.5,0,1","0,1,0.5,0,1,0.5,1,0.5,0","3","",""
"","html-keyboard-response","85","100313","0.0-85.0","3BXQMRHWK0KOXR0YLR50CWKVMNCMUZ","A2JZTR2ZSALGH4","3ECKRY5B1QIH1N6NFX1ECCW5ZDKIZQ","","null","<img src=""img/food3.png"" style=""width:200px; border:14px solid green;"">","null","","","","","","","","","",""
"","image-keyboard-response","86","101264","0.0-86.0","3BXQMRHWK0KOXR0YLR50CWKVMNCMUZ","A2JZTR2ZSALGH4","3ECKRY5B1QIH1N6NFX1ECCW5ZDKIZQ","","942.3000000007451","img/food1.png","74","949.7999999988824","1","1","3","1","1,0.5,0,1,0.5,0,0.5,0,1","0,1,0.5,0,1,0.5,1,0.5,0","3","",""
"","html-keyboard-response","87","101570","0.0-87.0","3BXQMRHWK0KOXR0YLR50CWKVMNCMUZ","A2JZTR2ZSALGH4","3ECKRY5B1QIH1N6NFX1ECCW5ZDKIZQ","","null","<img src=""img/food1.png"" style=""width:200px; border:14px solid green;"">","null","","","","","","","","","",""
"","image-keyboard-response","88","102179","0.0-88.0","3BXQMRHWK0KOXR0YLR50CWKVMNCMUZ","A2JZTR2ZSALGH4","3ECKRY5B1QIH1N6NFX1ECCW5ZDKIZQ","","604.6000000014901","img/food1.png","74","609.0999999996275","1","1","3","1","1,0.5,0,1,0.5,0,0.5,0,1","0,1,0.5,0,1,0.5,1,0.5,0","3","",""
"","html-keyboard-response","89","102487","0.0-89.0","3BXQMRHWK0KOXR0YLR50CWKVMNCMUZ","A2JZTR2ZSALGH4","3ECKRY5B1QIH1N6NFX1ECCW5ZDKIZQ","","null","<img src=""img/food1.png"" style=""width:200px; border:14px solid green;"">","null","","","","","","","","","",""
"","image-keyboard-response","90","103120","0.0-90.0","3BXQMRHWK0KOXR0YLR50CWKVMNCMUZ","A2JZTR2ZSALGH4","3ECKRY5B1QIH1N6NFX1ECCW5ZDKIZQ","","626.0999999996275","img/food1.png","74","631.7000000011176","1","1","3","1","1,0.5,0,1,0.5,0,0.5,0,1","0,1,0.5,0,1,0.5,1,0.5,0","3","",""
"","html-keyboard-response","91","103425","0.0-91.0","3BXQMRHWK0KOXR0YLR50CWKVMNCMUZ","A2JZTR2ZSALGH4","3ECKRY5B1QIH1N6NFX1ECCW5ZDKIZQ","","null","<img src=""img/food1.png"" style=""width:200px; border:14px solid green;"">","null","","","","","","","","","",""
"","image-keyboard-response","92","104182","0.0-92.0","3BXQMRHWK0KOXR0YLR50CWKVMNCMUZ","A2JZTR2ZSALGH4","3ECKRY5B1QIH1N6NFX1ECCW5ZDKIZQ","","749.5","img/food2.png","75","755.3000000007451","2","1","2","1","1,0.5,0,1,0.5,0,0.5,0,1","0,1,0.5,0,1,0.5,1,0.5,0","3","",""
"","html-keyboard-response","93","104488","0.0-93.0","3BXQMRHWK0KOXR0YLR50CWKVMNCMUZ","A2JZTR2ZSALGH4","3ECKRY5B1QIH1N6NFX1ECCW5ZDKIZQ","","null","<img src=""img/food2.png"" style=""width:200px; border:14px solid green;"">","null","","","","","","","","","",""
"","image-keyboard-response","94","105430","0.0-94.0","3BXQMRHWK0KOXR0YLR50CWKVMNCMUZ","A2JZTR2ZSALGH4","3ECKRY5B1QIH1N6NFX1ECCW5ZDKIZQ","","936.4000000003725","img/food1.png","74","940.3000000007451","1","1","3","1","1,0.5,0,1,0.5,0,0.5,0,1","0,1,0.5,0,1,0.5,1,0.5,0","3","",""
"","html-keyboard-response","95","105736","0.0-95.0","3BXQMRHWK0KOXR0YLR50CWKVMNCMUZ","A2JZTR2ZSALGH4","3ECKRY5B1QIH1N6NFX1ECCW5ZDKIZQ","","null","<img src=""img/food1.png"" style=""width:200px; border:14px solid green;"">","null","","","","","","","","","",""
"","image-keyboard-response","96","106413","0.0-96.0","3BXQMRHWK0KOXR0YLR50CWKVMNCMUZ","A2JZTR2ZSALGH4","3ECKRY5B1QIH1N6NFX1ECCW5ZDKIZQ","","669.7000000011176","img/food2.png","75","675.9000000003725","2","1","2","1","1,0.5,0,1,0.5,0,0.5,0,1","0,1,0.5,0,1,0.5,1,0.5,0","3","",""
"","html-keyboard-response","97","106719","0.0-97.0","3BXQMRHWK0KOXR0YLR50CWKVMNCMUZ","A2JZTR2ZSALGH4","3ECKRY5B1QIH1N6NFX1ECCW5ZDKIZQ","","null","<img src=""img/food2.png"" style=""width:200px; border:14px solid green;"">","null","","","","","","","","","",""
"","image-keyboard-response","98","109369","0.0-98.0","3BXQMRHWK0KOXR0YLR50CWKVMNCMUZ","A2JZTR2ZSALGH4","3ECKRY5B1QIH1N6NFX1ECCW5ZDKIZQ","","2643.800000000745","img/food1.png","74","2648.9000000003725","1","1","3","1","1,0.5,0,1,0.5,0,0.5,0,1","0,1,0.5,0,1,0.5,1,0.5,0","3","",""
"","html-keyboard-response","99","109675","0.0-99.0","3BXQMRHWK0KOXR0YLR50CWKVMNCMUZ","A2JZTR2ZSALGH4","3ECKRY5B1QIH1N6NFX1ECCW5ZDKIZQ","","null","<img src=""img/food1.png"" style=""width:200px; border:14px solid green;"">","null","","","","","","","","","",""
"","image-keyboard-response","100","110238","0.0-100.0","3BXQMRHWK0KOXR0YLR50CWKVMNCMUZ","A2JZTR2ZSALGH4","3ECKRY5B1QIH1N6NFX1ECCW5ZDKIZQ","","554.5999999996275","img/food1.png","74","560.9000000003725","1","1","3","1","1,0.5,0,1,0.5,0,0.5,0,1","0,1,0.5,0,1,0.5,1,0.5,0","3","",""
"","html-keyboard-response","101","110544","0.0-101.0","3BXQMRHWK0KOXR0YLR50CWKVMNCMUZ","A2JZTR2ZSALGH4","3ECKRY5B1QIH1N6NFX1ECCW5ZDKIZQ","","null","<img src=""img/food1.png"" style=""width:200px; border:14px solid green;"">","null","","","","","","","","","",""
"","image-keyboard-response","102","111269","0.0-102.0","3BXQMRHWK0KOXR0YLR50CWKVMNCMUZ","A2JZTR2ZSALGH4","3ECKRY5B1QIH1N6NFX1ECCW5ZDKIZQ","","719.1999999992549","img/food1.png","74","723.5999999996275","1","1","3","1","1,0.5,0,1,0.5,0,0.5,0,1","0,1,0.5,0,1,0.5,1,0.5,0","3","",""
"","html-keyboard-response","103","111576","0.0-103.0","3BXQMRHWK0KOXR0YLR50CWKVMNCMUZ","A2JZTR2ZSALGH4","3ECKRY5B1QIH1N6NFX1ECCW5ZDKIZQ","","null","<img src=""img/food1.png"" style=""width:200px; border:14px solid green;"">","null","","","","","","","","","",""
"","image-keyboard-response","104","112382","0.0-104.0","3BXQMRHWK0KOXR0YLR50CWKVMNCMUZ","A2JZTR2ZSALGH4","3ECKRY5B1QIH1N6NFX1ECCW5ZDKIZQ","","797.2999999988824","img/food2.png","75","805.0999999996275","2","1","2","1","1,0.5,0,1,0.5,0,0.5,0,1","0,1,0.5,0,1,0.5,1,0.5,0","3","",""
"","html-keyboard-response","105","112687","0.0-105.0","3BXQMRHWK0KOXR0YLR50CWKVMNCMUZ","A2JZTR2ZSALGH4","3ECKRY5B1QIH1N6NFX1ECCW5ZDKIZQ","","null","<img src=""img/food2.png"" style=""width:200px; border:14px solid green;"">","null","","","","","","","","","",""
"","image-keyboard-response","106","113524","0.0-106.0","3BXQMRHWK0KOXR0YLR50CWKVMNCMUZ","A2JZTR2ZSALGH4","3ECKRY5B1QIH1N6NFX1ECCW5ZDKIZQ","","830.6999999992549","img/food3.png","75","834.5999999996275","2","1","1","1","1,0.5,0,1,0.5,0,0.5,0,1","0,1,0.5,0,1,0.5,1,0.5,0","3","",""
"","html-keyboard-response","107","113831","0.0-107.0","3BXQMRHWK0KOXR0YLR50CWKVMNCMUZ","A2JZTR2ZSALGH4","3ECKRY5B1QIH1N6NFX1ECCW5ZDKIZQ","","null","<img src=""img/food3.png"" style=""width:200px; border:14px solid green;"">","null","","","","","","","","","",""
"","image-keyboard-response","108","114549","0.0-108.0","3BXQMRHWK0KOXR0YLR50CWKVMNCMUZ","A2JZTR2ZSALGH4","3ECKRY5B1QIH1N6NFX1ECCW5ZDKIZQ","","711.5999999996275","img/food1.png","74","716.7000000011176","1","1","3","1","1,0.5,0,1,0.5,0,0.5,0,1","0,1,0.5,0,1,0.5,1,0.5,0","3","",""
"","html-keyboard-response","109","114855","0.0-109.0","3BXQMRHWK0KOXR0YLR50CWKVMNCMUZ","A2JZTR2ZSALGH4","3ECKRY5B1QIH1N6NFX1ECCW5ZDKIZQ","","null","<img src=""img/food1.png"" style=""width:200px; border:14px solid green;"">","null","","","","","","","","","",""
"","image-keyboard-response","110","115698","0.0-110.0","3BXQMRHWK0KOXR0YLR50CWKVMNCMUZ","A2JZTR2ZSALGH4","3ECKRY5B1QIH1N6NFX1ECCW5ZDKIZQ","","837.2000000011176","img/food2.png","75","842.2999999988824","2","1","2","1","1,0.5,0,1,0.5,0,0.5,0,1","0,1,0.5,0,1,0.5,1,0.5,0","3","",""
"","html-keyboard-response","111","116006","0.0-111.0","3BXQMRHWK0KOXR0YLR50CWKVMNCMUZ","A2JZTR2ZSALGH4","3ECKRY5B1QIH1N6NFX1ECCW5ZDKIZQ","","null","<img src=""img/food2.png"" style=""width:200px; border:14px solid green;"">","null","","","","","","","","","",""
"","image-keyboard-response","112","116876","0.0-112.0","3BXQMRHWK0KOXR0YLR50CWKVMNCMUZ","A2JZTR2ZSALGH4","3ECKRY5B1QIH1N6NFX1ECCW5ZDKIZQ","","865.0999999996275","img/food1.png","74","868.7000000011176","1","1","3","1","1,0.5,0,1,0.5,0,0.5,0,1","0,1,0.5,0,1,0.5,1,0.5,0","3","",""
"","html-keyboard-response","113","117182","0.0-113.0","3BXQMRHWK0KOXR0YLR50CWKVMNCMUZ","A2JZTR2ZSALGH4","3ECKRY5B1QIH1N6NFX1ECCW5ZDKIZQ","","null","<img src=""img/food1.png"" style=""width:200px; border:14px solid green;"">","null","","","","","","","","","",""
"","image-keyboard-response","114","118212","0.0-114.0","3BXQMRHWK0KOXR0YLR50CWKVMNCMUZ","A2JZTR2ZSALGH4","3ECKRY5B1QIH1N6NFX1ECCW5ZDKIZQ","","1023.8000000007451","img/food3.png","75","1028.6000000014901","2","1","1","1","1,0.5,0,1,0.5,0,0.5,0,1","0,1,0.5,0,1,0.5,1,0.5,0","3","",""
"","html-keyboard-response","115","118518","0.0-115.0","3BXQMRHWK0KOXR0YLR50CWKVMNCMUZ","A2JZTR2ZSALGH4","3ECKRY5B1QIH1N6NFX1ECCW5ZDKIZQ","","null","<img src=""img/food3.png"" style=""width:200px; border:14px solid green;"">","null","","","","","","","","","",""
"","image-keyboard-response","116","120569","0.0-116.0","3BXQMRHWK0KOXR0YLR50CWKVMNCMUZ","A2JZTR2ZSALGH4","3ECKRY5B1QIH1N6NFX1ECCW5ZDKIZQ","","2044.4000000003725","img/food1.png","74","2050.0999999996275","1","1","3","1","1,0.5,0,1,0.5,0,0.5,0,1","0,1,0.5,0,1,0.5,1,0.5,0","3","",""
"","html-keyboard-response","117","120876","0.0-117.0","3BXQMRHWK0KOXR0YLR50CWKVMNCMUZ","A2JZTR2ZSALGH4","3ECKRY5B1QIH1N6NFX1ECCW5ZDKIZQ","","null","<img src=""img/food1.png"" style=""width:200px; border:14px solid green;"">","null","","","","","","","","","",""
"","image-keyboard-response","118","121725","0.0-118.0","3BXQMRHWK0KOXR0YLR50CWKVMNCMUZ","A2JZTR2ZSALGH4","3ECKRY5B1QIH1N6NFX1ECCW5ZDKIZQ","","840.1999999992549","img/food3.png","75","847.5","2","1","1","1","1,0.5,0,1,0.5,0,0.5,0,1","0,1,0.5,0,1,0.5,1,0.5,0","3","",""
"","html-keyboard-response","119","122031","0.0-119.0","3BXQMRHWK0KOXR0YLR50CWKVMNCMUZ","A2JZTR2ZSALGH4","3ECKRY5B1QIH1N6NFX1ECCW5ZDKIZQ","","null","<img src=""img/food3.png"" style=""width:200px; border:14px solid green;"">","null","","","","","","","","","",""
"","image-keyboard-response","120","123107","0.0-120.0","3BXQMRHWK0KOXR0YLR50CWKVMNCMUZ","A2JZTR2ZSALGH4","3ECKRY5B1QIH1N6NFX1ECCW5ZDKIZQ","","1069.800000000745","img/food2.png","75","1076","2","1","2","1","1,0.5,0,1,0.5,0,0.5,0,1","0,1,0.5,0,1,0.5,1,0.5,0","3","",""
"","html-keyboard-response","121","123415","0.0-121.0","3BXQMRHWK0KOXR0YLR50CWKVMNCMUZ","A2JZTR2ZSALGH4","3ECKRY5B1QIH1N6NFX1ECCW5ZDKIZQ","","null","<img src=""img/food2.png"" style=""width:200px; border:14px solid green;"">","null","","","","","","","","","",""
"","image-keyboard-response","122","124046","0.0-122.0","3BXQMRHWK0KOXR0YLR50CWKVMNCMUZ","A2JZTR2ZSALGH4","3ECKRY5B1QIH1N6NFX1ECCW5ZDKIZQ","","625","img/food3.png","75","629.8999999985099","2","1","1","1","1,0.5,0,1,0.5,0,0.5,0,1","0,1,0.5,0,1,0.5,1,0.5,0","3","",""
"","html-keyboard-response","123","124359","0.0-123.0","3BXQMRHWK0KOXR0YLR50CWKVMNCMUZ","A2JZTR2ZSALGH4","3ECKRY5B1QIH1N6NFX1ECCW5ZDKIZQ","","null","<img src=""img/food3.png"" style=""width:200px; border:14px solid green;"">","null","","","","","","","","","",""
"","image-keyboard-response","124","125000","0.0-124.0","3BXQMRHWK0KOXR0YLR50CWKVMNCMUZ","A2JZTR2ZSALGH4","3ECKRY5B1QIH1N6NFX1ECCW5ZDKIZQ","","633.5999999996275","img/food3.png","75","640","2","1","1","1","1,0.5,0,1,0.5,0,0.5,0,1","0,1,0.5,0,1,0.5,1,0.5,0","3","",""
"","html-keyboard-response","125","125304","0.0-125.0","3BXQMRHWK0KOXR0YLR50CWKVMNCMUZ","A2JZTR2ZSALGH4","3ECKRY5B1QIH1N6NFX1ECCW5ZDKIZQ","","null","<img src=""img/food3.png"" style=""width:200px; border:14px solid green;"">","null","","","","","","","","","",""
"","image-keyboard-response","126","125996","0.0-126.0","3BXQMRHWK0KOXR0YLR50CWKVMNCMUZ","A2JZTR2ZSALGH4","3ECKRY5B1QIH1N6NFX1ECCW5ZDKIZQ","","682","img/food1.png","74","689.4000000003725","1","1","3","1","1,0.5,0,1,0.5,0,0.5,0,1","0,1,0.5,0,1,0.5,1,0.5,0","3","",""
"","html-keyboard-response","127","126302","0.0-127.0","3BXQMRHWK0KOXR0YLR50CWKVMNCMUZ","A2JZTR2ZSALGH4","3ECKRY5B1QIH1N6NFX1ECCW5ZDKIZQ","","null","<img src=""img/food1.png"" style=""width:200px; border:14px solid green;"">","null","","","","","","","","","",""
"","image-keyboard-response","128","127037","0.0-128.0","3BXQMRHWK0KOXR0YLR50CWKVMNCMUZ","A2JZTR2ZSALGH4","3ECKRY5B1QIH1N6NFX1ECCW5ZDKIZQ","","727.3999999985099","img/food2.png","75","733.6999999992549","2","1","2","1","1,0.5,0,1,0.5,0,0.5,0,1","0,1,0.5,0,1,0.5,1,0.5,0","3","",""
"","html-keyboard-response","129","127343","0.0-129.0","3BXQMRHWK0KOXR0YLR50CWKVMNCMUZ","A2JZTR2ZSALGH4","3ECKRY5B1QIH1N6NFX1ECCW5ZDKIZQ","","null","<img src=""img/food2.png"" style=""width:200px; border:14px solid green;"">","null","","","","","","","","","",""
"","image-keyboard-response","130","127996","0.0-130.0","3BXQMRHWK0KOXR0YLR50CWKVMNCMUZ","A2JZTR2ZSALGH4","3ECKRY5B1QIH1N6NFX1ECCW5ZDKIZQ","","645.0999999996275","img/food2.png","75","651.4000000003725","2","1","2","1","1,0.5,0,1,0.5,0,0.5,0,1","0,1,0.5,0,1,0.5,1,0.5,0","3","",""
"","html-keyboard-response","131","128304","0.0-131.0","3BXQMRHWK0KOXR0YLR50CWKVMNCMUZ","A2JZTR2ZSALGH4","3ECKRY5B1QIH1N6NFX1ECCW5ZDKIZQ","","null","<img src=""img/food2.png"" style=""width:200px; border:14px solid green;"">","null","","","","","","","","","",""
"","image-keyboard-response","132","129258","0.0-132.0","3BXQMRHWK0KOXR0YLR50CWKVMNCMUZ","A2JZTR2ZSALGH4","3ECKRY5B1QIH1N6NFX1ECCW5ZDKIZQ","","947.5","img/food3.png","75","952.2999999988824","2","1","1","1","1,0.5,0,1,0.5,0,0.5,0,1","0,1,0.5,0,1,0.5,1,0.5,0","3","",""
"","html-keyboard-response","133","129563","0.0-133.0","3BXQMRHWK0KOXR0YLR50CWKVMNCMUZ","A2JZTR2ZSALGH4","3ECKRY5B1QIH1N6NFX1ECCW5ZDKIZQ","","null","<img src=""img/food3.png"" style=""width:200px; border:14px solid green;"">","null","","","","","","","","","",""
"","image-keyboard-response","134","130002","0.0-134.0","3BXQMRHWK0KOXR0YLR50CWKVMNCMUZ","A2JZTR2ZSALGH4","3ECKRY5B1QIH1N6NFX1ECCW5ZDKIZQ","","431.2000000011176","img/food3.png","75","438.09999999962747","2","1","1","1","1,0.5,0,1,0.5,0,0.5,0,1","0,1,0.5,0,1,0.5,1,0.5,0","3","",""
"","html-keyboard-response","135","130309","0.0-135.0","3BXQMRHWK0KOXR0YLR50CWKVMNCMUZ","A2JZTR2ZSALGH4","3ECKRY5B1QIH1N6NFX1ECCW5ZDKIZQ","","null","<img src=""img/food3.png"" style=""width:200px; border:14px solid green;"">","null","","","","","","","","","",""
"","image-keyboard-response","136","130911","0.0-136.0","3BXQMRHWK0KOXR0YLR50CWKVMNCMUZ","A2JZTR2ZSALGH4","3ECKRY5B1QIH1N6NFX1ECCW5ZDKIZQ","","595.5","img/food1.png","74","601.2999999988824","1","1","3","1","1,0.5,0,1,0.5,0,0.5,0,1","0,1,0.5,0,1,0.5,1,0.5,0","3","",""
"","html-keyboard-response","137","131218","0.0-137.0","3BXQMRHWK0KOXR0YLR50CWKVMNCMUZ","A2JZTR2ZSALGH4","3ECKRY5B1QIH1N6NFX1ECCW5ZDKIZQ","","null","<img src=""img/food1.png"" style=""width:200px; border:14px solid green;"">","null","","","","","","","","","",""
"","image-keyboard-response","138","132207","0.0-138.0","3BXQMRHWK0KOXR0YLR50CWKVMNCMUZ","A2JZTR2ZSALGH4","3ECKRY5B1QIH1N6NFX1ECCW5ZDKIZQ","","983","img/food3.png","75","987","2","1","1","1","1,0.5,0,1,0.5,0,0.5,0,1","0,1,0.5,0,1,0.5,1,0.5,0","3","",""
"","html-keyboard-response","139","132511","0.0-139.0","3BXQMRHWK0KOXR0YLR50CWKVMNCMUZ","A2JZTR2ZSALGH4","3ECKRY5B1QIH1N6NFX1ECCW5ZDKIZQ","","null","<img src=""img/food3.png"" style=""width:200px; border:14px solid green;"">","null","","","","","","","","","",""
"","image-keyboard-response","140","133043","0.0-140.0","3BXQMRHWK0KOXR0YLR50CWKVMNCMUZ","A2JZTR2ZSALGH4","3ECKRY5B1QIH1N6NFX1ECCW5ZDKIZQ","","525.7000000011176","img/food3.png","75","530.8000000007451","2","1","1","1","1,0.5,0,1,0.5,0,0.5,0,1","0,1,0.5,0,1,0.5,1,0.5,0","3","",""
"","html-keyboard-response","141","133350","0.0-141.0","3BXQMRHWK0KOXR0YLR50CWKVMNCMUZ","A2JZTR2ZSALGH4","3ECKRY5B1QIH1N6NFX1ECCW5ZDKIZQ","","null","<img src=""img/food3.png"" style=""width:200px; border:14px solid green;"">","null","","","","","","","","","",""
"","image-keyboard-response","142","134074","0.0-142.0","3BXQMRHWK0KOXR0YLR50CWKVMNCMUZ","A2JZTR2ZSALGH4","3ECKRY5B1QIH1N6NFX1ECCW5ZDKIZQ","","718.5","img/food2.png","75","723.9000000003725","2","1","2","1","1,0.5,0,1,0.5,0,0.5,0,1","0,1,0.5,0,1,0.5,1,0.5,0","3","",""
"","html-keyboard-response","143","134382","0.0-143.0","3BXQMRHWK0KOXR0YLR50CWKVMNCMUZ","A2JZTR2ZSALGH4","3ECKRY5B1QIH1N6NFX1ECCW5ZDKIZQ","","null","<img src=""img/food2.png"" style=""width:200px; border:14px solid green;"">","null","","","","","","","","","",""
"","image-keyboard-response","144","134941","0.0-144.0","3BXQMRHWK0KOXR0YLR50CWKVMNCMUZ","A2JZTR2ZSALGH4","3ECKRY5B1QIH1N6NFX1ECCW5ZDKIZQ","","550.8000000007451","img/food3.png","75","558.3000000007451","2","1","1","1","1,0.5,0,1,0.5,0,0.5,0,1","0,1,0.5,0,1,0.5,1,0.5,0","3","",""
"","html-keyboard-response","145","135247","0.0-145.0","3BXQMRHWK0KOXR0YLR50CWKVMNCMUZ","A2JZTR2ZSALGH4","3ECKRY5B1QIH1N6NFX1ECCW5ZDKIZQ","","null","<img src=""img/food3.png"" style=""width:200px; border:14px solid green;"">","null","","","","","","","","","",""
"","image-keyboard-response","146","136126","0.0-146.0","3BXQMRHWK0KOXR0YLR50CWKVMNCMUZ","A2JZTR2ZSALGH4","3ECKRY5B1QIH1N6NFX1ECCW5ZDKIZQ","","872.5999999996275","img/food2.png","75","878.1000000014901","2","1","2","1","1,0.5,0,1,0.5,0,0.5,0,1","0,1,0.5,0,1,0.5,1,0.5,0","3","",""
"","html-keyboard-response","147","136433","0.0-147.0","3BXQMRHWK0KOXR0YLR50CWKVMNCMUZ","A2JZTR2ZSALGH4","3ECKRY5B1QIH1N6NFX1ECCW5ZDKIZQ","","null","<img src=""img/food2.png"" style=""width:200px; border:14px solid green;"">","null","","","","","","","","","",""
"","image-keyboard-response","148","137055","0.0-148.0","3BXQMRHWK0KOXR0YLR50CWKVMNCMUZ","A2JZTR2ZSALGH4","3ECKRY5B1QIH1N6NFX1ECCW5ZDKIZQ","","615.5","img/food3.png","75","620.6000000014901","2","1","1","1","1,0.5,0,1,0.5,0,0.5,0,1","0,1,0.5,0,1,0.5,1,0.5,0","3","",""
"","html-keyboard-response","149","137363","0.0-149.0","3BXQMRHWK0KOXR0YLR50CWKVMNCMUZ","A2JZTR2ZSALGH4","3ECKRY5B1QIH1N6NFX1ECCW5ZDKIZQ","","null","<img src=""img/food3.png"" style=""width:200px; border:14px solid green;"">","null","","","","","","","","","",""
"","image-keyboard-response","150","137962","0.0-150.0","3BXQMRHWK0KOXR0YLR50CWKVMNCMUZ","A2JZTR2ZSALGH4","3ECKRY5B1QIH1N6NFX1ECCW5ZDKIZQ","","593.4000000003725","img/food2.png","75","598.0999999996275","2","1","2","1","1,0.5,0,1,0.5,0,0.5,0,1","0,1,0.5,0,1,0.5,1,0.5,0","3","",""
"","html-keyboard-response","151","138267","0.0-151.0","3BXQMRHWK0KOXR0YLR50CWKVMNCMUZ","A2JZTR2ZSALGH4","3ECKRY5B1QIH1N6NFX1ECCW5ZDKIZQ","","null","<img src=""img/food2.png"" style=""width:200px; border:14px solid green;"">","null","","","","","","","","","",""
"","image-keyboard-response","152","139031","0.0-152.0","3BXQMRHWK0KOXR0YLR50CWKVMNCMUZ","A2JZTR2ZSALGH4","3ECKRY5B1QIH1N6NFX1ECCW5ZDKIZQ","","758.0999999996275","img/food1.png","74","763.1999999992549","1","1","3","1","1,0.5,0,1,0.5,0,0.5,0,1","0,1,0.5,0,1,0.5,1,0.5,0","3","",""
"","html-keyboard-response","153","139339","0.0-153.0","3BXQMRHWK0KOXR0YLR50CWKVMNCMUZ","A2JZTR2ZSALGH4","3ECKRY5B1QIH1N6NFX1ECCW5ZDKIZQ","","null","<img src=""img/food1.png"" style=""width:200px; border:14px solid green;"">","null","","","","","","","","","",""
"","image-keyboard-response","154","139962","0.0-154.0","3BXQMRHWK0KOXR0YLR50CWKVMNCMUZ","A2JZTR2ZSALGH4","3ECKRY5B1QIH1N6NFX1ECCW5ZDKIZQ","","616","img/food1.png","74","623.5","1","1","3","1","1,0.5,0,1,0.5,0,0.5,0,1","0,1,0.5,0,1,0.5,1,0.5,0","3","",""
"","html-keyboard-response","155","140269","0.0-155.0","3BXQMRHWK0KOXR0YLR50CWKVMNCMUZ","A2JZTR2ZSALGH4","3ECKRY5B1QIH1N6NFX1ECCW5ZDKIZQ","","null","<img src=""img/food1.png"" style=""width:200px; border:14px solid green;"">","null","","","","","","","","","",""
"","image-keyboard-response","156","141509","0.0-156.0","3BXQMRHWK0KOXR0YLR50CWKVMNCMUZ","A2JZTR2ZSALGH4","3ECKRY5B1QIH1N6NFX1ECCW5ZDKIZQ","","1233","img/food2.png","75","1238.4000000003725","2","1","2","1","1,0.5,0,1,0.5,0,0.5,0,1","0,1,0.5,0,1,0.5,1,0.5,0","3","",""
"","html-keyboard-response","157","141818","0.0-157.0","3BXQMRHWK0KOXR0YLR50CWKVMNCMUZ","A2JZTR2ZSALGH4","3ECKRY5B1QIH1N6NFX1ECCW5ZDKIZQ","","null","<img src=""img/food2.png"" style=""width:200px; border:14px solid green;"">","null","","","","","","","","","",""
"","image-keyboard-response","158","142525","0.0-158.0","3BXQMRHWK0KOXR0YLR50CWKVMNCMUZ","A2JZTR2ZSALGH4","3ECKRY5B1QIH1N6NFX1ECCW5ZDKIZQ","","699.5","img/food3.png","75","706","2","1","1","1","1,0.5,0,1,0.5,0,0.5,0,1","0,1,0.5,0,1,0.5,1,0.5,0","3","",""
"","html-keyboard-response","159","142833","0.0-159.0","3BXQMRHWK0KOXR0YLR50CWKVMNCMUZ","A2JZTR2ZSALGH4","3ECKRY5B1QIH1N6NFX1ECCW5ZDKIZQ","","null","<img src=""img/food3.png"" style=""width:200px; border:14px solid green;"">","null","","","","","","","","","",""
"","image-keyboard-response","160","143878","0.0-160.0","3BXQMRHWK0KOXR0YLR50CWKVMNCMUZ","A2JZTR2ZSALGH4","3ECKRY5B1QIH1N6NFX1ECCW5ZDKIZQ","","1038.9000000003725","img/food2.png","75","1043.4000000003725","2","1","2","1","1,0.5,0,1,0.5,0,0.5,0,1","0,1,0.5,0,1,0.5,1,0.5,0","3","",""
"","html-keyboard-response","161","144185","0.0-161.0","3BXQMRHWK0KOXR0YLR50CWKVMNCMUZ","A2JZTR2ZSALGH4","3ECKRY5B1QIH1N6NFX1ECCW5ZDKIZQ","","null","<img src=""img/food2.png"" style=""width:200px; border:14px solid green;"">","null","","","","","","","","","",""
"","image-keyboard-response","162","144748","0.0-162.0","3BXQMRHWK0KOXR0YLR50CWKVMNCMUZ","A2JZTR2ZSALGH4","3ECKRY5B1QIH1N6NFX1ECCW5ZDKIZQ","","556.6999999992549","img/food3.png","75","561.3999999985099","2","1","1","1","1,0.5,0,1,0.5,0,0.5,0,1","0,1,0.5,0,1,0.5,1,0.5,0","3","",""
"","html-keyboard-response","163","145057","0.0-163.0","3BXQMRHWK0KOXR0YLR50CWKVMNCMUZ","A2JZTR2ZSALGH4","3ECKRY5B1QIH1N6NFX1ECCW5ZDKIZQ","","null","<img src=""img/food3.png"" style=""width:200px; border:14px solid green;"">","null","","","","","","","","","",""
"","image-keyboard-response","164","145748","0.0-164.0","3BXQMRHWK0KOXR0YLR50CWKVMNCMUZ","A2JZTR2ZSALGH4","3ECKRY5B1QIH1N6NFX1ECCW5ZDKIZQ","","682.3000000007451","img/food3.png","75","689.2999999988824","2","1","1","1","1,0.5,0,1,0.5,0,0.5,0,1","0,1,0.5,0,1,0.5,1,0.5,0","3","",""
"","html-keyboard-response","165","146052","0.0-165.0","3BXQMRHWK0KOXR0YLR50CWKVMNCMUZ","A2JZTR2ZSALGH4","3ECKRY5B1QIH1N6NFX1ECCW5ZDKIZQ","","null","<img src=""img/food3.png"" style=""width:200px; border:14px solid green;"">","null","","","","","","","","","",""
"","image-keyboard-response","166","146714","0.0-166.0","3BXQMRHWK0KOXR0YLR50CWKVMNCMUZ","A2JZTR2ZSALGH4","3ECKRY5B1QIH1N6NFX1ECCW5ZDKIZQ","","656.6999999992549","img/food2.png","75","660.7999999988824","2","1","2","1","1,0.5,0,1,0.5,0,0.5,0,1","0,1,0.5,0,1,0.5,1,0.5,0","3","",""
"","html-keyboard-response","167","147020","0.0-167.0","3BXQMRHWK0KOXR0YLR50CWKVMNCMUZ","A2JZTR2ZSALGH4","3ECKRY5B1QIH1N6NFX1ECCW5ZDKIZQ","","null","<img src=""img/food2.png"" style=""width:200px; border:14px solid green;"">","null","","","","","","","","","",""
"","image-keyboard-response","168","147732","0.0-168.0","3BXQMRHWK0KOXR0YLR50CWKVMNCMUZ","A2JZTR2ZSALGH4","3ECKRY5B1QIH1N6NFX1ECCW5ZDKIZQ","","704.3000000007451","img/food1.png","74","710.3999999985099","1","1","3","1","1,0.5,0,1,0.5,0,0.5,0,1","0,1,0.5,0,1,0.5,1,0.5,0","3","",""
"","html-keyboard-response","169","148039","0.0-169.0","3BXQMRHWK0KOXR0YLR50CWKVMNCMUZ","A2JZTR2ZSALGH4","3ECKRY5B1QIH1N6NFX1ECCW5ZDKIZQ","","null","<img src=""img/food1.png"" style=""width:200px; border:14px solid green;"">","null","","","","","","","","","",""
"","image-keyboard-response","170","148711","0.0-170.0","3BXQMRHWK0KOXR0YLR50CWKVMNCMUZ","A2JZTR2ZSALGH4","3ECKRY5B1QIH1N6NFX1ECCW5ZDKIZQ","","664.1999999992549","img/food2.png","75","671.4000000003725","2","1","2","1","1,0.5,0,1,0.5,0,0.5,0,1","0,1,0.5,0,1,0.5,1,0.5,0","3","",""
"","html-keyboard-response","171","149017","0.0-171.0","3BXQMRHWK0KOXR0YLR50CWKVMNCMUZ","A2JZTR2ZSALGH4","3ECKRY5B1QIH1N6NFX1ECCW5ZDKIZQ","","null","<img src=""img/food2.png"" style=""width:200px; border:14px solid green;"">","null","","","","","","","","","",""
"","image-keyboard-response","172","149804","0.0-172.0","3BXQMRHWK0KOXR0YLR50CWKVMNCMUZ","A2JZTR2ZSALGH4","3ECKRY5B1QIH1N6NFX1ECCW5ZDKIZQ","","781.3000000007451","img/food2.png","75","786.5","2","1","2","1","1,0.5,0,1,0.5,0,0.5,0,1","0,1,0.5,0,1,0.5,1,0.5,0","3","",""
"","html-keyboard-response","173","150110","0.0-173.0","3BXQMRHWK0KOXR0YLR50CWKVMNCMUZ","A2JZTR2ZSALGH4","3ECKRY5B1QIH1N6NFX1ECCW5ZDKIZQ","","null","<img src=""img/food2.png"" style=""width:200px; border:14px solid green;"">","null","","","","","","","","","",""
"","image-keyboard-response","174","150728","0.0-174.0","3BXQMRHWK0KOXR0YLR50CWKVMNCMUZ","A2JZTR2ZSALGH4","3ECKRY5B1QIH1N6NFX1ECCW5ZDKIZQ","","613.8999999985099","img/food2.png","75","617","2","1","2","1","1,0.5,0,1,0.5,0,0.5,0,1","0,1,0.5,0,1,0.5,1,0.5,0","3","",""
"","html-keyboard-response","175","151032","0.0-175.0","3BXQMRHWK0KOXR0YLR50CWKVMNCMUZ","A2JZTR2ZSALGH4","3ECKRY5B1QIH1N6NFX1ECCW5ZDKIZQ","","null","<img src=""img/food2.png"" style=""width:200px; border:14px solid green;"">","null","","","","","","","","","",""
"","image-keyboard-response","176","151598","0.0-176.0","3BXQMRHWK0KOXR0YLR50CWKVMNCMUZ","A2JZTR2ZSALGH4","3ECKRY5B1QIH1N6NFX1ECCW5ZDKIZQ","","562","img/food2.png","75","565.6000000014901","2","1","2","1","1,0.5,0,1,0.5,0,0.5,0,1","0,1,0.5,0,1,0.5,1,0.5,0","3","",""
"","html-keyboard-response","177","151906","0.0-177.0","3BXQMRHWK0KOXR0YLR50CWKVMNCMUZ","A2JZTR2ZSALGH4","3ECKRY5B1QIH1N6NFX1ECCW5ZDKIZQ","","null","<img src=""img/food2.png"" style=""width:200px; border:14px solid green;"">","null","","","","","","","","","",""
"","image-keyboard-response","178","152708","0.0-178.0","3BXQMRHWK0KOXR0YLR50CWKVMNCMUZ","A2JZTR2ZSALGH4","3ECKRY5B1QIH1N6NFX1ECCW5ZDKIZQ","","792.5","img/food1.png","74","801","1","1","3","1","1,0.5,0,1,0.5,0,0.5,0,1","0,1,0.5,0,1,0.5,1,0.5,0","3","",""
"","html-keyboard-response","179","153015","0.0-179.0","3BXQMRHWK0KOXR0YLR50CWKVMNCMUZ","A2JZTR2ZSALGH4","3ECKRY5B1QIH1N6NFX1ECCW5ZDKIZQ","","null","<img src=""img/food1.png"" style=""width:200px; border:14px solid green;"">","null","","","","","","","","","",""
"","image-keyboard-response","180","153676","0.0-180.0","3BXQMRHWK0KOXR0YLR50CWKVMNCMUZ","A2JZTR2ZSALGH4","3ECKRY5B1QIH1N6NFX1ECCW5ZDKIZQ","","654.5","img/food2.png","75","660","2","1","2","1","1,0.5,0,1,0.5,0,0.5,0,1","0,1,0.5,0,1,0.5,1,0.5,0","3","",""
"","html-keyboard-response","181","153985","0.0-181.0","3BXQMRHWK0KOXR0YLR50CWKVMNCMUZ","A2JZTR2ZSALGH4","3ECKRY5B1QIH1N6NFX1ECCW5ZDKIZQ","","null","<img src=""img/food2.png"" style=""width:200px; border:14px solid green;"">","null","","","","","","","","","",""
"","html-keyboard-response","182","157898","0.0-182.0","3BXQMRHWK0KOXR0YLR50CWKVMNCMUZ","A2JZTR2ZSALGH4","3ECKRY5B1QIH1N6NFX1ECCW5ZDKIZQ","","","","","","","","","","","","","",""
"","instructions","183","172797","0.0-183.0","3BXQMRHWK0KOXR0YLR50CWKVMNCMUZ","A2JZTR2ZSALGH4","3ECKRY5B1QIH1N6NFX1ECCW5ZDKIZQ","[{""page_index"":0,""viewing_time"":13122.300000000745},{""page_index"":1,""viewing_time"":1769}]","14894.200000001118","","","","","","","","","","","",""
"","image-keyboard-response","184","173718","0.0-184.0","3BXQMRHWK0KOXR0YLR50CWKVMNCMUZ","A2JZTR2ZSALGH4","3ECKRY5B1QIH1N6NFX1ECCW5ZDKIZQ","","915.4000000003725","img/food4.png","74","920.5","1","0","3","2","1,0.5,0,1,0.5,0,0.5,0,1","0.5,0,1,0.5,0,1,0,1,0.5","2","false",""
"","html-keyboard-response","185","174029","0.0-185.0","3BXQMRHWK0KOXR0YLR50CWKVMNCMUZ","A2JZTR2ZSALGH4","3ECKRY5B1QIH1N6NFX1ECCW5ZDKIZQ","","null","<img src=""img/food4.png"" style=""width:200px;border:14px solid red;"">","null","","","","","","","","","",""
"","image-keyboard-response","186","174956","0.0-187.0","3BXQMRHWK0KOXR0YLR50CWKVMNCMUZ","A2JZTR2ZSALGH4","3ECKRY5B1QIH1N6NFX1ECCW5ZDKIZQ","","916","img/food6.png","74","918.4000000003725","1","1","2","2","1,0.5,0,1,0.5,0,0.5,0,1","0.5,0,1,0.5,0,1,0,1,0.5","2","false",""
"","html-keyboard-response","187","175262","0.0-188.0","3BXQMRHWK0KOXR0YLR50CWKVMNCMUZ","A2JZTR2ZSALGH4","3ECKRY5B1QIH1N6NFX1ECCW5ZDKIZQ","","null","<img src=""img/food6.png"" style=""width:200px; border:14px solid green;"">","null","","","","","","","","","",""
"","image-keyboard-response","188","176034","0.0-190.0","3BXQMRHWK0KOXR0YLR50CWKVMNCMUZ","A2JZTR2ZSALGH4","3ECKRY5B1QIH1N6NFX1ECCW5ZDKIZQ","","766.3000000007451","img/food6.png","74","769.7999999988824","1","0","2","2","1,0.5,0,1,0.5,0,0.5,0,1","0.5,0,1,0.5,0,1,0,1,0.5","2","false",""
"","html-keyboard-response","189","176340","0.0-191.0","3BXQMRHWK0KOXR0YLR50CWKVMNCMUZ","A2JZTR2ZSALGH4","3ECKRY5B1QIH1N6NFX1ECCW5ZDKIZQ","","null","<img src=""img/food6.png"" style=""width:200px;border:14px solid red;"">","null","","","","","","","","","",""
"","image-keyboard-response","190","177351","0.0-193.0","3BXQMRHWK0KOXR0YLR50CWKVMNCMUZ","A2JZTR2ZSALGH4","3ECKRY5B1QIH1N6NFX1ECCW5ZDKIZQ","","","img/food4.png","","1008.8000000007451","-1","0","3","2","1,0.5,0,1,0.5,0,0.5,0,1","0.5,0,1,0.5,0,1,0,1,0.5","2","true",""
"","html-keyboard-response","191","177659","0.0-194.0","3BXQMRHWK0KOXR0YLR50CWKVMNCMUZ","A2JZTR2ZSALGH4","3ECKRY5B1QIH1N6NFX1ECCW5ZDKIZQ","","null","<img src=""img/food4.png"" style=""width:200px;border:14px solid red;"">","null","","","","","","","","","",""
"","html-keyboard-response","192","183253","0.0-195.0-0.0","3BXQMRHWK0KOXR0YLR50CWKVMNCMUZ","A2JZTR2ZSALGH4","3ECKRY5B1QIH1N6NFX1ECCW5ZDKIZQ","","","","","","","","","","","","","",""
"","image-keyboard-response","193","183899","0.0-196.0","3BXQMRHWK0KOXR0YLR50CWKVMNCMUZ","A2JZTR2ZSALGH4","3ECKRY5B1QIH1N6NFX1ECCW5ZDKIZQ","","636.8000000007451","img/food5.png","74","645.6999999992549","1","0","1","2","1,0.5,0,1,0.5,0,0.5,0,1","0.5,0,1,0.5,0,1,0,1,0.5","2","false",""
"","html-keyboard-response","194","184205","0.0-197.0","3BXQMRHWK0KOXR0YLR50CWKVMNCMUZ","A2JZTR2ZSALGH4","3ECKRY5B1QIH1N6NFX1ECCW5ZDKIZQ","","null","<img src=""img/food5.png"" style=""width:200px;border:14px solid red;"">","null","","","","","","","","","",""
"","image-keyboard-response","195","184489","0.0-199.0","3BXQMRHWK0KOXR0YLR50CWKVMNCMUZ","A2JZTR2ZSALGH4","3ECKRY5B1QIH1N6NFX1ECCW5ZDKIZQ","","274.1000000014901","img/food6.png","74","279.59999999962747","1","0","2","2","1,0.5,0,1,0.5,0,0.5,0,1","0.5,0,1,0.5,0,1,0,1,0.5","2","false",""
"","html-keyboard-response","196","184797","0.0-200.0","3BXQMRHWK0KOXR0YLR50CWKVMNCMUZ","A2JZTR2ZSALGH4","3ECKRY5B1QIH1N6NFX1ECCW5ZDKIZQ","","null","<img src=""img/food6.png"" style=""width:200px;border:14px solid red;"">","null","","","","","","","","","",""
"","image-keyboard-response","197","185377","0.0-202.0","3BXQMRHWK0KOXR0YLR50CWKVMNCMUZ","A2JZTR2ZSALGH4","3ECKRY5B1QIH1N6NFX1ECCW5ZDKIZQ","","570.3999999985099","img/food5.png","75","577.1000000014901","2","0","1","2","1,0.5,0,1,0.5,0,0.5,0,1","0.5,0,1,0.5,0,1,0,1,0.5","2","false",""
"","html-keyboard-response","198","185687","0.0-203.0","3BXQMRHWK0KOXR0YLR50CWKVMNCMUZ","A2JZTR2ZSALGH4","3ECKRY5B1QIH1N6NFX1ECCW5ZDKIZQ","","null","<img src=""img/food5.png"" style=""width:200px;border:14px solid red;"">","null","","","","","","","","","",""
"","image-keyboard-response","199","186177","0.0-205.0","3BXQMRHWK0KOXR0YLR50CWKVMNCMUZ","A2JZTR2ZSALGH4","3ECKRY5B1QIH1N6NFX1ECCW5ZDKIZQ","","479.30000000074506","img/food5.png","74","486.8999999985099","1","1","1","2","1,0.5,0,1,0.5,0,0.5,0,1","0.5,0,1,0.5,0,1,0,1,0.5","2","false",""
"","html-keyboard-response","200","186483","0.0-206.0","3BXQMRHWK0KOXR0YLR50CWKVMNCMUZ","A2JZTR2ZSALGH4","3ECKRY5B1QIH1N6NFX1ECCW5ZDKIZQ","","null","<img src=""img/food5.png"" style=""width:200px; border:14px solid green;"">","null","","","","","","","","","",""
"","image-keyboard-response","201","186895","0.0-208.0","3BXQMRHWK0KOXR0YLR50CWKVMNCMUZ","A2JZTR2ZSALGH4","3ECKRY5B1QIH1N6NFX1ECCW5ZDKIZQ","","407.80000000074506","img/food5.png","74","411.8999999985099","1","0","1","2","1,0.5,0,1,0.5,0,0.5,0,1","0.5,0,1,0.5,0,1,0,1,0.5","2","false",""
"","html-keyboard-response","202","187204","0.0-209.0","3BXQMRHWK0KOXR0YLR50CWKVMNCMUZ","A2JZTR2ZSALGH4","3ECKRY5B1QIH1N6NFX1ECCW5ZDKIZQ","","null","<img src=""img/food5.png"" style=""width:200px;border:14px solid red;"">","null","","","","","","","","","",""
"","image-keyboard-response","203","187639","0.0-211.0","3BXQMRHWK0KOXR0YLR50CWKVMNCMUZ","A2JZTR2ZSALGH4","3ECKRY5B1QIH1N6NFX1ECCW5ZDKIZQ","","427.2000000011176","img/food5.png","74","432.90000000037253","1","0","1","2","1,0.5,0,1,0.5,0,0.5,0,1","0.5,0,1,0.5,0,1,0,1,0.5","2","false",""
"","html-keyboard-response","204","187947","0.0-212.0","3BXQMRHWK0KOXR0YLR50CWKVMNCMUZ","A2JZTR2ZSALGH4","3ECKRY5B1QIH1N6NFX1ECCW5ZDKIZQ","","null","<img src=""img/food5.png"" style=""width:200px;border:14px solid red;"">","null","","","","","","","","","",""
"","image-keyboard-response","205","188319","0.0-214.0","3BXQMRHWK0KOXR0YLR50CWKVMNCMUZ","A2JZTR2ZSALGH4","3ECKRY5B1QIH1N6NFX1ECCW5ZDKIZQ","","362.90000000037253","img/food5.png","75","370","2","0","1","2","1,0.5,0,1,0.5,0,0.5,0,1","0.5,0,1,0.5,0,1,0,1,0.5","2","false",""
"","html-keyboard-response","206","188628","0.0-215.0","3BXQMRHWK0KOXR0YLR50CWKVMNCMUZ","A2JZTR2ZSALGH4","3ECKRY5B1QIH1N6NFX1ECCW5ZDKIZQ","","null","<img src=""img/food5.png"" style=""width:200px;border:14px solid red;"">","null","","","","","","","","","",""
"","image-keyboard-response","207","189451","0.0-217.0","3BXQMRHWK0KOXR0YLR50CWKVMNCMUZ","A2JZTR2ZSALGH4","3ECKRY5B1QIH1N6NFX1ECCW5ZDKIZQ","","815.1000000014901","img/food4.png","74","819.4000000003725","1","0","3","2","1,0.5,0,1,0.5,0,0.5,0,1","0.5,0,1,0.5,0,1,0,1,0.5","2","false",""
"","html-keyboard-response","208","189757","0.0-218.0","3BXQMRHWK0KOXR0YLR50CWKVMNCMUZ","A2JZTR2ZSALGH4","3ECKRY5B1QIH1N6NFX1ECCW5ZDKIZQ","","null","<img src=""img/food4.png"" style=""width:200px;border:14px solid red;"">","null","","","","","","","","","",""
"","image-keyboard-response","209","189983","0.0-220.0","3BXQMRHWK0KOXR0YLR50CWKVMNCMUZ","A2JZTR2ZSALGH4","3ECKRY5B1QIH1N6NFX1ECCW5ZDKIZQ","","220.69999999925494","img/food6.png","74","223.40000000037253","1","1","2","2","1,0.5,0,1,0.5,0,0.5,0,1","0.5,0,1,0.5,0,1,0,1,0.5","2","false",""
"","html-keyboard-response","210","190289","0.0-221.0","3BXQMRHWK0KOXR0YLR50CWKVMNCMUZ","A2JZTR2ZSALGH4","3ECKRY5B1QIH1N6NFX1ECCW5ZDKIZQ","","null","<img src=""img/food6.png"" style=""width:200px; border:14px solid green;"">","null","","","","","","","","","",""
"","image-keyboard-response","211","190976","0.0-223.0","3BXQMRHWK0KOXR0YLR50CWKVMNCMUZ","A2JZTR2ZSALGH4","3ECKRY5B1QIH1N6NFX1ECCW5ZDKIZQ","","679.5999999996275","img/food5.png","75","683.9000000003725","2","0","1","2","1,0.5,0,1,0.5,0,0.5,0,1","0.5,0,1,0.5,0,1,0,1,0.5","2","false",""
"","html-keyboard-response","212","191284","0.0-224.0","3BXQMRHWK0KOXR0YLR50CWKVMNCMUZ","A2JZTR2ZSALGH4","3ECKRY5B1QIH1N6NFX1ECCW5ZDKIZQ","","null","<img src=""img/food5.png"" style=""width:200px;border:14px solid red;"">","null","","","","","","","","","",""
"","image-keyboard-response","213","192021","0.0-226.0","3BXQMRHWK0KOXR0YLR50CWKVMNCMUZ","A2JZTR2ZSALGH4","3ECKRY5B1QIH1N6NFX1ECCW5ZDKIZQ","","729.4000000003725","img/food5.png","75","734.6000000014901","2","0","1","2","1,0.5,0,1,0.5,0,0.5,0,1","0.5,0,1,0.5,0,1,0,1,0.5","2","false",""
"","html-keyboard-response","214","192327","0.0-227.0","3BXQMRHWK0KOXR0YLR50CWKVMNCMUZ","A2JZTR2ZSALGH4","3ECKRY5B1QIH1N6NFX1ECCW5ZDKIZQ","","null","<img src=""img/food5.png"" style=""width:200px;border:14px solid red;"">","null","","","","","","","","","",""
"","image-keyboard-response","215","192982","0.0-229.0","3BXQMRHWK0KOXR0YLR50CWKVMNCMUZ","A2JZTR2ZSALGH4","3ECKRY5B1QIH1N6NFX1ECCW5ZDKIZQ","","645.2000000011176","img/food5.png","76","651.6999999992549","3","1","1","2","1,0.5,0,1,0.5,0,0.5,0,1","0.5,0,1,0.5,0,1,0,1,0.5","2","false",""
"","html-keyboard-response","216","193291","0.0-230.0","3BXQMRHWK0KOXR0YLR50CWKVMNCMUZ","A2JZTR2ZSALGH4","3ECKRY5B1QIH1N6NFX1ECCW5ZDKIZQ","","null","<img src=""img/food5.png"" style=""width:200px; border:14px solid green;"">","null","","","","","","","","","",""
"","image-keyboard-response","217","194157","0.0-232.0","3BXQMRHWK0KOXR0YLR50CWKVMNCMUZ","A2JZTR2ZSALGH4","3ECKRY5B1QIH1N6NFX1ECCW5ZDKIZQ","","858","img/food6.png","75","863","2","0","2","2","1,0.5,0,1,0.5,0,0.5,0,1","0.5,0,1,0.5,0,1,0,1,0.5","2","false",""
"","html-keyboard-response","218","194464","0.0-233.0","3BXQMRHWK0KOXR0YLR50CWKVMNCMUZ","A2JZTR2ZSALGH4","3ECKRY5B1QIH1N6NFX1ECCW5ZDKIZQ","","null","<img src=""img/food6.png"" style=""width:200px;border:14px solid red;"">","null","","","","","","","","","",""
"","image-keyboard-response","219","195116","0.0-235.0","3BXQMRHWK0KOXR0YLR50CWKVMNCMUZ","A2JZTR2ZSALGH4","3ECKRY5B1QIH1N6NFX1ECCW5ZDKIZQ","","644.0999999996275","img/food6.png","75","650.3999999985099","2","0","2","2","1,0.5,0,1,0.5,0,0.5,0,1","0.5,0,1,0.5,0,1,0,1,0.5","2","false",""
"","html-keyboard-response","220","195425","0.0-236.0","3BXQMRHWK0KOXR0YLR50CWKVMNCMUZ","A2JZTR2ZSALGH4","3ECKRY5B1QIH1N6NFX1ECCW5ZDKIZQ","","null","<img src=""img/food6.png"" style=""width:200px;border:14px solid red;"">","null","","","","","","","","","",""
"","image-keyboard-response","221","196436","0.0-238.0","3BXQMRHWK0KOXR0YLR50CWKVMNCMUZ","A2JZTR2ZSALGH4","3ECKRY5B1QIH1N6NFX1ECCW5ZDKIZQ","","","img/food5.png","","1006.8000000007451","-1","0","1","2","1,0.5,0,1,0.5,0,0.5,0,1","0.5,0,1,0.5,0,1,0,1,0.5","2","true",""
"","html-keyboard-response","222","196745","0.0-239.0","3BXQMRHWK0KOXR0YLR50CWKVMNCMUZ","A2JZTR2ZSALGH4","3ECKRY5B1QIH1N6NFX1ECCW5ZDKIZQ","","null","<img src=""img/food5.png"" style=""width:200px;border:14px solid red;"">","null","","","","","","","","","",""
"","html-keyboard-response","223","199202","0.0-240.0-0.0","3BXQMRHWK0KOXR0YLR50CWKVMNCMUZ","A2JZTR2ZSALGH4","3ECKRY5B1QIH1N6NFX1ECCW5ZDKIZQ","","","","","","","","","","","","","",""
"","image-keyboard-response","224","200167","0.0-241.0","3BXQMRHWK0KOXR0YLR50CWKVMNCMUZ","A2JZTR2ZSALGH4","3ECKRY5B1QIH1N6NFX1ECCW5ZDKIZQ","","957.6000000014901","img/food6.png","76","964.0999999996275","3","1","2","2","1,0.5,0,1,0.5,0,0.5,0,1","0.5,0,1,0.5,0,1,0,1,0.5","2","false",""
"","html-keyboard-response","225","200473","0.0-242.0","3BXQMRHWK0KOXR0YLR50CWKVMNCMUZ","A2JZTR2ZSALGH4","3ECKRY5B1QIH1N6NFX1ECCW5ZDKIZQ","","null","<img src=""img/food6.png"" style=""width:200px; border:14px solid green;"">","null","","","","","","","","","",""
"","image-keyboard-response","226","200903","0.0-244.0","3BXQMRHWK0KOXR0YLR50CWKVMNCMUZ","A2JZTR2ZSALGH4","3ECKRY5B1QIH1N6NFX1ECCW5ZDKIZQ","","420.2999999988824","img/food6.png","76","426.30000000074506","3","1","2","2","1,0.5,0,1,0.5,0,0.5,0,1","0.5,0,1,0.5,0,1,0,1,0.5","2","false",""
"","html-keyboard-response","227","201210","0.0-245.0","3BXQMRHWK0KOXR0YLR50CWKVMNCMUZ","A2JZTR2ZSALGH4","3ECKRY5B1QIH1N6NFX1ECCW5ZDKIZQ","","null","<img src=""img/food6.png"" style=""width:200px; border:14px solid green;"">","null","","","","","","","","","",""
"","image-keyboard-response","228","201808","0.0-247.0","3BXQMRHWK0KOXR0YLR50CWKVMNCMUZ","A2JZTR2ZSALGH4","3ECKRY5B1QIH1N6NFX1ECCW5ZDKIZQ","","589.5999999996275","img/food5.png","75","594.4000000003725","2","0","1","2","1,0.5,0,1,0.5,0,0.5,0,1","0.5,0,1,0.5,0,1,0,1,0.5","2","false",""
"","html-keyboard-response","229","202114","0.0-248.0","3BXQMRHWK0KOXR0YLR50CWKVMNCMUZ","A2JZTR2ZSALGH4","3ECKRY5B1QIH1N6NFX1ECCW5ZDKIZQ","","null","<img src=""img/food5.png"" style=""width:200px;border:14px solid red;"">","null","","","","","","","","","",""
"","image-keyboard-response","230","202779","0.0-250.0","3BXQMRHWK0KOXR0YLR50CWKVMNCMUZ","A2JZTR2ZSALGH4","3ECKRY5B1QIH1N6NFX1ECCW5ZDKIZQ","","655.6999999992549","img/food6.png","76","662.3000000007451","3","1","2","2","1,0.5,0,1,0.5,0,0.5,0,1","0.5,0,1,0.5,0,1,0,1,0.5","2","false",""
"","html-keyboard-response","231","203085","0.0-251.0","3BXQMRHWK0KOXR0YLR50CWKVMNCMUZ","A2JZTR2ZSALGH4","3ECKRY5B1QIH1N6NFX1ECCW5ZDKIZQ","","null","<img src=""img/food6.png"" style=""width:200px; border:14px solid green;"">","null","","","","","","","","","",""
"","image-keyboard-response","232","203668","0.0-253.0","3BXQMRHWK0KOXR0YLR50CWKVMNCMUZ","A2JZTR2ZSALGH4","3ECKRY5B1QIH1N6NFX1ECCW5ZDKIZQ","","577.5","img/food4.png","75","582.5","2","1","3","2","1,0.5,0,1,0.5,0,0.5,0,1","0.5,0,1,0.5,0,1,0,1,0.5","2","false",""
"","html-keyboard-response","233","203978","0.0-254.0","3BXQMRHWK0KOXR0YLR50CWKVMNCMUZ","A2JZTR2ZSALGH4","3ECKRY5B1QIH1N6NFX1ECCW5ZDKIZQ","","null","<img src=""img/food4.png"" style=""width:200px; border:14px solid green;"">","null","","","","","","","","","",""
"","image-keyboard-response","234","204474","0.0-256.0","3BXQMRHWK0KOXR0YLR50CWKVMNCMUZ","A2JZTR2ZSALGH4","3ECKRY5B1QIH1N6NFX1ECCW5ZDKIZQ","","486.1000000014901","img/food4.png","75","492.40000000037253","2","1","3","2","1,0.5,0,1,0.5,0,0.5,0,1","0.5,0,1,0.5,0,1,0,1,0.5","2","false",""
"","html-keyboard-response","235","204781","0.0-257.0","3BXQMRHWK0KOXR0YLR50CWKVMNCMUZ","A2JZTR2ZSALGH4","3ECKRY5B1QIH1N6NFX1ECCW5ZDKIZQ","","null","<img src=""img/food4.png"" style=""width:200px; border:14px solid green;"">","null","","","","","","","","","",""
"","image-keyboard-response","236","205263","0.0-259.0","3BXQMRHWK0KOXR0YLR50CWKVMNCMUZ","A2JZTR2ZSALGH4","3ECKRY5B1QIH1N6NFX1ECCW5ZDKIZQ","","474.80000000074506","img/food4.png","75","479.40000000037253","2","1","3","2","1,0.5,0,1,0.5,0,0.5,0,1","0.5,0,1,0.5,0,1,0,1,0.5","2","false",""
"","html-keyboard-response","237","205569","0.0-260.0","3BXQMRHWK0KOXR0YLR50CWKVMNCMUZ","A2JZTR2ZSALGH4","3ECKRY5B1QIH1N6NFX1ECCW5ZDKIZQ","","null","<img src=""img/food4.png"" style=""width:200px; border:14px solid green;"">","null","","","","","","","","","",""
"","image-keyboard-response","238","206115","0.0-262.0","3BXQMRHWK0KOXR0YLR50CWKVMNCMUZ","A2JZTR2ZSALGH4","3ECKRY5B1QIH1N6NFX1ECCW5ZDKIZQ","","542.0999999996275","img/food5.png","74","547.5999999996275","1","1","1","2","1,0.5,0,1,0.5,0,0.5,0,1","0.5,0,1,0.5,0,1,0,1,0.5","2","false",""
"","html-keyboard-response","239","206424","0.0-263.0","3BXQMRHWK0KOXR0YLR50CWKVMNCMUZ","A2JZTR2ZSALGH4","3ECKRY5B1QIH1N6NFX1ECCW5ZDKIZQ","","null","<img src=""img/food5.png"" style=""width:200px; border:14px solid green;"">","null","","","","","","","","","",""
"","image-keyboard-response","240","207082","0.0-265.0","3BXQMRHWK0KOXR0YLR50CWKVMNCMUZ","A2JZTR2ZSALGH4","3ECKRY5B1QIH1N6NFX1ECCW5ZDKIZQ","","650","img/food4.png","75","653.4000000003725","2","1","3","2","1,0.5,0,1,0.5,0,0.5,0,1","0.5,0,1,0.5,0,1,0,1,0.5","2","false",""
"","html-keyboard-response","241","207388","0.0-266.0","3BXQMRHWK0KOXR0YLR50CWKVMNCMUZ","A2JZTR2ZSALGH4","3ECKRY5B1QIH1N6NFX1ECCW5ZDKIZQ","","null","<img src=""img/food4.png"" style=""width:200px; border:14px solid green;"">","null","","","","","","","","","",""
"","image-keyboard-response","242","208043","0.0-268.0","3BXQMRHWK0KOXR0YLR50CWKVMNCMUZ","A2JZTR2ZSALGH4","3ECKRY5B1QIH1N6NFX1ECCW5ZDKIZQ","","645.5","img/food6.png","76","649.3000000007451","3","1","2","2","1,0.5,0,1,0.5,0,0.5,0,1","0.5,0,1,0.5,0,1,0,1,0.5","2","false",""
"","html-keyboard-response","243","208350","0.0-269.0","3BXQMRHWK0KOXR0YLR50CWKVMNCMUZ","A2JZTR2ZSALGH4","3ECKRY5B1QIH1N6NFX1ECCW5ZDKIZQ","","null","<img src=""img/food6.png"" style=""width:200px; border:14px solid green;"">","null","","","","","","","","","",""
"","image-keyboard-response","244","209142","0.0-271.0","3BXQMRHWK0KOXR0YLR50CWKVMNCMUZ","A2JZTR2ZSALGH4","3ECKRY5B1QIH1N6NFX1ECCW5ZDKIZQ","","787.6000000014901","img/food5.png","75","791","2","0","1","2","1,0.5,0,1,0.5,0,0.5,0,1","0.5,0,1,0.5,0,1,0,1,0.5","2","false",""
"","html-keyboard-response","245","209449","0.0-272.0","3BXQMRHWK0KOXR0YLR50CWKVMNCMUZ","A2JZTR2ZSALGH4","3ECKRY5B1QIH1N6NFX1ECCW5ZDKIZQ","","null","<img src=""img/food5.png"" style=""width:200px;border:14px solid red;"">","null","","","","","","","","","",""
"","image-keyboard-response","246","210457","0.0-274.0","3BXQMRHWK0KOXR0YLR50CWKVMNCMUZ","A2JZTR2ZSALGH4","3ECKRY5B1QIH1N6NFX1ECCW5ZDKIZQ","","","img/food4.png","","1006.0999999996275","-1","0","3","2","1,0.5,0,1,0.5,0,0.5,0,1","0.5,0,1,0.5,0,1,0,1,0.5","2","true",""
"","html-keyboard-response","247","210766","0.0-275.0","3BXQMRHWK0KOXR0YLR50CWKVMNCMUZ","A2JZTR2ZSALGH4","3ECKRY5B1QIH1N6NFX1ECCW5ZDKIZQ","","null","<img src=""img/food4.png"" style=""width:200px;border:14px solid red;"">","null","","","","","","","","","",""
"","html-keyboard-response","248","213011","0.0-276.0-0.0","3BXQMRHWK0KOXR0YLR50CWKVMNCMUZ","A2JZTR2ZSALGH4","3ECKRY5B1QIH1N6NFX1ECCW5ZDKIZQ","","","","","","","","","","","","","",""
"","image-keyboard-response","249","213992","0.0-277.0","3BXQMRHWK0KOXR0YLR50CWKVMNCMUZ","A2JZTR2ZSALGH4","3ECKRY5B1QIH1N6NFX1ECCW5ZDKIZQ","","974.5999999996275","img/food5.png","75","980.7999999988824","2","0","1","2","1,0.5,0,1,0.5,0,0.5,0,1","0.5,0,1,0.5,0,1,0,1,0.5","2","false",""
"","html-keyboard-response","250","214298","0.0-278.0","3BXQMRHWK0KOXR0YLR50CWKVMNCMUZ","A2JZTR2ZSALGH4","3ECKRY5B1QIH1N6NFX1ECCW5ZDKIZQ","","null","<img src=""img/food5.png"" style=""width:200px;border:14px solid red;"">","null","","","","","","","","","",""
"","image-keyboard-response","251","214864","0.0-280.0","3BXQMRHWK0KOXR0YLR50CWKVMNCMUZ","A2JZTR2ZSALGH4","3ECKRY5B1QIH1N6NFX1ECCW5ZDKIZQ","","558.4000000003725","img/food6.png","76","563.1000000014901","3","1","2","2","1,0.5,0,1,0.5,0,0.5,0,1","0.5,0,1,0.5,0,1,0,1,0.5","2","false",""
"","html-keyboard-response","252","215170","0.0-281.0","3BXQMRHWK0KOXR0YLR50CWKVMNCMUZ","A2JZTR2ZSALGH4","3ECKRY5B1QIH1N6NFX1ECCW5ZDKIZQ","","null","<img src=""img/food6.png"" style=""width:200px; border:14px solid green;"">","null","","","","","","","","","",""
"","image-keyboard-response","253","215553","0.0-283.0","3BXQMRHWK0KOXR0YLR50CWKVMNCMUZ","A2JZTR2ZSALGH4","3ECKRY5B1QIH1N6NFX1ECCW5ZDKIZQ","","375.30000000074506","img/food6.png","76","380.30000000074506","3","1","2","2","1,0.5,0,1,0.5,0,0.5,0,1","0.5,0,1,0.5,0,1,0,1,0.5","2","false",""
"","html-keyboard-response","254","215859","0.0-284.0","3BXQMRHWK0KOXR0YLR50CWKVMNCMUZ","A2JZTR2ZSALGH4","3ECKRY5B1QIH1N6NFX1ECCW5ZDKIZQ","","null","<img src=""img/food6.png"" style=""width:200px; border:14px solid green;"">","null","","","","","","","","","",""
"","image-keyboard-response","255","216414","0.0-286.0","3BXQMRHWK0KOXR0YLR50CWKVMNCMUZ","A2JZTR2ZSALGH4","3ECKRY5B1QIH1N6NFX1ECCW5ZDKIZQ","","550.4000000003725","img/food4.png","75","553.6999999992549","2","1","3","2","1,0.5,0,1,0.5,0,0.5,0,1","0.5,0,1,0.5,0,1,0,1,0.5","2","false",""
"","html-keyboard-response","256","216720","0.0-287.0","3BXQMRHWK0KOXR0YLR50CWKVMNCMUZ","A2JZTR2ZSALGH4","3ECKRY5B1QIH1N6NFX1ECCW5ZDKIZQ","","null","<img src=""img/food4.png"" style=""width:200px; border:14px solid green;"">","null","","","","","","","","","",""
"","image-keyboard-response","257","217304","0.0-289.0","3BXQMRHWK0KOXR0YLR50CWKVMNCMUZ","A2JZTR2ZSALGH4","3ECKRY5B1QIH1N6NFX1ECCW5ZDKIZQ","","577.2999999988824","img/food5.png","74","581.4000000003725","1","1","1","2","1,0.5,0,1,0.5,0,0.5,0,1","0.5,0,1,0.5,0,1,0,1,0.5","2","false",""
"","html-keyboard-response","258","217610","0.0-290.0","3BXQMRHWK0KOXR0YLR50CWKVMNCMUZ","A2JZTR2ZSALGH4","3ECKRY5B1QIH1N6NFX1ECCW5ZDKIZQ","","null","<img src=""img/food5.png"" style=""width:200px; border:14px solid green;"">","null","","","","","","","","","",""
"","image-keyboard-response","259","218248","0.0-292.0","3BXQMRHWK0KOXR0YLR50CWKVMNCMUZ","A2JZTR2ZSALGH4","3ECKRY5B1QIH1N6NFX1ECCW5ZDKIZQ","","629.3999999985099","img/food4.png","75","635.5","2","1","3","2","1,0.5,0,1,0.5,0,0.5,0,1","0.5,0,1,0.5,0,1,0,1,0.5","2","false",""
"","html-keyboard-response","260","218554","0.0-293.0","3BXQMRHWK0KOXR0YLR50CWKVMNCMUZ","A2JZTR2ZSALGH4","3ECKRY5B1QIH1N6NFX1ECCW5ZDKIZQ","","null","<img src=""img/food4.png"" style=""width:200px; border:14px solid green;"">","null","","","","","","","","","",""
"","image-keyboard-response","261","218977","0.0-295.0","3BXQMRHWK0KOXR0YLR50CWKVMNCMUZ","A2JZTR2ZSALGH4","3ECKRY5B1QIH1N6NFX1ECCW5ZDKIZQ","","415.40000000037253","img/food4.png","75","419.59999999962747","2","1","3","2","1,0.5,0,1,0.5,0,0.5,0,1","0.5,0,1,0.5,0,1,0,1,0.5","2","false",""
"","html-keyboard-response","262","219284","0.0-296.0","3BXQMRHWK0KOXR0YLR50CWKVMNCMUZ","A2JZTR2ZSALGH4","3ECKRY5B1QIH1N6NFX1ECCW5ZDKIZQ","","null","<img src=""img/food4.png"" style=""width:200px; border:14px solid green;"">","null","","","","","","","","","",""
"","image-keyboard-response","263","219861","0.0-298.0","3BXQMRHWK0KOXR0YLR50CWKVMNCMUZ","A2JZTR2ZSALGH4","3ECKRY5B1QIH1N6NFX1ECCW5ZDKIZQ","","567.2000000011176","img/food6.png","76","573.5999999996275","3","1","2","2","1,0.5,0,1,0.5,0,0.5,0,1","0.5,0,1,0.5,0,1,0,1,0.5","2","false",""
"","html-keyboard-response","264","220166","0.0-299.0","3BXQMRHWK0KOXR0YLR50CWKVMNCMUZ","A2JZTR2ZSALGH4","3ECKRY5B1QIH1N6NFX1ECCW5ZDKIZQ","","null","<img src=""img/food6.png"" style=""width:200px; border:14px solid green;"">","null","","","","","","","","","",""
"","image-keyboard-response","265","220876","0.0-301.0","3BXQMRHWK0KOXR0YLR50CWKVMNCMUZ","A2JZTR2ZSALGH4","3ECKRY5B1QIH1N6NFX1ECCW5ZDKIZQ","","701.5","img/food6.png","76","706.2000000011176","3","1","2","2","1,0.5,0,1,0.5,0,0.5,0,1","0.5,0,1,0.5,0,1,0,1,0.5","2","false",""
"","html-keyboard-response","266","221184","0.0-302.0","3BXQMRHWK0KOXR0YLR50CWKVMNCMUZ","A2JZTR2ZSALGH4","3ECKRY5B1QIH1N6NFX1ECCW5ZDKIZQ","","null","<img src=""img/food6.png"" style=""width:200px; border:14px solid green;"">","null","","","","","","","","","",""
"","image-keyboard-response","267","221577","0.0-304.0","3BXQMRHWK0KOXR0YLR50CWKVMNCMUZ","A2JZTR2ZSALGH4","3ECKRY5B1QIH1N6NFX1ECCW5ZDKIZQ","","384.40000000037253","img/food6.png","76","390.40000000037253","3","1","2","2","1,0.5,0,1,0.5,0,0.5,0,1","0.5,0,1,0.5,0,1,0,1,0.5","2","false",""
"","html-keyboard-response","268","221883","0.0-305.0","3BXQMRHWK0KOXR0YLR50CWKVMNCMUZ","A2JZTR2ZSALGH4","3ECKRY5B1QIH1N6NFX1ECCW5ZDKIZQ","","null","<img src=""img/food6.png"" style=""width:200px; border:14px solid green;"">","null","","","","","","","","","",""
"","image-keyboard-response","269","222254","0.0-307.0","3BXQMRHWK0KOXR0YLR50CWKVMNCMUZ","A2JZTR2ZSALGH4","3ECKRY5B1QIH1N6NFX1ECCW5ZDKIZQ","","360.59999999962747","img/food6.png","76","369.09999999962747","3","1","2","2","1,0.5,0,1,0.5,0,0.5,0,1","0.5,0,1,0.5,0,1,0,1,0.5","2","false",""
"","html-keyboard-response","270","222564","0.0-308.0","3BXQMRHWK0KOXR0YLR50CWKVMNCMUZ","A2JZTR2ZSALGH4","3ECKRY5B1QIH1N6NFX1ECCW5ZDKIZQ","","null","<img src=""img/food6.png"" style=""width:200px; border:14px solid green;"">","null","","","","","","","","","",""
"","image-keyboard-response","271","223088","0.0-310.0","3BXQMRHWK0KOXR0YLR50CWKVMNCMUZ","A2JZTR2ZSALGH4","3ECKRY5B1QIH1N6NFX1ECCW5ZDKIZQ","","515","img/food6.png","76","521","3","1","2","2","1,0.5,0,1,0.5,0,0.5,0,1","0.5,0,1,0.5,0,1,0,1,0.5","2","false",""
"","html-keyboard-response","272","223395","0.0-311.0","3BXQMRHWK0KOXR0YLR50CWKVMNCMUZ","A2JZTR2ZSALGH4","3ECKRY5B1QIH1N6NFX1ECCW5ZDKIZQ","","null","<img src=""img/food6.png"" style=""width:200px; border:14px solid green;"">","null","","","","","","","","","",""
"","image-keyboard-response","273","224049","0.0-313.0","3BXQMRHWK0KOXR0YLR50CWKVMNCMUZ","A2JZTR2ZSALGH4","3ECKRY5B1QIH1N6NFX1ECCW5ZDKIZQ","","644.5999999996275","img/food5.png","74","650.7999999988824","1","0","1","2","1,0.5,0,1,0.5,0,0.5,0,1","0.5,0,1,0.5,0,1,0,1,0.5","2","false",""
"","html-keyboard-response","274","224355","0.0-314.0","3BXQMRHWK0KOXR0YLR50CWKVMNCMUZ","A2JZTR2ZSALGH4","3ECKRY5B1QIH1N6NFX1ECCW5ZDKIZQ","","null","<img src=""img/food5.png"" style=""width:200px;border:14px solid red;"">","null","","","","","","","","","",""
"","image-keyboard-response","275","224807","0.0-316.0","3BXQMRHWK0KOXR0YLR50CWKVMNCMUZ","A2JZTR2ZSALGH4","3ECKRY5B1QIH1N6NFX1ECCW5ZDKIZQ","","443.3999999985099","img/food5.png","74","447.7999999988824","1","1","1","2","1,0.5,0,1,0.5,0,0.5,0,1","0.5,0,1,0.5,0,1,0,1,0.5","2","false",""
"","html-keyboard-response","276","225114","0.0-317.0","3BXQMRHWK0KOXR0YLR50CWKVMNCMUZ","A2JZTR2ZSALGH4","3ECKRY5B1QIH1N6NFX1ECCW5ZDKIZQ","","null","<img src=""img/food5.png"" style=""width:200px; border:14px solid green;"">","null","","","","","","","","","",""
"","image-keyboard-response","277","225758","0.0-319.0","3BXQMRHWK0KOXR0YLR50CWKVMNCMUZ","A2JZTR2ZSALGH4","3ECKRY5B1QIH1N6NFX1ECCW5ZDKIZQ","","637.7999999988824","img/food4.png","75","642.1999999992549","2","1","3","2","1,0.5,0,1,0.5,0,0.5,0,1","0.5,0,1,0.5,0,1,0,1,0.5","2","false",""
"","html-keyboard-response","278","226066","0.0-320.0","3BXQMRHWK0KOXR0YLR50CWKVMNCMUZ","A2JZTR2ZSALGH4","3ECKRY5B1QIH1N6NFX1ECCW5ZDKIZQ","","null","<img src=""img/food4.png"" style=""width:200px; border:14px solid green;"">","null","","","","","","","","","",""
"","image-keyboard-response","279","226452","0.0-322.0","3BXQMRHWK0KOXR0YLR50CWKVMNCMUZ","A2JZTR2ZSALGH4","3ECKRY5B1QIH1N6NFX1ECCW5ZDKIZQ","","374.7999999988824","img/food4.png","75","381.5","2","1","3","2","1,0.5,0,1,0.5,0,0.5,0,1","0.5,0,1,0.5,0,1,0,1,0.5","2","false",""
"","html-keyboard-response","280","226760","0.0-323.0","3BXQMRHWK0KOXR0YLR50CWKVMNCMUZ","A2JZTR2ZSALGH4","3ECKRY5B1QIH1N6NFX1ECCW5ZDKIZQ","","null","<img src=""img/food4.png"" style=""width:200px; border:14px solid green;"">","null","","","","","","","","","",""
"","image-keyboard-response","281","227095","0.0-325.0","3BXQMRHWK0KOXR0YLR50CWKVMNCMUZ","A2JZTR2ZSALGH4","3ECKRY5B1QIH1N6NFX1ECCW5ZDKIZQ","","328","img/food4.png","75","333.90000000037253","2","1","3","2","1,0.5,0,1,0.5,0,0.5,0,1","0.5,0,1,0.5,0,1,0,1,0.5","2","false",""
"","html-keyboard-response","282","227403","0.0-326.0","3BXQMRHWK0KOXR0YLR50CWKVMNCMUZ","A2JZTR2ZSALGH4","3ECKRY5B1QIH1N6NFX1ECCW5ZDKIZQ","","null","<img src=""img/food4.png"" style=""width:200px; border:14px solid green;"">","null","","","","","","","","","",""
"","image-keyboard-response","283","228125","0.0-328.0","3BXQMRHWK0KOXR0YLR50CWKVMNCMUZ","A2JZTR2ZSALGH4","3ECKRY5B1QIH1N6NFX1ECCW5ZDKIZQ","","716.8999999985099","img/food5.png","74","721.1000000014901","1","0","1","2","1,0.5,0,1,0.5,0,0.5,0,1","0.5,0,1,0.5,0,1,0,1,0.5","2","false",""
"","html-keyboard-response","284","228432","0.0-329.0","3BXQMRHWK0KOXR0YLR50CWKVMNCMUZ","A2JZTR2ZSALGH4","3ECKRY5B1QIH1N6NFX1ECCW5ZDKIZQ","","null","<img src=""img/food5.png"" style=""width:200px;border:14px solid red;"">","null","","","","","","","","","",""
"","image-keyboard-response","285","229087","0.0-331.0","3BXQMRHWK0KOXR0YLR50CWKVMNCMUZ","A2JZTR2ZSALGH4","3ECKRY5B1QIH1N6NFX1ECCW5ZDKIZQ","","647","img/food4.png","75","651.8000000007451","2","1","3","2","1,0.5,0,1,0.5,0,0.5,0,1","0.5,0,1,0.5,0,1,0,1,0.5","2","false",""
"","html-keyboard-response","286","229393","0.0-332.0","3BXQMRHWK0KOXR0YLR50CWKVMNCMUZ","A2JZTR2ZSALGH4","3ECKRY5B1QIH1N6NFX1ECCW5ZDKIZQ","","null","<img src=""img/food4.png"" style=""width:200px; border:14px solid green;"">","null","","","","","","","","","",""
"","image-keyboard-response","287","229978","0.0-334.0","3BXQMRHWK0KOXR0YLR50CWKVMNCMUZ","A2JZTR2ZSALGH4","3ECKRY5B1QIH1N6NFX1ECCW5ZDKIZQ","","577.3000000007451","img/food6.png","76","582.3000000007451","3","1","2","2","1,0.5,0,1,0.5,0,0.5,0,1","0.5,0,1,0.5,0,1,0,1,0.5","2","false",""
"","html-keyboard-response","288","230286","0.0-335.0","3BXQMRHWK0KOXR0YLR50CWKVMNCMUZ","A2JZTR2ZSALGH4","3ECKRY5B1QIH1N6NFX1ECCW5ZDKIZQ","","null","<img src=""img/food6.png"" style=""width:200px; border:14px solid green;"">","null","","","","","","","","","",""
"","image-keyboard-response","289","231120","0.0-337.0","3BXQMRHWK0KOXR0YLR50CWKVMNCMUZ","A2JZTR2ZSALGH4","3ECKRY5B1QIH1N6NFX1ECCW5ZDKIZQ","","827.1000000014901","img/food5.png","74","831.9000000003725","1","0","1","2","1,0.5,0,1,0.5,0,0.5,0,1","0.5,0,1,0.5,0,1,0,1,0.5","2","false",""
"","html-keyboard-response","290","231427","0.0-338.0","3BXQMRHWK0KOXR0YLR50CWKVMNCMUZ","A2JZTR2ZSALGH4","3ECKRY5B1QIH1N6NFX1ECCW5ZDKIZQ","","null","<img src=""img/food5.png"" style=""width:200px;border:14px solid red;"">","null","","","","","","","","","",""
"","image-keyboard-response","291","232200","0.0-340.0","3BXQMRHWK0KOXR0YLR50CWKVMNCMUZ","A2JZTR2ZSALGH4","3ECKRY5B1QIH1N6NFX1ECCW5ZDKIZQ","","763.5","img/food4.png","75","769.1999999992549","2","1","3","2","1,0.5,0,1,0.5,0,0.5,0,1","0.5,0,1,0.5,0,1,0,1,0.5","2","false",""
"","html-keyboard-response","292","232506","0.0-341.0","3BXQMRHWK0KOXR0YLR50CWKVMNCMUZ","A2JZTR2ZSALGH4","3ECKRY5B1QIH1N6NFX1ECCW5ZDKIZQ","","null","<img src=""img/food4.png"" style=""width:200px; border:14px solid green;"">","null","","","","","","","","","",""
"","image-keyboard-response","293","232894","0.0-343.0","3BXQMRHWK0KOXR0YLR50CWKVMNCMUZ","A2JZTR2ZSALGH4","3ECKRY5B1QIH1N6NFX1ECCW5ZDKIZQ","","380.59999999962747","img/food4.png","75","383.19999999925494","2","1","3","2","1,0.5,0,1,0.5,0,0.5,0,1","0.5,0,1,0.5,0,1,0,1,0.5","2","false",""
"","html-keyboard-response","294","233201","0.0-344.0","3BXQMRHWK0KOXR0YLR50CWKVMNCMUZ","A2JZTR2ZSALGH4","3ECKRY5B1QIH1N6NFX1ECCW5ZDKIZQ","","null","<img src=""img/food4.png"" style=""width:200px; border:14px solid green;"">","null","","","","","","","","","",""
"","image-keyboard-response","295","233529","0.0-346.0","3BXQMRHWK0KOXR0YLR50CWKVMNCMUZ","A2JZTR2ZSALGH4","3ECKRY5B1QIH1N6NFX1ECCW5ZDKIZQ","","319.09999999962747","img/food4.png","75","325.19999999925494","2","1","3","2","1,0.5,0,1,0.5,0,0.5,0,1","0.5,0,1,0.5,0,1,0,1,0.5","2","false",""
"","html-keyboard-response","296","233837","0.0-347.0","3BXQMRHWK0KOXR0YLR50CWKVMNCMUZ","A2JZTR2ZSALGH4","3ECKRY5B1QIH1N6NFX1ECCW5ZDKIZQ","","null","<img src=""img/food4.png"" style=""width:200px; border:14px solid green;"">","null","","","","","","","","","",""
"","image-keyboard-response","297","234533","0.0-349.0","3BXQMRHWK0KOXR0YLR50CWKVMNCMUZ","A2JZTR2ZSALGH4","3ECKRY5B1QIH1N6NFX1ECCW5ZDKIZQ","","685.2000000011176","img/food5.png","74","692.8000000007451","1","0","1","2","1,0.5,0,1,0.5,0,0.5,0,1","0.5,0,1,0.5,0,1,0,1,0.5","2","false",""
"","html-keyboard-response","298","234838","0.0-350.0","3BXQMRHWK0KOXR0YLR50CWKVMNCMUZ","A2JZTR2ZSALGH4","3ECKRY5B1QIH1N6NFX1ECCW5ZDKIZQ","","null","<img src=""img/food5.png"" style=""width:200px;border:14px solid red;"">","null","","","","","","","","","",""
"","image-keyboard-response","299","235557","0.0-352.0","3BXQMRHWK0KOXR0YLR50CWKVMNCMUZ","A2JZTR2ZSALGH4","3ECKRY5B1QIH1N6NFX1ECCW5ZDKIZQ","","708.2000000011176","img/food4.png","75","715.6999999992549","2","1","3","2","1,0.5,0,1,0.5,0,0.5,0,1","0.5,0,1,0.5,0,1,0,1,0.5","2","false",""
"","html-keyboard-response","300","235866","0.0-353.0","3BXQMRHWK0KOXR0YLR50CWKVMNCMUZ","A2JZTR2ZSALGH4","3ECKRY5B1QIH1N6NFX1ECCW5ZDKIZQ","","null","<img src=""img/food4.png"" style=""width:200px; border:14px solid green;"">","null","","","","","","","","","",""
"","image-keyboard-response","301","236346","0.0-355.0","3BXQMRHWK0KOXR0YLR50CWKVMNCMUZ","A2JZTR2ZSALGH4","3ECKRY5B1QIH1N6NFX1ECCW5ZDKIZQ","","472.30000000074506","img/food4.png","75","478.40000000037253","2","1","3","2","1,0.5,0,1,0.5,0,0.5,0,1","0.5,0,1,0.5,0,1,0,1,0.5","2","false",""
"","html-keyboard-response","302","236653","0.0-356.0","3BXQMRHWK0KOXR0YLR50CWKVMNCMUZ","A2JZTR2ZSALGH4","3ECKRY5B1QIH1N6NFX1ECCW5ZDKIZQ","","null","<img src=""img/food4.png"" style=""width:200px; border:14px solid green;"">","null","","","","","","","","","",""
"","image-keyboard-response","303","237139","0.0-358.0","3BXQMRHWK0KOXR0YLR50CWKVMNCMUZ","A2JZTR2ZSALGH4","3ECKRY5B1QIH1N6NFX1ECCW5ZDKIZQ","","476.2999999988824","img/food5.png","74","480.40000000037253","1","0","1","2","1,0.5,0,1,0.5,0,0.5,0,1","0.5,0,1,0.5,0,1,0,1,0.5","2","false",""
"","html-keyboard-response","304","237446","0.0-359.0","3BXQMRHWK0KOXR0YLR50CWKVMNCMUZ","A2JZTR2ZSALGH4","3ECKRY5B1QIH1N6NFX1ECCW5ZDKIZQ","","null","<img src=""img/food5.png"" style=""width:200px;border:14px solid red;"">","null","","","","","","","","","",""
"","image-keyboard-response","305","238110","0.0-361.0","3BXQMRHWK0KOXR0YLR50CWKVMNCMUZ","A2JZTR2ZSALGH4","3ECKRY5B1QIH1N6NFX1ECCW5ZDKIZQ","","656.4000000003725","img/food6.png","76","661.0999999996275","3","1","2","2","1,0.5,0,1,0.5,0,0.5,0,1","0.5,0,1,0.5,0,1,0,1,0.5","2","false",""
"","html-keyboard-response","306","238416","0.0-362.0","3BXQMRHWK0KOXR0YLR50CWKVMNCMUZ","A2JZTR2ZSALGH4","3ECKRY5B1QIH1N6NFX1ECCW5ZDKIZQ","","null","<img src=""img/food6.png"" style=""width:200px; border:14px solid green;"">","null","","","","","","","","","",""
"","image-keyboard-response","307","239084","0.0-364.0","3BXQMRHWK0KOXR0YLR50CWKVMNCMUZ","A2JZTR2ZSALGH4","3ECKRY5B1QIH1N6NFX1ECCW5ZDKIZQ","","656.3999999985099","img/food4.png","74","664.5","1","0","3","2","1,0.5,0,1,0.5,0,0.5,0,1","0.5,0,1,0.5,0,1,0,1,0.5","2","false",""
"","html-keyboard-response","308","239395","0.0-365.0","3BXQMRHWK0KOXR0YLR50CWKVMNCMUZ","A2JZTR2ZSALGH4","3ECKRY5B1QIH1N6NFX1ECCW5ZDKIZQ","","null","<img src=""img/food4.png"" style=""width:200px;border:14px solid red;"">","null","","","","","","","","","",""
"","image-keyboard-response","309","240003","0.0-367.0","3BXQMRHWK0KOXR0YLR50CWKVMNCMUZ","A2JZTR2ZSALGH4","3ECKRY5B1QIH1N6NFX1ECCW5ZDKIZQ","","599.8000000007451","img/food6.png","75","606.2999999988824","2","0","2","2","1,0.5,0,1,0.5,0,0.5,0,1","0.5,0,1,0.5,0,1,0,1,0.5","2","false",""
"","html-keyboard-response","310","240313","0.0-368.0","3BXQMRHWK0KOXR0YLR50CWKVMNCMUZ","A2JZTR2ZSALGH4","3ECKRY5B1QIH1N6NFX1ECCW5ZDKIZQ","","null","<img src=""img/food6.png"" style=""width:200px;border:14px solid red;"">","null","","","","","","","","","",""
"","image-keyboard-response","311","241076","0.0-370.0","3BXQMRHWK0KOXR0YLR50CWKVMNCMUZ","A2JZTR2ZSALGH4","3ECKRY5B1QIH1N6NFX1ECCW5ZDKIZQ","","753.7000000011176","img/food4.png","75","760.9000000003725","2","1","3","2","1,0.5,0,1,0.5,0,0.5,0,1","0.5,0,1,0.5,0,1,0,1,0.5","2","false",""
"","html-keyboard-response","312","241382","0.0-371.0","3BXQMRHWK0KOXR0YLR50CWKVMNCMUZ","A2JZTR2ZSALGH4","3ECKRY5B1QIH1N6NFX1ECCW5ZDKIZQ","","null","<img src=""img/food4.png"" style=""width:200px; border:14px solid green;"">","null","","","","","","","","","",""
"","image-keyboard-response","313","242018","0.0-373.0","3BXQMRHWK0KOXR0YLR50CWKVMNCMUZ","A2JZTR2ZSALGH4","3ECKRY5B1QIH1N6NFX1ECCW5ZDKIZQ","","629.9000000003725","img/food5.png","74","633.2999999988824","1","1","1","2","1,0.5,0,1,0.5,0,0.5,0,1","0.5,0,1,0.5,0,1,0,1,0.5","2","false",""
"","html-keyboard-response","314","242326","0.0-374.0","3BXQMRHWK0KOXR0YLR50CWKVMNCMUZ","A2JZTR2ZSALGH4","3ECKRY5B1QIH1N6NFX1ECCW5ZDKIZQ","","null","<img src=""img/food5.png"" style=""width:200px; border:14px solid green;"">","null","","","","","","","","","",""
"","image-keyboard-response","315","242793","0.0-376.0","3BXQMRHWK0KOXR0YLR50CWKVMNCMUZ","A2JZTR2ZSALGH4","3ECKRY5B1QIH1N6NFX1ECCW5ZDKIZQ","","457","img/food5.png","74","462.5","1","0","1","2","1,0.5,0,1,0.5,0,0.5,0,1","0.5,0,1,0.5,0,1,0,1,0.5","2","false",""
"","html-keyboard-response","316","243098","0.0-377.0","3BXQMRHWK0KOXR0YLR50CWKVMNCMUZ","A2JZTR2ZSALGH4","3ECKRY5B1QIH1N6NFX1ECCW5ZDKIZQ","","null","<img src=""img/food5.png"" style=""width:200px;border:14px solid red;"">","null","","","","","","","","","",""
"","image-keyboard-response","317","243709","0.0-379.0","3BXQMRHWK0KOXR0YLR50CWKVMNCMUZ","A2JZTR2ZSALGH4","3ECKRY5B1QIH1N6NFX1ECCW5ZDKIZQ","","604.9000000003725","img/food5.png","75","609.0999999996275","2","0","1","2","1,0.5,0,1,0.5,0,0.5,0,1","0.5,0,1,0.5,0,1,0,1,0.5","2","false",""
"","html-keyboard-response","318","244014","0.0-380.0","3BXQMRHWK0KOXR0YLR50CWKVMNCMUZ","A2JZTR2ZSALGH4","3ECKRY5B1QIH1N6NFX1ECCW5ZDKIZQ","","null","<img src=""img/food5.png"" style=""width:200px;border:14px solid red;"">","null","","","","","","","","","",""
"","image-keyboard-response","319","244844","0.0-382.0","3BXQMRHWK0KOXR0YLR50CWKVMNCMUZ","A2JZTR2ZSALGH4","3ECKRY5B1QIH1N6NFX1ECCW5ZDKIZQ","","821.2999999988824","img/food4.png","75","826.5999999996275","2","1","3","2","1,0.5,0,1,0.5,0,0.5,0,1","0.5,0,1,0.5,0,1,0,1,0.5","2","false",""
"","html-keyboard-response","320","245151","0.0-383.0","3BXQMRHWK0KOXR0YLR50CWKVMNCMUZ","A2JZTR2ZSALGH4","3ECKRY5B1QIH1N6NFX1ECCW5ZDKIZQ","","null","<img src=""img/food4.png"" style=""width:200px; border:14px solid green;"">","null","","","","","","","","","",""
"","image-keyboard-response","321","245882","0.0-385.0","3BXQMRHWK0KOXR0YLR50CWKVMNCMUZ","A2JZTR2ZSALGH4","3ECKRY5B1QIH1N6NFX1ECCW5ZDKIZQ","","722.2000000011176","img/food6.png","76","729","3","1","2","2","1,0.5,0,1,0.5,0,0.5,0,1","0.5,0,1,0.5,0,1,0,1,0.5","2","false",""
"","html-keyboard-response","322","246191","0.0-386.0","3BXQMRHWK0KOXR0YLR50CWKVMNCMUZ","A2JZTR2ZSALGH4","3ECKRY5B1QIH1N6NFX1ECCW5ZDKIZQ","","null","<img src=""img/food6.png"" style=""width:200px; border:14px solid green;"">","null","","","","","","","","","",""
"","image-keyboard-response","323","246600","0.0-388.0","3BXQMRHWK0KOXR0YLR50CWKVMNCMUZ","A2JZTR2ZSALGH4","3ECKRY5B1QIH1N6NFX1ECCW5ZDKIZQ","","400.7000000011176","img/food6.png","76","406.2000000011176","3","1","2","2","1,0.5,0,1,0.5,0,0.5,0,1","0.5,0,1,0.5,0,1,0,1,0.5","2","false",""
"","html-keyboard-response","324","246906","0.0-389.0","3BXQMRHWK0KOXR0YLR50CWKVMNCMUZ","A2JZTR2ZSALGH4","3ECKRY5B1QIH1N6NFX1ECCW5ZDKIZQ","","null","<img src=""img/food6.png"" style=""width:200px; border:14px solid green;"">","null","","","","","","","","","",""
"","image-keyboard-response","325","247274","0.0-391.0","3BXQMRHWK0KOXR0YLR50CWKVMNCMUZ","A2JZTR2ZSALGH4","3ECKRY5B1QIH1N6NFX1ECCW5ZDKIZQ","","357","img/food6.png","76","364.90000000037253","3","1","2","2","1,0.5,0,1,0.5,0,0.5,0,1","0.5,0,1,0.5,0,1,0,1,0.5","2","false",""
"","html-keyboard-response","326","247578","0.0-392.0","3BXQMRHWK0KOXR0YLR50CWKVMNCMUZ","A2JZTR2ZSALGH4","3ECKRY5B1QIH1N6NFX1ECCW5ZDKIZQ","","null","<img src=""img/food6.png"" style=""width:200px; border:14px solid green;"">","null","","","","","","","","","",""
"","image-keyboard-response","327","248202","0.0-394.0","3BXQMRHWK0KOXR0YLR50CWKVMNCMUZ","A2JZTR2ZSALGH4","3ECKRY5B1QIH1N6NFX1ECCW5ZDKIZQ","","615.5","img/food4.png","75","621","2","1","3","2","1,0.5,0,1,0.5,0,0.5,0,1","0.5,0,1,0.5,0,1,0,1,0.5","2","false",""
"","html-keyboard-response","328","248508","0.0-395.0","3BXQMRHWK0KOXR0YLR50CWKVMNCMUZ","A2JZTR2ZSALGH4","3ECKRY5B1QIH1N6NFX1ECCW5ZDKIZQ","","null","<img src=""img/food4.png"" style=""width:200px; border:14px solid green;"">","null","","","","","","","","","",""
"","image-keyboard-response","329","249135","0.0-397.0","3BXQMRHWK0KOXR0YLR50CWKVMNCMUZ","A2JZTR2ZSALGH4","3ECKRY5B1QIH1N6NFX1ECCW5ZDKIZQ","","620.8000000007451","img/food6.png","76","624.5999999996275","3","1","2","2","1,0.5,0,1,0.5,0,0.5,0,1","0.5,0,1,0.5,0,1,0,1,0.5","2","false",""
"","html-keyboard-response","330","249445","0.0-398.0","3BXQMRHWK0KOXR0YLR50CWKVMNCMUZ","A2JZTR2ZSALGH4","3ECKRY5B1QIH1N6NFX1ECCW5ZDKIZQ","","null","<img src=""img/food6.png"" style=""width:200px; border:14px solid green;"">","null","","","","","","","","","",""
"","image-keyboard-response","331","249940","0.0-400.0","3BXQMRHWK0KOXR0YLR50CWKVMNCMUZ","A2JZTR2ZSALGH4","3ECKRY5B1QIH1N6NFX1ECCW5ZDKIZQ","","488.09999999962747","img/food6.png","76","492.40000000037253","3","1","2","2","1,0.5,0,1,0.5,0,0.5,0,1","0.5,0,1,0.5,0,1,0,1,0.5","2","false",""
"","html-keyboard-response","332","250247","0.0-401.0","3BXQMRHWK0KOXR0YLR50CWKVMNCMUZ","A2JZTR2ZSALGH4","3ECKRY5B1QIH1N6NFX1ECCW5ZDKIZQ","","null","<img src=""img/food6.png"" style=""width:200px; border:14px solid green;"">","null","","","","","","","","","",""
"","image-keyboard-response","333","250806","0.0-403.0","3BXQMRHWK0KOXR0YLR50CWKVMNCMUZ","A2JZTR2ZSALGH4","3ECKRY5B1QIH1N6NFX1ECCW5ZDKIZQ","","551.8000000007451","img/food4.png","75","556.8000000007451","2","1","3","2","1,0.5,0,1,0.5,0,0.5,0,1","0.5,0,1,0.5,0,1,0,1,0.5","2","false",""
"","html-keyboard-response","334","251113","0.0-404.0","3BXQMRHWK0KOXR0YLR50CWKVMNCMUZ","A2JZTR2ZSALGH4","3ECKRY5B1QIH1N6NFX1ECCW5ZDKIZQ","","null","<img src=""img/food4.png"" style=""width:200px; border:14px solid green;"">","null","","","","","","","","","",""
"","image-keyboard-response","335","251536","0.0-406.0","3BXQMRHWK0KOXR0YLR50CWKVMNCMUZ","A2JZTR2ZSALGH4","3ECKRY5B1QIH1N6NFX1ECCW5ZDKIZQ","","417.5","img/food4.png","75","421.5","2","1","3","2","1,0.5,0,1,0.5,0,0.5,0,1","0.5,0,1,0.5,0,1,0,1,0.5","2","false",""
"","html-keyboard-response","336","251844","0.0-407.0","3BXQMRHWK0KOXR0YLR50CWKVMNCMUZ","A2JZTR2ZSALGH4","3ECKRY5B1QIH1N6NFX1ECCW5ZDKIZQ","","null","<img src=""img/food4.png"" style=""width:200px; border:14px solid green;"">","null","","","","","","","","","",""
"","image-keyboard-response","337","252414","0.0-409.0","3BXQMRHWK0KOXR0YLR50CWKVMNCMUZ","A2JZTR2ZSALGH4","3ECKRY5B1QIH1N6NFX1ECCW5ZDKIZQ","","560.7000000011176","img/food5.png","75","568.0999999996275","2","0","1","2","1,0.5,0,1,0.5,0,0.5,0,1","0.5,0,1,0.5,0,1,0,1,0.5","2","false",""
"","html-keyboard-response","338","252720","0.0-410.0","3BXQMRHWK0KOXR0YLR50CWKVMNCMUZ","A2JZTR2ZSALGH4","3ECKRY5B1QIH1N6NFX1ECCW5ZDKIZQ","","null","<img src=""img/food5.png"" style=""width:200px;border:14px solid red;"">","null","","","","","","","","","",""
"","image-keyboard-response","339","253476","0.0-412.0","3BXQMRHWK0KOXR0YLR50CWKVMNCMUZ","A2JZTR2ZSALGH4","3ECKRY5B1QIH1N6NFX1ECCW5ZDKIZQ","","746.4000000003725","img/food4.png","75","753.5","2","1","3","2","1,0.5,0,1,0.5,0,0.5,0,1","0.5,0,1,0.5,0,1,0,1,0.5","2","false",""
"","html-keyboard-response","340","253783","0.0-413.0","3BXQMRHWK0KOXR0YLR50CWKVMNCMUZ","A2JZTR2ZSALGH4","3ECKRY5B1QIH1N6NFX1ECCW5ZDKIZQ","","null","<img src=""img/food4.png"" style=""width:200px; border:14px solid green;"">","null","","","","","","","","","",""
"","image-keyboard-response","341","254471","0.0-415.0","3BXQMRHWK0KOXR0YLR50CWKVMNCMUZ","A2JZTR2ZSALGH4","3ECKRY5B1QIH1N6NFX1ECCW5ZDKIZQ","","679.1999999992549","img/food5.png","75","686.2000000011176","2","0","1","2","1,0.5,0,1,0.5,0,0.5,0,1","0.5,0,1,0.5,0,1,0,1,0.5","2","false",""
"","html-keyboard-response","342","254778","0.0-416.0","3BXQMRHWK0KOXR0YLR50CWKVMNCMUZ","A2JZTR2ZSALGH4","3ECKRY5B1QIH1N6NFX1ECCW5ZDKIZQ","","null","<img src=""img/food5.png"" style=""width:200px;border:14px solid red;"">","null","","","","","","","","","",""
"","image-keyboard-response","343","255331","0.0-418.0","3BXQMRHWK0KOXR0YLR50CWKVMNCMUZ","A2JZTR2ZSALGH4","3ECKRY5B1QIH1N6NFX1ECCW5ZDKIZQ","","544","img/food6.png","76","548.5","3","1","2","2","1,0.5,0,1,0.5,0,0.5,0,1","0.5,0,1,0.5,0,1,0,1,0.5","2","false",""
"","html-keyboard-response","344","255640","0.0-419.0","3BXQMRHWK0KOXR0YLR50CWKVMNCMUZ","A2JZTR2ZSALGH4","3ECKRY5B1QIH1N6NFX1ECCW5ZDKIZQ","","null","<img src=""img/food6.png"" style=""width:200px; border:14px solid green;"">","null","","","","","","","","","",""
"","image-keyboard-response","345","256011","0.0-421.0","3BXQMRHWK0KOXR0YLR50CWKVMNCMUZ","A2JZTR2ZSALGH4","3ECKRY5B1QIH1N6NFX1ECCW5ZDKIZQ","","362.59999999962747","img/food6.png","76","368.30000000074506","3","1","2","2","1,0.5,0,1,0.5,0,0.5,0,1","0.5,0,1,0.5,0,1,0,1,0.5","2","false",""
"","html-keyboard-response","346","256317","0.0-422.0","3BXQMRHWK0KOXR0YLR50CWKVMNCMUZ","A2JZTR2ZSALGH4","3ECKRY5B1QIH1N6NFX1ECCW5ZDKIZQ","","null","<img src=""img/food6.png"" style=""width:200px; border:14px solid green;"">","null","","","","","","","","","",""
"","image-keyboard-response","347","256895","0.0-424.0","3BXQMRHWK0KOXR0YLR50CWKVMNCMUZ","A2JZTR2ZSALGH4","3ECKRY5B1QIH1N6NFX1ECCW5ZDKIZQ","","571","img/food5.png","76","575.7000000011176","3","1","1","2","1,0.5,0,1,0.5,0,0.5,0,1","0.5,0,1,0.5,0,1,0,1,0.5","2","false",""
"","html-keyboard-response","348","257200","0.0-425.0","3BXQMRHWK0KOXR0YLR50CWKVMNCMUZ","A2JZTR2ZSALGH4","3ECKRY5B1QIH1N6NFX1ECCW5ZDKIZQ","","null","<img src=""img/food5.png"" style=""width:200px; border:14px solid green;"">","null","","","","","","","","","",""
"","image-keyboard-response","349","257557","0.0-427.0","3BXQMRHWK0KOXR0YLR50CWKVMNCMUZ","A2JZTR2ZSALGH4","3ECKRY5B1QIH1N6NFX1ECCW5ZDKIZQ","","349.7999999988824","img/food5.png","76","355.1000000014901","3","1","1","2","1,0.5,0,1,0.5,0,0.5,0,1","0.5,0,1,0.5,0,1,0,1,0.5","2","false",""
"","html-keyboard-response","350","257863","0.0-428.0","3BXQMRHWK0KOXR0YLR50CWKVMNCMUZ","A2JZTR2ZSALGH4","3ECKRY5B1QIH1N6NFX1ECCW5ZDKIZQ","","null","<img src=""img/food5.png"" style=""width:200px; border:14px solid green;"">","null","","","","","","","","","",""
"","image-keyboard-response","351","258427","0.0-430.0","3BXQMRHWK0KOXR0YLR50CWKVMNCMUZ","A2JZTR2ZSALGH4","3ECKRY5B1QIH1N6NFX1ECCW5ZDKIZQ","","555.6999999992549","img/food6.png","75","561.5","2","0","2","2","1,0.5,0,1,0.5,0,0.5,0,1","0.5,0,1,0.5,0,1,0,1,0.5","2","false",""
"","html-keyboard-response","352","258734","0.0-431.0","3BXQMRHWK0KOXR0YLR50CWKVMNCMUZ","A2JZTR2ZSALGH4","3ECKRY5B1QIH1N6NFX1ECCW5ZDKIZQ","","null","<img src=""img/food6.png"" style=""width:200px;border:14px solid red;"">","null","","","","","","","","","",""
"","image-keyboard-response","353","259086","0.0-433.0","3BXQMRHWK0KOXR0YLR50CWKVMNCMUZ","A2JZTR2ZSALGH4","3ECKRY5B1QIH1N6NFX1ECCW5ZDKIZQ","","342.7000000011176","img/food6.png","76","349.09999999962747","3","1","2","2","1,0.5,0,1,0.5,0,0.5,0,1","0.5,0,1,0.5,0,1,0,1,0.5","2","false",""
"","html-keyboard-response","354","259393","0.0-434.0","3BXQMRHWK0KOXR0YLR50CWKVMNCMUZ","A2JZTR2ZSALGH4","3ECKRY5B1QIH1N6NFX1ECCW5ZDKIZQ","","null","<img src=""img/food6.png"" style=""width:200px; border:14px solid green;"">","null","","","","","","","","","",""
"","image-keyboard-response","355","260401","0.0-436.0","3BXQMRHWK0KOXR0YLR50CWKVMNCMUZ","A2JZTR2ZSALGH4","3ECKRY5B1QIH1N6NFX1ECCW5ZDKIZQ","","","img/food5.png","","1006.1000000014901","-1","0","1","2","1,0.5,0,1,0.5,0,0.5,0,1","0.5,0,1,0.5,0,1,0,1,0.5","2","true",""
"","html-keyboard-response","356","260711","0.0-437.0","3BXQMRHWK0KOXR0YLR50CWKVMNCMUZ","A2JZTR2ZSALGH4","3ECKRY5B1QIH1N6NFX1ECCW5ZDKIZQ","","null","<img src=""img/food5.png"" style=""width:200px;border:14px solid red;"">","null","","","","","","","","","",""
"","html-keyboard-response","357","262811","0.0-438.0-0.0","3BXQMRHWK0KOXR0YLR50CWKVMNCMUZ","A2JZTR2ZSALGH4","3ECKRY5B1QIH1N6NFX1ECCW5ZDKIZQ","","","","","","","","","","","","","",""
"","image-keyboard-response","358","263597","0.0-439.0","3BXQMRHWK0KOXR0YLR50CWKVMNCMUZ","A2JZTR2ZSALGH4","3ECKRY5B1QIH1N6NFX1ECCW5ZDKIZQ","","780.3999999985099","img/food4.png","75","785.5","2","1","3","2","1,0.5,0,1,0.5,0,0.5,0,1","0.5,0,1,0.5,0,1,0,1,0.5","2","false",""
"","html-keyboard-response","359","263906","0.0-440.0","3BXQMRHWK0KOXR0YLR50CWKVMNCMUZ","A2JZTR2ZSALGH4","3ECKRY5B1QIH1N6NFX1ECCW5ZDKIZQ","","null","<img src=""img/food4.png"" style=""width:200px; border:14px solid green;"">","null","","","","","","","","","",""
"","image-keyboard-response","360","264384","0.0-442.0","3BXQMRHWK0KOXR0YLR50CWKVMNCMUZ","A2JZTR2ZSALGH4","3ECKRY5B1QIH1N6NFX1ECCW5ZDKIZQ","","470.2000000011176","img/food4.png","75","475.30000000074506","2","1","3","2","1,0.5,0,1,0.5,0,0.5,0,1","0.5,0,1,0.5,0,1,0,1,0.5","2","false",""
"","html-keyboard-response","361","264690","0.0-443.0","3BXQMRHWK0KOXR0YLR50CWKVMNCMUZ","A2JZTR2ZSALGH4","3ECKRY5B1QIH1N6NFX1ECCW5ZDKIZQ","","null","<img src=""img/food4.png"" style=""width:200px; border:14px solid green;"">","null","","","","","","","","","",""
"","image-keyboard-response","362","265275","0.0-445.0","3BXQMRHWK0KOXR0YLR50CWKVMNCMUZ","A2JZTR2ZSALGH4","3ECKRY5B1QIH1N6NFX1ECCW5ZDKIZQ","","575.3000000007451","img/food5.png","76","582.3000000007451","3","1","1","2","1,0.5,0,1,0.5,0,0.5,0,1","0.5,0,1,0.5,0,1,0,1,0.5","2","false",""
"","html-keyboard-response","363","265582","0.0-446.0","3BXQMRHWK0KOXR0YLR50CWKVMNCMUZ","A2JZTR2ZSALGH4","3ECKRY5B1QIH1N6NFX1ECCW5ZDKIZQ","","null","<img src=""img/food5.png"" style=""width:200px; border:14px solid green;"">","null","","","","","","","","","",""
"","image-keyboard-response","364","266325","0.0-448.0","3BXQMRHWK0KOXR0YLR50CWKVMNCMUZ","A2JZTR2ZSALGH4","3ECKRY5B1QIH1N6NFX1ECCW5ZDKIZQ","","735.9000000003725","img/food4.png","75","739.7000000011176","2","1","3","2","1,0.5,0,1,0.5,0,0.5,0,1","0.5,0,1,0.5,0,1,0,1,0.5","2","false",""
"","html-keyboard-response","365","266630","0.0-449.0","3BXQMRHWK0KOXR0YLR50CWKVMNCMUZ","A2JZTR2ZSALGH4","3ECKRY5B1QIH1N6NFX1ECCW5ZDKIZQ","","null","<img src=""img/food4.png"" style=""width:200px; border:14px solid green;"">","null","","","","","","","","","",""
"","image-keyboard-response","366","267181","0.0-451.0","3BXQMRHWK0KOXR0YLR50CWKVMNCMUZ","A2JZTR2ZSALGH4","3ECKRY5B1QIH1N6NFX1ECCW5ZDKIZQ","","543","img/food6.png","76","546.5999999996275","3","1","2","2","1,0.5,0,1,0.5,0,0.5,0,1","0.5,0,1,0.5,0,1,0,1,0.5","2","false",""
"","html-keyboard-response","367","267488","0.0-452.0","3BXQMRHWK0KOXR0YLR50CWKVMNCMUZ","A2JZTR2ZSALGH4","3ECKRY5B1QIH1N6NFX1ECCW5ZDKIZQ","","null","<img src=""img/food6.png"" style=""width:200px; border:14px solid green;"">","null","","","","","","","","","",""
"","instructions","368","270089","0.0-454.0","3BXQMRHWK0KOXR0YLR50CWKVMNCMUZ","A2JZTR2ZSALGH4","3ECKRY5B1QIH1N6NFX1ECCW5ZDKIZQ","[{""page_index"":0,""viewing_time"":2593.10000000149}]","2595.10000000149","","","","","","","","","","","",""
"","survey-text","369","274377","0.0-455.0","3BXQMRHWK0KOXR0YLR50CWKVMNCMUZ","A2JZTR2ZSALGH4","3ECKRY5B1QIH1N6NFX1ECCW5ZDKIZQ","","4269.5999999996275","","","","","","","","","","","","{""Q0"":""A2JZTR2ZSALGH4""}"
