"success","trial_type","trial_index","time_elapsed","internal_node_id","assignmentID","mturkID","hitID","view_history","rt","stimulus","key_press","reactionTime","a","r","s","cond","reward_cond","reward_cond_actual","reward_matrix_idx","warning","responses"
"true","fullscreen","0","2506","0.0-0.0","","","","","","","","","","","","","","","","",""
"","instructions","1","18104","0.0-1.0","","","","[{""page_index"":0,""viewing_time"":6923.800000011921},{""page_index"":1,""viewing_time"":1785.7999999523163},{""page_index"":2,""viewing_time"":718},{""page_index"":3,""viewing_time"":2446.7000000476837},{""page_index"":4,""viewing_time"":1543.3999999761581},{""page_index"":5,""viewing_time"":1085.8999999761581},{""page_index"":6,""viewing_time"":1092}]","15595.899999976158","","","","","","","","","","","",""
"","image-keyboard-response","2","18671","0.0-2.0","","","","","565.4000000357628","img/food3.png","74","566.9000000357628","1","1","3","1","1,0.7,0,1,0.7,0,0.7,0,1","1,0.7,0,1,0.7,0,0.7,0,1","1","",""
"","html-keyboard-response","3","18981","0.0-3.0","","","","","null","<img src=""img/food3.png"" style=""width:200px; border:14px solid green;"">","null","","","","","","","","","",""
"","image-keyboard-response","4","19094","0.0-4.0","","","","","110.60000002384186","img/food3.png","75","111.69999998807907","2","0","3","1","1,0.7,0,1,0.7,0,0.7,0,1","1,0.7,0,1,0.7,0,0.7,0,1","1","",""
"","html-keyboard-response","5","19405","0.0-5.0","","","","","null","<img src=""img/food3.png"" style=""width:200px;border:14px solid red;"">","null","","","","","","","","","",""
"","image-keyboard-response","6","19582","0.0-6.0","","","","","176.10000002384186","img/food3.png","74","176.80000001192093","1","0","3","1","1,0.7,0,1,0.7,0,0.7,0,1","1,0.7,0,1,0.7,0,0.7,0,1","1","",""
"","html-keyboard-response","7","19884","0.0-7.0","","","","","null","<img src=""img/food3.png"" style=""width:200px;border:14px solid red;"">","null","","","","","","","","","",""
"","image-keyboard-response","8","19950","0.0-8.0","","","","","64.60000002384186","img/food1.png","76","65.39999997615814","3","0","1","1","1,0.7,0,1,0.7,0,0.7,0,1","1,0.7,0,1,0.7,0,0.7,0,1","1","",""
"","html-keyboard-response","9","20265","0.0-9.0","","","","","null","<img src=""img/food1.png"" style=""width:200px;border:14px solid red;"">","null","","","","","","","","","",""
"","image-keyboard-response","10","20486","0.0-10.0","","","","","220.89999997615814","img/food3.png","75","221.69999998807907","2","0","3","1","1,0.7,0,1,0.7,0,0.7,0,1","1,0.7,0,1,0.7,0,0.7,0,1","1","",""
"","html-keyboard-response","11","20801","0.0-11.0","","","","","null","<img src=""img/food3.png"" style=""width:200px;border:14px solid red;"">","null","","","","","","","","","",""
"","image-keyboard-response","12","20974","0.0-12.0","","","","","171.89999997615814","img/food3.png","75","172.89999997615814","2","0","3","1","1,0.7,0,1,0.7,0,0.7,0,1","1,0.7,0,1,0.7,0,0.7,0,1","1","",""
"","html-keyboard-response","13","21282","0.0-13.0","","","","","null","<img src=""img/food3.png"" style=""width:200px;border:14px solid red;"">","null","","","","","","","","","",""
"","image-keyboard-response","14","21422","0.0-14.0","","","","","138.5999999642372","img/food1.png","74","139.5","1","1","1","1","1,0.7,0,1,0.7,0,0.7,0,1","1,0.7,0,1,0.7,0,0.7,0,1","1","",""
"","html-keyboard-response","15","21729","0.0-15.0","","","","","null","<img src=""img/food1.png"" style=""width:200px; border:14px solid green;"">","null","","","","","","","","","",""
"","image-keyboard-response","16","21950","0.0-16.0","","","","","219.69999998807907","img/food3.png","75","220.80000001192093","2","0","3","1","1,0.7,0,1,0.7,0,0.7,0,1","1,0.7,0,1,0.7,0,0.7,0,1","1","",""
"","html-keyboard-response","17","22259","0.0-17.0","","","","","null","<img src=""img/food3.png"" style=""width:200px;border:14px solid red;"">","null","","","","","","","","","",""
"","image-keyboard-response","18","22358","0.0-18.0","","","","","97.69999998807907","img/food5.png","75","98.60000002384186","2","1","2","1","1,0.7,0,1,0.7,0,0.7,0,1","1,0.7,0,1,0.7,0,0.7,0,1","1","",""
"","html-keyboard-response","19","22665","0.0-19.0","","","","","null","<img src=""img/food5.png"" style=""width:200px; border:14px solid green;"">","null","","","","","","","","","",""
"","image-keyboard-response","20","22839","0.0-20.0","","","","","171.80000001192093","img/food1.png","74","173.0999999642372","1","1","1","1","1,0.7,0,1,0.7,0,0.7,0,1","1,0.7,0,1,0.7,0,0.7,0,1","1","",""
"","html-keyboard-response","21","23149","0.0-21.0","","","","","null","<img src=""img/food1.png"" style=""width:200px; border:14px solid green;"">","null","","","","","","","","","",""
"","image-keyboard-response","22","23262","0.0-22.0","","","","","112","img/food1.png","75","112.80000001192093","2","1","1","1","1,0.7,0,1,0.7,0,0.7,0,1","1,0.7,0,1,0.7,0,0.7,0,1","1","",""
"","html-keyboard-response","23","23570","0.0-23.0","","","","","null","<img src=""img/food1.png"" style=""width:200px; border:14px solid green;"">","null","","","","","","","","","",""
"","image-keyboard-response","24","23672","0.0-24.0","","","","","100.5","img/food1.png","76","101.30000001192093","3","0","1","1","1,0.7,0,1,0.7,0,0.7,0,1","1,0.7,0,1,0.7,0,0.7,0,1","1","",""
"","html-keyboard-response","25","23974","0.0-25.0","","","","","null","<img src=""img/food1.png"" style=""width:200px;border:14px solid red;"">","null","","","","","","","","","",""
"","image-keyboard-response","26","24054","0.0-26.0","","","","","78.89999997615814","img/food1.png","76","79.80000001192093","3","0","1","1","1,0.7,0,1,0.7,0,0.7,0,1","1,0.7,0,1,0.7,0,0.7,0,1","1","",""
"","html-keyboard-response","27","24365","0.0-27.0","","","","","null","<img src=""img/food1.png"" style=""width:200px;border:14px solid red;"">","null","","","","","","","","","",""
"","image-keyboard-response","28","24638","0.0-28.0","","","","","272.30000001192093","img/food3.png","74","272.89999997615814","1","1","3","1","1,0.7,0,1,0.7,0,0.7,0,1","1,0.7,0,1,0.7,0,0.7,0,1","1","",""
"","html-keyboard-response","29","24949","0.0-29.0","","","","","null","<img src=""img/food3.png"" style=""width:200px; border:14px solid green;"">","null","","","","","","","","","",""
"","image-keyboard-response","30","24966","0.0-30.0","","","","","15.5","img/food1.png","74","16.799999952316284","1","1","1","1","1,0.7,0,1,0.7,0,0.7,0,1","1,0.7,0,1,0.7,0,0.7,0,1","1","",""
"","html-keyboard-response","31","25275","0.0-31.0","","","","","null","<img src=""img/food1.png"" style=""width:200px; border:14px solid green;"">","null","","","","","","","","","",""
"","image-keyboard-response","32","25638","0.0-32.0","","","","","361.5","img/food3.png","74","362.30000001192093","1","1","3","1","1,0.7,0,1,0.7,0,0.7,0,1","1,0.7,0,1,0.7,0,0.7,0,1","1","",""
"","html-keyboard-response","33","25943","0.0-33.0","","","","","null","<img src=""img/food3.png"" style=""width:200px; border:14px solid green;"">","null","","","","","","","","","",""
"","image-keyboard-response","34","25982","0.0-34.0","","","","","37.39999997615814","img/food5.png","75","38.5","2","1","2","1","1,0.7,0,1,0.7,0,0.7,0,1","1,0.7,0,1,0.7,0,0.7,0,1","1","",""
"","html-keyboard-response","35","26286","0.0-35.0","","","","","null","<img src=""img/food5.png"" style=""width:200px; border:14px solid green;"">","null","","","","","","","","","",""
"","image-keyboard-response","36","26358","0.0-36.0","","","","","71.5","img/food3.png","76","72.30000001192093","3","1","3","1","1,0.7,0,1,0.7,0,0.7,0,1","1,0.7,0,1,0.7,0,0.7,0,1","1","",""
"","html-keyboard-response","37","26673","0.0-37.0","","","","","null","<img src=""img/food3.png"" style=""width:200px; border:14px solid green;"">","null","","","","","","","","","",""
"","image-keyboard-response","38","26782","0.0-38.0","","","","","108.10000002384186","img/food5.png","74","109.19999998807907","1","1","2","1","1,0.7,0,1,0.7,0,0.7,0,1","1,0.7,0,1,0.7,0,0.7,0,1","1","",""
"","html-keyboard-response","39","27094","0.0-39.0","","","","","null","<img src=""img/food5.png"" style=""width:200px; border:14px solid green;"">","null","","","","","","","","","",""
"","image-keyboard-response","40","27206","0.0-40.0","","","","","110.39999997615814","img/food1.png","76","111.40000003576279","3","0","1","1","1,0.7,0,1,0.7,0,0.7,0,1","1,0.7,0,1,0.7,0,0.7,0,1","1","",""
"","html-keyboard-response","41","27522","0.0-41.0","","","","","null","<img src=""img/food1.png"" style=""width:200px;border:14px solid red;"">","null","","","","","","","","","",""
"","image-keyboard-response","42","28047","0.0-42.0","","","","","522.5","img/food5.png","74","523.8999999761581","1","1","2","1","1,0.7,0,1,0.7,0,0.7,0,1","1,0.7,0,1,0.7,0,0.7,0,1","1","",""
"","html-keyboard-response","43","28354","0.0-43.0","","","","","null","<img src=""img/food5.png"" style=""width:200px; border:14px solid green;"">","null","","","","","","","","","",""
"","image-keyboard-response","44","28382","0.0-44.0","","","","","26.599999964237213","img/food5.png","75","27.30000001192093","2","0","2","1","1,0.7,0,1,0.7,0,0.7,0,1","1,0.7,0,1,0.7,0,0.7,0,1","1","",""
"","html-keyboard-response","45","28683","0.0-45.0","","","","","null","<img src=""img/food5.png"" style=""width:200px;border:14px solid red;"">","null","","","","","","","","","",""
"","image-keyboard-response","46","28966","0.0-46.0","","","","","281.30000001192093","img/food5.png","74","282.30000001192093","1","1","2","1","1,0.7,0,1,0.7,0,0.7,0,1","1,0.7,0,1,0.7,0,0.7,0,1","1","",""
"","html-keyboard-response","47","29275","0.0-47.0","","","","","null","<img src=""img/food5.png"" style=""width:200px; border:14px solid green;"">","null","","","","","","","","","",""
"","image-keyboard-response","48","29622","0.0-48.0","","","","","345.69999998807907","img/food1.png","74","346.5","1","1","1","1","1,0.7,0,1,0.7,0,0.7,0,1","1,0.7,0,1,0.7,0,0.7,0,1","1","",""
"","html-keyboard-response","49","29936","0.0-49.0","","","","","null","<img src=""img/food1.png"" style=""width:200px; border:14px solid green;"">","null","","","","","","","","","",""
"","image-keyboard-response","50","29982","0.0-50.0","","","","","44.90000003576279","img/food5.png","76","45.69999998807907","3","0","2","1","1,0.7,0,1,0.7,0,0.7,0,1","1,0.7,0,1,0.7,0,0.7,0,1","1","",""
"","html-keyboard-response","51","30294","0.0-51.0","","","","","null","<img src=""img/food5.png"" style=""width:200px;border:14px solid red;"">","null","","","","","","","","","",""
"","image-keyboard-response","52","30358","0.0-52.0","","","","","63.30000001192093","img/food1.png","76","64","3","0","1","1","1,0.7,0,1,0.7,0,0.7,0,1","1,0.7,0,1,0.7,0,0.7,0,1","1","",""
"","html-keyboard-response","53","30660","0.0-53.0","","","","","null","<img src=""img/food1.png"" style=""width:200px;border:14px solid red;"">","null","","","","","","","","","",""
"","image-keyboard-response","54","30750","0.0-54.0","","","","","89.30000001192093","img/food5.png","76","90.09999996423721","3","0","2","1","1,0.7,0,1,0.7,0,0.7,0,1","1,0.7,0,1,0.7,0,0.7,0,1","1","",""
"","html-keyboard-response","55","31051","0.0-55.0","","","","","null","<img src=""img/food5.png"" style=""width:200px;border:14px solid red;"">","null","","","","","","","","","",""
"","image-keyboard-response","56","31207","0.0-56.0","","","","","154.4000000357628","img/food1.png","75","155.30000001192093","2","1","1","1","1,0.7,0,1,0.7,0,0.7,0,1","1,0.7,0,1,0.7,0,0.7,0,1","1","",""
"","html-keyboard-response","57","31509","0.0-57.0","","","","","null","<img src=""img/food1.png"" style=""width:200px; border:14px solid green;"">","null","","","","","","","","","",""
"","image-keyboard-response","58","31671","0.0-58.0","","","","","160.10000002384186","img/food1.png","74","161.19999998807907","1","1","1","1","1,0.7,0,1,0.7,0,0.7,0,1","1,0.7,0,1,0.7,0,0.7,0,1","1","",""
"","html-keyboard-response","59","31973","0.0-59.0","","","","","null","<img src=""img/food1.png"" style=""width:200px; border:14px solid green;"">","null","","","","","","","","","",""
"","image-keyboard-response","60","32277","0.0-60.0","","","","","303.5","img/food1.png","76","304.30000001192093","3","0","1","1","1,0.7,0,1,0.7,0,0.7,0,1","1,0.7,0,1,0.7,0,0.7,0,1","1","",""
"","html-keyboard-response","61","32591","0.0-61.0","","","","","null","<img src=""img/food1.png"" style=""width:200px;border:14px solid red;"">","null","","","","","","","","","",""
"","image-keyboard-response","62","32726","0.0-62.0","","","","","134.5","img/food3.png","75","135.19999998807907","2","0","3","1","1,0.7,0,1,0.7,0,0.7,0,1","1,0.7,0,1,0.7,0,0.7,0,1","1","",""
"","html-keyboard-response","63","33029","0.0-63.0","","","","","null","<img src=""img/food3.png"" style=""width:200px;border:14px solid red;"">","null","","","","","","","","","",""
"","image-keyboard-response","64","33141","0.0-64.0","","","","","112","img/food3.png","75","112.59999996423721","2","0","3","1","1,0.7,0,1,0.7,0,0.7,0,1","1,0.7,0,1,0.7,0,0.7,0,1","1","",""
"","html-keyboard-response","65","33447","0.0-65.0","","","","","null","<img src=""img/food3.png"" style=""width:200px;border:14px solid red;"">","null","","","","","","","","","",""
"","image-keyboard-response","66","33613","0.0-66.0","","","","","165.80000001192093","img/food3.png","75","166.5","2","0","3","1","1,0.7,0,1,0.7,0,0.7,0,1","1,0.7,0,1,0.7,0,0.7,0,1","1","",""
"","html-keyboard-response","67","33915","0.0-67.0","","","","","null","<img src=""img/food3.png"" style=""width:200px;border:14px solid red;"">","null","","","","","","","","","",""
"","image-keyboard-response","68","34094","0.0-68.0","","","","","178.60000002384186","img/food1.png","74","179.29999995231628","1","1","1","1","1,0.7,0,1,0.7,0,0.7,0,1","1,0.7,0,1,0.7,0,0.7,0,1","1","",""
"","html-keyboard-response","69","34396","0.0-69.0","","","","","null","<img src=""img/food1.png"" style=""width:200px; border:14px solid green;"">","null","","","","","","","","","",""
"","image-keyboard-response","70","34454","0.0-70.0","","","","","56.59999996423721","img/food5.png","74","57.09999996423721","1","1","2","1","1,0.7,0,1,0.7,0,0.7,0,1","1,0.7,0,1,0.7,0,0.7,0,1","1","",""
"","html-keyboard-response","71","34755","0.0-71.0","","","","","null","<img src=""img/food5.png"" style=""width:200px; border:14px solid green;"">","null","","","","","","","","","",""
"","image-keyboard-response","72","34822","0.0-72.0","","","","","66.10000002384186","img/food5.png","76","66.80000001192093","3","0","2","1","1,0.7,0,1,0.7,0,0.7,0,1","1,0.7,0,1,0.7,0,0.7,0,1","1","",""
"","html-keyboard-response","73","35123","0.0-73.0","","","","","null","<img src=""img/food5.png"" style=""width:200px;border:14px solid red;"">","null","","","","","","","","","",""
"","image-keyboard-response","74","35263","0.0-74.0","","","","","138.89999997615814","img/food3.png","75","139.5","2","0","3","1","1,0.7,0,1,0.7,0,0.7,0,1","1,0.7,0,1,0.7,0,0.7,0,1","1","",""
"","html-keyboard-response","75","35565","0.0-75.0","","","","","null","<img src=""img/food3.png"" style=""width:200px;border:14px solid red;"">","null","","","","","","","","","",""
"","image-keyboard-response","76","35638","0.0-76.0","","","","","71.40000003576279","img/food1.png","75","72.29999995231628","2","0","1","1","1,0.7,0,1,0.7,0,0.7,0,1","1,0.7,0,1,0.7,0,0.7,0,1","1","",""
"","html-keyboard-response","77","35939","0.0-77.0","","","","","null","<img src=""img/food1.png"" style=""width:200px;border:14px solid red;"">","null","","","","","","","","","",""
"","image-keyboard-response","78","36007","0.0-78.0","","","","","66.80000001192093","img/food3.png","74","67.89999997615814","1","0","3","1","1,0.7,0,1,0.7,0,0.7,0,1","1,0.7,0,1,0.7,0,0.7,0,1","1","",""
"","html-keyboard-response","79","36308","0.0-79.0","","","","","null","<img src=""img/food3.png"" style=""width:200px;border:14px solid red;"">","null","","","","","","","","","",""
"","image-keyboard-response","80","36495","0.0-80.0","","","","","185.19999998807907","img/food5.png","75","186","2","1","2","1","1,0.7,0,1,0.7,0,0.7,0,1","1,0.7,0,1,0.7,0,0.7,0,1","1","",""
"","html-keyboard-response","81","36797","0.0-81.0","","","","","null","<img src=""img/food5.png"" style=""width:200px; border:14px solid green;"">","null","","","","","","","","","",""
"","image-keyboard-response","82","36886","0.0-82.0","","","","","88.20000004768372","img/food5.png","75","88.90000003576279","2","0","2","1","1,0.7,0,1,0.7,0,0.7,0,1","1,0.7,0,1,0.7,0,0.7,0,1","1","",""
"","html-keyboard-response","83","37188","0.0-83.0","","","","","null","<img src=""img/food5.png"" style=""width:200px;border:14px solid red;"">","null","","","","","","","","","",""
"","image-keyboard-response","84","37470","0.0-84.0","","","","","281","img/food1.png","75","281.69999998807907","2","1","1","1","1,0.7,0,1,0.7,0,0.7,0,1","1,0.7,0,1,0.7,0,0.7,0,1","1","",""
"","html-keyboard-response","85","37772","0.0-85.0","","","","","null","<img src=""img/food1.png"" style=""width:200px; border:14px solid green;"">","null","","","","","","","","","",""
"","image-keyboard-response","86","37950","0.0-86.0","","","","","177.19999998807907","img/food1.png","75","178.30000001192093","2","0","1","1","1,0.7,0,1,0.7,0,0.7,0,1","1,0.7,0,1,0.7,0,0.7,0,1","1","",""
"","html-keyboard-response","87","38253","0.0-87.0","","","","","null","<img src=""img/food1.png"" style=""width:200px;border:14px solid red;"">","null","","","","","","","","","",""
"","image-keyboard-response","88","38429","0.0-88.0","","","","","175.29999995231628","img/food1.png","75","176","2","1","1","1","1,0.7,0,1,0.7,0,0.7,0,1","1,0.7,0,1,0.7,0,0.7,0,1","1","",""
"","html-keyboard-response","89","38732","0.0-89.0","","","","","null","<img src=""img/food1.png"" style=""width:200px; border:14px solid green;"">","null","","","","","","","","","",""
"","image-keyboard-response","90","38837","0.0-90.0","","","","","105","img/food5.png","75","105.69999998807907","2","0","2","1","1,0.7,0,1,0.7,0,0.7,0,1","1,0.7,0,1,0.7,0,0.7,0,1","1","",""
"","html-keyboard-response","91","39139","0.0-91.0","","","","","null","<img src=""img/food5.png"" style=""width:200px;border:14px solid red;"">","null","","","","","","","","","",""
"","image-keyboard-response","92","39238","0.0-92.0","","","","","98.40000003576279","img/food3.png","75","98.89999997615814","2","0","3","1","1,0.7,0,1,0.7,0,0.7,0,1","1,0.7,0,1,0.7,0,0.7,0,1","1","",""
"","html-keyboard-response","93","39539","0.0-93.0","","","","","null","<img src=""img/food3.png"" style=""width:200px;border:14px solid red;"">","null","","","","","","","","","",""
"","image-keyboard-response","94","39629","0.0-94.0","","","","","89.5","img/food5.png","75","90.30000001192093","2","1","2","1","1,0.7,0,1,0.7,0,0.7,0,1","1,0.7,0,1,0.7,0,0.7,0,1","1","",""
"","html-keyboard-response","95","39931","0.0-95.0","","","","","null","<img src=""img/food5.png"" style=""width:200px; border:14px solid green;"">","null","","","","","","","","","",""
"","image-keyboard-response","96","40102","0.0-96.0","","","","","169.30000001192093","img/food5.png","76","170.80000001192093","3","0","2","1","1,0.7,0,1,0.7,0,0.7,0,1","1,0.7,0,1,0.7,0,0.7,0,1","1","",""
"","html-keyboard-response","97","40404","0.0-97.0","","","","","null","<img src=""img/food5.png"" style=""width:200px;border:14px solid red;"">","null","","","","","","","","","",""
"","image-keyboard-response","98","40502","0.0-98.0","","","","","97","img/food1.png","76","97.5","3","0","1","1","1,0.7,0,1,0.7,0,0.7,0,1","1,0.7,0,1,0.7,0,0.7,0,1","1","",""
"","html-keyboard-response","99","40803","0.0-99.0","","","","","null","<img src=""img/food1.png"" style=""width:200px;border:14px solid red;"">","null","","","","","","","","","",""
"","image-keyboard-response","100","41006","0.0-100.0","","","","","201.69999998807907","img/food3.png","74","202.69999998807907","1","1","3","1","1,0.7,0,1,0.7,0,0.7,0,1","1,0.7,0,1,0.7,0,0.7,0,1","1","",""
"","html-keyboard-response","101","41309","0.0-101.0","","","","","null","<img src=""img/food3.png"" style=""width:200px; border:14px solid green;"">","null","","","","","","","","","",""
"","image-keyboard-response","102","41398","0.0-102.0","","","","","87.39999997615814","img/food5.png","74","88.40000003576279","1","1","2","1","1,0.7,0,1,0.7,0,0.7,0,1","1,0.7,0,1,0.7,0,0.7,0,1","1","",""
"","html-keyboard-response","103","41700","0.0-103.0","","","","","null","<img src=""img/food5.png"" style=""width:200px; border:14px solid green;"">","null","","","","","","","","","",""
"","image-keyboard-response","104","41710","0.0-104.0","","","","","9","img/food1.png","74","10","1","1","1","1","1,0.7,0,1,0.7,0,0.7,0,1","1,0.7,0,1,0.7,0,0.7,0,1","1","",""
"","html-keyboard-response","105","42012","0.0-105.0","","","","","null","<img src=""img/food1.png"" style=""width:200px; border:14px solid green;"">","null","","","","","","","","","",""
"","image-keyboard-response","106","42126","0.0-106.0","","","","","113.29999995231628","img/food3.png","74","114.19999998807907","1","1","3","1","1,0.7,0,1,0.7,0,0.7,0,1","1,0.7,0,1,0.7,0,0.7,0,1","1","",""
"","html-keyboard-response","107","42429","0.0-107.0","","","","","null","<img src=""img/food3.png"" style=""width:200px; border:14px solid green;"">","null","","","","","","","","","",""
"","image-keyboard-response","108","42550","0.0-108.0","","","","","120.69999998807907","img/food1.png","74","121.5","1","1","1","1","1,0.7,0,1,0.7,0,0.7,0,1","1,0.7,0,1,0.7,0,0.7,0,1","1","",""
"","html-keyboard-response","109","42852","0.0-109.0","","","","","null","<img src=""img/food1.png"" style=""width:200px; border:14px solid green;"">","null","","","","","","","","","",""
"","image-keyboard-response","110","42853","0.0-110.0","","","","","0.6000000238418579","img/food3.png","76","1.199999988079071","3","1","3","1","1,0.7,0,1,0.7,0,0.7,0,1","1,0.7,0,1,0.7,0,0.7,0,1","1","",""
"","html-keyboard-response","111","43154","0.0-111.0","","","","","null","<img src=""img/food3.png"" style=""width:200px; border:14px solid green;"">","null","","","","","","","","","",""
"","image-keyboard-response","112","43294","0.0-112.0","","","","","139.10000002384186","img/food3.png","75","140.0999999642372","2","0","3","1","1,0.7,0,1,0.7,0,0.7,0,1","1,0.7,0,1,0.7,0,0.7,0,1","1","",""
"","html-keyboard-response","113","43597","0.0-113.0","","","","","null","<img src=""img/food3.png"" style=""width:200px;border:14px solid red;"">","null","","","","","","","","","",""
"","image-keyboard-response","114","43599","0.0-114.0","","","","","0.5999999642372131","img/food1.png","74","1.600000023841858","1","1","1","1","1,0.7,0,1,0.7,0,0.7,0,1","1,0.7,0,1,0.7,0,0.7,0,1","1","",""
"","html-keyboard-response","115","43900","0.0-115.0","","","","","null","<img src=""img/food1.png"" style=""width:200px; border:14px solid green;"">","null","","","","","","","","","",""
"","image-keyboard-response","116","44014","0.0-116.0","","","","","113.09999996423721","img/food1.png","74","113.90000003576279","1","1","1","1","1,0.7,0,1,0.7,0,0.7,0,1","1,0.7,0,1,0.7,0,0.7,0,1","1","",""
"","html-keyboard-response","117","44317","0.0-117.0","","","","","null","<img src=""img/food1.png"" style=""width:200px; border:14px solid green;"">","null","","","","","","","","","",""
"","image-keyboard-response","118","44446","0.0-118.0","","","","","127.80000001192093","img/food1.png","75","128.5","2","1","1","1","1,0.7,0,1,0.7,0,0.7,0,1","1,0.7,0,1,0.7,0,0.7,0,1","1","",""
"","html-keyboard-response","119","44748","0.0-119.0","","","","","null","<img src=""img/food1.png"" style=""width:200px; border:14px solid green;"">","null","","","","","","","","","",""
"","image-keyboard-response","120","44822","0.0-120.0","","","","","73.10000002384186","img/food3.png","75","74.29999995231628","2","0","3","1","1,0.7,0,1,0.7,0,0.7,0,1","1,0.7,0,1,0.7,0,0.7,0,1","1","",""
"","html-keyboard-response","121","45124","0.0-121.0","","","","","null","<img src=""img/food3.png"" style=""width:200px;border:14px solid red;"">","null","","","","","","","","","",""
"","image-keyboard-response","122","45206","0.0-122.0","","","","","81.89999997615814","img/food1.png","75","82.69999998807907","2","1","1","1","1,0.7,0,1,0.7,0,0.7,0,1","1,0.7,0,1,0.7,0,0.7,0,1","1","",""
"","html-keyboard-response","123","45508","0.0-123.0","","","","","null","<img src=""img/food1.png"" style=""width:200px; border:14px solid green;"">","null","","","","","","","","","",""
"","image-keyboard-response","124","45638","0.0-124.0","","","","","127.89999997615814","img/food5.png","74","128.89999997615814","1","1","2","1","1,0.7,0,1,0.7,0,0.7,0,1","1,0.7,0,1,0.7,0,0.7,0,1","1","",""
"","html-keyboard-response","125","45939","0.0-125.0","","","","","null","<img src=""img/food5.png"" style=""width:200px; border:14px solid green;"">","null","","","","","","","","","",""
"","image-keyboard-response","126","45941","0.0-126.0","","","","","1.5","img/food1.png","74","2","1","1","1","1","1,0.7,0,1,0.7,0,0.7,0,1","1,0.7,0,1,0.7,0,0.7,0,1","1","",""
"","html-keyboard-response","127","46243","0.0-127.0","","","","","null","<img src=""img/food1.png"" style=""width:200px; border:14px solid green;"">","null","","","","","","","","","",""
"","image-keyboard-response","128","46358","0.0-128.0","","","","","113.80000001192093","img/food5.png","74","114.80000001192093","1","1","2","1","1,0.7,0,1,0.7,0,0.7,0,1","1,0.7,0,1,0.7,0,0.7,0,1","1","",""
"","html-keyboard-response","129","46659","0.0-129.0","","","","","null","<img src=""img/food5.png"" style=""width:200px; border:14px solid green;"">","null","","","","","","","","","",""
"","image-keyboard-response","130","46807","0.0-130.0","","","","","146.4000000357628","img/food1.png","74","147.5","1","1","1","1","1,0.7,0,1,0.7,0,0.7,0,1","1,0.7,0,1,0.7,0,0.7,0,1","1","",""
"","html-keyboard-response","131","47108","0.0-131.0","","","","","null","<img src=""img/food1.png"" style=""width:200px; border:14px solid green;"">","null","","","","","","","","","",""
"","image-keyboard-response","132","47215","0.0-132.0","","","","","104.90000003576279","img/food5.png","74","105.89999997615814","1","1","2","1","1,0.7,0,1,0.7,0,0.7,0,1","1,0.7,0,1,0.7,0,0.7,0,1","1","",""
"","html-keyboard-response","133","47516","0.0-133.0","","","","","null","<img src=""img/food5.png"" style=""width:200px; border:14px solid green;"">","null","","","","","","","","","",""
"","image-keyboard-response","134","47566","0.0-134.0","","","","","48.39999997615814","img/food3.png","75","49.10000002384186","2","0","3","1","1,0.7,0,1,0.7,0,0.7,0,1","1,0.7,0,1,0.7,0,0.7,0,1","1","",""
"","html-keyboard-response","135","47867","0.0-135.0","","","","","null","<img src=""img/food3.png"" style=""width:200px;border:14px solid red;"">","null","","","","","","","","","",""
"","image-keyboard-response","136","47950","0.0-136.0","","","","","82.19999998807907","img/food5.png","75","83.09999996423721","2","1","2","1","1,0.7,0,1,0.7,0,0.7,0,1","1,0.7,0,1,0.7,0,0.7,0,1","1","",""
"","html-keyboard-response","137","48252","0.0-137.0","","","","","null","<img src=""img/food5.png"" style=""width:200px; border:14px solid green;"">","null","","","","","","","","","",""
"","image-keyboard-response","138","48342","0.0-138.0","","","","","88.59999996423721","img/food5.png","75","89.60000002384186","2","1","2","1","1,0.7,0,1,0.7,0,0.7,0,1","1,0.7,0,1,0.7,0,0.7,0,1","1","",""
"","html-keyboard-response","139","48646","0.0-139.0","","","","","null","<img src=""img/food5.png"" style=""width:200px; border:14px solid green;"">","null","","","","","","","","","",""
"","image-keyboard-response","140","48782","0.0-140.0","","","","","135.0999999642372","img/food5.png","75","136","2","0","2","1","1,0.7,0,1,0.7,0,0.7,0,1","1,0.7,0,1,0.7,0,0.7,0,1","1","",""
"","html-keyboard-response","141","49084","0.0-141.0","","","","","null","<img src=""img/food5.png"" style=""width:200px;border:14px solid red;"">","null","","","","","","","","","",""
"","image-keyboard-response","142","49406","0.0-142.0","","","","","321.4000000357628","img/food3.png","74","322","1","1","3","1","1,0.7,0,1,0.7,0,0.7,0,1","1,0.7,0,1,0.7,0,0.7,0,1","1","",""
"","html-keyboard-response","143","49707","0.0-143.0","","","","","null","<img src=""img/food3.png"" style=""width:200px; border:14px solid green;"">","null","","","","","","","","","",""
"","image-keyboard-response","144","49726","0.0-144.0","","","","","17","img/food3.png","74","18","1","1","3","1","1,0.7,0,1,0.7,0,0.7,0,1","1,0.7,0,1,0.7,0,0.7,0,1","1","",""
"","html-keyboard-response","145","50029","0.0-145.0","","","","","null","<img src=""img/food3.png"" style=""width:200px; border:14px solid green;"">","null","","","","","","","","","",""
"","image-keyboard-response","146","50246","0.0-146.0","","","","","215.80000001192093","img/food1.png","75","217.10000002384186","2","1","1","1","1,0.7,0,1,0.7,0,0.7,0,1","1,0.7,0,1,0.7,0,0.7,0,1","1","",""
"","html-keyboard-response","147","50548","0.0-147.0","","","","","null","<img src=""img/food1.png"" style=""width:200px; border:14px solid green;"">","null","","","","","","","","","",""
"","image-keyboard-response","148","50758","0.0-148.0","","","","","208.69999998807907","img/food5.png","75","209.80000001192093","2","1","2","1","1,0.7,0,1,0.7,0,0.7,0,1","1,0.7,0,1,0.7,0,0.7,0,1","1","",""
"","html-keyboard-response","149","51060","0.0-149.0","","","","","null","<img src=""img/food5.png"" style=""width:200px; border:14px solid green;"">","null","","","","","","","","","",""
"","image-keyboard-response","150","51134","0.0-150.0","","","","","72.39999997615814","img/food5.png","75","73.30000001192093","2","1","2","1","1,0.7,0,1,0.7,0,0.7,0,1","1,0.7,0,1,0.7,0,0.7,0,1","1","",""
"","html-keyboard-response","151","51436","0.0-151.0","","","","","null","<img src=""img/food5.png"" style=""width:200px; border:14px solid green;"">","null","","","","","","","","","",""
"","image-keyboard-response","152","51550","0.0-152.0","","","","","111.80000001192093","img/food5.png","75","112.69999998807907","2","0","2","1","1,0.7,0,1,0.7,0,0.7,0,1","1,0.7,0,1,0.7,0,0.7,0,1","1","",""
"","html-keyboard-response","153","51852","0.0-153.0","","","","","null","<img src=""img/food5.png"" style=""width:200px;border:14px solid red;"">","null","","","","","","","","","",""
"","image-keyboard-response","154","51934","0.0-154.0","","","","","80.40000003576279","img/food5.png","75","81.40000003576279","2","1","2","1","1,0.7,0,1,0.7,0,0.7,0,1","1,0.7,0,1,0.7,0,0.7,0,1","1","",""
"","html-keyboard-response","155","52236","0.0-155.0","","","","","null","<img src=""img/food5.png"" style=""width:200px; border:14px solid green;"">","null","","","","","","","","","",""
"","image-keyboard-response","156","52389","0.0-156.0","","","","","152.69999998807907","img/food1.png","76","153.5","3","0","1","1","1,0.7,0,1,0.7,0,0.7,0,1","1,0.7,0,1,0.7,0,0.7,0,1","1","",""
"","html-keyboard-response","157","52692","0.0-157.0","","","","","null","<img src=""img/food1.png"" style=""width:200px;border:14px solid red;"">","null","","","","","","","","","",""
"","image-keyboard-response","158","52806","0.0-158.0","","","","","113.20000004768372","img/food5.png","76","114.09999996423721","3","0","2","1","1,0.7,0,1,0.7,0,0.7,0,1","1,0.7,0,1,0.7,0,0.7,0,1","1","",""
"","html-keyboard-response","159","53119","0.0-159.0","","","","","null","<img src=""img/food5.png"" style=""width:200px;border:14px solid red;"">","null","","","","","","","","","",""
"","image-keyboard-response","160","53438","0.0-160.0","","","","","318.19999998807907","img/food5.png","74","319","1","1","2","1","1,0.7,0,1,0.7,0,0.7,0,1","1,0.7,0,1,0.7,0,0.7,0,1","1","",""
"","html-keyboard-response","161","53741","0.0-161.0","","","","","null","<img src=""img/food5.png"" style=""width:200px; border:14px solid green;"">","null","","","","","","","","","",""
"","image-keyboard-response","162","53822","0.0-162.0","","","","","80.30000001192093","img/food3.png","74","81.19999998807907","1","1","3","1","1,0.7,0,1,0.7,0,0.7,0,1","1,0.7,0,1,0.7,0,0.7,0,1","1","",""
"","html-keyboard-response","163","54126","0.0-163.0","","","","","null","<img src=""img/food3.png"" style=""width:200px; border:14px solid green;"">","null","","","","","","","","","",""
"","image-keyboard-response","164","54165","0.0-164.0","","","","","38.59999996423721","img/food3.png","74","39.39999997615814","1","1","3","1","1,0.7,0,1,0.7,0,0.7,0,1","1,0.7,0,1,0.7,0,0.7,0,1","1","",""
"","html-keyboard-response","165","54467","0.0-165.0","","","","","null","<img src=""img/food3.png"" style=""width:200px; border:14px solid green;"">","null","","","","","","","","","",""
"","image-keyboard-response","166","54526","0.0-166.0","","","","","58.39999997615814","img/food3.png","74","59.39999997615814","1","0","3","1","1,0.7,0,1,0.7,0,0.7,0,1","1,0.7,0,1,0.7,0,0.7,0,1","1","",""
"","html-keyboard-response","167","54828","0.0-167.0","","","","","null","<img src=""img/food3.png"" style=""width:200px;border:14px solid red;"">","null","","","","","","","","","",""
"","image-keyboard-response","168","54998","0.0-168.0","","","","","168.80000001192093","img/food3.png","74","169.80000001192093","1","1","3","1","1,0.7,0,1,0.7,0,0.7,0,1","1,0.7,0,1,0.7,0,0.7,0,1","1","",""
"","html-keyboard-response","169","55300","0.0-169.0","","","","","null","<img src=""img/food3.png"" style=""width:200px; border:14px solid green;"">","null","","","","","","","","","",""
"","image-keyboard-response","170","55422","0.0-170.0","","","","","121.10000002384186","img/food5.png","75","121.69999998807907","2","1","2","1","1,0.7,0,1,0.7,0,0.7,0,1","1,0.7,0,1,0.7,0,0.7,0,1","1","",""
"","html-keyboard-response","171","55723","0.0-171.0","","","","","null","<img src=""img/food5.png"" style=""width:200px; border:14px solid green;"">","null","","","","","","","","","",""
"","image-keyboard-response","172","55797","0.0-172.0","","","","","73.10000002384186","img/food1.png","75","73.80000001192093","2","1","1","1","1,0.7,0,1,0.7,0,0.7,0,1","1,0.7,0,1,0.7,0,0.7,0,1","1","",""
"","html-keyboard-response","173","56099","0.0-173.0","","","","","null","<img src=""img/food1.png"" style=""width:200px; border:14px solid green;"">","null","","","","","","","","","",""
"","image-keyboard-response","174","56189","0.0-174.0","","","","","89.80000001192093","img/food3.png","75","90.69999998807907","2","0","3","1","1,0.7,0,1,0.7,0,0.7,0,1","1,0.7,0,1,0.7,0,0.7,0,1","1","",""
"","html-keyboard-response","175","56491","0.0-175.0","","","","","null","<img src=""img/food3.png"" style=""width:200px;border:14px solid red;"">","null","","","","","","","","","",""
"","image-keyboard-response","176","56775","0.0-176.0","","","","","283.4000000357628","img/food5.png","76","284.5","3","0","2","1","1,0.7,0,1,0.7,0,0.7,0,1","1,0.7,0,1,0.7,0,0.7,0,1","1","",""
"","html-keyboard-response","177","57077","0.0-177.0","","","","","null","<img src=""img/food5.png"" style=""width:200px;border:14px solid red;"">","null","","","","","","","","","",""
"","image-keyboard-response","178","57206","0.0-178.0","","","","","127.90000003576279","img/food3.png","76","128.5","3","1","3","1","1,0.7,0,1,0.7,0,0.7,0,1","1,0.7,0,1,0.7,0,0.7,0,1","1","",""
"","html-keyboard-response","179","57507","0.0-179.0","","","","","null","<img src=""img/food3.png"" style=""width:200px; border:14px solid green;"">","null","","","","","","","","","",""
"","image-keyboard-response","180","57774","0.0-180.0","","","","","265.5999999642372","img/food3.png","74","266.69999998807907","1","1","3","1","1,0.7,0,1,0.7,0,0.7,0,1","1,0.7,0,1,0.7,0,0.7,0,1","1","",""
"","html-keyboard-response","181","58076","0.0-181.0","","","","","null","<img src=""img/food3.png"" style=""width:200px; border:14px solid green;"">","null","","","","","","","","","",""
"","html-keyboard-response","182","60148","0.0-182.0","","","","","","","","","","","","","","","","",""
"","instructions","183","76562","0.0-183.0","","","","[{""page_index"":0,""viewing_time"":15102.400000035763},{""page_index"":1,""viewing_time"":1310.3999999761581}]","16413.100000023842","","","","","","","","","","","",""
"","image-keyboard-response","184","76982","0.0-184.0","","","","","419.30000001192093","img/food4.png","74","420.30000001192093","1","1","1","2","1,0.7,0,1,0.7,0,0.7,0,1","0.7,0,1,0.7,0,1,0,1,0.7","2","false",""
"","html-keyboard-response","185","77285","0.0-185.0","","","","","null","<img src=""img/food4.png"" style=""width:200px; border:14px solid green;"">","null","","","","","","","","","",""
"","image-keyboard-response","186","77495","0.0-187.0","","","","","208.5999999642372","img/food2.png","75","209.5","2","0","2","2","1,0.7,0,1,0.7,0,0.7,0,1","0.7,0,1,0.7,0,1,0,1,0.7","2","false",""
"","html-keyboard-response","187","77797","0.0-188.0","","","","","null","<img src=""img/food2.png"" style=""width:200px;border:14px solid red;"">","null","","","","","","","","","",""
"","image-keyboard-response","188","77902","0.0-190.0","","","","","104.09999996423721","img/food4.png","74","105.19999998807907","1","0","1","2","1,0.7,0,1,0.7,0,0.7,0,1","0.7,0,1,0.7,0,1,0,1,0.7","2","false",""
"","html-keyboard-response","189","78204","0.0-191.0","","","","","null","<img src=""img/food4.png"" style=""width:200px;border:14px solid red;"">","null","","","","","","","","","",""
"","image-keyboard-response","190","78262","0.0-193.0","","","","","56.80000001192093","img/food4.png","74","57.89999997615814","1","1","1","2","1,0.7,0,1,0.7,0,0.7,0,1","0.7,0,1,0.7,0,1,0,1,0.7","2","false",""
"","html-keyboard-response","191","78579","0.0-194.0","","","","","null","<img src=""img/food4.png"" style=""width:200px; border:14px solid green;"">","null","","","","","","","","","",""
"","image-keyboard-response","192","78870","0.0-196.0","","","","","289","img/food6.png","76","290.30000001192093","3","1","3","2","1,0.7,0,1,0.7,0,0.7,0,1","0.7,0,1,0.7,0,1,0,1,0.7","2","false",""
"","html-keyboard-response","193","79172","0.0-197.0","","","","","null","<img src=""img/food6.png"" style=""width:200px; border:14px solid green;"">","null","","","","","","","","","",""
"","image-keyboard-response","194","79207","0.0-199.0","","","","","33","img/food4.png","74","34.10000002384186","1","1","1","2","1,0.7,0,1,0.7,0,0.7,0,1","0.7,0,1,0.7,0,1,0,1,0.7","2","false",""
"","html-keyboard-response","195","79509","0.0-200.0","","","","","null","<img src=""img/food4.png"" style=""width:200px; border:14px solid green;"">","null","","","","","","","","","",""
"","image-keyboard-response","196","79575","0.0-202.0","","","","","64.60000002384186","img/food4.png","74","65.69999998807907","1","1","1","2","1,0.7,0,1,0.7,0,0.7,0,1","0.7,0,1,0.7,0,1,0,1,0.7","2","false",""
"","html-keyboard-response","197","79877","0.0-203.0","","","","","null","<img src=""img/food4.png"" style=""width:200px; border:14px solid green;"">","null","","","","","","","","","",""
"","image-keyboard-response","198","79886","0.0-205.0","","","","","8.400000035762787","img/food6.png","76","8.899999976158142","3","0","3","2","1,0.7,0,1,0.7,0,0.7,0,1","0.7,0,1,0.7,0,1,0,1,0.7","2","false",""
"","html-keyboard-response","199","80188","0.0-206.0","","","","","null","<img src=""img/food6.png"" style=""width:200px;border:14px solid red;"">","null","","","","","","","","","",""
"","image-keyboard-response","200","80341","0.0-208.0","","","","","152.10000002384186","img/food6.png","76","153.19999998807907","3","0","3","2","1,0.7,0,1,0.7,0,0.7,0,1","0.7,0,1,0.7,0,1,0,1,0.7","2","false",""
"","html-keyboard-response","201","80644","0.0-209.0","","","","","null","<img src=""img/food6.png"" style=""width:200px;border:14px solid red;"">","null","","","","","","","","","",""
"","image-keyboard-response","202","80735","0.0-211.0","","","","","89.10000002384186","img/food2.png","74","90","1","0","2","2","1,0.7,0,1,0.7,0,0.7,0,1","0.7,0,1,0.7,0,1,0,1,0.7","2","false",""
"","html-keyboard-response","203","81036","0.0-212.0","","","","","null","<img src=""img/food2.png"" style=""width:200px;border:14px solid red;"">","null","","","","","","","","","",""
"","image-keyboard-response","204","81158","0.0-214.0","","","","","119.80000001192093","img/food4.png","75","120.80000001192093","2","0","1","2","1,0.7,0,1,0.7,0,0.7,0,1","0.7,0,1,0.7,0,1,0,1,0.7","2","false",""
"","html-keyboard-response","205","81459","0.0-215.0","","","","","null","<img src=""img/food4.png"" style=""width:200px;border:14px solid red;"">","null","","","","","","","","","",""
"","image-keyboard-response","206","81575","0.0-217.0","","","","","114.60000002384186","img/food2.png","76","115.60000002384186","3","1","2","2","1,0.7,0,1,0.7,0,0.7,0,1","0.7,0,1,0.7,0,1,0,1,0.7","2","false",""
"","html-keyboard-response","207","81877","0.0-218.0","","","","","null","<img src=""img/food2.png"" style=""width:200px; border:14px solid green;"">","null","","","","","","","","","",""
"","image-keyboard-response","208","82134","0.0-220.0","","","","","255.5999999642372","img/food2.png","74","256.39999997615814","1","0","2","2","1,0.7,0,1,0.7,0,0.7,0,1","0.7,0,1,0.7,0,1,0,1,0.7","2","false",""
"","html-keyboard-response","209","82435","0.0-221.0","","","","","null","<img src=""img/food2.png"" style=""width:200px;border:14px solid red;"">","null","","","","","","","","","",""
"","image-keyboard-response","210","82575","0.0-223.0","","","","","138","img/food6.png","74","139.29999995231628","1","0","3","2","1,0.7,0,1,0.7,0,0.7,0,1","0.7,0,1,0.7,0,1,0,1,0.7","2","false",""
"","html-keyboard-response","211","82876","0.0-224.0","","","","","null","<img src=""img/food6.png"" style=""width:200px;border:14px solid red;"">","null","","","","","","","","","",""
"","image-keyboard-response","212","82918","0.0-226.0","","","","","40.89999997615814","img/food4.png","74","41.59999996423721","1","0","1","2","1,0.7,0,1,0.7,0,0.7,0,1","0.7,0,1,0.7,0,1,0,1,0.7","2","false",""
"","html-keyboard-response","213","83220","0.0-227.0","","","","","null","<img src=""img/food4.png"" style=""width:200px;border:14px solid red;"">","null","","","","","","","","","",""
"","image-keyboard-response","214","83255","0.0-229.0","","","","","33.40000003576279","img/food4.png","75","34.39999997615814","2","0","1","2","1,0.7,0,1,0.7,0,0.7,0,1","0.7,0,1,0.7,0,1,0,1,0.7","2","false",""
"","html-keyboard-response","215","83557","0.0-230.0","","","","","null","<img src=""img/food4.png"" style=""width:200px;border:14px solid red;"">","null","","","","","","","","","",""
"","image-keyboard-response","216","83558","0.0-232.0","","","","","0.20000004768371582","img/food6.png","76","0.800000011920929","3","1","3","2","1,0.7,0,1,0.7,0,0.7,0,1","0.7,0,1,0.7,0,1,0,1,0.7","2","false",""
"","html-keyboard-response","217","83860","0.0-233.0","","","","","null","<img src=""img/food6.png"" style=""width:200px; border:14px solid green;"">","null","","","","","","","","","",""
"","image-keyboard-response","218","83904","0.0-235.0","","","","","43.5","img/food4.png","75","44.19999998807907","2","0","1","2","1,0.7,0,1,0.7,0,0.7,0,1","0.7,0,1,0.7,0,1,0,1,0.7","2","false",""
"","html-keyboard-response","219","84205","0.0-236.0","","","","","null","<img src=""img/food4.png"" style=""width:200px;border:14px solid red;"">","null","","","","","","","","","",""
"","image-keyboard-response","220","84304","0.0-238.0","","","","","97.40000003576279","img/food6.png","75","98.39999997615814","2","1","3","2","1,0.7,0,1,0.7,0,0.7,0,1","0.7,0,1,0.7,0,1,0,1,0.7","2","false",""
"","html-keyboard-response","221","84607","0.0-239.0","","","","","null","<img src=""img/food6.png"" style=""width:200px; border:14px solid green;"">","null","","","","","","","","","",""
"","image-keyboard-response","222","84743","0.0-241.0","","","","","134.5999999642372","img/food2.png","74","135.60000002384186","1","1","2","2","1,0.7,0,1,0.7,0,0.7,0,1","0.7,0,1,0.7,0,1,0,1,0.7","2","false",""
"","html-keyboard-response","223","85045","0.0-242.0","","","","","null","<img src=""img/food2.png"" style=""width:200px; border:14px solid green;"">","null","","","","","","","","","",""
"","image-keyboard-response","224","85062","0.0-244.0","","","","","15.5","img/food6.png","76","16.399999976158142","3","0","3","2","1,0.7,0,1,0.7,0,0.7,0,1","0.7,0,1,0.7,0,1,0,1,0.7","2","false",""
"","html-keyboard-response","225","85363","0.0-245.0","","","","","null","<img src=""img/food6.png"" style=""width:200px;border:14px solid red;"">","null","","","","","","","","","",""
"","image-keyboard-response","226","85430","0.0-247.0","","","","","65.5","img/food6.png","75","66.19999998807907","2","1","3","2","1,0.7,0,1,0.7,0,0.7,0,1","0.7,0,1,0.7,0,1,0,1,0.7","2","false",""
"","html-keyboard-response","227","85733","0.0-248.0","","","","","null","<img src=""img/food6.png"" style=""width:200px; border:14px solid green;"">","null","","","","","","","","","",""
"","image-keyboard-response","228","85870","0.0-250.0","","","","","136.69999998807907","img/food6.png","75","137.69999998807907","2","1","3","2","1,0.7,0,1,0.7,0,0.7,0,1","0.7,0,1,0.7,0,1,0,1,0.7","2","false",""
"","html-keyboard-response","229","86172","0.0-251.0","","","","","null","<img src=""img/food6.png"" style=""width:200px; border:14px solid green;"">","null","","","","","","","","","",""
"","image-keyboard-response","230","86295","0.0-253.0","","","","","121.60000002384186","img/food4.png","74","122.5","1","0","1","2","1,0.7,0,1,0.7,0,0.7,0,1","0.7,0,1,0.7,0,1,0,1,0.7","2","false",""
"","html-keyboard-response","231","86596","0.0-254.0","","","","","null","<img src=""img/food4.png"" style=""width:200px;border:14px solid red;"">","null","","","","","","","","","",""
"","image-keyboard-response","232","86727","0.0-256.0","","","","","128.80000001192093","img/food6.png","75","129.9000000357628","2","1","3","2","1,0.7,0,1,0.7,0,0.7,0,1","0.7,0,1,0.7,0,1,0,1,0.7","2","false",""
"","html-keyboard-response","233","87029","0.0-257.0","","","","","null","<img src=""img/food6.png"" style=""width:200px; border:14px solid green;"">","null","","","","","","","","","",""
"","image-keyboard-response","234","87157","0.0-259.0","","","","","127.29999995231628","img/food6.png","76","128.19999998807907","3","1","3","2","1,0.7,0,1,0.7,0,0.7,0,1","0.7,0,1,0.7,0,1,0,1,0.7","2","false",""
"","html-keyboard-response","235","87459","0.0-260.0","","","","","null","<img src=""img/food6.png"" style=""width:200px; border:14px solid green;"">","null","","","","","","","","","",""
"","image-keyboard-response","236","87536","0.0-262.0","","","","","75","img/food6.png","75","76.19999998807907","2","1","3","2","1,0.7,0,1,0.7,0,0.7,0,1","0.7,0,1,0.7,0,1,0,1,0.7","2","false",""
"","html-keyboard-response","237","87839","0.0-263.0","","","","","null","<img src=""img/food6.png"" style=""width:200px; border:14px solid green;"">","null","","","","","","","","","",""
"","image-keyboard-response","238","87950","0.0-265.0","","","","","110.10000002384186","img/food2.png","74","111.09999996423721","1","1","2","2","1,0.7,0,1,0.7,0,0.7,0,1","0.7,0,1,0.7,0,1,0,1,0.7","2","false",""
"","html-keyboard-response","239","88252","0.0-266.0","","","","","null","<img src=""img/food2.png"" style=""width:200px; border:14px solid green;"">","null","","","","","","","","","",""
"","image-keyboard-response","240","88310","0.0-268.0","","","","","56.19999998807907","img/food2.png","75","57.200000047683716","2","0","2","2","1,0.7,0,1,0.7,0,0.7,0,1","0.7,0,1,0.7,0,1,0,1,0.7","2","false",""
"","html-keyboard-response","241","88612","0.0-269.0","","","","","null","<img src=""img/food2.png"" style=""width:200px;border:14px solid red;"">","null","","","","","","","","","",""
"","image-keyboard-response","242","88734","0.0-271.0","","","","","121.39999997615814","img/food2.png","76","122.59999996423721","3","1","2","2","1,0.7,0,1,0.7,0,0.7,0,1","0.7,0,1,0.7,0,1,0,1,0.7","2","false",""
"","html-keyboard-response","243","89037","0.0-272.0","","","","","null","<img src=""img/food2.png"" style=""width:200px; border:14px solid green;"">","null","","","","","","","","","",""
"","image-keyboard-response","244","89102","0.0-274.0","","","","","63.80000001192093","img/food2.png","75","64.5","2","0","2","2","1,0.7,0,1,0.7,0,0.7,0,1","0.7,0,1,0.7,0,1,0,1,0.7","2","false",""
"","html-keyboard-response","245","89404","0.0-275.0","","","","","null","<img src=""img/food2.png"" style=""width:200px;border:14px solid red;"">","null","","","","","","","","","",""
"","image-keyboard-response","246","89407","0.0-277.0","","","","","1.399999976158142","img/food4.png","74","2.5","1","0","1","2","1,0.7,0,1,0.7,0,0.7,0,1","0.7,0,1,0.7,0,1,0,1,0.7","2","false",""
"","html-keyboard-response","247","89708","0.0-278.0","","","","","null","<img src=""img/food4.png"" style=""width:200px;border:14px solid red;"">","null","","","","","","","","","",""
"","image-keyboard-response","248","89791","0.0-280.0","","","","","81.80000001192093","img/food4.png","75","82.89999997615814","2","0","1","2","1,0.7,0,1,0.7,0,0.7,0,1","0.7,0,1,0.7,0,1,0,1,0.7","2","false",""
"","html-keyboard-response","249","90092","0.0-281.0","","","","","null","<img src=""img/food4.png"" style=""width:200px;border:14px solid red;"">","null","","","","","","","","","",""
"","image-keyboard-response","250","90102","0.0-283.0","","","","","8.199999988079071","img/food2.png","74","9.100000023841858","1","1","2","2","1,0.7,0,1,0.7,0,0.7,0,1","0.7,0,1,0.7,0,1,0,1,0.7","2","false",""
"","html-keyboard-response","251","90404","0.0-284.0","","","","","null","<img src=""img/food2.png"" style=""width:200px; border:14px solid green;"">","null","","","","","","","","","",""
"","image-keyboard-response","252","90510","0.0-286.0","","","","","105.69999998807907","img/food2.png","75","106.5","2","0","2","2","1,0.7,0,1,0.7,0,0.7,0,1","0.7,0,1,0.7,0,1,0,1,0.7","2","false",""
"","html-keyboard-response","253","90812","0.0-287.0","","","","","null","<img src=""img/food2.png"" style=""width:200px;border:14px solid red;"">","null","","","","","","","","","",""
"","image-keyboard-response","254","90838","0.0-289.0","","","","","24.400000035762787","img/food2.png","76","25.400000035762787","3","1","2","2","1,0.7,0,1,0.7,0,0.7,0,1","0.7,0,1,0.7,0,1,0,1,0.7","2","false",""
"","html-keyboard-response","255","91140","0.0-290.0","","","","","null","<img src=""img/food2.png"" style=""width:200px; border:14px solid green;"">","null","","","","","","","","","",""
"","image-keyboard-response","256","91238","0.0-292.0","","","","","96.09999996423721","img/food4.png","75","96.90000003576279","2","0","1","2","1,0.7,0,1,0.7,0,0.7,0,1","0.7,0,1,0.7,0,1,0,1,0.7","2","false",""
"","html-keyboard-response","257","91540","0.0-293.0","","","","","null","<img src=""img/food4.png"" style=""width:200px;border:14px solid red;"">","null","","","","","","","","","",""
"","image-keyboard-response","258","91581","0.0-295.0","","","","","40","img/food6.png","74","41","1","0","3","2","1,0.7,0,1,0.7,0,0.7,0,1","0.7,0,1,0.7,0,1,0,1,0.7","2","false",""
"","html-keyboard-response","259","91883","0.0-296.0","","","","","null","<img src=""img/food6.png"" style=""width:200px;border:14px solid red;"">","null","","","","","","","","","",""
"","image-keyboard-response","260","91959","0.0-298.0","","","","","74.40000003576279","img/food2.png","75","75.60000002384186","2","0","2","2","1,0.7,0,1,0.7,0,0.7,0,1","0.7,0,1,0.7,0,1,0,1,0.7","2","false",""
"","html-keyboard-response","261","92261","0.0-299.0","","","","","null","<img src=""img/food2.png"" style=""width:200px;border:14px solid red;"">","null","","","","","","","","","",""
"","image-keyboard-response","262","92310","0.0-301.0","","","","","47.5","img/food6.png","76","48.5","3","1","3","2","1,0.7,0,1,0.7,0,0.7,0,1","0.7,0,1,0.7,0,1,0,1,0.7","2","false",""
"","html-keyboard-response","263","92612","0.0-302.0","","","","","null","<img src=""img/food6.png"" style=""width:200px; border:14px solid green;"">","null","","","","","","","","","",""
"","image-keyboard-response","264","92727","0.0-304.0","","","","","114","img/food2.png","75","114.89999997615814","2","0","2","2","1,0.7,0,1,0.7,0,0.7,0,1","0.7,0,1,0.7,0,1,0,1,0.7","2","false",""
"","html-keyboard-response","265","93029","0.0-305.0","","","","","null","<img src=""img/food2.png"" style=""width:200px;border:14px solid red;"">","null","","","","","","","","","",""
"","image-keyboard-response","266","93134","0.0-307.0","","","","","103.5","img/food6.png","74","104.40000003576279","1","0","3","2","1,0.7,0,1,0.7,0,0.7,0,1","0.7,0,1,0.7,0,1,0,1,0.7","2","false",""
"","html-keyboard-response","267","93436","0.0-308.0","","","","","null","<img src=""img/food6.png"" style=""width:200px;border:14px solid red;"">","null","","","","","","","","","",""
"","image-keyboard-response","268","93446","0.0-310.0","","","","","9.199999988079071","img/food6.png","75","10.199999988079071","2","1","3","2","1,0.7,0,1,0.7,0,0.7,0,1","0.7,0,1,0.7,0,1,0,1,0.7","2","false",""
"","html-keyboard-response","269","93748","0.0-311.0","","","","","null","<img src=""img/food6.png"" style=""width:200px; border:14px solid green;"">","null","","","","","","","","","",""
"","image-keyboard-response","270","93871","0.0-313.0","","","","","121.10000002384186","img/food6.png","76","122.10000002384186","3","1","3","2","1,0.7,0,1,0.7,0,0.7,0,1","0.7,0,1,0.7,0,1,0,1,0.7","2","false",""
"","html-keyboard-response","271","94172","0.0-314.0","","","","","null","<img src=""img/food6.png"" style=""width:200px; border:14px solid green;"">","null","","","","","","","","","",""
"","image-keyboard-response","272","94198","0.0-316.0","","","","","24.80000001192093","img/food2.png","75","25.69999998807907","2","0","2","2","1,0.7,0,1,0.7,0,0.7,0,1","0.7,0,1,0.7,0,1,0,1,0.7","2","false",""
"","html-keyboard-response","273","94500","0.0-317.0","","","","","null","<img src=""img/food2.png"" style=""width:200px;border:14px solid red;"">","null","","","","","","","","","",""
"","image-keyboard-response","274","94622","0.0-319.0","","","","","120.80000001192093","img/food4.png","74","121.89999997615814","1","0","1","2","1,0.7,0,1,0.7,0,0.7,0,1","0.7,0,1,0.7,0,1,0,1,0.7","2","false",""
"","html-keyboard-response","275","94924","0.0-320.0","","","","","null","<img src=""img/food4.png"" style=""width:200px;border:14px solid red;"">","null","","","","","","","","","",""
"","image-keyboard-response","276","94958","0.0-322.0","","","","","33.10000002384186","img/food6.png","75","33.80000001192093","2","1","3","2","1,0.7,0,1,0.7,0,0.7,0,1","0.7,0,1,0.7,0,1,0,1,0.7","2","false",""
"","html-keyboard-response","277","95261","0.0-323.0","","","","","null","<img src=""img/food6.png"" style=""width:200px; border:14px solid green;"">","null","","","","","","","","","",""
"","image-keyboard-response","278","95423","0.0-325.0","","","","","160.39999997615814","img/food6.png","75","161.5","2","1","3","2","1,0.7,0,1,0.7,0,0.7,0,1","0.7,0,1,0.7,0,1,0,1,0.7","2","false",""
"","html-keyboard-response","279","95724","0.0-326.0","","","","","null","<img src=""img/food6.png"" style=""width:200px; border:14px solid green;"">","null","","","","","","","","","",""
"","image-keyboard-response","280","95878","0.0-328.0","","","","","152.5999999642372","img/food6.png","76","153.69999998807907","3","1","3","2","1,0.7,0,1,0.7,0,0.7,0,1","0.7,0,1,0.7,0,1,0,1,0.7","2","false",""
"","html-keyboard-response","281","96181","0.0-329.0","","","","","null","<img src=""img/food6.png"" style=""width:200px; border:14px solid green;"">","null","","","","","","","","","",""
"","image-keyboard-response","282","96190","0.0-331.0","","","","","7.900000035762787","img/food4.png","75","8.399999976158142","2","0","1","2","1,0.7,0,1,0.7,0,0.7,0,1","0.7,0,1,0.7,0,1,0,1,0.7","2","false",""
"","html-keyboard-response","283","96491","0.0-332.0","","","","","null","<img src=""img/food4.png"" style=""width:200px;border:14px solid red;"">","null","","","","","","","","","",""
"","image-keyboard-response","284","96615","0.0-334.0","","","","","122.30000001192093","img/food2.png","74","123.60000002384186","1","0","2","2","1,0.7,0,1,0.7,0,0.7,0,1","0.7,0,1,0.7,0,1,0,1,0.7","2","false",""
"","html-keyboard-response","285","96917","0.0-335.0","","","","","null","<img src=""img/food2.png"" style=""width:200px;border:14px solid red;"">","null","","","","","","","","","",""
"","image-keyboard-response","286","97031","0.0-337.0","","","","","111.59999996423721","img/food4.png","75","112.80000001192093","2","0","1","2","1,0.7,0,1,0.7,0,0.7,0,1","0.7,0,1,0.7,0,1,0,1,0.7","2","false",""
"","html-keyboard-response","287","97334","0.0-338.0","","","","","null","<img src=""img/food4.png"" style=""width:200px;border:14px solid red;"">","null","","","","","","","","","",""
"","image-keyboard-response","288","97422","0.0-340.0","","","","","87.59999996423721","img/food2.png","76","88.39999997615814","3","1","2","2","1,0.7,0,1,0.7,0,0.7,0,1","0.7,0,1,0.7,0,1,0,1,0.7","2","false",""
"","html-keyboard-response","289","97724","0.0-341.0","","","","","null","<img src=""img/food2.png"" style=""width:200px; border:14px solid green;"">","null","","","","","","","","","",""
"","image-keyboard-response","290","97766","0.0-343.0","","","","","41.39999997615814","img/food4.png","76","42","3","1","1","2","1,0.7,0,1,0.7,0,0.7,0,1","0.7,0,1,0.7,0,1,0,1,0.7","2","false",""
"","html-keyboard-response","291","98068","0.0-344.0","","","","","null","<img src=""img/food4.png"" style=""width:200px; border:14px solid green;"">","null","","","","","","","","","",""
"","image-keyboard-response","292","98174","0.0-346.0","","","","","105.59999996423721","img/food4.png","74","106.30000001192093","1","1","1","2","1,0.7,0,1,0.7,0,0.7,0,1","0.7,0,1,0.7,0,1,0,1,0.7","2","false",""
"","html-keyboard-response","293","98477","0.0-347.0","","","","","null","<img src=""img/food4.png"" style=""width:200px; border:14px solid green;"">","null","","","","","","","","","",""
"","image-keyboard-response","294","98590","0.0-349.0","","","","","112.80000001192093","img/food2.png","74","113.70000004768372","1","1","2","2","1,0.7,0,1,0.7,0,0.7,0,1","0.7,0,1,0.7,0,1,0,1,0.7","2","false",""
"","html-keyboard-response","295","98892","0.0-350.0","","","","","null","<img src=""img/food2.png"" style=""width:200px; border:14px solid green;"">","null","","","","","","","","","",""
"","image-keyboard-response","296","99023","0.0-352.0","","","","","129.5","img/food2.png","75","130.60000002384186","2","0","2","2","1,0.7,0,1,0.7,0,0.7,0,1","0.7,0,1,0.7,0,1,0,1,0.7","2","false",""
"","html-keyboard-response","297","99335","0.0-353.0","","","","","null","<img src=""img/food2.png"" style=""width:200px;border:14px solid red;"">","null","","","","","","","","","",""
"","image-keyboard-response","298","99390","0.0-355.0","","","","","53.19999998807907","img/food6.png","76","53.89999997615814","3","1","3","2","1,0.7,0,1,0.7,0,0.7,0,1","0.7,0,1,0.7,0,1,0,1,0.7","2","false",""
"","html-keyboard-response","299","99691","0.0-356.0","","","","","null","<img src=""img/food6.png"" style=""width:200px; border:14px solid green;"">","null","","","","","","","","","",""
"","image-keyboard-response","300","99815","0.0-358.0","","","","","122.30000001192093","img/food4.png","75","123.29999995231628","2","0","1","2","1,0.7,0,1,0.7,0,0.7,0,1","0.7,0,1,0.7,0,1,0,1,0.7","2","false",""
"","html-keyboard-response","301","100116","0.0-359.0","","","","","null","<img src=""img/food4.png"" style=""width:200px;border:14px solid red;"">","null","","","","","","","","","",""
"","image-keyboard-response","302","100230","0.0-361.0","","","","","113.19999998807907","img/food6.png","74","114","1","0","3","2","1,0.7,0,1,0.7,0,0.7,0,1","0.7,0,1,0.7,0,1,0,1,0.7","2","false",""
"","html-keyboard-response","303","100532","0.0-362.0","","","","","null","<img src=""img/food6.png"" style=""width:200px;border:14px solid red;"">","null","","","","","","","","","",""
"","image-keyboard-response","304","100742","0.0-364.0","","","","","209","img/food4.png","75","210.0999999642372","2","0","1","2","1,0.7,0,1,0.7,0,0.7,0,1","0.7,0,1,0.7,0,1,0,1,0.7","2","false",""
"","html-keyboard-response","305","101045","0.0-365.0","","","","","null","<img src=""img/food4.png"" style=""width:200px;border:14px solid red;"">","null","","","","","","","","","",""
"","image-keyboard-response","306","101222","0.0-367.0","","","","","175.79999995231628","img/food6.png","76","177","3","0","3","2","1,0.7,0,1,0.7,0,0.7,0,1","0.7,0,1,0.7,0,1,0,1,0.7","2","false",""
"","html-keyboard-response","307","101525","0.0-368.0","","","","","null","<img src=""img/food6.png"" style=""width:200px;border:14px solid red;"">","null","","","","","","","","","",""
"","image-keyboard-response","308","101534","0.0-370.0","","","","","8","img/food2.png","75","8.800000011920929","2","0","2","2","1,0.7,0,1,0.7,0,0.7,0,1","0.7,0,1,0.7,0,1,0,1,0.7","2","false",""
"","html-keyboard-response","309","101835","0.0-371.0","","","","","null","<img src=""img/food2.png"" style=""width:200px;border:14px solid red;"">","null","","","","","","","","","",""
"","image-keyboard-response","310","102014","0.0-373.0","","","","","177.89999997615814","img/food2.png","74","178.39999997615814","1","1","2","2","1,0.7,0,1,0.7,0,0.7,0,1","0.7,0,1,0.7,0,1,0,1,0.7","2","false",""
"","html-keyboard-response","311","102315","0.0-374.0","","","","","null","<img src=""img/food2.png"" style=""width:200px; border:14px solid green;"">","null","","","","","","","","","",""
"","image-keyboard-response","312","102374","0.0-376.0","","","","","58.30000001192093","img/food2.png","74","58.80000001192093","1","1","2","2","1,0.7,0,1,0.7,0,0.7,0,1","0.7,0,1,0.7,0,1,0,1,0.7","2","false",""
"","html-keyboard-response","313","102676","0.0-377.0","","","","","null","<img src=""img/food2.png"" style=""width:200px; border:14px solid green;"">","null","","","","","","","","","",""
"","image-keyboard-response","314","102695","0.0-379.0","","","","","17.30000001192093","img/food6.png","75","18.399999976158142","2","1","3","2","1,0.7,0,1,0.7,0,0.7,0,1","0.7,0,1,0.7,0,1,0,1,0.7","2","false",""
"","html-keyboard-response","315","102997","0.0-380.0","","","","","null","<img src=""img/food6.png"" style=""width:200px; border:14px solid green;"">","null","","","","","","","","","",""
"","image-keyboard-response","316","103174","0.0-382.0","","","","","176.5","img/food2.png","76","177.19999998807907","3","1","2","2","1,0.7,0,1,0.7,0,0.7,0,1","0.7,0,1,0.7,0,1,0,1,0.7","2","false",""
"","html-keyboard-response","317","103479","0.0-383.0","","","","","null","<img src=""img/food2.png"" style=""width:200px; border:14px solid green;"">","null","","","","","","","","","",""
"","image-keyboard-response","318","103694","0.0-385.0","","","","","214.5","img/food2.png","75","215.60000002384186","2","0","2","2","1,0.7,0,1,0.7,0,0.7,0,1","0.7,0,1,0.7,0,1,0,1,0.7","2","false",""
"","html-keyboard-response","319","103997","0.0-386.0","","","","","null","<img src=""img/food2.png"" style=""width:200px;border:14px solid red;"">","null","","","","","","","","","",""
"","image-keyboard-response","320","104070","0.0-388.0","","","","","71.60000002384186","img/food6.png","74","72.70000004768372","1","0","3","2","1,0.7,0,1,0.7,0,0.7,0,1","0.7,0,1,0.7,0,1,0,1,0.7","2","false",""
"","html-keyboard-response","321","104371","0.0-389.0","","","","","null","<img src=""img/food6.png"" style=""width:200px;border:14px solid red;"">","null","","","","","","","","","",""
"","image-keyboard-response","322","104382","0.0-391.0","","","","","9.5","img/food6.png","75","10.199999988079071","2","1","3","2","1,0.7,0,1,0.7,0,0.7,0,1","0.7,0,1,0.7,0,1,0,1,0.7","2","false",""
"","html-keyboard-response","323","104684","0.0-392.0","","","","","null","<img src=""img/food6.png"" style=""width:200px; border:14px solid green;"">","null","","","","","","","","","",""
"","image-keyboard-response","324","104751","0.0-394.0","","","","","65.20000004768372","img/food4.png","76","66.39999997615814","3","1","1","2","1,0.7,0,1,0.7,0,0.7,0,1","0.7,0,1,0.7,0,1,0,1,0.7","2","false",""
"","html-keyboard-response","325","105052","0.0-395.0","","","","","null","<img src=""img/food4.png"" style=""width:200px; border:14px solid green;"">","null","","","","","","","","","",""
"","image-keyboard-response","326","105118","0.0-397.0","","","","","64.59999996423721","img/food2.png","76","65.69999998807907","3","1","2","2","1,0.7,0,1,0.7,0,0.7,0,1","0.7,0,1,0.7,0,1,0,1,0.7","2","false",""
"","html-keyboard-response","327","105421","0.0-398.0","","","","","null","<img src=""img/food2.png"" style=""width:200px; border:14px solid green;"">","null","","","","","","","","","",""
"","image-keyboard-response","328","105583","0.0-400.0","","","","","161.19999998807907","img/food4.png","75","161.89999997615814","2","0","1","2","1,0.7,0,1,0.7,0,0.7,0,1","0.7,0,1,0.7,0,1,0,1,0.7","2","false",""
"","html-keyboard-response","329","105885","0.0-401.0","","","","","null","<img src=""img/food4.png"" style=""width:200px;border:14px solid red;"">","null","","","","","","","","","",""
"","image-keyboard-response","330","106094","0.0-403.0","","","","","207.39999997615814","img/food4.png","74","208.69999998807907","1","1","1","2","1,0.7,0,1,0.7,0,0.7,0,1","0.7,0,1,0.7,0,1,0,1,0.7","2","false",""
"","html-keyboard-response","331","106397","0.0-404.0","","","","","null","<img src=""img/food4.png"" style=""width:200px; border:14px solid green;"">","null","","","","","","","","","",""
"","image-keyboard-response","332","106535","0.0-406.0","","","","","136.89999997615814","img/food4.png","76","137.89999997615814","3","1","1","2","1,0.7,0,1,0.7,0,0.7,0,1","0.7,0,1,0.7,0,1,0,1,0.7","2","false",""
"","html-keyboard-response","333","106837","0.0-407.0","","","","","null","<img src=""img/food4.png"" style=""width:200px; border:14px solid green;"">","null","","","","","","","","","",""
"","image-keyboard-response","334","107070","0.0-409.0","","","","","231.29999995231628","img/food2.png","75","232.5","2","0","2","2","1,0.7,0,1,0.7,0,0.7,0,1","0.7,0,1,0.7,0,1,0,1,0.7","2","false",""
"","html-keyboard-response","335","107371","0.0-410.0","","","","","null","<img src=""img/food2.png"" style=""width:200px;border:14px solid red;"">","null","","","","","","","","","",""
"","image-keyboard-response","336","107430","0.0-412.0","","","","","57.89999997615814","img/food4.png","75","59","2","0","1","2","1,0.7,0,1,0.7,0,0.7,0,1","0.7,0,1,0.7,0,1,0,1,0.7","2","false",""
"","html-keyboard-response","337","107733","0.0-413.0","","","","","null","<img src=""img/food4.png"" style=""width:200px;border:14px solid red;"">","null","","","","","","","","","",""
"","image-keyboard-response","338","107886","0.0-415.0","","","","","151.89999997615814","img/food4.png","76","153","3","1","1","2","1,0.7,0,1,0.7,0,0.7,0,1","0.7,0,1,0.7,0,1,0,1,0.7","2","false",""
"","html-keyboard-response","339","108189","0.0-416.0","","","","","null","<img src=""img/food4.png"" style=""width:200px; border:14px solid green;"">","null","","","","","","","","","",""
"","image-keyboard-response","340","108286","0.0-418.0","","","","","96.10000002384186","img/food6.png","75","97.30000001192093","2","1","3","2","1,0.7,0,1,0.7,0,0.7,0,1","0.7,0,1,0.7,0,1,0,1,0.7","2","false",""
"","html-keyboard-response","341","108589","0.0-419.0","","","","","null","<img src=""img/food6.png"" style=""width:200px; border:14px solid green;"">","null","","","","","","","","","",""
"","image-keyboard-response","342","108710","0.0-421.0","","","","","120.29999995231628","img/food2.png","74","121.5","1","1","2","2","1,0.7,0,1,0.7,0,0.7,0,1","0.7,0,1,0.7,0,1,0,1,0.7","2","false",""
"","html-keyboard-response","343","109013","0.0-422.0","","","","","null","<img src=""img/food2.png"" style=""width:200px; border:14px solid green;"">","null","","","","","","","","","",""
"","image-keyboard-response","344","109086","0.0-424.0","","","","","71.59999996423721","img/food4.png","75","72.60000002384186","2","0","1","2","1,0.7,0,1,0.7,0,0.7,0,1","0.7,0,1,0.7,0,1,0,1,0.7","2","false",""
"","html-keyboard-response","345","109388","0.0-425.0","","","","","null","<img src=""img/food4.png"" style=""width:200px;border:14px solid red;"">","null","","","","","","","","","",""
"","image-keyboard-response","346","109398","0.0-427.0","","","","","9.099999964237213","img/food6.png","76","9.899999976158142","3","0","3","2","1,0.7,0,1,0.7,0,0.7,0,1","0.7,0,1,0.7,0,1,0,1,0.7","2","false",""
"","html-keyboard-response","347","109700","0.0-428.0","","","","","null","<img src=""img/food6.png"" style=""width:200px;border:14px solid red;"">","null","","","","","","","","","",""
"","image-keyboard-response","348","109791","0.0-430.0","","","","","89.5","img/food6.png","76","90.69999998807907","3","1","3","2","1,0.7,0,1,0.7,0,0.7,0,1","0.7,0,1,0.7,0,1,0,1,0.7","2","false",""
"","html-keyboard-response","349","110093","0.0-431.0","","","","","null","<img src=""img/food6.png"" style=""width:200px; border:14px solid green;"">","null","","","","","","","","","",""
"","image-keyboard-response","350","110109","0.0-433.0","","","","","15.300000011920929","img/food2.png","75","16","2","0","2","2","1,0.7,0,1,0.7,0,0.7,0,1","0.7,0,1,0.7,0,1,0,1,0.7","2","false",""
"","html-keyboard-response","351","110412","0.0-434.0","","","","","null","<img src=""img/food2.png"" style=""width:200px;border:14px solid red;"">","null","","","","","","","","","",""
"","image-keyboard-response","352","110470","0.0-436.0","","","","","56.60000002384186","img/food6.png","74","57.59999996423721","1","0","3","2","1,0.7,0,1,0.7,0,0.7,0,1","0.7,0,1,0.7,0,1,0,1,0.7","2","false",""
"","html-keyboard-response","353","110773","0.0-437.0","","","","","null","<img src=""img/food6.png"" style=""width:200px;border:14px solid red;"">","null","","","","","","","","","",""
"","image-keyboard-response","354","110855","0.0-439.0","","","","","80.30000001192093","img/food4.png","74","81.60000002384186","1","1","1","2","1,0.7,0,1,0.7,0,0.7,0,1","0.7,0,1,0.7,0,1,0,1,0.7","2","false",""
"","html-keyboard-response","355","111156","0.0-440.0","","","","","null","<img src=""img/food4.png"" style=""width:200px; border:14px solid green;"">","null","","","","","","","","","",""
"","image-keyboard-response","356","111341","0.0-442.0","","","","","184.19999998807907","img/food4.png","76","185","3","1","1","2","1,0.7,0,1,0.7,0,0.7,0,1","0.7,0,1,0.7,0,1,0,1,0.7","2","false",""
"","html-keyboard-response","357","111643","0.0-443.0","","","","","null","<img src=""img/food4.png"" style=""width:200px; border:14px solid green;"">","null","","","","","","","","","",""
"","image-keyboard-response","358","111767","0.0-445.0","","","","","122.10000002384186","img/food4.png","75","123.19999998807907","2","0","1","2","1,0.7,0,1,0.7,0,0.7,0,1","0.7,0,1,0.7,0,1,0,1,0.7","2","false",""
"","html-keyboard-response","359","112068","0.0-446.0","","","","","null","<img src=""img/food4.png"" style=""width:200px;border:14px solid red;"">","null","","","","","","","","","",""
"","image-keyboard-response","360","112246","0.0-448.0","","","","","176.60000002384186","img/food2.png","75","177.60000002384186","2","0","2","2","1,0.7,0,1,0.7,0,0.7,0,1","0.7,0,1,0.7,0,1,0,1,0.7","2","false",""
"","html-keyboard-response","361","112549","0.0-449.0","","","","","null","<img src=""img/food2.png"" style=""width:200px;border:14px solid red;"">","null","","","","","","","","","",""
"","image-keyboard-response","362","112614","0.0-451.0","","","","","64.39999997615814","img/food2.png","74","65","1","1","2","2","1,0.7,0,1,0.7,0,0.7,0,1","0.7,0,1,0.7,0,1,0,1,0.7","2","false",""
"","html-keyboard-response","363","112916","0.0-452.0","","","","","null","<img src=""img/food2.png"" style=""width:200px; border:14px solid green;"">","null","","","","","","","","","",""
"","instructions","364","114648","0.0-454.0","","","","[{""page_index"":0,""viewing_time"":1731}]","1731.300000011921","","","","","","","","","","","",""
"","survey-text","365","121258","0.0-455.0","","","","","6607.400000035763","","","","","","","","","","","","{""Q0"":""A2KDYSLV030FVX""}"
