"success","trial_type","trial_index","time_elapsed","internal_node_id","assignmentID","mturkID","hitID","view_history","rt","stimulus","key_press","reactionTime","a","r","warning","s","cond","reward_cond","reward_cond_actual","reward_matrix_idx","responses"
"true","fullscreen","0","3409","0.0-0.0","30ZX6P7VF9HPC7LBZAI2QLXMYQ0J2N","A2LKGF193ZR5JP","3KTZHH2ONI1ODAVRRMZTRL6IHCUM80","","","","","","","","","","","","","",""
"","instructions","1","31307","0.0-1.0","30ZX6P7VF9HPC7LBZAI2QLXMYQ0J2N","A2LKGF193ZR5JP","3KTZHH2ONI1ODAVRRMZTRL6IHCUM80","[{""page_index"":0,""viewing_time"":4543.299999952316},{""page_index"":1,""viewing_time"":3468.100000143051},{""page_index"":2,""viewing_time"":2130.399999856949},{""page_index"":3,""viewing_time"":3205.2000000476837},{""page_index"":4,""viewing_time"":4841.700000047684},{""page_index"":5,""viewing_time"":3254.9000000953674},{""page_index"":6,""viewing_time"":6453}]","27896.900000095367","","","","","","","","","","","",""
"","instructions","2","44300","0.0-2.0","30ZX6P7VF9HPC7LBZAI2QLXMYQ0J2N","A2LKGF193ZR5JP","3KTZHH2ONI1ODAVRRMZTRL6IHCUM80","[{""page_index"":0,""viewing_time"":11915.099999904633},{""page_index"":1,""viewing_time"":1076.5}]","12992","","","","","","","","","","","",""
"","image-keyboard-response","3","45103","0.0-3.0","30ZX6P7VF9HPC7LBZAI2QLXMYQ0J2N","A2LKGF193ZR5JP","3KTZHH2ONI1ODAVRRMZTRL6IHCUM80","","801","img/food3.png","74","802.0999999046326","1","1","false","3","2","1,0.7,0,1,0.7,0,0.7,0,1","0,1,0.7,0,1,0.7,1,0.7,0","3",""
"","html-keyboard-response","4","45405","0.0-4.0","30ZX6P7VF9HPC7LBZAI2QLXMYQ0J2N","A2LKGF193ZR5JP","3KTZHH2ONI1ODAVRRMZTRL6IHCUM80","","null","<img src=""img/food3.png"" style=""width:200px; border:14px solid green;"">","null","","","","","","","","","",""
"","image-keyboard-response","5","46077","0.0-6.0","30ZX6P7VF9HPC7LBZAI2QLXMYQ0J2N","A2LKGF193ZR5JP","3KTZHH2ONI1ODAVRRMZTRL6IHCUM80","","670.5","img/food6.png","74","671.2999999523163","1","0","false","2","2","1,0.7,0,1,0.7,0,0.7,0,1","0,1,0.7,0,1,0.7,1,0.7,0","3",""
"","html-keyboard-response","6","46379","0.0-7.0","30ZX6P7VF9HPC7LBZAI2QLXMYQ0J2N","A2LKGF193ZR5JP","3KTZHH2ONI1ODAVRRMZTRL6IHCUM80","","null","<img src=""img/food6.png"" style=""width:200px;border:14px solid red;"">","null","","","","","","","","","",""
"","image-keyboard-response","7","47069","0.0-9.0","30ZX6P7VF9HPC7LBZAI2QLXMYQ0J2N","A2LKGF193ZR5JP","3KTZHH2ONI1ODAVRRMZTRL6IHCUM80","","689.0999999046326","img/food3.png","74","690.1000001430511","1","1","false","3","2","1,0.7,0,1,0.7,0,0.7,0,1","0,1,0.7,0,1,0.7,1,0.7,0","3",""
"","html-keyboard-response","8","47372","0.0-10.0","30ZX6P7VF9HPC7LBZAI2QLXMYQ0J2N","A2LKGF193ZR5JP","3KTZHH2ONI1ODAVRRMZTRL6IHCUM80","","null","<img src=""img/food3.png"" style=""width:200px; border:14px solid green;"">","null","","","","","","","","","",""
"","image-keyboard-response","9","47932","0.0-12.0","30ZX6P7VF9HPC7LBZAI2QLXMYQ0J2N","A2LKGF193ZR5JP","3KTZHH2ONI1ODAVRRMZTRL6IHCUM80","","558.2999999523163","img/food3.png","74","559.3000001907349","1","1","false","3","2","1,0.7,0,1,0.7,0,0.7,0,1","0,1,0.7,0,1,0.7,1,0.7,0","3",""
"","html-keyboard-response","10","48233","0.0-13.0","30ZX6P7VF9HPC7LBZAI2QLXMYQ0J2N","A2LKGF193ZR5JP","3KTZHH2ONI1ODAVRRMZTRL6IHCUM80","","null","<img src=""img/food3.png"" style=""width:200px; border:14px solid green;"">","null","","","","","","","","","",""
"","image-keyboard-response","11","48949","0.0-15.0","30ZX6P7VF9HPC7LBZAI2QLXMYQ0J2N","A2LKGF193ZR5JP","3KTZHH2ONI1ODAVRRMZTRL6IHCUM80","","714.7000000476837","img/food1.png","75","715.3999998569489","2","1","false","1","2","1,0.7,0,1,0.7,0,0.7,0,1","0,1,0.7,0,1,0.7,1,0.7,0","3",""
"","html-keyboard-response","12","49251","0.0-16.0","30ZX6P7VF9HPC7LBZAI2QLXMYQ0J2N","A2LKGF193ZR5JP","3KTZHH2ONI1ODAVRRMZTRL6IHCUM80","","null","<img src=""img/food1.png"" style=""width:200px; border:14px solid green;"">","null","","","","","","","","","",""
"","image-keyboard-response","13","49796","0.0-18.0","30ZX6P7VF9HPC7LBZAI2QLXMYQ0J2N","A2LKGF193ZR5JP","3KTZHH2ONI1ODAVRRMZTRL6IHCUM80","","544.2000000476837","img/food1.png","75","545","2","1","false","1","2","1,0.7,0,1,0.7,0,0.7,0,1","0,1,0.7,0,1,0.7,1,0.7,0","3",""
"","html-keyboard-response","14","50098","0.0-19.0","30ZX6P7VF9HPC7LBZAI2QLXMYQ0J2N","A2LKGF193ZR5JP","3KTZHH2ONI1ODAVRRMZTRL6IHCUM80","","null","<img src=""img/food1.png"" style=""width:200px; border:14px solid green;"">","null","","","","","","","","","",""
"","image-keyboard-response","15","50341","0.0-21.0","30ZX6P7VF9HPC7LBZAI2QLXMYQ0J2N","A2LKGF193ZR5JP","3KTZHH2ONI1ODAVRRMZTRL6IHCUM80","","241.79999995231628","img/food6.png","75","242.39999985694885","2","1","false","2","2","1,0.7,0,1,0.7,0,0.7,0,1","0,1,0.7,0,1,0.7,1,0.7,0","3",""
"","html-keyboard-response","16","50650","0.0-22.0","30ZX6P7VF9HPC7LBZAI2QLXMYQ0J2N","A2LKGF193ZR5JP","3KTZHH2ONI1ODAVRRMZTRL6IHCUM80","","null","<img src=""img/food6.png"" style=""width:200px; border:14px solid green;"">","null","","","","","","","","","",""
"","image-keyboard-response","17","50989","0.0-24.0","30ZX6P7VF9HPC7LBZAI2QLXMYQ0J2N","A2LKGF193ZR5JP","3KTZHH2ONI1ODAVRRMZTRL6IHCUM80","","337.2999999523163","img/food6.png","75","337.89999985694885","2","1","false","2","2","1,0.7,0,1,0.7,0,0.7,0,1","0,1,0.7,0,1,0.7,1,0.7,0","3",""
"","html-keyboard-response","18","51290","0.0-25.0","30ZX6P7VF9HPC7LBZAI2QLXMYQ0J2N","A2LKGF193ZR5JP","3KTZHH2ONI1ODAVRRMZTRL6IHCUM80","","null","<img src=""img/food6.png"" style=""width:200px; border:14px solid green;"">","null","","","","","","","","","",""
"","image-keyboard-response","19","51485","0.0-27.0","30ZX6P7VF9HPC7LBZAI2QLXMYQ0J2N","A2LKGF193ZR5JP","3KTZHH2ONI1ODAVRRMZTRL6IHCUM80","","193.20000004768372","img/food6.png","75","194.10000014305115","2","1","false","2","2","1,0.7,0,1,0.7,0,0.7,0,1","0,1,0.7,0,1,0.7,1,0.7,0","3",""
"","html-keyboard-response","20","51786","0.0-28.0","30ZX6P7VF9HPC7LBZAI2QLXMYQ0J2N","A2LKGF193ZR5JP","3KTZHH2ONI1ODAVRRMZTRL6IHCUM80","","null","<img src=""img/food6.png"" style=""width:200px; border:14px solid green;"">","null","","","","","","","","","",""
"","image-keyboard-response","21","51999","0.0-30.0","30ZX6P7VF9HPC7LBZAI2QLXMYQ0J2N","A2LKGF193ZR5JP","3KTZHH2ONI1ODAVRRMZTRL6IHCUM80","","212","img/food1.png","75","212.60000014305115","2","1","false","1","2","1,0.7,0,1,0.7,0,0.7,0,1","0,1,0.7,0,1,0.7,1,0.7,0","3",""
"","html-keyboard-response","22","52300","0.0-31.0","30ZX6P7VF9HPC7LBZAI2QLXMYQ0J2N","A2LKGF193ZR5JP","3KTZHH2ONI1ODAVRRMZTRL6IHCUM80","","null","<img src=""img/food1.png"" style=""width:200px; border:14px solid green;"">","null","","","","","","","","","",""
"","image-keyboard-response","23","52501","0.0-33.0","30ZX6P7VF9HPC7LBZAI2QLXMYQ0J2N","A2LKGF193ZR5JP","3KTZHH2ONI1ODAVRRMZTRL6IHCUM80","","199.60000014305115","img/food1.png","75","200.20000004768372","2","1","false","1","2","1,0.7,0,1,0.7,0,0.7,0,1","0,1,0.7,0,1,0.7,1,0.7,0","3",""
"","html-keyboard-response","24","52812","0.0-34.0","30ZX6P7VF9HPC7LBZAI2QLXMYQ0J2N","A2LKGF193ZR5JP","3KTZHH2ONI1ODAVRRMZTRL6IHCUM80","","null","<img src=""img/food1.png"" style=""width:200px; border:14px solid green;"">","null","","","","","","","","","",""
"","image-keyboard-response","25","52956","0.0-36.0","30ZX6P7VF9HPC7LBZAI2QLXMYQ0J2N","A2LKGF193ZR5JP","3KTZHH2ONI1ODAVRRMZTRL6IHCUM80","","142.59999990463257","img/food6.png","75","143.5","2","1","false","2","2","1,0.7,0,1,0.7,0,0.7,0,1","0,1,0.7,0,1,0.7,1,0.7,0","3",""
"","html-keyboard-response","26","53258","0.0-37.0","30ZX6P7VF9HPC7LBZAI2QLXMYQ0J2N","A2LKGF193ZR5JP","3KTZHH2ONI1ODAVRRMZTRL6IHCUM80","","null","<img src=""img/food6.png"" style=""width:200px; border:14px solid green;"">","null","","","","","","","","","",""
"","image-keyboard-response","27","53540","0.0-39.0","30ZX6P7VF9HPC7LBZAI2QLXMYQ0J2N","A2LKGF193ZR5JP","3KTZHH2ONI1ODAVRRMZTRL6IHCUM80","","280.7000000476837","img/food3.png","75","281.5","2","1","false","3","2","1,0.7,0,1,0.7,0,0.7,0,1","0,1,0.7,0,1,0.7,1,0.7,0","3",""
"","html-keyboard-response","28","53841","0.0-40.0","30ZX6P7VF9HPC7LBZAI2QLXMYQ0J2N","A2LKGF193ZR5JP","3KTZHH2ONI1ODAVRRMZTRL6IHCUM80","","null","<img src=""img/food3.png"" style=""width:200px; border:14px solid green;"">","null","","","","","","","","","",""
"","image-keyboard-response","29","54081","0.0-42.0","30ZX6P7VF9HPC7LBZAI2QLXMYQ0J2N","A2LKGF193ZR5JP","3KTZHH2ONI1ODAVRRMZTRL6IHCUM80","","239.29999995231628","img/food3.png","75","240","2","1","false","3","2","1,0.7,0,1,0.7,0,0.7,0,1","0,1,0.7,0,1,0.7,1,0.7,0","3",""
"","html-keyboard-response","30","54383","0.0-43.0","30ZX6P7VF9HPC7LBZAI2QLXMYQ0J2N","A2LKGF193ZR5JP","3KTZHH2ONI1ODAVRRMZTRL6IHCUM80","","null","<img src=""img/food3.png"" style=""width:200px; border:14px solid green;"">","null","","","","","","","","","",""
"","image-keyboard-response","31","54503","0.0-45.0","30ZX6P7VF9HPC7LBZAI2QLXMYQ0J2N","A2LKGF193ZR5JP","3KTZHH2ONI1ODAVRRMZTRL6IHCUM80","","119.20000004768372","img/food3.png","75","120","2","1","false","3","2","1,0.7,0,1,0.7,0,0.7,0,1","0,1,0.7,0,1,0.7,1,0.7,0","3",""
"","html-keyboard-response","32","54806","0.0-46.0","30ZX6P7VF9HPC7LBZAI2QLXMYQ0J2N","A2LKGF193ZR5JP","3KTZHH2ONI1ODAVRRMZTRL6IHCUM80","","null","<img src=""img/food3.png"" style=""width:200px; border:14px solid green;"">","null","","","","","","","","","",""
"","image-keyboard-response","33","55207","0.0-48.0","30ZX6P7VF9HPC7LBZAI2QLXMYQ0J2N","A2LKGF193ZR5JP","3KTZHH2ONI1ODAVRRMZTRL6IHCUM80","","400","img/food3.png","75","400.89999985694885","2","1","false","3","2","1,0.7,0,1,0.7,0,0.7,0,1","0,1,0.7,0,1,0.7,1,0.7,0","3",""
"","html-keyboard-response","34","55509","0.0-49.0","30ZX6P7VF9HPC7LBZAI2QLXMYQ0J2N","A2LKGF193ZR5JP","3KTZHH2ONI1ODAVRRMZTRL6IHCUM80","","null","<img src=""img/food3.png"" style=""width:200px; border:14px solid green;"">","null","","","","","","","","","",""
"","image-keyboard-response","35","55672","0.0-51.0","30ZX6P7VF9HPC7LBZAI2QLXMYQ0J2N","A2LKGF193ZR5JP","3KTZHH2ONI1ODAVRRMZTRL6IHCUM80","","162.89999985694885","img/food1.png","75","163.40000009536743","2","1","false","1","2","1,0.7,0,1,0.7,0,0.7,0,1","0,1,0.7,0,1,0.7,1,0.7,0","3",""
"","html-keyboard-response","36","55975","0.0-52.0","30ZX6P7VF9HPC7LBZAI2QLXMYQ0J2N","A2LKGF193ZR5JP","3KTZHH2ONI1ODAVRRMZTRL6IHCUM80","","null","<img src=""img/food1.png"" style=""width:200px; border:14px solid green;"">","null","","","","","","","","","",""
"","image-keyboard-response","37","56229","0.0-54.0","30ZX6P7VF9HPC7LBZAI2QLXMYQ0J2N","A2LKGF193ZR5JP","3KTZHH2ONI1ODAVRRMZTRL6IHCUM80","","253.59999990463257","img/food6.png","75","254.20000004768372","2","1","false","2","2","1,0.7,0,1,0.7,0,0.7,0,1","0,1,0.7,0,1,0.7,1,0.7,0","3",""
"","html-keyboard-response","38","56531","0.0-55.0","30ZX6P7VF9HPC7LBZAI2QLXMYQ0J2N","A2LKGF193ZR5JP","3KTZHH2ONI1ODAVRRMZTRL6IHCUM80","","null","<img src=""img/food6.png"" style=""width:200px; border:14px solid green;"">","null","","","","","","","","","",""
"","image-keyboard-response","39","56732","0.0-57.0","30ZX6P7VF9HPC7LBZAI2QLXMYQ0J2N","A2LKGF193ZR5JP","3KTZHH2ONI1ODAVRRMZTRL6IHCUM80","","200.09999990463257","img/food1.png","75","200.69999980926514","2","1","false","1","2","1,0.7,0,1,0.7,0,0.7,0,1","0,1,0.7,0,1,0.7,1,0.7,0","3",""
"","html-keyboard-response","40","57034","0.0-58.0","30ZX6P7VF9HPC7LBZAI2QLXMYQ0J2N","A2LKGF193ZR5JP","3KTZHH2ONI1ODAVRRMZTRL6IHCUM80","","null","<img src=""img/food1.png"" style=""width:200px; border:14px solid green;"">","null","","","","","","","","","",""
"","image-keyboard-response","41","57206","0.0-60.0","30ZX6P7VF9HPC7LBZAI2QLXMYQ0J2N","A2LKGF193ZR5JP","3KTZHH2ONI1ODAVRRMZTRL6IHCUM80","","170.20000004768372","img/food1.png","75","171","2","1","false","1","2","1,0.7,0,1,0.7,0,0.7,0,1","0,1,0.7,0,1,0.7,1,0.7,0","3",""
"","html-keyboard-response","42","57508","0.0-61.0","30ZX6P7VF9HPC7LBZAI2QLXMYQ0J2N","A2LKGF193ZR5JP","3KTZHH2ONI1ODAVRRMZTRL6IHCUM80","","null","<img src=""img/food1.png"" style=""width:200px; border:14px solid green;"">","null","","","","","","","","","",""
"","image-keyboard-response","43","57668","0.0-63.0","30ZX6P7VF9HPC7LBZAI2QLXMYQ0J2N","A2LKGF193ZR5JP","3KTZHH2ONI1ODAVRRMZTRL6IHCUM80","","157.29999995231628","img/food6.png","75","158.29999995231628","2","1","false","2","2","1,0.7,0,1,0.7,0,0.7,0,1","0,1,0.7,0,1,0.7,1,0.7,0","3",""
"","html-keyboard-response","44","57971","0.0-64.0","30ZX6P7VF9HPC7LBZAI2QLXMYQ0J2N","A2LKGF193ZR5JP","3KTZHH2ONI1ODAVRRMZTRL6IHCUM80","","null","<img src=""img/food6.png"" style=""width:200px; border:14px solid green;"">","null","","","","","","","","","",""
"","image-keyboard-response","45","58172","0.0-66.0","30ZX6P7VF9HPC7LBZAI2QLXMYQ0J2N","A2LKGF193ZR5JP","3KTZHH2ONI1ODAVRRMZTRL6IHCUM80","","200.90000009536743","img/food3.png","75","201.70000004768372","2","1","false","3","2","1,0.7,0,1,0.7,0,0.7,0,1","0,1,0.7,0,1,0.7,1,0.7,0","3",""
"","html-keyboard-response","46","58474","0.0-67.0","30ZX6P7VF9HPC7LBZAI2QLXMYQ0J2N","A2LKGF193ZR5JP","3KTZHH2ONI1ODAVRRMZTRL6IHCUM80","","null","<img src=""img/food3.png"" style=""width:200px; border:14px solid green;"">","null","","","","","","","","","",""
"","image-keyboard-response","47","58741","0.0-69.0","30ZX6P7VF9HPC7LBZAI2QLXMYQ0J2N","A2LKGF193ZR5JP","3KTZHH2ONI1ODAVRRMZTRL6IHCUM80","","265.5","img/food3.png","75","266.2999999523163","2","0","false","3","2","1,0.7,0,1,0.7,0,0.7,0,1","0,1,0.7,0,1,0.7,1,0.7,0","3",""
"","html-keyboard-response","48","59042","0.0-70.0","30ZX6P7VF9HPC7LBZAI2QLXMYQ0J2N","A2LKGF193ZR5JP","3KTZHH2ONI1ODAVRRMZTRL6IHCUM80","","null","<img src=""img/food3.png"" style=""width:200px;border:14px solid red;"">","null","","","","","","","","","",""
"","image-keyboard-response","49","59317","0.0-72.0","30ZX6P7VF9HPC7LBZAI2QLXMYQ0J2N","A2LKGF193ZR5JP","3KTZHH2ONI1ODAVRRMZTRL6IHCUM80","","273.19999980926514","img/food3.png","75","273.90000009536743","2","1","false","3","2","1,0.7,0,1,0.7,0,0.7,0,1","0,1,0.7,0,1,0.7,1,0.7,0","3",""
"","html-keyboard-response","50","59619","0.0-73.0","30ZX6P7VF9HPC7LBZAI2QLXMYQ0J2N","A2LKGF193ZR5JP","3KTZHH2ONI1ODAVRRMZTRL6IHCUM80","","null","<img src=""img/food3.png"" style=""width:200px; border:14px solid green;"">","null","","","","","","","","","",""
"","image-keyboard-response","51","59989","0.0-75.0","30ZX6P7VF9HPC7LBZAI2QLXMYQ0J2N","A2LKGF193ZR5JP","3KTZHH2ONI1ODAVRRMZTRL6IHCUM80","","369.59999990463257","img/food1.png","75","370.19999980926514","2","1","false","1","2","1,0.7,0,1,0.7,0,0.7,0,1","0,1,0.7,0,1,0.7,1,0.7,0","3",""
"","html-keyboard-response","52","60291","0.0-76.0","30ZX6P7VF9HPC7LBZAI2QLXMYQ0J2N","A2LKGF193ZR5JP","3KTZHH2ONI1ODAVRRMZTRL6IHCUM80","","null","<img src=""img/food1.png"" style=""width:200px; border:14px solid green;"">","null","","","","","","","","","",""
"","image-keyboard-response","53","60549","0.0-78.0","30ZX6P7VF9HPC7LBZAI2QLXMYQ0J2N","A2LKGF193ZR5JP","3KTZHH2ONI1ODAVRRMZTRL6IHCUM80","","256.7000000476837","img/food6.png","75","257.2999999523163","2","1","false","2","2","1,0.7,0,1,0.7,0,0.7,0,1","0,1,0.7,0,1,0.7,1,0.7,0","3",""
"","html-keyboard-response","54","60851","0.0-79.0","30ZX6P7VF9HPC7LBZAI2QLXMYQ0J2N","A2LKGF193ZR5JP","3KTZHH2ONI1ODAVRRMZTRL6IHCUM80","","null","<img src=""img/food6.png"" style=""width:200px; border:14px solid green;"">","null","","","","","","","","","",""
"","image-keyboard-response","55","61086","0.0-81.0","30ZX6P7VF9HPC7LBZAI2QLXMYQ0J2N","A2LKGF193ZR5JP","3KTZHH2ONI1ODAVRRMZTRL6IHCUM80","","234.70000004768372","img/food3.png","75","235.59999990463257","2","1","false","3","2","1,0.7,0,1,0.7,0,0.7,0,1","0,1,0.7,0,1,0.7,1,0.7,0","3",""
"","html-keyboard-response","56","61388","0.0-82.0","30ZX6P7VF9HPC7LBZAI2QLXMYQ0J2N","A2LKGF193ZR5JP","3KTZHH2ONI1ODAVRRMZTRL6IHCUM80","","null","<img src=""img/food3.png"" style=""width:200px; border:14px solid green;"">","null","","","","","","","","","",""
"","image-keyboard-response","57","61589","0.0-84.0","30ZX6P7VF9HPC7LBZAI2QLXMYQ0J2N","A2LKGF193ZR5JP","3KTZHH2ONI1ODAVRRMZTRL6IHCUM80","","200.10000014305115","img/food1.png","75","200.89999985694885","2","1","false","1","2","1,0.7,0,1,0.7,0,0.7,0,1","0,1,0.7,0,1,0.7,1,0.7,0","3",""
"","html-keyboard-response","58","61891","0.0-85.0","30ZX6P7VF9HPC7LBZAI2QLXMYQ0J2N","A2LKGF193ZR5JP","3KTZHH2ONI1ODAVRRMZTRL6IHCUM80","","null","<img src=""img/food1.png"" style=""width:200px; border:14px solid green;"">","null","","","","","","","","","",""
"","image-keyboard-response","59","62110","0.0-87.0","30ZX6P7VF9HPC7LBZAI2QLXMYQ0J2N","A2LKGF193ZR5JP","3KTZHH2ONI1ODAVRRMZTRL6IHCUM80","","218.09999990463257","img/food6.png","75","219","2","1","false","2","2","1,0.7,0,1,0.7,0,0.7,0,1","0,1,0.7,0,1,0.7,1,0.7,0","3",""
"","html-keyboard-response","60","62412","0.0-88.0","30ZX6P7VF9HPC7LBZAI2QLXMYQ0J2N","A2LKGF193ZR5JP","3KTZHH2ONI1ODAVRRMZTRL6IHCUM80","","null","<img src=""img/food6.png"" style=""width:200px; border:14px solid green;"">","null","","","","","","","","","",""
"","image-keyboard-response","61","62558","0.0-90.0","30ZX6P7VF9HPC7LBZAI2QLXMYQ0J2N","A2LKGF193ZR5JP","3KTZHH2ONI1ODAVRRMZTRL6IHCUM80","","145.09999990463257","img/food3.png","75","145.59999990463257","2","1","false","3","2","1,0.7,0,1,0.7,0,0.7,0,1","0,1,0.7,0,1,0.7,1,0.7,0","3",""
"","html-keyboard-response","62","62860","0.0-91.0","30ZX6P7VF9HPC7LBZAI2QLXMYQ0J2N","A2LKGF193ZR5JP","3KTZHH2ONI1ODAVRRMZTRL6IHCUM80","","null","<img src=""img/food3.png"" style=""width:200px; border:14px solid green;"">","null","","","","","","","","","",""
"","image-keyboard-response","63","62989","0.0-93.0","30ZX6P7VF9HPC7LBZAI2QLXMYQ0J2N","A2LKGF193ZR5JP","3KTZHH2ONI1ODAVRRMZTRL6IHCUM80","","128.60000014305115","img/food6.png","75","129.29999995231628","2","1","false","2","2","1,0.7,0,1,0.7,0,0.7,0,1","0,1,0.7,0,1,0.7,1,0.7,0","3",""
"","html-keyboard-response","64","63291","0.0-94.0","30ZX6P7VF9HPC7LBZAI2QLXMYQ0J2N","A2LKGF193ZR5JP","3KTZHH2ONI1ODAVRRMZTRL6IHCUM80","","null","<img src=""img/food6.png"" style=""width:200px; border:14px solid green;"">","null","","","","","","","","","",""
"","image-keyboard-response","65","63452","0.0-96.0","30ZX6P7VF9HPC7LBZAI2QLXMYQ0J2N","A2LKGF193ZR5JP","3KTZHH2ONI1ODAVRRMZTRL6IHCUM80","","160.39999985694885","img/food1.png","75","161.19999980926514","2","1","false","1","2","1,0.7,0,1,0.7,0,0.7,0,1","0,1,0.7,0,1,0.7,1,0.7,0","3",""
"","html-keyboard-response","66","63754","0.0-97.0","30ZX6P7VF9HPC7LBZAI2QLXMYQ0J2N","A2LKGF193ZR5JP","3KTZHH2ONI1ODAVRRMZTRL6IHCUM80","","null","<img src=""img/food1.png"" style=""width:200px; border:14px solid green;"">","null","","","","","","","","","",""
"","image-keyboard-response","67","63882","0.0-99.0","30ZX6P7VF9HPC7LBZAI2QLXMYQ0J2N","A2LKGF193ZR5JP","3KTZHH2ONI1ODAVRRMZTRL6IHCUM80","","127.20000004768372","img/food3.png","75","127.89999985694885","2","1","false","3","2","1,0.7,0,1,0.7,0,0.7,0,1","0,1,0.7,0,1,0.7,1,0.7,0","3",""
"","html-keyboard-response","68","64184","0.0-100.0","30ZX6P7VF9HPC7LBZAI2QLXMYQ0J2N","A2LKGF193ZR5JP","3KTZHH2ONI1ODAVRRMZTRL6IHCUM80","","null","<img src=""img/food3.png"" style=""width:200px; border:14px solid green;"">","null","","","","","","","","","",""
"","image-keyboard-response","69","64340","0.0-102.0","30ZX6P7VF9HPC7LBZAI2QLXMYQ0J2N","A2LKGF193ZR5JP","3KTZHH2ONI1ODAVRRMZTRL6IHCUM80","","155.39999985694885","img/food6.png","75","156","2","1","false","2","2","1,0.7,0,1,0.7,0,0.7,0,1","0,1,0.7,0,1,0.7,1,0.7,0","3",""
"","html-keyboard-response","70","64641","0.0-103.0","30ZX6P7VF9HPC7LBZAI2QLXMYQ0J2N","A2LKGF193ZR5JP","3KTZHH2ONI1ODAVRRMZTRL6IHCUM80","","null","<img src=""img/food6.png"" style=""width:200px; border:14px solid green;"">","null","","","","","","","","","",""
"","image-keyboard-response","71","64812","0.0-105.0","30ZX6P7VF9HPC7LBZAI2QLXMYQ0J2N","A2LKGF193ZR5JP","3KTZHH2ONI1ODAVRRMZTRL6IHCUM80","","169.79999995231628","img/food3.png","75","170.5","2","1","false","3","2","1,0.7,0,1,0.7,0,0.7,0,1","0,1,0.7,0,1,0.7,1,0.7,0","3",""
"","html-keyboard-response","72","65114","0.0-106.0","30ZX6P7VF9HPC7LBZAI2QLXMYQ0J2N","A2LKGF193ZR5JP","3KTZHH2ONI1ODAVRRMZTRL6IHCUM80","","null","<img src=""img/food3.png"" style=""width:200px; border:14px solid green;"">","null","","","","","","","","","",""
"","image-keyboard-response","73","65248","0.0-108.0","30ZX6P7VF9HPC7LBZAI2QLXMYQ0J2N","A2LKGF193ZR5JP","3KTZHH2ONI1ODAVRRMZTRL6IHCUM80","","133","img/food6.png","75","133.79999995231628","2","1","false","2","2","1,0.7,0,1,0.7,0,0.7,0,1","0,1,0.7,0,1,0.7,1,0.7,0","3",""
"","html-keyboard-response","74","65550","0.0-109.0","30ZX6P7VF9HPC7LBZAI2QLXMYQ0J2N","A2LKGF193ZR5JP","3KTZHH2ONI1ODAVRRMZTRL6IHCUM80","","null","<img src=""img/food6.png"" style=""width:200px; border:14px solid green;"">","null","","","","","","","","","",""
"","image-keyboard-response","75","65742","0.0-111.0","30ZX6P7VF9HPC7LBZAI2QLXMYQ0J2N","A2LKGF193ZR5JP","3KTZHH2ONI1ODAVRRMZTRL6IHCUM80","","191.5","img/food3.png","75","192.20000004768372","2","1","false","3","2","1,0.7,0,1,0.7,0,0.7,0,1","0,1,0.7,0,1,0.7,1,0.7,0","3",""
"","html-keyboard-response","76","66045","0.0-112.0","30ZX6P7VF9HPC7LBZAI2QLXMYQ0J2N","A2LKGF193ZR5JP","3KTZHH2ONI1ODAVRRMZTRL6IHCUM80","","null","<img src=""img/food3.png"" style=""width:200px; border:14px solid green;"">","null","","","","","","","","","",""
"","image-keyboard-response","77","66148","0.0-114.0","30ZX6P7VF9HPC7LBZAI2QLXMYQ0J2N","A2LKGF193ZR5JP","3KTZHH2ONI1ODAVRRMZTRL6IHCUM80","","102","img/food3.png","75","102.70000004768372","2","1","false","3","2","1,0.7,0,1,0.7,0,0.7,0,1","0,1,0.7,0,1,0.7,1,0.7,0","3",""
"","html-keyboard-response","78","66449","0.0-115.0","30ZX6P7VF9HPC7LBZAI2QLXMYQ0J2N","A2LKGF193ZR5JP","3KTZHH2ONI1ODAVRRMZTRL6IHCUM80","","null","<img src=""img/food3.png"" style=""width:200px; border:14px solid green;"">","null","","","","","","","","","",""
"","image-keyboard-response","79","66605","0.0-117.0","30ZX6P7VF9HPC7LBZAI2QLXMYQ0J2N","A2LKGF193ZR5JP","3KTZHH2ONI1ODAVRRMZTRL6IHCUM80","","154.20000004768372","img/food1.png","75","155","2","1","false","1","2","1,0.7,0,1,0.7,0,0.7,0,1","0,1,0.7,0,1,0.7,1,0.7,0","3",""
"","html-keyboard-response","80","66907","0.0-118.0","30ZX6P7VF9HPC7LBZAI2QLXMYQ0J2N","A2LKGF193ZR5JP","3KTZHH2ONI1ODAVRRMZTRL6IHCUM80","","null","<img src=""img/food1.png"" style=""width:200px; border:14px solid green;"">","null","","","","","","","","","",""
"","image-keyboard-response","81","67060","0.0-120.0","30ZX6P7VF9HPC7LBZAI2QLXMYQ0J2N","A2LKGF193ZR5JP","3KTZHH2ONI1ODAVRRMZTRL6IHCUM80","","151.90000009536743","img/food3.png","75","152.69999980926514","2","0","false","3","2","1,0.7,0,1,0.7,0,0.7,0,1","0,1,0.7,0,1,0.7,1,0.7,0","3",""
"","html-keyboard-response","82","67367","0.0-121.0","30ZX6P7VF9HPC7LBZAI2QLXMYQ0J2N","A2LKGF193ZR5JP","3KTZHH2ONI1ODAVRRMZTRL6IHCUM80","","null","<img src=""img/food3.png"" style=""width:200px;border:14px solid red;"">","null","","","","","","","","","",""
"","image-keyboard-response","83","67493","0.0-123.0","30ZX6P7VF9HPC7LBZAI2QLXMYQ0J2N","A2LKGF193ZR5JP","3KTZHH2ONI1ODAVRRMZTRL6IHCUM80","","125.20000004768372","img/food1.png","75","125.89999985694885","2","1","false","1","2","1,0.7,0,1,0.7,0,0.7,0,1","0,1,0.7,0,1,0.7,1,0.7,0","3",""
"","html-keyboard-response","84","67795","0.0-124.0","30ZX6P7VF9HPC7LBZAI2QLXMYQ0J2N","A2LKGF193ZR5JP","3KTZHH2ONI1ODAVRRMZTRL6IHCUM80","","null","<img src=""img/food1.png"" style=""width:200px; border:14px solid green;"">","null","","","","","","","","","",""
"","image-keyboard-response","85","68100","0.0-126.0","30ZX6P7VF9HPC7LBZAI2QLXMYQ0J2N","A2LKGF193ZR5JP","3KTZHH2ONI1ODAVRRMZTRL6IHCUM80","","304.19999980926514","img/food6.png","75","304.90000009536743","2","1","false","2","2","1,0.7,0,1,0.7,0,0.7,0,1","0,1,0.7,0,1,0.7,1,0.7,0","3",""
"","html-keyboard-response","86","68402","0.0-127.0","30ZX6P7VF9HPC7LBZAI2QLXMYQ0J2N","A2LKGF193ZR5JP","3KTZHH2ONI1ODAVRRMZTRL6IHCUM80","","null","<img src=""img/food6.png"" style=""width:200px; border:14px solid green;"">","null","","","","","","","","","",""
"","image-keyboard-response","87","68749","0.0-129.0","30ZX6P7VF9HPC7LBZAI2QLXMYQ0J2N","A2LKGF193ZR5JP","3KTZHH2ONI1ODAVRRMZTRL6IHCUM80","","345.39999985694885","img/food3.png","75","346.09999990463257","2","1","false","3","2","1,0.7,0,1,0.7,0,0.7,0,1","0,1,0.7,0,1,0.7,1,0.7,0","3",""
"","html-keyboard-response","88","69051","0.0-130.0","30ZX6P7VF9HPC7LBZAI2QLXMYQ0J2N","A2LKGF193ZR5JP","3KTZHH2ONI1ODAVRRMZTRL6IHCUM80","","null","<img src=""img/food3.png"" style=""width:200px; border:14px solid green;"">","null","","","","","","","","","",""
"","image-keyboard-response","89","69286","0.0-132.0","30ZX6P7VF9HPC7LBZAI2QLXMYQ0J2N","A2LKGF193ZR5JP","3KTZHH2ONI1ODAVRRMZTRL6IHCUM80","","233","img/food1.png","75","233.90000009536743","2","1","false","1","2","1,0.7,0,1,0.7,0,0.7,0,1","0,1,0.7,0,1,0.7,1,0.7,0","3",""
"","html-keyboard-response","90","69587","0.0-133.0","30ZX6P7VF9HPC7LBZAI2QLXMYQ0J2N","A2LKGF193ZR5JP","3KTZHH2ONI1ODAVRRMZTRL6IHCUM80","","null","<img src=""img/food1.png"" style=""width:200px; border:14px solid green;"">","null","","","","","","","","","",""
"","image-keyboard-response","91","69908","0.0-135.0","30ZX6P7VF9HPC7LBZAI2QLXMYQ0J2N","A2LKGF193ZR5JP","3KTZHH2ONI1ODAVRRMZTRL6IHCUM80","","319.90000009536743","img/food6.png","75","320.59999990463257","2","1","false","2","2","1,0.7,0,1,0.7,0,0.7,0,1","0,1,0.7,0,1,0.7,1,0.7,0","3",""
"","html-keyboard-response","92","70210","0.0-136.0","30ZX6P7VF9HPC7LBZAI2QLXMYQ0J2N","A2LKGF193ZR5JP","3KTZHH2ONI1ODAVRRMZTRL6IHCUM80","","null","<img src=""img/food6.png"" style=""width:200px; border:14px solid green;"">","null","","","","","","","","","",""
"","image-keyboard-response","93","70388","0.0-138.0","30ZX6P7VF9HPC7LBZAI2QLXMYQ0J2N","A2LKGF193ZR5JP","3KTZHH2ONI1ODAVRRMZTRL6IHCUM80","","176.79999995231628","img/food1.png","75","177.70000004768372","2","1","false","1","2","1,0.7,0,1,0.7,0,0.7,0,1","0,1,0.7,0,1,0.7,1,0.7,0","3",""
"","html-keyboard-response","94","70690","0.0-139.0","30ZX6P7VF9HPC7LBZAI2QLXMYQ0J2N","A2LKGF193ZR5JP","3KTZHH2ONI1ODAVRRMZTRL6IHCUM80","","null","<img src=""img/food1.png"" style=""width:200px; border:14px solid green;"">","null","","","","","","","","","",""
"","image-keyboard-response","95","70933","0.0-141.0","30ZX6P7VF9HPC7LBZAI2QLXMYQ0J2N","A2LKGF193ZR5JP","3KTZHH2ONI1ODAVRRMZTRL6IHCUM80","","242.20000004768372","img/food1.png","75","242.79999995231628","2","1","false","1","2","1,0.7,0,1,0.7,0,0.7,0,1","0,1,0.7,0,1,0.7,1,0.7,0","3",""
"","html-keyboard-response","96","71236","0.0-142.0","30ZX6P7VF9HPC7LBZAI2QLXMYQ0J2N","A2LKGF193ZR5JP","3KTZHH2ONI1ODAVRRMZTRL6IHCUM80","","null","<img src=""img/food1.png"" style=""width:200px; border:14px solid green;"">","null","","","","","","","","","",""
"","image-keyboard-response","97","71420","0.0-144.0","30ZX6P7VF9HPC7LBZAI2QLXMYQ0J2N","A2LKGF193ZR5JP","3KTZHH2ONI1ODAVRRMZTRL6IHCUM80","","183.5","img/food6.png","75","184.30000019073486","2","1","false","2","2","1,0.7,0,1,0.7,0,0.7,0,1","0,1,0.7,0,1,0.7,1,0.7,0","3",""
"","html-keyboard-response","98","71723","0.0-145.0","30ZX6P7VF9HPC7LBZAI2QLXMYQ0J2N","A2LKGF193ZR5JP","3KTZHH2ONI1ODAVRRMZTRL6IHCUM80","","null","<img src=""img/food6.png"" style=""width:200px; border:14px solid green;"">","null","","","","","","","","","",""
"","image-keyboard-response","99","71909","0.0-147.0","30ZX6P7VF9HPC7LBZAI2QLXMYQ0J2N","A2LKGF193ZR5JP","3KTZHH2ONI1ODAVRRMZTRL6IHCUM80","","184.90000009536743","img/food1.png","75","185.5","2","1","false","1","2","1,0.7,0,1,0.7,0,0.7,0,1","0,1,0.7,0,1,0.7,1,0.7,0","3",""
"","html-keyboard-response","100","72211","0.0-148.0","30ZX6P7VF9HPC7LBZAI2QLXMYQ0J2N","A2LKGF193ZR5JP","3KTZHH2ONI1ODAVRRMZTRL6IHCUM80","","null","<img src=""img/food1.png"" style=""width:200px; border:14px solid green;"">","null","","","","","","","","","",""
"","image-keyboard-response","101","72404","0.0-150.0","30ZX6P7VF9HPC7LBZAI2QLXMYQ0J2N","A2LKGF193ZR5JP","3KTZHH2ONI1ODAVRRMZTRL6IHCUM80","","191.79999995231628","img/food3.png","75","192.5","2","1","false","3","2","1,0.7,0,1,0.7,0,0.7,0,1","0,1,0.7,0,1,0.7,1,0.7,0","3",""
"","html-keyboard-response","102","72705","0.0-151.0","30ZX6P7VF9HPC7LBZAI2QLXMYQ0J2N","A2LKGF193ZR5JP","3KTZHH2ONI1ODAVRRMZTRL6IHCUM80","","null","<img src=""img/food3.png"" style=""width:200px; border:14px solid green;"">","null","","","","","","","","","",""
"","image-keyboard-response","103","72949","0.0-153.0","30ZX6P7VF9HPC7LBZAI2QLXMYQ0J2N","A2LKGF193ZR5JP","3KTZHH2ONI1ODAVRRMZTRL6IHCUM80","","242.5","img/food1.png","75","243.30000019073486","2","1","false","1","2","1,0.7,0,1,0.7,0,0.7,0,1","0,1,0.7,0,1,0.7,1,0.7,0","3",""
"","html-keyboard-response","104","73251","0.0-154.0","30ZX6P7VF9HPC7LBZAI2QLXMYQ0J2N","A2LKGF193ZR5JP","3KTZHH2ONI1ODAVRRMZTRL6IHCUM80","","null","<img src=""img/food1.png"" style=""width:200px; border:14px solid green;"">","null","","","","","","","","","",""
"","image-keyboard-response","105","73399","0.0-156.0","30ZX6P7VF9HPC7LBZAI2QLXMYQ0J2N","A2LKGF193ZR5JP","3KTZHH2ONI1ODAVRRMZTRL6IHCUM80","","146.29999995231628","img/food3.png","75","146.90000009536743","2","1","false","3","2","1,0.7,0,1,0.7,0,0.7,0,1","0,1,0.7,0,1,0.7,1,0.7,0","3",""
"","html-keyboard-response","106","73701","0.0-157.0","30ZX6P7VF9HPC7LBZAI2QLXMYQ0J2N","A2LKGF193ZR5JP","3KTZHH2ONI1ODAVRRMZTRL6IHCUM80","","null","<img src=""img/food3.png"" style=""width:200px; border:14px solid green;"">","null","","","","","","","","","",""
"","image-keyboard-response","107","73853","0.0-159.0","30ZX6P7VF9HPC7LBZAI2QLXMYQ0J2N","A2LKGF193ZR5JP","3KTZHH2ONI1ODAVRRMZTRL6IHCUM80","","151.5","img/food1.png","75","152.09999990463257","2","1","false","1","2","1,0.7,0,1,0.7,0,0.7,0,1","0,1,0.7,0,1,0.7,1,0.7,0","3",""
"","html-keyboard-response","108","74155","0.0-160.0","30ZX6P7VF9HPC7LBZAI2QLXMYQ0J2N","A2LKGF193ZR5JP","3KTZHH2ONI1ODAVRRMZTRL6IHCUM80","","null","<img src=""img/food1.png"" style=""width:200px; border:14px solid green;"">","null","","","","","","","","","",""
"","image-keyboard-response","109","74349","0.0-162.0","30ZX6P7VF9HPC7LBZAI2QLXMYQ0J2N","A2LKGF193ZR5JP","3KTZHH2ONI1ODAVRRMZTRL6IHCUM80","","193.5","img/food3.png","75","194.10000014305115","2","1","false","3","2","1,0.7,0,1,0.7,0,0.7,0,1","0,1,0.7,0,1,0.7,1,0.7,0","3",""
"","html-keyboard-response","110","74652","0.0-163.0","30ZX6P7VF9HPC7LBZAI2QLXMYQ0J2N","A2LKGF193ZR5JP","3KTZHH2ONI1ODAVRRMZTRL6IHCUM80","","null","<img src=""img/food3.png"" style=""width:200px; border:14px solid green;"">","null","","","","","","","","","",""
"","image-keyboard-response","111","74782","0.0-165.0","30ZX6P7VF9HPC7LBZAI2QLXMYQ0J2N","A2LKGF193ZR5JP","3KTZHH2ONI1ODAVRRMZTRL6IHCUM80","","128.19999980926514","img/food6.png","75","128.79999995231628","2","1","false","2","2","1,0.7,0,1,0.7,0,0.7,0,1","0,1,0.7,0,1,0.7,1,0.7,0","3",""
"","html-keyboard-response","112","75090","0.0-166.0","30ZX6P7VF9HPC7LBZAI2QLXMYQ0J2N","A2LKGF193ZR5JP","3KTZHH2ONI1ODAVRRMZTRL6IHCUM80","","null","<img src=""img/food6.png"" style=""width:200px; border:14px solid green;"">","null","","","","","","","","","",""
"","image-keyboard-response","113","75268","0.0-168.0","30ZX6P7VF9HPC7LBZAI2QLXMYQ0J2N","A2LKGF193ZR5JP","3KTZHH2ONI1ODAVRRMZTRL6IHCUM80","","177.79999995231628","img/food1.png","75","178.5","2","1","false","1","2","1,0.7,0,1,0.7,0,0.7,0,1","0,1,0.7,0,1,0.7,1,0.7,0","3",""
"","html-keyboard-response","114","75575","0.0-169.0","30ZX6P7VF9HPC7LBZAI2QLXMYQ0J2N","A2LKGF193ZR5JP","3KTZHH2ONI1ODAVRRMZTRL6IHCUM80","","null","<img src=""img/food1.png"" style=""width:200px; border:14px solid green;"">","null","","","","","","","","","",""
"","image-keyboard-response","115","75765","0.0-171.0","30ZX6P7VF9HPC7LBZAI2QLXMYQ0J2N","A2LKGF193ZR5JP","3KTZHH2ONI1ODAVRRMZTRL6IHCUM80","","188.89999985694885","img/food1.png","75","189.5","2","1","false","1","2","1,0.7,0,1,0.7,0,0.7,0,1","0,1,0.7,0,1,0.7,1,0.7,0","3",""
"","html-keyboard-response","116","76067","0.0-172.0","30ZX6P7VF9HPC7LBZAI2QLXMYQ0J2N","A2LKGF193ZR5JP","3KTZHH2ONI1ODAVRRMZTRL6IHCUM80","","null","<img src=""img/food1.png"" style=""width:200px; border:14px solid green;"">","null","","","","","","","","","",""
"","image-keyboard-response","117","76211","0.0-174.0","30ZX6P7VF9HPC7LBZAI2QLXMYQ0J2N","A2LKGF193ZR5JP","3KTZHH2ONI1ODAVRRMZTRL6IHCUM80","","143.20000004768372","img/food6.png","75","143.70000004768372","2","1","false","2","2","1,0.7,0,1,0.7,0,0.7,0,1","0,1,0.7,0,1,0.7,1,0.7,0","3",""
"","html-keyboard-response","118","76513","0.0-175.0","30ZX6P7VF9HPC7LBZAI2QLXMYQ0J2N","A2LKGF193ZR5JP","3KTZHH2ONI1ODAVRRMZTRL6IHCUM80","","null","<img src=""img/food6.png"" style=""width:200px; border:14px solid green;"">","null","","","","","","","","","",""
"","image-keyboard-response","119","76621","0.0-177.0","30ZX6P7VF9HPC7LBZAI2QLXMYQ0J2N","A2LKGF193ZR5JP","3KTZHH2ONI1ODAVRRMZTRL6IHCUM80","","107.5","img/food6.png","75","108","2","1","false","2","2","1,0.7,0,1,0.7,0,0.7,0,1","0,1,0.7,0,1,0.7,1,0.7,0","3",""
"","html-keyboard-response","120","76923","0.0-178.0","30ZX6P7VF9HPC7LBZAI2QLXMYQ0J2N","A2LKGF193ZR5JP","3KTZHH2ONI1ODAVRRMZTRL6IHCUM80","","null","<img src=""img/food6.png"" style=""width:200px; border:14px solid green;"">","null","","","","","","","","","",""
"","image-keyboard-response","121","77060","0.0-180.0","30ZX6P7VF9HPC7LBZAI2QLXMYQ0J2N","A2LKGF193ZR5JP","3KTZHH2ONI1ODAVRRMZTRL6IHCUM80","","135.29999995231628","img/food1.png","75","136","2","1","false","1","2","1,0.7,0,1,0.7,0,0.7,0,1","0,1,0.7,0,1,0.7,1,0.7,0","3",""
"","html-keyboard-response","122","77361","0.0-181.0","30ZX6P7VF9HPC7LBZAI2QLXMYQ0J2N","A2LKGF193ZR5JP","3KTZHH2ONI1ODAVRRMZTRL6IHCUM80","","null","<img src=""img/food1.png"" style=""width:200px; border:14px solid green;"">","null","","","","","","","","","",""
"","image-keyboard-response","123","77493","0.0-183.0","30ZX6P7VF9HPC7LBZAI2QLXMYQ0J2N","A2LKGF193ZR5JP","3KTZHH2ONI1ODAVRRMZTRL6IHCUM80","","130.70000004768372","img/food1.png","75","131.29999995231628","2","1","false","1","2","1,0.7,0,1,0.7,0,0.7,0,1","0,1,0.7,0,1,0.7,1,0.7,0","3",""
"","html-keyboard-response","124","77795","0.0-184.0","30ZX6P7VF9HPC7LBZAI2QLXMYQ0J2N","A2LKGF193ZR5JP","3KTZHH2ONI1ODAVRRMZTRL6IHCUM80","","null","<img src=""img/food1.png"" style=""width:200px; border:14px solid green;"">","null","","","","","","","","","",""
"","image-keyboard-response","125","77921","0.0-186.0","30ZX6P7VF9HPC7LBZAI2QLXMYQ0J2N","A2LKGF193ZR5JP","3KTZHH2ONI1ODAVRRMZTRL6IHCUM80","","125.40000009536743","img/food3.png","75","126.10000014305115","2","0","false","3","2","1,0.7,0,1,0.7,0,0.7,0,1","0,1,0.7,0,1,0.7,1,0.7,0","3",""
"","html-keyboard-response","126","78223","0.0-187.0","30ZX6P7VF9HPC7LBZAI2QLXMYQ0J2N","A2LKGF193ZR5JP","3KTZHH2ONI1ODAVRRMZTRL6IHCUM80","","null","<img src=""img/food3.png"" style=""width:200px;border:14px solid red;"">","null","","","","","","","","","",""
"","image-keyboard-response","127","78350","0.0-189.0","30ZX6P7VF9HPC7LBZAI2QLXMYQ0J2N","A2LKGF193ZR5JP","3KTZHH2ONI1ODAVRRMZTRL6IHCUM80","","126.20000004768372","img/food6.png","75","127.10000014305115","2","1","false","2","2","1,0.7,0,1,0.7,0,0.7,0,1","0,1,0.7,0,1,0.7,1,0.7,0","3",""
"","html-keyboard-response","128","78664","0.0-190.0","30ZX6P7VF9HPC7LBZAI2QLXMYQ0J2N","A2LKGF193ZR5JP","3KTZHH2ONI1ODAVRRMZTRL6IHCUM80","","null","<img src=""img/food6.png"" style=""width:200px; border:14px solid green;"">","null","","","","","","","","","",""
"","image-keyboard-response","129","78914","0.0-192.0","30ZX6P7VF9HPC7LBZAI2QLXMYQ0J2N","A2LKGF193ZR5JP","3KTZHH2ONI1ODAVRRMZTRL6IHCUM80","","249.20000004768372","img/food3.png","75","249.79999995231628","2","0","false","3","2","1,0.7,0,1,0.7,0,0.7,0,1","0,1,0.7,0,1,0.7,1,0.7,0","3",""
"","html-keyboard-response","130","79217","0.0-193.0","30ZX6P7VF9HPC7LBZAI2QLXMYQ0J2N","A2LKGF193ZR5JP","3KTZHH2ONI1ODAVRRMZTRL6IHCUM80","","null","<img src=""img/food3.png"" style=""width:200px;border:14px solid red;"">","null","","","","","","","","","",""
"","image-keyboard-response","131","79644","0.0-195.0","30ZX6P7VF9HPC7LBZAI2QLXMYQ0J2N","A2LKGF193ZR5JP","3KTZHH2ONI1ODAVRRMZTRL6IHCUM80","","425.69999980926514","img/food3.png","75","426.40000009536743","2","1","false","3","2","1,0.7,0,1,0.7,0,0.7,0,1","0,1,0.7,0,1,0.7,1,0.7,0","3",""
"","html-keyboard-response","132","79945","0.0-196.0","30ZX6P7VF9HPC7LBZAI2QLXMYQ0J2N","A2LKGF193ZR5JP","3KTZHH2ONI1ODAVRRMZTRL6IHCUM80","","null","<img src=""img/food3.png"" style=""width:200px; border:14px solid green;"">","null","","","","","","","","","",""
"","image-keyboard-response","133","80448","0.0-198.0","30ZX6P7VF9HPC7LBZAI2QLXMYQ0J2N","A2LKGF193ZR5JP","3KTZHH2ONI1ODAVRRMZTRL6IHCUM80","","501.59999990463257","img/food1.png","75","502.2999999523163","2","1","false","1","2","1,0.7,0,1,0.7,0,0.7,0,1","0,1,0.7,0,1,0.7,1,0.7,0","3",""
"","html-keyboard-response","134","80750","0.0-199.0","30ZX6P7VF9HPC7LBZAI2QLXMYQ0J2N","A2LKGF193ZR5JP","3KTZHH2ONI1ODAVRRMZTRL6IHCUM80","","null","<img src=""img/food1.png"" style=""width:200px; border:14px solid green;"">","null","","","","","","","","","",""
"","image-keyboard-response","135","80908","0.0-201.0","30ZX6P7VF9HPC7LBZAI2QLXMYQ0J2N","A2LKGF193ZR5JP","3KTZHH2ONI1ODAVRRMZTRL6IHCUM80","","157.79999995231628","img/food3.png","75","158.39999985694885","2","0","false","3","2","1,0.7,0,1,0.7,0,0.7,0,1","0,1,0.7,0,1,0.7,1,0.7,0","3",""
"","html-keyboard-response","136","81210","0.0-202.0","30ZX6P7VF9HPC7LBZAI2QLXMYQ0J2N","A2LKGF193ZR5JP","3KTZHH2ONI1ODAVRRMZTRL6IHCUM80","","null","<img src=""img/food3.png"" style=""width:200px;border:14px solid red;"">","null","","","","","","","","","",""
"","image-keyboard-response","137","81717","0.0-204.0","30ZX6P7VF9HPC7LBZAI2QLXMYQ0J2N","A2LKGF193ZR5JP","3KTZHH2ONI1ODAVRRMZTRL6IHCUM80","","505.10000014305115","img/food3.png","74","506.2999999523163","1","1","false","3","2","1,0.7,0,1,0.7,0,0.7,0,1","0,1,0.7,0,1,0.7,1,0.7,0","3",""
"","html-keyboard-response","138","82019","0.0-205.0","30ZX6P7VF9HPC7LBZAI2QLXMYQ0J2N","A2LKGF193ZR5JP","3KTZHH2ONI1ODAVRRMZTRL6IHCUM80","","null","<img src=""img/food3.png"" style=""width:200px; border:14px solid green;"">","null","","","","","","","","","",""
"","image-keyboard-response","139","82262","0.0-207.0","30ZX6P7VF9HPC7LBZAI2QLXMYQ0J2N","A2LKGF193ZR5JP","3KTZHH2ONI1ODAVRRMZTRL6IHCUM80","","242.40000009536743","img/food6.png","74","243.09999990463257","1","0","false","2","2","1,0.7,0,1,0.7,0,0.7,0,1","0,1,0.7,0,1,0.7,1,0.7,0","3",""
"","html-keyboard-response","140","82564","0.0-208.0","30ZX6P7VF9HPC7LBZAI2QLXMYQ0J2N","A2LKGF193ZR5JP","3KTZHH2ONI1ODAVRRMZTRL6IHCUM80","","null","<img src=""img/food6.png"" style=""width:200px;border:14px solid red;"">","null","","","","","","","","","",""
"","image-keyboard-response","141","82779","0.0-210.0","30ZX6P7VF9HPC7LBZAI2QLXMYQ0J2N","A2LKGF193ZR5JP","3KTZHH2ONI1ODAVRRMZTRL6IHCUM80","","214.10000014305115","img/food6.png","75","215","2","1","false","2","2","1,0.7,0,1,0.7,0,0.7,0,1","0,1,0.7,0,1,0.7,1,0.7,0","3",""
"","html-keyboard-response","142","83081","0.0-211.0","30ZX6P7VF9HPC7LBZAI2QLXMYQ0J2N","A2LKGF193ZR5JP","3KTZHH2ONI1ODAVRRMZTRL6IHCUM80","","null","<img src=""img/food6.png"" style=""width:200px; border:14px solid green;"">","null","","","","","","","","","",""
"","image-keyboard-response","143","83317","0.0-213.0","30ZX6P7VF9HPC7LBZAI2QLXMYQ0J2N","A2LKGF193ZR5JP","3KTZHH2ONI1ODAVRRMZTRL6IHCUM80","","234.90000009536743","img/food3.png","75","236","2","0","false","3","2","1,0.7,0,1,0.7,0,0.7,0,1","0,1,0.7,0,1,0.7,1,0.7,0","3",""
"","html-keyboard-response","144","83619","0.0-214.0","30ZX6P7VF9HPC7LBZAI2QLXMYQ0J2N","A2LKGF193ZR5JP","3KTZHH2ONI1ODAVRRMZTRL6IHCUM80","","null","<img src=""img/food3.png"" style=""width:200px;border:14px solid red;"">","null","","","","","","","","","",""
"","image-keyboard-response","145","84005","0.0-216.0","30ZX6P7VF9HPC7LBZAI2QLXMYQ0J2N","A2LKGF193ZR5JP","3KTZHH2ONI1ODAVRRMZTRL6IHCUM80","","384.89999985694885","img/food3.png","74","385.7999999523163","1","1","false","3","2","1,0.7,0,1,0.7,0,0.7,0,1","0,1,0.7,0,1,0.7,1,0.7,0","3",""
"","html-keyboard-response","146","84307","0.0-217.0","30ZX6P7VF9HPC7LBZAI2QLXMYQ0J2N","A2LKGF193ZR5JP","3KTZHH2ONI1ODAVRRMZTRL6IHCUM80","","null","<img src=""img/food3.png"" style=""width:200px; border:14px solid green;"">","null","","","","","","","","","",""
"","image-keyboard-response","147","84527","0.0-219.0","30ZX6P7VF9HPC7LBZAI2QLXMYQ0J2N","A2LKGF193ZR5JP","3KTZHH2ONI1ODAVRRMZTRL6IHCUM80","","218.40000009536743","img/food6.png","74","219.10000014305115","1","0","false","2","2","1,0.7,0,1,0.7,0,0.7,0,1","0,1,0.7,0,1,0.7,1,0.7,0","3",""
"","html-keyboard-response","148","84829","0.0-220.0","30ZX6P7VF9HPC7LBZAI2QLXMYQ0J2N","A2LKGF193ZR5JP","3KTZHH2ONI1ODAVRRMZTRL6IHCUM80","","null","<img src=""img/food6.png"" style=""width:200px;border:14px solid red;"">","null","","","","","","","","","",""
"","image-keyboard-response","149","85060","0.0-222.0","30ZX6P7VF9HPC7LBZAI2QLXMYQ0J2N","A2LKGF193ZR5JP","3KTZHH2ONI1ODAVRRMZTRL6IHCUM80","","229.29999995231628","img/food1.png","75","230.29999995231628","2","1","false","1","2","1,0.7,0,1,0.7,0,0.7,0,1","0,1,0.7,0,1,0.7,1,0.7,0","3",""
"","html-keyboard-response","150","85362","0.0-223.0","30ZX6P7VF9HPC7LBZAI2QLXMYQ0J2N","A2LKGF193ZR5JP","3KTZHH2ONI1ODAVRRMZTRL6IHCUM80","","null","<img src=""img/food1.png"" style=""width:200px; border:14px solid green;"">","null","","","","","","","","","",""
"","image-keyboard-response","151","85589","0.0-225.0","30ZX6P7VF9HPC7LBZAI2QLXMYQ0J2N","A2LKGF193ZR5JP","3KTZHH2ONI1ODAVRRMZTRL6IHCUM80","","226","img/food6.png","75","226.70000004768372","2","1","false","2","2","1,0.7,0,1,0.7,0,0.7,0,1","0,1,0.7,0,1,0.7,1,0.7,0","3",""
"","html-keyboard-response","152","85891","0.0-226.0","30ZX6P7VF9HPC7LBZAI2QLXMYQ0J2N","A2LKGF193ZR5JP","3KTZHH2ONI1ODAVRRMZTRL6IHCUM80","","null","<img src=""img/food6.png"" style=""width:200px; border:14px solid green;"">","null","","","","","","","","","",""
"","image-keyboard-response","153","86096","0.0-228.0","30ZX6P7VF9HPC7LBZAI2QLXMYQ0J2N","A2LKGF193ZR5JP","3KTZHH2ONI1ODAVRRMZTRL6IHCUM80","","204.19999980926514","img/food1.png","75","204.90000009536743","2","1","false","1","2","1,0.7,0,1,0.7,0,0.7,0,1","0,1,0.7,0,1,0.7,1,0.7,0","3",""
"","html-keyboard-response","154","86397","0.0-229.0","30ZX6P7VF9HPC7LBZAI2QLXMYQ0J2N","A2LKGF193ZR5JP","3KTZHH2ONI1ODAVRRMZTRL6IHCUM80","","null","<img src=""img/food1.png"" style=""width:200px; border:14px solid green;"">","null","","","","","","","","","",""
"","image-keyboard-response","155","86564","0.0-231.0","30ZX6P7VF9HPC7LBZAI2QLXMYQ0J2N","A2LKGF193ZR5JP","3KTZHH2ONI1ODAVRRMZTRL6IHCUM80","","164.80000019073486","img/food1.png","75","166.20000004768372","2","1","false","1","2","1,0.7,0,1,0.7,0,0.7,0,1","0,1,0.7,0,1,0.7,1,0.7,0","3",""
"","html-keyboard-response","156","86866","0.0-232.0","30ZX6P7VF9HPC7LBZAI2QLXMYQ0J2N","A2LKGF193ZR5JP","3KTZHH2ONI1ODAVRRMZTRL6IHCUM80","","null","<img src=""img/food1.png"" style=""width:200px; border:14px solid green;"">","null","","","","","","","","","",""
"","image-keyboard-response","157","86964","0.0-234.0","30ZX6P7VF9HPC7LBZAI2QLXMYQ0J2N","A2LKGF193ZR5JP","3KTZHH2ONI1ODAVRRMZTRL6IHCUM80","","96.5","img/food6.png","75","97.10000014305115","2","1","false","2","2","1,0.7,0,1,0.7,0,0.7,0,1","0,1,0.7,0,1,0.7,1,0.7,0","3",""
"","html-keyboard-response","158","87265","0.0-235.0","30ZX6P7VF9HPC7LBZAI2QLXMYQ0J2N","A2LKGF193ZR5JP","3KTZHH2ONI1ODAVRRMZTRL6IHCUM80","","null","<img src=""img/food6.png"" style=""width:200px; border:14px solid green;"">","null","","","","","","","","","",""
"","image-keyboard-response","159","87423","0.0-237.0","30ZX6P7VF9HPC7LBZAI2QLXMYQ0J2N","A2LKGF193ZR5JP","3KTZHH2ONI1ODAVRRMZTRL6IHCUM80","","156.40000009536743","img/food6.png","75","157.39999985694885","2","1","false","2","2","1,0.7,0,1,0.7,0,0.7,0,1","0,1,0.7,0,1,0.7,1,0.7,0","3",""
"","html-keyboard-response","160","87724","0.0-238.0","30ZX6P7VF9HPC7LBZAI2QLXMYQ0J2N","A2LKGF193ZR5JP","3KTZHH2ONI1ODAVRRMZTRL6IHCUM80","","null","<img src=""img/food6.png"" style=""width:200px; border:14px solid green;"">","null","","","","","","","","","",""
"","image-keyboard-response","161","87804","0.0-240.0","30ZX6P7VF9HPC7LBZAI2QLXMYQ0J2N","A2LKGF193ZR5JP","3KTZHH2ONI1ODAVRRMZTRL6IHCUM80","","78.89999985694885","img/food1.png","75","79.60000014305115","2","1","false","1","2","1,0.7,0,1,0.7,0,0.7,0,1","0,1,0.7,0,1,0.7,1,0.7,0","3",""
"","html-keyboard-response","162","88107","0.0-241.0","30ZX6P7VF9HPC7LBZAI2QLXMYQ0J2N","A2LKGF193ZR5JP","3KTZHH2ONI1ODAVRRMZTRL6IHCUM80","","null","<img src=""img/food1.png"" style=""width:200px; border:14px solid green;"">","null","","","","","","","","","",""
"","image-keyboard-response","163","88376","0.0-243.0","30ZX6P7VF9HPC7LBZAI2QLXMYQ0J2N","A2LKGF193ZR5JP","3KTZHH2ONI1ODAVRRMZTRL6IHCUM80","","268.80000019073486","img/food1.png","75","269.40000009536743","2","1","false","1","2","1,0.7,0,1,0.7,0,0.7,0,1","0,1,0.7,0,1,0.7,1,0.7,0","3",""
"","html-keyboard-response","164","88678","0.0-244.0","30ZX6P7VF9HPC7LBZAI2QLXMYQ0J2N","A2LKGF193ZR5JP","3KTZHH2ONI1ODAVRRMZTRL6IHCUM80","","null","<img src=""img/food1.png"" style=""width:200px; border:14px solid green;"">","null","","","","","","","","","",""
"","image-keyboard-response","165","88814","0.0-246.0","30ZX6P7VF9HPC7LBZAI2QLXMYQ0J2N","A2LKGF193ZR5JP","3KTZHH2ONI1ODAVRRMZTRL6IHCUM80","","134.29999995231628","img/food6.png","75","134.89999985694885","2","1","false","2","2","1,0.7,0,1,0.7,0,0.7,0,1","0,1,0.7,0,1,0.7,1,0.7,0","3",""
"","html-keyboard-response","166","89117","0.0-247.0","30ZX6P7VF9HPC7LBZAI2QLXMYQ0J2N","A2LKGF193ZR5JP","3KTZHH2ONI1ODAVRRMZTRL6IHCUM80","","null","<img src=""img/food6.png"" style=""width:200px; border:14px solid green;"">","null","","","","","","","","","",""
"","image-keyboard-response","167","89380","0.0-249.0","30ZX6P7VF9HPC7LBZAI2QLXMYQ0J2N","A2LKGF193ZR5JP","3KTZHH2ONI1ODAVRRMZTRL6IHCUM80","","262.7999999523163","img/food6.png","75","263.5","2","1","false","2","2","1,0.7,0,1,0.7,0,0.7,0,1","0,1,0.7,0,1,0.7,1,0.7,0","3",""
"","html-keyboard-response","168","89682","0.0-250.0","30ZX6P7VF9HPC7LBZAI2QLXMYQ0J2N","A2LKGF193ZR5JP","3KTZHH2ONI1ODAVRRMZTRL6IHCUM80","","null","<img src=""img/food6.png"" style=""width:200px; border:14px solid green;"">","null","","","","","","","","","",""
"","image-keyboard-response","169","90108","0.0-252.0","30ZX6P7VF9HPC7LBZAI2QLXMYQ0J2N","A2LKGF193ZR5JP","3KTZHH2ONI1ODAVRRMZTRL6IHCUM80","","425.2999999523163","img/food3.png","75","426.09999990463257","2","0","false","3","2","1,0.7,0,1,0.7,0,0.7,0,1","0,1,0.7,0,1,0.7,1,0.7,0","3",""
"","html-keyboard-response","170","90410","0.0-253.0","30ZX6P7VF9HPC7LBZAI2QLXMYQ0J2N","A2LKGF193ZR5JP","3KTZHH2ONI1ODAVRRMZTRL6IHCUM80","","null","<img src=""img/food3.png"" style=""width:200px;border:14px solid red;"">","null","","","","","","","","","",""
"","image-keyboard-response","171","90782","0.0-255.0","30ZX6P7VF9HPC7LBZAI2QLXMYQ0J2N","A2LKGF193ZR5JP","3KTZHH2ONI1ODAVRRMZTRL6IHCUM80","","370.2999999523163","img/food3.png","74","370.7000000476837","1","1","false","3","2","1,0.7,0,1,0.7,0,0.7,0,1","0,1,0.7,0,1,0.7,1,0.7,0","3",""
"","html-keyboard-response","172","91083","0.0-256.0","30ZX6P7VF9HPC7LBZAI2QLXMYQ0J2N","A2LKGF193ZR5JP","3KTZHH2ONI1ODAVRRMZTRL6IHCUM80","","null","<img src=""img/food3.png"" style=""width:200px; border:14px solid green;"">","null","","","","","","","","","",""
"","image-keyboard-response","173","91292","0.0-258.0","30ZX6P7VF9HPC7LBZAI2QLXMYQ0J2N","A2LKGF193ZR5JP","3KTZHH2ONI1ODAVRRMZTRL6IHCUM80","","208.39999985694885","img/food1.png","74","209.09999990463257","1","0","false","1","2","1,0.7,0,1,0.7,0,0.7,0,1","0,1,0.7,0,1,0.7,1,0.7,0","3",""
"","html-keyboard-response","174","91594","0.0-259.0","30ZX6P7VF9HPC7LBZAI2QLXMYQ0J2N","A2LKGF193ZR5JP","3KTZHH2ONI1ODAVRRMZTRL6IHCUM80","","null","<img src=""img/food1.png"" style=""width:200px;border:14px solid red;"">","null","","","","","","","","","",""
"","image-keyboard-response","175","91853","0.0-261.0","30ZX6P7VF9HPC7LBZAI2QLXMYQ0J2N","A2LKGF193ZR5JP","3KTZHH2ONI1ODAVRRMZTRL6IHCUM80","","258","img/food6.png","75","258.7999999523163","2","1","false","2","2","1,0.7,0,1,0.7,0,0.7,0,1","0,1,0.7,0,1,0.7,1,0.7,0","3",""
"","html-keyboard-response","176","92154","0.0-262.0","30ZX6P7VF9HPC7LBZAI2QLXMYQ0J2N","A2LKGF193ZR5JP","3KTZHH2ONI1ODAVRRMZTRL6IHCUM80","","null","<img src=""img/food6.png"" style=""width:200px; border:14px solid green;"">","null","","","","","","","","","",""
"","image-keyboard-response","177","92382","0.0-264.0","30ZX6P7VF9HPC7LBZAI2QLXMYQ0J2N","A2LKGF193ZR5JP","3KTZHH2ONI1ODAVRRMZTRL6IHCUM80","","227.09999990463257","img/food6.png","75","227.90000009536743","2","1","false","2","2","1,0.7,0,1,0.7,0,0.7,0,1","0,1,0.7,0,1,0.7,1,0.7,0","3",""
"","html-keyboard-response","178","92685","0.0-265.0","30ZX6P7VF9HPC7LBZAI2QLXMYQ0J2N","A2LKGF193ZR5JP","3KTZHH2ONI1ODAVRRMZTRL6IHCUM80","","null","<img src=""img/food6.png"" style=""width:200px; border:14px solid green;"">","null","","","","","","","","","",""
"","image-keyboard-response","179","92848","0.0-267.0","30ZX6P7VF9HPC7LBZAI2QLXMYQ0J2N","A2LKGF193ZR5JP","3KTZHH2ONI1ODAVRRMZTRL6IHCUM80","","161.59999990463257","img/food6.png","75","162.29999995231628","2","1","false","2","2","1,0.7,0,1,0.7,0,0.7,0,1","0,1,0.7,0,1,0.7,1,0.7,0","3",""
"","html-keyboard-response","180","93150","0.0-268.0","30ZX6P7VF9HPC7LBZAI2QLXMYQ0J2N","A2LKGF193ZR5JP","3KTZHH2ONI1ODAVRRMZTRL6IHCUM80","","null","<img src=""img/food6.png"" style=""width:200px; border:14px solid green;"">","null","","","","","","","","","",""
"","image-keyboard-response","181","93303","0.0-270.0","30ZX6P7VF9HPC7LBZAI2QLXMYQ0J2N","A2LKGF193ZR5JP","3KTZHH2ONI1ODAVRRMZTRL6IHCUM80","","150.79999995231628","img/food1.png","75","152.09999990463257","2","1","false","1","2","1,0.7,0,1,0.7,0,0.7,0,1","0,1,0.7,0,1,0.7,1,0.7,0","3",""
"","html-keyboard-response","182","93605","0.0-271.0","30ZX6P7VF9HPC7LBZAI2QLXMYQ0J2N","A2LKGF193ZR5JP","3KTZHH2ONI1ODAVRRMZTRL6IHCUM80","","null","<img src=""img/food1.png"" style=""width:200px; border:14px solid green;"">","null","","","","","","","","","",""
"","instructions","183","100254","0.0-273.0","30ZX6P7VF9HPC7LBZAI2QLXMYQ0J2N","A2LKGF193ZR5JP","3KTZHH2ONI1ODAVRRMZTRL6IHCUM80","[{""page_index"":0,""viewing_time"":4958.100000143051},{""page_index"":1,""viewing_time"":1690}]","6648.299999952316","","","","","","","","","","","",""
"","image-keyboard-response","184","100971","0.0-274.0","30ZX6P7VF9HPC7LBZAI2QLXMYQ0J2N","A2LKGF193ZR5JP","3KTZHH2ONI1ODAVRRMZTRL6IHCUM80","","716.2000000476837","img/food4.png","75","717","2","0","","1","1","1,0.7,0,1,0.7,0,0.7,0,1","0.7,0,1,0.7,0,1,0,1,0.7","2",""
"","html-keyboard-response","185","101274","0.0-275.0","30ZX6P7VF9HPC7LBZAI2QLXMYQ0J2N","A2LKGF193ZR5JP","3KTZHH2ONI1ODAVRRMZTRL6IHCUM80","","null","<img src=""img/food4.png"" style=""width:200px;border:14px solid red;"">","null","","","","","","","","","",""
"","image-keyboard-response","186","101611","0.0-276.0","30ZX6P7VF9HPC7LBZAI2QLXMYQ0J2N","A2LKGF193ZR5JP","3KTZHH2ONI1ODAVRRMZTRL6IHCUM80","","336.40000009536743","img/food2.png","74","337.09999990463257","1","1","","2","1","1,0.7,0,1,0.7,0,0.7,0,1","0.7,0,1,0.7,0,1,0,1,0.7","2",""
"","html-keyboard-response","187","101913","0.0-277.0","30ZX6P7VF9HPC7LBZAI2QLXMYQ0J2N","A2LKGF193ZR5JP","3KTZHH2ONI1ODAVRRMZTRL6IHCUM80","","null","<img src=""img/food2.png"" style=""width:200px; border:14px solid green;"">","null","","","","","","","","","",""
"","image-keyboard-response","188","102314","0.0-278.0","30ZX6P7VF9HPC7LBZAI2QLXMYQ0J2N","A2LKGF193ZR5JP","3KTZHH2ONI1ODAVRRMZTRL6IHCUM80","","400.39999985694885","img/food5.png","74","401.10000014305115","1","0","","3","1","1,0.7,0,1,0.7,0,0.7,0,1","0.7,0,1,0.7,0,1,0,1,0.7","2",""
"","html-keyboard-response","189","102617","0.0-279.0","30ZX6P7VF9HPC7LBZAI2QLXMYQ0J2N","A2LKGF193ZR5JP","3KTZHH2ONI1ODAVRRMZTRL6IHCUM80","","null","<img src=""img/food5.png"" style=""width:200px;border:14px solid red;"">","null","","","","","","","","","",""
"","image-keyboard-response","190","102931","0.0-280.0","30ZX6P7VF9HPC7LBZAI2QLXMYQ0J2N","A2LKGF193ZR5JP","3KTZHH2ONI1ODAVRRMZTRL6IHCUM80","","313","img/food4.png","75","313.69999980926514","2","0","","1","1","1,0.7,0,1,0.7,0,0.7,0,1","0.7,0,1,0.7,0,1,0,1,0.7","2",""
"","html-keyboard-response","191","103233","0.0-281.0","30ZX6P7VF9HPC7LBZAI2QLXMYQ0J2N","A2LKGF193ZR5JP","3KTZHH2ONI1ODAVRRMZTRL6IHCUM80","","null","<img src=""img/food4.png"" style=""width:200px;border:14px solid red;"">","null","","","","","","","","","",""
"","image-keyboard-response","192","103636","0.0-282.0","30ZX6P7VF9HPC7LBZAI2QLXMYQ0J2N","A2LKGF193ZR5JP","3KTZHH2ONI1ODAVRRMZTRL6IHCUM80","","402.59999990463257","img/food4.png","74","403.19999980926514","1","1","","1","1","1,0.7,0,1,0.7,0,0.7,0,1","0.7,0,1,0.7,0,1,0,1,0.7","2",""
"","html-keyboard-response","193","103939","0.0-283.0","30ZX6P7VF9HPC7LBZAI2QLXMYQ0J2N","A2LKGF193ZR5JP","3KTZHH2ONI1ODAVRRMZTRL6IHCUM80","","null","<img src=""img/food4.png"" style=""width:200px; border:14px solid green;"">","null","","","","","","","","","",""
"","image-keyboard-response","194","104505","0.0-284.0","30ZX6P7VF9HPC7LBZAI2QLXMYQ0J2N","A2LKGF193ZR5JP","3KTZHH2ONI1ODAVRRMZTRL6IHCUM80","","565.2999999523163","img/food5.png","75","566","2","1","","3","1","1,0.7,0,1,0.7,0,0.7,0,1","0.7,0,1,0.7,0,1,0,1,0.7","2",""
"","html-keyboard-response","195","104807","0.0-285.0","30ZX6P7VF9HPC7LBZAI2QLXMYQ0J2N","A2LKGF193ZR5JP","3KTZHH2ONI1ODAVRRMZTRL6IHCUM80","","null","<img src=""img/food5.png"" style=""width:200px; border:14px solid green;"">","null","","","","","","","","","",""
"","image-keyboard-response","196","105227","0.0-286.0","30ZX6P7VF9HPC7LBZAI2QLXMYQ0J2N","A2LKGF193ZR5JP","3KTZHH2ONI1ODAVRRMZTRL6IHCUM80","","419.40000009536743","img/food5.png","75","420.2000000476837","2","1","","3","1","1,0.7,0,1,0.7,0,0.7,0,1","0.7,0,1,0.7,0,1,0,1,0.7","2",""
"","html-keyboard-response","197","105529","0.0-287.0","30ZX6P7VF9HPC7LBZAI2QLXMYQ0J2N","A2LKGF193ZR5JP","3KTZHH2ONI1ODAVRRMZTRL6IHCUM80","","null","<img src=""img/food5.png"" style=""width:200px; border:14px solid green;"">","null","","","","","","","","","",""
"","image-keyboard-response","198","105851","0.0-288.0","30ZX6P7VF9HPC7LBZAI2QLXMYQ0J2N","A2LKGF193ZR5JP","3KTZHH2ONI1ODAVRRMZTRL6IHCUM80","","321.09999990463257","img/food5.png","75","322","2","1","","3","1","1,0.7,0,1,0.7,0,0.7,0,1","0.7,0,1,0.7,0,1,0,1,0.7","2",""
"","html-keyboard-response","199","106158","0.0-289.0","30ZX6P7VF9HPC7LBZAI2QLXMYQ0J2N","A2LKGF193ZR5JP","3KTZHH2ONI1ODAVRRMZTRL6IHCUM80","","null","<img src=""img/food5.png"" style=""width:200px; border:14px solid green;"">","null","","","","","","","","","",""
"","image-keyboard-response","200","106381","0.0-290.0","30ZX6P7VF9HPC7LBZAI2QLXMYQ0J2N","A2LKGF193ZR5JP","3KTZHH2ONI1ODAVRRMZTRL6IHCUM80","","221.90000009536743","img/food4.png","75","222.79999995231628","2","0","","1","1","1,0.7,0,1,0.7,0,0.7,0,1","0.7,0,1,0.7,0,1,0,1,0.7","2",""
"","html-keyboard-response","201","106683","0.0-291.0","30ZX6P7VF9HPC7LBZAI2QLXMYQ0J2N","A2LKGF193ZR5JP","3KTZHH2ONI1ODAVRRMZTRL6IHCUM80","","null","<img src=""img/food4.png"" style=""width:200px;border:14px solid red;"">","null","","","","","","","","","",""
"","image-keyboard-response","202","106862","0.0-292.0","30ZX6P7VF9HPC7LBZAI2QLXMYQ0J2N","A2LKGF193ZR5JP","3KTZHH2ONI1ODAVRRMZTRL6IHCUM80","","178.5","img/food2.png","74","179.40000009536743","1","1","","2","1","1,0.7,0,1,0.7,0,0.7,0,1","0.7,0,1,0.7,0,1,0,1,0.7","2",""
"","html-keyboard-response","203","107165","0.0-293.0","30ZX6P7VF9HPC7LBZAI2QLXMYQ0J2N","A2LKGF193ZR5JP","3KTZHH2ONI1ODAVRRMZTRL6IHCUM80","","null","<img src=""img/food2.png"" style=""width:200px; border:14px solid green;"">","null","","","","","","","","","",""
"","image-keyboard-response","204","108004","0.0-294.0","30ZX6P7VF9HPC7LBZAI2QLXMYQ0J2N","A2LKGF193ZR5JP","3KTZHH2ONI1ODAVRRMZTRL6IHCUM80","","838.1000001430511","img/food4.png","74","838.9000000953674","1","1","","1","1","1,0.7,0,1,0.7,0,0.7,0,1","0.7,0,1,0.7,0,1,0,1,0.7","2",""
"","html-keyboard-response","205","108306","0.0-295.0","30ZX6P7VF9HPC7LBZAI2QLXMYQ0J2N","A2LKGF193ZR5JP","3KTZHH2ONI1ODAVRRMZTRL6IHCUM80","","null","<img src=""img/food4.png"" style=""width:200px; border:14px solid green;"">","null","","","","","","","","","",""
"","image-keyboard-response","206","108456","0.0-296.0","30ZX6P7VF9HPC7LBZAI2QLXMYQ0J2N","A2LKGF193ZR5JP","3KTZHH2ONI1ODAVRRMZTRL6IHCUM80","","149.90000009536743","img/food2.png","74","150.5","1","0","","2","1","1,0.7,0,1,0.7,0,0.7,0,1","0.7,0,1,0.7,0,1,0,1,0.7","2",""
"","html-keyboard-response","207","108758","0.0-297.0","30ZX6P7VF9HPC7LBZAI2QLXMYQ0J2N","A2LKGF193ZR5JP","3KTZHH2ONI1ODAVRRMZTRL6IHCUM80","","null","<img src=""img/food2.png"" style=""width:200px;border:14px solid red;"">","null","","","","","","","","","",""
"","image-keyboard-response","208","109148","0.0-298.0","30ZX6P7VF9HPC7LBZAI2QLXMYQ0J2N","A2LKGF193ZR5JP","3KTZHH2ONI1ODAVRRMZTRL6IHCUM80","","389","img/food5.png","75","389.7999999523163","2","1","","3","1","1,0.7,0,1,0.7,0,0.7,0,1","0.7,0,1,0.7,0,1,0,1,0.7","2",""
"","html-keyboard-response","209","109449","0.0-299.0","30ZX6P7VF9HPC7LBZAI2QLXMYQ0J2N","A2LKGF193ZR5JP","3KTZHH2ONI1ODAVRRMZTRL6IHCUM80","","null","<img src=""img/food5.png"" style=""width:200px; border:14px solid green;"">","null","","","","","","","","","",""
"","image-keyboard-response","210","109819","0.0-300.0","30ZX6P7VF9HPC7LBZAI2QLXMYQ0J2N","A2LKGF193ZR5JP","3KTZHH2ONI1ODAVRRMZTRL6IHCUM80","","368.90000009536743","img/food2.png","75","369.7000000476837","2","0","","2","1","1,0.7,0,1,0.7,0,0.7,0,1","0.7,0,1,0.7,0,1,0,1,0.7","2",""
"","html-keyboard-response","211","110121","0.0-301.0","30ZX6P7VF9HPC7LBZAI2QLXMYQ0J2N","A2LKGF193ZR5JP","3KTZHH2ONI1ODAVRRMZTRL6IHCUM80","","null","<img src=""img/food2.png"" style=""width:200px;border:14px solid red;"">","null","","","","","","","","","",""
"","image-keyboard-response","212","110413","0.0-302.0","30ZX6P7VF9HPC7LBZAI2QLXMYQ0J2N","A2LKGF193ZR5JP","3KTZHH2ONI1ODAVRRMZTRL6IHCUM80","","291.30000019073486","img/food2.png","74","292","1","0","","2","1","1,0.7,0,1,0.7,0,0.7,0,1","0.7,0,1,0.7,0,1,0,1,0.7","2",""
"","html-keyboard-response","213","110716","0.0-303.0","30ZX6P7VF9HPC7LBZAI2QLXMYQ0J2N","A2LKGF193ZR5JP","3KTZHH2ONI1ODAVRRMZTRL6IHCUM80","","null","<img src=""img/food2.png"" style=""width:200px;border:14px solid red;"">","null","","","","","","","","","",""
"","image-keyboard-response","214","111187","0.0-304.0","30ZX6P7VF9HPC7LBZAI2QLXMYQ0J2N","A2LKGF193ZR5JP","3KTZHH2ONI1ODAVRRMZTRL6IHCUM80","","469.59999990463257","img/food2.png","76","470.7999999523163","3","1","","2","1","1,0.7,0,1,0.7,0,0.7,0,1","0.7,0,1,0.7,0,1,0,1,0.7","2",""
"","html-keyboard-response","215","111490","0.0-305.0","30ZX6P7VF9HPC7LBZAI2QLXMYQ0J2N","A2LKGF193ZR5JP","3KTZHH2ONI1ODAVRRMZTRL6IHCUM80","","null","<img src=""img/food2.png"" style=""width:200px; border:14px solid green;"">","null","","","","","","","","","",""
"","image-keyboard-response","216","112340","0.0-306.0","30ZX6P7VF9HPC7LBZAI2QLXMYQ0J2N","A2LKGF193ZR5JP","3KTZHH2ONI1ODAVRRMZTRL6IHCUM80","","848.6000001430511","img/food4.png","74","849.3999998569489","1","1","","1","1","1,0.7,0,1,0.7,0,0.7,0,1","0.7,0,1,0.7,0,1,0,1,0.7","2",""
"","html-keyboard-response","217","112642","0.0-307.0","30ZX6P7VF9HPC7LBZAI2QLXMYQ0J2N","A2LKGF193ZR5JP","3KTZHH2ONI1ODAVRRMZTRL6IHCUM80","","null","<img src=""img/food4.png"" style=""width:200px; border:14px solid green;"">","null","","","","","","","","","",""
"","image-keyboard-response","218","113259","0.0-308.0","30ZX6P7VF9HPC7LBZAI2QLXMYQ0J2N","A2LKGF193ZR5JP","3KTZHH2ONI1ODAVRRMZTRL6IHCUM80","","616.2000000476837","img/food2.png","75","616.7999999523163","2","0","","2","1","1,0.7,0,1,0.7,0,0.7,0,1","0.7,0,1,0.7,0,1,0,1,0.7","2",""
"","html-keyboard-response","219","113561","0.0-309.0","30ZX6P7VF9HPC7LBZAI2QLXMYQ0J2N","A2LKGF193ZR5JP","3KTZHH2ONI1ODAVRRMZTRL6IHCUM80","","null","<img src=""img/food2.png"" style=""width:200px;border:14px solid red;"">","null","","","","","","","","","",""
"","image-keyboard-response","220","114300","0.0-310.0","30ZX6P7VF9HPC7LBZAI2QLXMYQ0J2N","A2LKGF193ZR5JP","3KTZHH2ONI1ODAVRRMZTRL6IHCUM80","","738.2000000476837","img/food5.png","74","738.8999998569489","1","0","","3","1","1,0.7,0,1,0.7,0,0.7,0,1","0.7,0,1,0.7,0,1,0,1,0.7","2",""
"","html-keyboard-response","221","114602","0.0-311.0","30ZX6P7VF9HPC7LBZAI2QLXMYQ0J2N","A2LKGF193ZR5JP","3KTZHH2ONI1ODAVRRMZTRL6IHCUM80","","null","<img src=""img/food5.png"" style=""width:200px;border:14px solid red;"">","null","","","","","","","","","",""
"","image-keyboard-response","222","115027","0.0-312.0","30ZX6P7VF9HPC7LBZAI2QLXMYQ0J2N","A2LKGF193ZR5JP","3KTZHH2ONI1ODAVRRMZTRL6IHCUM80","","423.5","img/food5.png","75","424.2999999523163","2","1","","3","1","1,0.7,0,1,0.7,0,0.7,0,1","0.7,0,1,0.7,0,1,0,1,0.7","2",""
"","html-keyboard-response","223","115328","0.0-313.0","30ZX6P7VF9HPC7LBZAI2QLXMYQ0J2N","A2LKGF193ZR5JP","3KTZHH2ONI1ODAVRRMZTRL6IHCUM80","","null","<img src=""img/food5.png"" style=""width:200px; border:14px solid green;"">","null","","","","","","","","","",""
"","image-keyboard-response","224","115907","0.0-314.0","30ZX6P7VF9HPC7LBZAI2QLXMYQ0J2N","A2LKGF193ZR5JP","3KTZHH2ONI1ODAVRRMZTRL6IHCUM80","","577.7999999523163","img/food4.png","75","578.5","2","0","","1","1","1,0.7,0,1,0.7,0,0.7,0,1","0.7,0,1,0.7,0,1,0,1,0.7","2",""
"","html-keyboard-response","225","116209","0.0-315.0","30ZX6P7VF9HPC7LBZAI2QLXMYQ0J2N","A2LKGF193ZR5JP","3KTZHH2ONI1ODAVRRMZTRL6IHCUM80","","null","<img src=""img/food4.png"" style=""width:200px;border:14px solid red;"">","null","","","","","","","","","",""
"","image-keyboard-response","226","116459","0.0-316.0","30ZX6P7VF9HPC7LBZAI2QLXMYQ0J2N","A2LKGF193ZR5JP","3KTZHH2ONI1ODAVRRMZTRL6IHCUM80","","249.60000014305115","img/food2.png","74","250.10000014305115","1","1","","2","1","1,0.7,0,1,0.7,0,0.7,0,1","0.7,0,1,0.7,0,1,0,1,0.7","2",""
"","html-keyboard-response","227","116761","0.0-317.0","30ZX6P7VF9HPC7LBZAI2QLXMYQ0J2N","A2LKGF193ZR5JP","3KTZHH2ONI1ODAVRRMZTRL6IHCUM80","","null","<img src=""img/food2.png"" style=""width:200px; border:14px solid green;"">","null","","","","","","","","","",""
"","image-keyboard-response","228","117325","0.0-318.0","30ZX6P7VF9HPC7LBZAI2QLXMYQ0J2N","A2LKGF193ZR5JP","3KTZHH2ONI1ODAVRRMZTRL6IHCUM80","","563","img/food4.png","75","563.7999999523163","2","0","","1","1","1,0.7,0,1,0.7,0,0.7,0,1","0.7,0,1,0.7,0,1,0,1,0.7","2",""
"","html-keyboard-response","229","117627","0.0-319.0","30ZX6P7VF9HPC7LBZAI2QLXMYQ0J2N","A2LKGF193ZR5JP","3KTZHH2ONI1ODAVRRMZTRL6IHCUM80","","null","<img src=""img/food4.png"" style=""width:200px;border:14px solid red;"">","null","","","","","","","","","",""
"","image-keyboard-response","230","118284","0.0-320.0","30ZX6P7VF9HPC7LBZAI2QLXMYQ0J2N","A2LKGF193ZR5JP","3KTZHH2ONI1ODAVRRMZTRL6IHCUM80","","657.0999999046326","img/food2.png","75","657.7999999523163","2","0","","2","1","1,0.7,0,1,0.7,0,0.7,0,1","0.7,0,1,0.7,0,1,0,1,0.7","2",""
"","html-keyboard-response","231","118587","0.0-321.0","30ZX6P7VF9HPC7LBZAI2QLXMYQ0J2N","A2LKGF193ZR5JP","3KTZHH2ONI1ODAVRRMZTRL6IHCUM80","","null","<img src=""img/food2.png"" style=""width:200px;border:14px solid red;"">","null","","","","","","","","","",""
"","image-keyboard-response","232","119340","0.0-322.0","30ZX6P7VF9HPC7LBZAI2QLXMYQ0J2N","A2LKGF193ZR5JP","3KTZHH2ONI1ODAVRRMZTRL6IHCUM80","","753.1000001430511","img/food2.png","76","753.7000000476837","3","1","","2","1","1,0.7,0,1,0.7,0,0.7,0,1","0.7,0,1,0.7,0,1,0,1,0.7","2",""
"","html-keyboard-response","233","119641","0.0-323.0","30ZX6P7VF9HPC7LBZAI2QLXMYQ0J2N","A2LKGF193ZR5JP","3KTZHH2ONI1ODAVRRMZTRL6IHCUM80","","null","<img src=""img/food2.png"" style=""width:200px; border:14px solid green;"">","null","","","","","","","","","",""
"","image-keyboard-response","234","120058","0.0-324.0","30ZX6P7VF9HPC7LBZAI2QLXMYQ0J2N","A2LKGF193ZR5JP","3KTZHH2ONI1ODAVRRMZTRL6IHCUM80","","416.09999990463257","img/food2.png","76","416.59999990463257","3","1","","2","1","1,0.7,0,1,0.7,0,0.7,0,1","0.7,0,1,0.7,0,1,0,1,0.7","2",""
"","html-keyboard-response","235","120360","0.0-325.0","30ZX6P7VF9HPC7LBZAI2QLXMYQ0J2N","A2LKGF193ZR5JP","3KTZHH2ONI1ODAVRRMZTRL6IHCUM80","","null","<img src=""img/food2.png"" style=""width:200px; border:14px solid green;"">","null","","","","","","","","","",""
"","image-keyboard-response","236","120474","0.0-326.0","30ZX6P7VF9HPC7LBZAI2QLXMYQ0J2N","A2LKGF193ZR5JP","3KTZHH2ONI1ODAVRRMZTRL6IHCUM80","","113.10000014305115","img/food4.png","76","113.79999995231628","3","1","","1","1","1,0.7,0,1,0.7,0,0.7,0,1","0.7,0,1,0.7,0,1,0,1,0.7","2",""
"","html-keyboard-response","237","120777","0.0-327.0","30ZX6P7VF9HPC7LBZAI2QLXMYQ0J2N","A2LKGF193ZR5JP","3KTZHH2ONI1ODAVRRMZTRL6IHCUM80","","null","<img src=""img/food4.png"" style=""width:200px; border:14px solid green;"">","null","","","","","","","","","",""
"","image-keyboard-response","238","121699","0.0-328.0","30ZX6P7VF9HPC7LBZAI2QLXMYQ0J2N","A2LKGF193ZR5JP","3KTZHH2ONI1ODAVRRMZTRL6IHCUM80","","921.6000001430511","img/food5.png","74","922.3999998569489","1","0","","3","1","1,0.7,0,1,0.7,0,0.7,0,1","0.7,0,1,0.7,0,1,0,1,0.7","2",""
"","html-keyboard-response","239","122002","0.0-329.0","30ZX6P7VF9HPC7LBZAI2QLXMYQ0J2N","A2LKGF193ZR5JP","3KTZHH2ONI1ODAVRRMZTRL6IHCUM80","","null","<img src=""img/food5.png"" style=""width:200px;border:14px solid red;"">","null","","","","","","","","","",""
"","image-keyboard-response","240","122339","0.0-330.0","30ZX6P7VF9HPC7LBZAI2QLXMYQ0J2N","A2LKGF193ZR5JP","3KTZHH2ONI1ODAVRRMZTRL6IHCUM80","","336.2000000476837","img/food2.png","75","336.90000009536743","2","0","","2","1","1,0.7,0,1,0.7,0,0.7,0,1","0.7,0,1,0.7,0,1,0,1,0.7","2",""
"","html-keyboard-response","241","122642","0.0-331.0","30ZX6P7VF9HPC7LBZAI2QLXMYQ0J2N","A2LKGF193ZR5JP","3KTZHH2ONI1ODAVRRMZTRL6IHCUM80","","null","<img src=""img/food2.png"" style=""width:200px;border:14px solid red;"">","null","","","","","","","","","",""
"","image-keyboard-response","242","123379","0.0-332.0","30ZX6P7VF9HPC7LBZAI2QLXMYQ0J2N","A2LKGF193ZR5JP","3KTZHH2ONI1ODAVRRMZTRL6IHCUM80","","736.2999999523163","img/food4.png","74","737.0999999046326","1","1","","1","1","1,0.7,0,1,0.7,0,0.7,0,1","0.7,0,1,0.7,0,1,0,1,0.7","2",""
"","html-keyboard-response","243","123681","0.0-333.0","30ZX6P7VF9HPC7LBZAI2QLXMYQ0J2N","A2LKGF193ZR5JP","3KTZHH2ONI1ODAVRRMZTRL6IHCUM80","","null","<img src=""img/food4.png"" style=""width:200px; border:14px solid green;"">","null","","","","","","","","","",""
"","image-keyboard-response","244","124090","0.0-334.0","30ZX6P7VF9HPC7LBZAI2QLXMYQ0J2N","A2LKGF193ZR5JP","3KTZHH2ONI1ODAVRRMZTRL6IHCUM80","","407.69999980926514","img/food2.png","75","408.40000009536743","2","0","","2","1","1,0.7,0,1,0.7,0,0.7,0,1","0.7,0,1,0.7,0,1,0,1,0.7","2",""
"","html-keyboard-response","245","124404","0.0-335.0","30ZX6P7VF9HPC7LBZAI2QLXMYQ0J2N","A2LKGF193ZR5JP","3KTZHH2ONI1ODAVRRMZTRL6IHCUM80","","null","<img src=""img/food2.png"" style=""width:200px;border:14px solid red;"">","null","","","","","","","","","",""
"","image-keyboard-response","246","125382","0.0-336.0","30ZX6P7VF9HPC7LBZAI2QLXMYQ0J2N","A2LKGF193ZR5JP","3KTZHH2ONI1ODAVRRMZTRL6IHCUM80","","976.2999999523163","img/food5.png","74","977.2999999523163","1","0","","3","1","1,0.7,0,1,0.7,0,0.7,0,1","0.7,0,1,0.7,0,1,0,1,0.7","2",""
"","html-keyboard-response","247","125683","0.0-337.0","30ZX6P7VF9HPC7LBZAI2QLXMYQ0J2N","A2LKGF193ZR5JP","3KTZHH2ONI1ODAVRRMZTRL6IHCUM80","","null","<img src=""img/food5.png"" style=""width:200px;border:14px solid red;"">","null","","","","","","","","","",""
"","image-keyboard-response","248","126244","0.0-338.0","30ZX6P7VF9HPC7LBZAI2QLXMYQ0J2N","A2LKGF193ZR5JP","3KTZHH2ONI1ODAVRRMZTRL6IHCUM80","","560","img/food2.png","76","561","3","1","","2","1","1,0.7,0,1,0.7,0,0.7,0,1","0.7,0,1,0.7,0,1,0,1,0.7","2",""
"","html-keyboard-response","249","126546","0.0-339.0","30ZX6P7VF9HPC7LBZAI2QLXMYQ0J2N","A2LKGF193ZR5JP","3KTZHH2ONI1ODAVRRMZTRL6IHCUM80","","null","<img src=""img/food2.png"" style=""width:200px; border:14px solid green;"">","null","","","","","","","","","",""
"","image-keyboard-response","250","126963","0.0-340.0","30ZX6P7VF9HPC7LBZAI2QLXMYQ0J2N","A2LKGF193ZR5JP","3KTZHH2ONI1ODAVRRMZTRL6IHCUM80","","415.7999999523163","img/food2.png","76","416.5","3","1","","2","1","1,0.7,0,1,0.7,0,0.7,0,1","0.7,0,1,0.7,0,1,0,1,0.7","2",""
"","html-keyboard-response","251","127265","0.0-341.0","30ZX6P7VF9HPC7LBZAI2QLXMYQ0J2N","A2LKGF193ZR5JP","3KTZHH2ONI1ODAVRRMZTRL6IHCUM80","","null","<img src=""img/food2.png"" style=""width:200px; border:14px solid green;"">","null","","","","","","","","","",""
"","image-keyboard-response","252","127657","0.0-342.0","30ZX6P7VF9HPC7LBZAI2QLXMYQ0J2N","A2LKGF193ZR5JP","3KTZHH2ONI1ODAVRRMZTRL6IHCUM80","","390.7000000476837","img/food2.png","76","391.5","3","1","","2","1","1,0.7,0,1,0.7,0,0.7,0,1","0.7,0,1,0.7,0,1,0,1,0.7","2",""
"","html-keyboard-response","253","127958","0.0-343.0","30ZX6P7VF9HPC7LBZAI2QLXMYQ0J2N","A2LKGF193ZR5JP","3KTZHH2ONI1ODAVRRMZTRL6IHCUM80","","null","<img src=""img/food2.png"" style=""width:200px; border:14px solid green;"">","null","","","","","","","","","",""
"","image-keyboard-response","254","128389","0.0-344.0","30ZX6P7VF9HPC7LBZAI2QLXMYQ0J2N","A2LKGF193ZR5JP","3KTZHH2ONI1ODAVRRMZTRL6IHCUM80","","429.59999990463257","img/food2.png","76","430.89999985694885","3","1","","2","1","1,0.7,0,1,0.7,0,0.7,0,1","0.7,0,1,0.7,0,1,0,1,0.7","2",""
"","html-keyboard-response","255","128692","0.0-345.0","30ZX6P7VF9HPC7LBZAI2QLXMYQ0J2N","A2LKGF193ZR5JP","3KTZHH2ONI1ODAVRRMZTRL6IHCUM80","","null","<img src=""img/food2.png"" style=""width:200px; border:14px solid green;"">","null","","","","","","","","","",""
"","image-keyboard-response","256","128995","0.0-346.0","30ZX6P7VF9HPC7LBZAI2QLXMYQ0J2N","A2LKGF193ZR5JP","3KTZHH2ONI1ODAVRRMZTRL6IHCUM80","","302.7999999523163","img/food5.png","76","303.5","3","1","","3","1","1,0.7,0,1,0.7,0,0.7,0,1","0.7,0,1,0.7,0,1,0,1,0.7","2",""
"","html-keyboard-response","257","129297","0.0-347.0","30ZX6P7VF9HPC7LBZAI2QLXMYQ0J2N","A2LKGF193ZR5JP","3KTZHH2ONI1ODAVRRMZTRL6IHCUM80","","null","<img src=""img/food5.png"" style=""width:200px; border:14px solid green;"">","null","","","","","","","","","",""
"","image-keyboard-response","258","129556","0.0-348.0","30ZX6P7VF9HPC7LBZAI2QLXMYQ0J2N","A2LKGF193ZR5JP","3KTZHH2ONI1ODAVRRMZTRL6IHCUM80","","258","img/food5.png","76","258.7000000476837","3","1","","3","1","1,0.7,0,1,0.7,0,0.7,0,1","0.7,0,1,0.7,0,1,0,1,0.7","2",""
"","html-keyboard-response","259","129858","0.0-349.0","30ZX6P7VF9HPC7LBZAI2QLXMYQ0J2N","A2LKGF193ZR5JP","3KTZHH2ONI1ODAVRRMZTRL6IHCUM80","","null","<img src=""img/food5.png"" style=""width:200px; border:14px solid green;"">","null","","","","","","","","","",""
"","image-keyboard-response","260","130026","0.0-350.0","30ZX6P7VF9HPC7LBZAI2QLXMYQ0J2N","A2LKGF193ZR5JP","3KTZHH2ONI1ODAVRRMZTRL6IHCUM80","","167.40000009536743","img/food5.png","76","168.20000004768372","3","1","","3","1","1,0.7,0,1,0.7,0,0.7,0,1","0.7,0,1,0.7,0,1,0,1,0.7","2",""
"","html-keyboard-response","261","130329","0.0-351.0","30ZX6P7VF9HPC7LBZAI2QLXMYQ0J2N","A2LKGF193ZR5JP","3KTZHH2ONI1ODAVRRMZTRL6IHCUM80","","null","<img src=""img/food5.png"" style=""width:200px; border:14px solid green;"">","null","","","","","","","","","",""
"","image-keyboard-response","262","130451","0.0-352.0","30ZX6P7VF9HPC7LBZAI2QLXMYQ0J2N","A2LKGF193ZR5JP","3KTZHH2ONI1ODAVRRMZTRL6IHCUM80","","121.20000004768372","img/food5.png","76","122.20000004768372","3","0","","3","1","1,0.7,0,1,0.7,0,0.7,0,1","0.7,0,1,0.7,0,1,0,1,0.7","2",""
"","html-keyboard-response","263","130752","0.0-353.0","30ZX6P7VF9HPC7LBZAI2QLXMYQ0J2N","A2LKGF193ZR5JP","3KTZHH2ONI1ODAVRRMZTRL6IHCUM80","","null","<img src=""img/food5.png"" style=""width:200px;border:14px solid red;"">","null","","","","","","","","","",""
"","image-keyboard-response","264","130860","0.0-354.0","30ZX6P7VF9HPC7LBZAI2QLXMYQ0J2N","A2LKGF193ZR5JP","3KTZHH2ONI1ODAVRRMZTRL6IHCUM80","","106.90000009536743","img/food5.png","76","107.70000004768372","3","1","","3","1","1,0.7,0,1,0.7,0,0.7,0,1","0.7,0,1,0.7,0,1,0,1,0.7","2",""
"","html-keyboard-response","265","131162","0.0-355.0","30ZX6P7VF9HPC7LBZAI2QLXMYQ0J2N","A2LKGF193ZR5JP","3KTZHH2ONI1ODAVRRMZTRL6IHCUM80","","null","<img src=""img/food5.png"" style=""width:200px; border:14px solid green;"">","null","","","","","","","","","",""
"","image-keyboard-response","266","131605","0.0-356.0","30ZX6P7VF9HPC7LBZAI2QLXMYQ0J2N","A2LKGF193ZR5JP","3KTZHH2ONI1ODAVRRMZTRL6IHCUM80","","441.60000014305115","img/food5.png","76","442.2999999523163","3","1","","3","1","1,0.7,0,1,0.7,0,0.7,0,1","0.7,0,1,0.7,0,1,0,1,0.7","2",""
"","html-keyboard-response","267","131907","0.0-357.0","30ZX6P7VF9HPC7LBZAI2QLXMYQ0J2N","A2LKGF193ZR5JP","3KTZHH2ONI1ODAVRRMZTRL6IHCUM80","","null","<img src=""img/food5.png"" style=""width:200px; border:14px solid green;"">","null","","","","","","","","","",""
"","image-keyboard-response","268","132027","0.0-358.0","30ZX6P7VF9HPC7LBZAI2QLXMYQ0J2N","A2LKGF193ZR5JP","3KTZHH2ONI1ODAVRRMZTRL6IHCUM80","","118.29999995231628","img/food2.png","76","119.20000004768372","3","1","","2","1","1,0.7,0,1,0.7,0,0.7,0,1","0.7,0,1,0.7,0,1,0,1,0.7","2",""
"","html-keyboard-response","269","132328","0.0-359.0","30ZX6P7VF9HPC7LBZAI2QLXMYQ0J2N","A2LKGF193ZR5JP","3KTZHH2ONI1ODAVRRMZTRL6IHCUM80","","null","<img src=""img/food2.png"" style=""width:200px; border:14px solid green;"">","null","","","","","","","","","",""
"","image-keyboard-response","270","132682","0.0-360.0","30ZX6P7VF9HPC7LBZAI2QLXMYQ0J2N","A2LKGF193ZR5JP","3KTZHH2ONI1ODAVRRMZTRL6IHCUM80","","353.39999985694885","img/food2.png","76","353.90000009536743","3","1","","2","1","1,0.7,0,1,0.7,0,0.7,0,1","0.7,0,1,0.7,0,1,0,1,0.7","2",""
"","html-keyboard-response","271","132985","0.0-361.0","30ZX6P7VF9HPC7LBZAI2QLXMYQ0J2N","A2LKGF193ZR5JP","3KTZHH2ONI1ODAVRRMZTRL6IHCUM80","","null","<img src=""img/food2.png"" style=""width:200px; border:14px solid green;"">","null","","","","","","","","","",""
"","image-keyboard-response","272","133124","0.0-362.0","30ZX6P7VF9HPC7LBZAI2QLXMYQ0J2N","A2LKGF193ZR5JP","3KTZHH2ONI1ODAVRRMZTRL6IHCUM80","","137.89999985694885","img/food4.png","76","138.70000004768372","3","1","","1","1","1,0.7,0,1,0.7,0,0.7,0,1","0.7,0,1,0.7,0,1,0,1,0.7","2",""
"","html-keyboard-response","273","133426","0.0-363.0","30ZX6P7VF9HPC7LBZAI2QLXMYQ0J2N","A2LKGF193ZR5JP","3KTZHH2ONI1ODAVRRMZTRL6IHCUM80","","null","<img src=""img/food4.png"" style=""width:200px; border:14px solid green;"">","null","","","","","","","","","",""
"","image-keyboard-response","274","133707","0.0-364.0","30ZX6P7VF9HPC7LBZAI2QLXMYQ0J2N","A2LKGF193ZR5JP","3KTZHH2ONI1ODAVRRMZTRL6IHCUM80","","280.39999985694885","img/food4.png","76","281","3","1","","1","1","1,0.7,0,1,0.7,0,0.7,0,1","0.7,0,1,0.7,0,1,0,1,0.7","2",""
"","html-keyboard-response","275","134008","0.0-365.0","30ZX6P7VF9HPC7LBZAI2QLXMYQ0J2N","A2LKGF193ZR5JP","3KTZHH2ONI1ODAVRRMZTRL6IHCUM80","","null","<img src=""img/food4.png"" style=""width:200px; border:14px solid green;"">","null","","","","","","","","","",""
"","image-keyboard-response","276","134117","0.0-366.0","30ZX6P7VF9HPC7LBZAI2QLXMYQ0J2N","A2LKGF193ZR5JP","3KTZHH2ONI1ODAVRRMZTRL6IHCUM80","","107.79999995231628","img/food4.png","76","108.79999995231628","3","1","","1","1","1,0.7,0,1,0.7,0,0.7,0,1","0.7,0,1,0.7,0,1,0,1,0.7","2",""
"","html-keyboard-response","277","134420","0.0-367.0","30ZX6P7VF9HPC7LBZAI2QLXMYQ0J2N","A2LKGF193ZR5JP","3KTZHH2ONI1ODAVRRMZTRL6IHCUM80","","null","<img src=""img/food4.png"" style=""width:200px; border:14px solid green;"">","null","","","","","","","","","",""
"","image-keyboard-response","278","134531","0.0-368.0","30ZX6P7VF9HPC7LBZAI2QLXMYQ0J2N","A2LKGF193ZR5JP","3KTZHH2ONI1ODAVRRMZTRL6IHCUM80","","110","img/food4.png","76","110.90000009536743","3","1","","1","1","1,0.7,0,1,0.7,0,0.7,0,1","0.7,0,1,0.7,0,1,0,1,0.7","2",""
"","html-keyboard-response","279","134837","0.0-369.0","30ZX6P7VF9HPC7LBZAI2QLXMYQ0J2N","A2LKGF193ZR5JP","3KTZHH2ONI1ODAVRRMZTRL6IHCUM80","","null","<img src=""img/food4.png"" style=""width:200px; border:14px solid green;"">","null","","","","","","","","","",""
"","image-keyboard-response","280","134883","0.0-370.0","30ZX6P7VF9HPC7LBZAI2QLXMYQ0J2N","A2LKGF193ZR5JP","3KTZHH2ONI1ODAVRRMZTRL6IHCUM80","","45.10000014305115","img/food2.png","76","46","3","1","","2","1","1,0.7,0,1,0.7,0,0.7,0,1","0.7,0,1,0.7,0,1,0,1,0.7","2",""
"","html-keyboard-response","281","135186","0.0-371.0","30ZX6P7VF9HPC7LBZAI2QLXMYQ0J2N","A2LKGF193ZR5JP","3KTZHH2ONI1ODAVRRMZTRL6IHCUM80","","null","<img src=""img/food2.png"" style=""width:200px; border:14px solid green;"">","null","","","","","","","","","",""
"","image-keyboard-response","282","135442","0.0-372.0","30ZX6P7VF9HPC7LBZAI2QLXMYQ0J2N","A2LKGF193ZR5JP","3KTZHH2ONI1ODAVRRMZTRL6IHCUM80","","254.60000014305115","img/food5.png","76","255.29999995231628","3","0","","3","1","1,0.7,0,1,0.7,0,0.7,0,1","0.7,0,1,0.7,0,1,0,1,0.7","2",""
"","html-keyboard-response","283","135743","0.0-373.0","30ZX6P7VF9HPC7LBZAI2QLXMYQ0J2N","A2LKGF193ZR5JP","3KTZHH2ONI1ODAVRRMZTRL6IHCUM80","","null","<img src=""img/food5.png"" style=""width:200px;border:14px solid red;"">","null","","","","","","","","","",""
"","image-keyboard-response","284","135908","0.0-374.0","30ZX6P7VF9HPC7LBZAI2QLXMYQ0J2N","A2LKGF193ZR5JP","3KTZHH2ONI1ODAVRRMZTRL6IHCUM80","","163.60000014305115","img/food4.png","76","164.19999980926514","3","1","","1","1","1,0.7,0,1,0.7,0,0.7,0,1","0.7,0,1,0.7,0,1,0,1,0.7","2",""
"","html-keyboard-response","285","136210","0.0-375.0","30ZX6P7VF9HPC7LBZAI2QLXMYQ0J2N","A2LKGF193ZR5JP","3KTZHH2ONI1ODAVRRMZTRL6IHCUM80","","null","<img src=""img/food4.png"" style=""width:200px; border:14px solid green;"">","null","","","","","","","","","",""
"","image-keyboard-response","286","136571","0.0-376.0","30ZX6P7VF9HPC7LBZAI2QLXMYQ0J2N","A2LKGF193ZR5JP","3KTZHH2ONI1ODAVRRMZTRL6IHCUM80","","360.2999999523163","img/food5.png","76","361","3","1","","3","1","1,0.7,0,1,0.7,0,0.7,0,1","0.7,0,1,0.7,0,1,0,1,0.7","2",""
"","html-keyboard-response","287","136873","0.0-377.0","30ZX6P7VF9HPC7LBZAI2QLXMYQ0J2N","A2LKGF193ZR5JP","3KTZHH2ONI1ODAVRRMZTRL6IHCUM80","","null","<img src=""img/food5.png"" style=""width:200px; border:14px solid green;"">","null","","","","","","","","","",""
"","image-keyboard-response","288","137387","0.0-378.0","30ZX6P7VF9HPC7LBZAI2QLXMYQ0J2N","A2LKGF193ZR5JP","3KTZHH2ONI1ODAVRRMZTRL6IHCUM80","","512.7999999523163","img/food4.png","76","513.3999998569489","3","1","","1","1","1,0.7,0,1,0.7,0,0.7,0,1","0.7,0,1,0.7,0,1,0,1,0.7","2",""
"","html-keyboard-response","289","137689","0.0-379.0","30ZX6P7VF9HPC7LBZAI2QLXMYQ0J2N","A2LKGF193ZR5JP","3KTZHH2ONI1ODAVRRMZTRL6IHCUM80","","null","<img src=""img/food4.png"" style=""width:200px; border:14px solid green;"">","null","","","","","","","","","",""
"","image-keyboard-response","290","138002","0.0-380.0","30ZX6P7VF9HPC7LBZAI2QLXMYQ0J2N","A2LKGF193ZR5JP","3KTZHH2ONI1ODAVRRMZTRL6IHCUM80","","312.59999990463257","img/food2.png","76","313.60000014305115","3","1","","2","1","1,0.7,0,1,0.7,0,0.7,0,1","0.7,0,1,0.7,0,1,0,1,0.7","2",""
"","html-keyboard-response","291","138304","0.0-381.0","30ZX6P7VF9HPC7LBZAI2QLXMYQ0J2N","A2LKGF193ZR5JP","3KTZHH2ONI1ODAVRRMZTRL6IHCUM80","","null","<img src=""img/food2.png"" style=""width:200px; border:14px solid green;"">","null","","","","","","","","","",""
"","image-keyboard-response","292","138513","0.0-382.0","30ZX6P7VF9HPC7LBZAI2QLXMYQ0J2N","A2LKGF193ZR5JP","3KTZHH2ONI1ODAVRRMZTRL6IHCUM80","","209","img/food4.png","76","209.70000004768372","3","1","","1","1","1,0.7,0,1,0.7,0,0.7,0,1","0.7,0,1,0.7,0,1,0,1,0.7","2",""
"","html-keyboard-response","293","138816","0.0-383.0","30ZX6P7VF9HPC7LBZAI2QLXMYQ0J2N","A2LKGF193ZR5JP","3KTZHH2ONI1ODAVRRMZTRL6IHCUM80","","null","<img src=""img/food4.png"" style=""width:200px; border:14px solid green;"">","null","","","","","","","","","",""
"","image-keyboard-response","294","139019","0.0-384.0","30ZX6P7VF9HPC7LBZAI2QLXMYQ0J2N","A2LKGF193ZR5JP","3KTZHH2ONI1ODAVRRMZTRL6IHCUM80","","202.5","img/food5.png","76","203.20000004768372","3","1","","3","1","1,0.7,0,1,0.7,0,0.7,0,1","0.7,0,1,0.7,0,1,0,1,0.7","2",""
"","html-keyboard-response","295","139321","0.0-385.0","30ZX6P7VF9HPC7LBZAI2QLXMYQ0J2N","A2LKGF193ZR5JP","3KTZHH2ONI1ODAVRRMZTRL6IHCUM80","","null","<img src=""img/food5.png"" style=""width:200px; border:14px solid green;"">","null","","","","","","","","","",""
"","image-keyboard-response","296","139491","0.0-386.0","30ZX6P7VF9HPC7LBZAI2QLXMYQ0J2N","A2LKGF193ZR5JP","3KTZHH2ONI1ODAVRRMZTRL6IHCUM80","","169","img/food4.png","76","169.79999995231628","3","1","","1","1","1,0.7,0,1,0.7,0,0.7,0,1","0.7,0,1,0.7,0,1,0,1,0.7","2",""
"","html-keyboard-response","297","139793","0.0-387.0","30ZX6P7VF9HPC7LBZAI2QLXMYQ0J2N","A2LKGF193ZR5JP","3KTZHH2ONI1ODAVRRMZTRL6IHCUM80","","null","<img src=""img/food4.png"" style=""width:200px; border:14px solid green;"">","null","","","","","","","","","",""
"","image-keyboard-response","298","139932","0.0-388.0","30ZX6P7VF9HPC7LBZAI2QLXMYQ0J2N","A2LKGF193ZR5JP","3KTZHH2ONI1ODAVRRMZTRL6IHCUM80","","138.29999995231628","img/food5.png","76","138.90000009536743","3","1","","3","1","1,0.7,0,1,0.7,0,0.7,0,1","0.7,0,1,0.7,0,1,0,1,0.7","2",""
"","html-keyboard-response","299","140233","0.0-389.0","30ZX6P7VF9HPC7LBZAI2QLXMYQ0J2N","A2LKGF193ZR5JP","3KTZHH2ONI1ODAVRRMZTRL6IHCUM80","","null","<img src=""img/food5.png"" style=""width:200px; border:14px solid green;"">","null","","","","","","","","","",""
"","image-keyboard-response","300","140370","0.0-390.0","30ZX6P7VF9HPC7LBZAI2QLXMYQ0J2N","A2LKGF193ZR5JP","3KTZHH2ONI1ODAVRRMZTRL6IHCUM80","","136","img/food2.png","76","136.70000004768372","3","1","","2","1","1,0.7,0,1,0.7,0,0.7,0,1","0.7,0,1,0.7,0,1,0,1,0.7","2",""
"","html-keyboard-response","301","140672","0.0-391.0","30ZX6P7VF9HPC7LBZAI2QLXMYQ0J2N","A2LKGF193ZR5JP","3KTZHH2ONI1ODAVRRMZTRL6IHCUM80","","null","<img src=""img/food2.png"" style=""width:200px; border:14px solid green;"">","null","","","","","","","","","",""
"","image-keyboard-response","302","140787","0.0-392.0","30ZX6P7VF9HPC7LBZAI2QLXMYQ0J2N","A2LKGF193ZR5JP","3KTZHH2ONI1ODAVRRMZTRL6IHCUM80","","114.10000014305115","img/food4.png","76","115","3","1","","1","1","1,0.7,0,1,0.7,0,0.7,0,1","0.7,0,1,0.7,0,1,0,1,0.7","2",""
"","html-keyboard-response","303","141089","0.0-393.0","30ZX6P7VF9HPC7LBZAI2QLXMYQ0J2N","A2LKGF193ZR5JP","3KTZHH2ONI1ODAVRRMZTRL6IHCUM80","","null","<img src=""img/food4.png"" style=""width:200px; border:14px solid green;"">","null","","","","","","","","","",""
"","image-keyboard-response","304","141196","0.0-394.0","30ZX6P7VF9HPC7LBZAI2QLXMYQ0J2N","A2LKGF193ZR5JP","3KTZHH2ONI1ODAVRRMZTRL6IHCUM80","","106","img/food4.png","76","106.80000019073486","3","1","","1","1","1,0.7,0,1,0.7,0,0.7,0,1","0.7,0,1,0.7,0,1,0,1,0.7","2",""
"","html-keyboard-response","305","141498","0.0-395.0","30ZX6P7VF9HPC7LBZAI2QLXMYQ0J2N","A2LKGF193ZR5JP","3KTZHH2ONI1ODAVRRMZTRL6IHCUM80","","null","<img src=""img/food4.png"" style=""width:200px; border:14px solid green;"">","null","","","","","","","","","",""
"","image-keyboard-response","306","141603","0.0-396.0","30ZX6P7VF9HPC7LBZAI2QLXMYQ0J2N","A2LKGF193ZR5JP","3KTZHH2ONI1ODAVRRMZTRL6IHCUM80","","104.19999980926514","img/food4.png","76","105.09999990463257","3","1","","1","1","1,0.7,0,1,0.7,0,0.7,0,1","0.7,0,1,0.7,0,1,0,1,0.7","2",""
"","html-keyboard-response","307","141904","0.0-397.0","30ZX6P7VF9HPC7LBZAI2QLXMYQ0J2N","A2LKGF193ZR5JP","3KTZHH2ONI1ODAVRRMZTRL6IHCUM80","","null","<img src=""img/food4.png"" style=""width:200px; border:14px solid green;"">","null","","","","","","","","","",""
"","image-keyboard-response","308","141932","0.0-398.0","30ZX6P7VF9HPC7LBZAI2QLXMYQ0J2N","A2LKGF193ZR5JP","3KTZHH2ONI1ODAVRRMZTRL6IHCUM80","","26.700000047683716","img/food2.png","76","27.40000009536743","3","1","","2","1","1,0.7,0,1,0.7,0,0.7,0,1","0.7,0,1,0.7,0,1,0,1,0.7","2",""
"","html-keyboard-response","309","142234","0.0-399.0","30ZX6P7VF9HPC7LBZAI2QLXMYQ0J2N","A2LKGF193ZR5JP","3KTZHH2ONI1ODAVRRMZTRL6IHCUM80","","null","<img src=""img/food2.png"" style=""width:200px; border:14px solid green;"">","null","","","","","","","","","",""
"","image-keyboard-response","310","142554","0.0-400.0","30ZX6P7VF9HPC7LBZAI2QLXMYQ0J2N","A2LKGF193ZR5JP","3KTZHH2ONI1ODAVRRMZTRL6IHCUM80","","318.89999985694885","img/food4.png","76","319.89999985694885","3","1","","1","1","1,0.7,0,1,0.7,0,0.7,0,1","0.7,0,1,0.7,0,1,0,1,0.7","2",""
"","html-keyboard-response","311","142856","0.0-401.0","30ZX6P7VF9HPC7LBZAI2QLXMYQ0J2N","A2LKGF193ZR5JP","3KTZHH2ONI1ODAVRRMZTRL6IHCUM80","","null","<img src=""img/food4.png"" style=""width:200px; border:14px solid green;"">","null","","","","","","","","","",""
"","image-keyboard-response","312","142946","0.0-402.0","30ZX6P7VF9HPC7LBZAI2QLXMYQ0J2N","A2LKGF193ZR5JP","3KTZHH2ONI1ODAVRRMZTRL6IHCUM80","","88.79999995231628","img/food4.png","76","89.70000004768372","3","1","","1","1","1,0.7,0,1,0.7,0,0.7,0,1","0.7,0,1,0.7,0,1,0,1,0.7","2",""
"","html-keyboard-response","313","143247","0.0-403.0","30ZX6P7VF9HPC7LBZAI2QLXMYQ0J2N","A2LKGF193ZR5JP","3KTZHH2ONI1ODAVRRMZTRL6IHCUM80","","null","<img src=""img/food4.png"" style=""width:200px; border:14px solid green;"">","null","","","","","","","","","",""
"","image-keyboard-response","314","143381","0.0-404.0","30ZX6P7VF9HPC7LBZAI2QLXMYQ0J2N","A2LKGF193ZR5JP","3KTZHH2ONI1ODAVRRMZTRL6IHCUM80","","132.89999985694885","img/food4.png","76","133.69999980926514","3","1","","1","1","1,0.7,0,1,0.7,0,0.7,0,1","0.7,0,1,0.7,0,1,0,1,0.7","2",""
"","html-keyboard-response","315","143686","0.0-405.0","30ZX6P7VF9HPC7LBZAI2QLXMYQ0J2N","A2LKGF193ZR5JP","3KTZHH2ONI1ODAVRRMZTRL6IHCUM80","","null","<img src=""img/food4.png"" style=""width:200px; border:14px solid green;"">","null","","","","","","","","","",""
"","image-keyboard-response","316","143828","0.0-406.0","30ZX6P7VF9HPC7LBZAI2QLXMYQ0J2N","A2LKGF193ZR5JP","3KTZHH2ONI1ODAVRRMZTRL6IHCUM80","","141","img/food2.png","76","142.10000014305115","3","1","","2","1","1,0.7,0,1,0.7,0,0.7,0,1","0.7,0,1,0.7,0,1,0,1,0.7","2",""
"","html-keyboard-response","317","144130","0.0-407.0","30ZX6P7VF9HPC7LBZAI2QLXMYQ0J2N","A2LKGF193ZR5JP","3KTZHH2ONI1ODAVRRMZTRL6IHCUM80","","null","<img src=""img/food2.png"" style=""width:200px; border:14px solid green;"">","null","","","","","","","","","",""
"","image-keyboard-response","318","144332","0.0-408.0","30ZX6P7VF9HPC7LBZAI2QLXMYQ0J2N","A2LKGF193ZR5JP","3KTZHH2ONI1ODAVRRMZTRL6IHCUM80","","201.59999990463257","img/food2.png","76","202.29999995231628","3","1","","2","1","1,0.7,0,1,0.7,0,0.7,0,1","0.7,0,1,0.7,0,1,0,1,0.7","2",""
"","html-keyboard-response","319","144634","0.0-409.0","30ZX6P7VF9HPC7LBZAI2QLXMYQ0J2N","A2LKGF193ZR5JP","3KTZHH2ONI1ODAVRRMZTRL6IHCUM80","","null","<img src=""img/food2.png"" style=""width:200px; border:14px solid green;"">","null","","","","","","","","","",""
"","image-keyboard-response","320","144698","0.0-410.0","30ZX6P7VF9HPC7LBZAI2QLXMYQ0J2N","A2LKGF193ZR5JP","3KTZHH2ONI1ODAVRRMZTRL6IHCUM80","","63.39999985694885","img/food2.png","76","64","3","1","","2","1","1,0.7,0,1,0.7,0,0.7,0,1","0.7,0,1,0.7,0,1,0,1,0.7","2",""
"","html-keyboard-response","321","145000","0.0-411.0","30ZX6P7VF9HPC7LBZAI2QLXMYQ0J2N","A2LKGF193ZR5JP","3KTZHH2ONI1ODAVRRMZTRL6IHCUM80","","null","<img src=""img/food2.png"" style=""width:200px; border:14px solid green;"">","null","","","","","","","","","",""
"","image-keyboard-response","322","145151","0.0-412.0","30ZX6P7VF9HPC7LBZAI2QLXMYQ0J2N","A2LKGF193ZR5JP","3KTZHH2ONI1ODAVRRMZTRL6IHCUM80","","150.09999990463257","img/food5.png","76","150.70000004768372","3","1","","3","1","1,0.7,0,1,0.7,0,0.7,0,1","0.7,0,1,0.7,0,1,0,1,0.7","2",""
"","html-keyboard-response","323","145453","0.0-413.0","30ZX6P7VF9HPC7LBZAI2QLXMYQ0J2N","A2LKGF193ZR5JP","3KTZHH2ONI1ODAVRRMZTRL6IHCUM80","","null","<img src=""img/food5.png"" style=""width:200px; border:14px solid green;"">","null","","","","","","","","","",""
"","image-keyboard-response","324","145602","0.0-414.0","30ZX6P7VF9HPC7LBZAI2QLXMYQ0J2N","A2LKGF193ZR5JP","3KTZHH2ONI1ODAVRRMZTRL6IHCUM80","","148.59999990463257","img/food5.png","76","149.29999995231628","3","0","","3","1","1,0.7,0,1,0.7,0,0.7,0,1","0.7,0,1,0.7,0,1,0,1,0.7","2",""
"","html-keyboard-response","325","145905","0.0-415.0","30ZX6P7VF9HPC7LBZAI2QLXMYQ0J2N","A2LKGF193ZR5JP","3KTZHH2ONI1ODAVRRMZTRL6IHCUM80","","null","<img src=""img/food5.png"" style=""width:200px;border:14px solid red;"">","null","","","","","","","","","",""
"","image-keyboard-response","326","146302","0.0-416.0","30ZX6P7VF9HPC7LBZAI2QLXMYQ0J2N","A2LKGF193ZR5JP","3KTZHH2ONI1ODAVRRMZTRL6IHCUM80","","395.90000009536743","img/food5.png","75","396.7999999523163","2","1","","3","1","1,0.7,0,1,0.7,0,0.7,0,1","0.7,0,1,0.7,0,1,0,1,0.7","2",""
"","html-keyboard-response","327","146604","0.0-417.0","30ZX6P7VF9HPC7LBZAI2QLXMYQ0J2N","A2LKGF193ZR5JP","3KTZHH2ONI1ODAVRRMZTRL6IHCUM80","","null","<img src=""img/food5.png"" style=""width:200px; border:14px solid green;"">","null","","","","","","","","","",""
"","image-keyboard-response","328","146922","0.0-418.0","30ZX6P7VF9HPC7LBZAI2QLXMYQ0J2N","A2LKGF193ZR5JP","3KTZHH2ONI1ODAVRRMZTRL6IHCUM80","","316.7000000476837","img/food4.png","76","317.7999999523163","3","1","","1","1","1,0.7,0,1,0.7,0,0.7,0,1","0.7,0,1,0.7,0,1,0,1,0.7","2",""
"","html-keyboard-response","329","147224","0.0-419.0","30ZX6P7VF9HPC7LBZAI2QLXMYQ0J2N","A2LKGF193ZR5JP","3KTZHH2ONI1ODAVRRMZTRL6IHCUM80","","null","<img src=""img/food4.png"" style=""width:200px; border:14px solid green;"">","null","","","","","","","","","",""
"","image-keyboard-response","330","147458","0.0-420.0","30ZX6P7VF9HPC7LBZAI2QLXMYQ0J2N","A2LKGF193ZR5JP","3KTZHH2ONI1ODAVRRMZTRL6IHCUM80","","233","img/food5.png","76","233.70000004768372","3","0","","3","1","1,0.7,0,1,0.7,0,0.7,0,1","0.7,0,1,0.7,0,1,0,1,0.7","2",""
"","html-keyboard-response","331","147760","0.0-421.0","30ZX6P7VF9HPC7LBZAI2QLXMYQ0J2N","A2LKGF193ZR5JP","3KTZHH2ONI1ODAVRRMZTRL6IHCUM80","","null","<img src=""img/food5.png"" style=""width:200px;border:14px solid red;"">","null","","","","","","","","","",""
"","image-keyboard-response","332","148098","0.0-422.0","30ZX6P7VF9HPC7LBZAI2QLXMYQ0J2N","A2LKGF193ZR5JP","3KTZHH2ONI1ODAVRRMZTRL6IHCUM80","","337.60000014305115","img/food2.png","75","338.2999999523163","2","0","","2","1","1,0.7,0,1,0.7,0,0.7,0,1","0.7,0,1,0.7,0,1,0,1,0.7","2",""
"","html-keyboard-response","333","148400","0.0-423.0","30ZX6P7VF9HPC7LBZAI2QLXMYQ0J2N","A2LKGF193ZR5JP","3KTZHH2ONI1ODAVRRMZTRL6IHCUM80","","null","<img src=""img/food2.png"" style=""width:200px;border:14px solid red;"">","null","","","","","","","","","",""
"","image-keyboard-response","334","149058","0.0-424.0","30ZX6P7VF9HPC7LBZAI2QLXMYQ0J2N","A2LKGF193ZR5JP","3KTZHH2ONI1ODAVRRMZTRL6IHCUM80","","657.2000000476837","img/food5.png","76","658","3","0","","3","1","1,0.7,0,1,0.7,0,0.7,0,1","0.7,0,1,0.7,0,1,0,1,0.7","2",""
"","html-keyboard-response","335","149361","0.0-425.0","30ZX6P7VF9HPC7LBZAI2QLXMYQ0J2N","A2LKGF193ZR5JP","3KTZHH2ONI1ODAVRRMZTRL6IHCUM80","","null","<img src=""img/food5.png"" style=""width:200px;border:14px solid red;"">","null","","","","","","","","","",""
"","image-keyboard-response","336","149722","0.0-426.0","30ZX6P7VF9HPC7LBZAI2QLXMYQ0J2N","A2LKGF193ZR5JP","3KTZHH2ONI1ODAVRRMZTRL6IHCUM80","","360.2000000476837","img/food4.png","75","361","2","0","","1","1","1,0.7,0,1,0.7,0,0.7,0,1","0.7,0,1,0.7,0,1,0,1,0.7","2",""
"","html-keyboard-response","337","150024","0.0-427.0","30ZX6P7VF9HPC7LBZAI2QLXMYQ0J2N","A2LKGF193ZR5JP","3KTZHH2ONI1ODAVRRMZTRL6IHCUM80","","null","<img src=""img/food4.png"" style=""width:200px;border:14px solid red;"">","null","","","","","","","","","",""
"","image-keyboard-response","338","150386","0.0-428.0","30ZX6P7VF9HPC7LBZAI2QLXMYQ0J2N","A2LKGF193ZR5JP","3KTZHH2ONI1ODAVRRMZTRL6IHCUM80","","361.7000000476837","img/food4.png","74","362.40000009536743","1","1","","1","1","1,0.7,0,1,0.7,0,0.7,0,1","0.7,0,1,0.7,0,1,0,1,0.7","2",""
"","html-keyboard-response","339","150689","0.0-429.0","30ZX6P7VF9HPC7LBZAI2QLXMYQ0J2N","A2LKGF193ZR5JP","3KTZHH2ONI1ODAVRRMZTRL6IHCUM80","","null","<img src=""img/food4.png"" style=""width:200px; border:14px solid green;"">","null","","","","","","","","","",""
"","image-keyboard-response","340","151698","0.0-430.0","30ZX6P7VF9HPC7LBZAI2QLXMYQ0J2N","A2LKGF193ZR5JP","3KTZHH2ONI1ODAVRRMZTRL6IHCUM80","","1007.5","img/food5.png","75","1008.4000000953674","2","1","","3","1","1,0.7,0,1,0.7,0,0.7,0,1","0.7,0,1,0.7,0,1,0,1,0.7","2",""
"","html-keyboard-response","341","151999","0.0-431.0","30ZX6P7VF9HPC7LBZAI2QLXMYQ0J2N","A2LKGF193ZR5JP","3KTZHH2ONI1ODAVRRMZTRL6IHCUM80","","null","<img src=""img/food5.png"" style=""width:200px; border:14px solid green;"">","null","","","","","","","","","",""
"","image-keyboard-response","342","152234","0.0-432.0","30ZX6P7VF9HPC7LBZAI2QLXMYQ0J2N","A2LKGF193ZR5JP","3KTZHH2ONI1ODAVRRMZTRL6IHCUM80","","234","img/food5.png","75","234.79999995231628","2","1","","3","1","1,0.7,0,1,0.7,0,0.7,0,1","0.7,0,1,0.7,0,1,0,1,0.7","2",""
"","html-keyboard-response","343","152536","0.0-433.0","30ZX6P7VF9HPC7LBZAI2QLXMYQ0J2N","A2LKGF193ZR5JP","3KTZHH2ONI1ODAVRRMZTRL6IHCUM80","","null","<img src=""img/food5.png"" style=""width:200px; border:14px solid green;"">","null","","","","","","","","","",""
"","image-keyboard-response","344","152778","0.0-434.0","30ZX6P7VF9HPC7LBZAI2QLXMYQ0J2N","A2LKGF193ZR5JP","3KTZHH2ONI1ODAVRRMZTRL6IHCUM80","","241","img/food4.png","75","241.70000004768372","2","0","","1","1","1,0.7,0,1,0.7,0,0.7,0,1","0.7,0,1,0.7,0,1,0,1,0.7","2",""
"","html-keyboard-response","345","153080","0.0-435.0","30ZX6P7VF9HPC7LBZAI2QLXMYQ0J2N","A2LKGF193ZR5JP","3KTZHH2ONI1ODAVRRMZTRL6IHCUM80","","null","<img src=""img/food4.png"" style=""width:200px;border:14px solid red;"">","null","","","","","","","","","",""
"","image-keyboard-response","346","154027","0.0-436.0","30ZX6P7VF9HPC7LBZAI2QLXMYQ0J2N","A2LKGF193ZR5JP","3KTZHH2ONI1ODAVRRMZTRL6IHCUM80","","945.7000000476837","img/food2.png","76","946.2999999523163","3","1","","2","1","1,0.7,0,1,0.7,0,0.7,0,1","0.7,0,1,0.7,0,1,0,1,0.7","2",""
"","html-keyboard-response","347","154329","0.0-437.0","30ZX6P7VF9HPC7LBZAI2QLXMYQ0J2N","A2LKGF193ZR5JP","3KTZHH2ONI1ODAVRRMZTRL6IHCUM80","","null","<img src=""img/food2.png"" style=""width:200px; border:14px solid green;"">","null","","","","","","","","","",""
"","image-keyboard-response","348","154482","0.0-438.0","30ZX6P7VF9HPC7LBZAI2QLXMYQ0J2N","A2LKGF193ZR5JP","3KTZHH2ONI1ODAVRRMZTRL6IHCUM80","","152.59999990463257","img/food2.png","76","153.40000009536743","3","1","","2","1","1,0.7,0,1,0.7,0,0.7,0,1","0.7,0,1,0.7,0,1,0,1,0.7","2",""
"","html-keyboard-response","349","154784","0.0-439.0","30ZX6P7VF9HPC7LBZAI2QLXMYQ0J2N","A2LKGF193ZR5JP","3KTZHH2ONI1ODAVRRMZTRL6IHCUM80","","null","<img src=""img/food2.png"" style=""width:200px; border:14px solid green;"">","null","","","","","","","","","",""
"","image-keyboard-response","350","155038","0.0-440.0","30ZX6P7VF9HPC7LBZAI2QLXMYQ0J2N","A2LKGF193ZR5JP","3KTZHH2ONI1ODAVRRMZTRL6IHCUM80","","252.19999980926514","img/food5.png","76","253.09999990463257","3","1","","3","1","1,0.7,0,1,0.7,0,0.7,0,1","0.7,0,1,0.7,0,1,0,1,0.7","2",""
"","html-keyboard-response","351","155339","0.0-441.0","30ZX6P7VF9HPC7LBZAI2QLXMYQ0J2N","A2LKGF193ZR5JP","3KTZHH2ONI1ODAVRRMZTRL6IHCUM80","","null","<img src=""img/food5.png"" style=""width:200px; border:14px solid green;"">","null","","","","","","","","","",""
"","image-keyboard-response","352","155588","0.0-442.0","30ZX6P7VF9HPC7LBZAI2QLXMYQ0J2N","A2LKGF193ZR5JP","3KTZHH2ONI1ODAVRRMZTRL6IHCUM80","","247.70000004768372","img/food5.png","76","248.60000014305115","3","1","","3","1","1,0.7,0,1,0.7,0,0.7,0,1","0.7,0,1,0.7,0,1,0,1,0.7","2",""
"","html-keyboard-response","353","155889","0.0-443.0","30ZX6P7VF9HPC7LBZAI2QLXMYQ0J2N","A2LKGF193ZR5JP","3KTZHH2ONI1ODAVRRMZTRL6IHCUM80","","null","<img src=""img/food5.png"" style=""width:200px; border:14px solid green;"">","null","","","","","","","","","",""
"","image-keyboard-response","354","155971","0.0-444.0","30ZX6P7VF9HPC7LBZAI2QLXMYQ0J2N","A2LKGF193ZR5JP","3KTZHH2ONI1ODAVRRMZTRL6IHCUM80","","81.09999990463257","img/food4.png","76","81.79999995231628","3","1","","1","1","1,0.7,0,1,0.7,0,0.7,0,1","0.7,0,1,0.7,0,1,0,1,0.7","2",""
"","html-keyboard-response","355","156272","0.0-445.0","30ZX6P7VF9HPC7LBZAI2QLXMYQ0J2N","A2LKGF193ZR5JP","3KTZHH2ONI1ODAVRRMZTRL6IHCUM80","","null","<img src=""img/food4.png"" style=""width:200px; border:14px solid green;"">","null","","","","","","","","","",""
"","image-keyboard-response","356","156633","0.0-446.0","30ZX6P7VF9HPC7LBZAI2QLXMYQ0J2N","A2LKGF193ZR5JP","3KTZHH2ONI1ODAVRRMZTRL6IHCUM80","","360.5","img/food5.png","76","361.2999999523163","3","1","","3","1","1,0.7,0,1,0.7,0,0.7,0,1","0.7,0,1,0.7,0,1,0,1,0.7","2",""
"","html-keyboard-response","357","156936","0.0-447.0","30ZX6P7VF9HPC7LBZAI2QLXMYQ0J2N","A2LKGF193ZR5JP","3KTZHH2ONI1ODAVRRMZTRL6IHCUM80","","null","<img src=""img/food5.png"" style=""width:200px; border:14px solid green;"">","null","","","","","","","","","",""
"","image-keyboard-response","358","157138","0.0-448.0","30ZX6P7VF9HPC7LBZAI2QLXMYQ0J2N","A2LKGF193ZR5JP","3KTZHH2ONI1ODAVRRMZTRL6IHCUM80","","201.40000009536743","img/food5.png","76","202.29999995231628","3","1","","3","1","1,0.7,0,1,0.7,0,0.7,0,1","0.7,0,1,0.7,0,1,0,1,0.7","2",""
"","html-keyboard-response","359","157441","0.0-449.0","30ZX6P7VF9HPC7LBZAI2QLXMYQ0J2N","A2LKGF193ZR5JP","3KTZHH2ONI1ODAVRRMZTRL6IHCUM80","","null","<img src=""img/food5.png"" style=""width:200px; border:14px solid green;"">","null","","","","","","","","","",""
"","image-keyboard-response","360","157626","0.0-450.0","30ZX6P7VF9HPC7LBZAI2QLXMYQ0J2N","A2LKGF193ZR5JP","3KTZHH2ONI1ODAVRRMZTRL6IHCUM80","","183.90000009536743","img/food4.png","76","184.70000004768372","3","1","","1","1","1,0.7,0,1,0.7,0,0.7,0,1","0.7,0,1,0.7,0,1,0,1,0.7","2",""
"","html-keyboard-response","361","157927","0.0-451.0","30ZX6P7VF9HPC7LBZAI2QLXMYQ0J2N","A2LKGF193ZR5JP","3KTZHH2ONI1ODAVRRMZTRL6IHCUM80","","null","<img src=""img/food4.png"" style=""width:200px; border:14px solid green;"">","null","","","","","","","","","",""
"","image-keyboard-response","362","158121","0.0-452.0","30ZX6P7VF9HPC7LBZAI2QLXMYQ0J2N","A2LKGF193ZR5JP","3KTZHH2ONI1ODAVRRMZTRL6IHCUM80","","193.20000004768372","img/food2.png","76","193.79999995231628","3","1","","2","1","1,0.7,0,1,0.7,0,0.7,0,1","0.7,0,1,0.7,0,1,0,1,0.7","2",""
"","html-keyboard-response","363","158423","0.0-453.0","30ZX6P7VF9HPC7LBZAI2QLXMYQ0J2N","A2LKGF193ZR5JP","3KTZHH2ONI1ODAVRRMZTRL6IHCUM80","","null","<img src=""img/food2.png"" style=""width:200px; border:14px solid green;"">","null","","","","","","","","","",""
"","html-keyboard-response","364","160752","0.0-454.0","30ZX6P7VF9HPC7LBZAI2QLXMYQ0J2N","A2LKGF193ZR5JP","3KTZHH2ONI1ODAVRRMZTRL6IHCUM80","","","","","","","","","","","","","",""
"","instructions","365","163794","0.0-455.0","30ZX6P7VF9HPC7LBZAI2QLXMYQ0J2N","A2LKGF193ZR5JP","3KTZHH2ONI1ODAVRRMZTRL6IHCUM80","[{""page_index"":0,""viewing_time"":3041.4000000953674}]","3041.5","","","","","","","","","","","",""
"","survey-text","366","175573","0.0-456.0","30ZX6P7VF9HPC7LBZAI2QLXMYQ0J2N","A2LKGF193ZR5JP","3KTZHH2ONI1ODAVRRMZTRL6IHCUM80","","11775.399999856949","","","","","","","","","","","","{""Q0"":""A2LKGF193ZR5JP""}"
