"success","trial_type","trial_index","time_elapsed","internal_node_id","assignmentID","mturkID","hitID","view_history","rt","stimulus","key_press","reactionTime","a","r","warning","s","cond","reward_cond","reward_cond_actual","reward_matrix_idx","responses"
"true","fullscreen","0","4730","0.0-0.0","326O153BMJK441XZIYRSPOBYRKFEDF","A2M2U7XUBA4CAN","3UUIU9GZC5R93N292LT21FRJ9VS5TN","","","","","","","","","","","","","",""
"","instructions","1","11915","0.0-1.0","326O153BMJK441XZIYRSPOBYRKFEDF","A2M2U7XUBA4CAN","3UUIU9GZC5R93N292LT21FRJ9VS5TN","[{""page_index"":0,""viewing_time"":1193.699999988079},{""page_index"":1,""viewing_time"":1100},{""page_index"":2,""viewing_time"":459.80000001192093},{""page_index"":3,""viewing_time"":2156.899999976158},{""page_index"":4,""viewing_time"":1200.1000000238419},{""page_index"":5,""viewing_time"":530},{""page_index"":6,""viewing_time"":543.1999999880791}]","7184","","","","","","","","","","","",""
"","instructions","2","17344","0.0-2.0","326O153BMJK441XZIYRSPOBYRKFEDF","A2M2U7XUBA4CAN","3UUIU9GZC5R93N292LT21FRJ9VS5TN","[{""page_index"":0,""viewing_time"":1180},{""page_index"":1,""viewing_time"":1217.8999999761581},{""page_index"":0,""viewing_time"":2423.899999976158},{""page_index"":1,""viewing_time"":605.8000000119209}]","5427.899999976158","","","","","","","","","","","",""
"","image-keyboard-response","3","17726","0.0-3.0","326O153BMJK441XZIYRSPOBYRKFEDF","A2M2U7XUBA4CAN","3UUIU9GZC5R93N292LT21FRJ9VS5TN","","380.69999998807907","img/food1.png","76","381.5","3","1","false","3","2","1,0.5,0,1,0.5,0,0.5,0,1","1,0.5,0,1,0.5,0,0.5,0,1","1",""
"","html-keyboard-response","4","18029","0.0-4.0","326O153BMJK441XZIYRSPOBYRKFEDF","A2M2U7XUBA4CAN","3UUIU9GZC5R93N292LT21FRJ9VS5TN","","null","<img src=""img/food1.png"" style=""width:200px; border:14px solid green;"">","null","","","","","","","","","",""
"","image-keyboard-response","5","18213","0.0-6.0","326O153BMJK441XZIYRSPOBYRKFEDF","A2M2U7XUBA4CAN","3UUIU9GZC5R93N292LT21FRJ9VS5TN","","182.9000000357628","img/food1.png","76","183.70000004768372","3","1","false","3","2","1,0.5,0,1,0.5,0,0.5,0,1","1,0.5,0,1,0.5,0,0.5,0,1","1",""
"","html-keyboard-response","6","18526","0.0-7.0","326O153BMJK441XZIYRSPOBYRKFEDF","A2M2U7XUBA4CAN","3UUIU9GZC5R93N292LT21FRJ9VS5TN","","null","<img src=""img/food1.png"" style=""width:200px; border:14px solid green;"">","null","","","","","","","","","",""
"","image-keyboard-response","7","18621","0.0-9.0","326O153BMJK441XZIYRSPOBYRKFEDF","A2M2U7XUBA4CAN","3UUIU9GZC5R93N292LT21FRJ9VS5TN","","94","img/food6.png","76","94.69999998807907","3","0","false","2","2","1,0.5,0,1,0.5,0,0.5,0,1","1,0.5,0,1,0.5,0,0.5,0,1","1",""
"","html-keyboard-response","8","18925","0.0-10.0","326O153BMJK441XZIYRSPOBYRKFEDF","A2M2U7XUBA4CAN","3UUIU9GZC5R93N292LT21FRJ9VS5TN","","null","<img src=""img/food6.png"" style=""width:200px;border:14px solid red;"">","null","","","","","","","","","",""
"","image-keyboard-response","9","18949","0.0-12.0","326O153BMJK441XZIYRSPOBYRKFEDF","A2M2U7XUBA4CAN","3UUIU9GZC5R93N292LT21FRJ9VS5TN","","23.399999976158142","img/food6.png","76","23.900000035762787","3","0","false","2","2","1,0.5,0,1,0.5,0,0.5,0,1","1,0.5,0,1,0.5,0,0.5,0,1","1",""
"","html-keyboard-response","10","19264","0.0-13.0","326O153BMJK441XZIYRSPOBYRKFEDF","A2M2U7XUBA4CAN","3UUIU9GZC5R93N292LT21FRJ9VS5TN","","null","<img src=""img/food6.png"" style=""width:200px;border:14px solid red;"">","null","","","","","","","","","",""
"","image-keyboard-response","11","19293","0.0-15.0","326O153BMJK441XZIYRSPOBYRKFEDF","A2M2U7XUBA4CAN","3UUIU9GZC5R93N292LT21FRJ9VS5TN","","28.899999976158142","img/food1.png","74","29.399999976158142","1","0","false","3","2","1,0.5,0,1,0.5,0,0.5,0,1","1,0.5,0,1,0.5,0,0.5,0,1","1",""
"","html-keyboard-response","12","19607","0.0-16.0","326O153BMJK441XZIYRSPOBYRKFEDF","A2M2U7XUBA4CAN","3UUIU9GZC5R93N292LT21FRJ9VS5TN","","null","<img src=""img/food1.png"" style=""width:200px;border:14px solid red;"">","null","","","","","","","","","",""
"","image-keyboard-response","13","19741","0.0-18.0","326O153BMJK441XZIYRSPOBYRKFEDF","A2M2U7XUBA4CAN","3UUIU9GZC5R93N292LT21FRJ9VS5TN","","133.80000001192093","img/food6.png","74","134.5","1","1","false","2","2","1,0.5,0,1,0.5,0,0.5,0,1","1,0.5,0,1,0.5,0,0.5,0,1","1",""
"","html-keyboard-response","14","20049","0.0-19.0","326O153BMJK441XZIYRSPOBYRKFEDF","A2M2U7XUBA4CAN","3UUIU9GZC5R93N292LT21FRJ9VS5TN","","null","<img src=""img/food6.png"" style=""width:200px; border:14px solid green;"">","null","","","","","","","","","",""
"","image-keyboard-response","15","20093","0.0-21.0","326O153BMJK441XZIYRSPOBYRKFEDF","A2M2U7XUBA4CAN","3UUIU9GZC5R93N292LT21FRJ9VS5TN","","43.30000001192093","img/food1.png","76","43.700000047683716","3","1","false","3","2","1,0.5,0,1,0.5,0,0.5,0,1","1,0.5,0,1,0.5,0,0.5,0,1","1",""
"","html-keyboard-response","16","20409","0.0-22.0","326O153BMJK441XZIYRSPOBYRKFEDF","A2M2U7XUBA4CAN","3UUIU9GZC5R93N292LT21FRJ9VS5TN","","null","<img src=""img/food1.png"" style=""width:200px; border:14px solid green;"">","null","","","","","","","","","",""
"","image-keyboard-response","17","20605","0.0-24.0","326O153BMJK441XZIYRSPOBYRKFEDF","A2M2U7XUBA4CAN","3UUIU9GZC5R93N292LT21FRJ9VS5TN","","195.5","img/food2.png","76","196.29999995231628","3","0","false","1","2","1,0.5,0,1,0.5,0,0.5,0,1","1,0.5,0,1,0.5,0,0.5,0,1","1",""
"","html-keyboard-response","18","20908","0.0-25.0","326O153BMJK441XZIYRSPOBYRKFEDF","A2M2U7XUBA4CAN","3UUIU9GZC5R93N292LT21FRJ9VS5TN","","null","<img src=""img/food2.png"" style=""width:200px;border:14px solid red;"">","null","","","","","","","","","",""
"","image-keyboard-response","19","21021","0.0-27.0","326O153BMJK441XZIYRSPOBYRKFEDF","A2M2U7XUBA4CAN","3UUIU9GZC5R93N292LT21FRJ9VS5TN","","112.30000001192093","img/food2.png","74","113","1","1","false","1","2","1,0.5,0,1,0.5,0,0.5,0,1","1,0.5,0,1,0.5,0,0.5,0,1","1",""
"","html-keyboard-response","20","21325","0.0-28.0","326O153BMJK441XZIYRSPOBYRKFEDF","A2M2U7XUBA4CAN","3UUIU9GZC5R93N292LT21FRJ9VS5TN","","null","<img src=""img/food2.png"" style=""width:200px; border:14px solid green;"">","null","","","","","","","","","",""
"","image-keyboard-response","21","21341","0.0-30.0","326O153BMJK441XZIYRSPOBYRKFEDF","A2M2U7XUBA4CAN","3UUIU9GZC5R93N292LT21FRJ9VS5TN","","15.100000023841858","img/food6.png","74","15.900000035762787","1","1","false","2","2","1,0.5,0,1,0.5,0,0.5,0,1","1,0.5,0,1,0.5,0,0.5,0,1","1",""
"","html-keyboard-response","22","21643","0.0-31.0","326O153BMJK441XZIYRSPOBYRKFEDF","A2M2U7XUBA4CAN","3UUIU9GZC5R93N292LT21FRJ9VS5TN","","null","<img src=""img/food6.png"" style=""width:200px; border:14px solid green;"">","null","","","","","","","","","",""
"","image-keyboard-response","23","21645","0.0-33.0","326O153BMJK441XZIYRSPOBYRKFEDF","A2M2U7XUBA4CAN","3UUIU9GZC5R93N292LT21FRJ9VS5TN","","1.5","img/food6.png","75","2.100000023841858","2","1","false","2","2","1,0.5,0,1,0.5,0,0.5,0,1","1,0.5,0,1,0.5,0,0.5,0,1","1",""
"","html-keyboard-response","24","21953","0.0-34.0","326O153BMJK441XZIYRSPOBYRKFEDF","A2M2U7XUBA4CAN","3UUIU9GZC5R93N292LT21FRJ9VS5TN","","null","<img src=""img/food6.png"" style=""width:200px; border:14px solid green;"">","null","","","","","","","","","",""
"","image-keyboard-response","25","22021","0.0-36.0","326O153BMJK441XZIYRSPOBYRKFEDF","A2M2U7XUBA4CAN","3UUIU9GZC5R93N292LT21FRJ9VS5TN","","67.60000002384186","img/food6.png","76","68.30000001192093","3","0","false","2","2","1,0.5,0,1,0.5,0,0.5,0,1","1,0.5,0,1,0.5,0,0.5,0,1","1",""
"","html-keyboard-response","26","22331","0.0-37.0","326O153BMJK441XZIYRSPOBYRKFEDF","A2M2U7XUBA4CAN","3UUIU9GZC5R93N292LT21FRJ9VS5TN","","null","<img src=""img/food6.png"" style=""width:200px;border:14px solid red;"">","null","","","","","","","","","",""
"","image-keyboard-response","27","22413","0.0-39.0","326O153BMJK441XZIYRSPOBYRKFEDF","A2M2U7XUBA4CAN","3UUIU9GZC5R93N292LT21FRJ9VS5TN","","81.30000001192093","img/food6.png","74","82.10000002384186","1","1","false","2","2","1,0.5,0,1,0.5,0,0.5,0,1","1,0.5,0,1,0.5,0,0.5,0,1","1",""
"","html-keyboard-response","28","22726","0.0-40.0","326O153BMJK441XZIYRSPOBYRKFEDF","A2M2U7XUBA4CAN","3UUIU9GZC5R93N292LT21FRJ9VS5TN","","null","<img src=""img/food6.png"" style=""width:200px; border:14px solid green;"">","null","","","","","","","","","",""
"","image-keyboard-response","29","22781","0.0-42.0","326O153BMJK441XZIYRSPOBYRKFEDF","A2M2U7XUBA4CAN","3UUIU9GZC5R93N292LT21FRJ9VS5TN","","55.09999996423721","img/food6.png","76","55.59999996423721","3","0","false","2","2","1,0.5,0,1,0.5,0,0.5,0,1","1,0.5,0,1,0.5,0,0.5,0,1","1",""
"","html-keyboard-response","30","23083","0.0-43.0","326O153BMJK441XZIYRSPOBYRKFEDF","A2M2U7XUBA4CAN","3UUIU9GZC5R93N292LT21FRJ9VS5TN","","null","<img src=""img/food6.png"" style=""width:200px;border:14px solid red;"">","null","","","","","","","","","",""
"","image-keyboard-response","31","23093","0.0-45.0","326O153BMJK441XZIYRSPOBYRKFEDF","A2M2U7XUBA4CAN","3UUIU9GZC5R93N292LT21FRJ9VS5TN","","9.100000023841858","img/food6.png","76","9.799999952316284","3","0","false","2","2","1,0.5,0,1,0.5,0,0.5,0,1","1,0.5,0,1,0.5,0,0.5,0,1","1",""
"","html-keyboard-response","32","23395","0.0-46.0","326O153BMJK441XZIYRSPOBYRKFEDF","A2M2U7XUBA4CAN","3UUIU9GZC5R93N292LT21FRJ9VS5TN","","null","<img src=""img/food6.png"" style=""width:200px;border:14px solid red;"">","null","","","","","","","","","",""
"","image-keyboard-response","33","23557","0.0-48.0","326O153BMJK441XZIYRSPOBYRKFEDF","A2M2U7XUBA4CAN","3UUIU9GZC5R93N292LT21FRJ9VS5TN","","161.69999998807907","img/food2.png","76","162.39999997615814","3","0","false","1","2","1,0.5,0,1,0.5,0,0.5,0,1","1,0.5,0,1,0.5,0,0.5,0,1","1",""
"","html-keyboard-response","34","23866","0.0-49.0","326O153BMJK441XZIYRSPOBYRKFEDF","A2M2U7XUBA4CAN","3UUIU9GZC5R93N292LT21FRJ9VS5TN","","null","<img src=""img/food2.png"" style=""width:200px;border:14px solid red;"">","null","","","","","","","","","",""
"","image-keyboard-response","35","23957","0.0-51.0","326O153BMJK441XZIYRSPOBYRKFEDF","A2M2U7XUBA4CAN","3UUIU9GZC5R93N292LT21FRJ9VS5TN","","90.5","img/food1.png","75","91.20000004768372","2","0","false","3","2","1,0.5,0,1,0.5,0,0.5,0,1","1,0.5,0,1,0.5,0,0.5,0,1","1",""
"","html-keyboard-response","36","24271","0.0-52.0","326O153BMJK441XZIYRSPOBYRKFEDF","A2M2U7XUBA4CAN","3UUIU9GZC5R93N292LT21FRJ9VS5TN","","null","<img src=""img/food1.png"" style=""width:200px;border:14px solid red;"">","null","","","","","","","","","",""
"","image-keyboard-response","37","24293","0.0-54.0","326O153BMJK441XZIYRSPOBYRKFEDF","A2M2U7XUBA4CAN","3UUIU9GZC5R93N292LT21FRJ9VS5TN","","21.099999964237213","img/food6.png","74","21.5","1","1","false","2","2","1,0.5,0,1,0.5,0,0.5,0,1","1,0.5,0,1,0.5,0,0.5,0,1","1",""
"","html-keyboard-response","38","24597","0.0-55.0","326O153BMJK441XZIYRSPOBYRKFEDF","A2M2U7XUBA4CAN","3UUIU9GZC5R93N292LT21FRJ9VS5TN","","null","<img src=""img/food6.png"" style=""width:200px; border:14px solid green;"">","null","","","","","","","","","",""
"","image-keyboard-response","39","24757","0.0-57.0","326O153BMJK441XZIYRSPOBYRKFEDF","A2M2U7XUBA4CAN","3UUIU9GZC5R93N292LT21FRJ9VS5TN","","159.29999995231628","img/food1.png","74","159.80000001192093","1","1","false","3","2","1,0.5,0,1,0.5,0,0.5,0,1","1,0.5,0,1,0.5,0,0.5,0,1","1",""
"","html-keyboard-response","40","25074","0.0-58.0","326O153BMJK441XZIYRSPOBYRKFEDF","A2M2U7XUBA4CAN","3UUIU9GZC5R93N292LT21FRJ9VS5TN","","null","<img src=""img/food1.png"" style=""width:200px; border:14px solid green;"">","null","","","","","","","","","",""
"","image-keyboard-response","41","25118","0.0-60.0","326O153BMJK441XZIYRSPOBYRKFEDF","A2M2U7XUBA4CAN","3UUIU9GZC5R93N292LT21FRJ9VS5TN","","42.80000001192093","img/food2.png","74","43.39999997615814","1","1","false","1","2","1,0.5,0,1,0.5,0,0.5,0,1","1,0.5,0,1,0.5,0,0.5,0,1","1",""
"","html-keyboard-response","42","25420","0.0-61.0","326O153BMJK441XZIYRSPOBYRKFEDF","A2M2U7XUBA4CAN","3UUIU9GZC5R93N292LT21FRJ9VS5TN","","null","<img src=""img/food2.png"" style=""width:200px; border:14px solid green;"">","null","","","","","","","","","",""
"","image-keyboard-response","43","25453","0.0-63.0","326O153BMJK441XZIYRSPOBYRKFEDF","A2M2U7XUBA4CAN","3UUIU9GZC5R93N292LT21FRJ9VS5TN","","32.19999998807907","img/food2.png","74","32.80000001192093","1","1","false","1","2","1,0.5,0,1,0.5,0,0.5,0,1","1,0.5,0,1,0.5,0,0.5,0,1","1",""
"","html-keyboard-response","44","25769","0.0-64.0","326O153BMJK441XZIYRSPOBYRKFEDF","A2M2U7XUBA4CAN","3UUIU9GZC5R93N292LT21FRJ9VS5TN","","null","<img src=""img/food2.png"" style=""width:200px; border:14px solid green;"">","null","","","","","","","","","",""
"","image-keyboard-response","45","25837","0.0-66.0","326O153BMJK441XZIYRSPOBYRKFEDF","A2M2U7XUBA4CAN","3UUIU9GZC5R93N292LT21FRJ9VS5TN","","67.69999998807907","img/food2.png","74","68.30000001192093","1","1","false","1","2","1,0.5,0,1,0.5,0,0.5,0,1","1,0.5,0,1,0.5,0,0.5,0,1","1",""
"","html-keyboard-response","46","26148","0.0-67.0","326O153BMJK441XZIYRSPOBYRKFEDF","A2M2U7XUBA4CAN","3UUIU9GZC5R93N292LT21FRJ9VS5TN","","null","<img src=""img/food2.png"" style=""width:200px; border:14px solid green;"">","null","","","","","","","","","",""
"","image-keyboard-response","47","26173","0.0-69.0","326O153BMJK441XZIYRSPOBYRKFEDF","A2M2U7XUBA4CAN","3UUIU9GZC5R93N292LT21FRJ9VS5TN","","24","img/food2.png","74","24.599999964237213","1","1","false","1","2","1,0.5,0,1,0.5,0,0.5,0,1","1,0.5,0,1,0.5,0,0.5,0,1","1",""
"","html-keyboard-response","48","26480","0.0-70.0","326O153BMJK441XZIYRSPOBYRKFEDF","A2M2U7XUBA4CAN","3UUIU9GZC5R93N292LT21FRJ9VS5TN","","null","<img src=""img/food2.png"" style=""width:200px; border:14px solid green;"">","null","","","","","","","","","",""
"","image-keyboard-response","49","26485","0.0-72.0","326O153BMJK441XZIYRSPOBYRKFEDF","A2M2U7XUBA4CAN","3UUIU9GZC5R93N292LT21FRJ9VS5TN","","4.199999988079071","img/food1.png","74","4.699999988079071","1","0","false","3","2","1,0.5,0,1,0.5,0,0.5,0,1","1,0.5,0,1,0.5,0,0.5,0,1","1",""
"","html-keyboard-response","50","26796","0.0-73.0","326O153BMJK441XZIYRSPOBYRKFEDF","A2M2U7XUBA4CAN","3UUIU9GZC5R93N292LT21FRJ9VS5TN","","null","<img src=""img/food1.png"" style=""width:200px;border:14px solid red;"">","null","","","","","","","","","",""
"","image-keyboard-response","51","26877","0.0-75.0","326O153BMJK441XZIYRSPOBYRKFEDF","A2M2U7XUBA4CAN","3UUIU9GZC5R93N292LT21FRJ9VS5TN","","80.80000001192093","img/food1.png","75","81.30000001192093","2","0","false","3","2","1,0.5,0,1,0.5,0,0.5,0,1","1,0.5,0,1,0.5,0,0.5,0,1","1",""
"","html-keyboard-response","52","27189","0.0-76.0","326O153BMJK441XZIYRSPOBYRKFEDF","A2M2U7XUBA4CAN","3UUIU9GZC5R93N292LT21FRJ9VS5TN","","null","<img src=""img/food1.png"" style=""width:200px;border:14px solid red;"">","null","","","","","","","","","",""
"","image-keyboard-response","53","27445","0.0-78.0","326O153BMJK441XZIYRSPOBYRKFEDF","A2M2U7XUBA4CAN","3UUIU9GZC5R93N292LT21FRJ9VS5TN","","255.60000002384186","img/food1.png","76","256.0999999642372","3","1","false","3","2","1,0.5,0,1,0.5,0,0.5,0,1","1,0.5,0,1,0.5,0,0.5,0,1","1",""
"","html-keyboard-response","54","27750","0.0-79.0","326O153BMJK441XZIYRSPOBYRKFEDF","A2M2U7XUBA4CAN","3UUIU9GZC5R93N292LT21FRJ9VS5TN","","null","<img src=""img/food1.png"" style=""width:200px; border:14px solid green;"">","null","","","","","","","","","",""
"","image-keyboard-response","55","27949","0.0-81.0","326O153BMJK441XZIYRSPOBYRKFEDF","A2M2U7XUBA4CAN","3UUIU9GZC5R93N292LT21FRJ9VS5TN","","198.70000004768372","img/food6.png","76","199.39999997615814","3","0","false","2","2","1,0.5,0,1,0.5,0,0.5,0,1","1,0.5,0,1,0.5,0,0.5,0,1","1",""
"","html-keyboard-response","56","28265","0.0-82.0","326O153BMJK441XZIYRSPOBYRKFEDF","A2M2U7XUBA4CAN","3UUIU9GZC5R93N292LT21FRJ9VS5TN","","null","<img src=""img/food6.png"" style=""width:200px;border:14px solid red;"">","null","","","","","","","","","",""
"","image-keyboard-response","57","28365","0.0-84.0","326O153BMJK441XZIYRSPOBYRKFEDF","A2M2U7XUBA4CAN","3UUIU9GZC5R93N292LT21FRJ9VS5TN","","99.5","img/food2.png","74","100.09999996423721","1","1","false","1","2","1,0.5,0,1,0.5,0,0.5,0,1","1,0.5,0,1,0.5,0,0.5,0,1","1",""
"","html-keyboard-response","58","28668","0.0-85.0","326O153BMJK441XZIYRSPOBYRKFEDF","A2M2U7XUBA4CAN","3UUIU9GZC5R93N292LT21FRJ9VS5TN","","null","<img src=""img/food2.png"" style=""width:200px; border:14px solid green;"">","null","","","","","","","","","",""
"","image-keyboard-response","59","28773","0.0-87.0","326O153BMJK441XZIYRSPOBYRKFEDF","A2M2U7XUBA4CAN","3UUIU9GZC5R93N292LT21FRJ9VS5TN","","104.5","img/food1.png","76","105.10000002384186","3","1","false","3","2","1,0.5,0,1,0.5,0,0.5,0,1","1,0.5,0,1,0.5,0,0.5,0,1","1",""
"","html-keyboard-response","60","29075","0.0-88.0","326O153BMJK441XZIYRSPOBYRKFEDF","A2M2U7XUBA4CAN","3UUIU9GZC5R93N292LT21FRJ9VS5TN","","null","<img src=""img/food1.png"" style=""width:200px; border:14px solid green;"">","null","","","","","","","","","",""
"","image-keyboard-response","61","29133","0.0-90.0","326O153BMJK441XZIYRSPOBYRKFEDF","A2M2U7XUBA4CAN","3UUIU9GZC5R93N292LT21FRJ9VS5TN","","57.69999998807907","img/food2.png","76","58.40000003576279","3","0","false","1","2","1,0.5,0,1,0.5,0,0.5,0,1","1,0.5,0,1,0.5,0,0.5,0,1","1",""
"","html-keyboard-response","62","29435","0.0-91.0","326O153BMJK441XZIYRSPOBYRKFEDF","A2M2U7XUBA4CAN","3UUIU9GZC5R93N292LT21FRJ9VS5TN","","null","<img src=""img/food2.png"" style=""width:200px;border:14px solid red;"">","null","","","","","","","","","",""
"","image-keyboard-response","63","29478","0.0-93.0","326O153BMJK441XZIYRSPOBYRKFEDF","A2M2U7XUBA4CAN","3UUIU9GZC5R93N292LT21FRJ9VS5TN","","41.89999997615814","img/food1.png","76","42.19999998807907","3","1","false","3","2","1,0.5,0,1,0.5,0,0.5,0,1","1,0.5,0,1,0.5,0,0.5,0,1","1",""
"","html-keyboard-response","64","29779","0.0-94.0","326O153BMJK441XZIYRSPOBYRKFEDF","A2M2U7XUBA4CAN","3UUIU9GZC5R93N292LT21FRJ9VS5TN","","null","<img src=""img/food1.png"" style=""width:200px; border:14px solid green;"">","null","","","","","","","","","",""
"","image-keyboard-response","65","29813","0.0-96.0","326O153BMJK441XZIYRSPOBYRKFEDF","A2M2U7XUBA4CAN","3UUIU9GZC5R93N292LT21FRJ9VS5TN","","33","img/food1.png","76","33.59999996423721","3","1","false","3","2","1,0.5,0,1,0.5,0,0.5,0,1","1,0.5,0,1,0.5,0,0.5,0,1","1",""
"","html-keyboard-response","66","30115","0.0-97.0","326O153BMJK441XZIYRSPOBYRKFEDF","A2M2U7XUBA4CAN","3UUIU9GZC5R93N292LT21FRJ9VS5TN","","null","<img src=""img/food1.png"" style=""width:200px; border:14px solid green;"">","null","","","","","","","","","",""
"","image-keyboard-response","67","30149","0.0-99.0","326O153BMJK441XZIYRSPOBYRKFEDF","A2M2U7XUBA4CAN","3UUIU9GZC5R93N292LT21FRJ9VS5TN","","33.59999996423721","img/food6.png","76","34.19999998807907","3","0","false","2","2","1,0.5,0,1,0.5,0,0.5,0,1","1,0.5,0,1,0.5,0,0.5,0,1","1",""
"","html-keyboard-response","68","30451","0.0-100.0","326O153BMJK441XZIYRSPOBYRKFEDF","A2M2U7XUBA4CAN","3UUIU9GZC5R93N292LT21FRJ9VS5TN","","null","<img src=""img/food6.png"" style=""width:200px;border:14px solid red;"">","null","","","","","","","","","",""
"","image-keyboard-response","69","30461","0.0-102.0","326O153BMJK441XZIYRSPOBYRKFEDF","A2M2U7XUBA4CAN","3UUIU9GZC5R93N292LT21FRJ9VS5TN","","9.800000011920929","img/food2.png","76","10.300000011920929","3","0","false","1","2","1,0.5,0,1,0.5,0,0.5,0,1","1,0.5,0,1,0.5,0,0.5,0,1","1",""
"","html-keyboard-response","70","30762","0.0-103.0","326O153BMJK441XZIYRSPOBYRKFEDF","A2M2U7XUBA4CAN","3UUIU9GZC5R93N292LT21FRJ9VS5TN","","null","<img src=""img/food2.png"" style=""width:200px;border:14px solid red;"">","null","","","","","","","","","",""
"","image-keyboard-response","71","30797","0.0-105.0","326O153BMJK441XZIYRSPOBYRKFEDF","A2M2U7XUBA4CAN","3UUIU9GZC5R93N292LT21FRJ9VS5TN","","34.60000002384186","img/food1.png","76","35","3","1","false","3","2","1,0.5,0,1,0.5,0,0.5,0,1","1,0.5,0,1,0.5,0,0.5,0,1","1",""
"","html-keyboard-response","72","31099","0.0-106.0","326O153BMJK441XZIYRSPOBYRKFEDF","A2M2U7XUBA4CAN","3UUIU9GZC5R93N292LT21FRJ9VS5TN","","null","<img src=""img/food1.png"" style=""width:200px; border:14px solid green;"">","null","","","","","","","","","",""
"","image-keyboard-response","73","31245","0.0-108.0","326O153BMJK441XZIYRSPOBYRKFEDF","A2M2U7XUBA4CAN","3UUIU9GZC5R93N292LT21FRJ9VS5TN","","145.10000002384186","img/food2.png","74","145.80000001192093","1","1","false","1","2","1,0.5,0,1,0.5,0,0.5,0,1","1,0.5,0,1,0.5,0,0.5,0,1","1",""
"","html-keyboard-response","74","31546","0.0-109.0","326O153BMJK441XZIYRSPOBYRKFEDF","A2M2U7XUBA4CAN","3UUIU9GZC5R93N292LT21FRJ9VS5TN","","null","<img src=""img/food2.png"" style=""width:200px; border:14px solid green;"">","null","","","","","","","","","",""
"","image-keyboard-response","75","31597","0.0-111.0","326O153BMJK441XZIYRSPOBYRKFEDF","A2M2U7XUBA4CAN","3UUIU9GZC5R93N292LT21FRJ9VS5TN","","50.5","img/food6.png","74","51.09999996423721","1","1","false","2","2","1,0.5,0,1,0.5,0,0.5,0,1","1,0.5,0,1,0.5,0,0.5,0,1","1",""
"","html-keyboard-response","76","31898","0.0-112.0","326O153BMJK441XZIYRSPOBYRKFEDF","A2M2U7XUBA4CAN","3UUIU9GZC5R93N292LT21FRJ9VS5TN","","null","<img src=""img/food6.png"" style=""width:200px; border:14px solid green;"">","null","","","","","","","","","",""
"","image-keyboard-response","77","31933","0.0-114.0","326O153BMJK441XZIYRSPOBYRKFEDF","A2M2U7XUBA4CAN","3UUIU9GZC5R93N292LT21FRJ9VS5TN","","34","img/food6.png","74","34.39999997615814","1","1","false","2","2","1,0.5,0,1,0.5,0,0.5,0,1","1,0.5,0,1,0.5,0,0.5,0,1","1",""
"","html-keyboard-response","78","32234","0.0-115.0","326O153BMJK441XZIYRSPOBYRKFEDF","A2M2U7XUBA4CAN","3UUIU9GZC5R93N292LT21FRJ9VS5TN","","null","<img src=""img/food6.png"" style=""width:200px; border:14px solid green;"">","null","","","","","","","","","",""
"","image-keyboard-response","79","32293","0.0-117.0","326O153BMJK441XZIYRSPOBYRKFEDF","A2M2U7XUBA4CAN","3UUIU9GZC5R93N292LT21FRJ9VS5TN","","58","img/food2.png","74","58.30000001192093","1","1","false","1","2","1,0.5,0,1,0.5,0,0.5,0,1","1,0.5,0,1,0.5,0,0.5,0,1","1",""
"","html-keyboard-response","80","32594","0.0-118.0","326O153BMJK441XZIYRSPOBYRKFEDF","A2M2U7XUBA4CAN","3UUIU9GZC5R93N292LT21FRJ9VS5TN","","null","<img src=""img/food2.png"" style=""width:200px; border:14px solid green;"">","null","","","","","","","","","",""
"","image-keyboard-response","81","32637","0.0-120.0","326O153BMJK441XZIYRSPOBYRKFEDF","A2M2U7XUBA4CAN","3UUIU9GZC5R93N292LT21FRJ9VS5TN","","42.5","img/food2.png","74","43.19999998807907","1","1","false","1","2","1,0.5,0,1,0.5,0,0.5,0,1","1,0.5,0,1,0.5,0,0.5,0,1","1",""
"","html-keyboard-response","82","32939","0.0-121.0","326O153BMJK441XZIYRSPOBYRKFEDF","A2M2U7XUBA4CAN","3UUIU9GZC5R93N292LT21FRJ9VS5TN","","null","<img src=""img/food2.png"" style=""width:200px; border:14px solid green;"">","null","","","","","","","","","",""
"","image-keyboard-response","83","33061","0.0-123.0","326O153BMJK441XZIYRSPOBYRKFEDF","A2M2U7XUBA4CAN","3UUIU9GZC5R93N292LT21FRJ9VS5TN","","121.5","img/food1.png","74","122.19999998807907","1","0","false","3","2","1,0.5,0,1,0.5,0,0.5,0,1","1,0.5,0,1,0.5,0,0.5,0,1","1",""
"","html-keyboard-response","84","33363","0.0-124.0","326O153BMJK441XZIYRSPOBYRKFEDF","A2M2U7XUBA4CAN","3UUIU9GZC5R93N292LT21FRJ9VS5TN","","null","<img src=""img/food1.png"" style=""width:200px;border:14px solid red;"">","null","","","","","","","","","",""
"","image-keyboard-response","85","33373","0.0-126.0","326O153BMJK441XZIYRSPOBYRKFEDF","A2M2U7XUBA4CAN","3UUIU9GZC5R93N292LT21FRJ9VS5TN","","9.899999976158142","img/food6.png","74","10.199999988079071","1","1","false","2","2","1,0.5,0,1,0.5,0,0.5,0,1","1,0.5,0,1,0.5,0,0.5,0,1","1",""
"","html-keyboard-response","86","33674","0.0-127.0","326O153BMJK441XZIYRSPOBYRKFEDF","A2M2U7XUBA4CAN","3UUIU9GZC5R93N292LT21FRJ9VS5TN","","null","<img src=""img/food6.png"" style=""width:200px; border:14px solid green;"">","null","","","","","","","","","",""
"","image-keyboard-response","87","33685","0.0-129.0","326O153BMJK441XZIYRSPOBYRKFEDF","A2M2U7XUBA4CAN","3UUIU9GZC5R93N292LT21FRJ9VS5TN","","10","img/food6.png","74","10.699999988079071","1","1","false","2","2","1,0.5,0,1,0.5,0,0.5,0,1","1,0.5,0,1,0.5,0,0.5,0,1","1",""
"","html-keyboard-response","88","33987","0.0-130.0","326O153BMJK441XZIYRSPOBYRKFEDF","A2M2U7XUBA4CAN","3UUIU9GZC5R93N292LT21FRJ9VS5TN","","null","<img src=""img/food6.png"" style=""width:200px; border:14px solid green;"">","null","","","","","","","","","",""
"","image-keyboard-response","89","34133","0.0-132.0","326O153BMJK441XZIYRSPOBYRKFEDF","A2M2U7XUBA4CAN","3UUIU9GZC5R93N292LT21FRJ9VS5TN","","145","img/food1.png","74","145.69999998807907","1","0","false","3","2","1,0.5,0,1,0.5,0,0.5,0,1","1,0.5,0,1,0.5,0,0.5,0,1","1",""
"","html-keyboard-response","90","34440","0.0-133.0","326O153BMJK441XZIYRSPOBYRKFEDF","A2M2U7XUBA4CAN","3UUIU9GZC5R93N292LT21FRJ9VS5TN","","null","<img src=""img/food1.png"" style=""width:200px;border:14px solid red;"">","null","","","","","","","","","",""
"","image-keyboard-response","91","34518","0.0-135.0","326O153BMJK441XZIYRSPOBYRKFEDF","A2M2U7XUBA4CAN","3UUIU9GZC5R93N292LT21FRJ9VS5TN","","76.90000003576279","img/food1.png","74","77.39999997615814","1","1","false","3","2","1,0.5,0,1,0.5,0,0.5,0,1","1,0.5,0,1,0.5,0,0.5,0,1","1",""
"","html-keyboard-response","92","34820","0.0-136.0","326O153BMJK441XZIYRSPOBYRKFEDF","A2M2U7XUBA4CAN","3UUIU9GZC5R93N292LT21FRJ9VS5TN","","null","<img src=""img/food1.png"" style=""width:200px; border:14px solid green;"">","null","","","","","","","","","",""
"","image-keyboard-response","93","34877","0.0-138.0","326O153BMJK441XZIYRSPOBYRKFEDF","A2M2U7XUBA4CAN","3UUIU9GZC5R93N292LT21FRJ9VS5TN","","57","img/food1.png","74","57.59999996423721","1","0","false","3","2","1,0.5,0,1,0.5,0,0.5,0,1","1,0.5,0,1,0.5,0,0.5,0,1","1",""
"","html-keyboard-response","94","35178","0.0-139.0","326O153BMJK441XZIYRSPOBYRKFEDF","A2M2U7XUBA4CAN","3UUIU9GZC5R93N292LT21FRJ9VS5TN","","null","<img src=""img/food1.png"" style=""width:200px;border:14px solid red;"">","null","","","","","","","","","",""
"","image-keyboard-response","95","35253","0.0-141.0","326O153BMJK441XZIYRSPOBYRKFEDF","A2M2U7XUBA4CAN","3UUIU9GZC5R93N292LT21FRJ9VS5TN","","73.69999998807907","img/food1.png","74","74.29999995231628","1","1","false","3","2","1,0.5,0,1,0.5,0,0.5,0,1","1,0.5,0,1,0.5,0,0.5,0,1","1",""
"","html-keyboard-response","96","35555","0.0-142.0","326O153BMJK441XZIYRSPOBYRKFEDF","A2M2U7XUBA4CAN","3UUIU9GZC5R93N292LT21FRJ9VS5TN","","null","<img src=""img/food1.png"" style=""width:200px; border:14px solid green;"">","null","","","","","","","","","",""
"","image-keyboard-response","97","35613","0.0-144.0","326O153BMJK441XZIYRSPOBYRKFEDF","A2M2U7XUBA4CAN","3UUIU9GZC5R93N292LT21FRJ9VS5TN","","57.80000001192093","img/food2.png","74","58.60000002384186","1","1","false","1","2","1,0.5,0,1,0.5,0,0.5,0,1","1,0.5,0,1,0.5,0,0.5,0,1","1",""
"","html-keyboard-response","98","35915","0.0-145.0","326O153BMJK441XZIYRSPOBYRKFEDF","A2M2U7XUBA4CAN","3UUIU9GZC5R93N292LT21FRJ9VS5TN","","null","<img src=""img/food2.png"" style=""width:200px; border:14px solid green;"">","null","","","","","","","","","",""
"","image-keyboard-response","99","35981","0.0-147.0","326O153BMJK441XZIYRSPOBYRKFEDF","A2M2U7XUBA4CAN","3UUIU9GZC5R93N292LT21FRJ9VS5TN","","65.30000001192093","img/food1.png","74","65.90000003576279","1","1","false","3","2","1,0.5,0,1,0.5,0,0.5,0,1","1,0.5,0,1,0.5,0,0.5,0,1","1",""
"","html-keyboard-response","100","36283","0.0-148.0","326O153BMJK441XZIYRSPOBYRKFEDF","A2M2U7XUBA4CAN","3UUIU9GZC5R93N292LT21FRJ9VS5TN","","null","<img src=""img/food1.png"" style=""width:200px; border:14px solid green;"">","null","","","","","","","","","",""
"","image-keyboard-response","101","36389","0.0-150.0","326O153BMJK441XZIYRSPOBYRKFEDF","A2M2U7XUBA4CAN","3UUIU9GZC5R93N292LT21FRJ9VS5TN","","105.70000004768372","img/food2.png","74","106.40000003576279","1","1","false","1","2","1,0.5,0,1,0.5,0,0.5,0,1","1,0.5,0,1,0.5,0,0.5,0,1","1",""
"","html-keyboard-response","102","36690","0.0-151.0","326O153BMJK441XZIYRSPOBYRKFEDF","A2M2U7XUBA4CAN","3UUIU9GZC5R93N292LT21FRJ9VS5TN","","null","<img src=""img/food2.png"" style=""width:200px; border:14px solid green;"">","null","","","","","","","","","",""
"","image-keyboard-response","103","36773","0.0-153.0","326O153BMJK441XZIYRSPOBYRKFEDF","A2M2U7XUBA4CAN","3UUIU9GZC5R93N292LT21FRJ9VS5TN","","82.19999998807907","img/food2.png","74","82.89999997615814","1","1","false","1","2","1,0.5,0,1,0.5,0,0.5,0,1","1,0.5,0,1,0.5,0,0.5,0,1","1",""
"","html-keyboard-response","104","37074","0.0-154.0","326O153BMJK441XZIYRSPOBYRKFEDF","A2M2U7XUBA4CAN","3UUIU9GZC5R93N292LT21FRJ9VS5TN","","null","<img src=""img/food2.png"" style=""width:200px; border:14px solid green;"">","null","","","","","","","","","",""
"","image-keyboard-response","105","37157","0.0-156.0","326O153BMJK441XZIYRSPOBYRKFEDF","A2M2U7XUBA4CAN","3UUIU9GZC5R93N292LT21FRJ9VS5TN","","81.79999995231628","img/food6.png","74","82.30000001192093","1","1","false","2","2","1,0.5,0,1,0.5,0,0.5,0,1","1,0.5,0,1,0.5,0,0.5,0,1","1",""
"","html-keyboard-response","106","37459","0.0-157.0","326O153BMJK441XZIYRSPOBYRKFEDF","A2M2U7XUBA4CAN","3UUIU9GZC5R93N292LT21FRJ9VS5TN","","null","<img src=""img/food6.png"" style=""width:200px; border:14px solid green;"">","null","","","","","","","","","",""
"","image-keyboard-response","107","37525","0.0-159.0","326O153BMJK441XZIYRSPOBYRKFEDF","A2M2U7XUBA4CAN","3UUIU9GZC5R93N292LT21FRJ9VS5TN","","65.89999997615814","img/food1.png","74","66.39999997615814","1","0","false","3","2","1,0.5,0,1,0.5,0,0.5,0,1","1,0.5,0,1,0.5,0,0.5,0,1","1",""
"","html-keyboard-response","108","37826","0.0-160.0","326O153BMJK441XZIYRSPOBYRKFEDF","A2M2U7XUBA4CAN","3UUIU9GZC5R93N292LT21FRJ9VS5TN","","null","<img src=""img/food1.png"" style=""width:200px;border:14px solid red;"">","null","","","","","","","","","",""
"","image-keyboard-response","109","37981","0.0-162.0","326O153BMJK441XZIYRSPOBYRKFEDF","A2M2U7XUBA4CAN","3UUIU9GZC5R93N292LT21FRJ9VS5TN","","153.80000001192093","img/food6.png","74","154.60000002384186","1","1","false","2","2","1,0.5,0,1,0.5,0,0.5,0,1","1,0.5,0,1,0.5,0,0.5,0,1","1",""
"","html-keyboard-response","110","38283","0.0-163.0","326O153BMJK441XZIYRSPOBYRKFEDF","A2M2U7XUBA4CAN","3UUIU9GZC5R93N292LT21FRJ9VS5TN","","null","<img src=""img/food6.png"" style=""width:200px; border:14px solid green;"">","null","","","","","","","","","",""
"","image-keyboard-response","111","38341","0.0-165.0","326O153BMJK441XZIYRSPOBYRKFEDF","A2M2U7XUBA4CAN","3UUIU9GZC5R93N292LT21FRJ9VS5TN","","57.19999998807907","img/food1.png","74","57.59999996423721","1","1","false","3","2","1,0.5,0,1,0.5,0,0.5,0,1","1,0.5,0,1,0.5,0,0.5,0,1","1",""
"","html-keyboard-response","112","38647","0.0-166.0","326O153BMJK441XZIYRSPOBYRKFEDF","A2M2U7XUBA4CAN","3UUIU9GZC5R93N292LT21FRJ9VS5TN","","null","<img src=""img/food1.png"" style=""width:200px; border:14px solid green;"">","null","","","","","","","","","",""
"","image-keyboard-response","113","38733","0.0-168.0","326O153BMJK441XZIYRSPOBYRKFEDF","A2M2U7XUBA4CAN","3UUIU9GZC5R93N292LT21FRJ9VS5TN","","85.5","img/food1.png","74","86.19999998807907","1","0","false","3","2","1,0.5,0,1,0.5,0,0.5,0,1","1,0.5,0,1,0.5,0,0.5,0,1","1",""
"","html-keyboard-response","114","39034","0.0-169.0","326O153BMJK441XZIYRSPOBYRKFEDF","A2M2U7XUBA4CAN","3UUIU9GZC5R93N292LT21FRJ9VS5TN","","null","<img src=""img/food1.png"" style=""width:200px;border:14px solid red;"">","null","","","","","","","","","",""
"","image-keyboard-response","115","39045","0.0-171.0","326O153BMJK441XZIYRSPOBYRKFEDF","A2M2U7XUBA4CAN","3UUIU9GZC5R93N292LT21FRJ9VS5TN","","10.300000011920929","img/food6.png","74","10.699999988079071","1","1","false","2","2","1,0.5,0,1,0.5,0,0.5,0,1","1,0.5,0,1,0.5,0,0.5,0,1","1",""
"","html-keyboard-response","116","39347","0.0-172.0","326O153BMJK441XZIYRSPOBYRKFEDF","A2M2U7XUBA4CAN","3UUIU9GZC5R93N292LT21FRJ9VS5TN","","null","<img src=""img/food6.png"" style=""width:200px; border:14px solid green;"">","null","","","","","","","","","",""
"","image-keyboard-response","117","39357","0.0-174.0","326O153BMJK441XZIYRSPOBYRKFEDF","A2M2U7XUBA4CAN","3UUIU9GZC5R93N292LT21FRJ9VS5TN","","8.800000011920929","img/food2.png","74","9.5","1","1","false","1","2","1,0.5,0,1,0.5,0,0.5,0,1","1,0.5,0,1,0.5,0,0.5,0,1","1",""
"","html-keyboard-response","118","39658","0.0-175.0","326O153BMJK441XZIYRSPOBYRKFEDF","A2M2U7XUBA4CAN","3UUIU9GZC5R93N292LT21FRJ9VS5TN","","null","<img src=""img/food2.png"" style=""width:200px; border:14px solid green;"">","null","","","","","","","","","",""
"","image-keyboard-response","119","39693","0.0-177.0","326O153BMJK441XZIYRSPOBYRKFEDF","A2M2U7XUBA4CAN","3UUIU9GZC5R93N292LT21FRJ9VS5TN","","34.39999997615814","img/food2.png","74","34.89999997615814","1","1","false","1","2","1,0.5,0,1,0.5,0,0.5,0,1","1,0.5,0,1,0.5,0,0.5,0,1","1",""
"","html-keyboard-response","120","39995","0.0-178.0","326O153BMJK441XZIYRSPOBYRKFEDF","A2M2U7XUBA4CAN","3UUIU9GZC5R93N292LT21FRJ9VS5TN","","null","<img src=""img/food2.png"" style=""width:200px; border:14px solid green;"">","null","","","","","","","","","",""
"","image-keyboard-response","121","40013","0.0-180.0","326O153BMJK441XZIYRSPOBYRKFEDF","A2M2U7XUBA4CAN","3UUIU9GZC5R93N292LT21FRJ9VS5TN","","17.69999998807907","img/food2.png","75","18.19999998807907","2","0","false","1","2","1,0.5,0,1,0.5,0,0.5,0,1","1,0.5,0,1,0.5,0,0.5,0,1","1",""
"","html-keyboard-response","122","40314","0.0-181.0","326O153BMJK441XZIYRSPOBYRKFEDF","A2M2U7XUBA4CAN","3UUIU9GZC5R93N292LT21FRJ9VS5TN","","null","<img src=""img/food2.png"" style=""width:200px;border:14px solid red;"">","null","","","","","","","","","",""
"","image-keyboard-response","123","40365","0.0-183.0","326O153BMJK441XZIYRSPOBYRKFEDF","A2M2U7XUBA4CAN","3UUIU9GZC5R93N292LT21FRJ9VS5TN","","50.40000003576279","img/food2.png","76","50.89999997615814","3","0","false","1","2","1,0.5,0,1,0.5,0,0.5,0,1","1,0.5,0,1,0.5,0,0.5,0,1","1",""
"","html-keyboard-response","124","40667","0.0-184.0","326O153BMJK441XZIYRSPOBYRKFEDF","A2M2U7XUBA4CAN","3UUIU9GZC5R93N292LT21FRJ9VS5TN","","null","<img src=""img/food2.png"" style=""width:200px;border:14px solid red;"">","null","","","","","","","","","",""
"","image-keyboard-response","125","40686","0.0-186.0","326O153BMJK441XZIYRSPOBYRKFEDF","A2M2U7XUBA4CAN","3UUIU9GZC5R93N292LT21FRJ9VS5TN","","18.099999964237213","img/food6.png","76","18.69999998807907","3","0","false","2","2","1,0.5,0,1,0.5,0,0.5,0,1","1,0.5,0,1,0.5,0,0.5,0,1","1",""
"","html-keyboard-response","126","40987","0.0-187.0","326O153BMJK441XZIYRSPOBYRKFEDF","A2M2U7XUBA4CAN","3UUIU9GZC5R93N292LT21FRJ9VS5TN","","null","<img src=""img/food6.png"" style=""width:200px;border:14px solid red;"">","null","","","","","","","","","",""
"","image-keyboard-response","127","41173","0.0-189.0","326O153BMJK441XZIYRSPOBYRKFEDF","A2M2U7XUBA4CAN","3UUIU9GZC5R93N292LT21FRJ9VS5TN","","185.5","img/food1.png","74","186.10000002384186","1","0","false","3","2","1,0.5,0,1,0.5,0,0.5,0,1","1,0.5,0,1,0.5,0,0.5,0,1","1",""
"","html-keyboard-response","128","41475","0.0-190.0","326O153BMJK441XZIYRSPOBYRKFEDF","A2M2U7XUBA4CAN","3UUIU9GZC5R93N292LT21FRJ9VS5TN","","null","<img src=""img/food1.png"" style=""width:200px;border:14px solid red;"">","null","","","","","","","","","",""
"","image-keyboard-response","129","41709","0.0-192.0","326O153BMJK441XZIYRSPOBYRKFEDF","A2M2U7XUBA4CAN","3UUIU9GZC5R93N292LT21FRJ9VS5TN","","233.5","img/food1.png","74","234.29999995231628","1","1","false","3","2","1,0.5,0,1,0.5,0,0.5,0,1","1,0.5,0,1,0.5,0,0.5,0,1","1",""
"","html-keyboard-response","130","42011","0.0-193.0","326O153BMJK441XZIYRSPOBYRKFEDF","A2M2U7XUBA4CAN","3UUIU9GZC5R93N292LT21FRJ9VS5TN","","null","<img src=""img/food1.png"" style=""width:200px; border:14px solid green;"">","null","","","","","","","","","",""
"","image-keyboard-response","131","42061","0.0-195.0","326O153BMJK441XZIYRSPOBYRKFEDF","A2M2U7XUBA4CAN","3UUIU9GZC5R93N292LT21FRJ9VS5TN","","49.19999998807907","img/food6.png","74","49.89999997615814","1","1","false","2","2","1,0.5,0,1,0.5,0,0.5,0,1","1,0.5,0,1,0.5,0,0.5,0,1","1",""
"","html-keyboard-response","132","42365","0.0-196.0","326O153BMJK441XZIYRSPOBYRKFEDF","A2M2U7XUBA4CAN","3UUIU9GZC5R93N292LT21FRJ9VS5TN","","null","<img src=""img/food6.png"" style=""width:200px; border:14px solid green;"">","null","","","","","","","","","",""
"","image-keyboard-response","133","42389","0.0-198.0","326O153BMJK441XZIYRSPOBYRKFEDF","A2M2U7XUBA4CAN","3UUIU9GZC5R93N292LT21FRJ9VS5TN","","23.099999964237213","img/food6.png","74","23.899999976158142","1","1","false","2","2","1,0.5,0,1,0.5,0,0.5,0,1","1,0.5,0,1,0.5,0,0.5,0,1","1",""
"","html-keyboard-response","134","42692","0.0-199.0","326O153BMJK441XZIYRSPOBYRKFEDF","A2M2U7XUBA4CAN","3UUIU9GZC5R93N292LT21FRJ9VS5TN","","null","<img src=""img/food6.png"" style=""width:200px; border:14px solid green;"">","null","","","","","","","","","",""
"","image-keyboard-response","135","42957","0.0-201.0","326O153BMJK441XZIYRSPOBYRKFEDF","A2M2U7XUBA4CAN","3UUIU9GZC5R93N292LT21FRJ9VS5TN","","265.10000002384186","img/food2.png","74","265.69999998807907","1","1","false","1","2","1,0.5,0,1,0.5,0,0.5,0,1","1,0.5,0,1,0.5,0,0.5,0,1","1",""
"","html-keyboard-response","136","43260","0.0-202.0","326O153BMJK441XZIYRSPOBYRKFEDF","A2M2U7XUBA4CAN","3UUIU9GZC5R93N292LT21FRJ9VS5TN","","null","<img src=""img/food2.png"" style=""width:200px; border:14px solid green;"">","null","","","","","","","","","",""
"","image-keyboard-response","137","43445","0.0-204.0","326O153BMJK441XZIYRSPOBYRKFEDF","A2M2U7XUBA4CAN","3UUIU9GZC5R93N292LT21FRJ9VS5TN","","184.10000002384186","img/food6.png","75","184.9000000357628","2","0","false","2","2","1,0.5,0,1,0.5,0,0.5,0,1","1,0.5,0,1,0.5,0,0.5,0,1","1",""
"","html-keyboard-response","138","43747","0.0-205.0","326O153BMJK441XZIYRSPOBYRKFEDF","A2M2U7XUBA4CAN","3UUIU9GZC5R93N292LT21FRJ9VS5TN","","null","<img src=""img/food6.png"" style=""width:200px;border:14px solid red;"">","null","","","","","","","","","",""
"","image-keyboard-response","139","43829","0.0-207.0","326O153BMJK441XZIYRSPOBYRKFEDF","A2M2U7XUBA4CAN","3UUIU9GZC5R93N292LT21FRJ9VS5TN","","81.5","img/food6.png","74","82.09999996423721","1","1","false","2","2","1,0.5,0,1,0.5,0,0.5,0,1","1,0.5,0,1,0.5,0,0.5,0,1","1",""
"","html-keyboard-response","140","44130","0.0-208.0","326O153BMJK441XZIYRSPOBYRKFEDF","A2M2U7XUBA4CAN","3UUIU9GZC5R93N292LT21FRJ9VS5TN","","null","<img src=""img/food6.png"" style=""width:200px; border:14px solid green;"">","null","","","","","","","","","",""
"","image-keyboard-response","141","44533","0.0-210.0","326O153BMJK441XZIYRSPOBYRKFEDF","A2M2U7XUBA4CAN","3UUIU9GZC5R93N292LT21FRJ9VS5TN","","402.30000001192093","img/food1.png","74","402.89999997615814","1","1","false","3","2","1,0.5,0,1,0.5,0,0.5,0,1","1,0.5,0,1,0.5,0,0.5,0,1","1",""
"","html-keyboard-response","142","44835","0.0-211.0","326O153BMJK441XZIYRSPOBYRKFEDF","A2M2U7XUBA4CAN","3UUIU9GZC5R93N292LT21FRJ9VS5TN","","null","<img src=""img/food1.png"" style=""width:200px; border:14px solid green;"">","null","","","","","","","","","",""
"","image-keyboard-response","143","44965","0.0-213.0","326O153BMJK441XZIYRSPOBYRKFEDF","A2M2U7XUBA4CAN","3UUIU9GZC5R93N292LT21FRJ9VS5TN","","129.5","img/food2.png","74","130.19999998807907","1","1","false","1","2","1,0.5,0,1,0.5,0,0.5,0,1","1,0.5,0,1,0.5,0,0.5,0,1","1",""
"","html-keyboard-response","144","45266","0.0-214.0","326O153BMJK441XZIYRSPOBYRKFEDF","A2M2U7XUBA4CAN","3UUIU9GZC5R93N292LT21FRJ9VS5TN","","null","<img src=""img/food2.png"" style=""width:200px; border:14px solid green;"">","null","","","","","","","","","",""
"","image-keyboard-response","145","45277","0.0-216.0","326O153BMJK441XZIYRSPOBYRKFEDF","A2M2U7XUBA4CAN","3UUIU9GZC5R93N292LT21FRJ9VS5TN","","10.399999976158142","img/food2.png","76","10.899999976158142","3","0","false","1","2","1,0.5,0,1,0.5,0,0.5,0,1","1,0.5,0,1,0.5,0,0.5,0,1","1",""
"","html-keyboard-response","146","45579","0.0-217.0","326O153BMJK441XZIYRSPOBYRKFEDF","A2M2U7XUBA4CAN","3UUIU9GZC5R93N292LT21FRJ9VS5TN","","null","<img src=""img/food2.png"" style=""width:200px;border:14px solid red;"">","null","","","","","","","","","",""
"","image-keyboard-response","147","45582","0.0-219.0","326O153BMJK441XZIYRSPOBYRKFEDF","A2M2U7XUBA4CAN","3UUIU9GZC5R93N292LT21FRJ9VS5TN","","1.7999999523162842","img/food6.png","75","2.5","2","1","false","2","2","1,0.5,0,1,0.5,0,0.5,0,1","1,0.5,0,1,0.5,0,0.5,0,1","1",""
"","html-keyboard-response","148","45884","0.0-220.0","326O153BMJK441XZIYRSPOBYRKFEDF","A2M2U7XUBA4CAN","3UUIU9GZC5R93N292LT21FRJ9VS5TN","","null","<img src=""img/food6.png"" style=""width:200px; border:14px solid green;"">","null","","","","","","","","","",""
"","image-keyboard-response","149","45941","0.0-222.0","326O153BMJK441XZIYRSPOBYRKFEDF","A2M2U7XUBA4CAN","3UUIU9GZC5R93N292LT21FRJ9VS5TN","","56.799999952316284","img/food1.png","74","57.200000047683716","1","1","false","3","2","1,0.5,0,1,0.5,0,0.5,0,1","1,0.5,0,1,0.5,0,0.5,0,1","1",""
"","html-keyboard-response","150","46242","0.0-223.0","326O153BMJK441XZIYRSPOBYRKFEDF","A2M2U7XUBA4CAN","3UUIU9GZC5R93N292LT21FRJ9VS5TN","","null","<img src=""img/food1.png"" style=""width:200px; border:14px solid green;"">","null","","","","","","","","","",""
"","image-keyboard-response","151","46445","0.0-225.0","326O153BMJK441XZIYRSPOBYRKFEDF","A2M2U7XUBA4CAN","3UUIU9GZC5R93N292LT21FRJ9VS5TN","","202.19999998807907","img/food2.png","74","202.69999998807907","1","1","false","1","2","1,0.5,0,1,0.5,0,0.5,0,1","1,0.5,0,1,0.5,0,0.5,0,1","1",""
"","html-keyboard-response","152","46747","0.0-226.0","326O153BMJK441XZIYRSPOBYRKFEDF","A2M2U7XUBA4CAN","3UUIU9GZC5R93N292LT21FRJ9VS5TN","","null","<img src=""img/food2.png"" style=""width:200px; border:14px solid green;"">","null","","","","","","","","","",""
"","image-keyboard-response","153","46813","0.0-228.0","326O153BMJK441XZIYRSPOBYRKFEDF","A2M2U7XUBA4CAN","3UUIU9GZC5R93N292LT21FRJ9VS5TN","","65.10000002384186","img/food1.png","74","65.69999998807907","1","1","false","3","2","1,0.5,0,1,0.5,0,0.5,0,1","1,0.5,0,1,0.5,0,0.5,0,1","1",""
"","html-keyboard-response","154","47116","0.0-229.0","326O153BMJK441XZIYRSPOBYRKFEDF","A2M2U7XUBA4CAN","3UUIU9GZC5R93N292LT21FRJ9VS5TN","","null","<img src=""img/food1.png"" style=""width:200px; border:14px solid green;"">","null","","","","","","","","","",""
"","image-keyboard-response","155","47229","0.0-231.0","326O153BMJK441XZIYRSPOBYRKFEDF","A2M2U7XUBA4CAN","3UUIU9GZC5R93N292LT21FRJ9VS5TN","","112.39999997615814","img/food2.png","74","113","1","1","false","1","2","1,0.5,0,1,0.5,0,0.5,0,1","1,0.5,0,1,0.5,0,0.5,0,1","1",""
"","html-keyboard-response","156","47531","0.0-232.0","326O153BMJK441XZIYRSPOBYRKFEDF","A2M2U7XUBA4CAN","3UUIU9GZC5R93N292LT21FRJ9VS5TN","","null","<img src=""img/food2.png"" style=""width:200px; border:14px solid green;"">","null","","","","","","","","","",""
"","image-keyboard-response","157","47589","0.0-234.0","326O153BMJK441XZIYRSPOBYRKFEDF","A2M2U7XUBA4CAN","3UUIU9GZC5R93N292LT21FRJ9VS5TN","","57.90000003576279","img/food6.png","74","58.40000003576279","1","1","false","2","2","1,0.5,0,1,0.5,0,0.5,0,1","1,0.5,0,1,0.5,0,0.5,0,1","1",""
"","html-keyboard-response","158","47891","0.0-235.0","326O153BMJK441XZIYRSPOBYRKFEDF","A2M2U7XUBA4CAN","3UUIU9GZC5R93N292LT21FRJ9VS5TN","","null","<img src=""img/food6.png"" style=""width:200px; border:14px solid green;"">","null","","","","","","","","","",""
"","image-keyboard-response","159","47909","0.0-237.0","326O153BMJK441XZIYRSPOBYRKFEDF","A2M2U7XUBA4CAN","3UUIU9GZC5R93N292LT21FRJ9VS5TN","","17.599999964237213","img/food6.png","74","18","1","1","false","2","2","1,0.5,0,1,0.5,0,0.5,0,1","1,0.5,0,1,0.5,0,0.5,0,1","1",""
"","html-keyboard-response","160","48210","0.0-238.0","326O153BMJK441XZIYRSPOBYRKFEDF","A2M2U7XUBA4CAN","3UUIU9GZC5R93N292LT21FRJ9VS5TN","","null","<img src=""img/food6.png"" style=""width:200px; border:14px solid green;"">","null","","","","","","","","","",""
"","image-keyboard-response","161","48374","0.0-240.0","326O153BMJK441XZIYRSPOBYRKFEDF","A2M2U7XUBA4CAN","3UUIU9GZC5R93N292LT21FRJ9VS5TN","","163","img/food1.png","74","163.5","1","0","false","3","2","1,0.5,0,1,0.5,0,0.5,0,1","1,0.5,0,1,0.5,0,0.5,0,1","1",""
"","html-keyboard-response","162","48675","0.0-241.0","326O153BMJK441XZIYRSPOBYRKFEDF","A2M2U7XUBA4CAN","3UUIU9GZC5R93N292LT21FRJ9VS5TN","","null","<img src=""img/food1.png"" style=""width:200px;border:14px solid red;"">","null","","","","","","","","","",""
"","image-keyboard-response","163","48774","0.0-243.0","326O153BMJK441XZIYRSPOBYRKFEDF","A2M2U7XUBA4CAN","3UUIU9GZC5R93N292LT21FRJ9VS5TN","","97.29999995231628","img/food2.png","74","97.90000003576279","1","1","false","1","2","1,0.5,0,1,0.5,0,0.5,0,1","1,0.5,0,1,0.5,0,0.5,0,1","1",""
"","html-keyboard-response","164","49075","0.0-244.0","326O153BMJK441XZIYRSPOBYRKFEDF","A2M2U7XUBA4CAN","3UUIU9GZC5R93N292LT21FRJ9VS5TN","","null","<img src=""img/food2.png"" style=""width:200px; border:14px solid green;"">","null","","","","","","","","","",""
"","image-keyboard-response","165","49189","0.0-246.0","326O153BMJK441XZIYRSPOBYRKFEDF","A2M2U7XUBA4CAN","3UUIU9GZC5R93N292LT21FRJ9VS5TN","","113.19999998807907","img/food2.png","74","113.80000001192093","1","1","false","1","2","1,0.5,0,1,0.5,0,0.5,0,1","1,0.5,0,1,0.5,0,0.5,0,1","1",""
"","html-keyboard-response","166","49491","0.0-247.0","326O153BMJK441XZIYRSPOBYRKFEDF","A2M2U7XUBA4CAN","3UUIU9GZC5R93N292LT21FRJ9VS5TN","","null","<img src=""img/food2.png"" style=""width:200px; border:14px solid green;"">","null","","","","","","","","","",""
"","image-keyboard-response","167","49501","0.0-249.0","326O153BMJK441XZIYRSPOBYRKFEDF","A2M2U7XUBA4CAN","3UUIU9GZC5R93N292LT21FRJ9VS5TN","","9","img/food6.png","74","10.299999952316284","1","1","false","2","2","1,0.5,0,1,0.5,0,0.5,0,1","1,0.5,0,1,0.5,0,0.5,0,1","1",""
"","html-keyboard-response","168","49803","0.0-250.0","326O153BMJK441XZIYRSPOBYRKFEDF","A2M2U7XUBA4CAN","3UUIU9GZC5R93N292LT21FRJ9VS5TN","","null","<img src=""img/food6.png"" style=""width:200px; border:14px solid green;"">","null","","","","","","","","","",""
"","image-keyboard-response","169","49861","0.0-252.0","326O153BMJK441XZIYRSPOBYRKFEDF","A2M2U7XUBA4CAN","3UUIU9GZC5R93N292LT21FRJ9VS5TN","","57.39999997615814","img/food2.png","74","58.19999998807907","1","1","false","1","2","1,0.5,0,1,0.5,0,0.5,0,1","1,0.5,0,1,0.5,0,0.5,0,1","1",""
"","html-keyboard-response","170","50162","0.0-253.0","326O153BMJK441XZIYRSPOBYRKFEDF","A2M2U7XUBA4CAN","3UUIU9GZC5R93N292LT21FRJ9VS5TN","","null","<img src=""img/food2.png"" style=""width:200px; border:14px solid green;"">","null","","","","","","","","","",""
"","image-keyboard-response","171","50229","0.0-255.0","326O153BMJK441XZIYRSPOBYRKFEDF","A2M2U7XUBA4CAN","3UUIU9GZC5R93N292LT21FRJ9VS5TN","","66.10000002384186","img/food1.png","74","66.80000001192093","1","0","false","3","2","1,0.5,0,1,0.5,0,0.5,0,1","1,0.5,0,1,0.5,0,0.5,0,1","1",""
"","html-keyboard-response","172","50533","0.0-256.0","326O153BMJK441XZIYRSPOBYRKFEDF","A2M2U7XUBA4CAN","3UUIU9GZC5R93N292LT21FRJ9VS5TN","","null","<img src=""img/food1.png"" style=""width:200px;border:14px solid red;"">","null","","","","","","","","","",""
"","image-keyboard-response","173","50613","0.0-258.0","326O153BMJK441XZIYRSPOBYRKFEDF","A2M2U7XUBA4CAN","3UUIU9GZC5R93N292LT21FRJ9VS5TN","","78.89999997615814","img/food1.png","74","79.60000002384186","1","0","false","3","2","1,0.5,0,1,0.5,0,0.5,0,1","1,0.5,0,1,0.5,0,0.5,0,1","1",""
"","html-keyboard-response","174","50915","0.0-259.0","326O153BMJK441XZIYRSPOBYRKFEDF","A2M2U7XUBA4CAN","3UUIU9GZC5R93N292LT21FRJ9VS5TN","","null","<img src=""img/food1.png"" style=""width:200px;border:14px solid red;"">","null","","","","","","","","","",""
"","image-keyboard-response","175","50981","0.0-261.0","326O153BMJK441XZIYRSPOBYRKFEDF","A2M2U7XUBA4CAN","3UUIU9GZC5R93N292LT21FRJ9VS5TN","","65.70000004768372","img/food2.png","74","66.5","1","1","false","1","2","1,0.5,0,1,0.5,0,0.5,0,1","1,0.5,0,1,0.5,0,0.5,0,1","1",""
"","html-keyboard-response","176","51283","0.0-262.0","326O153BMJK441XZIYRSPOBYRKFEDF","A2M2U7XUBA4CAN","3UUIU9GZC5R93N292LT21FRJ9VS5TN","","null","<img src=""img/food2.png"" style=""width:200px; border:14px solid green;"">","null","","","","","","","","","",""
"","image-keyboard-response","177","51405","0.0-264.0","326O153BMJK441XZIYRSPOBYRKFEDF","A2M2U7XUBA4CAN","3UUIU9GZC5R93N292LT21FRJ9VS5TN","","121.40000003576279","img/food6.png","74","122.19999998807907","1","1","false","2","2","1,0.5,0,1,0.5,0,0.5,0,1","1,0.5,0,1,0.5,0,0.5,0,1","1",""
"","html-keyboard-response","178","51708","0.0-265.0","326O153BMJK441XZIYRSPOBYRKFEDF","A2M2U7XUBA4CAN","3UUIU9GZC5R93N292LT21FRJ9VS5TN","","null","<img src=""img/food6.png"" style=""width:200px; border:14px solid green;"">","null","","","","","","","","","",""
"","image-keyboard-response","179","51845","0.0-267.0","326O153BMJK441XZIYRSPOBYRKFEDF","A2M2U7XUBA4CAN","3UUIU9GZC5R93N292LT21FRJ9VS5TN","","137.0999999642372","img/food6.png","74","137.69999998807907","1","1","false","2","2","1,0.5,0,1,0.5,0,0.5,0,1","1,0.5,0,1,0.5,0,0.5,0,1","1",""
"","html-keyboard-response","180","52147","0.0-268.0","326O153BMJK441XZIYRSPOBYRKFEDF","A2M2U7XUBA4CAN","3UUIU9GZC5R93N292LT21FRJ9VS5TN","","null","<img src=""img/food6.png"" style=""width:200px; border:14px solid green;"">","null","","","","","","","","","",""
"","image-keyboard-response","181","52237","0.0-270.0","326O153BMJK441XZIYRSPOBYRKFEDF","A2M2U7XUBA4CAN","3UUIU9GZC5R93N292LT21FRJ9VS5TN","","89.80000001192093","img/food2.png","74","90.5","1","1","false","1","2","1,0.5,0,1,0.5,0,0.5,0,1","1,0.5,0,1,0.5,0,0.5,0,1","1",""
"","html-keyboard-response","182","52542","0.0-271.0","326O153BMJK441XZIYRSPOBYRKFEDF","A2M2U7XUBA4CAN","3UUIU9GZC5R93N292LT21FRJ9VS5TN","","null","<img src=""img/food2.png"" style=""width:200px; border:14px solid green;"">","null","","","","","","","","","",""
"","instructions","183","56240","0.0-273.0","326O153BMJK441XZIYRSPOBYRKFEDF","A2M2U7XUBA4CAN","3UUIU9GZC5R93N292LT21FRJ9VS5TN","[{""page_index"":0,""viewing_time"":3012},{""page_index"":1,""viewing_time"":685.6999999880791}]","3697.899999976158","","","","","","","","","","","",""
"","image-keyboard-response","184","56557","0.0-274.0","326O153BMJK441XZIYRSPOBYRKFEDF","A2M2U7XUBA4CAN","3UUIU9GZC5R93N292LT21FRJ9VS5TN","","316.5","img/food4.png","76","317.19999998807907","3","1","","2","1","1,0.5,0,1,0.5,0,0.5,0,1","0,1,0.5,0,1,0.5,1,0.5,0","3",""
"","html-keyboard-response","185","56859","0.0-275.0","326O153BMJK441XZIYRSPOBYRKFEDF","A2M2U7XUBA4CAN","3UUIU9GZC5R93N292LT21FRJ9VS5TN","","null","<img src=""img/food4.png"" style=""width:200px; border:14px solid green;"">","null","","","","","","","","","",""
"","image-keyboard-response","186","57165","0.0-276.0","326O153BMJK441XZIYRSPOBYRKFEDF","A2M2U7XUBA4CAN","3UUIU9GZC5R93N292LT21FRJ9VS5TN","","305.5","img/food5.png","76","306.10000002384186","3","0","","1","1","1,0.5,0,1,0.5,0,0.5,0,1","0,1,0.5,0,1,0.5,1,0.5,0","3",""
"","html-keyboard-response","187","57481","0.0-277.0","326O153BMJK441XZIYRSPOBYRKFEDF","A2M2U7XUBA4CAN","3UUIU9GZC5R93N292LT21FRJ9VS5TN","","null","<img src=""img/food5.png"" style=""width:200px;border:14px solid red;"">","null","","","","","","","","","",""
"","image-keyboard-response","188","57725","0.0-278.0","326O153BMJK441XZIYRSPOBYRKFEDF","A2M2U7XUBA4CAN","3UUIU9GZC5R93N292LT21FRJ9VS5TN","","243.30000001192093","img/food5.png","74","244","1","0","","1","1","1,0.5,0,1,0.5,0,0.5,0,1","0,1,0.5,0,1,0.5,1,0.5,0","3",""
"","html-keyboard-response","189","58027","0.0-279.0","326O153BMJK441XZIYRSPOBYRKFEDF","A2M2U7XUBA4CAN","3UUIU9GZC5R93N292LT21FRJ9VS5TN","","null","<img src=""img/food5.png"" style=""width:200px;border:14px solid red;"">","null","","","","","","","","","",""
"","image-keyboard-response","190","58149","0.0-280.0","326O153BMJK441XZIYRSPOBYRKFEDF","A2M2U7XUBA4CAN","3UUIU9GZC5R93N292LT21FRJ9VS5TN","","121.80000001192093","img/food5.png","75","122.5","2","1","","1","1","1,0.5,0,1,0.5,0,0.5,0,1","0,1,0.5,0,1,0.5,1,0.5,0","3",""
"","html-keyboard-response","191","58451","0.0-281.0","326O153BMJK441XZIYRSPOBYRKFEDF","A2M2U7XUBA4CAN","3UUIU9GZC5R93N292LT21FRJ9VS5TN","","null","<img src=""img/food5.png"" style=""width:200px; border:14px solid green;"">","null","","","","","","","","","",""
"","image-keyboard-response","192","58894","0.0-282.0","326O153BMJK441XZIYRSPOBYRKFEDF","A2M2U7XUBA4CAN","3UUIU9GZC5R93N292LT21FRJ9VS5TN","","442.19999998807907","img/food5.png","75","442.80000001192093","2","1","","1","1","1,0.5,0,1,0.5,0,0.5,0,1","0,1,0.5,0,1,0.5,1,0.5,0","3",""
"","html-keyboard-response","193","59195","0.0-283.0","326O153BMJK441XZIYRSPOBYRKFEDF","A2M2U7XUBA4CAN","3UUIU9GZC5R93N292LT21FRJ9VS5TN","","null","<img src=""img/food5.png"" style=""width:200px; border:14px solid green;"">","null","","","","","","","","","",""
"","image-keyboard-response","194","59286","0.0-284.0","326O153BMJK441XZIYRSPOBYRKFEDF","A2M2U7XUBA4CAN","3UUIU9GZC5R93N292LT21FRJ9VS5TN","","90.40000003576279","img/food5.png","75","91","2","1","","1","1","1,0.5,0,1,0.5,0,0.5,0,1","0,1,0.5,0,1,0.5,1,0.5,0","3",""
"","html-keyboard-response","195","59587","0.0-285.0","326O153BMJK441XZIYRSPOBYRKFEDF","A2M2U7XUBA4CAN","3UUIU9GZC5R93N292LT21FRJ9VS5TN","","null","<img src=""img/food5.png"" style=""width:200px; border:14px solid green;"">","null","","","","","","","","","",""
"","image-keyboard-response","196","59725","0.0-286.0","326O153BMJK441XZIYRSPOBYRKFEDF","A2M2U7XUBA4CAN","3UUIU9GZC5R93N292LT21FRJ9VS5TN","","137.30000001192093","img/food5.png","75","138","2","1","","1","1","1,0.5,0,1,0.5,0,0.5,0,1","0,1,0.5,0,1,0.5,1,0.5,0","3",""
"","html-keyboard-response","197","60028","0.0-287.0","326O153BMJK441XZIYRSPOBYRKFEDF","A2M2U7XUBA4CAN","3UUIU9GZC5R93N292LT21FRJ9VS5TN","","null","<img src=""img/food5.png"" style=""width:200px; border:14px solid green;"">","null","","","","","","","","","",""
"","image-keyboard-response","198","60111","0.0-288.0","326O153BMJK441XZIYRSPOBYRKFEDF","A2M2U7XUBA4CAN","3UUIU9GZC5R93N292LT21FRJ9VS5TN","","81.59999996423721","img/food5.png","75","82.20000004768372","2","1","","1","1","1,0.5,0,1,0.5,0,0.5,0,1","0,1,0.5,0,1,0.5,1,0.5,0","3",""
"","html-keyboard-response","199","60414","0.0-289.0","326O153BMJK441XZIYRSPOBYRKFEDF","A2M2U7XUBA4CAN","3UUIU9GZC5R93N292LT21FRJ9VS5TN","","null","<img src=""img/food5.png"" style=""width:200px; border:14px solid green;"">","null","","","","","","","","","",""
"","image-keyboard-response","200","60485","0.0-290.0","326O153BMJK441XZIYRSPOBYRKFEDF","A2M2U7XUBA4CAN","3UUIU9GZC5R93N292LT21FRJ9VS5TN","","70.89999997615814","img/food5.png","75","71.5","2","1","","1","1","1,0.5,0,1,0.5,0,0.5,0,1","0,1,0.5,0,1,0.5,1,0.5,0","3",""
"","html-keyboard-response","201","60786","0.0-291.0","326O153BMJK441XZIYRSPOBYRKFEDF","A2M2U7XUBA4CAN","3UUIU9GZC5R93N292LT21FRJ9VS5TN","","null","<img src=""img/food5.png"" style=""width:200px; border:14px solid green;"">","null","","","","","","","","","",""
"","image-keyboard-response","202","60877","0.0-292.0","326O153BMJK441XZIYRSPOBYRKFEDF","A2M2U7XUBA4CAN","3UUIU9GZC5R93N292LT21FRJ9VS5TN","","90.39999997615814","img/food4.png","75","91.10000002384186","2","1","","2","1","1,0.5,0,1,0.5,0,0.5,0,1","0,1,0.5,0,1,0.5,1,0.5,0","3",""
"","html-keyboard-response","203","61179","0.0-293.0","326O153BMJK441XZIYRSPOBYRKFEDF","A2M2U7XUBA4CAN","3UUIU9GZC5R93N292LT21FRJ9VS5TN","","null","<img src=""img/food4.png"" style=""width:200px; border:14px solid green;"">","null","","","","","","","","","",""
"","image-keyboard-response","204","61389","0.0-294.0","326O153BMJK441XZIYRSPOBYRKFEDF","A2M2U7XUBA4CAN","3UUIU9GZC5R93N292LT21FRJ9VS5TN","","210.19999998807907","img/food3.png","75","210.79999995231628","2","1","","3","1","1,0.5,0,1,0.5,0,0.5,0,1","0,1,0.5,0,1,0.5,1,0.5,0","3",""
"","html-keyboard-response","205","61691","0.0-295.0","326O153BMJK441XZIYRSPOBYRKFEDF","A2M2U7XUBA4CAN","3UUIU9GZC5R93N292LT21FRJ9VS5TN","","null","<img src=""img/food3.png"" style=""width:200px; border:14px solid green;"">","null","","","","","","","","","",""
"","image-keyboard-response","206","61845","0.0-296.0","326O153BMJK441XZIYRSPOBYRKFEDF","A2M2U7XUBA4CAN","3UUIU9GZC5R93N292LT21FRJ9VS5TN","","153.20000004768372","img/food4.png","75","153.89999997615814","2","1","","2","1","1,0.5,0,1,0.5,0,0.5,0,1","0,1,0.5,0,1,0.5,1,0.5,0","3",""
"","html-keyboard-response","207","62148","0.0-297.0","326O153BMJK441XZIYRSPOBYRKFEDF","A2M2U7XUBA4CAN","3UUIU9GZC5R93N292LT21FRJ9VS5TN","","null","<img src=""img/food4.png"" style=""width:200px; border:14px solid green;"">","null","","","","","","","","","",""
"","image-keyboard-response","208","62269","0.0-298.0","326O153BMJK441XZIYRSPOBYRKFEDF","A2M2U7XUBA4CAN","3UUIU9GZC5R93N292LT21FRJ9VS5TN","","120.80000001192093","img/food5.png","75","121.5","2","1","","1","1","1,0.5,0,1,0.5,0,0.5,0,1","0,1,0.5,0,1,0.5,1,0.5,0","3",""
"","html-keyboard-response","209","62571","0.0-299.0","326O153BMJK441XZIYRSPOBYRKFEDF","A2M2U7XUBA4CAN","3UUIU9GZC5R93N292LT21FRJ9VS5TN","","null","<img src=""img/food5.png"" style=""width:200px; border:14px solid green;"">","null","","","","","","","","","",""
"","image-keyboard-response","210","62717","0.0-300.0","326O153BMJK441XZIYRSPOBYRKFEDF","A2M2U7XUBA4CAN","3UUIU9GZC5R93N292LT21FRJ9VS5TN","","145.60000002384186","img/food5.png","75","146.10000002384186","2","1","","1","1","1,0.5,0,1,0.5,0,0.5,0,1","0,1,0.5,0,1,0.5,1,0.5,0","3",""
"","html-keyboard-response","211","63020","0.0-301.0","326O153BMJK441XZIYRSPOBYRKFEDF","A2M2U7XUBA4CAN","3UUIU9GZC5R93N292LT21FRJ9VS5TN","","null","<img src=""img/food5.png"" style=""width:200px; border:14px solid green;"">","null","","","","","","","","","",""
"","image-keyboard-response","212","63045","0.0-302.0","326O153BMJK441XZIYRSPOBYRKFEDF","A2M2U7XUBA4CAN","3UUIU9GZC5R93N292LT21FRJ9VS5TN","","24.30000001192093","img/food3.png","75","24.899999976158142","2","0","","3","1","1,0.5,0,1,0.5,0,0.5,0,1","0,1,0.5,0,1,0.5,1,0.5,0","3",""
"","html-keyboard-response","213","63347","0.0-303.0","326O153BMJK441XZIYRSPOBYRKFEDF","A2M2U7XUBA4CAN","3UUIU9GZC5R93N292LT21FRJ9VS5TN","","null","<img src=""img/food3.png"" style=""width:200px;border:14px solid red;"">","null","","","","","","","","","",""
"","image-keyboard-response","214","63469","0.0-304.0","326O153BMJK441XZIYRSPOBYRKFEDF","A2M2U7XUBA4CAN","3UUIU9GZC5R93N292LT21FRJ9VS5TN","","121.89999997615814","img/food3.png","75","122.69999998807907","2","0","","3","1","1,0.5,0,1,0.5,0,0.5,0,1","0,1,0.5,0,1,0.5,1,0.5,0","3",""
"","html-keyboard-response","215","63772","0.0-305.0","326O153BMJK441XZIYRSPOBYRKFEDF","A2M2U7XUBA4CAN","3UUIU9GZC5R93N292LT21FRJ9VS5TN","","null","<img src=""img/food3.png"" style=""width:200px;border:14px solid red;"">","null","","","","","","","","","",""
"","image-keyboard-response","216","63893","0.0-306.0","326O153BMJK441XZIYRSPOBYRKFEDF","A2M2U7XUBA4CAN","3UUIU9GZC5R93N292LT21FRJ9VS5TN","","120.80000001192093","img/food3.png","74","121.30000001192093","1","1","","3","1","1,0.5,0,1,0.5,0,0.5,0,1","0,1,0.5,0,1,0.5,1,0.5,0","3",""
"","html-keyboard-response","217","64195","0.0-307.0","326O153BMJK441XZIYRSPOBYRKFEDF","A2M2U7XUBA4CAN","3UUIU9GZC5R93N292LT21FRJ9VS5TN","","null","<img src=""img/food3.png"" style=""width:200px; border:14px solid green;"">","null","","","","","","","","","",""
"","image-keyboard-response","218","64365","0.0-308.0","326O153BMJK441XZIYRSPOBYRKFEDF","A2M2U7XUBA4CAN","3UUIU9GZC5R93N292LT21FRJ9VS5TN","","169","img/food3.png","74","169.60000002384186","1","1","","3","1","1,0.5,0,1,0.5,0,0.5,0,1","0,1,0.5,0,1,0.5,1,0.5,0","3",""
"","html-keyboard-response","219","64666","0.0-309.0","326O153BMJK441XZIYRSPOBYRKFEDF","A2M2U7XUBA4CAN","3UUIU9GZC5R93N292LT21FRJ9VS5TN","","null","<img src=""img/food3.png"" style=""width:200px; border:14px solid green;"">","null","","","","","","","","","",""
"","image-keyboard-response","220","64749","0.0-310.0","326O153BMJK441XZIYRSPOBYRKFEDF","A2M2U7XUBA4CAN","3UUIU9GZC5R93N292LT21FRJ9VS5TN","","82.29999995231628","img/food3.png","74","82.89999997615814","1","1","","3","1","1,0.5,0,1,0.5,0,0.5,0,1","0,1,0.5,0,1,0.5,1,0.5,0","3",""
"","html-keyboard-response","221","65054","0.0-311.0","326O153BMJK441XZIYRSPOBYRKFEDF","A2M2U7XUBA4CAN","3UUIU9GZC5R93N292LT21FRJ9VS5TN","","null","<img src=""img/food3.png"" style=""width:200px; border:14px solid green;"">","null","","","","","","","","","",""
"","image-keyboard-response","222","65149","0.0-312.0","326O153BMJK441XZIYRSPOBYRKFEDF","A2M2U7XUBA4CAN","3UUIU9GZC5R93N292LT21FRJ9VS5TN","","94.5","img/food5.png","74","95","1","0","","1","1","1,0.5,0,1,0.5,0,0.5,0,1","0,1,0.5,0,1,0.5,1,0.5,0","3",""
"","html-keyboard-response","223","65452","0.0-313.0","326O153BMJK441XZIYRSPOBYRKFEDF","A2M2U7XUBA4CAN","3UUIU9GZC5R93N292LT21FRJ9VS5TN","","null","<img src=""img/food5.png"" style=""width:200px;border:14px solid red;"">","null","","","","","","","","","",""
"","image-keyboard-response","224","65613","0.0-314.0","326O153BMJK441XZIYRSPOBYRKFEDF","A2M2U7XUBA4CAN","3UUIU9GZC5R93N292LT21FRJ9VS5TN","","160.5","img/food3.png","75","161.19999998807907","2","1","","3","1","1,0.5,0,1,0.5,0,0.5,0,1","0,1,0.5,0,1,0.5,1,0.5,0","3",""
"","html-keyboard-response","225","65915","0.0-315.0","326O153BMJK441XZIYRSPOBYRKFEDF","A2M2U7XUBA4CAN","3UUIU9GZC5R93N292LT21FRJ9VS5TN","","null","<img src=""img/food3.png"" style=""width:200px; border:14px solid green;"">","null","","","","","","","","","",""
"","image-keyboard-response","226","66093","0.0-316.0","326O153BMJK441XZIYRSPOBYRKFEDF","A2M2U7XUBA4CAN","3UUIU9GZC5R93N292LT21FRJ9VS5TN","","177.30000001192093","img/food4.png","76","178","3","0","","2","1","1,0.5,0,1,0.5,0,0.5,0,1","0,1,0.5,0,1,0.5,1,0.5,0","3",""
"","html-keyboard-response","227","66395","0.0-317.0","326O153BMJK441XZIYRSPOBYRKFEDF","A2M2U7XUBA4CAN","3UUIU9GZC5R93N292LT21FRJ9VS5TN","","null","<img src=""img/food4.png"" style=""width:200px;border:14px solid red;"">","null","","","","","","","","","",""
"","image-keyboard-response","228","66517","0.0-318.0","326O153BMJK441XZIYRSPOBYRKFEDF","A2M2U7XUBA4CAN","3UUIU9GZC5R93N292LT21FRJ9VS5TN","","121.40000003576279","img/food4.png","75","121.90000003576279","2","1","","2","1","1,0.5,0,1,0.5,0,0.5,0,1","0,1,0.5,0,1,0.5,1,0.5,0","3",""
"","html-keyboard-response","229","66820","0.0-319.0","326O153BMJK441XZIYRSPOBYRKFEDF","A2M2U7XUBA4CAN","3UUIU9GZC5R93N292LT21FRJ9VS5TN","","null","<img src=""img/food4.png"" style=""width:200px; border:14px solid green;"">","null","","","","","","","","","",""
"","image-keyboard-response","230","67165","0.0-320.0","326O153BMJK441XZIYRSPOBYRKFEDF","A2M2U7XUBA4CAN","3UUIU9GZC5R93N292LT21FRJ9VS5TN","","344.19999998807907","img/food5.png","75","344.9000000357628","2","1","","1","1","1,0.5,0,1,0.5,0,0.5,0,1","0,1,0.5,0,1,0.5,1,0.5,0","3",""
"","html-keyboard-response","231","67467","0.0-321.0","326O153BMJK441XZIYRSPOBYRKFEDF","A2M2U7XUBA4CAN","3UUIU9GZC5R93N292LT21FRJ9VS5TN","","null","<img src=""img/food5.png"" style=""width:200px; border:14px solid green;"">","null","","","","","","","","","",""
"","image-keyboard-response","232","67621","0.0-322.0","326O153BMJK441XZIYRSPOBYRKFEDF","A2M2U7XUBA4CAN","3UUIU9GZC5R93N292LT21FRJ9VS5TN","","153.30000001192093","img/food5.png","75","154.10000002384186","2","1","","1","1","1,0.5,0,1,0.5,0,0.5,0,1","0,1,0.5,0,1,0.5,1,0.5,0","3",""
"","html-keyboard-response","233","67924","0.0-323.0","326O153BMJK441XZIYRSPOBYRKFEDF","A2M2U7XUBA4CAN","3UUIU9GZC5R93N292LT21FRJ9VS5TN","","null","<img src=""img/food5.png"" style=""width:200px; border:14px solid green;"">","null","","","","","","","","","",""
"","image-keyboard-response","234","68021","0.0-324.0","326O153BMJK441XZIYRSPOBYRKFEDF","A2M2U7XUBA4CAN","3UUIU9GZC5R93N292LT21FRJ9VS5TN","","96.39999997615814","img/food5.png","75","97.10000002384186","2","1","","1","1","1,0.5,0,1,0.5,0,0.5,0,1","0,1,0.5,0,1,0.5,1,0.5,0","3",""
"","html-keyboard-response","235","68323","0.0-325.0","326O153BMJK441XZIYRSPOBYRKFEDF","A2M2U7XUBA4CAN","3UUIU9GZC5R93N292LT21FRJ9VS5TN","","null","<img src=""img/food5.png"" style=""width:200px; border:14px solid green;"">","null","","","","","","","","","",""
"","image-keyboard-response","236","68494","0.0-326.0","326O153BMJK441XZIYRSPOBYRKFEDF","A2M2U7XUBA4CAN","3UUIU9GZC5R93N292LT21FRJ9VS5TN","","170.0999999642372","img/food4.png","75","170.69999998807907","2","1","","2","1","1,0.5,0,1,0.5,0,0.5,0,1","0,1,0.5,0,1,0.5,1,0.5,0","3",""
"","html-keyboard-response","237","68795","0.0-327.0","326O153BMJK441XZIYRSPOBYRKFEDF","A2M2U7XUBA4CAN","3UUIU9GZC5R93N292LT21FRJ9VS5TN","","null","<img src=""img/food4.png"" style=""width:200px; border:14px solid green;"">","null","","","","","","","","","",""
"","image-keyboard-response","238","68917","0.0-328.0","326O153BMJK441XZIYRSPOBYRKFEDF","A2M2U7XUBA4CAN","3UUIU9GZC5R93N292LT21FRJ9VS5TN","","122","img/food4.png","75","122.5","2","1","","2","1","1,0.5,0,1,0.5,0,0.5,0,1","0,1,0.5,0,1,0.5,1,0.5,0","3",""
"","html-keyboard-response","239","69219","0.0-329.0","326O153BMJK441XZIYRSPOBYRKFEDF","A2M2U7XUBA4CAN","3UUIU9GZC5R93N292LT21FRJ9VS5TN","","null","<img src=""img/food4.png"" style=""width:200px; border:14px solid green;"">","null","","","","","","","","","",""
"","image-keyboard-response","240","69269","0.0-330.0","326O153BMJK441XZIYRSPOBYRKFEDF","A2M2U7XUBA4CAN","3UUIU9GZC5R93N292LT21FRJ9VS5TN","","49.40000003576279","img/food3.png","75","49.69999998807907","2","1","","3","1","1,0.5,0,1,0.5,0,0.5,0,1","0,1,0.5,0,1,0.5,1,0.5,0","3",""
"","html-keyboard-response","241","69571","0.0-331.0","326O153BMJK441XZIYRSPOBYRKFEDF","A2M2U7XUBA4CAN","3UUIU9GZC5R93N292LT21FRJ9VS5TN","","null","<img src=""img/food3.png"" style=""width:200px; border:14px solid green;"">","null","","","","","","","","","",""
"","image-keyboard-response","242","69766","0.0-332.0","326O153BMJK441XZIYRSPOBYRKFEDF","A2M2U7XUBA4CAN","3UUIU9GZC5R93N292LT21FRJ9VS5TN","","194.10000002384186","img/food3.png","75","194.69999998807907","2","0","","3","1","1,0.5,0,1,0.5,0,0.5,0,1","0,1,0.5,0,1,0.5,1,0.5,0","3",""
"","html-keyboard-response","243","70067","0.0-333.0","326O153BMJK441XZIYRSPOBYRKFEDF","A2M2U7XUBA4CAN","3UUIU9GZC5R93N292LT21FRJ9VS5TN","","null","<img src=""img/food3.png"" style=""width:200px;border:14px solid red;"">","null","","","","","","","","","",""
"","image-keyboard-response","244","70229","0.0-334.0","326O153BMJK441XZIYRSPOBYRKFEDF","A2M2U7XUBA4CAN","3UUIU9GZC5R93N292LT21FRJ9VS5TN","","161.19999998807907","img/food3.png","75","161.5999999642372","2","1","","3","1","1,0.5,0,1,0.5,0,0.5,0,1","0,1,0.5,0,1,0.5,1,0.5,0","3",""
"","html-keyboard-response","245","70537","0.0-335.0","326O153BMJK441XZIYRSPOBYRKFEDF","A2M2U7XUBA4CAN","3UUIU9GZC5R93N292LT21FRJ9VS5TN","","null","<img src=""img/food3.png"" style=""width:200px; border:14px solid green;"">","null","","","","","","","","","",""
"","image-keyboard-response","246","70605","0.0-336.0","326O153BMJK441XZIYRSPOBYRKFEDF","A2M2U7XUBA4CAN","3UUIU9GZC5R93N292LT21FRJ9VS5TN","","67","img/food4.png","74","67.5","1","0","","2","1","1,0.5,0,1,0.5,0,0.5,0,1","0,1,0.5,0,1,0.5,1,0.5,0","3",""
"","html-keyboard-response","247","70906","0.0-337.0","326O153BMJK441XZIYRSPOBYRKFEDF","A2M2U7XUBA4CAN","3UUIU9GZC5R93N292LT21FRJ9VS5TN","","null","<img src=""img/food4.png"" style=""width:200px;border:14px solid red;"">","null","","","","","","","","","",""
"","image-keyboard-response","248","71022","0.0-338.0","326O153BMJK441XZIYRSPOBYRKFEDF","A2M2U7XUBA4CAN","3UUIU9GZC5R93N292LT21FRJ9VS5TN","","114.5","img/food5.png","76","115.19999998807907","3","0","","1","1","1,0.5,0,1,0.5,0,0.5,0,1","0,1,0.5,0,1,0.5,1,0.5,0","3",""
"","html-keyboard-response","249","71324","0.0-339.0","326O153BMJK441XZIYRSPOBYRKFEDF","A2M2U7XUBA4CAN","3UUIU9GZC5R93N292LT21FRJ9VS5TN","","null","<img src=""img/food5.png"" style=""width:200px;border:14px solid red;"">","null","","","","","","","","","",""
"","image-keyboard-response","250","71389","0.0-340.0","326O153BMJK441XZIYRSPOBYRKFEDF","A2M2U7XUBA4CAN","3UUIU9GZC5R93N292LT21FRJ9VS5TN","","64.60000002384186","img/food5.png","75","65.09999996423721","2","1","","1","1","1,0.5,0,1,0.5,0,0.5,0,1","0,1,0.5,0,1,0.5,1,0.5,0","3",""
"","html-keyboard-response","251","71692","0.0-341.0","326O153BMJK441XZIYRSPOBYRKFEDF","A2M2U7XUBA4CAN","3UUIU9GZC5R93N292LT21FRJ9VS5TN","","null","<img src=""img/food5.png"" style=""width:200px; border:14px solid green;"">","null","","","","","","","","","",""
"","image-keyboard-response","252","71789","0.0-342.0","326O153BMJK441XZIYRSPOBYRKFEDF","A2M2U7XUBA4CAN","3UUIU9GZC5R93N292LT21FRJ9VS5TN","","97","img/food4.png","75","97.5","2","1","","2","1","1,0.5,0,1,0.5,0,0.5,0,1","0,1,0.5,0,1,0.5,1,0.5,0","3",""
"","html-keyboard-response","253","72095","0.0-343.0","326O153BMJK441XZIYRSPOBYRKFEDF","A2M2U7XUBA4CAN","3UUIU9GZC5R93N292LT21FRJ9VS5TN","","null","<img src=""img/food4.png"" style=""width:200px; border:14px solid green;"">","null","","","","","","","","","",""
"","image-keyboard-response","254","72229","0.0-344.0","326O153BMJK441XZIYRSPOBYRKFEDF","A2M2U7XUBA4CAN","3UUIU9GZC5R93N292LT21FRJ9VS5TN","","133.70000004768372","img/food3.png","75","134.39999997615814","2","0","","3","1","1,0.5,0,1,0.5,0,0.5,0,1","0,1,0.5,0,1,0.5,1,0.5,0","3",""
"","html-keyboard-response","255","72531","0.0-345.0","326O153BMJK441XZIYRSPOBYRKFEDF","A2M2U7XUBA4CAN","3UUIU9GZC5R93N292LT21FRJ9VS5TN","","null","<img src=""img/food3.png"" style=""width:200px;border:14px solid red;"">","null","","","","","","","","","",""
"","image-keyboard-response","256","72669","0.0-346.0","326O153BMJK441XZIYRSPOBYRKFEDF","A2M2U7XUBA4CAN","3UUIU9GZC5R93N292LT21FRJ9VS5TN","","137.10000002384186","img/food4.png","75","137.89999997615814","2","1","","2","1","1,0.5,0,1,0.5,0,0.5,0,1","0,1,0.5,0,1,0.5,1,0.5,0","3",""
"","html-keyboard-response","257","72971","0.0-347.0","326O153BMJK441XZIYRSPOBYRKFEDF","A2M2U7XUBA4CAN","3UUIU9GZC5R93N292LT21FRJ9VS5TN","","null","<img src=""img/food4.png"" style=""width:200px; border:14px solid green;"">","null","","","","","","","","","",""
"","image-keyboard-response","258","72989","0.0-348.0","326O153BMJK441XZIYRSPOBYRKFEDF","A2M2U7XUBA4CAN","3UUIU9GZC5R93N292LT21FRJ9VS5TN","","17.80000001192093","img/food3.png","74","18.400000035762787","1","1","","3","1","1,0.5,0,1,0.5,0,0.5,0,1","0,1,0.5,0,1,0.5,1,0.5,0","3",""
"","html-keyboard-response","259","73290","0.0-349.0","326O153BMJK441XZIYRSPOBYRKFEDF","A2M2U7XUBA4CAN","3UUIU9GZC5R93N292LT21FRJ9VS5TN","","null","<img src=""img/food3.png"" style=""width:200px; border:14px solid green;"">","null","","","","","","","","","",""
"","image-keyboard-response","260","73325","0.0-350.0","326O153BMJK441XZIYRSPOBYRKFEDF","A2M2U7XUBA4CAN","3UUIU9GZC5R93N292LT21FRJ9VS5TN","","34.19999998807907","img/food5.png","75","34.90000003576279","2","1","","1","1","1,0.5,0,1,0.5,0,0.5,0,1","0,1,0.5,0,1,0.5,1,0.5,0","3",""
"","html-keyboard-response","261","73626","0.0-351.0","326O153BMJK441XZIYRSPOBYRKFEDF","A2M2U7XUBA4CAN","3UUIU9GZC5R93N292LT21FRJ9VS5TN","","null","<img src=""img/food5.png"" style=""width:200px; border:14px solid green;"">","null","","","","","","","","","",""
"","image-keyboard-response","262","73758","0.0-352.0","326O153BMJK441XZIYRSPOBYRKFEDF","A2M2U7XUBA4CAN","3UUIU9GZC5R93N292LT21FRJ9VS5TN","","130.5","img/food3.png","75","131.30000001192093","2","1","","3","1","1,0.5,0,1,0.5,0,0.5,0,1","0,1,0.5,0,1,0.5,1,0.5,0","3",""
"","html-keyboard-response","263","74060","0.0-353.0","326O153BMJK441XZIYRSPOBYRKFEDF","A2M2U7XUBA4CAN","3UUIU9GZC5R93N292LT21FRJ9VS5TN","","null","<img src=""img/food3.png"" style=""width:200px; border:14px solid green;"">","null","","","","","","","","","",""
"","image-keyboard-response","264","74085","0.0-354.0","326O153BMJK441XZIYRSPOBYRKFEDF","A2M2U7XUBA4CAN","3UUIU9GZC5R93N292LT21FRJ9VS5TN","","24.399999976158142","img/food3.png","76","25.19999998807907","3","0","","3","1","1,0.5,0,1,0.5,0,0.5,0,1","0,1,0.5,0,1,0.5,1,0.5,0","3",""
"","html-keyboard-response","265","74386","0.0-355.0","326O153BMJK441XZIYRSPOBYRKFEDF","A2M2U7XUBA4CAN","3UUIU9GZC5R93N292LT21FRJ9VS5TN","","null","<img src=""img/food3.png"" style=""width:200px;border:14px solid red;"">","null","","","","","","","","","",""
"","image-keyboard-response","266","74445","0.0-356.0","326O153BMJK441XZIYRSPOBYRKFEDF","A2M2U7XUBA4CAN","3UUIU9GZC5R93N292LT21FRJ9VS5TN","","58.09999996423721","img/food3.png","74","58.60000002384186","1","1","","3","1","1,0.5,0,1,0.5,0,0.5,0,1","0,1,0.5,0,1,0.5,1,0.5,0","3",""
"","html-keyboard-response","267","74747","0.0-357.0","326O153BMJK441XZIYRSPOBYRKFEDF","A2M2U7XUBA4CAN","3UUIU9GZC5R93N292LT21FRJ9VS5TN","","null","<img src=""img/food3.png"" style=""width:200px; border:14px solid green;"">","null","","","","","","","","","",""
"","image-keyboard-response","268","75117","0.0-358.0","326O153BMJK441XZIYRSPOBYRKFEDF","A2M2U7XUBA4CAN","3UUIU9GZC5R93N292LT21FRJ9VS5TN","","368.7999999523163","img/food4.png","75","369.5999999642372","2","1","","2","1","1,0.5,0,1,0.5,0,0.5,0,1","0,1,0.5,0,1,0.5,1,0.5,0","3",""
"","html-keyboard-response","269","75418","0.0-359.0","326O153BMJK441XZIYRSPOBYRKFEDF","A2M2U7XUBA4CAN","3UUIU9GZC5R93N292LT21FRJ9VS5TN","","null","<img src=""img/food4.png"" style=""width:200px; border:14px solid green;"">","null","","","","","","","","","",""
"","image-keyboard-response","270","75494","0.0-360.0","326O153BMJK441XZIYRSPOBYRKFEDF","A2M2U7XUBA4CAN","3UUIU9GZC5R93N292LT21FRJ9VS5TN","","74.69999998807907","img/food4.png","75","75.30000001192093","2","1","","2","1","1,0.5,0,1,0.5,0,0.5,0,1","0,1,0.5,0,1,0.5,1,0.5,0","3",""
"","html-keyboard-response","271","75796","0.0-361.0","326O153BMJK441XZIYRSPOBYRKFEDF","A2M2U7XUBA4CAN","3UUIU9GZC5R93N292LT21FRJ9VS5TN","","null","<img src=""img/food4.png"" style=""width:200px; border:14px solid green;"">","null","","","","","","","","","",""
"","image-keyboard-response","272","75885","0.0-362.0","326O153BMJK441XZIYRSPOBYRKFEDF","A2M2U7XUBA4CAN","3UUIU9GZC5R93N292LT21FRJ9VS5TN","","88.39999997615814","img/food4.png","75","88.89999997615814","2","1","","2","1","1,0.5,0,1,0.5,0,0.5,0,1","0,1,0.5,0,1,0.5,1,0.5,0","3",""
"","html-keyboard-response","273","76186","0.0-363.0","326O153BMJK441XZIYRSPOBYRKFEDF","A2M2U7XUBA4CAN","3UUIU9GZC5R93N292LT21FRJ9VS5TN","","null","<img src=""img/food4.png"" style=""width:200px; border:14px solid green;"">","null","","","","","","","","","",""
"","image-keyboard-response","274","76270","0.0-364.0","326O153BMJK441XZIYRSPOBYRKFEDF","A2M2U7XUBA4CAN","3UUIU9GZC5R93N292LT21FRJ9VS5TN","","83.10000002384186","img/food4.png","75","83.69999998807907","2","1","","2","1","1,0.5,0,1,0.5,0,0.5,0,1","0,1,0.5,0,1,0.5,1,0.5,0","3",""
"","html-keyboard-response","275","76577","0.0-365.0","326O153BMJK441XZIYRSPOBYRKFEDF","A2M2U7XUBA4CAN","3UUIU9GZC5R93N292LT21FRJ9VS5TN","","null","<img src=""img/food4.png"" style=""width:200px; border:14px solid green;"">","null","","","","","","","","","",""
"","image-keyboard-response","276","76653","0.0-366.0","326O153BMJK441XZIYRSPOBYRKFEDF","A2M2U7XUBA4CAN","3UUIU9GZC5R93N292LT21FRJ9VS5TN","","75.40000003576279","img/food4.png","75","76","2","1","","2","1","1,0.5,0,1,0.5,0,0.5,0,1","0,1,0.5,0,1,0.5,1,0.5,0","3",""
"","html-keyboard-response","277","76955","0.0-367.0","326O153BMJK441XZIYRSPOBYRKFEDF","A2M2U7XUBA4CAN","3UUIU9GZC5R93N292LT21FRJ9VS5TN","","null","<img src=""img/food4.png"" style=""width:200px; border:14px solid green;"">","null","","","","","","","","","",""
"","image-keyboard-response","278","76997","0.0-368.0","326O153BMJK441XZIYRSPOBYRKFEDF","A2M2U7XUBA4CAN","3UUIU9GZC5R93N292LT21FRJ9VS5TN","","41.90000003576279","img/food4.png","75","42.60000002384186","2","1","","2","1","1,0.5,0,1,0.5,0,0.5,0,1","0,1,0.5,0,1,0.5,1,0.5,0","3",""
"","html-keyboard-response","279","77303","0.0-369.0","326O153BMJK441XZIYRSPOBYRKFEDF","A2M2U7XUBA4CAN","3UUIU9GZC5R93N292LT21FRJ9VS5TN","","null","<img src=""img/food4.png"" style=""width:200px; border:14px solid green;"">","null","","","","","","","","","",""
"","image-keyboard-response","280","77373","0.0-370.0","326O153BMJK441XZIYRSPOBYRKFEDF","A2M2U7XUBA4CAN","3UUIU9GZC5R93N292LT21FRJ9VS5TN","","70","img/food4.png","75","70.59999996423721","2","1","","2","1","1,0.5,0,1,0.5,0,0.5,0,1","0,1,0.5,0,1,0.5,1,0.5,0","3",""
"","html-keyboard-response","281","77674","0.0-371.0","326O153BMJK441XZIYRSPOBYRKFEDF","A2M2U7XUBA4CAN","3UUIU9GZC5R93N292LT21FRJ9VS5TN","","null","<img src=""img/food4.png"" style=""width:200px; border:14px solid green;"">","null","","","","","","","","","",""
"","image-keyboard-response","282","77773","0.0-372.0","326O153BMJK441XZIYRSPOBYRKFEDF","A2M2U7XUBA4CAN","3UUIU9GZC5R93N292LT21FRJ9VS5TN","","98.60000002384186","img/food4.png","75","99.19999998807907","2","1","","2","1","1,0.5,0,1,0.5,0,0.5,0,1","0,1,0.5,0,1,0.5,1,0.5,0","3",""
"","html-keyboard-response","283","78075","0.0-373.0","326O153BMJK441XZIYRSPOBYRKFEDF","A2M2U7XUBA4CAN","3UUIU9GZC5R93N292LT21FRJ9VS5TN","","null","<img src=""img/food4.png"" style=""width:200px; border:14px solid green;"">","null","","","","","","","","","",""
"","image-keyboard-response","284","78133","0.0-374.0","326O153BMJK441XZIYRSPOBYRKFEDF","A2M2U7XUBA4CAN","3UUIU9GZC5R93N292LT21FRJ9VS5TN","","57.799999952316284","img/food3.png","75","58.5","2","0","","3","1","1,0.5,0,1,0.5,0,0.5,0,1","0,1,0.5,0,1,0.5,1,0.5,0","3",""
"","html-keyboard-response","285","78434","0.0-375.0","326O153BMJK441XZIYRSPOBYRKFEDF","A2M2U7XUBA4CAN","3UUIU9GZC5R93N292LT21FRJ9VS5TN","","null","<img src=""img/food3.png"" style=""width:200px;border:14px solid red;"">","null","","","","","","","","","",""
"","image-keyboard-response","286","78549","0.0-376.0","326O153BMJK441XZIYRSPOBYRKFEDF","A2M2U7XUBA4CAN","3UUIU9GZC5R93N292LT21FRJ9VS5TN","","114","img/food3.png","74","114.79999995231628","1","1","","3","1","1,0.5,0,1,0.5,0,0.5,0,1","0,1,0.5,0,1,0.5,1,0.5,0","3",""
"","html-keyboard-response","287","78850","0.0-377.0","326O153BMJK441XZIYRSPOBYRKFEDF","A2M2U7XUBA4CAN","3UUIU9GZC5R93N292LT21FRJ9VS5TN","","null","<img src=""img/food3.png"" style=""width:200px; border:14px solid green;"">","null","","","","","","","","","",""
"","image-keyboard-response","288","78933","0.0-378.0","326O153BMJK441XZIYRSPOBYRKFEDF","A2M2U7XUBA4CAN","3UUIU9GZC5R93N292LT21FRJ9VS5TN","","82.10000002384186","img/food3.png","75","82.79999995231628","2","0","","3","1","1,0.5,0,1,0.5,0,0.5,0,1","0,1,0.5,0,1,0.5,1,0.5,0","3",""
"","html-keyboard-response","289","79235","0.0-379.0","326O153BMJK441XZIYRSPOBYRKFEDF","A2M2U7XUBA4CAN","3UUIU9GZC5R93N292LT21FRJ9VS5TN","","null","<img src=""img/food3.png"" style=""width:200px;border:14px solid red;"">","null","","","","","","","","","",""
"","image-keyboard-response","290","79629","0.0-380.0","326O153BMJK441XZIYRSPOBYRKFEDF","A2M2U7XUBA4CAN","3UUIU9GZC5R93N292LT21FRJ9VS5TN","","393.4000000357628","img/food3.png","76","394.0999999642372","3","0","","3","1","1,0.5,0,1,0.5,0,0.5,0,1","0,1,0.5,0,1,0.5,1,0.5,0","3",""
"","html-keyboard-response","291","79932","0.0-381.0","326O153BMJK441XZIYRSPOBYRKFEDF","A2M2U7XUBA4CAN","3UUIU9GZC5R93N292LT21FRJ9VS5TN","","null","<img src=""img/food3.png"" style=""width:200px;border:14px solid red;"">","null","","","","","","","","","",""
"","image-keyboard-response","292","79933","0.0-382.0","326O153BMJK441XZIYRSPOBYRKFEDF","A2M2U7XUBA4CAN","3UUIU9GZC5R93N292LT21FRJ9VS5TN","","1","img/food4.png","75","1.699999988079071","2","1","","2","1","1,0.5,0,1,0.5,0,0.5,0,1","0,1,0.5,0,1,0.5,1,0.5,0","3",""
"","html-keyboard-response","293","80235","0.0-383.0","326O153BMJK441XZIYRSPOBYRKFEDF","A2M2U7XUBA4CAN","3UUIU9GZC5R93N292LT21FRJ9VS5TN","","null","<img src=""img/food4.png"" style=""width:200px; border:14px solid green;"">","null","","","","","","","","","",""
"","image-keyboard-response","294","80290","0.0-384.0","326O153BMJK441XZIYRSPOBYRKFEDF","A2M2U7XUBA4CAN","3UUIU9GZC5R93N292LT21FRJ9VS5TN","","54.5","img/food5.png","74","55.19999998807907","1","0","","1","1","1,0.5,0,1,0.5,0,0.5,0,1","0,1,0.5,0,1,0.5,1,0.5,0","3",""
"","html-keyboard-response","295","80592","0.0-385.0","326O153BMJK441XZIYRSPOBYRKFEDF","A2M2U7XUBA4CAN","3UUIU9GZC5R93N292LT21FRJ9VS5TN","","null","<img src=""img/food5.png"" style=""width:200px;border:14px solid red;"">","null","","","","","","","","","",""
"","image-keyboard-response","296","80917","0.0-386.0","326O153BMJK441XZIYRSPOBYRKFEDF","A2M2U7XUBA4CAN","3UUIU9GZC5R93N292LT21FRJ9VS5TN","","325","img/food5.png","75","325.69999998807907","2","1","","1","1","1,0.5,0,1,0.5,0,0.5,0,1","0,1,0.5,0,1,0.5,1,0.5,0","3",""
"","html-keyboard-response","297","81219","0.0-387.0","326O153BMJK441XZIYRSPOBYRKFEDF","A2M2U7XUBA4CAN","3UUIU9GZC5R93N292LT21FRJ9VS5TN","","null","<img src=""img/food5.png"" style=""width:200px; border:14px solid green;"">","null","","","","","","","","","",""
"","image-keyboard-response","298","81789","0.0-388.0","326O153BMJK441XZIYRSPOBYRKFEDF","A2M2U7XUBA4CAN","3UUIU9GZC5R93N292LT21FRJ9VS5TN","","570","img/food3.png","75","570.6000000238419","2","1","","3","1","1,0.5,0,1,0.5,0,0.5,0,1","0,1,0.5,0,1,0.5,1,0.5,0","3",""
"","html-keyboard-response","299","82091","0.0-389.0","326O153BMJK441XZIYRSPOBYRKFEDF","A2M2U7XUBA4CAN","3UUIU9GZC5R93N292LT21FRJ9VS5TN","","null","<img src=""img/food3.png"" style=""width:200px; border:14px solid green;"">","null","","","","","","","","","",""
"","image-keyboard-response","300","82461","0.0-390.0","326O153BMJK441XZIYRSPOBYRKFEDF","A2M2U7XUBA4CAN","3UUIU9GZC5R93N292LT21FRJ9VS5TN","","369.30000001192093","img/food4.png","75","370.0999999642372","2","1","","2","1","1,0.5,0,1,0.5,0,0.5,0,1","0,1,0.5,0,1,0.5,1,0.5,0","3",""
"","html-keyboard-response","301","82763","0.0-391.0","326O153BMJK441XZIYRSPOBYRKFEDF","A2M2U7XUBA4CAN","3UUIU9GZC5R93N292LT21FRJ9VS5TN","","null","<img src=""img/food4.png"" style=""width:200px; border:14px solid green;"">","null","","","","","","","","","",""
"","image-keyboard-response","302","83125","0.0-392.0","326O153BMJK441XZIYRSPOBYRKFEDF","A2M2U7XUBA4CAN","3UUIU9GZC5R93N292LT21FRJ9VS5TN","","361.19999998807907","img/food5.png","75","361.9000000357628","2","1","","1","1","1,0.5,0,1,0.5,0,0.5,0,1","0,1,0.5,0,1,0.5,1,0.5,0","3",""
"","html-keyboard-response","303","83426","0.0-393.0","326O153BMJK441XZIYRSPOBYRKFEDF","A2M2U7XUBA4CAN","3UUIU9GZC5R93N292LT21FRJ9VS5TN","","null","<img src=""img/food5.png"" style=""width:200px; border:14px solid green;"">","null","","","","","","","","","",""
"","image-keyboard-response","304","83549","0.0-394.0","326O153BMJK441XZIYRSPOBYRKFEDF","A2M2U7XUBA4CAN","3UUIU9GZC5R93N292LT21FRJ9VS5TN","","122.40000003576279","img/food3.png","75","122.90000003576279","2","1","","3","1","1,0.5,0,1,0.5,0,0.5,0,1","0,1,0.5,0,1,0.5,1,0.5,0","3",""
"","html-keyboard-response","305","83852","0.0-395.0","326O153BMJK441XZIYRSPOBYRKFEDF","A2M2U7XUBA4CAN","3UUIU9GZC5R93N292LT21FRJ9VS5TN","","null","<img src=""img/food3.png"" style=""width:200px; border:14px solid green;"">","null","","","","","","","","","",""
"","image-keyboard-response","306","84005","0.0-396.0","326O153BMJK441XZIYRSPOBYRKFEDF","A2M2U7XUBA4CAN","3UUIU9GZC5R93N292LT21FRJ9VS5TN","","152.89999997615814","img/food4.png","75","153.60000002384186","2","1","","2","1","1,0.5,0,1,0.5,0,0.5,0,1","0,1,0.5,0,1,0.5,1,0.5,0","3",""
"","html-keyboard-response","307","84307","0.0-397.0","326O153BMJK441XZIYRSPOBYRKFEDF","A2M2U7XUBA4CAN","3UUIU9GZC5R93N292LT21FRJ9VS5TN","","null","<img src=""img/food4.png"" style=""width:200px; border:14px solid green;"">","null","","","","","","","","","",""
"","image-keyboard-response","308","84453","0.0-398.0","326O153BMJK441XZIYRSPOBYRKFEDF","A2M2U7XUBA4CAN","3UUIU9GZC5R93N292LT21FRJ9VS5TN","","145","img/food4.png","75","145.60000002384186","2","1","","2","1","1,0.5,0,1,0.5,0,0.5,0,1","0,1,0.5,0,1,0.5,1,0.5,0","3",""
"","html-keyboard-response","309","84755","0.0-399.0","326O153BMJK441XZIYRSPOBYRKFEDF","A2M2U7XUBA4CAN","3UUIU9GZC5R93N292LT21FRJ9VS5TN","","null","<img src=""img/food4.png"" style=""width:200px; border:14px solid green;"">","null","","","","","","","","","",""
"","image-keyboard-response","310","84861","0.0-400.0","326O153BMJK441XZIYRSPOBYRKFEDF","A2M2U7XUBA4CAN","3UUIU9GZC5R93N292LT21FRJ9VS5TN","","105.59999996423721","img/food4.png","75","106.39999997615814","2","1","","2","1","1,0.5,0,1,0.5,0,0.5,0,1","0,1,0.5,0,1,0.5,1,0.5,0","3",""
"","html-keyboard-response","311","85163","0.0-401.0","326O153BMJK441XZIYRSPOBYRKFEDF","A2M2U7XUBA4CAN","3UUIU9GZC5R93N292LT21FRJ9VS5TN","","null","<img src=""img/food4.png"" style=""width:200px; border:14px solid green;"">","null","","","","","","","","","",""
"","image-keyboard-response","312","85278","0.0-402.0","326O153BMJK441XZIYRSPOBYRKFEDF","A2M2U7XUBA4CAN","3UUIU9GZC5R93N292LT21FRJ9VS5TN","","114.09999996423721","img/food4.png","75","114.69999998807907","2","1","","2","1","1,0.5,0,1,0.5,0,0.5,0,1","0,1,0.5,0,1,0.5,1,0.5,0","3",""
"","html-keyboard-response","313","85582","0.0-403.0","326O153BMJK441XZIYRSPOBYRKFEDF","A2M2U7XUBA4CAN","3UUIU9GZC5R93N292LT21FRJ9VS5TN","","null","<img src=""img/food4.png"" style=""width:200px; border:14px solid green;"">","null","","","","","","","","","",""
"","image-keyboard-response","314","85717","0.0-404.0","326O153BMJK441XZIYRSPOBYRKFEDF","A2M2U7XUBA4CAN","3UUIU9GZC5R93N292LT21FRJ9VS5TN","","134.70000004768372","img/food5.png","75","135.5","2","1","","1","1","1,0.5,0,1,0.5,0,0.5,0,1","0,1,0.5,0,1,0.5,1,0.5,0","3",""
"","html-keyboard-response","315","86018","0.0-405.0","326O153BMJK441XZIYRSPOBYRKFEDF","A2M2U7XUBA4CAN","3UUIU9GZC5R93N292LT21FRJ9VS5TN","","null","<img src=""img/food5.png"" style=""width:200px; border:14px solid green;"">","null","","","","","","","","","",""
"","image-keyboard-response","316","86189","0.0-406.0","326O153BMJK441XZIYRSPOBYRKFEDF","A2M2U7XUBA4CAN","3UUIU9GZC5R93N292LT21FRJ9VS5TN","","169.9000000357628","img/food3.png","74","170.5","1","1","","3","1","1,0.5,0,1,0.5,0,0.5,0,1","0,1,0.5,0,1,0.5,1,0.5,0","3",""
"","html-keyboard-response","317","86491","0.0-407.0","326O153BMJK441XZIYRSPOBYRKFEDF","A2M2U7XUBA4CAN","3UUIU9GZC5R93N292LT21FRJ9VS5TN","","null","<img src=""img/food3.png"" style=""width:200px; border:14px solid green;"">","null","","","","","","","","","",""
"","image-keyboard-response","318","86549","0.0-408.0","326O153BMJK441XZIYRSPOBYRKFEDF","A2M2U7XUBA4CAN","3UUIU9GZC5R93N292LT21FRJ9VS5TN","","57.69999998807907","img/food3.png","75","58.19999998807907","2","0","","3","1","1,0.5,0,1,0.5,0,0.5,0,1","0,1,0.5,0,1,0.5,1,0.5,0","3",""
"","html-keyboard-response","319","86851","0.0-409.0","326O153BMJK441XZIYRSPOBYRKFEDF","A2M2U7XUBA4CAN","3UUIU9GZC5R93N292LT21FRJ9VS5TN","","null","<img src=""img/food3.png"" style=""width:200px;border:14px solid red;"">","null","","","","","","","","","",""
"","image-keyboard-response","320","86982","0.0-410.0","326O153BMJK441XZIYRSPOBYRKFEDF","A2M2U7XUBA4CAN","3UUIU9GZC5R93N292LT21FRJ9VS5TN","","130","img/food3.png","76","130.80000001192093","3","0","","3","1","1,0.5,0,1,0.5,0,0.5,0,1","0,1,0.5,0,1,0.5,1,0.5,0","3",""
"","html-keyboard-response","321","87284","0.0-411.0","326O153BMJK441XZIYRSPOBYRKFEDF","A2M2U7XUBA4CAN","3UUIU9GZC5R93N292LT21FRJ9VS5TN","","null","<img src=""img/food3.png"" style=""width:200px;border:14px solid red;"">","null","","","","","","","","","",""
"","image-keyboard-response","322","87373","0.0-412.0","326O153BMJK441XZIYRSPOBYRKFEDF","A2M2U7XUBA4CAN","3UUIU9GZC5R93N292LT21FRJ9VS5TN","","88.39999997615814","img/food4.png","75","89","2","1","","2","1","1,0.5,0,1,0.5,0,0.5,0,1","0,1,0.5,0,1,0.5,1,0.5,0","3",""
"","html-keyboard-response","323","87675","0.0-413.0","326O153BMJK441XZIYRSPOBYRKFEDF","A2M2U7XUBA4CAN","3UUIU9GZC5R93N292LT21FRJ9VS5TN","","null","<img src=""img/food4.png"" style=""width:200px; border:14px solid green;"">","null","","","","","","","","","",""
"","image-keyboard-response","324","87773","0.0-414.0","326O153BMJK441XZIYRSPOBYRKFEDF","A2M2U7XUBA4CAN","3UUIU9GZC5R93N292LT21FRJ9VS5TN","","97.80000001192093","img/food5.png","74","98.5","1","0","","1","1","1,0.5,0,1,0.5,0,0.5,0,1","0,1,0.5,0,1,0.5,1,0.5,0","3",""
"","html-keyboard-response","325","88075","0.0-415.0","326O153BMJK441XZIYRSPOBYRKFEDF","A2M2U7XUBA4CAN","3UUIU9GZC5R93N292LT21FRJ9VS5TN","","null","<img src=""img/food5.png"" style=""width:200px;border:14px solid red;"">","null","","","","","","","","","",""
"","image-keyboard-response","326","88333","0.0-416.0","326O153BMJK441XZIYRSPOBYRKFEDF","A2M2U7XUBA4CAN","3UUIU9GZC5R93N292LT21FRJ9VS5TN","","257.5","img/food3.png","75","258.2999999523163","2","0","","3","1","1,0.5,0,1,0.5,0,0.5,0,1","0,1,0.5,0,1,0.5,1,0.5,0","3",""
"","html-keyboard-response","327","88634","0.0-417.0","326O153BMJK441XZIYRSPOBYRKFEDF","A2M2U7XUBA4CAN","3UUIU9GZC5R93N292LT21FRJ9VS5TN","","null","<img src=""img/food3.png"" style=""width:200px;border:14px solid red;"">","null","","","","","","","","","",""
"","image-keyboard-response","328","88765","0.0-418.0","326O153BMJK441XZIYRSPOBYRKFEDF","A2M2U7XUBA4CAN","3UUIU9GZC5R93N292LT21FRJ9VS5TN","","130.20000004768372","img/food5.png","75","130.5999999642372","2","1","","1","1","1,0.5,0,1,0.5,0,0.5,0,1","0,1,0.5,0,1,0.5,1,0.5,0","3",""
"","html-keyboard-response","329","89066","0.0-419.0","326O153BMJK441XZIYRSPOBYRKFEDF","A2M2U7XUBA4CAN","3UUIU9GZC5R93N292LT21FRJ9VS5TN","","null","<img src=""img/food5.png"" style=""width:200px; border:14px solid green;"">","null","","","","","","","","","",""
"","image-keyboard-response","330","89229","0.0-420.0","326O153BMJK441XZIYRSPOBYRKFEDF","A2M2U7XUBA4CAN","3UUIU9GZC5R93N292LT21FRJ9VS5TN","","162.5","img/food5.png","76","163","3","0","","1","1","1,0.5,0,1,0.5,0,0.5,0,1","0,1,0.5,0,1,0.5,1,0.5,0","3",""
"","html-keyboard-response","331","89531","0.0-421.0","326O153BMJK441XZIYRSPOBYRKFEDF","A2M2U7XUBA4CAN","3UUIU9GZC5R93N292LT21FRJ9VS5TN","","null","<img src=""img/food5.png"" style=""width:200px;border:14px solid red;"">","null","","","","","","","","","",""
"","image-keyboard-response","332","89582","0.0-422.0","326O153BMJK441XZIYRSPOBYRKFEDF","A2M2U7XUBA4CAN","3UUIU9GZC5R93N292LT21FRJ9VS5TN","","49.69999998807907","img/food4.png","74","50.10000002384186","1","0","","2","1","1,0.5,0,1,0.5,0,0.5,0,1","0,1,0.5,0,1,0.5,1,0.5,0","3",""
"","html-keyboard-response","333","89884","0.0-423.0","326O153BMJK441XZIYRSPOBYRKFEDF","A2M2U7XUBA4CAN","3UUIU9GZC5R93N292LT21FRJ9VS5TN","","null","<img src=""img/food4.png"" style=""width:200px;border:14px solid red;"">","null","","","","","","","","","",""
"","image-keyboard-response","334","89966","0.0-424.0","326O153BMJK441XZIYRSPOBYRKFEDF","A2M2U7XUBA4CAN","3UUIU9GZC5R93N292LT21FRJ9VS5TN","","80.39999997615814","img/food5.png","75","81","2","1","","1","1","1,0.5,0,1,0.5,0,0.5,0,1","0,1,0.5,0,1,0.5,1,0.5,0","3",""
"","html-keyboard-response","335","90267","0.0-425.0","326O153BMJK441XZIYRSPOBYRKFEDF","A2M2U7XUBA4CAN","3UUIU9GZC5R93N292LT21FRJ9VS5TN","","null","<img src=""img/food5.png"" style=""width:200px; border:14px solid green;"">","null","","","","","","","","","",""
"","image-keyboard-response","336","90382","0.0-426.0","326O153BMJK441XZIYRSPOBYRKFEDF","A2M2U7XUBA4CAN","3UUIU9GZC5R93N292LT21FRJ9VS5TN","","114.09999996423721","img/food5.png","75","114.59999996423721","2","1","","1","1","1,0.5,0,1,0.5,0,0.5,0,1","0,1,0.5,0,1,0.5,1,0.5,0","3",""
"","html-keyboard-response","337","90683","0.0-427.0","326O153BMJK441XZIYRSPOBYRKFEDF","A2M2U7XUBA4CAN","3UUIU9GZC5R93N292LT21FRJ9VS5TN","","null","<img src=""img/food5.png"" style=""width:200px; border:14px solid green;"">","null","","","","","","","","","",""
"","image-keyboard-response","338","90805","0.0-428.0","326O153BMJK441XZIYRSPOBYRKFEDF","A2M2U7XUBA4CAN","3UUIU9GZC5R93N292LT21FRJ9VS5TN","","120.79999995231628","img/food4.png","75","121.59999996423721","2","1","","2","1","1,0.5,0,1,0.5,0,0.5,0,1","0,1,0.5,0,1,0.5,1,0.5,0","3",""
"","html-keyboard-response","339","91107","0.0-429.0","326O153BMJK441XZIYRSPOBYRKFEDF","A2M2U7XUBA4CAN","3UUIU9GZC5R93N292LT21FRJ9VS5TN","","null","<img src=""img/food4.png"" style=""width:200px; border:14px solid green;"">","null","","","","","","","","","",""
"","image-keyboard-response","340","91221","0.0-430.0","326O153BMJK441XZIYRSPOBYRKFEDF","A2M2U7XUBA4CAN","3UUIU9GZC5R93N292LT21FRJ9VS5TN","","113.60000002384186","img/food3.png","75","114.19999998807907","2","0","","3","1","1,0.5,0,1,0.5,0,0.5,0,1","0,1,0.5,0,1,0.5,1,0.5,0","3",""
"","html-keyboard-response","341","91523","0.0-431.0","326O153BMJK441XZIYRSPOBYRKFEDF","A2M2U7XUBA4CAN","3UUIU9GZC5R93N292LT21FRJ9VS5TN","","null","<img src=""img/food3.png"" style=""width:200px;border:14px solid red;"">","null","","","","","","","","","",""
"","image-keyboard-response","342","91581","0.0-432.0","326O153BMJK441XZIYRSPOBYRKFEDF","A2M2U7XUBA4CAN","3UUIU9GZC5R93N292LT21FRJ9VS5TN","","57.30000001192093","img/food3.png","76","57.89999997615814","3","0","","3","1","1,0.5,0,1,0.5,0,0.5,0,1","0,1,0.5,0,1,0.5,1,0.5,0","3",""
"","html-keyboard-response","343","91883","0.0-433.0","326O153BMJK441XZIYRSPOBYRKFEDF","A2M2U7XUBA4CAN","3UUIU9GZC5R93N292LT21FRJ9VS5TN","","null","<img src=""img/food3.png"" style=""width:200px;border:14px solid red;"">","null","","","","","","","","","",""
"","image-keyboard-response","344","91965","0.0-434.0","326O153BMJK441XZIYRSPOBYRKFEDF","A2M2U7XUBA4CAN","3UUIU9GZC5R93N292LT21FRJ9VS5TN","","81.30000001192093","img/food4.png","74","81.90000003576279","1","0","","2","1","1,0.5,0,1,0.5,0,0.5,0,1","0,1,0.5,0,1,0.5,1,0.5,0","3",""
"","html-keyboard-response","345","92267","0.0-435.0","326O153BMJK441XZIYRSPOBYRKFEDF","A2M2U7XUBA4CAN","3UUIU9GZC5R93N292LT21FRJ9VS5TN","","null","<img src=""img/food4.png"" style=""width:200px;border:14px solid red;"">","null","","","","","","","","","",""
"","image-keyboard-response","346","92325","0.0-436.0","326O153BMJK441XZIYRSPOBYRKFEDF","A2M2U7XUBA4CAN","3UUIU9GZC5R93N292LT21FRJ9VS5TN","","57.5","img/food5.png","75","58.09999996423721","2","1","","1","1","1,0.5,0,1,0.5,0,0.5,0,1","0,1,0.5,0,1,0.5,1,0.5,0","3",""
"","html-keyboard-response","347","92627","0.0-437.0","326O153BMJK441XZIYRSPOBYRKFEDF","A2M2U7XUBA4CAN","3UUIU9GZC5R93N292LT21FRJ9VS5TN","","null","<img src=""img/food5.png"" style=""width:200px; border:14px solid green;"">","null","","","","","","","","","",""
"","image-keyboard-response","348","92741","0.0-438.0","326O153BMJK441XZIYRSPOBYRKFEDF","A2M2U7XUBA4CAN","3UUIU9GZC5R93N292LT21FRJ9VS5TN","","113.80000001192093","img/food3.png","75","114.39999997615814","2","0","","3","1","1,0.5,0,1,0.5,0,0.5,0,1","0,1,0.5,0,1,0.5,1,0.5,0","3",""
"","html-keyboard-response","349","93043","0.0-439.0","326O153BMJK441XZIYRSPOBYRKFEDF","A2M2U7XUBA4CAN","3UUIU9GZC5R93N292LT21FRJ9VS5TN","","null","<img src=""img/food3.png"" style=""width:200px;border:14px solid red;"">","null","","","","","","","","","",""
"","image-keyboard-response","350","93133","0.0-440.0","326O153BMJK441XZIYRSPOBYRKFEDF","A2M2U7XUBA4CAN","3UUIU9GZC5R93N292LT21FRJ9VS5TN","","88.90000003576279","img/food4.png","76","89.5","3","1","","2","1","1,0.5,0,1,0.5,0,0.5,0,1","0,1,0.5,0,1,0.5,1,0.5,0","3",""
"","html-keyboard-response","351","93435","0.0-441.0","326O153BMJK441XZIYRSPOBYRKFEDF","A2M2U7XUBA4CAN","3UUIU9GZC5R93N292LT21FRJ9VS5TN","","null","<img src=""img/food4.png"" style=""width:200px; border:14px solid green;"">","null","","","","","","","","","",""
"","image-keyboard-response","352","93477","0.0-442.0","326O153BMJK441XZIYRSPOBYRKFEDF","A2M2U7XUBA4CAN","3UUIU9GZC5R93N292LT21FRJ9VS5TN","","41.30000001192093","img/food3.png","74","41.69999998807907","1","1","","3","1","1,0.5,0,1,0.5,0,0.5,0,1","0,1,0.5,0,1,0.5,1,0.5,0","3",""
"","html-keyboard-response","353","93778","0.0-443.0","326O153BMJK441XZIYRSPOBYRKFEDF","A2M2U7XUBA4CAN","3UUIU9GZC5R93N292LT21FRJ9VS5TN","","null","<img src=""img/food3.png"" style=""width:200px; border:14px solid green;"">","null","","","","","","","","","",""
"","image-keyboard-response","354","93821","0.0-444.0","326O153BMJK441XZIYRSPOBYRKFEDF","A2M2U7XUBA4CAN","3UUIU9GZC5R93N292LT21FRJ9VS5TN","","42.30000001192093","img/food4.png","76","43.10000002384186","3","1","","2","1","1,0.5,0,1,0.5,0,0.5,0,1","0,1,0.5,0,1,0.5,1,0.5,0","3",""
"","html-keyboard-response","355","94124","0.0-445.0","326O153BMJK441XZIYRSPOBYRKFEDF","A2M2U7XUBA4CAN","3UUIU9GZC5R93N292LT21FRJ9VS5TN","","null","<img src=""img/food4.png"" style=""width:200px; border:14px solid green;"">","null","","","","","","","","","",""
"","image-keyboard-response","356","94229","0.0-446.0","326O153BMJK441XZIYRSPOBYRKFEDF","A2M2U7XUBA4CAN","3UUIU9GZC5R93N292LT21FRJ9VS5TN","","104.69999998807907","img/food5.png","74","105.19999998807907","1","0","","1","1","1,0.5,0,1,0.5,0,0.5,0,1","0,1,0.5,0,1,0.5,1,0.5,0","3",""
"","html-keyboard-response","357","94531","0.0-447.0","326O153BMJK441XZIYRSPOBYRKFEDF","A2M2U7XUBA4CAN","3UUIU9GZC5R93N292LT21FRJ9VS5TN","","null","<img src=""img/food5.png"" style=""width:200px;border:14px solid red;"">","null","","","","","","","","","",""
"","image-keyboard-response","358","94557","0.0-448.0","326O153BMJK441XZIYRSPOBYRKFEDF","A2M2U7XUBA4CAN","3UUIU9GZC5R93N292LT21FRJ9VS5TN","","25.899999976158142","img/food5.png","76","26.5","3","0","","1","1","1,0.5,0,1,0.5,0,0.5,0,1","0,1,0.5,0,1,0.5,1,0.5,0","3",""
"","html-keyboard-response","359","94858","0.0-449.0","326O153BMJK441XZIYRSPOBYRKFEDF","A2M2U7XUBA4CAN","3UUIU9GZC5R93N292LT21FRJ9VS5TN","","null","<img src=""img/food5.png"" style=""width:200px;border:14px solid red;"">","null","","","","","","","","","",""
"","image-keyboard-response","360","94933","0.0-450.0","326O153BMJK441XZIYRSPOBYRKFEDF","A2M2U7XUBA4CAN","3UUIU9GZC5R93N292LT21FRJ9VS5TN","","74.60000002384186","img/food5.png","75","75.19999998807907","2","1","","1","1","1,0.5,0,1,0.5,0,0.5,0,1","0,1,0.5,0,1,0.5,1,0.5,0","3",""
"","html-keyboard-response","361","95239","0.0-451.0","326O153BMJK441XZIYRSPOBYRKFEDF","A2M2U7XUBA4CAN","3UUIU9GZC5R93N292LT21FRJ9VS5TN","","null","<img src=""img/food5.png"" style=""width:200px; border:14px solid green;"">","null","","","","","","","","","",""
"","image-keyboard-response","362","95381","0.0-452.0","326O153BMJK441XZIYRSPOBYRKFEDF","A2M2U7XUBA4CAN","3UUIU9GZC5R93N292LT21FRJ9VS5TN","","141.30000001192093","img/food3.png","75","142.10000002384186","2","0","","3","1","1,0.5,0,1,0.5,0,0.5,0,1","0,1,0.5,0,1,0.5,1,0.5,0","3",""
"","html-keyboard-response","363","95683","0.0-453.0","326O153BMJK441XZIYRSPOBYRKFEDF","A2M2U7XUBA4CAN","3UUIU9GZC5R93N292LT21FRJ9VS5TN","","null","<img src=""img/food3.png"" style=""width:200px;border:14px solid red;"">","null","","","","","","","","","",""
"","html-keyboard-response","364","97756","0.0-454.0","326O153BMJK441XZIYRSPOBYRKFEDF","A2M2U7XUBA4CAN","3UUIU9GZC5R93N292LT21FRJ9VS5TN","","","","","","","","","","","","","",""
"","instructions","365","101312","0.0-455.0","326O153BMJK441XZIYRSPOBYRKFEDF","A2M2U7XUBA4CAN","3UUIU9GZC5R93N292LT21FRJ9VS5TN","[{""page_index"":0,""viewing_time"":3554.699999988079}]","3554.7999999523163","","","","","","","","","","","",""
"","survey-text","366","109498","0.0-456.0","326O153BMJK441XZIYRSPOBYRKFEDF","A2M2U7XUBA4CAN","3UUIU9GZC5R93N292LT21FRJ9VS5TN","","8183.399999976158","","","","","","","","","","","","{""Q0"":""A2M2U7XUBA4CAN""}"
