"success","trial_type","trial_index","time_elapsed","internal_node_id","assignmentID","mturkID","hitID","view_history","rt","stimulus","key_press","reactionTime","a","r","s","cond","reward_cond","reward_cond_actual","reward_matrix_idx","warning","responses"
"true","fullscreen","0","3474","0.0-0.0","3AZHRG4CU567VJG8H2M1RQNI67R03U","A2MJ0X6M3VSFVN","3WRBLBQ2GRU63BU2LFOJL1G32T90GO","","","","","","","","","","","","","",""
"","instructions","1","30762","0.0-1.0","3AZHRG4CU567VJG8H2M1RQNI67R03U","A2MJ0X6M3VSFVN","3WRBLBQ2GRU63BU2LFOJL1G32T90GO","[{""page_index"":0,""viewing_time"":2666.4000000059605},{""page_index"":1,""viewing_time"":1945.4000000059605},{""page_index"":2,""viewing_time"":1561.300000011921},{""page_index"":3,""viewing_time"":6792.799999982119},{""page_index"":4,""viewing_time"":7145},{""page_index"":5,""viewing_time"":2850.300000011921},{""page_index"":6,""viewing_time"":4310.799999982119}]","27280","","","","","","","","","","","",""
"","image-keyboard-response","2","33005","0.0-2.0","3AZHRG4CU567VJG8H2M1RQNI67R03U","A2MJ0X6M3VSFVN","3WRBLBQ2GRU63BU2LFOJL1G32T90GO","","2232.5999999940395","img/food4.png","74","2242.2000000178814","1","0","1","1","1,0.5,0,1,0.5,0,0.5,0,1","0.5,0,1,0.5,0,1,0,1,0.5","2","",""
"","html-keyboard-response","3","33315","0.0-3.0","3AZHRG4CU567VJG8H2M1RQNI67R03U","A2MJ0X6M3VSFVN","3WRBLBQ2GRU63BU2LFOJL1G32T90GO","","null","<img src=""img/food4.png"" style=""width:200px;border:14px solid red;"">","null","","","","","","","","","",""
"","image-keyboard-response","4","34721","0.0-4.0","3AZHRG4CU567VJG8H2M1RQNI67R03U","A2MJ0X6M3VSFVN","3WRBLBQ2GRU63BU2LFOJL1G32T90GO","","1400.5999999940395","img/food4.png","74","1404.2999999821186","1","0","1","1","1,0.5,0,1,0.5,0,0.5,0,1","0.5,0,1,0.5,0,1,0,1,0.5","2","",""
"","html-keyboard-response","5","35029","0.0-5.0","3AZHRG4CU567VJG8H2M1RQNI67R03U","A2MJ0X6M3VSFVN","3WRBLBQ2GRU63BU2LFOJL1G32T90GO","","null","<img src=""img/food4.png"" style=""width:200px;border:14px solid red;"">","null","","","","","","","","","",""
"","image-keyboard-response","6","35212","0.0-6.0","3AZHRG4CU567VJG8H2M1RQNI67R03U","A2MJ0X6M3VSFVN","3WRBLBQ2GRU63BU2LFOJL1G32T90GO","","175.90000000596046","img/food3.png","75","180.59999999403954","2","0","2","1","1,0.5,0,1,0.5,0,0.5,0,1","0.5,0,1,0.5,0,1,0,1,0.5","2","",""
"","html-keyboard-response","7","35522","0.0-7.0","3AZHRG4CU567VJG8H2M1RQNI67R03U","A2MJ0X6M3VSFVN","3WRBLBQ2GRU63BU2LFOJL1G32T90GO","","null","<img src=""img/food3.png"" style=""width:200px;border:14px solid red;"">","null","","","","","","","","","",""
"","image-keyboard-response","8","36058","0.0-8.0","3AZHRG4CU567VJG8H2M1RQNI67R03U","A2MJ0X6M3VSFVN","3WRBLBQ2GRU63BU2LFOJL1G32T90GO","","529.4000000059605","img/food3.png","75","533.1999999880791","2","0","2","1","1,0.5,0,1,0.5,0,0.5,0,1","0.5,0,1,0.5,0,1,0,1,0.5","2","",""
"","html-keyboard-response","9","36370","0.0-9.0","3AZHRG4CU567VJG8H2M1RQNI67R03U","A2MJ0X6M3VSFVN","3WRBLBQ2GRU63BU2LFOJL1G32T90GO","","null","<img src=""img/food3.png"" style=""width:200px;border:14px solid red;"">","null","","","","","","","","","",""
"","image-keyboard-response","10","36698","0.0-10.0","3AZHRG4CU567VJG8H2M1RQNI67R03U","A2MJ0X6M3VSFVN","3WRBLBQ2GRU63BU2LFOJL1G32T90GO","","321.40000000596046","img/food3.png","76","325.5","3","1","2","1","1,0.5,0,1,0.5,0,0.5,0,1","0.5,0,1,0.5,0,1,0,1,0.5","2","",""
"","html-keyboard-response","11","37005","0.0-11.0","3AZHRG4CU567VJG8H2M1RQNI67R03U","A2MJ0X6M3VSFVN","3WRBLBQ2GRU63BU2LFOJL1G32T90GO","","null","<img src=""img/food3.png"" style=""width:200px; border:14px solid green;"">","null","","","","","","","","","",""
"","image-keyboard-response","12","37708","0.0-12.0","3AZHRG4CU567VJG8H2M1RQNI67R03U","A2MJ0X6M3VSFVN","3WRBLBQ2GRU63BU2LFOJL1G32T90GO","","695.6999999880791","img/food4.png","75","702.2000000178814","2","0","1","1","1,0.5,0,1,0.5,0,0.5,0,1","0.5,0,1,0.5,0,1,0,1,0.5","2","",""
"","html-keyboard-response","13","38016","0.0-13.0","3AZHRG4CU567VJG8H2M1RQNI67R03U","A2MJ0X6M3VSFVN","3WRBLBQ2GRU63BU2LFOJL1G32T90GO","","null","<img src=""img/food4.png"" style=""width:200px;border:14px solid red;"">","null","","","","","","","","","",""
"","image-keyboard-response","14","38332","0.0-14.0","3AZHRG4CU567VJG8H2M1RQNI67R03U","A2MJ0X6M3VSFVN","3WRBLBQ2GRU63BU2LFOJL1G32T90GO","","309.30000001192093","img/food5.png","74","313","1","0","3","1","1,0.5,0,1,0.5,0,0.5,0,1","0.5,0,1,0.5,0,1,0,1,0.5","2","",""
"","html-keyboard-response","15","38642","0.0-15.0","3AZHRG4CU567VJG8H2M1RQNI67R03U","A2MJ0X6M3VSFVN","3WRBLBQ2GRU63BU2LFOJL1G32T90GO","","null","<img src=""img/food5.png"" style=""width:200px;border:14px solid red;"">","null","","","","","","","","","",""
"","image-keyboard-response","16","39146","0.0-16.0","3AZHRG4CU567VJG8H2M1RQNI67R03U","A2MJ0X6M3VSFVN","3WRBLBQ2GRU63BU2LFOJL1G32T90GO","","495.69999998807907","img/food4.png","74","502.59999999403954","1","0","1","1","1,0.5,0,1,0.5,0,0.5,0,1","0.5,0,1,0.5,0,1,0,1,0.5","2","",""
"","html-keyboard-response","17","39455","0.0-17.0","3AZHRG4CU567VJG8H2M1RQNI67R03U","A2MJ0X6M3VSFVN","3WRBLBQ2GRU63BU2LFOJL1G32T90GO","","null","<img src=""img/food4.png"" style=""width:200px;border:14px solid red;"">","null","","","","","","","","","",""
"","image-keyboard-response","18","39586","0.0-18.0","3AZHRG4CU567VJG8H2M1RQNI67R03U","A2MJ0X6M3VSFVN","3WRBLBQ2GRU63BU2LFOJL1G32T90GO","","121.2999999821186","img/food5.png","75","129.40000000596046","2","1","3","1","1,0.5,0,1,0.5,0,0.5,0,1","0.5,0,1,0.5,0,1,0,1,0.5","2","",""
"","html-keyboard-response","19","39892","0.0-19.0","3AZHRG4CU567VJG8H2M1RQNI67R03U","A2MJ0X6M3VSFVN","3WRBLBQ2GRU63BU2LFOJL1G32T90GO","","null","<img src=""img/food5.png"" style=""width:200px; border:14px solid green;"">","null","","","","","","","","","",""
"","image-keyboard-response","20","40243","0.0-20.0","3AZHRG4CU567VJG8H2M1RQNI67R03U","A2MJ0X6M3VSFVN","3WRBLBQ2GRU63BU2LFOJL1G32T90GO","","341.59999999403954","img/food4.png","76","348.90000000596046","3","1","1","1","1,0.5,0,1,0.5,0,0.5,0,1","0.5,0,1,0.5,0,1,0,1,0.5","2","",""
"","html-keyboard-response","21","40551","0.0-21.0","3AZHRG4CU567VJG8H2M1RQNI67R03U","A2MJ0X6M3VSFVN","3WRBLBQ2GRU63BU2LFOJL1G32T90GO","","null","<img src=""img/food4.png"" style=""width:200px; border:14px solid green;"">","null","","","","","","","","","",""
"","image-keyboard-response","22","41577","0.0-22.0","3AZHRG4CU567VJG8H2M1RQNI67R03U","A2MJ0X6M3VSFVN","3WRBLBQ2GRU63BU2LFOJL1G32T90GO","","1019.5","img/food3.png","76","1024.699999988079","3","1","2","1","1,0.5,0,1,0.5,0,0.5,0,1","0.5,0,1,0.5,0,1,0,1,0.5","2","",""
"","html-keyboard-response","23","41884","0.0-23.0","3AZHRG4CU567VJG8H2M1RQNI67R03U","A2MJ0X6M3VSFVN","3WRBLBQ2GRU63BU2LFOJL1G32T90GO","","null","<img src=""img/food3.png"" style=""width:200px; border:14px solid green;"">","null","","","","","","","","","",""
"","image-keyboard-response","24","42511","0.0-24.0","3AZHRG4CU567VJG8H2M1RQNI67R03U","A2MJ0X6M3VSFVN","3WRBLBQ2GRU63BU2LFOJL1G32T90GO","","620.2999999821186","img/food4.png","76","625.5","3","1","1","1","1,0.5,0,1,0.5,0,0.5,0,1","0.5,0,1,0.5,0,1,0,1,0.5","2","",""
"","html-keyboard-response","25","42817","0.0-25.0","3AZHRG4CU567VJG8H2M1RQNI67R03U","A2MJ0X6M3VSFVN","3WRBLBQ2GRU63BU2LFOJL1G32T90GO","","null","<img src=""img/food4.png"" style=""width:200px; border:14px solid green;"">","null","","","","","","","","","",""
"","image-keyboard-response","26","43802","0.0-26.0","3AZHRG4CU567VJG8H2M1RQNI67R03U","A2MJ0X6M3VSFVN","3WRBLBQ2GRU63BU2LFOJL1G32T90GO","","977.5","img/food5.png","76","982.9000000059605","3","0","3","1","1,0.5,0,1,0.5,0,0.5,0,1","0.5,0,1,0.5,0,1,0,1,0.5","2","",""
"","html-keyboard-response","27","44109","0.0-27.0","3AZHRG4CU567VJG8H2M1RQNI67R03U","A2MJ0X6M3VSFVN","3WRBLBQ2GRU63BU2LFOJL1G32T90GO","","null","<img src=""img/food5.png"" style=""width:200px;border:14px solid red;"">","null","","","","","","","","","",""
"","image-keyboard-response","28","44608","0.0-28.0","3AZHRG4CU567VJG8H2M1RQNI67R03U","A2MJ0X6M3VSFVN","3WRBLBQ2GRU63BU2LFOJL1G32T90GO","","493.69999998807907","img/food5.png","75","497.40000000596046","2","1","3","1","1,0.5,0,1,0.5,0,0.5,0,1","0.5,0,1,0.5,0,1,0,1,0.5","2","",""
"","html-keyboard-response","29","44914","0.0-29.0","3AZHRG4CU567VJG8H2M1RQNI67R03U","A2MJ0X6M3VSFVN","3WRBLBQ2GRU63BU2LFOJL1G32T90GO","","null","<img src=""img/food5.png"" style=""width:200px; border:14px solid green;"">","null","","","","","","","","","",""
"","image-keyboard-response","30","46163","0.0-30.0","3AZHRG4CU567VJG8H2M1RQNI67R03U","A2MJ0X6M3VSFVN","3WRBLBQ2GRU63BU2LFOJL1G32T90GO","","1239.2000000178814","img/food5.png","75","1246.5","2","1","3","1","1,0.5,0,1,0.5,0,0.5,0,1","0.5,0,1,0.5,0,1,0,1,0.5","2","",""
"","html-keyboard-response","31","46469","0.0-31.0","3AZHRG4CU567VJG8H2M1RQNI67R03U","A2MJ0X6M3VSFVN","3WRBLBQ2GRU63BU2LFOJL1G32T90GO","","null","<img src=""img/food5.png"" style=""width:200px; border:14px solid green;"">","null","","","","","","","","","",""
"","image-keyboard-response","32","47543","0.0-32.0","3AZHRG4CU567VJG8H2M1RQNI67R03U","A2MJ0X6M3VSFVN","3WRBLBQ2GRU63BU2LFOJL1G32T90GO","","1065.5","img/food4.png","76","1072.300000011921","3","1","1","1","1,0.5,0,1,0.5,0,0.5,0,1","0.5,0,1,0.5,0,1,0,1,0.5","2","",""
"","html-keyboard-response","33","47849","0.0-33.0","3AZHRG4CU567VJG8H2M1RQNI67R03U","A2MJ0X6M3VSFVN","3WRBLBQ2GRU63BU2LFOJL1G32T90GO","","null","<img src=""img/food4.png"" style=""width:200px; border:14px solid green;"">","null","","","","","","","","","",""
"","image-keyboard-response","34","48417","0.0-34.0","3AZHRG4CU567VJG8H2M1RQNI67R03U","A2MJ0X6M3VSFVN","3WRBLBQ2GRU63BU2LFOJL1G32T90GO","","560.2999999821186","img/food5.png","75","566.8000000119209","2","1","3","1","1,0.5,0,1,0.5,0,0.5,0,1","0.5,0,1,0.5,0,1,0,1,0.5","2","",""
"","html-keyboard-response","35","48726","0.0-35.0","3AZHRG4CU567VJG8H2M1RQNI67R03U","A2MJ0X6M3VSFVN","3WRBLBQ2GRU63BU2LFOJL1G32T90GO","","null","<img src=""img/food5.png"" style=""width:200px; border:14px solid green;"">","null","","","","","","","","","",""
"","image-keyboard-response","36","49796","0.0-36.0","3AZHRG4CU567VJG8H2M1RQNI67R03U","A2MJ0X6M3VSFVN","3WRBLBQ2GRU63BU2LFOJL1G32T90GO","","1061.7000000178814","img/food5.png","75","1067.0999999940395","2","1","3","1","1,0.5,0,1,0.5,0,0.5,0,1","0.5,0,1,0.5,0,1,0,1,0.5","2","",""
"","html-keyboard-response","37","50101","0.0-37.0","3AZHRG4CU567VJG8H2M1RQNI67R03U","A2MJ0X6M3VSFVN","3WRBLBQ2GRU63BU2LFOJL1G32T90GO","","null","<img src=""img/food5.png"" style=""width:200px; border:14px solid green;"">","null","","","","","","","","","",""
"","image-keyboard-response","38","50802","0.0-38.0","3AZHRG4CU567VJG8H2M1RQNI67R03U","A2MJ0X6M3VSFVN","3WRBLBQ2GRU63BU2LFOJL1G32T90GO","","694.4000000059605","img/food3.png","76","698.9000000059605","3","1","2","1","1,0.5,0,1,0.5,0,0.5,0,1","0.5,0,1,0.5,0,1,0,1,0.5","2","",""
"","html-keyboard-response","39","51111","0.0-39.0","3AZHRG4CU567VJG8H2M1RQNI67R03U","A2MJ0X6M3VSFVN","3WRBLBQ2GRU63BU2LFOJL1G32T90GO","","null","<img src=""img/food3.png"" style=""width:200px; border:14px solid green;"">","null","","","","","","","","","",""
"","image-keyboard-response","40","51636","0.0-40.0","3AZHRG4CU567VJG8H2M1RQNI67R03U","A2MJ0X6M3VSFVN","3WRBLBQ2GRU63BU2LFOJL1G32T90GO","","517.8000000119209","img/food5.png","75","523.6999999880791","2","1","3","1","1,0.5,0,1,0.5,0,0.5,0,1","0.5,0,1,0.5,0,1,0,1,0.5","2","",""
"","html-keyboard-response","41","51945","0.0-41.0","3AZHRG4CU567VJG8H2M1RQNI67R03U","A2MJ0X6M3VSFVN","3WRBLBQ2GRU63BU2LFOJL1G32T90GO","","null","<img src=""img/food5.png"" style=""width:200px; border:14px solid green;"">","null","","","","","","","","","",""
"","image-keyboard-response","42","52581","0.0-42.0","3AZHRG4CU567VJG8H2M1RQNI67R03U","A2MJ0X6M3VSFVN","3WRBLBQ2GRU63BU2LFOJL1G32T90GO","","627.3999999761581","img/food3.png","76","634.5","3","1","2","1","1,0.5,0,1,0.5,0,0.5,0,1","0.5,0,1,0.5,0,1,0,1,0.5","2","",""
"","html-keyboard-response","43","52889","0.0-43.0","3AZHRG4CU567VJG8H2M1RQNI67R03U","A2MJ0X6M3VSFVN","3WRBLBQ2GRU63BU2LFOJL1G32T90GO","","null","<img src=""img/food3.png"" style=""width:200px; border:14px solid green;"">","null","","","","","","","","","",""
"","image-keyboard-response","44","53602","0.0-44.0","3AZHRG4CU567VJG8H2M1RQNI67R03U","A2MJ0X6M3VSFVN","3WRBLBQ2GRU63BU2LFOJL1G32T90GO","","703.4000000059605","img/food5.png","75","711.4000000059605","2","1","3","1","1,0.5,0,1,0.5,0,0.5,0,1","0.5,0,1,0.5,0,1,0,1,0.5","2","",""
"","html-keyboard-response","45","53908","0.0-45.0","3AZHRG4CU567VJG8H2M1RQNI67R03U","A2MJ0X6M3VSFVN","3WRBLBQ2GRU63BU2LFOJL1G32T90GO","","null","<img src=""img/food5.png"" style=""width:200px; border:14px solid green;"">","null","","","","","","","","","",""
"","image-keyboard-response","46","54455","0.0-46.0","3AZHRG4CU567VJG8H2M1RQNI67R03U","A2MJ0X6M3VSFVN","3WRBLBQ2GRU63BU2LFOJL1G32T90GO","","539.1999999880791","img/food5.png","75","545.6999999880791","2","1","3","1","1,0.5,0,1,0.5,0,0.5,0,1","0.5,0,1,0.5,0,1,0,1,0.5","2","",""
"","html-keyboard-response","47","54762","0.0-47.0","3AZHRG4CU567VJG8H2M1RQNI67R03U","A2MJ0X6M3VSFVN","3WRBLBQ2GRU63BU2LFOJL1G32T90GO","","null","<img src=""img/food5.png"" style=""width:200px; border:14px solid green;"">","null","","","","","","","","","",""
"","image-keyboard-response","48","55484","0.0-48.0","3AZHRG4CU567VJG8H2M1RQNI67R03U","A2MJ0X6M3VSFVN","3WRBLBQ2GRU63BU2LFOJL1G32T90GO","","712.9000000059605","img/food3.png","76","720.0999999940395","3","1","2","1","1,0.5,0,1,0.5,0,0.5,0,1","0.5,0,1,0.5,0,1,0,1,0.5","2","",""
"","html-keyboard-response","49","55792","0.0-49.0","3AZHRG4CU567VJG8H2M1RQNI67R03U","A2MJ0X6M3VSFVN","3WRBLBQ2GRU63BU2LFOJL1G32T90GO","","null","<img src=""img/food3.png"" style=""width:200px; border:14px solid green;"">","null","","","","","","","","","",""
"","image-keyboard-response","50","56375","0.0-50.0","3AZHRG4CU567VJG8H2M1RQNI67R03U","A2MJ0X6M3VSFVN","3WRBLBQ2GRU63BU2LFOJL1G32T90GO","","576.0999999940395","img/food5.png","75","581.1999999880791","2","1","3","1","1,0.5,0,1,0.5,0,0.5,0,1","0.5,0,1,0.5,0,1,0,1,0.5","2","",""
"","html-keyboard-response","51","56683","0.0-51.0","3AZHRG4CU567VJG8H2M1RQNI67R03U","A2MJ0X6M3VSFVN","3WRBLBQ2GRU63BU2LFOJL1G32T90GO","","null","<img src=""img/food5.png"" style=""width:200px; border:14px solid green;"">","null","","","","","","","","","",""
"","image-keyboard-response","52","57218","0.0-52.0","3AZHRG4CU567VJG8H2M1RQNI67R03U","A2MJ0X6M3VSFVN","3WRBLBQ2GRU63BU2LFOJL1G32T90GO","","526.1000000238419","img/food3.png","76","532.5","3","1","2","1","1,0.5,0,1,0.5,0,0.5,0,1","0.5,0,1,0.5,0,1,0,1,0.5","2","",""
"","html-keyboard-response","53","57523","0.0-53.0","3AZHRG4CU567VJG8H2M1RQNI67R03U","A2MJ0X6M3VSFVN","3WRBLBQ2GRU63BU2LFOJL1G32T90GO","","null","<img src=""img/food3.png"" style=""width:200px; border:14px solid green;"">","null","","","","","","","","","",""
"","image-keyboard-response","54","58084","0.0-54.0","3AZHRG4CU567VJG8H2M1RQNI67R03U","A2MJ0X6M3VSFVN","3WRBLBQ2GRU63BU2LFOJL1G32T90GO","","554","img/food3.png","75","559","2","0","2","1","1,0.5,0,1,0.5,0,0.5,0,1","0.5,0,1,0.5,0,1,0,1,0.5","2","",""
"","html-keyboard-response","55","58391","0.0-55.0","3AZHRG4CU567VJG8H2M1RQNI67R03U","A2MJ0X6M3VSFVN","3WRBLBQ2GRU63BU2LFOJL1G32T90GO","","null","<img src=""img/food3.png"" style=""width:200px;border:14px solid red;"">","null","","","","","","","","","",""
"","image-keyboard-response","56","59015","0.0-56.0","3AZHRG4CU567VJG8H2M1RQNI67R03U","A2MJ0X6M3VSFVN","3WRBLBQ2GRU63BU2LFOJL1G32T90GO","","619.1999999880791","img/food4.png","76","622.5","3","1","1","1","1,0.5,0,1,0.5,0,0.5,0,1","0.5,0,1,0.5,0,1,0,1,0.5","2","",""
"","html-keyboard-response","57","59324","0.0-57.0","3AZHRG4CU567VJG8H2M1RQNI67R03U","A2MJ0X6M3VSFVN","3WRBLBQ2GRU63BU2LFOJL1G32T90GO","","null","<img src=""img/food4.png"" style=""width:200px; border:14px solid green;"">","null","","","","","","","","","",""
"","image-keyboard-response","58","61499","0.0-58.0","3AZHRG4CU567VJG8H2M1RQNI67R03U","A2MJ0X6M3VSFVN","3WRBLBQ2GRU63BU2LFOJL1G32T90GO","","2167.600000023842","img/food4.png","76","2173.2999999821186","3","1","1","1","1,0.5,0,1,0.5,0,0.5,0,1","0.5,0,1,0.5,0,1,0,1,0.5","2","",""
"","html-keyboard-response","59","61806","0.0-59.0","3AZHRG4CU567VJG8H2M1RQNI67R03U","A2MJ0X6M3VSFVN","3WRBLBQ2GRU63BU2LFOJL1G32T90GO","","null","<img src=""img/food4.png"" style=""width:200px; border:14px solid green;"">","null","","","","","","","","","",""
"","image-keyboard-response","60","62850","0.0-60.0","3AZHRG4CU567VJG8H2M1RQNI67R03U","A2MJ0X6M3VSFVN","3WRBLBQ2GRU63BU2LFOJL1G32T90GO","","1037.0999999940395","img/food4.png","76","1042.4000000059605","3","1","1","1","1,0.5,0,1,0.5,0,0.5,0,1","0.5,0,1,0.5,0,1,0,1,0.5","2","",""
"","html-keyboard-response","61","63156","0.0-61.0","3AZHRG4CU567VJG8H2M1RQNI67R03U","A2MJ0X6M3VSFVN","3WRBLBQ2GRU63BU2LFOJL1G32T90GO","","null","<img src=""img/food4.png"" style=""width:200px; border:14px solid green;"">","null","","","","","","","","","",""
"","image-keyboard-response","62","64318","0.0-62.0","3AZHRG4CU567VJG8H2M1RQNI67R03U","A2MJ0X6M3VSFVN","3WRBLBQ2GRU63BU2LFOJL1G32T90GO","","1154.9000000059605","img/food3.png","75","1160.7999999821186","2","0","2","1","1,0.5,0,1,0.5,0,0.5,0,1","0.5,0,1,0.5,0,1,0,1,0.5","2","",""
"","html-keyboard-response","63","64628","0.0-63.0","3AZHRG4CU567VJG8H2M1RQNI67R03U","A2MJ0X6M3VSFVN","3WRBLBQ2GRU63BU2LFOJL1G32T90GO","","null","<img src=""img/food3.png"" style=""width:200px;border:14px solid red;"">","null","","","","","","","","","",""
"","image-keyboard-response","64","65104","0.0-64.0","3AZHRG4CU567VJG8H2M1RQNI67R03U","A2MJ0X6M3VSFVN","3WRBLBQ2GRU63BU2LFOJL1G32T90GO","","469.7999999821186","img/food5.png","75","474.5","2","1","3","1","1,0.5,0,1,0.5,0,0.5,0,1","0.5,0,1,0.5,0,1,0,1,0.5","2","",""
"","html-keyboard-response","65","65412","0.0-65.0","3AZHRG4CU567VJG8H2M1RQNI67R03U","A2MJ0X6M3VSFVN","3WRBLBQ2GRU63BU2LFOJL1G32T90GO","","null","<img src=""img/food5.png"" style=""width:200px; border:14px solid green;"">","null","","","","","","","","","",""
"","image-keyboard-response","66","65872","0.0-66.0","3AZHRG4CU567VJG8H2M1RQNI67R03U","A2MJ0X6M3VSFVN","3WRBLBQ2GRU63BU2LFOJL1G32T90GO","","452.2999999821186","img/food4.png","75","458.09999999403954","2","0","1","1","1,0.5,0,1,0.5,0,0.5,0,1","0.5,0,1,0.5,0,1,0,1,0.5","2","",""
"","html-keyboard-response","67","66180","0.0-67.0","3AZHRG4CU567VJG8H2M1RQNI67R03U","A2MJ0X6M3VSFVN","3WRBLBQ2GRU63BU2LFOJL1G32T90GO","","null","<img src=""img/food4.png"" style=""width:200px;border:14px solid red;"">","null","","","","","","","","","",""
"","image-keyboard-response","68","66495","0.0-68.0","3AZHRG4CU567VJG8H2M1RQNI67R03U","A2MJ0X6M3VSFVN","3WRBLBQ2GRU63BU2LFOJL1G32T90GO","","306.09999999403954","img/food4.png","76","313.7000000178814","3","1","1","1","1,0.5,0,1,0.5,0,0.5,0,1","0.5,0,1,0.5,0,1,0,1,0.5","2","",""
"","html-keyboard-response","69","66804","0.0-69.0","3AZHRG4CU567VJG8H2M1RQNI67R03U","A2MJ0X6M3VSFVN","3WRBLBQ2GRU63BU2LFOJL1G32T90GO","","null","<img src=""img/food4.png"" style=""width:200px; border:14px solid green;"">","null","","","","","","","","","",""
"","image-keyboard-response","70","67626","0.0-70.0","3AZHRG4CU567VJG8H2M1RQNI67R03U","A2MJ0X6M3VSFVN","3WRBLBQ2GRU63BU2LFOJL1G32T90GO","","813.0999999940395","img/food5.png","76","820","3","1","3","1","1,0.5,0,1,0.5,0,0.5,0,1","0.5,0,1,0.5,0,1,0,1,0.5","2","",""
"","html-keyboard-response","71","67934","0.0-71.0","3AZHRG4CU567VJG8H2M1RQNI67R03U","A2MJ0X6M3VSFVN","3WRBLBQ2GRU63BU2LFOJL1G32T90GO","","null","<img src=""img/food5.png"" style=""width:200px; border:14px solid green;"">","null","","","","","","","","","",""
"","image-keyboard-response","72","68548","0.0-72.0","3AZHRG4CU567VJG8H2M1RQNI67R03U","A2MJ0X6M3VSFVN","3WRBLBQ2GRU63BU2LFOJL1G32T90GO","","606.2000000178814","img/food5.png","76","611.9000000059605","3","0","3","1","1,0.5,0,1,0.5,0,0.5,0,1","0.5,0,1,0.5,0,1,0,1,0.5","2","",""
"","html-keyboard-response","73","68852","0.0-73.0","3AZHRG4CU567VJG8H2M1RQNI67R03U","A2MJ0X6M3VSFVN","3WRBLBQ2GRU63BU2LFOJL1G32T90GO","","null","<img src=""img/food5.png"" style=""width:200px;border:14px solid red;"">","null","","","","","","","","","",""
"","image-keyboard-response","74","69378","0.0-74.0","3AZHRG4CU567VJG8H2M1RQNI67R03U","A2MJ0X6M3VSFVN","3WRBLBQ2GRU63BU2LFOJL1G32T90GO","","518.1999999880791","img/food3.png","76","524","3","1","2","1","1,0.5,0,1,0.5,0,0.5,0,1","0.5,0,1,0.5,0,1,0,1,0.5","2","",""
"","html-keyboard-response","75","69684","0.0-75.0","3AZHRG4CU567VJG8H2M1RQNI67R03U","A2MJ0X6M3VSFVN","3WRBLBQ2GRU63BU2LFOJL1G32T90GO","","null","<img src=""img/food3.png"" style=""width:200px; border:14px solid green;"">","null","","","","","","","","","",""
"","image-keyboard-response","76","70145","0.0-76.0","3AZHRG4CU567VJG8H2M1RQNI67R03U","A2MJ0X6M3VSFVN","3WRBLBQ2GRU63BU2LFOJL1G32T90GO","","452.5","img/food5.png","76","458.90000000596046","3","1","3","1","1,0.5,0,1,0.5,0,0.5,0,1","0.5,0,1,0.5,0,1,0,1,0.5","2","",""
"","html-keyboard-response","77","70452","0.0-77.0","3AZHRG4CU567VJG8H2M1RQNI67R03U","A2MJ0X6M3VSFVN","3WRBLBQ2GRU63BU2LFOJL1G32T90GO","","null","<img src=""img/food5.png"" style=""width:200px; border:14px solid green;"">","null","","","","","","","","","",""
"","image-keyboard-response","78","70906","0.0-78.0","3AZHRG4CU567VJG8H2M1RQNI67R03U","A2MJ0X6M3VSFVN","3WRBLBQ2GRU63BU2LFOJL1G32T90GO","","444.5","img/food4.png","76","451","3","1","1","1","1,0.5,0,1,0.5,0,0.5,0,1","0.5,0,1,0.5,0,1,0,1,0.5","2","",""
"","html-keyboard-response","79","71213","0.0-79.0","3AZHRG4CU567VJG8H2M1RQNI67R03U","A2MJ0X6M3VSFVN","3WRBLBQ2GRU63BU2LFOJL1G32T90GO","","null","<img src=""img/food4.png"" style=""width:200px; border:14px solid green;"">","null","","","","","","","","","",""
"","image-keyboard-response","80","71682","0.0-80.0","3AZHRG4CU567VJG8H2M1RQNI67R03U","A2MJ0X6M3VSFVN","3WRBLBQ2GRU63BU2LFOJL1G32T90GO","","460","img/food5.png","76","468.19999998807907","3","0","3","1","1,0.5,0,1,0.5,0,0.5,0,1","0.5,0,1,0.5,0,1,0,1,0.5","2","",""
"","html-keyboard-response","81","71989","0.0-81.0","3AZHRG4CU567VJG8H2M1RQNI67R03U","A2MJ0X6M3VSFVN","3WRBLBQ2GRU63BU2LFOJL1G32T90GO","","null","<img src=""img/food5.png"" style=""width:200px;border:14px solid red;"">","null","","","","","","","","","",""
"","image-keyboard-response","82","72444","0.0-82.0","3AZHRG4CU567VJG8H2M1RQNI67R03U","A2MJ0X6M3VSFVN","3WRBLBQ2GRU63BU2LFOJL1G32T90GO","","449","img/food4.png","76","454.40000000596046","3","1","1","1","1,0.5,0,1,0.5,0,0.5,0,1","0.5,0,1,0.5,0,1,0,1,0.5","2","",""
"","html-keyboard-response","83","72752","0.0-83.0","3AZHRG4CU567VJG8H2M1RQNI67R03U","A2MJ0X6M3VSFVN","3WRBLBQ2GRU63BU2LFOJL1G32T90GO","","null","<img src=""img/food4.png"" style=""width:200px; border:14px solid green;"">","null","","","","","","","","","",""
"","image-keyboard-response","84","73117","0.0-84.0","3AZHRG4CU567VJG8H2M1RQNI67R03U","A2MJ0X6M3VSFVN","3WRBLBQ2GRU63BU2LFOJL1G32T90GO","","358.2000000178814","img/food4.png","76","364.7999999821186","3","1","1","1","1,0.5,0,1,0.5,0,0.5,0,1","0.5,0,1,0.5,0,1,0,1,0.5","2","",""
"","html-keyboard-response","85","73425","0.0-85.0","3AZHRG4CU567VJG8H2M1RQNI67R03U","A2MJ0X6M3VSFVN","3WRBLBQ2GRU63BU2LFOJL1G32T90GO","","null","<img src=""img/food4.png"" style=""width:200px; border:14px solid green;"">","null","","","","","","","","","",""
"","image-keyboard-response","86","73919","0.0-86.0","3AZHRG4CU567VJG8H2M1RQNI67R03U","A2MJ0X6M3VSFVN","3WRBLBQ2GRU63BU2LFOJL1G32T90GO","","486.39999997615814","img/food4.png","76","494","3","1","1","1","1,0.5,0,1,0.5,0,0.5,0,1","0.5,0,1,0.5,0,1,0,1,0.5","2","",""
"","html-keyboard-response","87","74227","0.0-87.0","3AZHRG4CU567VJG8H2M1RQNI67R03U","A2MJ0X6M3VSFVN","3WRBLBQ2GRU63BU2LFOJL1G32T90GO","","null","<img src=""img/food4.png"" style=""width:200px; border:14px solid green;"">","null","","","","","","","","","",""
"","image-keyboard-response","88","74534","0.0-88.0","3AZHRG4CU567VJG8H2M1RQNI67R03U","A2MJ0X6M3VSFVN","3WRBLBQ2GRU63BU2LFOJL1G32T90GO","","302.30000001192093","img/food3.png","76","306.09999999403954","3","1","2","1","1,0.5,0,1,0.5,0,0.5,0,1","0.5,0,1,0.5,0,1,0,1,0.5","2","",""
"","html-keyboard-response","89","74843","0.0-89.0","3AZHRG4CU567VJG8H2M1RQNI67R03U","A2MJ0X6M3VSFVN","3WRBLBQ2GRU63BU2LFOJL1G32T90GO","","null","<img src=""img/food3.png"" style=""width:200px; border:14px solid green;"">","null","","","","","","","","","",""
"","image-keyboard-response","90","75206","0.0-90.0","3AZHRG4CU567VJG8H2M1RQNI67R03U","A2MJ0X6M3VSFVN","3WRBLBQ2GRU63BU2LFOJL1G32T90GO","","355.30000001192093","img/food5.png","76","361.69999998807907","3","0","3","1","1,0.5,0,1,0.5,0,0.5,0,1","0.5,0,1,0.5,0,1,0,1,0.5","2","",""
"","html-keyboard-response","91","75515","0.0-91.0","3AZHRG4CU567VJG8H2M1RQNI67R03U","A2MJ0X6M3VSFVN","3WRBLBQ2GRU63BU2LFOJL1G32T90GO","","null","<img src=""img/food5.png"" style=""width:200px;border:14px solid red;"">","null","","","","","","","","","",""
"","image-keyboard-response","92","75901","0.0-92.0","3AZHRG4CU567VJG8H2M1RQNI67R03U","A2MJ0X6M3VSFVN","3WRBLBQ2GRU63BU2LFOJL1G32T90GO","","376.90000000596046","img/food3.png","76","384.40000000596046","3","1","2","1","1,0.5,0,1,0.5,0,0.5,0,1","0.5,0,1,0.5,0,1,0,1,0.5","2","",""
"","html-keyboard-response","93","76206","0.0-93.0","3AZHRG4CU567VJG8H2M1RQNI67R03U","A2MJ0X6M3VSFVN","3WRBLBQ2GRU63BU2LFOJL1G32T90GO","","null","<img src=""img/food3.png"" style=""width:200px; border:14px solid green;"">","null","","","","","","","","","",""
"","image-keyboard-response","94","76547","0.0-94.0","3AZHRG4CU567VJG8H2M1RQNI67R03U","A2MJ0X6M3VSFVN","3WRBLBQ2GRU63BU2LFOJL1G32T90GO","","336.40000000596046","img/food4.png","76","339.80000001192093","3","1","1","1","1,0.5,0,1,0.5,0,0.5,0,1","0.5,0,1,0.5,0,1,0,1,0.5","2","",""
"","html-keyboard-response","95","76853","0.0-95.0","3AZHRG4CU567VJG8H2M1RQNI67R03U","A2MJ0X6M3VSFVN","3WRBLBQ2GRU63BU2LFOJL1G32T90GO","","null","<img src=""img/food4.png"" style=""width:200px; border:14px solid green;"">","null","","","","","","","","","",""
"","image-keyboard-response","96","77377","0.0-96.0","3AZHRG4CU567VJG8H2M1RQNI67R03U","A2MJ0X6M3VSFVN","3WRBLBQ2GRU63BU2LFOJL1G32T90GO","","519.2999999821186","img/food3.png","76","523.1999999880791","3","1","2","1","1,0.5,0,1,0.5,0,0.5,0,1","0.5,0,1,0.5,0,1,0,1,0.5","2","",""
"","html-keyboard-response","97","77683","0.0-97.0","3AZHRG4CU567VJG8H2M1RQNI67R03U","A2MJ0X6M3VSFVN","3WRBLBQ2GRU63BU2LFOJL1G32T90GO","","null","<img src=""img/food3.png"" style=""width:200px; border:14px solid green;"">","null","","","","","","","","","",""
"","image-keyboard-response","98","78062","0.0-98.0","3AZHRG4CU567VJG8H2M1RQNI67R03U","A2MJ0X6M3VSFVN","3WRBLBQ2GRU63BU2LFOJL1G32T90GO","","370.30000001192093","img/food5.png","76","377.7000000178814","3","1","3","1","1,0.5,0,1,0.5,0,0.5,0,1","0.5,0,1,0.5,0,1,0,1,0.5","2","",""
"","html-keyboard-response","99","78369","0.0-99.0","3AZHRG4CU567VJG8H2M1RQNI67R03U","A2MJ0X6M3VSFVN","3WRBLBQ2GRU63BU2LFOJL1G32T90GO","","null","<img src=""img/food5.png"" style=""width:200px; border:14px solid green;"">","null","","","","","","","","","",""
"","image-keyboard-response","100","78725","0.0-100.0","3AZHRG4CU567VJG8H2M1RQNI67R03U","A2MJ0X6M3VSFVN","3WRBLBQ2GRU63BU2LFOJL1G32T90GO","","350.09999999403954","img/food3.png","76","354.80000001192093","3","1","2","1","1,0.5,0,1,0.5,0,0.5,0,1","0.5,0,1,0.5,0,1,0,1,0.5","2","",""
"","html-keyboard-response","101","79033","0.0-101.0","3AZHRG4CU567VJG8H2M1RQNI67R03U","A2MJ0X6M3VSFVN","3WRBLBQ2GRU63BU2LFOJL1G32T90GO","","null","<img src=""img/food3.png"" style=""width:200px; border:14px solid green;"">","null","","","","","","","","","",""
"","image-keyboard-response","102","79441","0.0-102.0","3AZHRG4CU567VJG8H2M1RQNI67R03U","A2MJ0X6M3VSFVN","3WRBLBQ2GRU63BU2LFOJL1G32T90GO","","402.30000001192093","img/food5.png","76","405.69999998807907","3","0","3","1","1,0.5,0,1,0.5,0,0.5,0,1","0.5,0,1,0.5,0,1,0,1,0.5","2","",""
"","html-keyboard-response","103","79747","0.0-103.0","3AZHRG4CU567VJG8H2M1RQNI67R03U","A2MJ0X6M3VSFVN","3WRBLBQ2GRU63BU2LFOJL1G32T90GO","","null","<img src=""img/food5.png"" style=""width:200px;border:14px solid red;"">","null","","","","","","","","","",""
"","image-keyboard-response","104","80171","0.0-104.0","3AZHRG4CU567VJG8H2M1RQNI67R03U","A2MJ0X6M3VSFVN","3WRBLBQ2GRU63BU2LFOJL1G32T90GO","","417.60000002384186","img/food3.png","75","421.90000000596046","2","0","2","1","1,0.5,0,1,0.5,0,0.5,0,1","0.5,0,1,0.5,0,1,0,1,0.5","2","",""
"","html-keyboard-response","105","80475","0.0-105.0","3AZHRG4CU567VJG8H2M1RQNI67R03U","A2MJ0X6M3VSFVN","3WRBLBQ2GRU63BU2LFOJL1G32T90GO","","null","<img src=""img/food3.png"" style=""width:200px;border:14px solid red;"">","null","","","","","","","","","",""
"","image-keyboard-response","106","81037","0.0-106.0","3AZHRG4CU567VJG8H2M1RQNI67R03U","A2MJ0X6M3VSFVN","3WRBLBQ2GRU63BU2LFOJL1G32T90GO","","553.7000000178814","img/food4.png","76","559.9000000059605","3","1","1","1","1,0.5,0,1,0.5,0,0.5,0,1","0.5,0,1,0.5,0,1,0,1,0.5","2","",""
"","html-keyboard-response","107","81343","0.0-107.0","3AZHRG4CU567VJG8H2M1RQNI67R03U","A2MJ0X6M3VSFVN","3WRBLBQ2GRU63BU2LFOJL1G32T90GO","","null","<img src=""img/food4.png"" style=""width:200px; border:14px solid green;"">","null","","","","","","","","","",""
"","image-keyboard-response","108","82036","0.0-108.0","3AZHRG4CU567VJG8H2M1RQNI67R03U","A2MJ0X6M3VSFVN","3WRBLBQ2GRU63BU2LFOJL1G32T90GO","","684.5","img/food3.png","75","690.5999999940395","2","0","2","1","1,0.5,0,1,0.5,0,0.5,0,1","0.5,0,1,0.5,0,1,0,1,0.5","2","",""
"","html-keyboard-response","109","82346","0.0-109.0","3AZHRG4CU567VJG8H2M1RQNI67R03U","A2MJ0X6M3VSFVN","3WRBLBQ2GRU63BU2LFOJL1G32T90GO","","null","<img src=""img/food3.png"" style=""width:200px;border:14px solid red;"">","null","","","","","","","","","",""
"","image-keyboard-response","110","83013","0.0-110.0","3AZHRG4CU567VJG8H2M1RQNI67R03U","A2MJ0X6M3VSFVN","3WRBLBQ2GRU63BU2LFOJL1G32T90GO","","657.9000000059605","img/food3.png","76","665.5999999940395","3","1","2","1","1,0.5,0,1,0.5,0,0.5,0,1","0.5,0,1,0.5,0,1,0,1,0.5","2","",""
"","html-keyboard-response","111","83322","0.0-111.0","3AZHRG4CU567VJG8H2M1RQNI67R03U","A2MJ0X6M3VSFVN","3WRBLBQ2GRU63BU2LFOJL1G32T90GO","","null","<img src=""img/food3.png"" style=""width:200px; border:14px solid green;"">","null","","","","","","","","","",""
"","image-keyboard-response","112","86218","0.0-112.0","3AZHRG4CU567VJG8H2M1RQNI67R03U","A2MJ0X6M3VSFVN","3WRBLBQ2GRU63BU2LFOJL1G32T90GO","","2888.0999999940395","img/food3.png","76","2895","3","1","2","1","1,0.5,0,1,0.5,0,0.5,0,1","0.5,0,1,0.5,0,1,0,1,0.5","2","",""
"","html-keyboard-response","113","86526","0.0-113.0","3AZHRG4CU567VJG8H2M1RQNI67R03U","A2MJ0X6M3VSFVN","3WRBLBQ2GRU63BU2LFOJL1G32T90GO","","null","<img src=""img/food3.png"" style=""width:200px; border:14px solid green;"">","null","","","","","","","","","",""
"","image-keyboard-response","114","87169","0.0-114.0","3AZHRG4CU567VJG8H2M1RQNI67R03U","A2MJ0X6M3VSFVN","3WRBLBQ2GRU63BU2LFOJL1G32T90GO","","634.3000000119209","img/food3.png","76","641.8999999761581","3","1","2","1","1,0.5,0,1,0.5,0,0.5,0,1","0.5,0,1,0.5,0,1,0,1,0.5","2","",""
"","html-keyboard-response","115","87477","0.0-115.0","3AZHRG4CU567VJG8H2M1RQNI67R03U","A2MJ0X6M3VSFVN","3WRBLBQ2GRU63BU2LFOJL1G32T90GO","","null","<img src=""img/food3.png"" style=""width:200px; border:14px solid green;"">","null","","","","","","","","","",""
"","image-keyboard-response","116","87823","0.0-116.0","3AZHRG4CU567VJG8H2M1RQNI67R03U","A2MJ0X6M3VSFVN","3WRBLBQ2GRU63BU2LFOJL1G32T90GO","","339.19999998807907","img/food3.png","76","344.19999998807907","3","1","2","1","1,0.5,0,1,0.5,0,0.5,0,1","0.5,0,1,0.5,0,1,0,1,0.5","2","",""
"","html-keyboard-response","117","88129","0.0-117.0","3AZHRG4CU567VJG8H2M1RQNI67R03U","A2MJ0X6M3VSFVN","3WRBLBQ2GRU63BU2LFOJL1G32T90GO","","null","<img src=""img/food3.png"" style=""width:200px; border:14px solid green;"">","null","","","","","","","","","",""
"","image-keyboard-response","118","88456","0.0-118.0","3AZHRG4CU567VJG8H2M1RQNI67R03U","A2MJ0X6M3VSFVN","3WRBLBQ2GRU63BU2LFOJL1G32T90GO","","318.80000001192093","img/food3.png","76","326.59999999403954","3","1","2","1","1,0.5,0,1,0.5,0,0.5,0,1","0.5,0,1,0.5,0,1,0,1,0.5","2","",""
"","html-keyboard-response","119","88763","0.0-119.0","3AZHRG4CU567VJG8H2M1RQNI67R03U","A2MJ0X6M3VSFVN","3WRBLBQ2GRU63BU2LFOJL1G32T90GO","","null","<img src=""img/food3.png"" style=""width:200px; border:14px solid green;"">","null","","","","","","","","","",""
"","image-keyboard-response","120","88996","0.0-120.0","3AZHRG4CU567VJG8H2M1RQNI67R03U","A2MJ0X6M3VSFVN","3WRBLBQ2GRU63BU2LFOJL1G32T90GO","","223.40000000596046","img/food5.png","76","230.90000000596046","3","1","3","1","1,0.5,0,1,0.5,0,0.5,0,1","0.5,0,1,0.5,0,1,0,1,0.5","2","",""
"","html-keyboard-response","121","89301","0.0-121.0","3AZHRG4CU567VJG8H2M1RQNI67R03U","A2MJ0X6M3VSFVN","3WRBLBQ2GRU63BU2LFOJL1G32T90GO","","null","<img src=""img/food5.png"" style=""width:200px; border:14px solid green;"">","null","","","","","","","","","",""
"","image-keyboard-response","122","89729","0.0-122.0","3AZHRG4CU567VJG8H2M1RQNI67R03U","A2MJ0X6M3VSFVN","3WRBLBQ2GRU63BU2LFOJL1G32T90GO","","421.2000000178814","img/food3.png","76","426.59999999403954","3","1","2","1","1,0.5,0,1,0.5,0,0.5,0,1","0.5,0,1,0.5,0,1,0,1,0.5","2","",""
"","html-keyboard-response","123","90039","0.0-123.0","3AZHRG4CU567VJG8H2M1RQNI67R03U","A2MJ0X6M3VSFVN","3WRBLBQ2GRU63BU2LFOJL1G32T90GO","","null","<img src=""img/food3.png"" style=""width:200px; border:14px solid green;"">","null","","","","","","","","","",""
"","image-keyboard-response","124","90380","0.0-124.0","3AZHRG4CU567VJG8H2M1RQNI67R03U","A2MJ0X6M3VSFVN","3WRBLBQ2GRU63BU2LFOJL1G32T90GO","","334.5","img/food5.png","76","338.7000000178814","3","1","3","1","1,0.5,0,1,0.5,0,0.5,0,1","0.5,0,1,0.5,0,1,0,1,0.5","2","",""
"","html-keyboard-response","125","90687","0.0-125.0","3AZHRG4CU567VJG8H2M1RQNI67R03U","A2MJ0X6M3VSFVN","3WRBLBQ2GRU63BU2LFOJL1G32T90GO","","null","<img src=""img/food5.png"" style=""width:200px; border:14px solid green;"">","null","","","","","","","","","",""
"","image-keyboard-response","126","91023","0.0-126.0","3AZHRG4CU567VJG8H2M1RQNI67R03U","A2MJ0X6M3VSFVN","3WRBLBQ2GRU63BU2LFOJL1G32T90GO","","328.39999997615814","img/food5.png","76","334","3","0","3","1","1,0.5,0,1,0.5,0,0.5,0,1","0.5,0,1,0.5,0,1,0,1,0.5","2","",""
"","html-keyboard-response","127","91328","0.0-127.0","3AZHRG4CU567VJG8H2M1RQNI67R03U","A2MJ0X6M3VSFVN","3WRBLBQ2GRU63BU2LFOJL1G32T90GO","","null","<img src=""img/food5.png"" style=""width:200px;border:14px solid red;"">","null","","","","","","","","","",""
"","image-keyboard-response","128","92053","0.0-128.0","3AZHRG4CU567VJG8H2M1RQNI67R03U","A2MJ0X6M3VSFVN","3WRBLBQ2GRU63BU2LFOJL1G32T90GO","","717.5999999940395","img/food5.png","75","722.0999999940395","2","1","3","1","1,0.5,0,1,0.5,0,0.5,0,1","0.5,0,1,0.5,0,1,0,1,0.5","2","",""
"","html-keyboard-response","129","92360","0.0-129.0","3AZHRG4CU567VJG8H2M1RQNI67R03U","A2MJ0X6M3VSFVN","3WRBLBQ2GRU63BU2LFOJL1G32T90GO","","null","<img src=""img/food5.png"" style=""width:200px; border:14px solid green;"">","null","","","","","","","","","",""
"","image-keyboard-response","130","92794","0.0-130.0","3AZHRG4CU567VJG8H2M1RQNI67R03U","A2MJ0X6M3VSFVN","3WRBLBQ2GRU63BU2LFOJL1G32T90GO","","425.60000002384186","img/food3.png","76","431.19999998807907","3","1","2","1","1,0.5,0,1,0.5,0,0.5,0,1","0.5,0,1,0.5,0,1,0,1,0.5","2","",""
"","html-keyboard-response","131","93101","0.0-131.0","3AZHRG4CU567VJG8H2M1RQNI67R03U","A2MJ0X6M3VSFVN","3WRBLBQ2GRU63BU2LFOJL1G32T90GO","","null","<img src=""img/food3.png"" style=""width:200px; border:14px solid green;"">","null","","","","","","","","","",""
"","image-keyboard-response","132","93707","0.0-132.0","3AZHRG4CU567VJG8H2M1RQNI67R03U","A2MJ0X6M3VSFVN","3WRBLBQ2GRU63BU2LFOJL1G32T90GO","","599.1999999880791","img/food5.png","75","605.4000000059605","2","1","3","1","1,0.5,0,1,0.5,0,0.5,0,1","0.5,0,1,0.5,0,1,0,1,0.5","2","",""
"","html-keyboard-response","133","94013","0.0-133.0","3AZHRG4CU567VJG8H2M1RQNI67R03U","A2MJ0X6M3VSFVN","3WRBLBQ2GRU63BU2LFOJL1G32T90GO","","null","<img src=""img/food5.png"" style=""width:200px; border:14px solid green;"">","null","","","","","","","","","",""
"","image-keyboard-response","134","94616","0.0-134.0","3AZHRG4CU567VJG8H2M1RQNI67R03U","A2MJ0X6M3VSFVN","3WRBLBQ2GRU63BU2LFOJL1G32T90GO","","594.5","img/food4.png","76","600.5","3","1","1","1","1,0.5,0,1,0.5,0,0.5,0,1","0.5,0,1,0.5,0,1,0,1,0.5","2","",""
"","html-keyboard-response","135","94925","0.0-135.0","3AZHRG4CU567VJG8H2M1RQNI67R03U","A2MJ0X6M3VSFVN","3WRBLBQ2GRU63BU2LFOJL1G32T90GO","","null","<img src=""img/food4.png"" style=""width:200px; border:14px solid green;"">","null","","","","","","","","","",""
"","image-keyboard-response","136","95454","0.0-136.0","3AZHRG4CU567VJG8H2M1RQNI67R03U","A2MJ0X6M3VSFVN","3WRBLBQ2GRU63BU2LFOJL1G32T90GO","","523.0999999940395","img/food3.png","75","528.4000000059605","2","0","2","1","1,0.5,0,1,0.5,0,0.5,0,1","0.5,0,1,0.5,0,1,0,1,0.5","2","",""
"","html-keyboard-response","137","95761","0.0-137.0","3AZHRG4CU567VJG8H2M1RQNI67R03U","A2MJ0X6M3VSFVN","3WRBLBQ2GRU63BU2LFOJL1G32T90GO","","null","<img src=""img/food3.png"" style=""width:200px;border:14px solid red;"">","null","","","","","","","","","",""
"","image-keyboard-response","138","96262","0.0-138.0","3AZHRG4CU567VJG8H2M1RQNI67R03U","A2MJ0X6M3VSFVN","3WRBLBQ2GRU63BU2LFOJL1G32T90GO","","495.5","img/food5.png","75","500.10000002384186","2","1","3","1","1,0.5,0,1,0.5,0,0.5,0,1","0.5,0,1,0.5,0,1,0,1,0.5","2","",""
"","html-keyboard-response","139","96567","0.0-139.0","3AZHRG4CU567VJG8H2M1RQNI67R03U","A2MJ0X6M3VSFVN","3WRBLBQ2GRU63BU2LFOJL1G32T90GO","","null","<img src=""img/food5.png"" style=""width:200px; border:14px solid green;"">","null","","","","","","","","","",""
"","image-keyboard-response","140","96930","0.0-140.0","3AZHRG4CU567VJG8H2M1RQNI67R03U","A2MJ0X6M3VSFVN","3WRBLBQ2GRU63BU2LFOJL1G32T90GO","","356.59999999403954","img/food5.png","76","361.5","3","1","3","1","1,0.5,0,1,0.5,0,0.5,0,1","0.5,0,1,0.5,0,1,0,1,0.5","2","",""
"","html-keyboard-response","141","97240","0.0-141.0","3AZHRG4CU567VJG8H2M1RQNI67R03U","A2MJ0X6M3VSFVN","3WRBLBQ2GRU63BU2LFOJL1G32T90GO","","null","<img src=""img/food5.png"" style=""width:200px; border:14px solid green;"">","null","","","","","","","","","",""
"","image-keyboard-response","142","97622","0.0-142.0","3AZHRG4CU567VJG8H2M1RQNI67R03U","A2MJ0X6M3VSFVN","3WRBLBQ2GRU63BU2LFOJL1G32T90GO","","373.80000001192093","img/food3.png","76","380.80000001192093","3","1","2","1","1,0.5,0,1,0.5,0,0.5,0,1","0.5,0,1,0.5,0,1,0,1,0.5","2","",""
"","html-keyboard-response","143","97928","0.0-143.0","3AZHRG4CU567VJG8H2M1RQNI67R03U","A2MJ0X6M3VSFVN","3WRBLBQ2GRU63BU2LFOJL1G32T90GO","","null","<img src=""img/food3.png"" style=""width:200px; border:14px solid green;"">","null","","","","","","","","","",""
"","image-keyboard-response","144","98344","0.0-144.0","3AZHRG4CU567VJG8H2M1RQNI67R03U","A2MJ0X6M3VSFVN","3WRBLBQ2GRU63BU2LFOJL1G32T90GO","","406","img/food4.png","76","413.80000001192093","3","1","1","1","1,0.5,0,1,0.5,0,0.5,0,1","0.5,0,1,0.5,0,1,0,1,0.5","2","",""
"","html-keyboard-response","145","98649","0.0-145.0","3AZHRG4CU567VJG8H2M1RQNI67R03U","A2MJ0X6M3VSFVN","3WRBLBQ2GRU63BU2LFOJL1G32T90GO","","null","<img src=""img/food4.png"" style=""width:200px; border:14px solid green;"">","null","","","","","","","","","",""
"","image-keyboard-response","146","99057","0.0-146.0","3AZHRG4CU567VJG8H2M1RQNI67R03U","A2MJ0X6M3VSFVN","3WRBLBQ2GRU63BU2LFOJL1G32T90GO","","400.90000000596046","img/food4.png","76","405.89999997615814","3","1","1","1","1,0.5,0,1,0.5,0,0.5,0,1","0.5,0,1,0.5,0,1,0,1,0.5","2","",""
"","html-keyboard-response","147","99363","0.0-147.0","3AZHRG4CU567VJG8H2M1RQNI67R03U","A2MJ0X6M3VSFVN","3WRBLBQ2GRU63BU2LFOJL1G32T90GO","","null","<img src=""img/food4.png"" style=""width:200px; border:14px solid green;"">","null","","","","","","","","","",""
"","image-keyboard-response","148","99925","0.0-148.0","3AZHRG4CU567VJG8H2M1RQNI67R03U","A2MJ0X6M3VSFVN","3WRBLBQ2GRU63BU2LFOJL1G32T90GO","","554.3999999761581","img/food3.png","76","560.0999999940395","3","1","2","1","1,0.5,0,1,0.5,0,0.5,0,1","0.5,0,1,0.5,0,1,0,1,0.5","2","",""
"","html-keyboard-response","149","100233","0.0-149.0","3AZHRG4CU567VJG8H2M1RQNI67R03U","A2MJ0X6M3VSFVN","3WRBLBQ2GRU63BU2LFOJL1G32T90GO","","null","<img src=""img/food3.png"" style=""width:200px; border:14px solid green;"">","null","","","","","","","","","",""
"","image-keyboard-response","150","100612","0.0-150.0","3AZHRG4CU567VJG8H2M1RQNI67R03U","A2MJ0X6M3VSFVN","3WRBLBQ2GRU63BU2LFOJL1G32T90GO","","370.69999998807907","img/food4.png","76","377.60000002384186","3","1","1","1","1,0.5,0,1,0.5,0,0.5,0,1","0.5,0,1,0.5,0,1,0,1,0.5","2","",""
"","html-keyboard-response","151","100918","0.0-151.0","3AZHRG4CU567VJG8H2M1RQNI67R03U","A2MJ0X6M3VSFVN","3WRBLBQ2GRU63BU2LFOJL1G32T90GO","","null","<img src=""img/food4.png"" style=""width:200px; border:14px solid green;"">","null","","","","","","","","","",""
"","image-keyboard-response","152","101330","0.0-152.0","3AZHRG4CU567VJG8H2M1RQNI67R03U","A2MJ0X6M3VSFVN","3WRBLBQ2GRU63BU2LFOJL1G32T90GO","","404.40000000596046","img/food4.png","76","409.69999998807907","3","1","1","1","1,0.5,0,1,0.5,0,0.5,0,1","0.5,0,1,0.5,0,1,0,1,0.5","2","",""
"","html-keyboard-response","153","101638","0.0-153.0","3AZHRG4CU567VJG8H2M1RQNI67R03U","A2MJ0X6M3VSFVN","3WRBLBQ2GRU63BU2LFOJL1G32T90GO","","null","<img src=""img/food4.png"" style=""width:200px; border:14px solid green;"">","null","","","","","","","","","",""
"","image-keyboard-response","154","102040","0.0-154.0","3AZHRG4CU567VJG8H2M1RQNI67R03U","A2MJ0X6M3VSFVN","3WRBLBQ2GRU63BU2LFOJL1G32T90GO","","394.90000000596046","img/food4.png","76","400.2999999821186","3","1","1","1","1,0.5,0,1,0.5,0,0.5,0,1","0.5,0,1,0.5,0,1,0,1,0.5","2","",""
"","html-keyboard-response","155","102347","0.0-155.0","3AZHRG4CU567VJG8H2M1RQNI67R03U","A2MJ0X6M3VSFVN","3WRBLBQ2GRU63BU2LFOJL1G32T90GO","","null","<img src=""img/food4.png"" style=""width:200px; border:14px solid green;"">","null","","","","","","","","","",""
"","image-keyboard-response","156","102683","0.0-156.0","3AZHRG4CU567VJG8H2M1RQNI67R03U","A2MJ0X6M3VSFVN","3WRBLBQ2GRU63BU2LFOJL1G32T90GO","","327.90000000596046","img/food4.png","76","332.89999997615814","3","1","1","1","1,0.5,0,1,0.5,0,0.5,0,1","0.5,0,1,0.5,0,1,0,1,0.5","2","",""
"","html-keyboard-response","157","102991","0.0-157.0","3AZHRG4CU567VJG8H2M1RQNI67R03U","A2MJ0X6M3VSFVN","3WRBLBQ2GRU63BU2LFOJL1G32T90GO","","null","<img src=""img/food4.png"" style=""width:200px; border:14px solid green;"">","null","","","","","","","","","",""
"","image-keyboard-response","158","103253","0.0-158.0","3AZHRG4CU567VJG8H2M1RQNI67R03U","A2MJ0X6M3VSFVN","3WRBLBQ2GRU63BU2LFOJL1G32T90GO","","257.09999999403954","img/food4.png","76","261.7000000178814","3","1","1","1","1,0.5,0,1,0.5,0,0.5,0,1","0.5,0,1,0.5,0,1,0,1,0.5","2","",""
"","html-keyboard-response","159","103559","0.0-159.0","3AZHRG4CU567VJG8H2M1RQNI67R03U","A2MJ0X6M3VSFVN","3WRBLBQ2GRU63BU2LFOJL1G32T90GO","","null","<img src=""img/food4.png"" style=""width:200px; border:14px solid green;"">","null","","","","","","","","","",""
"","image-keyboard-response","160","103896","0.0-160.0","3AZHRG4CU567VJG8H2M1RQNI67R03U","A2MJ0X6M3VSFVN","3WRBLBQ2GRU63BU2LFOJL1G32T90GO","","324.59999999403954","img/food5.png","76","335.59999999403954","3","1","3","1","1,0.5,0,1,0.5,0,0.5,0,1","0.5,0,1,0.5,0,1,0,1,0.5","2","",""
"","html-keyboard-response","161","104203","0.0-161.0","3AZHRG4CU567VJG8H2M1RQNI67R03U","A2MJ0X6M3VSFVN","3WRBLBQ2GRU63BU2LFOJL1G32T90GO","","null","<img src=""img/food5.png"" style=""width:200px; border:14px solid green;"">","null","","","","","","","","","",""
"","image-keyboard-response","162","104652","0.0-162.0","3AZHRG4CU567VJG8H2M1RQNI67R03U","A2MJ0X6M3VSFVN","3WRBLBQ2GRU63BU2LFOJL1G32T90GO","","440","img/food4.png","76","447.80000001192093","3","1","1","1","1,0.5,0,1,0.5,0,0.5,0,1","0.5,0,1,0.5,0,1,0,1,0.5","2","",""
"","html-keyboard-response","163","104959","0.0-163.0","3AZHRG4CU567VJG8H2M1RQNI67R03U","A2MJ0X6M3VSFVN","3WRBLBQ2GRU63BU2LFOJL1G32T90GO","","null","<img src=""img/food4.png"" style=""width:200px; border:14px solid green;"">","null","","","","","","","","","",""
"","image-keyboard-response","164","105398","0.0-164.0","3AZHRG4CU567VJG8H2M1RQNI67R03U","A2MJ0X6M3VSFVN","3WRBLBQ2GRU63BU2LFOJL1G32T90GO","","429.59999999403954","img/food5.png","76","437.09999999403954","3","1","3","1","1,0.5,0,1,0.5,0,0.5,0,1","0.5,0,1,0.5,0,1,0,1,0.5","2","",""
"","html-keyboard-response","165","105705","0.0-165.0","3AZHRG4CU567VJG8H2M1RQNI67R03U","A2MJ0X6M3VSFVN","3WRBLBQ2GRU63BU2LFOJL1G32T90GO","","null","<img src=""img/food5.png"" style=""width:200px; border:14px solid green;"">","null","","","","","","","","","",""
"","image-keyboard-response","166","106124","0.0-166.0","3AZHRG4CU567VJG8H2M1RQNI67R03U","A2MJ0X6M3VSFVN","3WRBLBQ2GRU63BU2LFOJL1G32T90GO","","408.2999999821186","img/food3.png","76","416.2000000178814","3","1","2","1","1,0.5,0,1,0.5,0,0.5,0,1","0.5,0,1,0.5,0,1,0,1,0.5","2","",""
"","html-keyboard-response","167","106430","0.0-167.0","3AZHRG4CU567VJG8H2M1RQNI67R03U","A2MJ0X6M3VSFVN","3WRBLBQ2GRU63BU2LFOJL1G32T90GO","","null","<img src=""img/food3.png"" style=""width:200px; border:14px solid green;"">","null","","","","","","","","","",""
"","image-keyboard-response","168","106803","0.0-168.0","3AZHRG4CU567VJG8H2M1RQNI67R03U","A2MJ0X6M3VSFVN","3WRBLBQ2GRU63BU2LFOJL1G32T90GO","","365.09999999403954","img/food5.png","76","372.09999999403954","3","0","3","1","1,0.5,0,1,0.5,0,0.5,0,1","0.5,0,1,0.5,0,1,0,1,0.5","2","",""
"","html-keyboard-response","169","107114","0.0-169.0","3AZHRG4CU567VJG8H2M1RQNI67R03U","A2MJ0X6M3VSFVN","3WRBLBQ2GRU63BU2LFOJL1G32T90GO","","null","<img src=""img/food5.png"" style=""width:200px;border:14px solid red;"">","null","","","","","","","","","",""
"","image-keyboard-response","170","107787","0.0-170.0","3AZHRG4CU567VJG8H2M1RQNI67R03U","A2MJ0X6M3VSFVN","3WRBLBQ2GRU63BU2LFOJL1G32T90GO","","665.5","img/food4.png","75","671.0999999940395","2","0","1","1","1,0.5,0,1,0.5,0,0.5,0,1","0.5,0,1,0.5,0,1,0,1,0.5","2","",""
"","html-keyboard-response","171","108092","0.0-171.0","3AZHRG4CU567VJG8H2M1RQNI67R03U","A2MJ0X6M3VSFVN","3WRBLBQ2GRU63BU2LFOJL1G32T90GO","","null","<img src=""img/food4.png"" style=""width:200px;border:14px solid red;"">","null","","","","","","","","","",""
"","image-keyboard-response","172","108667","0.0-172.0","3AZHRG4CU567VJG8H2M1RQNI67R03U","A2MJ0X6M3VSFVN","3WRBLBQ2GRU63BU2LFOJL1G32T90GO","","567.1999999880791","img/food3.png","76","572.9000000059605","3","1","2","1","1,0.5,0,1,0.5,0,0.5,0,1","0.5,0,1,0.5,0,1,0,1,0.5","2","",""
"","html-keyboard-response","173","108972","0.0-173.0","3AZHRG4CU567VJG8H2M1RQNI67R03U","A2MJ0X6M3VSFVN","3WRBLBQ2GRU63BU2LFOJL1G32T90GO","","null","<img src=""img/food3.png"" style=""width:200px; border:14px solid green;"">","null","","","","","","","","","",""
"","image-keyboard-response","174","109433","0.0-174.0","3AZHRG4CU567VJG8H2M1RQNI67R03U","A2MJ0X6M3VSFVN","3WRBLBQ2GRU63BU2LFOJL1G32T90GO","","453.80000001192093","img/food4.png","75","459.5","2","0","1","1","1,0.5,0,1,0.5,0,0.5,0,1","0.5,0,1,0.5,0,1,0,1,0.5","2","",""
"","html-keyboard-response","175","109738","0.0-175.0","3AZHRG4CU567VJG8H2M1RQNI67R03U","A2MJ0X6M3VSFVN","3WRBLBQ2GRU63BU2LFOJL1G32T90GO","","null","<img src=""img/food4.png"" style=""width:200px;border:14px solid red;"">","null","","","","","","","","","",""
"","image-keyboard-response","176","110060","0.0-176.0","3AZHRG4CU567VJG8H2M1RQNI67R03U","A2MJ0X6M3VSFVN","3WRBLBQ2GRU63BU2LFOJL1G32T90GO","","314","img/food5.png","76","320.09999999403954","3","0","3","1","1,0.5,0,1,0.5,0,0.5,0,1","0.5,0,1,0.5,0,1,0,1,0.5","2","",""
"","html-keyboard-response","177","110367","0.0-177.0","3AZHRG4CU567VJG8H2M1RQNI67R03U","A2MJ0X6M3VSFVN","3WRBLBQ2GRU63BU2LFOJL1G32T90GO","","null","<img src=""img/food5.png"" style=""width:200px;border:14px solid red;"">","null","","","","","","","","","",""
"","image-keyboard-response","178","110721","0.0-178.0","3AZHRG4CU567VJG8H2M1RQNI67R03U","A2MJ0X6M3VSFVN","3WRBLBQ2GRU63BU2LFOJL1G32T90GO","","344.89999997615814","img/food3.png","76","352.30000001192093","3","1","2","1","1,0.5,0,1,0.5,0,0.5,0,1","0.5,0,1,0.5,0,1,0,1,0.5","2","",""
"","html-keyboard-response","179","111027","0.0-179.0","3AZHRG4CU567VJG8H2M1RQNI67R03U","A2MJ0X6M3VSFVN","3WRBLBQ2GRU63BU2LFOJL1G32T90GO","","null","<img src=""img/food3.png"" style=""width:200px; border:14px solid green;"">","null","","","","","","","","","",""
"","image-keyboard-response","180","111347","0.0-180.0","3AZHRG4CU567VJG8H2M1RQNI67R03U","A2MJ0X6M3VSFVN","3WRBLBQ2GRU63BU2LFOJL1G32T90GO","","314.5","img/food4.png","76","319.2000000178814","3","1","1","1","1,0.5,0,1,0.5,0,0.5,0,1","0.5,0,1,0.5,0,1,0,1,0.5","2","",""
"","html-keyboard-response","181","111655","0.0-181.0","3AZHRG4CU567VJG8H2M1RQNI67R03U","A2MJ0X6M3VSFVN","3WRBLBQ2GRU63BU2LFOJL1G32T90GO","","null","<img src=""img/food4.png"" style=""width:200px; border:14px solid green;"">","null","","","","","","","","","",""
"","html-keyboard-response","182","114193","0.0-182.0","3AZHRG4CU567VJG8H2M1RQNI67R03U","A2MJ0X6M3VSFVN","3WRBLBQ2GRU63BU2LFOJL1G32T90GO","","","","","","","","","","","","","",""
"","instructions","183","118981","0.0-183.0","3AZHRG4CU567VJG8H2M1RQNI67R03U","A2MJ0X6M3VSFVN","3WRBLBQ2GRU63BU2LFOJL1G32T90GO","[{""page_index"":0,""viewing_time"":3194.4000000059605},{""page_index"":1,""viewing_time"":1588.5999999940395}]","4785.700000017881","","","","","","","","","","","",""
"","image-keyboard-response","184","119844","0.0-184.0","3AZHRG4CU567VJG8H2M1RQNI67R03U","A2MJ0X6M3VSFVN","3WRBLBQ2GRU63BU2LFOJL1G32T90GO","","854.0999999940395","img/food6.png","75","861.1999999880791","2","0","1","2","1,0.5,0,1,0.5,0,0.5,0,1","1,0.5,0,1,0.5,0,0.5,0,1","1","false",""
"","html-keyboard-response","185","120150","0.0-185.0","3AZHRG4CU567VJG8H2M1RQNI67R03U","A2MJ0X6M3VSFVN","3WRBLBQ2GRU63BU2LFOJL1G32T90GO","","null","<img src=""img/food6.png"" style=""width:200px;border:14px solid red;"">","null","","","","","","","","","",""
"","image-keyboard-response","186","120508","0.0-187.0","3AZHRG4CU567VJG8H2M1RQNI67R03U","A2MJ0X6M3VSFVN","3WRBLBQ2GRU63BU2LFOJL1G32T90GO","","350.7000000178814","img/food1.png","76","355.60000002384186","3","0","2","2","1,0.5,0,1,0.5,0,0.5,0,1","1,0.5,0,1,0.5,0,0.5,0,1","1","false",""
"","html-keyboard-response","187","120818","0.0-188.0","3AZHRG4CU567VJG8H2M1RQNI67R03U","A2MJ0X6M3VSFVN","3WRBLBQ2GRU63BU2LFOJL1G32T90GO","","null","<img src=""img/food1.png"" style=""width:200px;border:14px solid red;"">","null","","","","","","","","","",""
"","image-keyboard-response","188","121283","0.0-190.0","3AZHRG4CU567VJG8H2M1RQNI67R03U","A2MJ0X6M3VSFVN","3WRBLBQ2GRU63BU2LFOJL1G32T90GO","","458.09999999403954","img/food2.png","76","463.2999999821186","3","1","3","2","1,0.5,0,1,0.5,0,0.5,0,1","1,0.5,0,1,0.5,0,0.5,0,1","1","false",""
"","html-keyboard-response","189","121589","0.0-191.0","3AZHRG4CU567VJG8H2M1RQNI67R03U","A2MJ0X6M3VSFVN","3WRBLBQ2GRU63BU2LFOJL1G32T90GO","","null","<img src=""img/food2.png"" style=""width:200px; border:14px solid green;"">","null","","","","","","","","","",""
"","image-keyboard-response","190","121995","0.0-193.0","3AZHRG4CU567VJG8H2M1RQNI67R03U","A2MJ0X6M3VSFVN","3WRBLBQ2GRU63BU2LFOJL1G32T90GO","","395.5","img/food1.png","76","403.19999998807907","3","0","2","2","1,0.5,0,1,0.5,0,0.5,0,1","1,0.5,0,1,0.5,0,0.5,0,1","1","false",""
"","html-keyboard-response","191","122303","0.0-194.0","3AZHRG4CU567VJG8H2M1RQNI67R03U","A2MJ0X6M3VSFVN","3WRBLBQ2GRU63BU2LFOJL1G32T90GO","","null","<img src=""img/food1.png"" style=""width:200px;border:14px solid red;"">","null","","","","","","","","","",""
"","image-keyboard-response","192","122672","0.0-196.0","3AZHRG4CU567VJG8H2M1RQNI67R03U","A2MJ0X6M3VSFVN","3WRBLBQ2GRU63BU2LFOJL1G32T90GO","","357.80000001192093","img/food6.png","76","363.30000001192093","3","0","1","2","1,0.5,0,1,0.5,0,0.5,0,1","1,0.5,0,1,0.5,0,0.5,0,1","1","false",""
"","html-keyboard-response","193","122979","0.0-197.0","3AZHRG4CU567VJG8H2M1RQNI67R03U","A2MJ0X6M3VSFVN","3WRBLBQ2GRU63BU2LFOJL1G32T90GO","","null","<img src=""img/food6.png"" style=""width:200px;border:14px solid red;"">","null","","","","","","","","","",""
"","image-keyboard-response","194","123364","0.0-199.0","3AZHRG4CU567VJG8H2M1RQNI67R03U","A2MJ0X6M3VSFVN","3WRBLBQ2GRU63BU2LFOJL1G32T90GO","","375.09999999403954","img/food1.png","75","380.5","2","0","2","2","1,0.5,0,1,0.5,0,0.5,0,1","1,0.5,0,1,0.5,0,0.5,0,1","1","false",""
"","html-keyboard-response","195","123674","0.0-200.0","3AZHRG4CU567VJG8H2M1RQNI67R03U","A2MJ0X6M3VSFVN","3WRBLBQ2GRU63BU2LFOJL1G32T90GO","","null","<img src=""img/food1.png"" style=""width:200px;border:14px solid red;"">","null","","","","","","","","","",""
"","image-keyboard-response","196","124689","0.0-202.0","3AZHRG4CU567VJG8H2M1RQNI67R03U","A2MJ0X6M3VSFVN","3WRBLBQ2GRU63BU2LFOJL1G32T90GO","","","img/food6.png","","1006","-1","0","1","2","1,0.5,0,1,0.5,0,0.5,0,1","1,0.5,0,1,0.5,0,0.5,0,1","1","true",""
"","html-keyboard-response","197","124999","0.0-203.0","3AZHRG4CU567VJG8H2M1RQNI67R03U","A2MJ0X6M3VSFVN","3WRBLBQ2GRU63BU2LFOJL1G32T90GO","","null","<img src=""img/food6.png"" style=""width:200px;border:14px solid red;"">","null","","","","","","","","","",""
"","html-keyboard-response","198","131595","0.0-204.0-0.0","3AZHRG4CU567VJG8H2M1RQNI67R03U","A2MJ0X6M3VSFVN","3WRBLBQ2GRU63BU2LFOJL1G32T90GO","","","","","","","","","","","","","",""
"","image-keyboard-response","199","132467","0.0-205.0","3AZHRG4CU567VJG8H2M1RQNI67R03U","A2MJ0X6M3VSFVN","3WRBLBQ2GRU63BU2LFOJL1G32T90GO","","859.8000000119209","img/food1.png","75","867.4000000059605","2","0","2","2","1,0.5,0,1,0.5,0,0.5,0,1","1,0.5,0,1,0.5,0,0.5,0,1","1","false",""
"","html-keyboard-response","200","132774","0.0-206.0","3AZHRG4CU567VJG8H2M1RQNI67R03U","A2MJ0X6M3VSFVN","3WRBLBQ2GRU63BU2LFOJL1G32T90GO","","null","<img src=""img/food1.png"" style=""width:200px;border:14px solid red;"">","null","","","","","","","","","",""
"","image-keyboard-response","201","133101","0.0-208.0","3AZHRG4CU567VJG8H2M1RQNI67R03U","A2MJ0X6M3VSFVN","3WRBLBQ2GRU63BU2LFOJL1G32T90GO","","314.59999999403954","img/food6.png","76","322.69999998807907","3","0","1","2","1,0.5,0,1,0.5,0,0.5,0,1","1,0.5,0,1,0.5,0,0.5,0,1","1","false",""
"","html-keyboard-response","202","133407","0.0-209.0","3AZHRG4CU567VJG8H2M1RQNI67R03U","A2MJ0X6M3VSFVN","3WRBLBQ2GRU63BU2LFOJL1G32T90GO","","null","<img src=""img/food6.png"" style=""width:200px;border:14px solid red;"">","null","","","","","","","","","",""
"","image-keyboard-response","203","134234","0.0-211.0","3AZHRG4CU567VJG8H2M1RQNI67R03U","A2MJ0X6M3VSFVN","3WRBLBQ2GRU63BU2LFOJL1G32T90GO","","817.0999999940395","img/food2.png","76","822.5999999940395","3","1","3","2","1,0.5,0,1,0.5,0,0.5,0,1","1,0.5,0,1,0.5,0,0.5,0,1","1","false",""
"","html-keyboard-response","204","134542","0.0-212.0","3AZHRG4CU567VJG8H2M1RQNI67R03U","A2MJ0X6M3VSFVN","3WRBLBQ2GRU63BU2LFOJL1G32T90GO","","null","<img src=""img/food2.png"" style=""width:200px; border:14px solid green;"">","null","","","","","","","","","",""
"","image-keyboard-response","205","135549","0.0-214.0","3AZHRG4CU567VJG8H2M1RQNI67R03U","A2MJ0X6M3VSFVN","3WRBLBQ2GRU63BU2LFOJL1G32T90GO","","","img/food2.png","","1005.0999999940395","-1","0","3","2","1,0.5,0,1,0.5,0,0.5,0,1","1,0.5,0,1,0.5,0,0.5,0,1","1","true",""
"","html-keyboard-response","206","135855","0.0-215.0","3AZHRG4CU567VJG8H2M1RQNI67R03U","A2MJ0X6M3VSFVN","3WRBLBQ2GRU63BU2LFOJL1G32T90GO","","null","<img src=""img/food2.png"" style=""width:200px;border:14px solid red;"">","null","","","","","","","","","",""
"","html-keyboard-response","207","138781","0.0-216.0-0.0","3AZHRG4CU567VJG8H2M1RQNI67R03U","A2MJ0X6M3VSFVN","3WRBLBQ2GRU63BU2LFOJL1G32T90GO","","","","","","","","","","","","","",""
"","image-keyboard-response","208","139792","0.0-217.0","3AZHRG4CU567VJG8H2M1RQNI67R03U","A2MJ0X6M3VSFVN","3WRBLBQ2GRU63BU2LFOJL1G32T90GO","","","img/food1.png","","1008.7000000178814","-1","0","2","2","1,0.5,0,1,0.5,0,0.5,0,1","1,0.5,0,1,0.5,0,0.5,0,1","1","true",""
"","html-keyboard-response","209","140103","0.0-218.0","3AZHRG4CU567VJG8H2M1RQNI67R03U","A2MJ0X6M3VSFVN","3WRBLBQ2GRU63BU2LFOJL1G32T90GO","","null","<img src=""img/food1.png"" style=""width:200px;border:14px solid red;"">","null","","","","","","","","","",""
"","html-keyboard-response","210","142098","0.0-219.0-0.0","3AZHRG4CU567VJG8H2M1RQNI67R03U","A2MJ0X6M3VSFVN","3WRBLBQ2GRU63BU2LFOJL1G32T90GO","","","","","","","","","","","","","",""
"","image-keyboard-response","211","142981","0.0-220.0","3AZHRG4CU567VJG8H2M1RQNI67R03U","A2MJ0X6M3VSFVN","3WRBLBQ2GRU63BU2LFOJL1G32T90GO","","874.2000000178814","img/food2.png","75","880.9000000059605","2","0","3","2","1,0.5,0,1,0.5,0,0.5,0,1","1,0.5,0,1,0.5,0,0.5,0,1","1","false",""
"","html-keyboard-response","212","143288","0.0-221.0","3AZHRG4CU567VJG8H2M1RQNI67R03U","A2MJ0X6M3VSFVN","3WRBLBQ2GRU63BU2LFOJL1G32T90GO","","null","<img src=""img/food2.png"" style=""width:200px;border:14px solid red;"">","null","","","","","","","","","",""
"","image-keyboard-response","213","143509","0.0-223.0","3AZHRG4CU567VJG8H2M1RQNI67R03U","A2MJ0X6M3VSFVN","3WRBLBQ2GRU63BU2LFOJL1G32T90GO","","210.80000001192093","img/food2.png","74","217.90000000596046","1","0","3","2","1,0.5,0,1,0.5,0,0.5,0,1","1,0.5,0,1,0.5,0,0.5,0,1","1","false",""
"","html-keyboard-response","214","143819","0.0-224.0","3AZHRG4CU567VJG8H2M1RQNI67R03U","A2MJ0X6M3VSFVN","3WRBLBQ2GRU63BU2LFOJL1G32T90GO","","null","<img src=""img/food2.png"" style=""width:200px;border:14px solid red;"">","null","","","","","","","","","",""
"","image-keyboard-response","215","144195","0.0-226.0","3AZHRG4CU567VJG8H2M1RQNI67R03U","A2MJ0X6M3VSFVN","3WRBLBQ2GRU63BU2LFOJL1G32T90GO","","365.19999998807907","img/food2.png","75","370.89999997615814","2","0","3","2","1,0.5,0,1,0.5,0,0.5,0,1","1,0.5,0,1,0.5,0,0.5,0,1","1","false",""
"","html-keyboard-response","216","144500","0.0-227.0","3AZHRG4CU567VJG8H2M1RQNI67R03U","A2MJ0X6M3VSFVN","3WRBLBQ2GRU63BU2LFOJL1G32T90GO","","null","<img src=""img/food2.png"" style=""width:200px;border:14px solid red;"">","null","","","","","","","","","",""
"","image-keyboard-response","217","144587","0.0-229.0","3AZHRG4CU567VJG8H2M1RQNI67R03U","A2MJ0X6M3VSFVN","3WRBLBQ2GRU63BU2LFOJL1G32T90GO","","75.59999999403954","img/food2.png","75","84.5","2","0","3","2","1,0.5,0,1,0.5,0,0.5,0,1","1,0.5,0,1,0.5,0,0.5,0,1","1","false",""
"","html-keyboard-response","218","144896","0.0-230.0","3AZHRG4CU567VJG8H2M1RQNI67R03U","A2MJ0X6M3VSFVN","3WRBLBQ2GRU63BU2LFOJL1G32T90GO","","null","<img src=""img/food2.png"" style=""width:200px;border:14px solid red;"">","null","","","","","","","","","",""
"","image-keyboard-response","219","145056","0.0-232.0","3AZHRG4CU567VJG8H2M1RQNI67R03U","A2MJ0X6M3VSFVN","3WRBLBQ2GRU63BU2LFOJL1G32T90GO","","151.09999999403954","img/food2.png","76","155.69999998807907","3","1","3","2","1,0.5,0,1,0.5,0,0.5,0,1","1,0.5,0,1,0.5,0,0.5,0,1","1","false",""
"","html-keyboard-response","220","145361","0.0-233.0","3AZHRG4CU567VJG8H2M1RQNI67R03U","A2MJ0X6M3VSFVN","3WRBLBQ2GRU63BU2LFOJL1G32T90GO","","null","<img src=""img/food2.png"" style=""width:200px; border:14px solid green;"">","null","","","","","","","","","",""
"","image-keyboard-response","221","145949","0.0-235.0","3AZHRG4CU567VJG8H2M1RQNI67R03U","A2MJ0X6M3VSFVN","3WRBLBQ2GRU63BU2LFOJL1G32T90GO","","581.1999999880791","img/food2.png","76","586.8000000119209","3","1","3","2","1,0.5,0,1,0.5,0,0.5,0,1","1,0.5,0,1,0.5,0,0.5,0,1","1","false",""
"","html-keyboard-response","222","146259","0.0-236.0","3AZHRG4CU567VJG8H2M1RQNI67R03U","A2MJ0X6M3VSFVN","3WRBLBQ2GRU63BU2LFOJL1G32T90GO","","null","<img src=""img/food2.png"" style=""width:200px; border:14px solid green;"">","null","","","","","","","","","",""
"","image-keyboard-response","223","146615","0.0-238.0","3AZHRG4CU567VJG8H2M1RQNI67R03U","A2MJ0X6M3VSFVN","3WRBLBQ2GRU63BU2LFOJL1G32T90GO","","346.7000000178814","img/food1.png","76","352.40000000596046","3","0","2","2","1,0.5,0,1,0.5,0,0.5,0,1","1,0.5,0,1,0.5,0,0.5,0,1","1","false",""
"","html-keyboard-response","224","146921","0.0-239.0","3AZHRG4CU567VJG8H2M1RQNI67R03U","A2MJ0X6M3VSFVN","3WRBLBQ2GRU63BU2LFOJL1G32T90GO","","null","<img src=""img/food1.png"" style=""width:200px;border:14px solid red;"">","null","","","","","","","","","",""
"","image-keyboard-response","225","147020","0.0-241.0","3AZHRG4CU567VJG8H2M1RQNI67R03U","A2MJ0X6M3VSFVN","3WRBLBQ2GRU63BU2LFOJL1G32T90GO","","90.40000000596046","img/food2.png","76","95.40000000596046","3","1","3","2","1,0.5,0,1,0.5,0,0.5,0,1","1,0.5,0,1,0.5,0,0.5,0,1","1","false",""
"","html-keyboard-response","226","147328","0.0-242.0","3AZHRG4CU567VJG8H2M1RQNI67R03U","A2MJ0X6M3VSFVN","3WRBLBQ2GRU63BU2LFOJL1G32T90GO","","null","<img src=""img/food2.png"" style=""width:200px; border:14px solid green;"">","null","","","","","","","","","",""
"","image-keyboard-response","227","147568","0.0-244.0","3AZHRG4CU567VJG8H2M1RQNI67R03U","A2MJ0X6M3VSFVN","3WRBLBQ2GRU63BU2LFOJL1G32T90GO","","229.90000000596046","img/food1.png","76","234.7000000178814","3","0","2","2","1,0.5,0,1,0.5,0,0.5,0,1","1,0.5,0,1,0.5,0,0.5,0,1","1","false",""
"","html-keyboard-response","228","147878","0.0-245.0","3AZHRG4CU567VJG8H2M1RQNI67R03U","A2MJ0X6M3VSFVN","3WRBLBQ2GRU63BU2LFOJL1G32T90GO","","null","<img src=""img/food1.png"" style=""width:200px;border:14px solid red;"">","null","","","","","","","","","",""
"","image-keyboard-response","229","148044","0.0-247.0","3AZHRG4CU567VJG8H2M1RQNI67R03U","A2MJ0X6M3VSFVN","3WRBLBQ2GRU63BU2LFOJL1G32T90GO","","155.5","img/food2.png","76","162.19999998807907","3","1","3","2","1,0.5,0,1,0.5,0,0.5,0,1","1,0.5,0,1,0.5,0,0.5,0,1","1","false",""
"","html-keyboard-response","230","148351","0.0-248.0","3AZHRG4CU567VJG8H2M1RQNI67R03U","A2MJ0X6M3VSFVN","3WRBLBQ2GRU63BU2LFOJL1G32T90GO","","null","<img src=""img/food2.png"" style=""width:200px; border:14px solid green;"">","null","","","","","","","","","",""
"","image-keyboard-response","231","148473","0.0-250.0","3AZHRG4CU567VJG8H2M1RQNI67R03U","A2MJ0X6M3VSFVN","3WRBLBQ2GRU63BU2LFOJL1G32T90GO","","112.59999999403954","img/food1.png","76","118.19999998807907","3","0","2","2","1,0.5,0,1,0.5,0,0.5,0,1","1,0.5,0,1,0.5,0,0.5,0,1","1","false",""
"","html-keyboard-response","232","148780","0.0-251.0","3AZHRG4CU567VJG8H2M1RQNI67R03U","A2MJ0X6M3VSFVN","3WRBLBQ2GRU63BU2LFOJL1G32T90GO","","null","<img src=""img/food1.png"" style=""width:200px;border:14px solid red;"">","null","","","","","","","","","",""
"","image-keyboard-response","233","148857","0.0-253.0","3AZHRG4CU567VJG8H2M1RQNI67R03U","A2MJ0X6M3VSFVN","3WRBLBQ2GRU63BU2LFOJL1G32T90GO","","70.30000001192093","img/food6.png","76","72.90000000596046","3","0","1","2","1,0.5,0,1,0.5,0,0.5,0,1","1,0.5,0,1,0.5,0,0.5,0,1","1","false",""
"","html-keyboard-response","234","149163","0.0-254.0","3AZHRG4CU567VJG8H2M1RQNI67R03U","A2MJ0X6M3VSFVN","3WRBLBQ2GRU63BU2LFOJL1G32T90GO","","null","<img src=""img/food6.png"" style=""width:200px;border:14px solid red;"">","null","","","","","","","","","",""
"","image-keyboard-response","235","149411","0.0-256.0","3AZHRG4CU567VJG8H2M1RQNI67R03U","A2MJ0X6M3VSFVN","3WRBLBQ2GRU63BU2LFOJL1G32T90GO","","241.09999999403954","img/food1.png","76","244.7999999821186","3","0","2","2","1,0.5,0,1,0.5,0,0.5,0,1","1,0.5,0,1,0.5,0,0.5,0,1","1","false",""
"","html-keyboard-response","236","149718","0.0-257.0","3AZHRG4CU567VJG8H2M1RQNI67R03U","A2MJ0X6M3VSFVN","3WRBLBQ2GRU63BU2LFOJL1G32T90GO","","null","<img src=""img/food1.png"" style=""width:200px;border:14px solid red;"">","null","","","","","","","","","",""
"","image-keyboard-response","237","149900","0.0-259.0","3AZHRG4CU567VJG8H2M1RQNI67R03U","A2MJ0X6M3VSFVN","3WRBLBQ2GRU63BU2LFOJL1G32T90GO","","171.7999999821186","img/food6.png","76","179.19999998807907","3","0","1","2","1,0.5,0,1,0.5,0,0.5,0,1","1,0.5,0,1,0.5,0,0.5,0,1","1","false",""
"","html-keyboard-response","238","150207","0.0-260.0","3AZHRG4CU567VJG8H2M1RQNI67R03U","A2MJ0X6M3VSFVN","3WRBLBQ2GRU63BU2LFOJL1G32T90GO","","null","<img src=""img/food6.png"" style=""width:200px;border:14px solid red;"">","null","","","","","","","","","",""
"","image-keyboard-response","239","150410","0.0-262.0","3AZHRG4CU567VJG8H2M1RQNI67R03U","A2MJ0X6M3VSFVN","3WRBLBQ2GRU63BU2LFOJL1G32T90GO","","194.09999999403954","img/food6.png","76","199.09999999403954","3","0","1","2","1,0.5,0,1,0.5,0,0.5,0,1","1,0.5,0,1,0.5,0,0.5,0,1","1","false",""
"","html-keyboard-response","240","150719","0.0-263.0","3AZHRG4CU567VJG8H2M1RQNI67R03U","A2MJ0X6M3VSFVN","3WRBLBQ2GRU63BU2LFOJL1G32T90GO","","null","<img src=""img/food6.png"" style=""width:200px;border:14px solid red;"">","null","","","","","","","","","",""
"","image-keyboard-response","241","150869","0.0-265.0","3AZHRG4CU567VJG8H2M1RQNI67R03U","A2MJ0X6M3VSFVN","3WRBLBQ2GRU63BU2LFOJL1G32T90GO","","140.59999999403954","img/food1.png","76","146.19999998807907","3","0","2","2","1,0.5,0,1,0.5,0,0.5,0,1","1,0.5,0,1,0.5,0,0.5,0,1","1","false",""
"","html-keyboard-response","242","151178","0.0-266.0","3AZHRG4CU567VJG8H2M1RQNI67R03U","A2MJ0X6M3VSFVN","3WRBLBQ2GRU63BU2LFOJL1G32T90GO","","null","<img src=""img/food1.png"" style=""width:200px;border:14px solid red;"">","null","","","","","","","","","",""
"","image-keyboard-response","243","151424","0.0-268.0","3AZHRG4CU567VJG8H2M1RQNI67R03U","A2MJ0X6M3VSFVN","3WRBLBQ2GRU63BU2LFOJL1G32T90GO","","234.69999998807907","img/food2.png","75","242.5","2","0","3","2","1,0.5,0,1,0.5,0,0.5,0,1","1,0.5,0,1,0.5,0,0.5,0,1","1","false",""
"","html-keyboard-response","244","151732","0.0-269.0","3AZHRG4CU567VJG8H2M1RQNI67R03U","A2MJ0X6M3VSFVN","3WRBLBQ2GRU63BU2LFOJL1G32T90GO","","null","<img src=""img/food2.png"" style=""width:200px;border:14px solid red;"">","null","","","","","","","","","",""
"","image-keyboard-response","245","151891","0.0-271.0","3AZHRG4CU567VJG8H2M1RQNI67R03U","A2MJ0X6M3VSFVN","3WRBLBQ2GRU63BU2LFOJL1G32T90GO","","148.09999999403954","img/food6.png","74","155.09999999403954","1","1","1","2","1,0.5,0,1,0.5,0,0.5,0,1","1,0.5,0,1,0.5,0,0.5,0,1","1","false",""
"","html-keyboard-response","246","152198","0.0-272.0","3AZHRG4CU567VJG8H2M1RQNI67R03U","A2MJ0X6M3VSFVN","3WRBLBQ2GRU63BU2LFOJL1G32T90GO","","null","<img src=""img/food6.png"" style=""width:200px; border:14px solid green;"">","null","","","","","","","","","",""
"","image-keyboard-response","247","152917","0.0-274.0","3AZHRG4CU567VJG8H2M1RQNI67R03U","A2MJ0X6M3VSFVN","3WRBLBQ2GRU63BU2LFOJL1G32T90GO","","707.3000000119209","img/food6.png","74","714.8000000119209","1","1","1","2","1,0.5,0,1,0.5,0,0.5,0,1","1,0.5,0,1,0.5,0,0.5,0,1","1","false",""
"","html-keyboard-response","248","153224","0.0-275.0","3AZHRG4CU567VJG8H2M1RQNI67R03U","A2MJ0X6M3VSFVN","3WRBLBQ2GRU63BU2LFOJL1G32T90GO","","null","<img src=""img/food6.png"" style=""width:200px; border:14px solid green;"">","null","","","","","","","","","",""
"","image-keyboard-response","249","153550","0.0-277.0","3AZHRG4CU567VJG8H2M1RQNI67R03U","A2MJ0X6M3VSFVN","3WRBLBQ2GRU63BU2LFOJL1G32T90GO","","317.5","img/food2.png","74","321.5","1","0","3","2","1,0.5,0,1,0.5,0,0.5,0,1","1,0.5,0,1,0.5,0,0.5,0,1","1","false",""
"","html-keyboard-response","250","153858","0.0-278.0","3AZHRG4CU567VJG8H2M1RQNI67R03U","A2MJ0X6M3VSFVN","3WRBLBQ2GRU63BU2LFOJL1G32T90GO","","null","<img src=""img/food2.png"" style=""width:200px;border:14px solid red;"">","null","","","","","","","","","",""
"","image-keyboard-response","251","154178","0.0-280.0","3AZHRG4CU567VJG8H2M1RQNI67R03U","A2MJ0X6M3VSFVN","3WRBLBQ2GRU63BU2LFOJL1G32T90GO","","314.40000000596046","img/food6.png","74","316.7000000178814","1","1","1","2","1,0.5,0,1,0.5,0,0.5,0,1","1,0.5,0,1,0.5,0,0.5,0,1","1","false",""
"","html-keyboard-response","252","154484","0.0-281.0","3AZHRG4CU567VJG8H2M1RQNI67R03U","A2MJ0X6M3VSFVN","3WRBLBQ2GRU63BU2LFOJL1G32T90GO","","null","<img src=""img/food6.png"" style=""width:200px; border:14px solid green;"">","null","","","","","","","","","",""
"","image-keyboard-response","253","154714","0.0-283.0","3AZHRG4CU567VJG8H2M1RQNI67R03U","A2MJ0X6M3VSFVN","3WRBLBQ2GRU63BU2LFOJL1G32T90GO","","221.40000000596046","img/food1.png","75","225.59999999403954","2","0","2","2","1,0.5,0,1,0.5,0,0.5,0,1","1,0.5,0,1,0.5,0,0.5,0,1","1","false",""
"","html-keyboard-response","254","155020","0.0-284.0","3AZHRG4CU567VJG8H2M1RQNI67R03U","A2MJ0X6M3VSFVN","3WRBLBQ2GRU63BU2LFOJL1G32T90GO","","null","<img src=""img/food1.png"" style=""width:200px;border:14px solid red;"">","null","","","","","","","","","",""
"","image-keyboard-response","255","155114","0.0-286.0","3AZHRG4CU567VJG8H2M1RQNI67R03U","A2MJ0X6M3VSFVN","3WRBLBQ2GRU63BU2LFOJL1G32T90GO","","87.59999999403954","img/food2.png","74","93.40000000596046","1","1","3","2","1,0.5,0,1,0.5,0,0.5,0,1","1,0.5,0,1,0.5,0,0.5,0,1","1","false",""
"","html-keyboard-response","256","155422","0.0-287.0","3AZHRG4CU567VJG8H2M1RQNI67R03U","A2MJ0X6M3VSFVN","3WRBLBQ2GRU63BU2LFOJL1G32T90GO","","null","<img src=""img/food2.png"" style=""width:200px; border:14px solid green;"">","null","","","","","","","","","",""
"","image-keyboard-response","257","155707","0.0-289.0","3AZHRG4CU567VJG8H2M1RQNI67R03U","A2MJ0X6M3VSFVN","3WRBLBQ2GRU63BU2LFOJL1G32T90GO","","276.10000002384186","img/food2.png","74","280.90000000596046","1","1","3","2","1,0.5,0,1,0.5,0,0.5,0,1","1,0.5,0,1,0.5,0,0.5,0,1","1","false",""
"","html-keyboard-response","258","156014","0.0-290.0","3AZHRG4CU567VJG8H2M1RQNI67R03U","A2MJ0X6M3VSFVN","3WRBLBQ2GRU63BU2LFOJL1G32T90GO","","null","<img src=""img/food2.png"" style=""width:200px; border:14px solid green;"">","null","","","","","","","","","",""
"","image-keyboard-response","259","156198","0.0-292.0","3AZHRG4CU567VJG8H2M1RQNI67R03U","A2MJ0X6M3VSFVN","3WRBLBQ2GRU63BU2LFOJL1G32T90GO","","177.30000001192093","img/food2.png","74","182.80000001192093","1","1","3","2","1,0.5,0,1,0.5,0,0.5,0,1","1,0.5,0,1,0.5,0,0.5,0,1","1","false",""
"","html-keyboard-response","260","156508","0.0-293.0","3AZHRG4CU567VJG8H2M1RQNI67R03U","A2MJ0X6M3VSFVN","3WRBLBQ2GRU63BU2LFOJL1G32T90GO","","null","<img src=""img/food2.png"" style=""width:200px; border:14px solid green;"">","null","","","","","","","","","",""
"","image-keyboard-response","261","156626","0.0-295.0","3AZHRG4CU567VJG8H2M1RQNI67R03U","A2MJ0X6M3VSFVN","3WRBLBQ2GRU63BU2LFOJL1G32T90GO","","110.09999999403954","img/food1.png","74","115.90000000596046","1","1","2","2","1,0.5,0,1,0.5,0,0.5,0,1","1,0.5,0,1,0.5,0,0.5,0,1","1","false",""
"","html-keyboard-response","262","156933","0.0-296.0","3AZHRG4CU567VJG8H2M1RQNI67R03U","A2MJ0X6M3VSFVN","3WRBLBQ2GRU63BU2LFOJL1G32T90GO","","null","<img src=""img/food1.png"" style=""width:200px; border:14px solid green;"">","null","","","","","","","","","",""
"","image-keyboard-response","263","157164","0.0-298.0","3AZHRG4CU567VJG8H2M1RQNI67R03U","A2MJ0X6M3VSFVN","3WRBLBQ2GRU63BU2LFOJL1G32T90GO","","219.19999998807907","img/food1.png","74","227.5","1","1","2","2","1,0.5,0,1,0.5,0,0.5,0,1","1,0.5,0,1,0.5,0,0.5,0,1","1","false",""
"","html-keyboard-response","264","157470","0.0-299.0","3AZHRG4CU567VJG8H2M1RQNI67R03U","A2MJ0X6M3VSFVN","3WRBLBQ2GRU63BU2LFOJL1G32T90GO","","null","<img src=""img/food1.png"" style=""width:200px; border:14px solid green;"">","null","","","","","","","","","",""
"","image-keyboard-response","265","157632","0.0-301.0","3AZHRG4CU567VJG8H2M1RQNI67R03U","A2MJ0X6M3VSFVN","3WRBLBQ2GRU63BU2LFOJL1G32T90GO","","153.09999999403954","img/food1.png","74","159.2999999821186","1","1","2","2","1,0.5,0,1,0.5,0,0.5,0,1","1,0.5,0,1,0.5,0,0.5,0,1","1","false",""
"","html-keyboard-response","266","157939","0.0-302.0","3AZHRG4CU567VJG8H2M1RQNI67R03U","A2MJ0X6M3VSFVN","3WRBLBQ2GRU63BU2LFOJL1G32T90GO","","null","<img src=""img/food1.png"" style=""width:200px; border:14px solid green;"">","null","","","","","","","","","",""
"","image-keyboard-response","267","158030","0.0-304.0","3AZHRG4CU567VJG8H2M1RQNI67R03U","A2MJ0X6M3VSFVN","3WRBLBQ2GRU63BU2LFOJL1G32T90GO","","82.5","img/food2.png","75","87.5","2","0","3","2","1,0.5,0,1,0.5,0,0.5,0,1","1,0.5,0,1,0.5,0,0.5,0,1","1","false",""
"","html-keyboard-response","268","158336","0.0-305.0","3AZHRG4CU567VJG8H2M1RQNI67R03U","A2MJ0X6M3VSFVN","3WRBLBQ2GRU63BU2LFOJL1G32T90GO","","null","<img src=""img/food2.png"" style=""width:200px;border:14px solid red;"">","null","","","","","","","","","",""
"","image-keyboard-response","269","158533","0.0-307.0","3AZHRG4CU567VJG8H2M1RQNI67R03U","A2MJ0X6M3VSFVN","3WRBLBQ2GRU63BU2LFOJL1G32T90GO","","183.89999997615814","img/food2.png","74","187.7999999821186","1","1","3","2","1,0.5,0,1,0.5,0,0.5,0,1","1,0.5,0,1,0.5,0,0.5,0,1","1","false",""
"","html-keyboard-response","270","158841","0.0-308.0","3AZHRG4CU567VJG8H2M1RQNI67R03U","A2MJ0X6M3VSFVN","3WRBLBQ2GRU63BU2LFOJL1G32T90GO","","null","<img src=""img/food2.png"" style=""width:200px; border:14px solid green;"">","null","","","","","","","","","",""
"","image-keyboard-response","271","159138","0.0-310.0","3AZHRG4CU567VJG8H2M1RQNI67R03U","A2MJ0X6M3VSFVN","3WRBLBQ2GRU63BU2LFOJL1G32T90GO","","289.19999998807907","img/food2.png","74","293.90000000596046","1","0","3","2","1,0.5,0,1,0.5,0,0.5,0,1","1,0.5,0,1,0.5,0,0.5,0,1","1","false",""
"","html-keyboard-response","272","159445","0.0-311.0","3AZHRG4CU567VJG8H2M1RQNI67R03U","A2MJ0X6M3VSFVN","3WRBLBQ2GRU63BU2LFOJL1G32T90GO","","null","<img src=""img/food2.png"" style=""width:200px;border:14px solid red;"">","null","","","","","","","","","",""
"","image-keyboard-response","273","159659","0.0-313.0","3AZHRG4CU567VJG8H2M1RQNI67R03U","A2MJ0X6M3VSFVN","3WRBLBQ2GRU63BU2LFOJL1G32T90GO","","205.09999999403954","img/food1.png","76","210.90000000596046","3","0","2","2","1,0.5,0,1,0.5,0,0.5,0,1","1,0.5,0,1,0.5,0,0.5,0,1","1","false",""
"","html-keyboard-response","274","159969","0.0-314.0","3AZHRG4CU567VJG8H2M1RQNI67R03U","A2MJ0X6M3VSFVN","3WRBLBQ2GRU63BU2LFOJL1G32T90GO","","null","<img src=""img/food1.png"" style=""width:200px;border:14px solid red;"">","null","","","","","","","","","",""
"","image-keyboard-response","275","160218","0.0-316.0","3AZHRG4CU567VJG8H2M1RQNI67R03U","A2MJ0X6M3VSFVN","3WRBLBQ2GRU63BU2LFOJL1G32T90GO","","242.90000000596046","img/food6.png","76","245.7999999821186","3","0","1","2","1,0.5,0,1,0.5,0,0.5,0,1","1,0.5,0,1,0.5,0,0.5,0,1","1","false",""
"","html-keyboard-response","276","160523","0.0-317.0","3AZHRG4CU567VJG8H2M1RQNI67R03U","A2MJ0X6M3VSFVN","3WRBLBQ2GRU63BU2LFOJL1G32T90GO","","null","<img src=""img/food6.png"" style=""width:200px;border:14px solid red;"">","null","","","","","","","","","",""
"","image-keyboard-response","277","160748","0.0-319.0","3AZHRG4CU567VJG8H2M1RQNI67R03U","A2MJ0X6M3VSFVN","3WRBLBQ2GRU63BU2LFOJL1G32T90GO","","218.2000000178814","img/food6.png","76","221.80000001192093","3","0","1","2","1,0.5,0,1,0.5,0,0.5,0,1","1,0.5,0,1,0.5,0,0.5,0,1","1","false",""
"","html-keyboard-response","278","161056","0.0-320.0","3AZHRG4CU567VJG8H2M1RQNI67R03U","A2MJ0X6M3VSFVN","3WRBLBQ2GRU63BU2LFOJL1G32T90GO","","null","<img src=""img/food6.png"" style=""width:200px;border:14px solid red;"">","null","","","","","","","","","",""
"","image-keyboard-response","279","161139","0.0-322.0","3AZHRG4CU567VJG8H2M1RQNI67R03U","A2MJ0X6M3VSFVN","3WRBLBQ2GRU63BU2LFOJL1G32T90GO","","73.59999999403954","img/food6.png","74","79","1","1","1","2","1,0.5,0,1,0.5,0,0.5,0,1","1,0.5,0,1,0.5,0,0.5,0,1","1","false",""
"","html-keyboard-response","280","161445","0.0-323.0","3AZHRG4CU567VJG8H2M1RQNI67R03U","A2MJ0X6M3VSFVN","3WRBLBQ2GRU63BU2LFOJL1G32T90GO","","null","<img src=""img/food6.png"" style=""width:200px; border:14px solid green;"">","null","","","","","","","","","",""
"","image-keyboard-response","281","161543","0.0-325.0","3AZHRG4CU567VJG8H2M1RQNI67R03U","A2MJ0X6M3VSFVN","3WRBLBQ2GRU63BU2LFOJL1G32T90GO","","88","img/food6.png","76","94.09999999403954","3","0","1","2","1,0.5,0,1,0.5,0,0.5,0,1","1,0.5,0,1,0.5,0,0.5,0,1","1","false",""
"","html-keyboard-response","282","161847","0.0-326.0","3AZHRG4CU567VJG8H2M1RQNI67R03U","A2MJ0X6M3VSFVN","3WRBLBQ2GRU63BU2LFOJL1G32T90GO","","null","<img src=""img/food6.png"" style=""width:200px;border:14px solid red;"">","null","","","","","","","","","",""
"","image-keyboard-response","283","161899","0.0-328.0","3AZHRG4CU567VJG8H2M1RQNI67R03U","A2MJ0X6M3VSFVN","3WRBLBQ2GRU63BU2LFOJL1G32T90GO","","49.10000002384186","img/food1.png","74","51.60000002384186","1","1","2","2","1,0.5,0,1,0.5,0,0.5,0,1","1,0.5,0,1,0.5,0,0.5,0,1","1","false",""
"","html-keyboard-response","284","162205","0.0-329.0","3AZHRG4CU567VJG8H2M1RQNI67R03U","A2MJ0X6M3VSFVN","3WRBLBQ2GRU63BU2LFOJL1G32T90GO","","null","<img src=""img/food1.png"" style=""width:200px; border:14px solid green;"">","null","","","","","","","","","",""
"","image-keyboard-response","285","162227","0.0-331.0","3AZHRG4CU567VJG8H2M1RQNI67R03U","A2MJ0X6M3VSFVN","3WRBLBQ2GRU63BU2LFOJL1G32T90GO","","15.099999994039536","img/food6.png","76","19.19999998807907","3","0","1","2","1,0.5,0,1,0.5,0,0.5,0,1","1,0.5,0,1,0.5,0,0.5,0,1","1","false",""
"","html-keyboard-response","286","162533","0.0-332.0","3AZHRG4CU567VJG8H2M1RQNI67R03U","A2MJ0X6M3VSFVN","3WRBLBQ2GRU63BU2LFOJL1G32T90GO","","null","<img src=""img/food6.png"" style=""width:200px;border:14px solid red;"">","null","","","","","","","","","",""
"","image-keyboard-response","287","162966","0.0-334.0","3AZHRG4CU567VJG8H2M1RQNI67R03U","A2MJ0X6M3VSFVN","3WRBLBQ2GRU63BU2LFOJL1G32T90GO","","422.59999999403954","img/food6.png","76","429.30000001192093","3","0","1","2","1,0.5,0,1,0.5,0,0.5,0,1","1,0.5,0,1,0.5,0,0.5,0,1","1","false",""
"","html-keyboard-response","288","163275","0.0-335.0","3AZHRG4CU567VJG8H2M1RQNI67R03U","A2MJ0X6M3VSFVN","3WRBLBQ2GRU63BU2LFOJL1G32T90GO","","null","<img src=""img/food6.png"" style=""width:200px;border:14px solid red;"">","null","","","","","","","","","",""
"","image-keyboard-response","289","163419","0.0-337.0","3AZHRG4CU567VJG8H2M1RQNI67R03U","A2MJ0X6M3VSFVN","3WRBLBQ2GRU63BU2LFOJL1G32T90GO","","135.59999999403954","img/food2.png","74","140.19999998807907","1","1","3","2","1,0.5,0,1,0.5,0,0.5,0,1","1,0.5,0,1,0.5,0,0.5,0,1","1","false",""
"","html-keyboard-response","290","163726","0.0-338.0","3AZHRG4CU567VJG8H2M1RQNI67R03U","A2MJ0X6M3VSFVN","3WRBLBQ2GRU63BU2LFOJL1G32T90GO","","null","<img src=""img/food2.png"" style=""width:200px; border:14px solid green;"">","null","","","","","","","","","",""
"","image-keyboard-response","291","163926","0.0-340.0","3AZHRG4CU567VJG8H2M1RQNI67R03U","A2MJ0X6M3VSFVN","3WRBLBQ2GRU63BU2LFOJL1G32T90GO","","190.89999997615814","img/food1.png","74","197.30000001192093","1","1","2","2","1,0.5,0,1,0.5,0,0.5,0,1","1,0.5,0,1,0.5,0,0.5,0,1","1","false",""
"","html-keyboard-response","292","164231","0.0-341.0","3AZHRG4CU567VJG8H2M1RQNI67R03U","A2MJ0X6M3VSFVN","3WRBLBQ2GRU63BU2LFOJL1G32T90GO","","null","<img src=""img/food1.png"" style=""width:200px; border:14px solid green;"">","null","","","","","","","","","",""
"","image-keyboard-response","293","164344","0.0-343.0","3AZHRG4CU567VJG8H2M1RQNI67R03U","A2MJ0X6M3VSFVN","3WRBLBQ2GRU63BU2LFOJL1G32T90GO","","107.19999998807907","img/food1.png","74","112.69999998807907","1","1","2","2","1,0.5,0,1,0.5,0,0.5,0,1","1,0.5,0,1,0.5,0,0.5,0,1","1","false",""
"","html-keyboard-response","294","164651","0.0-344.0","3AZHRG4CU567VJG8H2M1RQNI67R03U","A2MJ0X6M3VSFVN","3WRBLBQ2GRU63BU2LFOJL1G32T90GO","","null","<img src=""img/food1.png"" style=""width:200px; border:14px solid green;"">","null","","","","","","","","","",""
"","image-keyboard-response","295","164718","0.0-346.0","3AZHRG4CU567VJG8H2M1RQNI67R03U","A2MJ0X6M3VSFVN","3WRBLBQ2GRU63BU2LFOJL1G32T90GO","","57.79999998211861","img/food6.png","74","64.39999997615814","1","1","1","2","1,0.5,0,1,0.5,0,0.5,0,1","1,0.5,0,1,0.5,0,0.5,0,1","1","false",""
"","html-keyboard-response","296","165027","0.0-347.0","3AZHRG4CU567VJG8H2M1RQNI67R03U","A2MJ0X6M3VSFVN","3WRBLBQ2GRU63BU2LFOJL1G32T90GO","","null","<img src=""img/food6.png"" style=""width:200px; border:14px solid green;"">","null","","","","","","","","","",""
"","image-keyboard-response","297","165049","0.0-349.0","3AZHRG4CU567VJG8H2M1RQNI67R03U","A2MJ0X6M3VSFVN","3WRBLBQ2GRU63BU2LFOJL1G32T90GO","","16.5","img/food1.png","74","19.5","1","1","2","2","1,0.5,0,1,0.5,0,0.5,0,1","1,0.5,0,1,0.5,0,0.5,0,1","1","false",""
"","html-keyboard-response","298","165360","0.0-350.0","3AZHRG4CU567VJG8H2M1RQNI67R03U","A2MJ0X6M3VSFVN","3WRBLBQ2GRU63BU2LFOJL1G32T90GO","","null","<img src=""img/food1.png"" style=""width:200px; border:14px solid green;"">","null","","","","","","","","","",""
"","image-keyboard-response","299","165402","0.0-352.0","3AZHRG4CU567VJG8H2M1RQNI67R03U","A2MJ0X6M3VSFVN","3WRBLBQ2GRU63BU2LFOJL1G32T90GO","","31.299999982118607","img/food6.png","74","38.60000002384186","1","1","1","2","1,0.5,0,1,0.5,0,0.5,0,1","1,0.5,0,1,0.5,0,0.5,0,1","1","false",""
"","html-keyboard-response","300","165708","0.0-353.0","3AZHRG4CU567VJG8H2M1RQNI67R03U","A2MJ0X6M3VSFVN","3WRBLBQ2GRU63BU2LFOJL1G32T90GO","","null","<img src=""img/food6.png"" style=""width:200px; border:14px solid green;"">","null","","","","","","","","","",""
"","image-keyboard-response","301","165738","0.0-355.0","3AZHRG4CU567VJG8H2M1RQNI67R03U","A2MJ0X6M3VSFVN","3WRBLBQ2GRU63BU2LFOJL1G32T90GO","","23.5","img/food1.png","74","27","1","1","2","2","1,0.5,0,1,0.5,0,0.5,0,1","1,0.5,0,1,0.5,0,0.5,0,1","1","false",""
"","html-keyboard-response","302","166044","0.0-356.0","3AZHRG4CU567VJG8H2M1RQNI67R03U","A2MJ0X6M3VSFVN","3WRBLBQ2GRU63BU2LFOJL1G32T90GO","","null","<img src=""img/food1.png"" style=""width:200px; border:14px solid green;"">","null","","","","","","","","","",""
"","image-keyboard-response","303","166068","0.0-358.0","3AZHRG4CU567VJG8H2M1RQNI67R03U","A2MJ0X6M3VSFVN","3WRBLBQ2GRU63BU2LFOJL1G32T90GO","","15","img/food1.png","74","20.299999982118607","1","1","2","2","1,0.5,0,1,0.5,0,0.5,0,1","1,0.5,0,1,0.5,0,0.5,0,1","1","false",""
"","html-keyboard-response","304","166377","0.0-359.0","3AZHRG4CU567VJG8H2M1RQNI67R03U","A2MJ0X6M3VSFVN","3WRBLBQ2GRU63BU2LFOJL1G32T90GO","","null","<img src=""img/food1.png"" style=""width:200px; border:14px solid green;"">","null","","","","","","","","","",""
"","image-keyboard-response","305","166440","0.0-361.0","3AZHRG4CU567VJG8H2M1RQNI67R03U","A2MJ0X6M3VSFVN","3WRBLBQ2GRU63BU2LFOJL1G32T90GO","","53","img/food6.png","74","59.10000002384186","1","1","1","2","1,0.5,0,1,0.5,0,0.5,0,1","1,0.5,0,1,0.5,0,0.5,0,1","1","false",""
"","html-keyboard-response","306","166747","0.0-362.0","3AZHRG4CU567VJG8H2M1RQNI67R03U","A2MJ0X6M3VSFVN","3WRBLBQ2GRU63BU2LFOJL1G32T90GO","","null","<img src=""img/food6.png"" style=""width:200px; border:14px solid green;"">","null","","","","","","","","","",""
"","image-keyboard-response","307","167151","0.0-364.0","3AZHRG4CU567VJG8H2M1RQNI67R03U","A2MJ0X6M3VSFVN","3WRBLBQ2GRU63BU2LFOJL1G32T90GO","","398.2000000178814","img/food6.png","74","402.30000001192093","1","1","1","2","1,0.5,0,1,0.5,0,0.5,0,1","1,0.5,0,1,0.5,0,0.5,0,1","1","false",""
"","html-keyboard-response","308","167457","0.0-365.0","3AZHRG4CU567VJG8H2M1RQNI67R03U","A2MJ0X6M3VSFVN","3WRBLBQ2GRU63BU2LFOJL1G32T90GO","","null","<img src=""img/food6.png"" style=""width:200px; border:14px solid green;"">","null","","","","","","","","","",""
"","image-keyboard-response","309","167529","0.0-367.0","3AZHRG4CU567VJG8H2M1RQNI67R03U","A2MJ0X6M3VSFVN","3WRBLBQ2GRU63BU2LFOJL1G32T90GO","","62.70000001788139","img/food2.png","74","69.40000000596046","1","0","3","2","1,0.5,0,1,0.5,0,0.5,0,1","1,0.5,0,1,0.5,0,0.5,0,1","1","false",""
"","html-keyboard-response","310","167838","0.0-368.0","3AZHRG4CU567VJG8H2M1RQNI67R03U","A2MJ0X6M3VSFVN","3WRBLBQ2GRU63BU2LFOJL1G32T90GO","","null","<img src=""img/food2.png"" style=""width:200px;border:14px solid red;"">","null","","","","","","","","","",""
"","image-keyboard-response","311","167850","0.0-370.0","3AZHRG4CU567VJG8H2M1RQNI67R03U","A2MJ0X6M3VSFVN","3WRBLBQ2GRU63BU2LFOJL1G32T90GO","","0.29999998211860657","img/food2.png","74","8.299999982118607","1","0","3","2","1,0.5,0,1,0.5,0,0.5,0,1","1,0.5,0,1,0.5,0,0.5,0,1","1","false",""
"","html-keyboard-response","312","168160","0.0-371.0","3AZHRG4CU567VJG8H2M1RQNI67R03U","A2MJ0X6M3VSFVN","3WRBLBQ2GRU63BU2LFOJL1G32T90GO","","null","<img src=""img/food2.png"" style=""width:200px;border:14px solid red;"">","null","","","","","","","","","",""
"","image-keyboard-response","313","168588","0.0-373.0","3AZHRG4CU567VJG8H2M1RQNI67R03U","A2MJ0X6M3VSFVN","3WRBLBQ2GRU63BU2LFOJL1G32T90GO","","422","img/food2.png","76","424.80000001192093","3","1","3","2","1,0.5,0,1,0.5,0,0.5,0,1","1,0.5,0,1,0.5,0,0.5,0,1","1","false",""
"","html-keyboard-response","314","168894","0.0-374.0","3AZHRG4CU567VJG8H2M1RQNI67R03U","A2MJ0X6M3VSFVN","3WRBLBQ2GRU63BU2LFOJL1G32T90GO","","null","<img src=""img/food2.png"" style=""width:200px; border:14px solid green;"">","null","","","","","","","","","",""
"","image-keyboard-response","315","169240","0.0-376.0","3AZHRG4CU567VJG8H2M1RQNI67R03U","A2MJ0X6M3VSFVN","3WRBLBQ2GRU63BU2LFOJL1G32T90GO","","336.69999998807907","img/food6.png","76","342.30000001192093","3","0","1","2","1,0.5,0,1,0.5,0,0.5,0,1","1,0.5,0,1,0.5,0,0.5,0,1","1","false",""
"","html-keyboard-response","316","169544","0.0-377.0","3AZHRG4CU567VJG8H2M1RQNI67R03U","A2MJ0X6M3VSFVN","3WRBLBQ2GRU63BU2LFOJL1G32T90GO","","null","<img src=""img/food6.png"" style=""width:200px;border:14px solid red;"">","null","","","","","","","","","",""
"","image-keyboard-response","317","169654","0.0-379.0","3AZHRG4CU567VJG8H2M1RQNI67R03U","A2MJ0X6M3VSFVN","3WRBLBQ2GRU63BU2LFOJL1G32T90GO","","101.90000000596046","img/food1.png","76","107.80000001192093","3","0","2","2","1,0.5,0,1,0.5,0,0.5,0,1","1,0.5,0,1,0.5,0,0.5,0,1","1","false",""
"","html-keyboard-response","318","169962","0.0-380.0","3AZHRG4CU567VJG8H2M1RQNI67R03U","A2MJ0X6M3VSFVN","3WRBLBQ2GRU63BU2LFOJL1G32T90GO","","null","<img src=""img/food1.png"" style=""width:200px;border:14px solid red;"">","null","","","","","","","","","",""
"","image-keyboard-response","319","170027","0.0-382.0","3AZHRG4CU567VJG8H2M1RQNI67R03U","A2MJ0X6M3VSFVN","3WRBLBQ2GRU63BU2LFOJL1G32T90GO","","57.5","img/food6.png","74","62","1","1","1","2","1,0.5,0,1,0.5,0,0.5,0,1","1,0.5,0,1,0.5,0,0.5,0,1","1","false",""
"","html-keyboard-response","320","170335","0.0-383.0","3AZHRG4CU567VJG8H2M1RQNI67R03U","A2MJ0X6M3VSFVN","3WRBLBQ2GRU63BU2LFOJL1G32T90GO","","null","<img src=""img/food6.png"" style=""width:200px; border:14px solid green;"">","null","","","","","","","","","",""
"","image-keyboard-response","321","170441","0.0-385.0","3AZHRG4CU567VJG8H2M1RQNI67R03U","A2MJ0X6M3VSFVN","3WRBLBQ2GRU63BU2LFOJL1G32T90GO","","98.7000000178814","img/food6.png","76","102","3","0","1","2","1,0.5,0,1,0.5,0,0.5,0,1","1,0.5,0,1,0.5,0,0.5,0,1","1","false",""
"","html-keyboard-response","322","170747","0.0-386.0","3AZHRG4CU567VJG8H2M1RQNI67R03U","A2MJ0X6M3VSFVN","3WRBLBQ2GRU63BU2LFOJL1G32T90GO","","null","<img src=""img/food6.png"" style=""width:200px;border:14px solid red;"">","null","","","","","","","","","",""
"","image-keyboard-response","323","171366","0.0-388.0","3AZHRG4CU567VJG8H2M1RQNI67R03U","A2MJ0X6M3VSFVN","3WRBLBQ2GRU63BU2LFOJL1G32T90GO","","610.0999999940395","img/food2.png","76","616.5999999940395","3","1","3","2","1,0.5,0,1,0.5,0,0.5,0,1","1,0.5,0,1,0.5,0,0.5,0,1","1","false",""
"","html-keyboard-response","324","171675","0.0-389.0","3AZHRG4CU567VJG8H2M1RQNI67R03U","A2MJ0X6M3VSFVN","3WRBLBQ2GRU63BU2LFOJL1G32T90GO","","null","<img src=""img/food2.png"" style=""width:200px; border:14px solid green;"">","null","","","","","","","","","",""
"","image-keyboard-response","325","171988","0.0-391.0","3AZHRG4CU567VJG8H2M1RQNI67R03U","A2MJ0X6M3VSFVN","3WRBLBQ2GRU63BU2LFOJL1G32T90GO","","303.2000000178814","img/food6.png","74","309.5","1","1","1","2","1,0.5,0,1,0.5,0,0.5,0,1","1,0.5,0,1,0.5,0,0.5,0,1","1","false",""
"","html-keyboard-response","326","172297","0.0-392.0","3AZHRG4CU567VJG8H2M1RQNI67R03U","A2MJ0X6M3VSFVN","3WRBLBQ2GRU63BU2LFOJL1G32T90GO","","null","<img src=""img/food6.png"" style=""width:200px; border:14px solid green;"">","null","","","","","","","","","",""
"","image-keyboard-response","327","172431","0.0-394.0","3AZHRG4CU567VJG8H2M1RQNI67R03U","A2MJ0X6M3VSFVN","3WRBLBQ2GRU63BU2LFOJL1G32T90GO","","125.5","img/food2.png","76","129.59999999403954","3","1","3","2","1,0.5,0,1,0.5,0,0.5,0,1","1,0.5,0,1,0.5,0,0.5,0,1","1","false",""
"","html-keyboard-response","328","172739","0.0-395.0","3AZHRG4CU567VJG8H2M1RQNI67R03U","A2MJ0X6M3VSFVN","3WRBLBQ2GRU63BU2LFOJL1G32T90GO","","null","<img src=""img/food2.png"" style=""width:200px; border:14px solid green;"">","null","","","","","","","","","",""
"","image-keyboard-response","329","172876","0.0-397.0","3AZHRG4CU567VJG8H2M1RQNI67R03U","A2MJ0X6M3VSFVN","3WRBLBQ2GRU63BU2LFOJL1G32T90GO","","129.39999997615814","img/food2.png","75","135.5","2","0","3","2","1,0.5,0,1,0.5,0,0.5,0,1","1,0.5,0,1,0.5,0,0.5,0,1","1","false",""
"","html-keyboard-response","330","173185","0.0-398.0","3AZHRG4CU567VJG8H2M1RQNI67R03U","A2MJ0X6M3VSFVN","3WRBLBQ2GRU63BU2LFOJL1G32T90GO","","null","<img src=""img/food2.png"" style=""width:200px;border:14px solid red;"">","null","","","","","","","","","",""
"","image-keyboard-response","331","173305","0.0-400.0","3AZHRG4CU567VJG8H2M1RQNI67R03U","A2MJ0X6M3VSFVN","3WRBLBQ2GRU63BU2LFOJL1G32T90GO","","110.7999999821186","img/food6.png","74","116.19999998807907","1","1","1","2","1,0.5,0,1,0.5,0,0.5,0,1","1,0.5,0,1,0.5,0,0.5,0,1","1","false",""
"","html-keyboard-response","332","173612","0.0-401.0","3AZHRG4CU567VJG8H2M1RQNI67R03U","A2MJ0X6M3VSFVN","3WRBLBQ2GRU63BU2LFOJL1G32T90GO","","null","<img src=""img/food6.png"" style=""width:200px; border:14px solid green;"">","null","","","","","","","","","",""
"","image-keyboard-response","333","173831","0.0-403.0","3AZHRG4CU567VJG8H2M1RQNI67R03U","A2MJ0X6M3VSFVN","3WRBLBQ2GRU63BU2LFOJL1G32T90GO","","213.19999998807907","img/food1.png","75","217","2","0","2","2","1,0.5,0,1,0.5,0,0.5,0,1","1,0.5,0,1,0.5,0,0.5,0,1","1","false",""
"","html-keyboard-response","334","174140","0.0-404.0","3AZHRG4CU567VJG8H2M1RQNI67R03U","A2MJ0X6M3VSFVN","3WRBLBQ2GRU63BU2LFOJL1G32T90GO","","null","<img src=""img/food1.png"" style=""width:200px;border:14px solid red;"">","null","","","","","","","","","",""
"","image-keyboard-response","335","174276","0.0-406.0","3AZHRG4CU567VJG8H2M1RQNI67R03U","A2MJ0X6M3VSFVN","3WRBLBQ2GRU63BU2LFOJL1G32T90GO","","124.09999999403954","img/food6.png","74","131.89999997615814","1","1","1","2","1,0.5,0,1,0.5,0,0.5,0,1","1,0.5,0,1,0.5,0,0.5,0,1","1","false",""
"","html-keyboard-response","336","174584","0.0-407.0","3AZHRG4CU567VJG8H2M1RQNI67R03U","A2MJ0X6M3VSFVN","3WRBLBQ2GRU63BU2LFOJL1G32T90GO","","null","<img src=""img/food6.png"" style=""width:200px; border:14px solid green;"">","null","","","","","","","","","",""
"","image-keyboard-response","337","174681","0.0-409.0","3AZHRG4CU567VJG8H2M1RQNI67R03U","A2MJ0X6M3VSFVN","3WRBLBQ2GRU63BU2LFOJL1G32T90GO","","90.40000000596046","img/food6.png","76","94.69999998807907","3","0","1","2","1,0.5,0,1,0.5,0,0.5,0,1","1,0.5,0,1,0.5,0,0.5,0,1","1","false",""
"","html-keyboard-response","338","174987","0.0-410.0","3AZHRG4CU567VJG8H2M1RQNI67R03U","A2MJ0X6M3VSFVN","3WRBLBQ2GRU63BU2LFOJL1G32T90GO","","null","<img src=""img/food6.png"" style=""width:200px;border:14px solid red;"">","null","","","","","","","","","",""
"","image-keyboard-response","339","175427","0.0-412.0","3AZHRG4CU567VJG8H2M1RQNI67R03U","A2MJ0X6M3VSFVN","3WRBLBQ2GRU63BU2LFOJL1G32T90GO","","431.90000000596046","img/food2.png","74","436.5","1","1","3","2","1,0.5,0,1,0.5,0,0.5,0,1","1,0.5,0,1,0.5,0,0.5,0,1","1","false",""
"","html-keyboard-response","340","175733","0.0-413.0","3AZHRG4CU567VJG8H2M1RQNI67R03U","A2MJ0X6M3VSFVN","3WRBLBQ2GRU63BU2LFOJL1G32T90GO","","null","<img src=""img/food2.png"" style=""width:200px; border:14px solid green;"">","null","","","","","","","","","",""
"","image-keyboard-response","341","175838","0.0-415.0","3AZHRG4CU567VJG8H2M1RQNI67R03U","A2MJ0X6M3VSFVN","3WRBLBQ2GRU63BU2LFOJL1G32T90GO","","97.09999999403954","img/food2.png","76","101.69999998807907","3","1","3","2","1,0.5,0,1,0.5,0,0.5,0,1","1,0.5,0,1,0.5,0,0.5,0,1","1","false",""
"","html-keyboard-response","342","176147","0.0-416.0","3AZHRG4CU567VJG8H2M1RQNI67R03U","A2MJ0X6M3VSFVN","3WRBLBQ2GRU63BU2LFOJL1G32T90GO","","null","<img src=""img/food2.png"" style=""width:200px; border:14px solid green;"">","null","","","","","","","","","",""
"","image-keyboard-response","343","176478","0.0-418.0","3AZHRG4CU567VJG8H2M1RQNI67R03U","A2MJ0X6M3VSFVN","3WRBLBQ2GRU63BU2LFOJL1G32T90GO","","323.19999998807907","img/food1.png","74","327.2000000178814","1","1","2","2","1,0.5,0,1,0.5,0,0.5,0,1","1,0.5,0,1,0.5,0,0.5,0,1","1","false",""
"","html-keyboard-response","344","176782","0.0-419.0","3AZHRG4CU567VJG8H2M1RQNI67R03U","A2MJ0X6M3VSFVN","3WRBLBQ2GRU63BU2LFOJL1G32T90GO","","null","<img src=""img/food1.png"" style=""width:200px; border:14px solid green;"">","null","","","","","","","","","",""
"","image-keyboard-response","345","177187","0.0-421.0","3AZHRG4CU567VJG8H2M1RQNI67R03U","A2MJ0X6M3VSFVN","3WRBLBQ2GRU63BU2LFOJL1G32T90GO","","398.90000000596046","img/food1.png","76","403.09999999403954","3","0","2","2","1,0.5,0,1,0.5,0,0.5,0,1","1,0.5,0,1,0.5,0,0.5,0,1","1","false",""
"","html-keyboard-response","346","177493","0.0-422.0","3AZHRG4CU567VJG8H2M1RQNI67R03U","A2MJ0X6M3VSFVN","3WRBLBQ2GRU63BU2LFOJL1G32T90GO","","null","<img src=""img/food1.png"" style=""width:200px;border:14px solid red;"">","null","","","","","","","","","",""
"","image-keyboard-response","347","177563","0.0-424.0","3AZHRG4CU567VJG8H2M1RQNI67R03U","A2MJ0X6M3VSFVN","3WRBLBQ2GRU63BU2LFOJL1G32T90GO","","59.19999998807907","img/food1.png","74","65.5","1","1","2","2","1,0.5,0,1,0.5,0,0.5,0,1","1,0.5,0,1,0.5,0,0.5,0,1","1","false",""
"","html-keyboard-response","348","177870","0.0-425.0","3AZHRG4CU567VJG8H2M1RQNI67R03U","A2MJ0X6M3VSFVN","3WRBLBQ2GRU63BU2LFOJL1G32T90GO","","null","<img src=""img/food1.png"" style=""width:200px; border:14px solid green;"">","null","","","","","","","","","",""
"","image-keyboard-response","349","177996","0.0-427.0","3AZHRG4CU567VJG8H2M1RQNI67R03U","A2MJ0X6M3VSFVN","3WRBLBQ2GRU63BU2LFOJL1G32T90GO","","117.39999997615814","img/food6.png","74","123.80000001192093","1","1","1","2","1,0.5,0,1,0.5,0,0.5,0,1","1,0.5,0,1,0.5,0,0.5,0,1","1","false",""
"","html-keyboard-response","350","178304","0.0-428.0","3AZHRG4CU567VJG8H2M1RQNI67R03U","A2MJ0X6M3VSFVN","3WRBLBQ2GRU63BU2LFOJL1G32T90GO","","null","<img src=""img/food6.png"" style=""width:200px; border:14px solid green;"">","null","","","","","","","","","",""
"","image-keyboard-response","351","178317","0.0-430.0","3AZHRG4CU567VJG8H2M1RQNI67R03U","A2MJ0X6M3VSFVN","3WRBLBQ2GRU63BU2LFOJL1G32T90GO","","6.5","img/food1.png","76","10","3","0","2","2","1,0.5,0,1,0.5,0,0.5,0,1","1,0.5,0,1,0.5,0,0.5,0,1","1","false",""
"","html-keyboard-response","352","178622","0.0-431.0","3AZHRG4CU567VJG8H2M1RQNI67R03U","A2MJ0X6M3VSFVN","3WRBLBQ2GRU63BU2LFOJL1G32T90GO","","null","<img src=""img/food1.png"" style=""width:200px;border:14px solid red;"">","null","","","","","","","","","",""
"","image-keyboard-response","353","178778","0.0-433.0","3AZHRG4CU567VJG8H2M1RQNI67R03U","A2MJ0X6M3VSFVN","3WRBLBQ2GRU63BU2LFOJL1G32T90GO","","146.90000000596046","img/food1.png","74","150.80000001192093","1","1","2","2","1,0.5,0,1,0.5,0,0.5,0,1","1,0.5,0,1,0.5,0,0.5,0,1","1","false",""
"","html-keyboard-response","354","179083","0.0-434.0","3AZHRG4CU567VJG8H2M1RQNI67R03U","A2MJ0X6M3VSFVN","3WRBLBQ2GRU63BU2LFOJL1G32T90GO","","null","<img src=""img/food1.png"" style=""width:200px; border:14px solid green;"">","null","","","","","","","","","",""
"","image-keyboard-response","355","179183","0.0-436.0","3AZHRG4CU567VJG8H2M1RQNI67R03U","A2MJ0X6M3VSFVN","3WRBLBQ2GRU63BU2LFOJL1G32T90GO","","93.59999999403954","img/food1.png","74","97.39999997615814","1","1","2","2","1,0.5,0,1,0.5,0,0.5,0,1","1,0.5,0,1,0.5,0,0.5,0,1","1","false",""
"","html-keyboard-response","356","179490","0.0-437.0","3AZHRG4CU567VJG8H2M1RQNI67R03U","A2MJ0X6M3VSFVN","3WRBLBQ2GRU63BU2LFOJL1G32T90GO","","null","<img src=""img/food1.png"" style=""width:200px; border:14px solid green;"">","null","","","","","","","","","",""
"","image-keyboard-response","357","179523","0.0-439.0","3AZHRG4CU567VJG8H2M1RQNI67R03U","A2MJ0X6M3VSFVN","3WRBLBQ2GRU63BU2LFOJL1G32T90GO","","26.19999998807907","img/food2.png","76","30","3","1","3","2","1,0.5,0,1,0.5,0,0.5,0,1","1,0.5,0,1,0.5,0,0.5,0,1","1","false",""
"","html-keyboard-response","358","179830","0.0-440.0","3AZHRG4CU567VJG8H2M1RQNI67R03U","A2MJ0X6M3VSFVN","3WRBLBQ2GRU63BU2LFOJL1G32T90GO","","null","<img src=""img/food2.png"" style=""width:200px; border:14px solid green;"">","null","","","","","","","","","",""
"","image-keyboard-response","359","179953","0.0-442.0","3AZHRG4CU567VJG8H2M1RQNI67R03U","A2MJ0X6M3VSFVN","3WRBLBQ2GRU63BU2LFOJL1G32T90GO","","114.40000000596046","img/food6.png","74","119.90000000596046","1","1","1","2","1,0.5,0,1,0.5,0,0.5,0,1","1,0.5,0,1,0.5,0,0.5,0,1","1","false",""
"","html-keyboard-response","360","180261","0.0-443.0","3AZHRG4CU567VJG8H2M1RQNI67R03U","A2MJ0X6M3VSFVN","3WRBLBQ2GRU63BU2LFOJL1G32T90GO","","null","<img src=""img/food6.png"" style=""width:200px; border:14px solid green;"">","null","","","","","","","","","",""
"","image-keyboard-response","361","180271","0.0-445.0","3AZHRG4CU567VJG8H2M1RQNI67R03U","A2MJ0X6M3VSFVN","3WRBLBQ2GRU63BU2LFOJL1G32T90GO","","0.5","img/food6.png","74","5","1","1","1","2","1,0.5,0,1,0.5,0,0.5,0,1","1,0.5,0,1,0.5,0,0.5,0,1","1","false",""
"","html-keyboard-response","362","180576","0.0-446.0","3AZHRG4CU567VJG8H2M1RQNI67R03U","A2MJ0X6M3VSFVN","3WRBLBQ2GRU63BU2LFOJL1G32T90GO","","null","<img src=""img/food6.png"" style=""width:200px; border:14px solid green;"">","null","","","","","","","","","",""
"","image-keyboard-response","363","180936","0.0-448.0","3AZHRG4CU567VJG8H2M1RQNI67R03U","A2MJ0X6M3VSFVN","3WRBLBQ2GRU63BU2LFOJL1G32T90GO","","351.89999997615814","img/food1.png","74","356.80000001192093","1","1","2","2","1,0.5,0,1,0.5,0,0.5,0,1","1,0.5,0,1,0.5,0,0.5,0,1","1","false",""
"","html-keyboard-response","364","181245","0.0-449.0","3AZHRG4CU567VJG8H2M1RQNI67R03U","A2MJ0X6M3VSFVN","3WRBLBQ2GRU63BU2LFOJL1G32T90GO","","null","<img src=""img/food1.png"" style=""width:200px; border:14px solid green;"">","null","","","","","","","","","",""
"","image-keyboard-response","365","181267","0.0-451.0","3AZHRG4CU567VJG8H2M1RQNI67R03U","A2MJ0X6M3VSFVN","3WRBLBQ2GRU63BU2LFOJL1G32T90GO","","12.599999994039536","img/food2.png","74","17.30000001192093","1","0","3","2","1,0.5,0,1,0.5,0,0.5,0,1","1,0.5,0,1,0.5,0,0.5,0,1","1","false",""
"","html-keyboard-response","366","181572","0.0-452.0","3AZHRG4CU567VJG8H2M1RQNI67R03U","A2MJ0X6M3VSFVN","3WRBLBQ2GRU63BU2LFOJL1G32T90GO","","null","<img src=""img/food2.png"" style=""width:200px;border:14px solid red;"">","null","","","","","","","","","",""
"","instructions","367","184711","0.0-454.0","3AZHRG4CU567VJG8H2M1RQNI67R03U","A2MJ0X6M3VSFVN","3WRBLBQ2GRU63BU2LFOJL1G32T90GO","[{""page_index"":0,""viewing_time"":3133.2000000178814}]","3135.5","","","","","","","","","","","",""
"","survey-text","368","210843","0.0-455.0","3AZHRG4CU567VJG8H2M1RQNI67R03U","A2MJ0X6M3VSFVN","3WRBLBQ2GRU63BU2LFOJL1G32T90GO","","26116.90000000596","","","","","","","","","","","","{""Q0"":""A2MJ0X6M3VSFVN""}"
