"success","trial_type","trial_index","time_elapsed","internal_node_id","assignmentID","mturkID","hitID","view_history","rt","stimulus","key_press","reactionTime","a","r","s","cond","reward_cond","reward_cond_actual","reward_matrix_idx","warning","responses"
"true","fullscreen","0","3028","0.0-0.0","3OLQQLKKNTBH7NXRSUD3SM6BW4DJEZ","A2MUCL20GTQJA0","3ECKRY5B1QIH1N6NFX1ECCW5ZDKIZQ","","","","","","","","","","","","","",""
"","instructions","1","11784","0.0-1.0","3OLQQLKKNTBH7NXRSUD3SM6BW4DJEZ","A2MUCL20GTQJA0","3ECKRY5B1QIH1N6NFX1ECCW5ZDKIZQ","[{""page_index"":0,""viewing_time"":979.1000000238419},{""page_index"":1,""viewing_time"":1105.7000000476837},{""page_index"":2,""viewing_time"":530.3999999761581},{""page_index"":3,""viewing_time"":1855.6000000238419},{""page_index"":4,""viewing_time"":925},{""page_index"":5,""viewing_time"":2323},{""page_index"":6,""viewing_time"":1032.1000000238419}]","8751.400000095367","","","","","","","","","","","",""
"","image-keyboard-response","2","12945","0.0-2.0","3OLQQLKKNTBH7NXRSUD3SM6BW4DJEZ","A2MUCL20GTQJA0","3ECKRY5B1QIH1N6NFX1ECCW5ZDKIZQ","","1158.6000000238419","img/food3.png","74","1160.7999999523163","1","1","2","1","1,0.5,0,1,0.5,0,0.5,0,1","1,0.5,0,1,0.5,0,0.5,0,1","1","",""
"","html-keyboard-response","3","13252","0.0-3.0","3OLQQLKKNTBH7NXRSUD3SM6BW4DJEZ","A2MUCL20GTQJA0","3ECKRY5B1QIH1N6NFX1ECCW5ZDKIZQ","","null","<img src=""img/food3.png"" style=""width:200px; border:14px solid green;"">","null","","","","","","","","","",""
"","image-keyboard-response","4","13895","0.0-4.0","3OLQQLKKNTBH7NXRSUD3SM6BW4DJEZ","A2MUCL20GTQJA0","3ECKRY5B1QIH1N6NFX1ECCW5ZDKIZQ","","641.2999999523163","img/food3.png","74","643","1","1","2","1","1,0.5,0,1,0.5,0,0.5,0,1","1,0.5,0,1,0.5,0,0.5,0,1","1","",""
"","html-keyboard-response","5","14201","0.0-5.0","3OLQQLKKNTBH7NXRSUD3SM6BW4DJEZ","A2MUCL20GTQJA0","3ECKRY5B1QIH1N6NFX1ECCW5ZDKIZQ","","null","<img src=""img/food3.png"" style=""width:200px; border:14px solid green;"">","null","","","","","","","","","",""
"","image-keyboard-response","6","14584","0.0-6.0","3OLQQLKKNTBH7NXRSUD3SM6BW4DJEZ","A2MUCL20GTQJA0","3ECKRY5B1QIH1N6NFX1ECCW5ZDKIZQ","","381.60000002384186","img/food3.png","74","383.10000002384186","1","1","2","1","1,0.5,0,1,0.5,0,0.5,0,1","1,0.5,0,1,0.5,0,0.5,0,1","1","",""
"","html-keyboard-response","7","14890","0.0-7.0","3OLQQLKKNTBH7NXRSUD3SM6BW4DJEZ","A2MUCL20GTQJA0","3ECKRY5B1QIH1N6NFX1ECCW5ZDKIZQ","","null","<img src=""img/food3.png"" style=""width:200px; border:14px solid green;"">","null","","","","","","","","","",""
"","image-keyboard-response","8","15680","0.0-8.0","3OLQQLKKNTBH7NXRSUD3SM6BW4DJEZ","A2MUCL20GTQJA0","3ECKRY5B1QIH1N6NFX1ECCW5ZDKIZQ","","787.1000000238419","img/food2.png","75","789.1000000238419","2","0","3","1","1,0.5,0,1,0.5,0,0.5,0,1","1,0.5,0,1,0.5,0,0.5,0,1","1","",""
"","html-keyboard-response","9","15992","0.0-9.0","3OLQQLKKNTBH7NXRSUD3SM6BW4DJEZ","A2MUCL20GTQJA0","3ECKRY5B1QIH1N6NFX1ECCW5ZDKIZQ","","null","<img src=""img/food2.png"" style=""width:200px;border:14px solid red;"">","null","","","","","","","","","",""
"","image-keyboard-response","10","16415","0.0-10.0","3OLQQLKKNTBH7NXRSUD3SM6BW4DJEZ","A2MUCL20GTQJA0","3ECKRY5B1QIH1N6NFX1ECCW5ZDKIZQ","","421.2999999523163","img/food2.png","74","422.60000002384186","1","1","3","1","1,0.5,0,1,0.5,0,0.5,0,1","1,0.5,0,1,0.5,0,0.5,0,1","1","",""
"","html-keyboard-response","11","16722","0.0-11.0","3OLQQLKKNTBH7NXRSUD3SM6BW4DJEZ","A2MUCL20GTQJA0","3ECKRY5B1QIH1N6NFX1ECCW5ZDKIZQ","","null","<img src=""img/food2.png"" style=""width:200px; border:14px solid green;"">","null","","","","","","","","","",""
"","image-keyboard-response","12","17344","0.0-12.0","3OLQQLKKNTBH7NXRSUD3SM6BW4DJEZ","A2MUCL20GTQJA0","3ECKRY5B1QIH1N6NFX1ECCW5ZDKIZQ","","619.3000000715256","img/food3.png","74","621.1999999284744","1","1","2","1","1,0.5,0,1,0.5,0,0.5,0,1","1,0.5,0,1,0.5,0,0.5,0,1","1","",""
"","html-keyboard-response","13","17651","0.0-13.0","3OLQQLKKNTBH7NXRSUD3SM6BW4DJEZ","A2MUCL20GTQJA0","3ECKRY5B1QIH1N6NFX1ECCW5ZDKIZQ","","null","<img src=""img/food3.png"" style=""width:200px; border:14px solid green;"">","null","","","","","","","","","",""
"","image-keyboard-response","14","18407","0.0-14.0","3OLQQLKKNTBH7NXRSUD3SM6BW4DJEZ","A2MUCL20GTQJA0","3ECKRY5B1QIH1N6NFX1ECCW5ZDKIZQ","","753.7000000476837","img/food2.png","76","755.5","3","1","3","1","1,0.5,0,1,0.5,0,0.5,0,1","1,0.5,0,1,0.5,0,0.5,0,1","1","",""
"","html-keyboard-response","15","18725","0.0-15.0","3OLQQLKKNTBH7NXRSUD3SM6BW4DJEZ","A2MUCL20GTQJA0","3ECKRY5B1QIH1N6NFX1ECCW5ZDKIZQ","","null","<img src=""img/food2.png"" style=""width:200px; border:14px solid green;"">","null","","","","","","","","","",""
"","image-keyboard-response","16","19328","0.0-16.0","3OLQQLKKNTBH7NXRSUD3SM6BW4DJEZ","A2MUCL20GTQJA0","3ECKRY5B1QIH1N6NFX1ECCW5ZDKIZQ","","601.3999999761581","img/food3.png","74","602.7999999523163","1","1","2","1","1,0.5,0,1,0.5,0,0.5,0,1","1,0.5,0,1,0.5,0,0.5,0,1","1","",""
"","html-keyboard-response","17","19644","0.0-17.0","3OLQQLKKNTBH7NXRSUD3SM6BW4DJEZ","A2MUCL20GTQJA0","3ECKRY5B1QIH1N6NFX1ECCW5ZDKIZQ","","null","<img src=""img/food3.png"" style=""width:200px; border:14px solid green;"">","null","","","","","","","","","",""
"","image-keyboard-response","18","20576","0.0-18.0","3OLQQLKKNTBH7NXRSUD3SM6BW4DJEZ","A2MUCL20GTQJA0","3ECKRY5B1QIH1N6NFX1ECCW5ZDKIZQ","","930","img/food1.png","76","931.6000000238419","3","0","1","1","1,0.5,0,1,0.5,0,0.5,0,1","1,0.5,0,1,0.5,0,0.5,0,1","1","",""
"","html-keyboard-response","19","20887","0.0-19.0","3OLQQLKKNTBH7NXRSUD3SM6BW4DJEZ","A2MUCL20GTQJA0","3ECKRY5B1QIH1N6NFX1ECCW5ZDKIZQ","","null","<img src=""img/food1.png"" style=""width:200px;border:14px solid red;"">","null","","","","","","","","","",""
"","image-keyboard-response","20","21448","0.0-20.0","3OLQQLKKNTBH7NXRSUD3SM6BW4DJEZ","A2MUCL20GTQJA0","3ECKRY5B1QIH1N6NFX1ECCW5ZDKIZQ","","557.7999999523163","img/food3.png","74","560","1","1","2","1","1,0.5,0,1,0.5,0,0.5,0,1","1,0.5,0,1,0.5,0,0.5,0,1","1","",""
"","html-keyboard-response","21","21755","0.0-21.0","3OLQQLKKNTBH7NXRSUD3SM6BW4DJEZ","A2MUCL20GTQJA0","3ECKRY5B1QIH1N6NFX1ECCW5ZDKIZQ","","null","<img src=""img/food3.png"" style=""width:200px; border:14px solid green;"">","null","","","","","","","","","",""
"","image-keyboard-response","22","22624","0.0-22.0","3OLQQLKKNTBH7NXRSUD3SM6BW4DJEZ","A2MUCL20GTQJA0","3ECKRY5B1QIH1N6NFX1ECCW5ZDKIZQ","","867.3000000715256","img/food2.png","75","868.7999999523163","2","0","3","1","1,0.5,0,1,0.5,0,0.5,0,1","1,0.5,0,1,0.5,0,0.5,0,1","1","",""
"","html-keyboard-response","23","22938","0.0-23.0","3OLQQLKKNTBH7NXRSUD3SM6BW4DJEZ","A2MUCL20GTQJA0","3ECKRY5B1QIH1N6NFX1ECCW5ZDKIZQ","","null","<img src=""img/food2.png"" style=""width:200px;border:14px solid red;"">","null","","","","","","","","","",""
"","image-keyboard-response","24","24079","0.0-24.0","3OLQQLKKNTBH7NXRSUD3SM6BW4DJEZ","A2MUCL20GTQJA0","3ECKRY5B1QIH1N6NFX1ECCW5ZDKIZQ","","1138.5","img/food1.png","75","1140","2","0","1","1","1,0.5,0,1,0.5,0,0.5,0,1","1,0.5,0,1,0.5,0,0.5,0,1","1","",""
"","html-keyboard-response","25","24388","0.0-25.0","3OLQQLKKNTBH7NXRSUD3SM6BW4DJEZ","A2MUCL20GTQJA0","3ECKRY5B1QIH1N6NFX1ECCW5ZDKIZQ","","null","<img src=""img/food1.png"" style=""width:200px;border:14px solid red;"">","null","","","","","","","","","",""
"","image-keyboard-response","26","25328","0.0-26.0","3OLQQLKKNTBH7NXRSUD3SM6BW4DJEZ","A2MUCL20GTQJA0","3ECKRY5B1QIH1N6NFX1ECCW5ZDKIZQ","","937.8999999761581","img/food2.png","76","939.3999999761581","3","1","3","1","1,0.5,0,1,0.5,0,0.5,0,1","1,0.5,0,1,0.5,0,0.5,0,1","1","",""
"","html-keyboard-response","27","25631","0.0-27.0","3OLQQLKKNTBH7NXRSUD3SM6BW4DJEZ","A2MUCL20GTQJA0","3ECKRY5B1QIH1N6NFX1ECCW5ZDKIZQ","","null","<img src=""img/food2.png"" style=""width:200px; border:14px solid green;"">","null","","","","","","","","","",""
"","image-keyboard-response","28","26423","0.0-28.0","3OLQQLKKNTBH7NXRSUD3SM6BW4DJEZ","A2MUCL20GTQJA0","3ECKRY5B1QIH1N6NFX1ECCW5ZDKIZQ","","790.1000000238419","img/food1.png","76","791.6999999284744","3","0","1","1","1,0.5,0,1,0.5,0,0.5,0,1","1,0.5,0,1,0.5,0,0.5,0,1","1","",""
"","html-keyboard-response","29","26735","0.0-29.0","3OLQQLKKNTBH7NXRSUD3SM6BW4DJEZ","A2MUCL20GTQJA0","3ECKRY5B1QIH1N6NFX1ECCW5ZDKIZQ","","null","<img src=""img/food1.png"" style=""width:200px;border:14px solid red;"">","null","","","","","","","","","",""
"","image-keyboard-response","30","27351","0.0-30.0","3OLQQLKKNTBH7NXRSUD3SM6BW4DJEZ","A2MUCL20GTQJA0","3ECKRY5B1QIH1N6NFX1ECCW5ZDKIZQ","","614.8999999761581","img/food1.png","75","615.8999999761581","2","1","1","1","1,0.5,0,1,0.5,0,0.5,0,1","1,0.5,0,1,0.5,0,0.5,0,1","1","",""
"","html-keyboard-response","31","27664","0.0-31.0","3OLQQLKKNTBH7NXRSUD3SM6BW4DJEZ","A2MUCL20GTQJA0","3ECKRY5B1QIH1N6NFX1ECCW5ZDKIZQ","","null","<img src=""img/food1.png"" style=""width:200px; border:14px solid green;"">","null","","","","","","","","","",""
"","image-keyboard-response","32","28271","0.0-32.0","3OLQQLKKNTBH7NXRSUD3SM6BW4DJEZ","A2MUCL20GTQJA0","3ECKRY5B1QIH1N6NFX1ECCW5ZDKIZQ","","604.4000000953674","img/food3.png","74","606","1","1","2","1","1,0.5,0,1,0.5,0,0.5,0,1","1,0.5,0,1,0.5,0,0.5,0,1","1","",""
"","html-keyboard-response","33","28580","0.0-33.0","3OLQQLKKNTBH7NXRSUD3SM6BW4DJEZ","A2MUCL20GTQJA0","3ECKRY5B1QIH1N6NFX1ECCW5ZDKIZQ","","null","<img src=""img/food3.png"" style=""width:200px; border:14px solid green;"">","null","","","","","","","","","",""
"","image-keyboard-response","34","29160","0.0-34.0","3OLQQLKKNTBH7NXRSUD3SM6BW4DJEZ","A2MUCL20GTQJA0","3ECKRY5B1QIH1N6NFX1ECCW5ZDKIZQ","","578.8999999761581","img/food1.png","75","580.3999999761581","2","1","1","1","1,0.5,0,1,0.5,0,0.5,0,1","1,0.5,0,1,0.5,0,0.5,0,1","1","",""
"","html-keyboard-response","35","29464","0.0-35.0","3OLQQLKKNTBH7NXRSUD3SM6BW4DJEZ","A2MUCL20GTQJA0","3ECKRY5B1QIH1N6NFX1ECCW5ZDKIZQ","","null","<img src=""img/food1.png"" style=""width:200px; border:14px solid green;"">","null","","","","","","","","","",""
"","image-keyboard-response","36","30207","0.0-36.0","3OLQQLKKNTBH7NXRSUD3SM6BW4DJEZ","A2MUCL20GTQJA0","3ECKRY5B1QIH1N6NFX1ECCW5ZDKIZQ","","741","img/food2.png","76","742.6999999284744","3","1","3","1","1,0.5,0,1,0.5,0,0.5,0,1","1,0.5,0,1,0.5,0,0.5,0,1","1","",""
"","html-keyboard-response","37","30510","0.0-37.0","3OLQQLKKNTBH7NXRSUD3SM6BW4DJEZ","A2MUCL20GTQJA0","3ECKRY5B1QIH1N6NFX1ECCW5ZDKIZQ","","null","<img src=""img/food2.png"" style=""width:200px; border:14px solid green;"">","null","","","","","","","","","",""
"","image-keyboard-response","38","30992","0.0-38.0","3OLQQLKKNTBH7NXRSUD3SM6BW4DJEZ","A2MUCL20GTQJA0","3ECKRY5B1QIH1N6NFX1ECCW5ZDKIZQ","","480.2999999523163","img/food3.png","74","481.7000000476837","1","1","2","1","1,0.5,0,1,0.5,0,0.5,0,1","1,0.5,0,1,0.5,0,0.5,0,1","1","",""
"","html-keyboard-response","39","31294","0.0-39.0","3OLQQLKKNTBH7NXRSUD3SM6BW4DJEZ","A2MUCL20GTQJA0","3ECKRY5B1QIH1N6NFX1ECCW5ZDKIZQ","","null","<img src=""img/food3.png"" style=""width:200px; border:14px solid green;"">","null","","","","","","","","","",""
"","image-keyboard-response","40","32055","0.0-40.0","3OLQQLKKNTBH7NXRSUD3SM6BW4DJEZ","A2MUCL20GTQJA0","3ECKRY5B1QIH1N6NFX1ECCW5ZDKIZQ","","758.4000000953674","img/food2.png","76","760","3","1","3","1","1,0.5,0,1,0.5,0,0.5,0,1","1,0.5,0,1,0.5,0,0.5,0,1","1","",""
"","html-keyboard-response","41","32357","0.0-41.0","3OLQQLKKNTBH7NXRSUD3SM6BW4DJEZ","A2MUCL20GTQJA0","3ECKRY5B1QIH1N6NFX1ECCW5ZDKIZQ","","null","<img src=""img/food2.png"" style=""width:200px; border:14px solid green;"">","null","","","","","","","","","",""
"","image-keyboard-response","42","32968","0.0-42.0","3OLQQLKKNTBH7NXRSUD3SM6BW4DJEZ","A2MUCL20GTQJA0","3ECKRY5B1QIH1N6NFX1ECCW5ZDKIZQ","","608","img/food1.png","75","610","2","1","1","1","1,0.5,0,1,0.5,0,0.5,0,1","1,0.5,0,1,0.5,0,0.5,0,1","1","",""
"","html-keyboard-response","43","33272","0.0-43.0","3OLQQLKKNTBH7NXRSUD3SM6BW4DJEZ","A2MUCL20GTQJA0","3ECKRY5B1QIH1N6NFX1ECCW5ZDKIZQ","","null","<img src=""img/food1.png"" style=""width:200px; border:14px solid green;"">","null","","","","","","","","","",""
"","image-keyboard-response","44","33735","0.0-44.0","3OLQQLKKNTBH7NXRSUD3SM6BW4DJEZ","A2MUCL20GTQJA0","3ECKRY5B1QIH1N6NFX1ECCW5ZDKIZQ","","461.1999999284744","img/food1.png","75","462.7000000476837","2","0","1","1","1,0.5,0,1,0.5,0,0.5,0,1","1,0.5,0,1,0.5,0,0.5,0,1","1","",""
"","html-keyboard-response","45","34037","0.0-45.0","3OLQQLKKNTBH7NXRSUD3SM6BW4DJEZ","A2MUCL20GTQJA0","3ECKRY5B1QIH1N6NFX1ECCW5ZDKIZQ","","null","<img src=""img/food1.png"" style=""width:200px;border:14px solid red;"">","null","","","","","","","","","",""
"","image-keyboard-response","46","34680","0.0-46.0","3OLQQLKKNTBH7NXRSUD3SM6BW4DJEZ","A2MUCL20GTQJA0","3ECKRY5B1QIH1N6NFX1ECCW5ZDKIZQ","","640.3999999761581","img/food3.png","74","641.8000000715256","1","1","2","1","1,0.5,0,1,0.5,0,0.5,0,1","1,0.5,0,1,0.5,0,0.5,0,1","1","",""
"","html-keyboard-response","47","34983","0.0-47.0","3OLQQLKKNTBH7NXRSUD3SM6BW4DJEZ","A2MUCL20GTQJA0","3ECKRY5B1QIH1N6NFX1ECCW5ZDKIZQ","","null","<img src=""img/food3.png"" style=""width:200px; border:14px solid green;"">","null","","","","","","","","","",""
"","image-keyboard-response","48","35720","0.0-48.0","3OLQQLKKNTBH7NXRSUD3SM6BW4DJEZ","A2MUCL20GTQJA0","3ECKRY5B1QIH1N6NFX1ECCW5ZDKIZQ","","734.1999999284744","img/food1.png","75","736.1000000238419","2","1","1","1","1,0.5,0,1,0.5,0,0.5,0,1","1,0.5,0,1,0.5,0,0.5,0,1","1","",""
"","html-keyboard-response","49","36023","0.0-49.0","3OLQQLKKNTBH7NXRSUD3SM6BW4DJEZ","A2MUCL20GTQJA0","3ECKRY5B1QIH1N6NFX1ECCW5ZDKIZQ","","null","<img src=""img/food1.png"" style=""width:200px; border:14px solid green;"">","null","","","","","","","","","",""
"","image-keyboard-response","50","36688","0.0-50.0","3OLQQLKKNTBH7NXRSUD3SM6BW4DJEZ","A2MUCL20GTQJA0","3ECKRY5B1QIH1N6NFX1ECCW5ZDKIZQ","","663","img/food3.png","74","664.3999999761581","1","1","2","1","1,0.5,0,1,0.5,0,0.5,0,1","1,0.5,0,1,0.5,0,0.5,0,1","1","",""
"","html-keyboard-response","51","36990","0.0-51.0","3OLQQLKKNTBH7NXRSUD3SM6BW4DJEZ","A2MUCL20GTQJA0","3ECKRY5B1QIH1N6NFX1ECCW5ZDKIZQ","","null","<img src=""img/food3.png"" style=""width:200px; border:14px solid green;"">","null","","","","","","","","","",""
"","image-keyboard-response","52","37600","0.0-52.0","3OLQQLKKNTBH7NXRSUD3SM6BW4DJEZ","A2MUCL20GTQJA0","3ECKRY5B1QIH1N6NFX1ECCW5ZDKIZQ","","607.5","img/food2.png","76","609.2000000476837","3","1","3","1","1,0.5,0,1,0.5,0,0.5,0,1","1,0.5,0,1,0.5,0,0.5,0,1","1","",""
"","html-keyboard-response","53","37903","0.0-53.0","3OLQQLKKNTBH7NXRSUD3SM6BW4DJEZ","A2MUCL20GTQJA0","3ECKRY5B1QIH1N6NFX1ECCW5ZDKIZQ","","null","<img src=""img/food2.png"" style=""width:200px; border:14px solid green;"">","null","","","","","","","","","",""
"","image-keyboard-response","54","38495","0.0-54.0","3OLQQLKKNTBH7NXRSUD3SM6BW4DJEZ","A2MUCL20GTQJA0","3ECKRY5B1QIH1N6NFX1ECCW5ZDKIZQ","","589.8000000715256","img/food1.png","75","591","2","0","1","1","1,0.5,0,1,0.5,0,0.5,0,1","1,0.5,0,1,0.5,0,0.5,0,1","1","",""
"","html-keyboard-response","55","38796","0.0-55.0","3OLQQLKKNTBH7NXRSUD3SM6BW4DJEZ","A2MUCL20GTQJA0","3ECKRY5B1QIH1N6NFX1ECCW5ZDKIZQ","","null","<img src=""img/food1.png"" style=""width:200px;border:14px solid red;"">","null","","","","","","","","","",""
"","image-keyboard-response","56","39192","0.0-56.0","3OLQQLKKNTBH7NXRSUD3SM6BW4DJEZ","A2MUCL20GTQJA0","3ECKRY5B1QIH1N6NFX1ECCW5ZDKIZQ","","393.2999999523163","img/food1.png","75","395.2999999523163","2","1","1","1","1,0.5,0,1,0.5,0,0.5,0,1","1,0.5,0,1,0.5,0,0.5,0,1","1","",""
"","html-keyboard-response","57","39496","0.0-57.0","3OLQQLKKNTBH7NXRSUD3SM6BW4DJEZ","A2MUCL20GTQJA0","3ECKRY5B1QIH1N6NFX1ECCW5ZDKIZQ","","null","<img src=""img/food1.png"" style=""width:200px; border:14px solid green;"">","null","","","","","","","","","",""
"","image-keyboard-response","58","40175","0.0-58.0","3OLQQLKKNTBH7NXRSUD3SM6BW4DJEZ","A2MUCL20GTQJA0","3ECKRY5B1QIH1N6NFX1ECCW5ZDKIZQ","","676.9000000953674","img/food2.png","76","678.5","3","1","3","1","1,0.5,0,1,0.5,0,0.5,0,1","1,0.5,0,1,0.5,0,0.5,0,1","1","",""
"","html-keyboard-response","59","40477","0.0-59.0","3OLQQLKKNTBH7NXRSUD3SM6BW4DJEZ","A2MUCL20GTQJA0","3ECKRY5B1QIH1N6NFX1ECCW5ZDKIZQ","","null","<img src=""img/food2.png"" style=""width:200px; border:14px solid green;"">","null","","","","","","","","","",""
"","image-keyboard-response","60","41056","0.0-60.0","3OLQQLKKNTBH7NXRSUD3SM6BW4DJEZ","A2MUCL20GTQJA0","3ECKRY5B1QIH1N6NFX1ECCW5ZDKIZQ","","575.8999999761581","img/food1.png","75","577.7999999523163","2","0","1","1","1,0.5,0,1,0.5,0,0.5,0,1","1,0.5,0,1,0.5,0,0.5,0,1","1","",""
"","html-keyboard-response","61","41374","0.0-61.0","3OLQQLKKNTBH7NXRSUD3SM6BW4DJEZ","A2MUCL20GTQJA0","3ECKRY5B1QIH1N6NFX1ECCW5ZDKIZQ","","null","<img src=""img/food1.png"" style=""width:200px;border:14px solid red;"">","null","","","","","","","","","",""
"","image-keyboard-response","62","41632","0.0-62.0","3OLQQLKKNTBH7NXRSUD3SM6BW4DJEZ","A2MUCL20GTQJA0","3ECKRY5B1QIH1N6NFX1ECCW5ZDKIZQ","","255.40000009536743","img/food3.png","75","257.5","2","0","2","1","1,0.5,0,1,0.5,0,0.5,0,1","1,0.5,0,1,0.5,0,0.5,0,1","1","",""
"","html-keyboard-response","63","41935","0.0-63.0","3OLQQLKKNTBH7NXRSUD3SM6BW4DJEZ","A2MUCL20GTQJA0","3ECKRY5B1QIH1N6NFX1ECCW5ZDKIZQ","","null","<img src=""img/food3.png"" style=""width:200px;border:14px solid red;"">","null","","","","","","","","","",""
"","image-keyboard-response","64","42752","0.0-64.0","3OLQQLKKNTBH7NXRSUD3SM6BW4DJEZ","A2MUCL20GTQJA0","3ECKRY5B1QIH1N6NFX1ECCW5ZDKIZQ","","813.7000000476837","img/food2.png","76","816","3","1","3","1","1,0.5,0,1,0.5,0,0.5,0,1","1,0.5,0,1,0.5,0,0.5,0,1","1","",""
"","html-keyboard-response","65","43055","0.0-65.0","3OLQQLKKNTBH7NXRSUD3SM6BW4DJEZ","A2MUCL20GTQJA0","3ECKRY5B1QIH1N6NFX1ECCW5ZDKIZQ","","null","<img src=""img/food2.png"" style=""width:200px; border:14px solid green;"">","null","","","","","","","","","",""
"","image-keyboard-response","66","43576","0.0-66.0","3OLQQLKKNTBH7NXRSUD3SM6BW4DJEZ","A2MUCL20GTQJA0","3ECKRY5B1QIH1N6NFX1ECCW5ZDKIZQ","","518.5999999046326","img/food2.png","76","520.5","3","1","3","1","1,0.5,0,1,0.5,0,0.5,0,1","1,0.5,0,1,0.5,0,0.5,0,1","1","",""
"","html-keyboard-response","67","43879","0.0-67.0","3OLQQLKKNTBH7NXRSUD3SM6BW4DJEZ","A2MUCL20GTQJA0","3ECKRY5B1QIH1N6NFX1ECCW5ZDKIZQ","","null","<img src=""img/food2.png"" style=""width:200px; border:14px solid green;"">","null","","","","","","","","","",""
"","image-keyboard-response","68","44503","0.0-68.0","3OLQQLKKNTBH7NXRSUD3SM6BW4DJEZ","A2MUCL20GTQJA0","3ECKRY5B1QIH1N6NFX1ECCW5ZDKIZQ","","622.3999999761581","img/food1.png","75","623.5","2","1","1","1","1,0.5,0,1,0.5,0,0.5,0,1","1,0.5,0,1,0.5,0,0.5,0,1","1","",""
"","html-keyboard-response","69","44804","0.0-69.0","3OLQQLKKNTBH7NXRSUD3SM6BW4DJEZ","A2MUCL20GTQJA0","3ECKRY5B1QIH1N6NFX1ECCW5ZDKIZQ","","null","<img src=""img/food1.png"" style=""width:200px; border:14px solid green;"">","null","","","","","","","","","",""
"","image-keyboard-response","70","45264","0.0-70.0","3OLQQLKKNTBH7NXRSUD3SM6BW4DJEZ","A2MUCL20GTQJA0","3ECKRY5B1QIH1N6NFX1ECCW5ZDKIZQ","","458","img/food1.png","75","459.2000000476837","2","0","1","1","1,0.5,0,1,0.5,0,0.5,0,1","1,0.5,0,1,0.5,0,0.5,0,1","1","",""
"","html-keyboard-response","71","45566","0.0-71.0","3OLQQLKKNTBH7NXRSUD3SM6BW4DJEZ","A2MUCL20GTQJA0","3ECKRY5B1QIH1N6NFX1ECCW5ZDKIZQ","","null","<img src=""img/food1.png"" style=""width:200px;border:14px solid red;"">","null","","","","","","","","","",""
"","image-keyboard-response","72","46246","0.0-72.0","3OLQQLKKNTBH7NXRSUD3SM6BW4DJEZ","A2MUCL20GTQJA0","3ECKRY5B1QIH1N6NFX1ECCW5ZDKIZQ","","678.3999999761581","img/food2.png","76","679.8999999761581","3","1","3","1","1,0.5,0,1,0.5,0,0.5,0,1","1,0.5,0,1,0.5,0,0.5,0,1","1","",""
"","html-keyboard-response","73","46548","0.0-73.0","3OLQQLKKNTBH7NXRSUD3SM6BW4DJEZ","A2MUCL20GTQJA0","3ECKRY5B1QIH1N6NFX1ECCW5ZDKIZQ","","null","<img src=""img/food2.png"" style=""width:200px; border:14px solid green;"">","null","","","","","","","","","",""
"","image-keyboard-response","74","47135","0.0-74.0","3OLQQLKKNTBH7NXRSUD3SM6BW4DJEZ","A2MUCL20GTQJA0","3ECKRY5B1QIH1N6NFX1ECCW5ZDKIZQ","","585.3000000715256","img/food3.png","74","587.1000000238419","1","1","2","1","1,0.5,0,1,0.5,0,0.5,0,1","1,0.5,0,1,0.5,0,0.5,0,1","1","",""
"","html-keyboard-response","75","47440","0.0-75.0","3OLQQLKKNTBH7NXRSUD3SM6BW4DJEZ","A2MUCL20GTQJA0","3ECKRY5B1QIH1N6NFX1ECCW5ZDKIZQ","","null","<img src=""img/food3.png"" style=""width:200px; border:14px solid green;"">","null","","","","","","","","","",""
"","image-keyboard-response","76","47966","0.0-76.0","3OLQQLKKNTBH7NXRSUD3SM6BW4DJEZ","A2MUCL20GTQJA0","3ECKRY5B1QIH1N6NFX1ECCW5ZDKIZQ","","524.8999999761581","img/food3.png","74","526.5","1","1","2","1","1,0.5,0,1,0.5,0,0.5,0,1","1,0.5,0,1,0.5,0,0.5,0,1","1","",""
"","html-keyboard-response","77","48268","0.0-77.0","3OLQQLKKNTBH7NXRSUD3SM6BW4DJEZ","A2MUCL20GTQJA0","3ECKRY5B1QIH1N6NFX1ECCW5ZDKIZQ","","null","<img src=""img/food3.png"" style=""width:200px; border:14px solid green;"">","null","","","","","","","","","",""
"","image-keyboard-response","78","48920","0.0-78.0","3OLQQLKKNTBH7NXRSUD3SM6BW4DJEZ","A2MUCL20GTQJA0","3ECKRY5B1QIH1N6NFX1ECCW5ZDKIZQ","","649","img/food2.png","76","651","3","1","3","1","1,0.5,0,1,0.5,0,0.5,0,1","1,0.5,0,1,0.5,0,0.5,0,1","1","",""
"","html-keyboard-response","79","49222","0.0-79.0","3OLQQLKKNTBH7NXRSUD3SM6BW4DJEZ","A2MUCL20GTQJA0","3ECKRY5B1QIH1N6NFX1ECCW5ZDKIZQ","","null","<img src=""img/food2.png"" style=""width:200px; border:14px solid green;"">","null","","","","","","","","","",""
"","image-keyboard-response","80","49816","0.0-80.0","3OLQQLKKNTBH7NXRSUD3SM6BW4DJEZ","A2MUCL20GTQJA0","3ECKRY5B1QIH1N6NFX1ECCW5ZDKIZQ","","591.5","img/food3.png","74","593.3999999761581","1","1","2","1","1,0.5,0,1,0.5,0,0.5,0,1","1,0.5,0,1,0.5,0,0.5,0,1","1","",""
"","html-keyboard-response","81","50131","0.0-81.0","3OLQQLKKNTBH7NXRSUD3SM6BW4DJEZ","A2MUCL20GTQJA0","3ECKRY5B1QIH1N6NFX1ECCW5ZDKIZQ","","null","<img src=""img/food3.png"" style=""width:200px; border:14px solid green;"">","null","","","","","","","","","",""
"","image-keyboard-response","82","50711","0.0-82.0","3OLQQLKKNTBH7NXRSUD3SM6BW4DJEZ","A2MUCL20GTQJA0","3ECKRY5B1QIH1N6NFX1ECCW5ZDKIZQ","","579.2000000476837","img/food1.png","75","580.5","2","1","1","1","1,0.5,0,1,0.5,0,0.5,0,1","1,0.5,0,1,0.5,0,0.5,0,1","1","",""
"","html-keyboard-response","83","51016","0.0-83.0","3OLQQLKKNTBH7NXRSUD3SM6BW4DJEZ","A2MUCL20GTQJA0","3ECKRY5B1QIH1N6NFX1ECCW5ZDKIZQ","","null","<img src=""img/food1.png"" style=""width:200px; border:14px solid green;"">","null","","","","","","","","","",""
"","image-keyboard-response","84","51647","0.0-84.0","3OLQQLKKNTBH7NXRSUD3SM6BW4DJEZ","A2MUCL20GTQJA0","3ECKRY5B1QIH1N6NFX1ECCW5ZDKIZQ","","629.5","img/food2.png","76","631.5","3","1","3","1","1,0.5,0,1,0.5,0,0.5,0,1","1,0.5,0,1,0.5,0,0.5,0,1","1","",""
"","html-keyboard-response","85","51951","0.0-85.0","3OLQQLKKNTBH7NXRSUD3SM6BW4DJEZ","A2MUCL20GTQJA0","3ECKRY5B1QIH1N6NFX1ECCW5ZDKIZQ","","null","<img src=""img/food2.png"" style=""width:200px; border:14px solid green;"">","null","","","","","","","","","",""
"","image-keyboard-response","86","52575","0.0-86.0","3OLQQLKKNTBH7NXRSUD3SM6BW4DJEZ","A2MUCL20GTQJA0","3ECKRY5B1QIH1N6NFX1ECCW5ZDKIZQ","","622.6000000238419","img/food1.png","75","624","2","1","1","1","1,0.5,0,1,0.5,0,0.5,0,1","1,0.5,0,1,0.5,0,0.5,0,1","1","",""
"","html-keyboard-response","87","52878","0.0-87.0","3OLQQLKKNTBH7NXRSUD3SM6BW4DJEZ","A2MUCL20GTQJA0","3ECKRY5B1QIH1N6NFX1ECCW5ZDKIZQ","","null","<img src=""img/food1.png"" style=""width:200px; border:14px solid green;"">","null","","","","","","","","","",""
"","image-keyboard-response","88","53487","0.0-88.0","3OLQQLKKNTBH7NXRSUD3SM6BW4DJEZ","A2MUCL20GTQJA0","3ECKRY5B1QIH1N6NFX1ECCW5ZDKIZQ","","606.7000000476837","img/food2.png","76","608.8999999761581","3","1","3","1","1,0.5,0,1,0.5,0,0.5,0,1","1,0.5,0,1,0.5,0,0.5,0,1","1","",""
"","html-keyboard-response","89","53792","0.0-89.0","3OLQQLKKNTBH7NXRSUD3SM6BW4DJEZ","A2MUCL20GTQJA0","3ECKRY5B1QIH1N6NFX1ECCW5ZDKIZQ","","null","<img src=""img/food2.png"" style=""width:200px; border:14px solid green;"">","null","","","","","","","","","",""
"","image-keyboard-response","90","54350","0.0-90.0","3OLQQLKKNTBH7NXRSUD3SM6BW4DJEZ","A2MUCL20GTQJA0","3ECKRY5B1QIH1N6NFX1ECCW5ZDKIZQ","","557","img/food2.png","76","558.5","3","1","3","1","1,0.5,0,1,0.5,0,0.5,0,1","1,0.5,0,1,0.5,0,0.5,0,1","1","",""
"","html-keyboard-response","91","54653","0.0-91.0","3OLQQLKKNTBH7NXRSUD3SM6BW4DJEZ","A2MUCL20GTQJA0","3ECKRY5B1QIH1N6NFX1ECCW5ZDKIZQ","","null","<img src=""img/food2.png"" style=""width:200px; border:14px solid green;"">","null","","","","","","","","","",""
"","image-keyboard-response","92","55103","0.0-92.0","3OLQQLKKNTBH7NXRSUD3SM6BW4DJEZ","A2MUCL20GTQJA0","3ECKRY5B1QIH1N6NFX1ECCW5ZDKIZQ","","447.89999997615814","img/food2.png","76","449.89999997615814","3","1","3","1","1,0.5,0,1,0.5,0,0.5,0,1","1,0.5,0,1,0.5,0,0.5,0,1","1","",""
"","html-keyboard-response","93","55407","0.0-93.0","3OLQQLKKNTBH7NXRSUD3SM6BW4DJEZ","A2MUCL20GTQJA0","3ECKRY5B1QIH1N6NFX1ECCW5ZDKIZQ","","null","<img src=""img/food2.png"" style=""width:200px; border:14px solid green;"">","null","","","","","","","","","",""
"","image-keyboard-response","94","55807","0.0-94.0","3OLQQLKKNTBH7NXRSUD3SM6BW4DJEZ","A2MUCL20GTQJA0","3ECKRY5B1QIH1N6NFX1ECCW5ZDKIZQ","","397.7000000476837","img/food2.png","76","399.60000002384186","3","1","3","1","1,0.5,0,1,0.5,0,0.5,0,1","1,0.5,0,1,0.5,0,0.5,0,1","1","",""
"","html-keyboard-response","95","56110","0.0-95.0","3OLQQLKKNTBH7NXRSUD3SM6BW4DJEZ","A2MUCL20GTQJA0","3ECKRY5B1QIH1N6NFX1ECCW5ZDKIZQ","","null","<img src=""img/food2.png"" style=""width:200px; border:14px solid green;"">","null","","","","","","","","","",""
"","image-keyboard-response","96","56494","0.0-96.0","3OLQQLKKNTBH7NXRSUD3SM6BW4DJEZ","A2MUCL20GTQJA0","3ECKRY5B1QIH1N6NFX1ECCW5ZDKIZQ","","383.2000000476837","img/food2.png","76","384.1999999284744","3","1","3","1","1,0.5,0,1,0.5,0,0.5,0,1","1,0.5,0,1,0.5,0,0.5,0,1","1","",""
"","html-keyboard-response","97","56801","0.0-97.0","3OLQQLKKNTBH7NXRSUD3SM6BW4DJEZ","A2MUCL20GTQJA0","3ECKRY5B1QIH1N6NFX1ECCW5ZDKIZQ","","null","<img src=""img/food2.png"" style=""width:200px; border:14px solid green;"">","null","","","","","","","","","",""
"","image-keyboard-response","98","57383","0.0-98.0","3OLQQLKKNTBH7NXRSUD3SM6BW4DJEZ","A2MUCL20GTQJA0","3ECKRY5B1QIH1N6NFX1ECCW5ZDKIZQ","","581.3999999761581","img/food1.png","75","582.5999999046326","2","1","1","1","1,0.5,0,1,0.5,0,0.5,0,1","1,0.5,0,1,0.5,0,0.5,0,1","1","",""
"","html-keyboard-response","99","57688","0.0-99.0","3OLQQLKKNTBH7NXRSUD3SM6BW4DJEZ","A2MUCL20GTQJA0","3ECKRY5B1QIH1N6NFX1ECCW5ZDKIZQ","","null","<img src=""img/food1.png"" style=""width:200px; border:14px solid green;"">","null","","","","","","","","","",""
"","image-keyboard-response","100","58400","0.0-100.0","3OLQQLKKNTBH7NXRSUD3SM6BW4DJEZ","A2MUCL20GTQJA0","3ECKRY5B1QIH1N6NFX1ECCW5ZDKIZQ","","708.7999999523163","img/food2.png","76","710.6000000238419","3","1","3","1","1,0.5,0,1,0.5,0,0.5,0,1","1,0.5,0,1,0.5,0,0.5,0,1","1","",""
"","html-keyboard-response","101","58701","0.0-101.0","3OLQQLKKNTBH7NXRSUD3SM6BW4DJEZ","A2MUCL20GTQJA0","3ECKRY5B1QIH1N6NFX1ECCW5ZDKIZQ","","null","<img src=""img/food2.png"" style=""width:200px; border:14px solid green;"">","null","","","","","","","","","",""
"","image-keyboard-response","102","59256","0.0-102.0","3OLQQLKKNTBH7NXRSUD3SM6BW4DJEZ","A2MUCL20GTQJA0","3ECKRY5B1QIH1N6NFX1ECCW5ZDKIZQ","","552.7000000476837","img/food3.png","74","554.1999999284744","1","1","2","1","1,0.5,0,1,0.5,0,0.5,0,1","1,0.5,0,1,0.5,0,0.5,0,1","1","",""
"","html-keyboard-response","103","59558","0.0-103.0","3OLQQLKKNTBH7NXRSUD3SM6BW4DJEZ","A2MUCL20GTQJA0","3ECKRY5B1QIH1N6NFX1ECCW5ZDKIZQ","","null","<img src=""img/food3.png"" style=""width:200px; border:14px solid green;"">","null","","","","","","","","","",""
"","image-keyboard-response","104","60191","0.0-104.0","3OLQQLKKNTBH7NXRSUD3SM6BW4DJEZ","A2MUCL20GTQJA0","3ECKRY5B1QIH1N6NFX1ECCW5ZDKIZQ","","631.1000000238419","img/food2.png","76","632.7000000476837","3","1","3","1","1,0.5,0,1,0.5,0,0.5,0,1","1,0.5,0,1,0.5,0,0.5,0,1","1","",""
"","html-keyboard-response","105","60494","0.0-105.0","3OLQQLKKNTBH7NXRSUD3SM6BW4DJEZ","A2MUCL20GTQJA0","3ECKRY5B1QIH1N6NFX1ECCW5ZDKIZQ","","null","<img src=""img/food2.png"" style=""width:200px; border:14px solid green;"">","null","","","","","","","","","",""
"","image-keyboard-response","106","61048","0.0-106.0","3OLQQLKKNTBH7NXRSUD3SM6BW4DJEZ","A2MUCL20GTQJA0","3ECKRY5B1QIH1N6NFX1ECCW5ZDKIZQ","","552.6000000238419","img/food3.png","74","553.8000000715256","1","1","2","1","1,0.5,0,1,0.5,0,0.5,0,1","1,0.5,0,1,0.5,0,0.5,0,1","1","",""
"","html-keyboard-response","107","61352","0.0-107.0","3OLQQLKKNTBH7NXRSUD3SM6BW4DJEZ","A2MUCL20GTQJA0","3ECKRY5B1QIH1N6NFX1ECCW5ZDKIZQ","","null","<img src=""img/food3.png"" style=""width:200px; border:14px solid green;"">","null","","","","","","","","","",""
"","image-keyboard-response","108","61768","0.0-108.0","3OLQQLKKNTBH7NXRSUD3SM6BW4DJEZ","A2MUCL20GTQJA0","3ECKRY5B1QIH1N6NFX1ECCW5ZDKIZQ","","413.7999999523163","img/food3.png","74","415.7000000476837","1","1","2","1","1,0.5,0,1,0.5,0,0.5,0,1","1,0.5,0,1,0.5,0,0.5,0,1","1","",""
"","html-keyboard-response","109","62071","0.0-109.0","3OLQQLKKNTBH7NXRSUD3SM6BW4DJEZ","A2MUCL20GTQJA0","3ECKRY5B1QIH1N6NFX1ECCW5ZDKIZQ","","null","<img src=""img/food3.png"" style=""width:200px; border:14px solid green;"">","null","","","","","","","","","",""
"","image-keyboard-response","110","62623","0.0-110.0","3OLQQLKKNTBH7NXRSUD3SM6BW4DJEZ","A2MUCL20GTQJA0","3ECKRY5B1QIH1N6NFX1ECCW5ZDKIZQ","","550.9000000953674","img/food1.png","75","552.1000000238419","2","1","1","1","1,0.5,0,1,0.5,0,0.5,0,1","1,0.5,0,1,0.5,0,0.5,0,1","1","",""
"","html-keyboard-response","111","62926","0.0-111.0","3OLQQLKKNTBH7NXRSUD3SM6BW4DJEZ","A2MUCL20GTQJA0","3ECKRY5B1QIH1N6NFX1ECCW5ZDKIZQ","","null","<img src=""img/food1.png"" style=""width:200px; border:14px solid green;"">","null","","","","","","","","","",""
"","image-keyboard-response","112","63472","0.0-112.0","3OLQQLKKNTBH7NXRSUD3SM6BW4DJEZ","A2MUCL20GTQJA0","3ECKRY5B1QIH1N6NFX1ECCW5ZDKIZQ","","543.5","img/food3.png","74","545.5","1","1","2","1","1,0.5,0,1,0.5,0,0.5,0,1","1,0.5,0,1,0.5,0,0.5,0,1","1","",""
"","html-keyboard-response","113","63775","0.0-113.0","3OLQQLKKNTBH7NXRSUD3SM6BW4DJEZ","A2MUCL20GTQJA0","3ECKRY5B1QIH1N6NFX1ECCW5ZDKIZQ","","null","<img src=""img/food3.png"" style=""width:200px; border:14px solid green;"">","null","","","","","","","","","",""
"","image-keyboard-response","114","64400","0.0-114.0","3OLQQLKKNTBH7NXRSUD3SM6BW4DJEZ","A2MUCL20GTQJA0","3ECKRY5B1QIH1N6NFX1ECCW5ZDKIZQ","","622.7000000476837","img/food1.png","75","624.3999999761581","2","0","1","1","1,0.5,0,1,0.5,0,0.5,0,1","1,0.5,0,1,0.5,0,0.5,0,1","1","",""
"","html-keyboard-response","115","64702","0.0-115.0","3OLQQLKKNTBH7NXRSUD3SM6BW4DJEZ","A2MUCL20GTQJA0","3ECKRY5B1QIH1N6NFX1ECCW5ZDKIZQ","","null","<img src=""img/food1.png"" style=""width:200px;border:14px solid red;"">","null","","","","","","","","","",""
"","image-keyboard-response","116","65168","0.0-116.0","3OLQQLKKNTBH7NXRSUD3SM6BW4DJEZ","A2MUCL20GTQJA0","3ECKRY5B1QIH1N6NFX1ECCW5ZDKIZQ","","463.10000002384186","img/food3.png","75","465.09999990463257","2","1","2","1","1,0.5,0,1,0.5,0,0.5,0,1","1,0.5,0,1,0.5,0,0.5,0,1","1","",""
"","html-keyboard-response","117","65471","0.0-117.0","3OLQQLKKNTBH7NXRSUD3SM6BW4DJEZ","A2MUCL20GTQJA0","3ECKRY5B1QIH1N6NFX1ECCW5ZDKIZQ","","null","<img src=""img/food3.png"" style=""width:200px; border:14px solid green;"">","null","","","","","","","","","",""
"","image-keyboard-response","118","65959","0.0-118.0","3OLQQLKKNTBH7NXRSUD3SM6BW4DJEZ","A2MUCL20GTQJA0","3ECKRY5B1QIH1N6NFX1ECCW5ZDKIZQ","","486.10000002384186","img/food3.png","74","487.7000000476837","1","1","2","1","1,0.5,0,1,0.5,0,0.5,0,1","1,0.5,0,1,0.5,0,0.5,0,1","1","",""
"","html-keyboard-response","119","66261","0.0-119.0","3OLQQLKKNTBH7NXRSUD3SM6BW4DJEZ","A2MUCL20GTQJA0","3ECKRY5B1QIH1N6NFX1ECCW5ZDKIZQ","","null","<img src=""img/food3.png"" style=""width:200px; border:14px solid green;"">","null","","","","","","","","","",""
"","image-keyboard-response","120","66839","0.0-120.0","3OLQQLKKNTBH7NXRSUD3SM6BW4DJEZ","A2MUCL20GTQJA0","3ECKRY5B1QIH1N6NFX1ECCW5ZDKIZQ","","576.2999999523163","img/food1.png","75","577.2000000476837","2","1","1","1","1,0.5,0,1,0.5,0,0.5,0,1","1,0.5,0,1,0.5,0,0.5,0,1","1","",""
"","html-keyboard-response","121","67140","0.0-121.0","3OLQQLKKNTBH7NXRSUD3SM6BW4DJEZ","A2MUCL20GTQJA0","3ECKRY5B1QIH1N6NFX1ECCW5ZDKIZQ","","null","<img src=""img/food1.png"" style=""width:200px; border:14px solid green;"">","null","","","","","","","","","",""
"","image-keyboard-response","122","67648","0.0-122.0","3OLQQLKKNTBH7NXRSUD3SM6BW4DJEZ","A2MUCL20GTQJA0","3ECKRY5B1QIH1N6NFX1ECCW5ZDKIZQ","","506","img/food2.png","76","507.2999999523163","3","1","3","1","1,0.5,0,1,0.5,0,0.5,0,1","1,0.5,0,1,0.5,0,0.5,0,1","1","",""
"","html-keyboard-response","123","67951","0.0-123.0","3OLQQLKKNTBH7NXRSUD3SM6BW4DJEZ","A2MUCL20GTQJA0","3ECKRY5B1QIH1N6NFX1ECCW5ZDKIZQ","","null","<img src=""img/food2.png"" style=""width:200px; border:14px solid green;"">","null","","","","","","","","","",""
"","image-keyboard-response","124","68527","0.0-124.0","3OLQQLKKNTBH7NXRSUD3SM6BW4DJEZ","A2MUCL20GTQJA0","3ECKRY5B1QIH1N6NFX1ECCW5ZDKIZQ","","574","img/food2.png","76","575.1000000238419","3","1","3","1","1,0.5,0,1,0.5,0,0.5,0,1","1,0.5,0,1,0.5,0,0.5,0,1","1","",""
"","html-keyboard-response","125","68829","0.0-125.0","3OLQQLKKNTBH7NXRSUD3SM6BW4DJEZ","A2MUCL20GTQJA0","3ECKRY5B1QIH1N6NFX1ECCW5ZDKIZQ","","null","<img src=""img/food2.png"" style=""width:200px; border:14px solid green;"">","null","","","","","","","","","",""
"","image-keyboard-response","126","69344","0.0-126.0","3OLQQLKKNTBH7NXRSUD3SM6BW4DJEZ","A2MUCL20GTQJA0","3ECKRY5B1QIH1N6NFX1ECCW5ZDKIZQ","","512.3999999761581","img/food3.png","74","514.1000000238419","1","1","2","1","1,0.5,0,1,0.5,0,0.5,0,1","1,0.5,0,1,0.5,0,0.5,0,1","1","",""
"","html-keyboard-response","127","69646","0.0-127.0","3OLQQLKKNTBH7NXRSUD3SM6BW4DJEZ","A2MUCL20GTQJA0","3ECKRY5B1QIH1N6NFX1ECCW5ZDKIZQ","","null","<img src=""img/food3.png"" style=""width:200px; border:14px solid green;"">","null","","","","","","","","","",""
"","image-keyboard-response","128","70447","0.0-128.0","3OLQQLKKNTBH7NXRSUD3SM6BW4DJEZ","A2MUCL20GTQJA0","3ECKRY5B1QIH1N6NFX1ECCW5ZDKIZQ","","798.5","img/food2.png","76","800","3","1","3","1","1,0.5,0,1,0.5,0,0.5,0,1","1,0.5,0,1,0.5,0,0.5,0,1","1","",""
"","html-keyboard-response","129","70749","0.0-129.0","3OLQQLKKNTBH7NXRSUD3SM6BW4DJEZ","A2MUCL20GTQJA0","3ECKRY5B1QIH1N6NFX1ECCW5ZDKIZQ","","null","<img src=""img/food2.png"" style=""width:200px; border:14px solid green;"">","null","","","","","","","","","",""
"","image-keyboard-response","130","71392","0.0-130.0","3OLQQLKKNTBH7NXRSUD3SM6BW4DJEZ","A2MUCL20GTQJA0","3ECKRY5B1QIH1N6NFX1ECCW5ZDKIZQ","","640.6000000238419","img/food1.png","75","642.5","2","0","1","1","1,0.5,0,1,0.5,0,0.5,0,1","1,0.5,0,1,0.5,0,0.5,0,1","1","",""
"","html-keyboard-response","131","71694","0.0-131.0","3OLQQLKKNTBH7NXRSUD3SM6BW4DJEZ","A2MUCL20GTQJA0","3ECKRY5B1QIH1N6NFX1ECCW5ZDKIZQ","","null","<img src=""img/food1.png"" style=""width:200px;border:14px solid red;"">","null","","","","","","","","","",""
"","image-keyboard-response","132","72712","0.0-132.0","3OLQQLKKNTBH7NXRSUD3SM6BW4DJEZ","A2MUCL20GTQJA0","3ECKRY5B1QIH1N6NFX1ECCW5ZDKIZQ","","1015","img/food3.png","74","1016.9000000953674","1","1","2","1","1,0.5,0,1,0.5,0,0.5,0,1","1,0.5,0,1,0.5,0,0.5,0,1","1","",""
"","html-keyboard-response","133","73014","0.0-133.0","3OLQQLKKNTBH7NXRSUD3SM6BW4DJEZ","A2MUCL20GTQJA0","3ECKRY5B1QIH1N6NFX1ECCW5ZDKIZQ","","null","<img src=""img/food3.png"" style=""width:200px; border:14px solid green;"">","null","","","","","","","","","",""
"","image-keyboard-response","134","73519","0.0-134.0","3OLQQLKKNTBH7NXRSUD3SM6BW4DJEZ","A2MUCL20GTQJA0","3ECKRY5B1QIH1N6NFX1ECCW5ZDKIZQ","","502.6999999284744","img/food1.png","75","504.2000000476837","2","0","1","1","1,0.5,0,1,0.5,0,0.5,0,1","1,0.5,0,1,0.5,0,0.5,0,1","1","",""
"","html-keyboard-response","135","73825","0.0-135.0","3OLQQLKKNTBH7NXRSUD3SM6BW4DJEZ","A2MUCL20GTQJA0","3ECKRY5B1QIH1N6NFX1ECCW5ZDKIZQ","","null","<img src=""img/food1.png"" style=""width:200px;border:14px solid red;"">","null","","","","","","","","","",""
"","image-keyboard-response","136","74215","0.0-136.0","3OLQQLKKNTBH7NXRSUD3SM6BW4DJEZ","A2MUCL20GTQJA0","3ECKRY5B1QIH1N6NFX1ECCW5ZDKIZQ","","387.6999999284744","img/food1.png","75","389.2000000476837","2","0","1","1","1,0.5,0,1,0.5,0,0.5,0,1","1,0.5,0,1,0.5,0,0.5,0,1","1","",""
"","html-keyboard-response","137","74517","0.0-137.0","3OLQQLKKNTBH7NXRSUD3SM6BW4DJEZ","A2MUCL20GTQJA0","3ECKRY5B1QIH1N6NFX1ECCW5ZDKIZQ","","null","<img src=""img/food1.png"" style=""width:200px;border:14px solid red;"">","null","","","","","","","","","",""
"","image-keyboard-response","138","74895","0.0-138.0","3OLQQLKKNTBH7NXRSUD3SM6BW4DJEZ","A2MUCL20GTQJA0","3ECKRY5B1QIH1N6NFX1ECCW5ZDKIZQ","","376.1999999284744","img/food1.png","75","378.10000002384186","2","0","1","1","1,0.5,0,1,0.5,0,0.5,0,1","1,0.5,0,1,0.5,0,0.5,0,1","1","",""
"","html-keyboard-response","139","75198","0.0-139.0","3OLQQLKKNTBH7NXRSUD3SM6BW4DJEZ","A2MUCL20GTQJA0","3ECKRY5B1QIH1N6NFX1ECCW5ZDKIZQ","","null","<img src=""img/food1.png"" style=""width:200px;border:14px solid red;"">","null","","","","","","","","","",""
"","image-keyboard-response","140","75767","0.0-140.0","3OLQQLKKNTBH7NXRSUD3SM6BW4DJEZ","A2MUCL20GTQJA0","3ECKRY5B1QIH1N6NFX1ECCW5ZDKIZQ","","566.7999999523163","img/food3.png","74","568.8000000715256","1","1","2","1","1,0.5,0,1,0.5,0,0.5,0,1","1,0.5,0,1,0.5,0,0.5,0,1","1","",""
"","html-keyboard-response","141","76071","0.0-141.0","3OLQQLKKNTBH7NXRSUD3SM6BW4DJEZ","A2MUCL20GTQJA0","3ECKRY5B1QIH1N6NFX1ECCW5ZDKIZQ","","null","<img src=""img/food3.png"" style=""width:200px; border:14px solid green;"">","null","","","","","","","","","",""
"","image-keyboard-response","142","76527","0.0-142.0","3OLQQLKKNTBH7NXRSUD3SM6BW4DJEZ","A2MUCL20GTQJA0","3ECKRY5B1QIH1N6NFX1ECCW5ZDKIZQ","","454.89999997615814","img/food3.png","74","455.90000009536743","1","1","2","1","1,0.5,0,1,0.5,0,0.5,0,1","1,0.5,0,1,0.5,0,0.5,0,1","1","",""
"","html-keyboard-response","143","76829","0.0-143.0","3OLQQLKKNTBH7NXRSUD3SM6BW4DJEZ","A2MUCL20GTQJA0","3ECKRY5B1QIH1N6NFX1ECCW5ZDKIZQ","","null","<img src=""img/food3.png"" style=""width:200px; border:14px solid green;"">","null","","","","","","","","","",""
"","image-keyboard-response","144","77415","0.0-144.0","3OLQQLKKNTBH7NXRSUD3SM6BW4DJEZ","A2MUCL20GTQJA0","3ECKRY5B1QIH1N6NFX1ECCW5ZDKIZQ","","585","img/food2.png","76","586.3000000715256","3","1","3","1","1,0.5,0,1,0.5,0,0.5,0,1","1,0.5,0,1,0.5,0,0.5,0,1","1","",""
"","html-keyboard-response","145","77725","0.0-145.0","3OLQQLKKNTBH7NXRSUD3SM6BW4DJEZ","A2MUCL20GTQJA0","3ECKRY5B1QIH1N6NFX1ECCW5ZDKIZQ","","null","<img src=""img/food2.png"" style=""width:200px; border:14px solid green;"">","null","","","","","","","","","",""
"","image-keyboard-response","146","78246","0.0-146.0","3OLQQLKKNTBH7NXRSUD3SM6BW4DJEZ","A2MUCL20GTQJA0","3ECKRY5B1QIH1N6NFX1ECCW5ZDKIZQ","","519.3000000715256","img/food2.png","76","521.2999999523163","3","1","3","1","1,0.5,0,1,0.5,0,0.5,0,1","1,0.5,0,1,0.5,0,0.5,0,1","1","",""
"","html-keyboard-response","147","78548","0.0-147.0","3OLQQLKKNTBH7NXRSUD3SM6BW4DJEZ","A2MUCL20GTQJA0","3ECKRY5B1QIH1N6NFX1ECCW5ZDKIZQ","","null","<img src=""img/food2.png"" style=""width:200px; border:14px solid green;"">","null","","","","","","","","","",""
"","image-keyboard-response","148","78936","0.0-148.0","3OLQQLKKNTBH7NXRSUD3SM6BW4DJEZ","A2MUCL20GTQJA0","3ECKRY5B1QIH1N6NFX1ECCW5ZDKIZQ","","385.10000002384186","img/food2.png","76","387","3","1","3","1","1,0.5,0,1,0.5,0,0.5,0,1","1,0.5,0,1,0.5,0,0.5,0,1","1","",""
"","html-keyboard-response","149","79238","0.0-149.0","3OLQQLKKNTBH7NXRSUD3SM6BW4DJEZ","A2MUCL20GTQJA0","3ECKRY5B1QIH1N6NFX1ECCW5ZDKIZQ","","null","<img src=""img/food2.png"" style=""width:200px; border:14px solid green;"">","null","","","","","","","","","",""
"","image-keyboard-response","150","79848","0.0-150.0","3OLQQLKKNTBH7NXRSUD3SM6BW4DJEZ","A2MUCL20GTQJA0","3ECKRY5B1QIH1N6NFX1ECCW5ZDKIZQ","","607.4000000953674","img/food3.png","74","609.2999999523163","1","1","2","1","1,0.5,0,1,0.5,0,0.5,0,1","1,0.5,0,1,0.5,0,0.5,0,1","1","",""
"","html-keyboard-response","151","80152","0.0-151.0","3OLQQLKKNTBH7NXRSUD3SM6BW4DJEZ","A2MUCL20GTQJA0","3ECKRY5B1QIH1N6NFX1ECCW5ZDKIZQ","","null","<img src=""img/food3.png"" style=""width:200px; border:14px solid green;"">","null","","","","","","","","","",""
"","image-keyboard-response","152","80704","0.0-152.0","3OLQQLKKNTBH7NXRSUD3SM6BW4DJEZ","A2MUCL20GTQJA0","3ECKRY5B1QIH1N6NFX1ECCW5ZDKIZQ","","550.6999999284744","img/food1.png","75","552.1000000238419","2","0","1","1","1,0.5,0,1,0.5,0,0.5,0,1","1,0.5,0,1,0.5,0,0.5,0,1","1","",""
"","html-keyboard-response","153","81006","0.0-153.0","3OLQQLKKNTBH7NXRSUD3SM6BW4DJEZ","A2MUCL20GTQJA0","3ECKRY5B1QIH1N6NFX1ECCW5ZDKIZQ","","null","<img src=""img/food1.png"" style=""width:200px;border:14px solid red;"">","null","","","","","","","","","",""
"","image-keyboard-response","154","81583","0.0-154.0","3OLQQLKKNTBH7NXRSUD3SM6BW4DJEZ","A2MUCL20GTQJA0","3ECKRY5B1QIH1N6NFX1ECCW5ZDKIZQ","","574.7999999523163","img/food3.png","74","576.7000000476837","1","1","2","1","1,0.5,0,1,0.5,0,0.5,0,1","1,0.5,0,1,0.5,0,0.5,0,1","1","",""
"","html-keyboard-response","155","81892","0.0-155.0","3OLQQLKKNTBH7NXRSUD3SM6BW4DJEZ","A2MUCL20GTQJA0","3ECKRY5B1QIH1N6NFX1ECCW5ZDKIZQ","","null","<img src=""img/food3.png"" style=""width:200px; border:14px solid green;"">","null","","","","","","","","","",""
"","image-keyboard-response","156","82318","0.0-156.0","3OLQQLKKNTBH7NXRSUD3SM6BW4DJEZ","A2MUCL20GTQJA0","3ECKRY5B1QIH1N6NFX1ECCW5ZDKIZQ","","424.5","img/food3.png","74","426","1","1","2","1","1,0.5,0,1,0.5,0,0.5,0,1","1,0.5,0,1,0.5,0,0.5,0,1","1","",""
"","html-keyboard-response","157","82622","0.0-157.0","3OLQQLKKNTBH7NXRSUD3SM6BW4DJEZ","A2MUCL20GTQJA0","3ECKRY5B1QIH1N6NFX1ECCW5ZDKIZQ","","null","<img src=""img/food3.png"" style=""width:200px; border:14px solid green;"">","null","","","","","","","","","",""
"","image-keyboard-response","158","83191","0.0-158.0","3OLQQLKKNTBH7NXRSUD3SM6BW4DJEZ","A2MUCL20GTQJA0","3ECKRY5B1QIH1N6NFX1ECCW5ZDKIZQ","","567.3999999761581","img/food1.png","75","569.3999999761581","2","0","1","1","1,0.5,0,1,0.5,0,0.5,0,1","1,0.5,0,1,0.5,0,0.5,0,1","1","",""
"","html-keyboard-response","159","83494","0.0-159.0","3OLQQLKKNTBH7NXRSUD3SM6BW4DJEZ","A2MUCL20GTQJA0","3ECKRY5B1QIH1N6NFX1ECCW5ZDKIZQ","","null","<img src=""img/food1.png"" style=""width:200px;border:14px solid red;"">","null","","","","","","","","","",""
"","image-keyboard-response","160","83895","0.0-160.0","3OLQQLKKNTBH7NXRSUD3SM6BW4DJEZ","A2MUCL20GTQJA0","3ECKRY5B1QIH1N6NFX1ECCW5ZDKIZQ","","398.5","img/food1.png","75","400.2999999523163","2","1","1","1","1,0.5,0,1,0.5,0,0.5,0,1","1,0.5,0,1,0.5,0,0.5,0,1","1","",""
"","html-keyboard-response","161","84198","0.0-161.0","3OLQQLKKNTBH7NXRSUD3SM6BW4DJEZ","A2MUCL20GTQJA0","3ECKRY5B1QIH1N6NFX1ECCW5ZDKIZQ","","null","<img src=""img/food1.png"" style=""width:200px; border:14px solid green;"">","null","","","","","","","","","",""
"","image-keyboard-response","162","84558","0.0-162.0","3OLQQLKKNTBH7NXRSUD3SM6BW4DJEZ","A2MUCL20GTQJA0","3ECKRY5B1QIH1N6NFX1ECCW5ZDKIZQ","","359.10000002384186","img/food1.png","75","360.10000002384186","2","0","1","1","1,0.5,0,1,0.5,0,0.5,0,1","1,0.5,0,1,0.5,0,0.5,0,1","1","",""
"","html-keyboard-response","163","84861","0.0-163.0","3OLQQLKKNTBH7NXRSUD3SM6BW4DJEZ","A2MUCL20GTQJA0","3ECKRY5B1QIH1N6NFX1ECCW5ZDKIZQ","","null","<img src=""img/food1.png"" style=""width:200px;border:14px solid red;"">","null","","","","","","","","","",""
"","image-keyboard-response","164","85423","0.0-164.0","3OLQQLKKNTBH7NXRSUD3SM6BW4DJEZ","A2MUCL20GTQJA0","3ECKRY5B1QIH1N6NFX1ECCW5ZDKIZQ","","560.7999999523163","img/food2.png","76","562.2999999523163","3","1","3","1","1,0.5,0,1,0.5,0,0.5,0,1","1,0.5,0,1,0.5,0,0.5,0,1","1","",""
"","html-keyboard-response","165","85727","0.0-165.0","3OLQQLKKNTBH7NXRSUD3SM6BW4DJEZ","A2MUCL20GTQJA0","3ECKRY5B1QIH1N6NFX1ECCW5ZDKIZQ","","null","<img src=""img/food2.png"" style=""width:200px; border:14px solid green;"">","null","","","","","","","","","",""
"","image-keyboard-response","166","86118","0.0-166.0","3OLQQLKKNTBH7NXRSUD3SM6BW4DJEZ","A2MUCL20GTQJA0","3ECKRY5B1QIH1N6NFX1ECCW5ZDKIZQ","","390.40000009536743","img/food2.png","76","393","3","1","3","1","1,0.5,0,1,0.5,0,0.5,0,1","1,0.5,0,1,0.5,0,0.5,0,1","1","",""
"","html-keyboard-response","167","86422","0.0-167.0","3OLQQLKKNTBH7NXRSUD3SM6BW4DJEZ","A2MUCL20GTQJA0","3ECKRY5B1QIH1N6NFX1ECCW5ZDKIZQ","","null","<img src=""img/food2.png"" style=""width:200px; border:14px solid green;"">","null","","","","","","","","","",""
"","image-keyboard-response","168","87079","0.0-168.0","3OLQQLKKNTBH7NXRSUD3SM6BW4DJEZ","A2MUCL20GTQJA0","3ECKRY5B1QIH1N6NFX1ECCW5ZDKIZQ","","655.3000000715256","img/food1.png","75","657.2999999523163","2","1","1","1","1,0.5,0,1,0.5,0,0.5,0,1","1,0.5,0,1,0.5,0,0.5,0,1","1","",""
"","html-keyboard-response","169","87382","0.0-169.0","3OLQQLKKNTBH7NXRSUD3SM6BW4DJEZ","A2MUCL20GTQJA0","3ECKRY5B1QIH1N6NFX1ECCW5ZDKIZQ","","null","<img src=""img/food1.png"" style=""width:200px; border:14px solid green;"">","null","","","","","","","","","",""
"","image-keyboard-response","170","87919","0.0-170.0","3OLQQLKKNTBH7NXRSUD3SM6BW4DJEZ","A2MUCL20GTQJA0","3ECKRY5B1QIH1N6NFX1ECCW5ZDKIZQ","","534.5","img/food3.png","74","536.3000000715256","1","1","2","1","1,0.5,0,1,0.5,0,0.5,0,1","1,0.5,0,1,0.5,0,0.5,0,1","1","",""
"","html-keyboard-response","171","88221","0.0-171.0","3OLQQLKKNTBH7NXRSUD3SM6BW4DJEZ","A2MUCL20GTQJA0","3ECKRY5B1QIH1N6NFX1ECCW5ZDKIZQ","","null","<img src=""img/food3.png"" style=""width:200px; border:14px solid green;"">","null","","","","","","","","","",""
"","image-keyboard-response","172","88935","0.0-172.0","3OLQQLKKNTBH7NXRSUD3SM6BW4DJEZ","A2MUCL20GTQJA0","3ECKRY5B1QIH1N6NFX1ECCW5ZDKIZQ","","712.6999999284744","img/food1.png","75","714.2000000476837","2","0","1","1","1,0.5,0,1,0.5,0,0.5,0,1","1,0.5,0,1,0.5,0,0.5,0,1","1","",""
"","html-keyboard-response","173","89238","0.0-173.0","3OLQQLKKNTBH7NXRSUD3SM6BW4DJEZ","A2MUCL20GTQJA0","3ECKRY5B1QIH1N6NFX1ECCW5ZDKIZQ","","null","<img src=""img/food1.png"" style=""width:200px;border:14px solid red;"">","null","","","","","","","","","",""
"","image-keyboard-response","174","90326","0.0-174.0","3OLQQLKKNTBH7NXRSUD3SM6BW4DJEZ","A2MUCL20GTQJA0","3ECKRY5B1QIH1N6NFX1ECCW5ZDKIZQ","","1086","img/food2.png","76","1087.7000000476837","3","1","3","1","1,0.5,0,1,0.5,0,0.5,0,1","1,0.5,0,1,0.5,0,0.5,0,1","1","",""
"","html-keyboard-response","175","90634","0.0-175.0","3OLQQLKKNTBH7NXRSUD3SM6BW4DJEZ","A2MUCL20GTQJA0","3ECKRY5B1QIH1N6NFX1ECCW5ZDKIZQ","","null","<img src=""img/food2.png"" style=""width:200px; border:14px solid green;"">","null","","","","","","","","","",""
"","image-keyboard-response","176","91216","0.0-176.0","3OLQQLKKNTBH7NXRSUD3SM6BW4DJEZ","A2MUCL20GTQJA0","3ECKRY5B1QIH1N6NFX1ECCW5ZDKIZQ","","579.2000000476837","img/food1.png","75","581.1999999284744","2","1","1","1","1,0.5,0,1,0.5,0,0.5,0,1","1,0.5,0,1,0.5,0,0.5,0,1","1","",""
"","html-keyboard-response","177","91519","0.0-177.0","3OLQQLKKNTBH7NXRSUD3SM6BW4DJEZ","A2MUCL20GTQJA0","3ECKRY5B1QIH1N6NFX1ECCW5ZDKIZQ","","null","<img src=""img/food1.png"" style=""width:200px; border:14px solid green;"">","null","","","","","","","","","",""
"","image-keyboard-response","178","92014","0.0-178.0","3OLQQLKKNTBH7NXRSUD3SM6BW4DJEZ","A2MUCL20GTQJA0","3ECKRY5B1QIH1N6NFX1ECCW5ZDKIZQ","","493.7000000476837","img/food3.png","74","495.2999999523163","1","1","2","1","1,0.5,0,1,0.5,0,0.5,0,1","1,0.5,0,1,0.5,0,0.5,0,1","1","",""
"","html-keyboard-response","179","92326","0.0-179.0","3OLQQLKKNTBH7NXRSUD3SM6BW4DJEZ","A2MUCL20GTQJA0","3ECKRY5B1QIH1N6NFX1ECCW5ZDKIZQ","","null","<img src=""img/food3.png"" style=""width:200px; border:14px solid green;"">","null","","","","","","","","","",""
"","image-keyboard-response","180","92727","0.0-180.0","3OLQQLKKNTBH7NXRSUD3SM6BW4DJEZ","A2MUCL20GTQJA0","3ECKRY5B1QIH1N6NFX1ECCW5ZDKIZQ","","399.40000009536743","img/food3.png","74","401.10000002384186","1","1","2","1","1,0.5,0,1,0.5,0,0.5,0,1","1,0.5,0,1,0.5,0,0.5,0,1","1","",""
"","html-keyboard-response","181","93030","0.0-181.0","3OLQQLKKNTBH7NXRSUD3SM6BW4DJEZ","A2MUCL20GTQJA0","3ECKRY5B1QIH1N6NFX1ECCW5ZDKIZQ","","null","<img src=""img/food3.png"" style=""width:200px; border:14px solid green;"">","null","","","","","","","","","",""
"","html-keyboard-response","182","99002","0.0-182.0","3OLQQLKKNTBH7NXRSUD3SM6BW4DJEZ","A2MUCL20GTQJA0","3ECKRY5B1QIH1N6NFX1ECCW5ZDKIZQ","","","","","","","","","","","","","",""
"","instructions","183","107170","0.0-183.0","3OLQQLKKNTBH7NXRSUD3SM6BW4DJEZ","A2MUCL20GTQJA0","3ECKRY5B1QIH1N6NFX1ECCW5ZDKIZQ","[{""page_index"":0,""viewing_time"":7193.399999976158},{""page_index"":1,""viewing_time"":973.5}]","8167.399999976158","","","","","","","","","","","",""
"","image-keyboard-response","184","107823","0.0-184.0","3OLQQLKKNTBH7NXRSUD3SM6BW4DJEZ","A2MUCL20GTQJA0","3ECKRY5B1QIH1N6NFX1ECCW5ZDKIZQ","","650.8999999761581","img/food4.png","76","652.8999999761581","3","0","3","2","1,0.5,0,1,0.5,0,0.5,0,1","0,1,0.5,0,1,0.5,1,0.5,0","3","false",""
"","html-keyboard-response","185","108127","0.0-185.0","3OLQQLKKNTBH7NXRSUD3SM6BW4DJEZ","A2MUCL20GTQJA0","3ECKRY5B1QIH1N6NFX1ECCW5ZDKIZQ","","null","<img src=""img/food4.png"" style=""width:200px;border:14px solid red;"">","null","","","","","","","","","",""
"","image-keyboard-response","186","108631","0.0-187.0","3OLQQLKKNTBH7NXRSUD3SM6BW4DJEZ","A2MUCL20GTQJA0","3ECKRY5B1QIH1N6NFX1ECCW5ZDKIZQ","","501.5","img/food6.png","75","503","2","1","1","2","1,0.5,0,1,0.5,0,0.5,0,1","0,1,0.5,0,1,0.5,1,0.5,0","3","false",""
"","html-keyboard-response","187","108934","0.0-188.0","3OLQQLKKNTBH7NXRSUD3SM6BW4DJEZ","A2MUCL20GTQJA0","3ECKRY5B1QIH1N6NFX1ECCW5ZDKIZQ","","null","<img src=""img/food6.png"" style=""width:200px; border:14px solid green;"">","null","","","","","","","","","",""
"","image-keyboard-response","188","109623","0.0-190.0","3OLQQLKKNTBH7NXRSUD3SM6BW4DJEZ","A2MUCL20GTQJA0","3ECKRY5B1QIH1N6NFX1ECCW5ZDKIZQ","","686","img/food4.png","76","687.8999999761581","3","0","3","2","1,0.5,0,1,0.5,0,0.5,0,1","0,1,0.5,0,1,0.5,1,0.5,0","3","false",""
"","html-keyboard-response","189","109927","0.0-191.0","3OLQQLKKNTBH7NXRSUD3SM6BW4DJEZ","A2MUCL20GTQJA0","3ECKRY5B1QIH1N6NFX1ECCW5ZDKIZQ","","null","<img src=""img/food4.png"" style=""width:200px;border:14px solid red;"">","null","","","","","","","","","",""
"","image-keyboard-response","190","110423","0.0-193.0","3OLQQLKKNTBH7NXRSUD3SM6BW4DJEZ","A2MUCL20GTQJA0","3ECKRY5B1QIH1N6NFX1ECCW5ZDKIZQ","","494.5","img/food4.png","76","495.8000000715256","3","0","3","2","1,0.5,0,1,0.5,0,0.5,0,1","0,1,0.5,0,1,0.5,1,0.5,0","3","false",""
"","html-keyboard-response","191","110726","0.0-194.0","3OLQQLKKNTBH7NXRSUD3SM6BW4DJEZ","A2MUCL20GTQJA0","3ECKRY5B1QIH1N6NFX1ECCW5ZDKIZQ","","null","<img src=""img/food4.png"" style=""width:200px;border:14px solid red;"">","null","","","","","","","","","",""
"","image-keyboard-response","192","111015","0.0-196.0","3OLQQLKKNTBH7NXRSUD3SM6BW4DJEZ","A2MUCL20GTQJA0","3ECKRY5B1QIH1N6NFX1ECCW5ZDKIZQ","","286.7000000476837","img/food5.png","74","288.60000002384186","1","0","2","2","1,0.5,0,1,0.5,0,0.5,0,1","0,1,0.5,0,1,0.5,1,0.5,0","3","false",""
"","html-keyboard-response","193","111327","0.0-197.0","3OLQQLKKNTBH7NXRSUD3SM6BW4DJEZ","A2MUCL20GTQJA0","3ECKRY5B1QIH1N6NFX1ECCW5ZDKIZQ","","null","<img src=""img/food5.png"" style=""width:200px;border:14px solid red;"">","null","","","","","","","","","",""
"","image-keyboard-response","194","111751","0.0-199.0","3OLQQLKKNTBH7NXRSUD3SM6BW4DJEZ","A2MUCL20GTQJA0","3ECKRY5B1QIH1N6NFX1ECCW5ZDKIZQ","","421.5","img/food4.png","75","423.5","2","1","3","2","1,0.5,0,1,0.5,0,0.5,0,1","0,1,0.5,0,1,0.5,1,0.5,0","3","false",""
"","html-keyboard-response","195","112054","0.0-200.0","3OLQQLKKNTBH7NXRSUD3SM6BW4DJEZ","A2MUCL20GTQJA0","3ECKRY5B1QIH1N6NFX1ECCW5ZDKIZQ","","null","<img src=""img/food4.png"" style=""width:200px; border:14px solid green;"">","null","","","","","","","","","",""
"","image-keyboard-response","196","112663","0.0-202.0","3OLQQLKKNTBH7NXRSUD3SM6BW4DJEZ","A2MUCL20GTQJA0","3ECKRY5B1QIH1N6NFX1ECCW5ZDKIZQ","","607.1000000238419","img/food5.png","75","608.6999999284744","2","1","2","2","1,0.5,0,1,0.5,0,0.5,0,1","0,1,0.5,0,1,0.5,1,0.5,0","3","false",""
"","html-keyboard-response","197","112966","0.0-203.0","3OLQQLKKNTBH7NXRSUD3SM6BW4DJEZ","A2MUCL20GTQJA0","3ECKRY5B1QIH1N6NFX1ECCW5ZDKIZQ","","null","<img src=""img/food5.png"" style=""width:200px; border:14px solid green;"">","null","","","","","","","","","",""
"","image-keyboard-response","198","113327","0.0-205.0","3OLQQLKKNTBH7NXRSUD3SM6BW4DJEZ","A2MUCL20GTQJA0","3ECKRY5B1QIH1N6NFX1ECCW5ZDKIZQ","","358.10000002384186","img/food5.png","75","360","2","1","2","2","1,0.5,0,1,0.5,0,0.5,0,1","0,1,0.5,0,1,0.5,1,0.5,0","3","false",""
"","html-keyboard-response","199","113631","0.0-206.0","3OLQQLKKNTBH7NXRSUD3SM6BW4DJEZ","A2MUCL20GTQJA0","3ECKRY5B1QIH1N6NFX1ECCW5ZDKIZQ","","null","<img src=""img/food5.png"" style=""width:200px; border:14px solid green;"">","null","","","","","","","","","",""
"","image-keyboard-response","200","113950","0.0-208.0","3OLQQLKKNTBH7NXRSUD3SM6BW4DJEZ","A2MUCL20GTQJA0","3ECKRY5B1QIH1N6NFX1ECCW5ZDKIZQ","","317.3000000715256","img/food5.png","75","318.7000000476837","2","1","2","2","1,0.5,0,1,0.5,0,0.5,0,1","0,1,0.5,0,1,0.5,1,0.5,0","3","false",""
"","html-keyboard-response","201","114253","0.0-209.0","3OLQQLKKNTBH7NXRSUD3SM6BW4DJEZ","A2MUCL20GTQJA0","3ECKRY5B1QIH1N6NFX1ECCW5ZDKIZQ","","null","<img src=""img/food5.png"" style=""width:200px; border:14px solid green;"">","null","","","","","","","","","",""
"","image-keyboard-response","202","114791","0.0-211.0","3OLQQLKKNTBH7NXRSUD3SM6BW4DJEZ","A2MUCL20GTQJA0","3ECKRY5B1QIH1N6NFX1ECCW5ZDKIZQ","","536.5","img/food6.png","76","538","3","1","1","2","1,0.5,0,1,0.5,0,0.5,0,1","0,1,0.5,0,1,0.5,1,0.5,0","3","false",""
"","html-keyboard-response","203","115094","0.0-212.0","3OLQQLKKNTBH7NXRSUD3SM6BW4DJEZ","A2MUCL20GTQJA0","3ECKRY5B1QIH1N6NFX1ECCW5ZDKIZQ","","null","<img src=""img/food6.png"" style=""width:200px; border:14px solid green;"">","null","","","","","","","","","",""
"","image-keyboard-response","204","115535","0.0-214.0","3OLQQLKKNTBH7NXRSUD3SM6BW4DJEZ","A2MUCL20GTQJA0","3ECKRY5B1QIH1N6NFX1ECCW5ZDKIZQ","","438.6999999284744","img/food4.png","75","440.7999999523163","2","1","3","2","1,0.5,0,1,0.5,0,0.5,0,1","0,1,0.5,0,1,0.5,1,0.5,0","3","false",""
"","html-keyboard-response","205","115838","0.0-215.0","3OLQQLKKNTBH7NXRSUD3SM6BW4DJEZ","A2MUCL20GTQJA0","3ECKRY5B1QIH1N6NFX1ECCW5ZDKIZQ","","null","<img src=""img/food4.png"" style=""width:200px; border:14px solid green;"">","null","","","","","","","","","",""
"","image-keyboard-response","206","116254","0.0-217.0","3OLQQLKKNTBH7NXRSUD3SM6BW4DJEZ","A2MUCL20GTQJA0","3ECKRY5B1QIH1N6NFX1ECCW5ZDKIZQ","","413.7000000476837","img/food5.png","75","415.2999999523163","2","1","2","2","1,0.5,0,1,0.5,0,0.5,0,1","0,1,0.5,0,1,0.5,1,0.5,0","3","false",""
"","html-keyboard-response","207","116559","0.0-218.0","3OLQQLKKNTBH7NXRSUD3SM6BW4DJEZ","A2MUCL20GTQJA0","3ECKRY5B1QIH1N6NFX1ECCW5ZDKIZQ","","null","<img src=""img/food5.png"" style=""width:200px; border:14px solid green;"">","null","","","","","","","","","",""
"","image-keyboard-response","208","116870","0.0-220.0","3OLQQLKKNTBH7NXRSUD3SM6BW4DJEZ","A2MUCL20GTQJA0","3ECKRY5B1QIH1N6NFX1ECCW5ZDKIZQ","","309.40000009536743","img/food5.png","75","310.5","2","1","2","2","1,0.5,0,1,0.5,0,0.5,0,1","0,1,0.5,0,1,0.5,1,0.5,0","3","false",""
"","html-keyboard-response","209","117172","0.0-221.0","3OLQQLKKNTBH7NXRSUD3SM6BW4DJEZ","A2MUCL20GTQJA0","3ECKRY5B1QIH1N6NFX1ECCW5ZDKIZQ","","null","<img src=""img/food5.png"" style=""width:200px; border:14px solid green;"">","null","","","","","","","","","",""
"","image-keyboard-response","210","117655","0.0-223.0","3OLQQLKKNTBH7NXRSUD3SM6BW4DJEZ","A2MUCL20GTQJA0","3ECKRY5B1QIH1N6NFX1ECCW5ZDKIZQ","","480.1999999284744","img/food4.png","76","482.10000002384186","3","0","3","2","1,0.5,0,1,0.5,0,0.5,0,1","0,1,0.5,0,1,0.5,1,0.5,0","3","false",""
"","html-keyboard-response","211","117959","0.0-224.0","3OLQQLKKNTBH7NXRSUD3SM6BW4DJEZ","A2MUCL20GTQJA0","3ECKRY5B1QIH1N6NFX1ECCW5ZDKIZQ","","null","<img src=""img/food4.png"" style=""width:200px;border:14px solid red;"">","null","","","","","","","","","",""
"","image-keyboard-response","212","118414","0.0-226.0","3OLQQLKKNTBH7NXRSUD3SM6BW4DJEZ","A2MUCL20GTQJA0","3ECKRY5B1QIH1N6NFX1ECCW5ZDKIZQ","","453.39999997615814","img/food6.png","75","454.60000002384186","2","1","1","2","1,0.5,0,1,0.5,0,0.5,0,1","0,1,0.5,0,1,0.5,1,0.5,0","3","false",""
"","html-keyboard-response","213","118717","0.0-227.0","3OLQQLKKNTBH7NXRSUD3SM6BW4DJEZ","A2MUCL20GTQJA0","3ECKRY5B1QIH1N6NFX1ECCW5ZDKIZQ","","null","<img src=""img/food6.png"" style=""width:200px; border:14px solid green;"">","null","","","","","","","","","",""
"","image-keyboard-response","214","119151","0.0-229.0","3OLQQLKKNTBH7NXRSUD3SM6BW4DJEZ","A2MUCL20GTQJA0","3ECKRY5B1QIH1N6NFX1ECCW5ZDKIZQ","","430.89999997615814","img/food5.png","75","432.89999997615814","2","1","2","2","1,0.5,0,1,0.5,0,0.5,0,1","0,1,0.5,0,1,0.5,1,0.5,0","3","false",""
"","html-keyboard-response","215","119455","0.0-230.0","3OLQQLKKNTBH7NXRSUD3SM6BW4DJEZ","A2MUCL20GTQJA0","3ECKRY5B1QIH1N6NFX1ECCW5ZDKIZQ","","null","<img src=""img/food5.png"" style=""width:200px; border:14px solid green;"">","null","","","","","","","","","",""
"","image-keyboard-response","216","119815","0.0-232.0","3OLQQLKKNTBH7NXRSUD3SM6BW4DJEZ","A2MUCL20GTQJA0","3ECKRY5B1QIH1N6NFX1ECCW5ZDKIZQ","","357.60000002384186","img/food4.png","75","359.6999999284744","2","0","3","2","1,0.5,0,1,0.5,0,0.5,0,1","0,1,0.5,0,1,0.5,1,0.5,0","3","false",""
"","html-keyboard-response","217","120119","0.0-233.0","3OLQQLKKNTBH7NXRSUD3SM6BW4DJEZ","A2MUCL20GTQJA0","3ECKRY5B1QIH1N6NFX1ECCW5ZDKIZQ","","null","<img src=""img/food4.png"" style=""width:200px;border:14px solid red;"">","null","","","","","","","","","",""
"","image-keyboard-response","218","120463","0.0-235.0","3OLQQLKKNTBH7NXRSUD3SM6BW4DJEZ","A2MUCL20GTQJA0","3ECKRY5B1QIH1N6NFX1ECCW5ZDKIZQ","","342.5","img/food4.png","76","343.89999997615814","3","0","3","2","1,0.5,0,1,0.5,0,0.5,0,1","0,1,0.5,0,1,0.5,1,0.5,0","3","false",""
"","html-keyboard-response","219","120767","0.0-236.0","3OLQQLKKNTBH7NXRSUD3SM6BW4DJEZ","A2MUCL20GTQJA0","3ECKRY5B1QIH1N6NFX1ECCW5ZDKIZQ","","null","<img src=""img/food4.png"" style=""width:200px;border:14px solid red;"">","null","","","","","","","","","",""
"","image-keyboard-response","220","121231","0.0-238.0","3OLQQLKKNTBH7NXRSUD3SM6BW4DJEZ","A2MUCL20GTQJA0","3ECKRY5B1QIH1N6NFX1ECCW5ZDKIZQ","","461.1999999284744","img/food6.png","75","463.2000000476837","2","1","1","2","1,0.5,0,1,0.5,0,0.5,0,1","0,1,0.5,0,1,0.5,1,0.5,0","3","false",""
"","html-keyboard-response","221","121534","0.0-239.0","3OLQQLKKNTBH7NXRSUD3SM6BW4DJEZ","A2MUCL20GTQJA0","3ECKRY5B1QIH1N6NFX1ECCW5ZDKIZQ","","null","<img src=""img/food6.png"" style=""width:200px; border:14px solid green;"">","null","","","","","","","","","",""
"","image-keyboard-response","222","122182","0.0-241.0","3OLQQLKKNTBH7NXRSUD3SM6BW4DJEZ","A2MUCL20GTQJA0","3ECKRY5B1QIH1N6NFX1ECCW5ZDKIZQ","","645.7999999523163","img/food5.png","75","647.5","2","1","2","2","1,0.5,0,1,0.5,0,0.5,0,1","0,1,0.5,0,1,0.5,1,0.5,0","3","false",""
"","html-keyboard-response","223","122485","0.0-242.0","3OLQQLKKNTBH7NXRSUD3SM6BW4DJEZ","A2MUCL20GTQJA0","3ECKRY5B1QIH1N6NFX1ECCW5ZDKIZQ","","null","<img src=""img/food5.png"" style=""width:200px; border:14px solid green;"">","null","","","","","","","","","",""
"","image-keyboard-response","224","122822","0.0-244.0","3OLQQLKKNTBH7NXRSUD3SM6BW4DJEZ","A2MUCL20GTQJA0","3ECKRY5B1QIH1N6NFX1ECCW5ZDKIZQ","","335.8000000715256","img/food4.png","76","337","3","0","3","2","1,0.5,0,1,0.5,0,0.5,0,1","0,1,0.5,0,1,0.5,1,0.5,0","3","false",""
"","html-keyboard-response","225","123123","0.0-245.0","3OLQQLKKNTBH7NXRSUD3SM6BW4DJEZ","A2MUCL20GTQJA0","3ECKRY5B1QIH1N6NFX1ECCW5ZDKIZQ","","null","<img src=""img/food4.png"" style=""width:200px;border:14px solid red;"">","null","","","","","","","","","",""
"","image-keyboard-response","226","123430","0.0-247.0","3OLQQLKKNTBH7NXRSUD3SM6BW4DJEZ","A2MUCL20GTQJA0","3ECKRY5B1QIH1N6NFX1ECCW5ZDKIZQ","","305","img/food6.png","75","306.10000002384186","2","1","1","2","1,0.5,0,1,0.5,0,0.5,0,1","0,1,0.5,0,1,0.5,1,0.5,0","3","false",""
"","html-keyboard-response","227","123732","0.0-248.0","3OLQQLKKNTBH7NXRSUD3SM6BW4DJEZ","A2MUCL20GTQJA0","3ECKRY5B1QIH1N6NFX1ECCW5ZDKIZQ","","null","<img src=""img/food6.png"" style=""width:200px; border:14px solid green;"">","null","","","","","","","","","",""
"","image-keyboard-response","228","124118","0.0-250.0","3OLQQLKKNTBH7NXRSUD3SM6BW4DJEZ","A2MUCL20GTQJA0","3ECKRY5B1QIH1N6NFX1ECCW5ZDKIZQ","","383.39999997615814","img/food5.png","75","384.89999997615814","2","1","2","2","1,0.5,0,1,0.5,0,0.5,0,1","0,1,0.5,0,1,0.5,1,0.5,0","3","false",""
"","html-keyboard-response","229","124420","0.0-251.0","3OLQQLKKNTBH7NXRSUD3SM6BW4DJEZ","A2MUCL20GTQJA0","3ECKRY5B1QIH1N6NFX1ECCW5ZDKIZQ","","null","<img src=""img/food5.png"" style=""width:200px; border:14px solid green;"">","null","","","","","","","","","",""
"","image-keyboard-response","230","124863","0.0-253.0","3OLQQLKKNTBH7NXRSUD3SM6BW4DJEZ","A2MUCL20GTQJA0","3ECKRY5B1QIH1N6NFX1ECCW5ZDKIZQ","","440.89999997615814","img/food6.png","75","442.40000009536743","2","1","1","2","1,0.5,0,1,0.5,0,0.5,0,1","0,1,0.5,0,1,0.5,1,0.5,0","3","false",""
"","html-keyboard-response","231","125166","0.0-254.0","3OLQQLKKNTBH7NXRSUD3SM6BW4DJEZ","A2MUCL20GTQJA0","3ECKRY5B1QIH1N6NFX1ECCW5ZDKIZQ","","null","<img src=""img/food6.png"" style=""width:200px; border:14px solid green;"">","null","","","","","","","","","",""
"","image-keyboard-response","232","125591","0.0-256.0","3OLQQLKKNTBH7NXRSUD3SM6BW4DJEZ","A2MUCL20GTQJA0","3ECKRY5B1QIH1N6NFX1ECCW5ZDKIZQ","","422","img/food5.png","74","424.3000000715256","1","0","2","2","1,0.5,0,1,0.5,0,0.5,0,1","0,1,0.5,0,1,0.5,1,0.5,0","3","false",""
"","html-keyboard-response","233","125894","0.0-257.0","3OLQQLKKNTBH7NXRSUD3SM6BW4DJEZ","A2MUCL20GTQJA0","3ECKRY5B1QIH1N6NFX1ECCW5ZDKIZQ","","null","<img src=""img/food5.png"" style=""width:200px;border:14px solid red;"">","null","","","","","","","","","",""
"","image-keyboard-response","234","126230","0.0-259.0","3OLQQLKKNTBH7NXRSUD3SM6BW4DJEZ","A2MUCL20GTQJA0","3ECKRY5B1QIH1N6NFX1ECCW5ZDKIZQ","","332.7999999523163","img/food5.png","75","334.6999999284744","2","1","2","2","1,0.5,0,1,0.5,0,0.5,0,1","0,1,0.5,0,1,0.5,1,0.5,0","3","false",""
"","html-keyboard-response","235","126532","0.0-260.0","3OLQQLKKNTBH7NXRSUD3SM6BW4DJEZ","A2MUCL20GTQJA0","3ECKRY5B1QIH1N6NFX1ECCW5ZDKIZQ","","null","<img src=""img/food5.png"" style=""width:200px; border:14px solid green;"">","null","","","","","","","","","",""
"","image-keyboard-response","236","126943","0.0-262.0","3OLQQLKKNTBH7NXRSUD3SM6BW4DJEZ","A2MUCL20GTQJA0","3ECKRY5B1QIH1N6NFX1ECCW5ZDKIZQ","","409.3000000715256","img/food5.png","75","410.60000002384186","2","1","2","2","1,0.5,0,1,0.5,0,0.5,0,1","0,1,0.5,0,1,0.5,1,0.5,0","3","false",""
"","html-keyboard-response","237","127247","0.0-263.0","3OLQQLKKNTBH7NXRSUD3SM6BW4DJEZ","A2MUCL20GTQJA0","3ECKRY5B1QIH1N6NFX1ECCW5ZDKIZQ","","null","<img src=""img/food5.png"" style=""width:200px; border:14px solid green;"">","null","","","","","","","","","",""
"","image-keyboard-response","238","127519","0.0-265.0","3OLQQLKKNTBH7NXRSUD3SM6BW4DJEZ","A2MUCL20GTQJA0","3ECKRY5B1QIH1N6NFX1ECCW5ZDKIZQ","","269.1999999284744","img/food5.png","75","271","2","1","2","2","1,0.5,0,1,0.5,0,0.5,0,1","0,1,0.5,0,1,0.5,1,0.5,0","3","false",""
"","html-keyboard-response","239","127822","0.0-266.0","3OLQQLKKNTBH7NXRSUD3SM6BW4DJEZ","A2MUCL20GTQJA0","3ECKRY5B1QIH1N6NFX1ECCW5ZDKIZQ","","null","<img src=""img/food5.png"" style=""width:200px; border:14px solid green;"">","null","","","","","","","","","",""
"","image-keyboard-response","240","128046","0.0-268.0","3OLQQLKKNTBH7NXRSUD3SM6BW4DJEZ","A2MUCL20GTQJA0","3ECKRY5B1QIH1N6NFX1ECCW5ZDKIZQ","","221.5","img/food6.png","75","223.10000002384186","2","1","1","2","1,0.5,0,1,0.5,0,0.5,0,1","0,1,0.5,0,1,0.5,1,0.5,0","3","false",""
"","html-keyboard-response","241","128352","0.0-269.0","3OLQQLKKNTBH7NXRSUD3SM6BW4DJEZ","A2MUCL20GTQJA0","3ECKRY5B1QIH1N6NFX1ECCW5ZDKIZQ","","null","<img src=""img/food6.png"" style=""width:200px; border:14px solid green;"">","null","","","","","","","","","",""
"","image-keyboard-response","242","128679","0.0-271.0","3OLQQLKKNTBH7NXRSUD3SM6BW4DJEZ","A2MUCL20GTQJA0","3ECKRY5B1QIH1N6NFX1ECCW5ZDKIZQ","","324.7000000476837","img/food4.png","75","326.2000000476837","2","0","3","2","1,0.5,0,1,0.5,0,0.5,0,1","0,1,0.5,0,1,0.5,1,0.5,0","3","false",""
"","html-keyboard-response","243","128982","0.0-272.0","3OLQQLKKNTBH7NXRSUD3SM6BW4DJEZ","A2MUCL20GTQJA0","3ECKRY5B1QIH1N6NFX1ECCW5ZDKIZQ","","null","<img src=""img/food4.png"" style=""width:200px;border:14px solid red;"">","null","","","","","","","","","",""
"","image-keyboard-response","244","129407","0.0-274.0","3OLQQLKKNTBH7NXRSUD3SM6BW4DJEZ","A2MUCL20GTQJA0","3ECKRY5B1QIH1N6NFX1ECCW5ZDKIZQ","","422.1999999284744","img/food6.png","76","424.10000002384186","3","1","1","2","1,0.5,0,1,0.5,0,0.5,0,1","0,1,0.5,0,1,0.5,1,0.5,0","3","false",""
"","html-keyboard-response","245","129710","0.0-275.0","3OLQQLKKNTBH7NXRSUD3SM6BW4DJEZ","A2MUCL20GTQJA0","3ECKRY5B1QIH1N6NFX1ECCW5ZDKIZQ","","null","<img src=""img/food6.png"" style=""width:200px; border:14px solid green;"">","null","","","","","","","","","",""
"","image-keyboard-response","246","130102","0.0-277.0","3OLQQLKKNTBH7NXRSUD3SM6BW4DJEZ","A2MUCL20GTQJA0","3ECKRY5B1QIH1N6NFX1ECCW5ZDKIZQ","","389.5","img/food4.png","75","391","2","0","3","2","1,0.5,0,1,0.5,0,0.5,0,1","0,1,0.5,0,1,0.5,1,0.5,0","3","false",""
"","html-keyboard-response","247","130405","0.0-278.0","3OLQQLKKNTBH7NXRSUD3SM6BW4DJEZ","A2MUCL20GTQJA0","3ECKRY5B1QIH1N6NFX1ECCW5ZDKIZQ","","null","<img src=""img/food4.png"" style=""width:200px;border:14px solid red;"">","null","","","","","","","","","",""
"","image-keyboard-response","248","130647","0.0-280.0","3OLQQLKKNTBH7NXRSUD3SM6BW4DJEZ","A2MUCL20GTQJA0","3ECKRY5B1QIH1N6NFX1ECCW5ZDKIZQ","","240.10000002384186","img/food4.png","75","241.5","2","1","3","2","1,0.5,0,1,0.5,0,0.5,0,1","0,1,0.5,0,1,0.5,1,0.5,0","3","false",""
"","html-keyboard-response","249","130949","0.0-281.0","3OLQQLKKNTBH7NXRSUD3SM6BW4DJEZ","A2MUCL20GTQJA0","3ECKRY5B1QIH1N6NFX1ECCW5ZDKIZQ","","null","<img src=""img/food4.png"" style=""width:200px; border:14px solid green;"">","null","","","","","","","","","",""
"","image-keyboard-response","250","131231","0.0-283.0","3OLQQLKKNTBH7NXRSUD3SM6BW4DJEZ","A2MUCL20GTQJA0","3ECKRY5B1QIH1N6NFX1ECCW5ZDKIZQ","","279","img/food6.png","75","280.90000009536743","2","1","1","2","1,0.5,0,1,0.5,0,0.5,0,1","0,1,0.5,0,1,0.5,1,0.5,0","3","false",""
"","html-keyboard-response","251","131533","0.0-284.0","3OLQQLKKNTBH7NXRSUD3SM6BW4DJEZ","A2MUCL20GTQJA0","3ECKRY5B1QIH1N6NFX1ECCW5ZDKIZQ","","null","<img src=""img/food6.png"" style=""width:200px; border:14px solid green;"">","null","","","","","","","","","",""
"","image-keyboard-response","252","131887","0.0-286.0","3OLQQLKKNTBH7NXRSUD3SM6BW4DJEZ","A2MUCL20GTQJA0","3ECKRY5B1QIH1N6NFX1ECCW5ZDKIZQ","","350.40000009536743","img/food6.png","75","352.60000002384186","2","1","1","2","1,0.5,0,1,0.5,0,0.5,0,1","0,1,0.5,0,1,0.5,1,0.5,0","3","false",""
"","html-keyboard-response","253","132191","0.0-287.0","3OLQQLKKNTBH7NXRSUD3SM6BW4DJEZ","A2MUCL20GTQJA0","3ECKRY5B1QIH1N6NFX1ECCW5ZDKIZQ","","null","<img src=""img/food6.png"" style=""width:200px; border:14px solid green;"">","null","","","","","","","","","",""
"","image-keyboard-response","254","132631","0.0-289.0","3OLQQLKKNTBH7NXRSUD3SM6BW4DJEZ","A2MUCL20GTQJA0","3ECKRY5B1QIH1N6NFX1ECCW5ZDKIZQ","","437.2000000476837","img/food5.png","76","438.60000002384186","3","1","2","2","1,0.5,0,1,0.5,0,0.5,0,1","0,1,0.5,0,1,0.5,1,0.5,0","3","false",""
"","html-keyboard-response","255","132933","0.0-290.0","3OLQQLKKNTBH7NXRSUD3SM6BW4DJEZ","A2MUCL20GTQJA0","3ECKRY5B1QIH1N6NFX1ECCW5ZDKIZQ","","null","<img src=""img/food5.png"" style=""width:200px; border:14px solid green;"">","null","","","","","","","","","",""
"","image-keyboard-response","256","133567","0.0-292.0","3OLQQLKKNTBH7NXRSUD3SM6BW4DJEZ","A2MUCL20GTQJA0","3ECKRY5B1QIH1N6NFX1ECCW5ZDKIZQ","","631","img/food4.png","75","633","2","1","3","2","1,0.5,0,1,0.5,0,0.5,0,1","0,1,0.5,0,1,0.5,1,0.5,0","3","false",""
"","html-keyboard-response","257","133870","0.0-293.0","3OLQQLKKNTBH7NXRSUD3SM6BW4DJEZ","A2MUCL20GTQJA0","3ECKRY5B1QIH1N6NFX1ECCW5ZDKIZQ","","null","<img src=""img/food4.png"" style=""width:200px; border:14px solid green;"">","null","","","","","","","","","",""
"","image-keyboard-response","258","134351","0.0-295.0","3OLQQLKKNTBH7NXRSUD3SM6BW4DJEZ","A2MUCL20GTQJA0","3ECKRY5B1QIH1N6NFX1ECCW5ZDKIZQ","","478.8000000715256","img/food6.png","75","480.2999999523163","2","1","1","2","1,0.5,0,1,0.5,0,0.5,0,1","0,1,0.5,0,1,0.5,1,0.5,0","3","false",""
"","html-keyboard-response","259","134653","0.0-296.0","3OLQQLKKNTBH7NXRSUD3SM6BW4DJEZ","A2MUCL20GTQJA0","3ECKRY5B1QIH1N6NFX1ECCW5ZDKIZQ","","null","<img src=""img/food6.png"" style=""width:200px; border:14px solid green;"">","null","","","","","","","","","",""
"","image-keyboard-response","260","134879","0.0-298.0","3OLQQLKKNTBH7NXRSUD3SM6BW4DJEZ","A2MUCL20GTQJA0","3ECKRY5B1QIH1N6NFX1ECCW5ZDKIZQ","","222.90000009536743","img/food5.png","75","224.79999995231628","2","1","2","2","1,0.5,0,1,0.5,0,0.5,0,1","0,1,0.5,0,1,0.5,1,0.5,0","3","false",""
"","html-keyboard-response","261","135181","0.0-299.0","3OLQQLKKNTBH7NXRSUD3SM6BW4DJEZ","A2MUCL20GTQJA0","3ECKRY5B1QIH1N6NFX1ECCW5ZDKIZQ","","null","<img src=""img/food5.png"" style=""width:200px; border:14px solid green;"">","null","","","","","","","","","",""
"","image-keyboard-response","262","135495","0.0-301.0","3OLQQLKKNTBH7NXRSUD3SM6BW4DJEZ","A2MUCL20GTQJA0","3ECKRY5B1QIH1N6NFX1ECCW5ZDKIZQ","","310.2000000476837","img/food5.png","76","312.2000000476837","3","0","2","2","1,0.5,0,1,0.5,0,0.5,0,1","0,1,0.5,0,1,0.5,1,0.5,0","3","false",""
"","html-keyboard-response","263","135804","0.0-302.0","3OLQQLKKNTBH7NXRSUD3SM6BW4DJEZ","A2MUCL20GTQJA0","3ECKRY5B1QIH1N6NFX1ECCW5ZDKIZQ","","null","<img src=""img/food5.png"" style=""width:200px;border:14px solid red;"">","null","","","","","","","","","",""
"","image-keyboard-response","264","136102","0.0-304.0","3OLQQLKKNTBH7NXRSUD3SM6BW4DJEZ","A2MUCL20GTQJA0","3ECKRY5B1QIH1N6NFX1ECCW5ZDKIZQ","","296.10000002384186","img/food6.png","75","297.6999999284744","2","1","1","2","1,0.5,0,1,0.5,0,0.5,0,1","0,1,0.5,0,1,0.5,1,0.5,0","3","false",""
"","html-keyboard-response","265","136405","0.0-305.0","3OLQQLKKNTBH7NXRSUD3SM6BW4DJEZ","A2MUCL20GTQJA0","3ECKRY5B1QIH1N6NFX1ECCW5ZDKIZQ","","null","<img src=""img/food6.png"" style=""width:200px; border:14px solid green;"">","null","","","","","","","","","",""
"","image-keyboard-response","266","136878","0.0-307.0","3OLQQLKKNTBH7NXRSUD3SM6BW4DJEZ","A2MUCL20GTQJA0","3ECKRY5B1QIH1N6NFX1ECCW5ZDKIZQ","","470.5","img/food4.png","75","472.2999999523163","2","1","3","2","1,0.5,0,1,0.5,0,0.5,0,1","0,1,0.5,0,1,0.5,1,0.5,0","3","false",""
"","html-keyboard-response","267","137180","0.0-308.0","3OLQQLKKNTBH7NXRSUD3SM6BW4DJEZ","A2MUCL20GTQJA0","3ECKRY5B1QIH1N6NFX1ECCW5ZDKIZQ","","null","<img src=""img/food4.png"" style=""width:200px; border:14px solid green;"">","null","","","","","","","","","",""
"","image-keyboard-response","268","137479","0.0-310.0","3OLQQLKKNTBH7NXRSUD3SM6BW4DJEZ","A2MUCL20GTQJA0","3ECKRY5B1QIH1N6NFX1ECCW5ZDKIZQ","","296.2000000476837","img/food4.png","75","298.39999997615814","2","1","3","2","1,0.5,0,1,0.5,0,0.5,0,1","0,1,0.5,0,1,0.5,1,0.5,0","3","false",""
"","html-keyboard-response","269","137782","0.0-311.0","3OLQQLKKNTBH7NXRSUD3SM6BW4DJEZ","A2MUCL20GTQJA0","3ECKRY5B1QIH1N6NFX1ECCW5ZDKIZQ","","null","<img src=""img/food4.png"" style=""width:200px; border:14px solid green;"">","null","","","","","","","","","",""
"","image-keyboard-response","270","138245","0.0-313.0","3OLQQLKKNTBH7NXRSUD3SM6BW4DJEZ","A2MUCL20GTQJA0","3ECKRY5B1QIH1N6NFX1ECCW5ZDKIZQ","","461.39999997615814","img/food6.png","74","462.8000000715256","1","0","1","2","1,0.5,0,1,0.5,0,0.5,0,1","0,1,0.5,0,1,0.5,1,0.5,0","3","false",""
"","html-keyboard-response","271","138547","0.0-314.0","3OLQQLKKNTBH7NXRSUD3SM6BW4DJEZ","A2MUCL20GTQJA0","3ECKRY5B1QIH1N6NFX1ECCW5ZDKIZQ","","null","<img src=""img/food6.png"" style=""width:200px;border:14px solid red;"">","null","","","","","","","","","",""
"","image-keyboard-response","272","139015","0.0-316.0","3OLQQLKKNTBH7NXRSUD3SM6BW4DJEZ","A2MUCL20GTQJA0","3ECKRY5B1QIH1N6NFX1ECCW5ZDKIZQ","","465.7000000476837","img/food4.png","75","467.3000000715256","2","0","3","2","1,0.5,0,1,0.5,0,0.5,0,1","0,1,0.5,0,1,0.5,1,0.5,0","3","false",""
"","html-keyboard-response","273","139318","0.0-317.0","3OLQQLKKNTBH7NXRSUD3SM6BW4DJEZ","A2MUCL20GTQJA0","3ECKRY5B1QIH1N6NFX1ECCW5ZDKIZQ","","null","<img src=""img/food4.png"" style=""width:200px;border:14px solid red;"">","null","","","","","","","","","",""
"","image-keyboard-response","274","139582","0.0-319.0","3OLQQLKKNTBH7NXRSUD3SM6BW4DJEZ","A2MUCL20GTQJA0","3ECKRY5B1QIH1N6NFX1ECCW5ZDKIZQ","","262.1999999284744","img/food6.png","76","263.5","3","1","1","2","1,0.5,0,1,0.5,0,0.5,0,1","0,1,0.5,0,1,0.5,1,0.5,0","3","false",""
"","html-keyboard-response","275","139884","0.0-320.0","3OLQQLKKNTBH7NXRSUD3SM6BW4DJEZ","A2MUCL20GTQJA0","3ECKRY5B1QIH1N6NFX1ECCW5ZDKIZQ","","null","<img src=""img/food6.png"" style=""width:200px; border:14px solid green;"">","null","","","","","","","","","",""
"","image-keyboard-response","276","140166","0.0-322.0","3OLQQLKKNTBH7NXRSUD3SM6BW4DJEZ","A2MUCL20GTQJA0","3ECKRY5B1QIH1N6NFX1ECCW5ZDKIZQ","","279.39999997615814","img/food4.png","75","280.6999999284744","2","0","3","2","1,0.5,0,1,0.5,0,0.5,0,1","0,1,0.5,0,1,0.5,1,0.5,0","3","false",""
"","html-keyboard-response","277","140469","0.0-323.0","3OLQQLKKNTBH7NXRSUD3SM6BW4DJEZ","A2MUCL20GTQJA0","3ECKRY5B1QIH1N6NFX1ECCW5ZDKIZQ","","null","<img src=""img/food4.png"" style=""width:200px;border:14px solid red;"">","null","","","","","","","","","",""
"","image-keyboard-response","278","140911","0.0-325.0","3OLQQLKKNTBH7NXRSUD3SM6BW4DJEZ","A2MUCL20GTQJA0","3ECKRY5B1QIH1N6NFX1ECCW5ZDKIZQ","","439.60000002384186","img/food6.png","75","441.2000000476837","2","1","1","2","1,0.5,0,1,0.5,0,0.5,0,1","0,1,0.5,0,1,0.5,1,0.5,0","3","false",""
"","html-keyboard-response","279","141214","0.0-326.0","3OLQQLKKNTBH7NXRSUD3SM6BW4DJEZ","A2MUCL20GTQJA0","3ECKRY5B1QIH1N6NFX1ECCW5ZDKIZQ","","null","<img src=""img/food6.png"" style=""width:200px; border:14px solid green;"">","null","","","","","","","","","",""
"","image-keyboard-response","280","141718","0.0-328.0","3OLQQLKKNTBH7NXRSUD3SM6BW4DJEZ","A2MUCL20GTQJA0","3ECKRY5B1QIH1N6NFX1ECCW5ZDKIZQ","","502.10000002384186","img/food5.png","76","504","3","1","2","2","1,0.5,0,1,0.5,0,0.5,0,1","0,1,0.5,0,1,0.5,1,0.5,0","3","false",""
"","html-keyboard-response","281","142022","0.0-329.0","3OLQQLKKNTBH7NXRSUD3SM6BW4DJEZ","A2MUCL20GTQJA0","3ECKRY5B1QIH1N6NFX1ECCW5ZDKIZQ","","null","<img src=""img/food5.png"" style=""width:200px; border:14px solid green;"">","null","","","","","","","","","",""
"","image-keyboard-response","282","142271","0.0-331.0","3OLQQLKKNTBH7NXRSUD3SM6BW4DJEZ","A2MUCL20GTQJA0","3ECKRY5B1QIH1N6NFX1ECCW5ZDKIZQ","","248.30000007152557","img/food6.png","75","249.5","2","1","1","2","1,0.5,0,1,0.5,0,0.5,0,1","0,1,0.5,0,1,0.5,1,0.5,0","3","false",""
"","html-keyboard-response","283","142574","0.0-332.0","3OLQQLKKNTBH7NXRSUD3SM6BW4DJEZ","A2MUCL20GTQJA0","3ECKRY5B1QIH1N6NFX1ECCW5ZDKIZQ","","null","<img src=""img/food6.png"" style=""width:200px; border:14px solid green;"">","null","","","","","","","","","",""
"","image-keyboard-response","284","142942","0.0-334.0","3OLQQLKKNTBH7NXRSUD3SM6BW4DJEZ","A2MUCL20GTQJA0","3ECKRY5B1QIH1N6NFX1ECCW5ZDKIZQ","","366.2999999523163","img/food4.png","75","367.39999997615814","2","1","3","2","1,0.5,0,1,0.5,0,0.5,0,1","0,1,0.5,0,1,0.5,1,0.5,0","3","false",""
"","html-keyboard-response","285","143243","0.0-335.0","3OLQQLKKNTBH7NXRSUD3SM6BW4DJEZ","A2MUCL20GTQJA0","3ECKRY5B1QIH1N6NFX1ECCW5ZDKIZQ","","null","<img src=""img/food4.png"" style=""width:200px; border:14px solid green;"">","null","","","","","","","","","",""
"","image-keyboard-response","286","143558","0.0-337.0","3OLQQLKKNTBH7NXRSUD3SM6BW4DJEZ","A2MUCL20GTQJA0","3ECKRY5B1QIH1N6NFX1ECCW5ZDKIZQ","","312.89999997615814","img/food4.png","75","314.10000002384186","2","0","3","2","1,0.5,0,1,0.5,0,0.5,0,1","0,1,0.5,0,1,0.5,1,0.5,0","3","false",""
"","html-keyboard-response","287","143860","0.0-338.0","3OLQQLKKNTBH7NXRSUD3SM6BW4DJEZ","A2MUCL20GTQJA0","3ECKRY5B1QIH1N6NFX1ECCW5ZDKIZQ","","null","<img src=""img/food4.png"" style=""width:200px;border:14px solid red;"">","null","","","","","","","","","",""
"","image-keyboard-response","288","144421","0.0-340.0","3OLQQLKKNTBH7NXRSUD3SM6BW4DJEZ","A2MUCL20GTQJA0","3ECKRY5B1QIH1N6NFX1ECCW5ZDKIZQ","","560.2999999523163","img/food5.png","76","562.2000000476837","3","0","2","2","1,0.5,0,1,0.5,0,0.5,0,1","0,1,0.5,0,1,0.5,1,0.5,0","3","false",""
"","html-keyboard-response","289","144724","0.0-341.0","3OLQQLKKNTBH7NXRSUD3SM6BW4DJEZ","A2MUCL20GTQJA0","3ECKRY5B1QIH1N6NFX1ECCW5ZDKIZQ","","null","<img src=""img/food5.png"" style=""width:200px;border:14px solid red;"">","null","","","","","","","","","",""
"","image-keyboard-response","290","145102","0.0-343.0","3OLQQLKKNTBH7NXRSUD3SM6BW4DJEZ","A2MUCL20GTQJA0","3ECKRY5B1QIH1N6NFX1ECCW5ZDKIZQ","","375.89999997615814","img/food6.png","75","377.89999997615814","2","1","1","2","1,0.5,0,1,0.5,0,0.5,0,1","0,1,0.5,0,1,0.5,1,0.5,0","3","false",""
"","html-keyboard-response","291","145406","0.0-344.0","3OLQQLKKNTBH7NXRSUD3SM6BW4DJEZ","A2MUCL20GTQJA0","3ECKRY5B1QIH1N6NFX1ECCW5ZDKIZQ","","null","<img src=""img/food6.png"" style=""width:200px; border:14px solid green;"">","null","","","","","","","","","",""
"","image-keyboard-response","292","145686","0.0-346.0","3OLQQLKKNTBH7NXRSUD3SM6BW4DJEZ","A2MUCL20GTQJA0","3ECKRY5B1QIH1N6NFX1ECCW5ZDKIZQ","","277.39999997615814","img/food4.png","75","279.10000002384186","2","1","3","2","1,0.5,0,1,0.5,0,0.5,0,1","0,1,0.5,0,1,0.5,1,0.5,0","3","false",""
"","html-keyboard-response","293","145987","0.0-347.0","3OLQQLKKNTBH7NXRSUD3SM6BW4DJEZ","A2MUCL20GTQJA0","3ECKRY5B1QIH1N6NFX1ECCW5ZDKIZQ","","null","<img src=""img/food4.png"" style=""width:200px; border:14px solid green;"">","null","","","","","","","","","",""
"","image-keyboard-response","294","146383","0.0-349.0","3OLQQLKKNTBH7NXRSUD3SM6BW4DJEZ","A2MUCL20GTQJA0","3ECKRY5B1QIH1N6NFX1ECCW5ZDKIZQ","","393.7999999523163","img/food5.png","75","395.3000000715256","2","1","2","2","1,0.5,0,1,0.5,0,0.5,0,1","0,1,0.5,0,1,0.5,1,0.5,0","3","false",""
"","html-keyboard-response","295","146686","0.0-350.0","3OLQQLKKNTBH7NXRSUD3SM6BW4DJEZ","A2MUCL20GTQJA0","3ECKRY5B1QIH1N6NFX1ECCW5ZDKIZQ","","null","<img src=""img/food5.png"" style=""width:200px; border:14px solid green;"">","null","","","","","","","","","",""
"","image-keyboard-response","296","147159","0.0-352.0","3OLQQLKKNTBH7NXRSUD3SM6BW4DJEZ","A2MUCL20GTQJA0","3ECKRY5B1QIH1N6NFX1ECCW5ZDKIZQ","","470","img/food5.png","75","472","2","1","2","2","1,0.5,0,1,0.5,0,0.5,0,1","0,1,0.5,0,1,0.5,1,0.5,0","3","false",""
"","html-keyboard-response","297","147462","0.0-353.0","3OLQQLKKNTBH7NXRSUD3SM6BW4DJEZ","A2MUCL20GTQJA0","3ECKRY5B1QIH1N6NFX1ECCW5ZDKIZQ","","null","<img src=""img/food5.png"" style=""width:200px; border:14px solid green;"">","null","","","","","","","","","",""
"","image-keyboard-response","298","147934","0.0-355.0","3OLQQLKKNTBH7NXRSUD3SM6BW4DJEZ","A2MUCL20GTQJA0","3ECKRY5B1QIH1N6NFX1ECCW5ZDKIZQ","","469.59999990463257","img/food4.png","76","471.39999997615814","3","0","3","2","1,0.5,0,1,0.5,0,0.5,0,1","0,1,0.5,0,1,0.5,1,0.5,0","3","false",""
"","html-keyboard-response","299","148236","0.0-356.0","3OLQQLKKNTBH7NXRSUD3SM6BW4DJEZ","A2MUCL20GTQJA0","3ECKRY5B1QIH1N6NFX1ECCW5ZDKIZQ","","null","<img src=""img/food4.png"" style=""width:200px;border:14px solid red;"">","null","","","","","","","","","",""
"","image-keyboard-response","300","148526","0.0-358.0","3OLQQLKKNTBH7NXRSUD3SM6BW4DJEZ","A2MUCL20GTQJA0","3ECKRY5B1QIH1N6NFX1ECCW5ZDKIZQ","","288.60000002384186","img/food6.png","75","289.89999997615814","2","1","1","2","1,0.5,0,1,0.5,0,0.5,0,1","0,1,0.5,0,1,0.5,1,0.5,0","3","false",""
"","html-keyboard-response","301","148830","0.0-359.0","3OLQQLKKNTBH7NXRSUD3SM6BW4DJEZ","A2MUCL20GTQJA0","3ECKRY5B1QIH1N6NFX1ECCW5ZDKIZQ","","null","<img src=""img/food6.png"" style=""width:200px; border:14px solid green;"">","null","","","","","","","","","",""
"","image-keyboard-response","302","149127","0.0-361.0","3OLQQLKKNTBH7NXRSUD3SM6BW4DJEZ","A2MUCL20GTQJA0","3ECKRY5B1QIH1N6NFX1ECCW5ZDKIZQ","","294","img/food6.png","75","295.7999999523163","2","1","1","2","1,0.5,0,1,0.5,0,0.5,0,1","0,1,0.5,0,1,0.5,1,0.5,0","3","false",""
"","html-keyboard-response","303","149430","0.0-362.0","3OLQQLKKNTBH7NXRSUD3SM6BW4DJEZ","A2MUCL20GTQJA0","3ECKRY5B1QIH1N6NFX1ECCW5ZDKIZQ","","null","<img src=""img/food6.png"" style=""width:200px; border:14px solid green;"">","null","","","","","","","","","",""
"","image-keyboard-response","304","149870","0.0-364.0","3OLQQLKKNTBH7NXRSUD3SM6BW4DJEZ","A2MUCL20GTQJA0","3ECKRY5B1QIH1N6NFX1ECCW5ZDKIZQ","","438.2999999523163","img/food5.png","75","439.60000002384186","2","1","2","2","1,0.5,0,1,0.5,0,0.5,0,1","0,1,0.5,0,1,0.5,1,0.5,0","3","false",""
"","html-keyboard-response","305","150173","0.0-365.0","3OLQQLKKNTBH7NXRSUD3SM6BW4DJEZ","A2MUCL20GTQJA0","3ECKRY5B1QIH1N6NFX1ECCW5ZDKIZQ","","null","<img src=""img/food5.png"" style=""width:200px; border:14px solid green;"">","null","","","","","","","","","",""
"","image-keyboard-response","306","150486","0.0-367.0","3OLQQLKKNTBH7NXRSUD3SM6BW4DJEZ","A2MUCL20GTQJA0","3ECKRY5B1QIH1N6NFX1ECCW5ZDKIZQ","","311.39999997615814","img/food5.png","75","313.39999997615814","2","1","2","2","1,0.5,0,1,0.5,0,0.5,0,1","0,1,0.5,0,1,0.5,1,0.5,0","3","false",""
"","html-keyboard-response","307","150789","0.0-368.0","3OLQQLKKNTBH7NXRSUD3SM6BW4DJEZ","A2MUCL20GTQJA0","3ECKRY5B1QIH1N6NFX1ECCW5ZDKIZQ","","null","<img src=""img/food5.png"" style=""width:200px; border:14px solid green;"">","null","","","","","","","","","",""
"","image-keyboard-response","308","151246","0.0-370.0","3OLQQLKKNTBH7NXRSUD3SM6BW4DJEZ","A2MUCL20GTQJA0","3ECKRY5B1QIH1N6NFX1ECCW5ZDKIZQ","","454.5","img/food6.png","76","456.5","3","1","1","2","1,0.5,0,1,0.5,0,0.5,0,1","0,1,0.5,0,1,0.5,1,0.5,0","3","false",""
"","html-keyboard-response","309","151550","0.0-371.0","3OLQQLKKNTBH7NXRSUD3SM6BW4DJEZ","A2MUCL20GTQJA0","3ECKRY5B1QIH1N6NFX1ECCW5ZDKIZQ","","null","<img src=""img/food6.png"" style=""width:200px; border:14px solid green;"">","null","","","","","","","","","",""
"","image-keyboard-response","310","151893","0.0-373.0","3OLQQLKKNTBH7NXRSUD3SM6BW4DJEZ","A2MUCL20GTQJA0","3ECKRY5B1QIH1N6NFX1ECCW5ZDKIZQ","","340.8000000715256","img/food5.png","75","342.39999997615814","2","1","2","2","1,0.5,0,1,0.5,0,0.5,0,1","0,1,0.5,0,1,0.5,1,0.5,0","3","false",""
"","html-keyboard-response","311","152196","0.0-374.0","3OLQQLKKNTBH7NXRSUD3SM6BW4DJEZ","A2MUCL20GTQJA0","3ECKRY5B1QIH1N6NFX1ECCW5ZDKIZQ","","null","<img src=""img/food5.png"" style=""width:200px; border:14px solid green;"">","null","","","","","","","","","",""
"","image-keyboard-response","312","152509","0.0-376.0","3OLQQLKKNTBH7NXRSUD3SM6BW4DJEZ","A2MUCL20GTQJA0","3ECKRY5B1QIH1N6NFX1ECCW5ZDKIZQ","","312","img/food5.png","75","313.10000002384186","2","1","2","2","1,0.5,0,1,0.5,0,0.5,0,1","0,1,0.5,0,1,0.5,1,0.5,0","3","false",""
"","html-keyboard-response","313","152812","0.0-377.0","3OLQQLKKNTBH7NXRSUD3SM6BW4DJEZ","A2MUCL20GTQJA0","3ECKRY5B1QIH1N6NFX1ECCW5ZDKIZQ","","null","<img src=""img/food5.png"" style=""width:200px; border:14px solid green;"">","null","","","","","","","","","",""
"","image-keyboard-response","314","153254","0.0-379.0","3OLQQLKKNTBH7NXRSUD3SM6BW4DJEZ","A2MUCL20GTQJA0","3ECKRY5B1QIH1N6NFX1ECCW5ZDKIZQ","","440","img/food6.png","75","441.89999997615814","2","1","1","2","1,0.5,0,1,0.5,0,0.5,0,1","0,1,0.5,0,1,0.5,1,0.5,0","3","false",""
"","html-keyboard-response","315","153558","0.0-380.0","3OLQQLKKNTBH7NXRSUD3SM6BW4DJEZ","A2MUCL20GTQJA0","3ECKRY5B1QIH1N6NFX1ECCW5ZDKIZQ","","null","<img src=""img/food6.png"" style=""width:200px; border:14px solid green;"">","null","","","","","","","","","",""
"","image-keyboard-response","316","153782","0.0-382.0","3OLQQLKKNTBH7NXRSUD3SM6BW4DJEZ","A2MUCL20GTQJA0","3ECKRY5B1QIH1N6NFX1ECCW5ZDKIZQ","","222.30000007152557","img/food6.png","75","224.19999992847443","2","1","1","2","1,0.5,0,1,0.5,0,0.5,0,1","0,1,0.5,0,1,0.5,1,0.5,0","3","false",""
"","html-keyboard-response","317","154086","0.0-383.0","3OLQQLKKNTBH7NXRSUD3SM6BW4DJEZ","A2MUCL20GTQJA0","3ECKRY5B1QIH1N6NFX1ECCW5ZDKIZQ","","null","<img src=""img/food6.png"" style=""width:200px; border:14px solid green;"">","null","","","","","","","","","",""
"","image-keyboard-response","318","154302","0.0-385.0","3OLQQLKKNTBH7NXRSUD3SM6BW4DJEZ","A2MUCL20GTQJA0","3ECKRY5B1QIH1N6NFX1ECCW5ZDKIZQ","","212.79999995231628","img/food5.png","75","214.5","2","1","2","2","1,0.5,0,1,0.5,0,0.5,0,1","0,1,0.5,0,1,0.5,1,0.5,0","3","false",""
"","html-keyboard-response","319","154604","0.0-386.0","3OLQQLKKNTBH7NXRSUD3SM6BW4DJEZ","A2MUCL20GTQJA0","3ECKRY5B1QIH1N6NFX1ECCW5ZDKIZQ","","null","<img src=""img/food5.png"" style=""width:200px; border:14px solid green;"">","null","","","","","","","","","",""
"","image-keyboard-response","320","154974","0.0-388.0","3OLQQLKKNTBH7NXRSUD3SM6BW4DJEZ","A2MUCL20GTQJA0","3ECKRY5B1QIH1N6NFX1ECCW5ZDKIZQ","","368.7000000476837","img/food5.png","75","370.10000002384186","2","1","2","2","1,0.5,0,1,0.5,0,0.5,0,1","0,1,0.5,0,1,0.5,1,0.5,0","3","false",""
"","html-keyboard-response","321","155277","0.0-389.0","3OLQQLKKNTBH7NXRSUD3SM6BW4DJEZ","A2MUCL20GTQJA0","3ECKRY5B1QIH1N6NFX1ECCW5ZDKIZQ","","null","<img src=""img/food5.png"" style=""width:200px; border:14px solid green;"">","null","","","","","","","","","",""
"","image-keyboard-response","322","155518","0.0-391.0","3OLQQLKKNTBH7NXRSUD3SM6BW4DJEZ","A2MUCL20GTQJA0","3ECKRY5B1QIH1N6NFX1ECCW5ZDKIZQ","","238.69999992847443","img/food6.png","74","240.70000004768372","1","0","1","2","1,0.5,0,1,0.5,0,0.5,0,1","0,1,0.5,0,1,0.5,1,0.5,0","3","false",""
"","html-keyboard-response","323","155822","0.0-392.0","3OLQQLKKNTBH7NXRSUD3SM6BW4DJEZ","A2MUCL20GTQJA0","3ECKRY5B1QIH1N6NFX1ECCW5ZDKIZQ","","null","<img src=""img/food6.png"" style=""width:200px;border:14px solid red;"">","null","","","","","","","","","",""
"","image-keyboard-response","324","156246","0.0-394.0","3OLQQLKKNTBH7NXRSUD3SM6BW4DJEZ","A2MUCL20GTQJA0","3ECKRY5B1QIH1N6NFX1ECCW5ZDKIZQ","","421.2000000476837","img/food4.png","75","423","2","0","3","2","1,0.5,0,1,0.5,0,0.5,0,1","0,1,0.5,0,1,0.5,1,0.5,0","3","false",""
"","html-keyboard-response","325","156549","0.0-395.0","3OLQQLKKNTBH7NXRSUD3SM6BW4DJEZ","A2MUCL20GTQJA0","3ECKRY5B1QIH1N6NFX1ECCW5ZDKIZQ","","null","<img src=""img/food4.png"" style=""width:200px;border:14px solid red;"">","null","","","","","","","","","",""
"","image-keyboard-response","326","156949","0.0-397.0","3OLQQLKKNTBH7NXRSUD3SM6BW4DJEZ","A2MUCL20GTQJA0","3ECKRY5B1QIH1N6NFX1ECCW5ZDKIZQ","","399.2000000476837","img/food4.png","75","400.2999999523163","2","0","3","2","1,0.5,0,1,0.5,0,0.5,0,1","0,1,0.5,0,1,0.5,1,0.5,0","3","false",""
"","html-keyboard-response","327","157251","0.0-398.0","3OLQQLKKNTBH7NXRSUD3SM6BW4DJEZ","A2MUCL20GTQJA0","3ECKRY5B1QIH1N6NFX1ECCW5ZDKIZQ","","null","<img src=""img/food4.png"" style=""width:200px;border:14px solid red;"">","null","","","","","","","","","",""
"","image-keyboard-response","328","157350","0.0-400.0","3OLQQLKKNTBH7NXRSUD3SM6BW4DJEZ","A2MUCL20GTQJA0","3ECKRY5B1QIH1N6NFX1ECCW5ZDKIZQ","","96.29999995231628","img/food6.png","76","98.30000007152557","3","0","1","2","1,0.5,0,1,0.5,0,0.5,0,1","0,1,0.5,0,1,0.5,1,0.5,0","3","false",""
"","html-keyboard-response","329","157653","0.0-401.0","3OLQQLKKNTBH7NXRSUD3SM6BW4DJEZ","A2MUCL20GTQJA0","3ECKRY5B1QIH1N6NFX1ECCW5ZDKIZQ","","null","<img src=""img/food6.png"" style=""width:200px;border:14px solid red;"">","null","","","","","","","","","",""
"","image-keyboard-response","330","158158","0.0-403.0","3OLQQLKKNTBH7NXRSUD3SM6BW4DJEZ","A2MUCL20GTQJA0","3ECKRY5B1QIH1N6NFX1ECCW5ZDKIZQ","","502.2999999523163","img/food6.png","76","503.89999997615814","3","0","1","2","1,0.5,0,1,0.5,0,0.5,0,1","0,1,0.5,0,1,0.5,1,0.5,0","3","false",""
"","html-keyboard-response","331","158460","0.0-404.0","3OLQQLKKNTBH7NXRSUD3SM6BW4DJEZ","A2MUCL20GTQJA0","3ECKRY5B1QIH1N6NFX1ECCW5ZDKIZQ","","null","<img src=""img/food6.png"" style=""width:200px;border:14px solid red;"">","null","","","","","","","","","",""
"","image-keyboard-response","332","158661","0.0-406.0","3OLQQLKKNTBH7NXRSUD3SM6BW4DJEZ","A2MUCL20GTQJA0","3ECKRY5B1QIH1N6NFX1ECCW5ZDKIZQ","","199.70000004768372","img/food6.png","75","201","2","1","1","2","1,0.5,0,1,0.5,0,0.5,0,1","0,1,0.5,0,1,0.5,1,0.5,0","3","false",""
"","html-keyboard-response","333","158965","0.0-407.0","3OLQQLKKNTBH7NXRSUD3SM6BW4DJEZ","A2MUCL20GTQJA0","3ECKRY5B1QIH1N6NFX1ECCW5ZDKIZQ","","null","<img src=""img/food6.png"" style=""width:200px; border:14px solid green;"">","null","","","","","","","","","",""
"","image-keyboard-response","334","159406","0.0-409.0","3OLQQLKKNTBH7NXRSUD3SM6BW4DJEZ","A2MUCL20GTQJA0","3ECKRY5B1QIH1N6NFX1ECCW5ZDKIZQ","","440.10000002384186","img/food4.png","75","441.40000009536743","2","1","3","2","1,0.5,0,1,0.5,0,0.5,0,1","0,1,0.5,0,1,0.5,1,0.5,0","3","false",""
"","html-keyboard-response","335","159709","0.0-410.0","3OLQQLKKNTBH7NXRSUD3SM6BW4DJEZ","A2MUCL20GTQJA0","3ECKRY5B1QIH1N6NFX1ECCW5ZDKIZQ","","null","<img src=""img/food4.png"" style=""width:200px; border:14px solid green;"">","null","","","","","","","","","",""
"","image-keyboard-response","336","160149","0.0-412.0","3OLQQLKKNTBH7NXRSUD3SM6BW4DJEZ","A2MUCL20GTQJA0","3ECKRY5B1QIH1N6NFX1ECCW5ZDKIZQ","","437.8000000715256","img/food5.png","75","439.5","2","1","2","2","1,0.5,0,1,0.5,0,0.5,0,1","0,1,0.5,0,1,0.5,1,0.5,0","3","false",""
"","html-keyboard-response","337","160452","0.0-413.0","3OLQQLKKNTBH7NXRSUD3SM6BW4DJEZ","A2MUCL20GTQJA0","3ECKRY5B1QIH1N6NFX1ECCW5ZDKIZQ","","null","<img src=""img/food5.png"" style=""width:200px; border:14px solid green;"">","null","","","","","","","","","",""
"","image-keyboard-response","338","160894","0.0-415.0","3OLQQLKKNTBH7NXRSUD3SM6BW4DJEZ","A2MUCL20GTQJA0","3ECKRY5B1QIH1N6NFX1ECCW5ZDKIZQ","","441","img/food4.png","75","442.5","2","0","3","2","1,0.5,0,1,0.5,0,0.5,0,1","0,1,0.5,0,1,0.5,1,0.5,0","3","false",""
"","html-keyboard-response","339","161197","0.0-416.0","3OLQQLKKNTBH7NXRSUD3SM6BW4DJEZ","A2MUCL20GTQJA0","3ECKRY5B1QIH1N6NFX1ECCW5ZDKIZQ","","null","<img src=""img/food4.png"" style=""width:200px;border:14px solid red;"">","null","","","","","","","","","",""
"","image-keyboard-response","340","161431","0.0-418.0","3OLQQLKKNTBH7NXRSUD3SM6BW4DJEZ","A2MUCL20GTQJA0","3ECKRY5B1QIH1N6NFX1ECCW5ZDKIZQ","","230.60000002384186","img/food5.png","76","232.70000004768372","3","0","2","2","1,0.5,0,1,0.5,0,0.5,0,1","0,1,0.5,0,1,0.5,1,0.5,0","3","false",""
"","html-keyboard-response","341","161734","0.0-419.0","3OLQQLKKNTBH7NXRSUD3SM6BW4DJEZ","A2MUCL20GTQJA0","3ECKRY5B1QIH1N6NFX1ECCW5ZDKIZQ","","null","<img src=""img/food5.png"" style=""width:200px;border:14px solid red;"">","null","","","","","","","","","",""
"","image-keyboard-response","342","161982","0.0-421.0","3OLQQLKKNTBH7NXRSUD3SM6BW4DJEZ","A2MUCL20GTQJA0","3ECKRY5B1QIH1N6NFX1ECCW5ZDKIZQ","","245.60000002384186","img/food5.png","76","247.60000002384186","3","1","2","2","1,0.5,0,1,0.5,0,0.5,0,1","0,1,0.5,0,1,0.5,1,0.5,0","3","false",""
"","html-keyboard-response","343","162286","0.0-422.0","3OLQQLKKNTBH7NXRSUD3SM6BW4DJEZ","A2MUCL20GTQJA0","3ECKRY5B1QIH1N6NFX1ECCW5ZDKIZQ","","null","<img src=""img/food5.png"" style=""width:200px; border:14px solid green;"">","null","","","","","","","","","",""
"","image-keyboard-response","344","162645","0.0-424.0","3OLQQLKKNTBH7NXRSUD3SM6BW4DJEZ","A2MUCL20GTQJA0","3ECKRY5B1QIH1N6NFX1ECCW5ZDKIZQ","","358","img/food4.png","75","359.10000002384186","2","0","3","2","1,0.5,0,1,0.5,0,0.5,0,1","0,1,0.5,0,1,0.5,1,0.5,0","3","false",""
"","html-keyboard-response","345","162947","0.0-425.0","3OLQQLKKNTBH7NXRSUD3SM6BW4DJEZ","A2MUCL20GTQJA0","3ECKRY5B1QIH1N6NFX1ECCW5ZDKIZQ","","null","<img src=""img/food4.png"" style=""width:200px;border:14px solid red;"">","null","","","","","","","","","",""
"","image-keyboard-response","346","163221","0.0-427.0","3OLQQLKKNTBH7NXRSUD3SM6BW4DJEZ","A2MUCL20GTQJA0","3ECKRY5B1QIH1N6NFX1ECCW5ZDKIZQ","","271","img/food4.png","75","273","2","0","3","2","1,0.5,0,1,0.5,0,0.5,0,1","0,1,0.5,0,1,0.5,1,0.5,0","3","false",""
"","html-keyboard-response","347","163523","0.0-428.0","3OLQQLKKNTBH7NXRSUD3SM6BW4DJEZ","A2MUCL20GTQJA0","3ECKRY5B1QIH1N6NFX1ECCW5ZDKIZQ","","null","<img src=""img/food4.png"" style=""width:200px;border:14px solid red;"">","null","","","","","","","","","",""
"","image-keyboard-response","348","163766","0.0-430.0","3OLQQLKKNTBH7NXRSUD3SM6BW4DJEZ","A2MUCL20GTQJA0","3ECKRY5B1QIH1N6NFX1ECCW5ZDKIZQ","","240.5","img/food6.png","75","242.5","2","1","1","2","1,0.5,0,1,0.5,0,0.5,0,1","0,1,0.5,0,1,0.5,1,0.5,0","3","false",""
"","html-keyboard-response","349","164072","0.0-431.0","3OLQQLKKNTBH7NXRSUD3SM6BW4DJEZ","A2MUCL20GTQJA0","3ECKRY5B1QIH1N6NFX1ECCW5ZDKIZQ","","null","<img src=""img/food6.png"" style=""width:200px; border:14px solid green;"">","null","","","","","","","","","",""
"","image-keyboard-response","350","164598","0.0-433.0","3OLQQLKKNTBH7NXRSUD3SM6BW4DJEZ","A2MUCL20GTQJA0","3ECKRY5B1QIH1N6NFX1ECCW5ZDKIZQ","","524.1999999284744","img/food6.png","75","525.8000000715256","2","1","1","2","1,0.5,0,1,0.5,0,0.5,0,1","0,1,0.5,0,1,0.5,1,0.5,0","3","false",""
"","html-keyboard-response","351","164901","0.0-434.0","3OLQQLKKNTBH7NXRSUD3SM6BW4DJEZ","A2MUCL20GTQJA0","3ECKRY5B1QIH1N6NFX1ECCW5ZDKIZQ","","null","<img src=""img/food6.png"" style=""width:200px; border:14px solid green;"">","null","","","","","","","","","",""
"","image-keyboard-response","352","165502","0.0-436.0","3OLQQLKKNTBH7NXRSUD3SM6BW4DJEZ","A2MUCL20GTQJA0","3ECKRY5B1QIH1N6NFX1ECCW5ZDKIZQ","","598.2000000476837","img/food4.png","74","600.2999999523163","1","1","3","2","1,0.5,0,1,0.5,0,0.5,0,1","0,1,0.5,0,1,0.5,1,0.5,0","3","false",""
"","html-keyboard-response","353","165813","0.0-437.0","3OLQQLKKNTBH7NXRSUD3SM6BW4DJEZ","A2MUCL20GTQJA0","3ECKRY5B1QIH1N6NFX1ECCW5ZDKIZQ","","null","<img src=""img/food4.png"" style=""width:200px; border:14px solid green;"">","null","","","","","","","","","",""
"","image-keyboard-response","354","166269","0.0-439.0","3OLQQLKKNTBH7NXRSUD3SM6BW4DJEZ","A2MUCL20GTQJA0","3ECKRY5B1QIH1N6NFX1ECCW5ZDKIZQ","","454.89999997615814","img/food6.png","75","456","2","1","1","2","1,0.5,0,1,0.5,0,0.5,0,1","0,1,0.5,0,1,0.5,1,0.5,0","3","false",""
"","html-keyboard-response","355","166571","0.0-440.0","3OLQQLKKNTBH7NXRSUD3SM6BW4DJEZ","A2MUCL20GTQJA0","3ECKRY5B1QIH1N6NFX1ECCW5ZDKIZQ","","null","<img src=""img/food6.png"" style=""width:200px; border:14px solid green;"">","null","","","","","","","","","",""
"","image-keyboard-response","356","167174","0.0-442.0","3OLQQLKKNTBH7NXRSUD3SM6BW4DJEZ","A2MUCL20GTQJA0","3ECKRY5B1QIH1N6NFX1ECCW5ZDKIZQ","","599.8999999761581","img/food4.png","74","602.1000000238419","1","1","3","2","1,0.5,0,1,0.5,0,0.5,0,1","0,1,0.5,0,1,0.5,1,0.5,0","3","false",""
"","html-keyboard-response","357","167477","0.0-443.0","3OLQQLKKNTBH7NXRSUD3SM6BW4DJEZ","A2MUCL20GTQJA0","3ECKRY5B1QIH1N6NFX1ECCW5ZDKIZQ","","null","<img src=""img/food4.png"" style=""width:200px; border:14px solid green;"">","null","","","","","","","","","",""
"","image-keyboard-response","358","167853","0.0-445.0","3OLQQLKKNTBH7NXRSUD3SM6BW4DJEZ","A2MUCL20GTQJA0","3ECKRY5B1QIH1N6NFX1ECCW5ZDKIZQ","","375.39999997615814","img/food5.png","75","376.5","2","1","2","2","1,0.5,0,1,0.5,0,0.5,0,1","0,1,0.5,0,1,0.5,1,0.5,0","3","false",""
"","html-keyboard-response","359","168156","0.0-446.0","3OLQQLKKNTBH7NXRSUD3SM6BW4DJEZ","A2MUCL20GTQJA0","3ECKRY5B1QIH1N6NFX1ECCW5ZDKIZQ","","null","<img src=""img/food5.png"" style=""width:200px; border:14px solid green;"">","null","","","","","","","","","",""
"","image-keyboard-response","360","168495","0.0-448.0","3OLQQLKKNTBH7NXRSUD3SM6BW4DJEZ","A2MUCL20GTQJA0","3ECKRY5B1QIH1N6NFX1ECCW5ZDKIZQ","","336.89999997615814","img/food6.png","76","338.39999997615814","3","1","1","2","1,0.5,0,1,0.5,0,0.5,0,1","0,1,0.5,0,1,0.5,1,0.5,0","3","false",""
"","html-keyboard-response","361","168798","0.0-449.0","3OLQQLKKNTBH7NXRSUD3SM6BW4DJEZ","A2MUCL20GTQJA0","3ECKRY5B1QIH1N6NFX1ECCW5ZDKIZQ","","null","<img src=""img/food6.png"" style=""width:200px; border:14px solid green;"">","null","","","","","","","","","",""
"","image-keyboard-response","362","169158","0.0-451.0","3OLQQLKKNTBH7NXRSUD3SM6BW4DJEZ","A2MUCL20GTQJA0","3ECKRY5B1QIH1N6NFX1ECCW5ZDKIZQ","","357.8000000715256","img/food4.png","74","359.8000000715256","1","1","3","2","1,0.5,0,1,0.5,0,0.5,0,1","0,1,0.5,0,1,0.5,1,0.5,0","3","false",""
"","html-keyboard-response","363","169461","0.0-452.0","3OLQQLKKNTBH7NXRSUD3SM6BW4DJEZ","A2MUCL20GTQJA0","3ECKRY5B1QIH1N6NFX1ECCW5ZDKIZQ","","null","<img src=""img/food4.png"" style=""width:200px; border:14px solid green;"">","null","","","","","","","","","",""
"","instructions","364","173833","0.0-454.0","3OLQQLKKNTBH7NXRSUD3SM6BW4DJEZ","A2MUCL20GTQJA0","3ECKRY5B1QIH1N6NFX1ECCW5ZDKIZQ","[{""page_index"":0,""viewing_time"":4369.700000047684}]","4370","","","","","","","","","","","",""
"","survey-text","365","178388","0.0-455.0","3OLQQLKKNTBH7NXRSUD3SM6BW4DJEZ","A2MUCL20GTQJA0","3ECKRY5B1QIH1N6NFX1ECCW5ZDKIZQ","","4550.200000047684","","","","","","","","","","","","{""Q0"":""A2MUCL20GTQJA0""}"
