"success","trial_type","trial_index","time_elapsed","internal_node_id","assignmentID","mturkID","hitID","view_history","rt","stimulus","key_press","reactionTime","a","r","s","cond","reward_cond","reward_cond_actual","reward_matrix_idx","warning","responses"
"true","fullscreen","0","3350","0.0-0.0","3KYQYYSHYWTQGSAOCCUOU05CVESODK","A2N4DD7IS7EI2D","31YWE12TE0YV78PCVO9WO2QLDWO7XY","","","","","","","","","","","","","",""
"","instructions","1","42103","0.0-1.0","3KYQYYSHYWTQGSAOCCUOU05CVESODK","A2N4DD7IS7EI2D","31YWE12TE0YV78PCVO9WO2QLDWO7XY","[{""page_index"":0,""viewing_time"":2528.2999999523163},{""page_index"":1,""viewing_time"":991.3000000119209},{""page_index"":2,""viewing_time"":870.1999999880791},{""page_index"":3,""viewing_time"":11232.300000011921},{""page_index"":4,""viewing_time"":3070.5},{""page_index"":5,""viewing_time"":15074.300000011921},{""page_index"":6,""viewing_time"":4983}]","38750.5","","","","","","","","","","","",""
"","image-keyboard-response","2","42519","0.0-2.0","3KYQYYSHYWTQGSAOCCUOU05CVESODK","A2N4DD7IS7EI2D","31YWE12TE0YV78PCVO9WO2QLDWO7XY","","413.7999999523163","img/food4.png","76","415.89999997615814","3","0","3","1","1,0.5,0,1,0.5,0,0.5,0,1","0.5,0,1,0.5,0,1,0,1,0.5","2","",""
"","html-keyboard-response","3","42823","0.0-3.0","3KYQYYSHYWTQGSAOCCUOU05CVESODK","A2N4DD7IS7EI2D","31YWE12TE0YV78PCVO9WO2QLDWO7XY","","null","<img src=""img/food4.png"" style=""width:200px;border:14px solid red;"">","null","","","","","","","","","",""
"","image-keyboard-response","4","43183","0.0-4.0","3KYQYYSHYWTQGSAOCCUOU05CVESODK","A2N4DD7IS7EI2D","31YWE12TE0YV78PCVO9WO2QLDWO7XY","","358.60000002384186","img/food1.png","74","360","1","1","2","1","1,0.5,0,1,0.5,0,0.5,0,1","0.5,0,1,0.5,0,1,0,1,0.5","2","",""
"","html-keyboard-response","5","43486","0.0-5.0","3KYQYYSHYWTQGSAOCCUOU05CVESODK","A2N4DD7IS7EI2D","31YWE12TE0YV78PCVO9WO2QLDWO7XY","","null","<img src=""img/food1.png"" style=""width:200px; border:14px solid green;"">","null","","","","","","","","","",""
"","image-keyboard-response","6","43866","0.0-6.0","3KYQYYSHYWTQGSAOCCUOU05CVESODK","A2N4DD7IS7EI2D","31YWE12TE0YV78PCVO9WO2QLDWO7XY","","376.69999998807907","img/food1.png","74","378.5","1","1","2","1","1,0.5,0,1,0.5,0,0.5,0,1","0.5,0,1,0.5,0,1,0,1,0.5","2","",""
"","html-keyboard-response","7","44168","0.0-7.0","3KYQYYSHYWTQGSAOCCUOU05CVESODK","A2N4DD7IS7EI2D","31YWE12TE0YV78PCVO9WO2QLDWO7XY","","null","<img src=""img/food1.png"" style=""width:200px; border:14px solid green;"">","null","","","","","","","","","",""
"","image-keyboard-response","8","44504","0.0-8.0","3KYQYYSHYWTQGSAOCCUOU05CVESODK","A2N4DD7IS7EI2D","31YWE12TE0YV78PCVO9WO2QLDWO7XY","","334.0999999642372","img/food1.png","74","335.0999999642372","1","0","2","1","1,0.5,0,1,0.5,0,0.5,0,1","0.5,0,1,0.5,0,1,0,1,0.5","2","",""
"","html-keyboard-response","9","44806","0.0-9.0","3KYQYYSHYWTQGSAOCCUOU05CVESODK","A2N4DD7IS7EI2D","31YWE12TE0YV78PCVO9WO2QLDWO7XY","","null","<img src=""img/food1.png"" style=""width:200px;border:14px solid red;"">","null","","","","","","","","","",""
"","image-keyboard-response","10","45069","0.0-10.0","3KYQYYSHYWTQGSAOCCUOU05CVESODK","A2N4DD7IS7EI2D","31YWE12TE0YV78PCVO9WO2QLDWO7XY","","262.10000002384186","img/food1.png","75","263.5999999642372","2","0","2","1","1,0.5,0,1,0.5,0,0.5,0,1","0.5,0,1,0.5,0,1,0,1,0.5","2","",""
"","html-keyboard-response","11","45372","0.0-11.0","3KYQYYSHYWTQGSAOCCUOU05CVESODK","A2N4DD7IS7EI2D","31YWE12TE0YV78PCVO9WO2QLDWO7XY","","null","<img src=""img/food1.png"" style=""width:200px;border:14px solid red;"">","null","","","","","","","","","",""
"","image-keyboard-response","12","45641","0.0-12.0","3KYQYYSHYWTQGSAOCCUOU05CVESODK","A2N4DD7IS7EI2D","31YWE12TE0YV78PCVO9WO2QLDWO7XY","","267","img/food1.png","76","268.60000002384186","3","1","2","1","1,0.5,0,1,0.5,0,0.5,0,1","0.5,0,1,0.5,0,1,0,1,0.5","2","",""
"","html-keyboard-response","13","45944","0.0-13.0","3KYQYYSHYWTQGSAOCCUOU05CVESODK","A2N4DD7IS7EI2D","31YWE12TE0YV78PCVO9WO2QLDWO7XY","","null","<img src=""img/food1.png"" style=""width:200px; border:14px solid green;"">","null","","","","","","","","","",""
"","image-keyboard-response","14","46468","0.0-14.0","3KYQYYSHYWTQGSAOCCUOU05CVESODK","A2N4DD7IS7EI2D","31YWE12TE0YV78PCVO9WO2QLDWO7XY","","523","img/food4.png","76","524.3000000119209","3","0","3","1","1,0.5,0,1,0.5,0,0.5,0,1","0.5,0,1,0.5,0,1,0,1,0.5","2","",""
"","html-keyboard-response","15","46770","0.0-15.0","3KYQYYSHYWTQGSAOCCUOU05CVESODK","A2N4DD7IS7EI2D","31YWE12TE0YV78PCVO9WO2QLDWO7XY","","null","<img src=""img/food4.png"" style=""width:200px;border:14px solid red;"">","null","","","","","","","","","",""
"","image-keyboard-response","16","47137","0.0-16.0","3KYQYYSHYWTQGSAOCCUOU05CVESODK","A2N4DD7IS7EI2D","31YWE12TE0YV78PCVO9WO2QLDWO7XY","","365.69999998807907","img/food1.png","75","367.19999998807907","2","0","2","1","1,0.5,0,1,0.5,0,0.5,0,1","0.5,0,1,0.5,0,1,0,1,0.5","2","",""
"","html-keyboard-response","17","47439","0.0-17.0","3KYQYYSHYWTQGSAOCCUOU05CVESODK","A2N4DD7IS7EI2D","31YWE12TE0YV78PCVO9WO2QLDWO7XY","","null","<img src=""img/food1.png"" style=""width:200px;border:14px solid red;"">","null","","","","","","","","","",""
"","image-keyboard-response","18","47887","0.0-18.0","3KYQYYSHYWTQGSAOCCUOU05CVESODK","A2N4DD7IS7EI2D","31YWE12TE0YV78PCVO9WO2QLDWO7XY","","446.5999999642372","img/food4.png","74","447.5","1","0","3","1","1,0.5,0,1,0.5,0,0.5,0,1","0.5,0,1,0.5,0,1,0,1,0.5","2","",""
"","html-keyboard-response","19","48189","0.0-19.0","3KYQYYSHYWTQGSAOCCUOU05CVESODK","A2N4DD7IS7EI2D","31YWE12TE0YV78PCVO9WO2QLDWO7XY","","null","<img src=""img/food4.png"" style=""width:200px;border:14px solid red;"">","null","","","","","","","","","",""
"","image-keyboard-response","20","48564","0.0-20.0","3KYQYYSHYWTQGSAOCCUOU05CVESODK","A2N4DD7IS7EI2D","31YWE12TE0YV78PCVO9WO2QLDWO7XY","","373.19999998807907","img/food5.png","76","374.5","3","1","1","1","1,0.5,0,1,0.5,0,0.5,0,1","0.5,0,1,0.5,0,1,0,1,0.5","2","",""
"","html-keyboard-response","21","48867","0.0-21.0","3KYQYYSHYWTQGSAOCCUOU05CVESODK","A2N4DD7IS7EI2D","31YWE12TE0YV78PCVO9WO2QLDWO7XY","","null","<img src=""img/food5.png"" style=""width:200px; border:14px solid green;"">","null","","","","","","","","","",""
"","image-keyboard-response","22","49246","0.0-22.0","3KYQYYSHYWTQGSAOCCUOU05CVESODK","A2N4DD7IS7EI2D","31YWE12TE0YV78PCVO9WO2QLDWO7XY","","376.7999999523163","img/food4.png","76","378.10000002384186","3","0","3","1","1,0.5,0,1,0.5,0,0.5,0,1","0.5,0,1,0.5,0,1,0,1,0.5","2","",""
"","html-keyboard-response","23","49549","0.0-23.0","3KYQYYSHYWTQGSAOCCUOU05CVESODK","A2N4DD7IS7EI2D","31YWE12TE0YV78PCVO9WO2QLDWO7XY","","null","<img src=""img/food4.png"" style=""width:200px;border:14px solid red;"">","null","","","","","","","","","",""
"","image-keyboard-response","24","49923","0.0-24.0","3KYQYYSHYWTQGSAOCCUOU05CVESODK","A2N4DD7IS7EI2D","31YWE12TE0YV78PCVO9WO2QLDWO7XY","","372.69999998807907","img/food4.png","75","373.89999997615814","2","1","3","1","1,0.5,0,1,0.5,0,0.5,0,1","0.5,0,1,0.5,0,1,0,1,0.5","2","",""
"","html-keyboard-response","25","50225","0.0-25.0","3KYQYYSHYWTQGSAOCCUOU05CVESODK","A2N4DD7IS7EI2D","31YWE12TE0YV78PCVO9WO2QLDWO7XY","","null","<img src=""img/food4.png"" style=""width:200px; border:14px solid green;"">","null","","","","","","","","","",""
"","image-keyboard-response","26","50643","0.0-26.0","3KYQYYSHYWTQGSAOCCUOU05CVESODK","A2N4DD7IS7EI2D","31YWE12TE0YV78PCVO9WO2QLDWO7XY","","417.10000002384186","img/food5.png","74","418.19999998807907","1","1","1","1","1,0.5,0,1,0.5,0,0.5,0,1","0.5,0,1,0.5,0,1,0,1,0.5","2","",""
"","html-keyboard-response","27","50946","0.0-27.0","3KYQYYSHYWTQGSAOCCUOU05CVESODK","A2N4DD7IS7EI2D","31YWE12TE0YV78PCVO9WO2QLDWO7XY","","null","<img src=""img/food5.png"" style=""width:200px; border:14px solid green;"">","null","","","","","","","","","",""
"","image-keyboard-response","28","51246","0.0-28.0","3KYQYYSHYWTQGSAOCCUOU05CVESODK","A2N4DD7IS7EI2D","31YWE12TE0YV78PCVO9WO2QLDWO7XY","","299","img/food5.png","74","300.39999997615814","1","0","1","1","1,0.5,0,1,0.5,0,0.5,0,1","0.5,0,1,0.5,0,1,0,1,0.5","2","",""
"","html-keyboard-response","29","51549","0.0-29.0","3KYQYYSHYWTQGSAOCCUOU05CVESODK","A2N4DD7IS7EI2D","31YWE12TE0YV78PCVO9WO2QLDWO7XY","","null","<img src=""img/food5.png"" style=""width:200px;border:14px solid red;"">","null","","","","","","","","","",""
"","image-keyboard-response","30","51880","0.0-30.0","3KYQYYSHYWTQGSAOCCUOU05CVESODK","A2N4DD7IS7EI2D","31YWE12TE0YV78PCVO9WO2QLDWO7XY","","330","img/food4.png","75","331","2","1","3","1","1,0.5,0,1,0.5,0,0.5,0,1","0.5,0,1,0.5,0,1,0,1,0.5","2","",""
"","html-keyboard-response","31","52182","0.0-31.0","3KYQYYSHYWTQGSAOCCUOU05CVESODK","A2N4DD7IS7EI2D","31YWE12TE0YV78PCVO9WO2QLDWO7XY","","null","<img src=""img/food4.png"" style=""width:200px; border:14px solid green;"">","null","","","","","","","","","",""
"","image-keyboard-response","32","52614","0.0-32.0","3KYQYYSHYWTQGSAOCCUOU05CVESODK","A2N4DD7IS7EI2D","31YWE12TE0YV78PCVO9WO2QLDWO7XY","","430.39999997615814","img/food5.png","76","431.60000002384186","3","1","1","1","1,0.5,0,1,0.5,0,0.5,0,1","0.5,0,1,0.5,0,1,0,1,0.5","2","",""
"","html-keyboard-response","33","52921","0.0-33.0","3KYQYYSHYWTQGSAOCCUOU05CVESODK","A2N4DD7IS7EI2D","31YWE12TE0YV78PCVO9WO2QLDWO7XY","","null","<img src=""img/food5.png"" style=""width:200px; border:14px solid green;"">","null","","","","","","","","","",""
"","image-keyboard-response","34","53378","0.0-34.0","3KYQYYSHYWTQGSAOCCUOU05CVESODK","A2N4DD7IS7EI2D","31YWE12TE0YV78PCVO9WO2QLDWO7XY","","456.5","img/food4.png","75","457.5","2","1","3","1","1,0.5,0,1,0.5,0,0.5,0,1","0.5,0,1,0.5,0,1,0,1,0.5","2","",""
"","html-keyboard-response","35","53681","0.0-35.0","3KYQYYSHYWTQGSAOCCUOU05CVESODK","A2N4DD7IS7EI2D","31YWE12TE0YV78PCVO9WO2QLDWO7XY","","null","<img src=""img/food4.png"" style=""width:200px; border:14px solid green;"">","null","","","","","","","","","",""
"","image-keyboard-response","36","54152","0.0-36.0","3KYQYYSHYWTQGSAOCCUOU05CVESODK","A2N4DD7IS7EI2D","31YWE12TE0YV78PCVO9WO2QLDWO7XY","","469.5","img/food5.png","75","470.5","2","0","1","1","1,0.5,0,1,0.5,0,0.5,0,1","0.5,0,1,0.5,0,1,0,1,0.5","2","",""
"","html-keyboard-response","37","54454","0.0-37.0","3KYQYYSHYWTQGSAOCCUOU05CVESODK","A2N4DD7IS7EI2D","31YWE12TE0YV78PCVO9WO2QLDWO7XY","","null","<img src=""img/food5.png"" style=""width:200px;border:14px solid red;"">","null","","","","","","","","","",""
"","image-keyboard-response","38","55011","0.0-38.0","3KYQYYSHYWTQGSAOCCUOU05CVESODK","A2N4DD7IS7EI2D","31YWE12TE0YV78PCVO9WO2QLDWO7XY","","554.6999999880791","img/food1.png","76","556.3000000119209","3","1","2","1","1,0.5,0,1,0.5,0,0.5,0,1","0.5,0,1,0.5,0,1,0,1,0.5","2","",""
"","html-keyboard-response","39","55314","0.0-39.0","3KYQYYSHYWTQGSAOCCUOU05CVESODK","A2N4DD7IS7EI2D","31YWE12TE0YV78PCVO9WO2QLDWO7XY","","null","<img src=""img/food1.png"" style=""width:200px; border:14px solid green;"">","null","","","","","","","","","",""
"","image-keyboard-response","40","55643","0.0-40.0","3KYQYYSHYWTQGSAOCCUOU05CVESODK","A2N4DD7IS7EI2D","31YWE12TE0YV78PCVO9WO2QLDWO7XY","","327.5999999642372","img/food1.png","76","328.80000001192093","3","1","2","1","1,0.5,0,1,0.5,0,0.5,0,1","0.5,0,1,0.5,0,1,0,1,0.5","2","",""
"","html-keyboard-response","41","55948","0.0-41.0","3KYQYYSHYWTQGSAOCCUOU05CVESODK","A2N4DD7IS7EI2D","31YWE12TE0YV78PCVO9WO2QLDWO7XY","","null","<img src=""img/food1.png"" style=""width:200px; border:14px solid green;"">","null","","","","","","","","","",""
"","image-keyboard-response","42","56274","0.0-42.0","3KYQYYSHYWTQGSAOCCUOU05CVESODK","A2N4DD7IS7EI2D","31YWE12TE0YV78PCVO9WO2QLDWO7XY","","324.19999998807907","img/food1.png","76","325.7000000476837","3","1","2","1","1,0.5,0,1,0.5,0,0.5,0,1","0.5,0,1,0.5,0,1,0,1,0.5","2","",""
"","html-keyboard-response","43","56576","0.0-43.0","3KYQYYSHYWTQGSAOCCUOU05CVESODK","A2N4DD7IS7EI2D","31YWE12TE0YV78PCVO9WO2QLDWO7XY","","null","<img src=""img/food1.png"" style=""width:200px; border:14px solid green;"">","null","","","","","","","","","",""
"","image-keyboard-response","44","56921","0.0-44.0","3KYQYYSHYWTQGSAOCCUOU05CVESODK","A2N4DD7IS7EI2D","31YWE12TE0YV78PCVO9WO2QLDWO7XY","","343.89999997615814","img/food4.png","74","345","1","0","3","1","1,0.5,0,1,0.5,0,0.5,0,1","0.5,0,1,0.5,0,1,0,1,0.5","2","",""
"","html-keyboard-response","45","57223","0.0-45.0","3KYQYYSHYWTQGSAOCCUOU05CVESODK","A2N4DD7IS7EI2D","31YWE12TE0YV78PCVO9WO2QLDWO7XY","","null","<img src=""img/food4.png"" style=""width:200px;border:14px solid red;"">","null","","","","","","","","","",""
"","image-keyboard-response","46","57495","0.0-46.0","3KYQYYSHYWTQGSAOCCUOU05CVESODK","A2N4DD7IS7EI2D","31YWE12TE0YV78PCVO9WO2QLDWO7XY","","271.30000001192093","img/food5.png","75","272.2999999523163","2","0","1","1","1,0.5,0,1,0.5,0,0.5,0,1","0.5,0,1,0.5,0,1,0,1,0.5","2","",""
"","html-keyboard-response","47","57797","0.0-47.0","3KYQYYSHYWTQGSAOCCUOU05CVESODK","A2N4DD7IS7EI2D","31YWE12TE0YV78PCVO9WO2QLDWO7XY","","null","<img src=""img/food5.png"" style=""width:200px;border:14px solid red;"">","null","","","","","","","","","",""
"","image-keyboard-response","48","58131","0.0-48.0","3KYQYYSHYWTQGSAOCCUOU05CVESODK","A2N4DD7IS7EI2D","31YWE12TE0YV78PCVO9WO2QLDWO7XY","","332.69999998807907","img/food5.png","75","333.80000001192093","2","0","1","1","1,0.5,0,1,0.5,0,0.5,0,1","0.5,0,1,0.5,0,1,0,1,0.5","2","",""
"","html-keyboard-response","49","58433","0.0-49.0","3KYQYYSHYWTQGSAOCCUOU05CVESODK","A2N4DD7IS7EI2D","31YWE12TE0YV78PCVO9WO2QLDWO7XY","","null","<img src=""img/food5.png"" style=""width:200px;border:14px solid red;"">","null","","","","","","","","","",""
"","image-keyboard-response","50","58766","0.0-50.0","3KYQYYSHYWTQGSAOCCUOU05CVESODK","A2N4DD7IS7EI2D","31YWE12TE0YV78PCVO9WO2QLDWO7XY","","331.7000000476837","img/food4.png","76","332.7000000476837","3","1","3","1","1,0.5,0,1,0.5,0,0.5,0,1","0.5,0,1,0.5,0,1,0,1,0.5","2","",""
"","html-keyboard-response","51","59070","0.0-51.0","3KYQYYSHYWTQGSAOCCUOU05CVESODK","A2N4DD7IS7EI2D","31YWE12TE0YV78PCVO9WO2QLDWO7XY","","null","<img src=""img/food4.png"" style=""width:200px; border:14px solid green;"">","null","","","","","","","","","",""
"","image-keyboard-response","52","59602","0.0-52.0","3KYQYYSHYWTQGSAOCCUOU05CVESODK","A2N4DD7IS7EI2D","31YWE12TE0YV78PCVO9WO2QLDWO7XY","","531.1999999880791","img/food5.png","74","532.5","1","1","1","1","1,0.5,0,1,0.5,0,0.5,0,1","0.5,0,1,0.5,0,1,0,1,0.5","2","",""
"","html-keyboard-response","53","59904","0.0-53.0","3KYQYYSHYWTQGSAOCCUOU05CVESODK","A2N4DD7IS7EI2D","31YWE12TE0YV78PCVO9WO2QLDWO7XY","","null","<img src=""img/food5.png"" style=""width:200px; border:14px solid green;"">","null","","","","","","","","","",""
"","image-keyboard-response","54","60382","0.0-54.0","3KYQYYSHYWTQGSAOCCUOU05CVESODK","A2N4DD7IS7EI2D","31YWE12TE0YV78PCVO9WO2QLDWO7XY","","476.39999997615814","img/food1.png","74","477.60000002384186","1","0","2","1","1,0.5,0,1,0.5,0,0.5,0,1","0.5,0,1,0.5,0,1,0,1,0.5","2","",""
"","html-keyboard-response","55","60698","0.0-55.0","3KYQYYSHYWTQGSAOCCUOU05CVESODK","A2N4DD7IS7EI2D","31YWE12TE0YV78PCVO9WO2QLDWO7XY","","null","<img src=""img/food1.png"" style=""width:200px;border:14px solid red;"">","null","","","","","","","","","",""
"","image-keyboard-response","56","60956","0.0-56.0","3KYQYYSHYWTQGSAOCCUOU05CVESODK","A2N4DD7IS7EI2D","31YWE12TE0YV78PCVO9WO2QLDWO7XY","","255.60000002384186","img/food4.png","75","257.30000001192093","2","1","3","1","1,0.5,0,1,0.5,0,0.5,0,1","0.5,0,1,0.5,0,1,0,1,0.5","2","",""
"","html-keyboard-response","57","61259","0.0-57.0","3KYQYYSHYWTQGSAOCCUOU05CVESODK","A2N4DD7IS7EI2D","31YWE12TE0YV78PCVO9WO2QLDWO7XY","","null","<img src=""img/food4.png"" style=""width:200px; border:14px solid green;"">","null","","","","","","","","","",""
"","image-keyboard-response","58","61618","0.0-58.0","3KYQYYSHYWTQGSAOCCUOU05CVESODK","A2N4DD7IS7EI2D","31YWE12TE0YV78PCVO9WO2QLDWO7XY","","357.89999997615814","img/food4.png","75","359.19999998807907","2","1","3","1","1,0.5,0,1,0.5,0,0.5,0,1","0.5,0,1,0.5,0,1,0,1,0.5","2","",""
"","html-keyboard-response","59","61921","0.0-59.0","3KYQYYSHYWTQGSAOCCUOU05CVESODK","A2N4DD7IS7EI2D","31YWE12TE0YV78PCVO9WO2QLDWO7XY","","null","<img src=""img/food4.png"" style=""width:200px; border:14px solid green;"">","null","","","","","","","","","",""
"","image-keyboard-response","60","62231","0.0-60.0","3KYQYYSHYWTQGSAOCCUOU05CVESODK","A2N4DD7IS7EI2D","31YWE12TE0YV78PCVO9WO2QLDWO7XY","","306","img/food1.png","76","310.10000002384186","3","1","2","1","1,0.5,0,1,0.5,0,0.5,0,1","0.5,0,1,0.5,0,1,0,1,0.5","2","",""
"","html-keyboard-response","61","62534","0.0-61.0","3KYQYYSHYWTQGSAOCCUOU05CVESODK","A2N4DD7IS7EI2D","31YWE12TE0YV78PCVO9WO2QLDWO7XY","","null","<img src=""img/food1.png"" style=""width:200px; border:14px solid green;"">","null","","","","","","","","","",""
"","image-keyboard-response","62","62904","0.0-62.0","3KYQYYSHYWTQGSAOCCUOU05CVESODK","A2N4DD7IS7EI2D","31YWE12TE0YV78PCVO9WO2QLDWO7XY","","368.5999999642372","img/food4.png","75","369.60000002384186","2","1","3","1","1,0.5,0,1,0.5,0,0.5,0,1","0.5,0,1,0.5,0,1,0,1,0.5","2","",""
"","html-keyboard-response","63","63206","0.0-63.0","3KYQYYSHYWTQGSAOCCUOU05CVESODK","A2N4DD7IS7EI2D","31YWE12TE0YV78PCVO9WO2QLDWO7XY","","null","<img src=""img/food4.png"" style=""width:200px; border:14px solid green;"">","null","","","","","","","","","",""
"","image-keyboard-response","64","63662","0.0-64.0","3KYQYYSHYWTQGSAOCCUOU05CVESODK","A2N4DD7IS7EI2D","31YWE12TE0YV78PCVO9WO2QLDWO7XY","","454.30000001192093","img/food5.png","75","455.5","2","0","1","1","1,0.5,0,1,0.5,0,0.5,0,1","0.5,0,1,0.5,0,1,0,1,0.5","2","",""
"","html-keyboard-response","65","63965","0.0-65.0","3KYQYYSHYWTQGSAOCCUOU05CVESODK","A2N4DD7IS7EI2D","31YWE12TE0YV78PCVO9WO2QLDWO7XY","","null","<img src=""img/food5.png"" style=""width:200px;border:14px solid red;"">","null","","","","","","","","","",""
"","image-keyboard-response","66","64215","0.0-66.0","3KYQYYSHYWTQGSAOCCUOU05CVESODK","A2N4DD7IS7EI2D","31YWE12TE0YV78PCVO9WO2QLDWO7XY","","248.30000001192093","img/food4.png","76","249.4000000357628","3","0","3","1","1,0.5,0,1,0.5,0,0.5,0,1","0.5,0,1,0.5,0,1,0,1,0.5","2","",""
"","html-keyboard-response","67","64517","0.0-67.0","3KYQYYSHYWTQGSAOCCUOU05CVESODK","A2N4DD7IS7EI2D","31YWE12TE0YV78PCVO9WO2QLDWO7XY","","null","<img src=""img/food4.png"" style=""width:200px;border:14px solid red;"">","null","","","","","","","","","",""
"","image-keyboard-response","68","64761","0.0-68.0","3KYQYYSHYWTQGSAOCCUOU05CVESODK","A2N4DD7IS7EI2D","31YWE12TE0YV78PCVO9WO2QLDWO7XY","","242.60000002384186","img/food4.png","74","243.5","1","0","3","1","1,0.5,0,1,0.5,0,0.5,0,1","0.5,0,1,0.5,0,1,0,1,0.5","2","",""
"","html-keyboard-response","69","65063","0.0-69.0","3KYQYYSHYWTQGSAOCCUOU05CVESODK","A2N4DD7IS7EI2D","31YWE12TE0YV78PCVO9WO2QLDWO7XY","","null","<img src=""img/food4.png"" style=""width:200px;border:14px solid red;"">","null","","","","","","","","","",""
"","image-keyboard-response","70","65403","0.0-70.0","3KYQYYSHYWTQGSAOCCUOU05CVESODK","A2N4DD7IS7EI2D","31YWE12TE0YV78PCVO9WO2QLDWO7XY","","337.2999999523163","img/food1.png","74","339.30000001192093","1","1","2","1","1,0.5,0,1,0.5,0,0.5,0,1","0.5,0,1,0.5,0,1,0,1,0.5","2","",""
"","html-keyboard-response","71","65710","0.0-71.0","3KYQYYSHYWTQGSAOCCUOU05CVESODK","A2N4DD7IS7EI2D","31YWE12TE0YV78PCVO9WO2QLDWO7XY","","null","<img src=""img/food1.png"" style=""width:200px; border:14px solid green;"">","null","","","","","","","","","",""
"","image-keyboard-response","72","66134","0.0-72.0","3KYQYYSHYWTQGSAOCCUOU05CVESODK","A2N4DD7IS7EI2D","31YWE12TE0YV78PCVO9WO2QLDWO7XY","","423","img/food5.png","76","424.19999998807907","3","1","1","1","1,0.5,0,1,0.5,0,0.5,0,1","0.5,0,1,0.5,0,1,0,1,0.5","2","",""
"","html-keyboard-response","73","66437","0.0-73.0","3KYQYYSHYWTQGSAOCCUOU05CVESODK","A2N4DD7IS7EI2D","31YWE12TE0YV78PCVO9WO2QLDWO7XY","","null","<img src=""img/food5.png"" style=""width:200px; border:14px solid green;"">","null","","","","","","","","","",""
"","image-keyboard-response","74","66965","0.0-74.0","3KYQYYSHYWTQGSAOCCUOU05CVESODK","A2N4DD7IS7EI2D","31YWE12TE0YV78PCVO9WO2QLDWO7XY","","526.6000000238419","img/food5.png","75","527.6999999880791","2","0","1","1","1,0.5,0,1,0.5,0,0.5,0,1","0.5,0,1,0.5,0,1,0,1,0.5","2","",""
"","html-keyboard-response","75","67268","0.0-75.0","3KYQYYSHYWTQGSAOCCUOU05CVESODK","A2N4DD7IS7EI2D","31YWE12TE0YV78PCVO9WO2QLDWO7XY","","null","<img src=""img/food5.png"" style=""width:200px;border:14px solid red;"">","null","","","","","","","","","",""
"","image-keyboard-response","76","67571","0.0-76.0","3KYQYYSHYWTQGSAOCCUOU05CVESODK","A2N4DD7IS7EI2D","31YWE12TE0YV78PCVO9WO2QLDWO7XY","","302","img/food5.png","76","303.30000001192093","3","1","1","1","1,0.5,0,1,0.5,0,0.5,0,1","0.5,0,1,0.5,0,1,0,1,0.5","2","",""
"","html-keyboard-response","77","67873","0.0-77.0","3KYQYYSHYWTQGSAOCCUOU05CVESODK","A2N4DD7IS7EI2D","31YWE12TE0YV78PCVO9WO2QLDWO7XY","","null","<img src=""img/food5.png"" style=""width:200px; border:14px solid green;"">","null","","","","","","","","","",""
"","image-keyboard-response","78","68288","0.0-78.0","3KYQYYSHYWTQGSAOCCUOU05CVESODK","A2N4DD7IS7EI2D","31YWE12TE0YV78PCVO9WO2QLDWO7XY","","413.7000000476837","img/food5.png","76","415","3","1","1","1","1,0.5,0,1,0.5,0,0.5,0,1","0.5,0,1,0.5,0,1,0,1,0.5","2","",""
"","html-keyboard-response","79","68589","0.0-79.0","3KYQYYSHYWTQGSAOCCUOU05CVESODK","A2N4DD7IS7EI2D","31YWE12TE0YV78PCVO9WO2QLDWO7XY","","null","<img src=""img/food5.png"" style=""width:200px; border:14px solid green;"">","null","","","","","","","","","",""
"","image-keyboard-response","80","68895","0.0-80.0","3KYQYYSHYWTQGSAOCCUOU05CVESODK","A2N4DD7IS7EI2D","31YWE12TE0YV78PCVO9WO2QLDWO7XY","","304.10000002384186","img/food5.png","76","305.10000002384186","3","1","1","1","1,0.5,0,1,0.5,0,0.5,0,1","0.5,0,1,0.5,0,1,0,1,0.5","2","",""
"","html-keyboard-response","81","69198","0.0-81.0","3KYQYYSHYWTQGSAOCCUOU05CVESODK","A2N4DD7IS7EI2D","31YWE12TE0YV78PCVO9WO2QLDWO7XY","","null","<img src=""img/food5.png"" style=""width:200px; border:14px solid green;"">","null","","","","","","","","","",""
"","image-keyboard-response","82","69790","0.0-82.0","3KYQYYSHYWTQGSAOCCUOU05CVESODK","A2N4DD7IS7EI2D","31YWE12TE0YV78PCVO9WO2QLDWO7XY","","591.5","img/food1.png","75","592.5","2","0","2","1","1,0.5,0,1,0.5,0,0.5,0,1","0.5,0,1,0.5,0,1,0,1,0.5","2","",""
"","html-keyboard-response","83","70094","0.0-83.0","3KYQYYSHYWTQGSAOCCUOU05CVESODK","A2N4DD7IS7EI2D","31YWE12TE0YV78PCVO9WO2QLDWO7XY","","null","<img src=""img/food1.png"" style=""width:200px;border:14px solid red;"">","null","","","","","","","","","",""
"","image-keyboard-response","84","70430","0.0-84.0","3KYQYYSHYWTQGSAOCCUOU05CVESODK","A2N4DD7IS7EI2D","31YWE12TE0YV78PCVO9WO2QLDWO7XY","","335.0999999642372","img/food5.png","74","336.19999998807907","1","0","1","1","1,0.5,0,1,0.5,0,0.5,0,1","0.5,0,1,0.5,0,1,0,1,0.5","2","",""
"","html-keyboard-response","85","70732","0.0-85.0","3KYQYYSHYWTQGSAOCCUOU05CVESODK","A2N4DD7IS7EI2D","31YWE12TE0YV78PCVO9WO2QLDWO7XY","","null","<img src=""img/food5.png"" style=""width:200px;border:14px solid red;"">","null","","","","","","","","","",""
"","image-keyboard-response","86","71076","0.0-86.0","3KYQYYSHYWTQGSAOCCUOU05CVESODK","A2N4DD7IS7EI2D","31YWE12TE0YV78PCVO9WO2QLDWO7XY","","342.89999997615814","img/food5.png","75","344","2","0","1","1","1,0.5,0,1,0.5,0,0.5,0,1","0.5,0,1,0.5,0,1,0,1,0.5","2","",""
"","html-keyboard-response","87","71378","0.0-87.0","3KYQYYSHYWTQGSAOCCUOU05CVESODK","A2N4DD7IS7EI2D","31YWE12TE0YV78PCVO9WO2QLDWO7XY","","null","<img src=""img/food5.png"" style=""width:200px;border:14px solid red;"">","null","","","","","","","","","",""
"","image-keyboard-response","88","71906","0.0-88.0","3KYQYYSHYWTQGSAOCCUOU05CVESODK","A2N4DD7IS7EI2D","31YWE12TE0YV78PCVO9WO2QLDWO7XY","","526","img/food4.png","76","527.8000000119209","3","1","3","1","1,0.5,0,1,0.5,0,0.5,0,1","0.5,0,1,0.5,0,1,0,1,0.5","2","",""
"","html-keyboard-response","89","72209","0.0-89.0","3KYQYYSHYWTQGSAOCCUOU05CVESODK","A2N4DD7IS7EI2D","31YWE12TE0YV78PCVO9WO2QLDWO7XY","","null","<img src=""img/food4.png"" style=""width:200px; border:14px solid green;"">","null","","","","","","","","","",""
"","image-keyboard-response","90","72817","0.0-90.0","3KYQYYSHYWTQGSAOCCUOU05CVESODK","A2N4DD7IS7EI2D","31YWE12TE0YV78PCVO9WO2QLDWO7XY","","606.5999999642372","img/food5.png","75","607.8000000119209","2","0","1","1","1,0.5,0,1,0.5,0,0.5,0,1","0.5,0,1,0.5,0,1,0,1,0.5","2","",""
"","html-keyboard-response","91","73119","0.0-91.0","3KYQYYSHYWTQGSAOCCUOU05CVESODK","A2N4DD7IS7EI2D","31YWE12TE0YV78PCVO9WO2QLDWO7XY","","null","<img src=""img/food5.png"" style=""width:200px;border:14px solid red;"">","null","","","","","","","","","",""
"","image-keyboard-response","92","73543","0.0-92.0","3KYQYYSHYWTQGSAOCCUOU05CVESODK","A2N4DD7IS7EI2D","31YWE12TE0YV78PCVO9WO2QLDWO7XY","","422.30000001192093","img/food4.png","74","423.5","1","0","3","1","1,0.5,0,1,0.5,0,0.5,0,1","0.5,0,1,0.5,0,1,0,1,0.5","2","",""
"","html-keyboard-response","93","73845","0.0-93.0","3KYQYYSHYWTQGSAOCCUOU05CVESODK","A2N4DD7IS7EI2D","31YWE12TE0YV78PCVO9WO2QLDWO7XY","","null","<img src=""img/food4.png"" style=""width:200px;border:14px solid red;"">","null","","","","","","","","","",""
"","image-keyboard-response","94","74325","0.0-94.0","3KYQYYSHYWTQGSAOCCUOU05CVESODK","A2N4DD7IS7EI2D","31YWE12TE0YV78PCVO9WO2QLDWO7XY","","479.10000002384186","img/food5.png","74","480.19999998807907","1","1","1","1","1,0.5,0,1,0.5,0,0.5,0,1","0.5,0,1,0.5,0,1,0,1,0.5","2","",""
"","html-keyboard-response","95","74628","0.0-95.0","3KYQYYSHYWTQGSAOCCUOU05CVESODK","A2N4DD7IS7EI2D","31YWE12TE0YV78PCVO9WO2QLDWO7XY","","null","<img src=""img/food5.png"" style=""width:200px; border:14px solid green;"">","null","","","","","","","","","",""
"","image-keyboard-response","96","75071","0.0-96.0","3KYQYYSHYWTQGSAOCCUOU05CVESODK","A2N4DD7IS7EI2D","31YWE12TE0YV78PCVO9WO2QLDWO7XY","","440.80000001192093","img/food1.png","75","442.39999997615814","2","0","2","1","1,0.5,0,1,0.5,0,0.5,0,1","0.5,0,1,0.5,0,1,0,1,0.5","2","",""
"","html-keyboard-response","97","75372","0.0-97.0","3KYQYYSHYWTQGSAOCCUOU05CVESODK","A2N4DD7IS7EI2D","31YWE12TE0YV78PCVO9WO2QLDWO7XY","","null","<img src=""img/food1.png"" style=""width:200px;border:14px solid red;"">","null","","","","","","","","","",""
"","image-keyboard-response","98","75701","0.0-98.0","3KYQYYSHYWTQGSAOCCUOU05CVESODK","A2N4DD7IS7EI2D","31YWE12TE0YV78PCVO9WO2QLDWO7XY","","327.4000000357628","img/food5.png","76","328.5","3","1","1","1","1,0.5,0,1,0.5,0,0.5,0,1","0.5,0,1,0.5,0,1,0,1,0.5","2","",""
"","html-keyboard-response","99","76004","0.0-99.0","3KYQYYSHYWTQGSAOCCUOU05CVESODK","A2N4DD7IS7EI2D","31YWE12TE0YV78PCVO9WO2QLDWO7XY","","null","<img src=""img/food5.png"" style=""width:200px; border:14px solid green;"">","null","","","","","","","","","",""
"","image-keyboard-response","100","76442","0.0-100.0","3KYQYYSHYWTQGSAOCCUOU05CVESODK","A2N4DD7IS7EI2D","31YWE12TE0YV78PCVO9WO2QLDWO7XY","","437.10000002384186","img/food4.png","76","438.19999998807907","3","0","3","1","1,0.5,0,1,0.5,0,0.5,0,1","0.5,0,1,0.5,0,1,0,1,0.5","2","",""
"","html-keyboard-response","101","76746","0.0-101.0","3KYQYYSHYWTQGSAOCCUOU05CVESODK","A2N4DD7IS7EI2D","31YWE12TE0YV78PCVO9WO2QLDWO7XY","","null","<img src=""img/food4.png"" style=""width:200px;border:14px solid red;"">","null","","","","","","","","","",""
"","image-keyboard-response","102","77015","0.0-102.0","3KYQYYSHYWTQGSAOCCUOU05CVESODK","A2N4DD7IS7EI2D","31YWE12TE0YV78PCVO9WO2QLDWO7XY","","268.19999998807907","img/food4.png","75","269.69999998807907","2","1","3","1","1,0.5,0,1,0.5,0,0.5,0,1","0.5,0,1,0.5,0,1,0,1,0.5","2","",""
"","html-keyboard-response","103","77318","0.0-103.0","3KYQYYSHYWTQGSAOCCUOU05CVESODK","A2N4DD7IS7EI2D","31YWE12TE0YV78PCVO9WO2QLDWO7XY","","null","<img src=""img/food4.png"" style=""width:200px; border:14px solid green;"">","null","","","","","","","","","",""
"","image-keyboard-response","104","77659","0.0-104.0","3KYQYYSHYWTQGSAOCCUOU05CVESODK","A2N4DD7IS7EI2D","31YWE12TE0YV78PCVO9WO2QLDWO7XY","","340.5","img/food4.png","75","341.5","2","1","3","1","1,0.5,0,1,0.5,0,0.5,0,1","0.5,0,1,0.5,0,1,0,1,0.5","2","",""
"","html-keyboard-response","105","77962","0.0-105.0","3KYQYYSHYWTQGSAOCCUOU05CVESODK","A2N4DD7IS7EI2D","31YWE12TE0YV78PCVO9WO2QLDWO7XY","","null","<img src=""img/food4.png"" style=""width:200px; border:14px solid green;"">","null","","","","","","","","","",""
"","image-keyboard-response","106","78415","0.0-106.0","3KYQYYSHYWTQGSAOCCUOU05CVESODK","A2N4DD7IS7EI2D","31YWE12TE0YV78PCVO9WO2QLDWO7XY","","450.19999998807907","img/food5.png","74","452.39999997615814","1","1","1","1","1,0.5,0,1,0.5,0,0.5,0,1","0.5,0,1,0.5,0,1,0,1,0.5","2","",""
"","html-keyboard-response","107","78718","0.0-107.0","3KYQYYSHYWTQGSAOCCUOU05CVESODK","A2N4DD7IS7EI2D","31YWE12TE0YV78PCVO9WO2QLDWO7XY","","null","<img src=""img/food5.png"" style=""width:200px; border:14px solid green;"">","null","","","","","","","","","",""
"","image-keyboard-response","108","79189","0.0-108.0","3KYQYYSHYWTQGSAOCCUOU05CVESODK","A2N4DD7IS7EI2D","31YWE12TE0YV78PCVO9WO2QLDWO7XY","","470.30000001192093","img/food1.png","74","471.5","1","1","2","1","1,0.5,0,1,0.5,0,0.5,0,1","0.5,0,1,0.5,0,1,0,1,0.5","2","",""
"","html-keyboard-response","109","79491","0.0-109.0","3KYQYYSHYWTQGSAOCCUOU05CVESODK","A2N4DD7IS7EI2D","31YWE12TE0YV78PCVO9WO2QLDWO7XY","","null","<img src=""img/food1.png"" style=""width:200px; border:14px solid green;"">","null","","","","","","","","","",""
"","image-keyboard-response","110","79762","0.0-110.0","3KYQYYSHYWTQGSAOCCUOU05CVESODK","A2N4DD7IS7EI2D","31YWE12TE0YV78PCVO9WO2QLDWO7XY","","269.2999999523163","img/food4.png","74","270.60000002384186","1","0","3","1","1,0.5,0,1,0.5,0,0.5,0,1","0.5,0,1,0.5,0,1,0,1,0.5","2","",""
"","html-keyboard-response","111","80063","0.0-111.0","3KYQYYSHYWTQGSAOCCUOU05CVESODK","A2N4DD7IS7EI2D","31YWE12TE0YV78PCVO9WO2QLDWO7XY","","null","<img src=""img/food4.png"" style=""width:200px;border:14px solid red;"">","null","","","","","","","","","",""
"","image-keyboard-response","112","80317","0.0-112.0","3KYQYYSHYWTQGSAOCCUOU05CVESODK","A2N4DD7IS7EI2D","31YWE12TE0YV78PCVO9WO2QLDWO7XY","","252.80000001192093","img/food1.png","75","253.9000000357628","2","0","2","1","1,0.5,0,1,0.5,0,0.5,0,1","0.5,0,1,0.5,0,1,0,1,0.5","2","",""
"","html-keyboard-response","113","80627","0.0-113.0","3KYQYYSHYWTQGSAOCCUOU05CVESODK","A2N4DD7IS7EI2D","31YWE12TE0YV78PCVO9WO2QLDWO7XY","","null","<img src=""img/food1.png"" style=""width:200px;border:14px solid red;"">","null","","","","","","","","","",""
"","image-keyboard-response","114","80962","0.0-114.0","3KYQYYSHYWTQGSAOCCUOU05CVESODK","A2N4DD7IS7EI2D","31YWE12TE0YV78PCVO9WO2QLDWO7XY","","333.0999999642372","img/food5.png","76","334.2999999523163","3","1","1","1","1,0.5,0,1,0.5,0,0.5,0,1","0.5,0,1,0.5,0,1,0,1,0.5","2","",""
"","html-keyboard-response","115","81263","0.0-115.0","3KYQYYSHYWTQGSAOCCUOU05CVESODK","A2N4DD7IS7EI2D","31YWE12TE0YV78PCVO9WO2QLDWO7XY","","null","<img src=""img/food5.png"" style=""width:200px; border:14px solid green;"">","null","","","","","","","","","",""
"","image-keyboard-response","116","81533","0.0-116.0","3KYQYYSHYWTQGSAOCCUOU05CVESODK","A2N4DD7IS7EI2D","31YWE12TE0YV78PCVO9WO2QLDWO7XY","","268.19999998807907","img/food4.png","76","269.60000002384186","3","1","3","1","1,0.5,0,1,0.5,0,0.5,0,1","0.5,0,1,0.5,0,1,0,1,0.5","2","",""
"","html-keyboard-response","117","81836","0.0-117.0","3KYQYYSHYWTQGSAOCCUOU05CVESODK","A2N4DD7IS7EI2D","31YWE12TE0YV78PCVO9WO2QLDWO7XY","","null","<img src=""img/food4.png"" style=""width:200px; border:14px solid green;"">","null","","","","","","","","","",""
"","image-keyboard-response","118","82340","0.0-118.0","3KYQYYSHYWTQGSAOCCUOU05CVESODK","A2N4DD7IS7EI2D","31YWE12TE0YV78PCVO9WO2QLDWO7XY","","502.7999999523163","img/food1.png","76","503.80000001192093","3","1","2","1","1,0.5,0,1,0.5,0,0.5,0,1","0.5,0,1,0.5,0,1,0,1,0.5","2","",""
"","html-keyboard-response","119","82641","0.0-119.0","3KYQYYSHYWTQGSAOCCUOU05CVESODK","A2N4DD7IS7EI2D","31YWE12TE0YV78PCVO9WO2QLDWO7XY","","null","<img src=""img/food1.png"" style=""width:200px; border:14px solid green;"">","null","","","","","","","","","",""
"","image-keyboard-response","120","83049","0.0-120.0","3KYQYYSHYWTQGSAOCCUOU05CVESODK","A2N4DD7IS7EI2D","31YWE12TE0YV78PCVO9WO2QLDWO7XY","","406","img/food4.png","76","407.5","3","0","3","1","1,0.5,0,1,0.5,0,0.5,0,1","0.5,0,1,0.5,0,1,0,1,0.5","2","",""
"","html-keyboard-response","121","83352","0.0-121.0","3KYQYYSHYWTQGSAOCCUOU05CVESODK","A2N4DD7IS7EI2D","31YWE12TE0YV78PCVO9WO2QLDWO7XY","","null","<img src=""img/food4.png"" style=""width:200px;border:14px solid red;"">","null","","","","","","","","","",""
"","image-keyboard-response","122","83720","0.0-122.0","3KYQYYSHYWTQGSAOCCUOU05CVESODK","A2N4DD7IS7EI2D","31YWE12TE0YV78PCVO9WO2QLDWO7XY","","366.80000001192093","img/food4.png","75","367.80000001192093","2","1","3","1","1,0.5,0,1,0.5,0,0.5,0,1","0.5,0,1,0.5,0,1,0,1,0.5","2","",""
"","html-keyboard-response","123","84022","0.0-123.0","3KYQYYSHYWTQGSAOCCUOU05CVESODK","A2N4DD7IS7EI2D","31YWE12TE0YV78PCVO9WO2QLDWO7XY","","null","<img src=""img/food4.png"" style=""width:200px; border:14px solid green;"">","null","","","","","","","","","",""
"","image-keyboard-response","124","84283","0.0-124.0","3KYQYYSHYWTQGSAOCCUOU05CVESODK","A2N4DD7IS7EI2D","31YWE12TE0YV78PCVO9WO2QLDWO7XY","","259.2999999523163","img/food1.png","75","260.5","2","0","2","1","1,0.5,0,1,0.5,0,0.5,0,1","0.5,0,1,0.5,0,1,0,1,0.5","2","",""
"","html-keyboard-response","125","84586","0.0-125.0","3KYQYYSHYWTQGSAOCCUOU05CVESODK","A2N4DD7IS7EI2D","31YWE12TE0YV78PCVO9WO2QLDWO7XY","","null","<img src=""img/food1.png"" style=""width:200px;border:14px solid red;"">","null","","","","","","","","","",""
"","image-keyboard-response","126","84986","0.0-126.0","3KYQYYSHYWTQGSAOCCUOU05CVESODK","A2N4DD7IS7EI2D","31YWE12TE0YV78PCVO9WO2QLDWO7XY","","399.19999998807907","img/food1.png","74","400.0999999642372","1","1","2","1","1,0.5,0,1,0.5,0,0.5,0,1","0.5,0,1,0.5,0,1,0,1,0.5","2","",""
"","html-keyboard-response","127","85288","0.0-127.0","3KYQYYSHYWTQGSAOCCUOU05CVESODK","A2N4DD7IS7EI2D","31YWE12TE0YV78PCVO9WO2QLDWO7XY","","null","<img src=""img/food1.png"" style=""width:200px; border:14px solid green;"">","null","","","","","","","","","",""
"","image-keyboard-response","128","85676","0.0-128.0","3KYQYYSHYWTQGSAOCCUOU05CVESODK","A2N4DD7IS7EI2D","31YWE12TE0YV78PCVO9WO2QLDWO7XY","","386.39999997615814","img/food5.png","74","387.5","1","0","1","1","1,0.5,0,1,0.5,0,0.5,0,1","0.5,0,1,0.5,0,1,0,1,0.5","2","",""
"","html-keyboard-response","129","85979","0.0-129.0","3KYQYYSHYWTQGSAOCCUOU05CVESODK","A2N4DD7IS7EI2D","31YWE12TE0YV78PCVO9WO2QLDWO7XY","","null","<img src=""img/food5.png"" style=""width:200px;border:14px solid red;"">","null","","","","","","","","","",""
"","image-keyboard-response","130","86269","0.0-130.0","3KYQYYSHYWTQGSAOCCUOU05CVESODK","A2N4DD7IS7EI2D","31YWE12TE0YV78PCVO9WO2QLDWO7XY","","288.30000001192093","img/food1.png","75","289.80000001192093","2","0","2","1","1,0.5,0,1,0.5,0,0.5,0,1","0.5,0,1,0.5,0,1,0,1,0.5","2","",""
"","html-keyboard-response","131","86572","0.0-131.0","3KYQYYSHYWTQGSAOCCUOU05CVESODK","A2N4DD7IS7EI2D","31YWE12TE0YV78PCVO9WO2QLDWO7XY","","null","<img src=""img/food1.png"" style=""width:200px;border:14px solid red;"">","null","","","","","","","","","",""
"","image-keyboard-response","132","86858","0.0-132.0","3KYQYYSHYWTQGSAOCCUOU05CVESODK","A2N4DD7IS7EI2D","31YWE12TE0YV78PCVO9WO2QLDWO7XY","","284.39999997615814","img/food1.png","75","285.69999998807907","2","0","2","1","1,0.5,0,1,0.5,0,0.5,0,1","0.5,0,1,0.5,0,1,0,1,0.5","2","",""
"","html-keyboard-response","133","87161","0.0-133.0","3KYQYYSHYWTQGSAOCCUOU05CVESODK","A2N4DD7IS7EI2D","31YWE12TE0YV78PCVO9WO2QLDWO7XY","","null","<img src=""img/food1.png"" style=""width:200px;border:14px solid red;"">","null","","","","","","","","","",""
"","image-keyboard-response","134","87308","0.0-134.0","3KYQYYSHYWTQGSAOCCUOU05CVESODK","A2N4DD7IS7EI2D","31YWE12TE0YV78PCVO9WO2QLDWO7XY","","145.70000004768372","img/food5.png","76","146.80000001192093","3","1","1","1","1,0.5,0,1,0.5,0,0.5,0,1","0.5,0,1,0.5,0,1,0,1,0.5","2","",""
"","html-keyboard-response","135","87611","0.0-135.0","3KYQYYSHYWTQGSAOCCUOU05CVESODK","A2N4DD7IS7EI2D","31YWE12TE0YV78PCVO9WO2QLDWO7XY","","null","<img src=""img/food5.png"" style=""width:200px; border:14px solid green;"">","null","","","","","","","","","",""
"","image-keyboard-response","136","88107","0.0-136.0","3KYQYYSHYWTQGSAOCCUOU05CVESODK","A2N4DD7IS7EI2D","31YWE12TE0YV78PCVO9WO2QLDWO7XY","","494.60000002384186","img/food1.png","76","496.0999999642372","3","1","2","1","1,0.5,0,1,0.5,0,0.5,0,1","0.5,0,1,0.5,0,1,0,1,0.5","2","",""
"","html-keyboard-response","137","88410","0.0-137.0","3KYQYYSHYWTQGSAOCCUOU05CVESODK","A2N4DD7IS7EI2D","31YWE12TE0YV78PCVO9WO2QLDWO7XY","","null","<img src=""img/food1.png"" style=""width:200px; border:14px solid green;"">","null","","","","","","","","","",""
"","image-keyboard-response","138","88825","0.0-138.0","3KYQYYSHYWTQGSAOCCUOU05CVESODK","A2N4DD7IS7EI2D","31YWE12TE0YV78PCVO9WO2QLDWO7XY","","413.60000002384186","img/food4.png","76","414.89999997615814","3","1","3","1","1,0.5,0,1,0.5,0,0.5,0,1","0.5,0,1,0.5,0,1,0,1,0.5","2","",""
"","html-keyboard-response","139","89128","0.0-139.0","3KYQYYSHYWTQGSAOCCUOU05CVESODK","A2N4DD7IS7EI2D","31YWE12TE0YV78PCVO9WO2QLDWO7XY","","null","<img src=""img/food4.png"" style=""width:200px; border:14px solid green;"">","null","","","","","","","","","",""
"","image-keyboard-response","140","89632","0.0-140.0","3KYQYYSHYWTQGSAOCCUOU05CVESODK","A2N4DD7IS7EI2D","31YWE12TE0YV78PCVO9WO2QLDWO7XY","","503","img/food1.png","75","504.30000001192093","2","0","2","1","1,0.5,0,1,0.5,0,0.5,0,1","0.5,0,1,0.5,0,1,0,1,0.5","2","",""
"","html-keyboard-response","141","89944","0.0-141.0","3KYQYYSHYWTQGSAOCCUOU05CVESODK","A2N4DD7IS7EI2D","31YWE12TE0YV78PCVO9WO2QLDWO7XY","","null","<img src=""img/food1.png"" style=""width:200px;border:14px solid red;"">","null","","","","","","","","","",""
"","image-keyboard-response","142","90389","0.0-142.0","3KYQYYSHYWTQGSAOCCUOU05CVESODK","A2N4DD7IS7EI2D","31YWE12TE0YV78PCVO9WO2QLDWO7XY","","443.5","img/food1.png","75","444.80000001192093","2","0","2","1","1,0.5,0,1,0.5,0,0.5,0,1","0.5,0,1,0.5,0,1,0,1,0.5","2","",""
"","html-keyboard-response","143","90692","0.0-143.0","3KYQYYSHYWTQGSAOCCUOU05CVESODK","A2N4DD7IS7EI2D","31YWE12TE0YV78PCVO9WO2QLDWO7XY","","null","<img src=""img/food1.png"" style=""width:200px;border:14px solid red;"">","null","","","","","","","","","",""
"","image-keyboard-response","144","90958","0.0-144.0","3KYQYYSHYWTQGSAOCCUOU05CVESODK","A2N4DD7IS7EI2D","31YWE12TE0YV78PCVO9WO2QLDWO7XY","","264.5999999642372","img/food1.png","74","266","1","1","2","1","1,0.5,0,1,0.5,0,0.5,0,1","0.5,0,1,0.5,0,1,0,1,0.5","2","",""
"","html-keyboard-response","145","91260","0.0-145.0","3KYQYYSHYWTQGSAOCCUOU05CVESODK","A2N4DD7IS7EI2D","31YWE12TE0YV78PCVO9WO2QLDWO7XY","","null","<img src=""img/food1.png"" style=""width:200px; border:14px solid green;"">","null","","","","","","","","","",""
"","image-keyboard-response","146","91704","0.0-146.0","3KYQYYSHYWTQGSAOCCUOU05CVESODK","A2N4DD7IS7EI2D","31YWE12TE0YV78PCVO9WO2QLDWO7XY","","442.30000001192093","img/food5.png","75","443.5999999642372","2","0","1","1","1,0.5,0,1,0.5,0,0.5,0,1","0.5,0,1,0.5,0,1,0,1,0.5","2","",""
"","html-keyboard-response","147","92006","0.0-147.0","3KYQYYSHYWTQGSAOCCUOU05CVESODK","A2N4DD7IS7EI2D","31YWE12TE0YV78PCVO9WO2QLDWO7XY","","null","<img src=""img/food5.png"" style=""width:200px;border:14px solid red;"">","null","","","","","","","","","",""
"","image-keyboard-response","148","92359","0.0-148.0","3KYQYYSHYWTQGSAOCCUOU05CVESODK","A2N4DD7IS7EI2D","31YWE12TE0YV78PCVO9WO2QLDWO7XY","","350.69999998807907","img/food1.png","76","352.39999997615814","3","1","2","1","1,0.5,0,1,0.5,0,0.5,0,1","0.5,0,1,0.5,0,1,0,1,0.5","2","",""
"","html-keyboard-response","149","92661","0.0-149.0","3KYQYYSHYWTQGSAOCCUOU05CVESODK","A2N4DD7IS7EI2D","31YWE12TE0YV78PCVO9WO2QLDWO7XY","","null","<img src=""img/food1.png"" style=""width:200px; border:14px solid green;"">","null","","","","","","","","","",""
"","image-keyboard-response","150","93018","0.0-150.0","3KYQYYSHYWTQGSAOCCUOU05CVESODK","A2N4DD7IS7EI2D","31YWE12TE0YV78PCVO9WO2QLDWO7XY","","354.89999997615814","img/food5.png","76","356.5","3","1","1","1","1,0.5,0,1,0.5,0,0.5,0,1","0.5,0,1,0.5,0,1,0,1,0.5","2","",""
"","html-keyboard-response","151","93320","0.0-151.0","3KYQYYSHYWTQGSAOCCUOU05CVESODK","A2N4DD7IS7EI2D","31YWE12TE0YV78PCVO9WO2QLDWO7XY","","null","<img src=""img/food5.png"" style=""width:200px; border:14px solid green;"">","null","","","","","","","","","",""
"","image-keyboard-response","152","93717","0.0-152.0","3KYQYYSHYWTQGSAOCCUOU05CVESODK","A2N4DD7IS7EI2D","31YWE12TE0YV78PCVO9WO2QLDWO7XY","","395.5","img/food4.png","76","396.9000000357628","3","1","3","1","1,0.5,0,1,0.5,0,0.5,0,1","0.5,0,1,0.5,0,1,0,1,0.5","2","",""
"","html-keyboard-response","153","94019","0.0-153.0","3KYQYYSHYWTQGSAOCCUOU05CVESODK","A2N4DD7IS7EI2D","31YWE12TE0YV78PCVO9WO2QLDWO7XY","","null","<img src=""img/food4.png"" style=""width:200px; border:14px solid green;"">","null","","","","","","","","","",""
"","image-keyboard-response","154","94378","0.0-154.0","3KYQYYSHYWTQGSAOCCUOU05CVESODK","A2N4DD7IS7EI2D","31YWE12TE0YV78PCVO9WO2QLDWO7XY","","357.19999998807907","img/food4.png","76","358.30000001192093","3","0","3","1","1,0.5,0,1,0.5,0,0.5,0,1","0.5,0,1,0.5,0,1,0,1,0.5","2","",""
"","html-keyboard-response","155","94680","0.0-155.0","3KYQYYSHYWTQGSAOCCUOU05CVESODK","A2N4DD7IS7EI2D","31YWE12TE0YV78PCVO9WO2QLDWO7XY","","null","<img src=""img/food4.png"" style=""width:200px;border:14px solid red;"">","null","","","","","","","","","",""
"","image-keyboard-response","156","95085","0.0-156.0","3KYQYYSHYWTQGSAOCCUOU05CVESODK","A2N4DD7IS7EI2D","31YWE12TE0YV78PCVO9WO2QLDWO7XY","","404.2000000476837","img/food5.png","75","405.30000001192093","2","0","1","1","1,0.5,0,1,0.5,0,0.5,0,1","0.5,0,1,0.5,0,1,0,1,0.5","2","",""
"","html-keyboard-response","157","95387","0.0-157.0","3KYQYYSHYWTQGSAOCCUOU05CVESODK","A2N4DD7IS7EI2D","31YWE12TE0YV78PCVO9WO2QLDWO7XY","","null","<img src=""img/food5.png"" style=""width:200px;border:14px solid red;"">","null","","","","","","","","","",""
"","image-keyboard-response","158","95711","0.0-158.0","3KYQYYSHYWTQGSAOCCUOU05CVESODK","A2N4DD7IS7EI2D","31YWE12TE0YV78PCVO9WO2QLDWO7XY","","322.30000001192093","img/food4.png","74","323.4000000357628","1","0","3","1","1,0.5,0,1,0.5,0,0.5,0,1","0.5,0,1,0.5,0,1,0,1,0.5","2","",""
"","html-keyboard-response","159","96012","0.0-159.0","3KYQYYSHYWTQGSAOCCUOU05CVESODK","A2N4DD7IS7EI2D","31YWE12TE0YV78PCVO9WO2QLDWO7XY","","null","<img src=""img/food4.png"" style=""width:200px;border:14px solid red;"">","null","","","","","","","","","",""
"","image-keyboard-response","160","96373","0.0-160.0","3KYQYYSHYWTQGSAOCCUOU05CVESODK","A2N4DD7IS7EI2D","31YWE12TE0YV78PCVO9WO2QLDWO7XY","","360.2000000476837","img/food1.png","75","361.2000000476837","2","0","2","1","1,0.5,0,1,0.5,0,0.5,0,1","0.5,0,1,0.5,0,1,0,1,0.5","2","",""
"","html-keyboard-response","161","96676","0.0-161.0","3KYQYYSHYWTQGSAOCCUOU05CVESODK","A2N4DD7IS7EI2D","31YWE12TE0YV78PCVO9WO2QLDWO7XY","","null","<img src=""img/food1.png"" style=""width:200px;border:14px solid red;"">","null","","","","","","","","","",""
"","image-keyboard-response","162","96942","0.0-162.0","3KYQYYSHYWTQGSAOCCUOU05CVESODK","A2N4DD7IS7EI2D","31YWE12TE0YV78PCVO9WO2QLDWO7XY","","264.89999997615814","img/food1.png","74","266.0999999642372","1","1","2","1","1,0.5,0,1,0.5,0,0.5,0,1","0.5,0,1,0.5,0,1,0,1,0.5","2","",""
"","html-keyboard-response","163","97244","0.0-163.0","3KYQYYSHYWTQGSAOCCUOU05CVESODK","A2N4DD7IS7EI2D","31YWE12TE0YV78PCVO9WO2QLDWO7XY","","null","<img src=""img/food1.png"" style=""width:200px; border:14px solid green;"">","null","","","","","","","","","",""
"","image-keyboard-response","164","97528","0.0-164.0","3KYQYYSHYWTQGSAOCCUOU05CVESODK","A2N4DD7IS7EI2D","31YWE12TE0YV78PCVO9WO2QLDWO7XY","","282.5","img/food5.png","74","283.5","1","1","1","1","1,0.5,0,1,0.5,0,0.5,0,1","0.5,0,1,0.5,0,1,0,1,0.5","2","",""
"","html-keyboard-response","165","97830","0.0-165.0","3KYQYYSHYWTQGSAOCCUOU05CVESODK","A2N4DD7IS7EI2D","31YWE12TE0YV78PCVO9WO2QLDWO7XY","","null","<img src=""img/food5.png"" style=""width:200px; border:14px solid green;"">","null","","","","","","","","","",""
"","image-keyboard-response","166","98380","0.0-166.0","3KYQYYSHYWTQGSAOCCUOU05CVESODK","A2N4DD7IS7EI2D","31YWE12TE0YV78PCVO9WO2QLDWO7XY","","548.5","img/food1.png","74","549.8000000119209","1","1","2","1","1,0.5,0,1,0.5,0,0.5,0,1","0.5,0,1,0.5,0,1,0,1,0.5","2","",""
"","html-keyboard-response","167","98683","0.0-167.0","3KYQYYSHYWTQGSAOCCUOU05CVESODK","A2N4DD7IS7EI2D","31YWE12TE0YV78PCVO9WO2QLDWO7XY","","null","<img src=""img/food1.png"" style=""width:200px; border:14px solid green;"">","null","","","","","","","","","",""
"","image-keyboard-response","168","99062","0.0-168.0","3KYQYYSHYWTQGSAOCCUOU05CVESODK","A2N4DD7IS7EI2D","31YWE12TE0YV78PCVO9WO2QLDWO7XY","","377.69999998807907","img/food4.png","74","379.19999998807907","1","0","3","1","1,0.5,0,1,0.5,0,0.5,0,1","0.5,0,1,0.5,0,1,0,1,0.5","2","",""
"","html-keyboard-response","169","99365","0.0-169.0","3KYQYYSHYWTQGSAOCCUOU05CVESODK","A2N4DD7IS7EI2D","31YWE12TE0YV78PCVO9WO2QLDWO7XY","","null","<img src=""img/food4.png"" style=""width:200px;border:14px solid red;"">","null","","","","","","","","","",""
"","image-keyboard-response","170","99638","0.0-170.0","3KYQYYSHYWTQGSAOCCUOU05CVESODK","A2N4DD7IS7EI2D","31YWE12TE0YV78PCVO9WO2QLDWO7XY","","270.69999998807907","img/food5.png","76","271.9000000357628","3","1","1","1","1,0.5,0,1,0.5,0,0.5,0,1","0.5,0,1,0.5,0,1,0,1,0.5","2","",""
"","html-keyboard-response","171","99940","0.0-171.0","3KYQYYSHYWTQGSAOCCUOU05CVESODK","A2N4DD7IS7EI2D","31YWE12TE0YV78PCVO9WO2QLDWO7XY","","null","<img src=""img/food5.png"" style=""width:200px; border:14px solid green;"">","null","","","","","","","","","",""
"","image-keyboard-response","172","100265","0.0-172.0","3KYQYYSHYWTQGSAOCCUOU05CVESODK","A2N4DD7IS7EI2D","31YWE12TE0YV78PCVO9WO2QLDWO7XY","","323.9000000357628","img/food1.png","76","325","3","1","2","1","1,0.5,0,1,0.5,0,0.5,0,1","0.5,0,1,0.5,0,1,0,1,0.5","2","",""
"","html-keyboard-response","173","100568","0.0-173.0","3KYQYYSHYWTQGSAOCCUOU05CVESODK","A2N4DD7IS7EI2D","31YWE12TE0YV78PCVO9WO2QLDWO7XY","","null","<img src=""img/food1.png"" style=""width:200px; border:14px solid green;"">","null","","","","","","","","","",""
"","image-keyboard-response","174","101001","0.0-174.0","3KYQYYSHYWTQGSAOCCUOU05CVESODK","A2N4DD7IS7EI2D","31YWE12TE0YV78PCVO9WO2QLDWO7XY","","431.30000001192093","img/food4.png","76","432.30000001192093","3","1","3","1","1,0.5,0,1,0.5,0,0.5,0,1","0.5,0,1,0.5,0,1,0,1,0.5","2","",""
"","html-keyboard-response","175","101302","0.0-175.0","3KYQYYSHYWTQGSAOCCUOU05CVESODK","A2N4DD7IS7EI2D","31YWE12TE0YV78PCVO9WO2QLDWO7XY","","null","<img src=""img/food4.png"" style=""width:200px; border:14px solid green;"">","null","","","","","","","","","",""
"","image-keyboard-response","176","101697","0.0-176.0","3KYQYYSHYWTQGSAOCCUOU05CVESODK","A2N4DD7IS7EI2D","31YWE12TE0YV78PCVO9WO2QLDWO7XY","","392.60000002384186","img/food5.png","75","394.2000000476837","2","0","1","1","1,0.5,0,1,0.5,0,0.5,0,1","0.5,0,1,0.5,0,1,0,1,0.5","2","",""
"","html-keyboard-response","177","101999","0.0-177.0","3KYQYYSHYWTQGSAOCCUOU05CVESODK","A2N4DD7IS7EI2D","31YWE12TE0YV78PCVO9WO2QLDWO7XY","","null","<img src=""img/food5.png"" style=""width:200px;border:14px solid red;"">","null","","","","","","","","","",""
"","image-keyboard-response","178","102269","0.0-178.0","3KYQYYSHYWTQGSAOCCUOU05CVESODK","A2N4DD7IS7EI2D","31YWE12TE0YV78PCVO9WO2QLDWO7XY","","268.7000000476837","img/food4.png","76","269.69999998807907","3","1","3","1","1,0.5,0,1,0.5,0,0.5,0,1","0.5,0,1,0.5,0,1,0,1,0.5","2","",""
"","html-keyboard-response","179","102571","0.0-179.0","3KYQYYSHYWTQGSAOCCUOU05CVESODK","A2N4DD7IS7EI2D","31YWE12TE0YV78PCVO9WO2QLDWO7XY","","null","<img src=""img/food4.png"" style=""width:200px; border:14px solid green;"">","null","","","","","","","","","",""
"","image-keyboard-response","180","102879","0.0-180.0","3KYQYYSHYWTQGSAOCCUOU05CVESODK","A2N4DD7IS7EI2D","31YWE12TE0YV78PCVO9WO2QLDWO7XY","","307.10000002384186","img/food5.png","76","308.5","3","1","1","1","1,0.5,0,1,0.5,0,0.5,0,1","0.5,0,1,0.5,0,1,0,1,0.5","2","",""
"","html-keyboard-response","181","103181","0.0-181.0","3KYQYYSHYWTQGSAOCCUOU05CVESODK","A2N4DD7IS7EI2D","31YWE12TE0YV78PCVO9WO2QLDWO7XY","","null","<img src=""img/food5.png"" style=""width:200px; border:14px solid green;"">","null","","","","","","","","","",""
"","html-keyboard-response","182","105881","0.0-182.0","3KYQYYSHYWTQGSAOCCUOU05CVESODK","A2N4DD7IS7EI2D","31YWE12TE0YV78PCVO9WO2QLDWO7XY","","","","","","","","","","","","","",""
"","instructions","183","117781","0.0-183.0","3KYQYYSHYWTQGSAOCCUOU05CVESODK","A2N4DD7IS7EI2D","31YWE12TE0YV78PCVO9WO2QLDWO7XY","[{""page_index"":0,""viewing_time"":10742.800000011921},{""page_index"":1,""viewing_time"":1154.5}]","11898","","","","","","","","","","","",""
"","image-keyboard-response","184","117838","0.0-184.0","3KYQYYSHYWTQGSAOCCUOU05CVESODK","A2N4DD7IS7EI2D","31YWE12TE0YV78PCVO9WO2QLDWO7XY","","55.30000001192093","img/food6.png","76","57","3","0","3","2","1,0.5,0,1,0.5,0,0.5,0,1","0,1,0.5,0,1,0.5,1,0.5,0","3","false",""
"","html-keyboard-response","185","118141","0.0-185.0","3KYQYYSHYWTQGSAOCCUOU05CVESODK","A2N4DD7IS7EI2D","31YWE12TE0YV78PCVO9WO2QLDWO7XY","","null","<img src=""img/food6.png"" style=""width:200px;border:14px solid red;"">","null","","","","","","","","","",""
"","image-keyboard-response","186","118372","0.0-187.0","3KYQYYSHYWTQGSAOCCUOU05CVESODK","A2N4DD7IS7EI2D","31YWE12TE0YV78PCVO9WO2QLDWO7XY","","229.20000004768372","img/food2.png","75","230.30000001192093","2","1","2","2","1,0.5,0,1,0.5,0,0.5,0,1","0,1,0.5,0,1,0.5,1,0.5,0","3","false",""
"","html-keyboard-response","187","118681","0.0-188.0","3KYQYYSHYWTQGSAOCCUOU05CVESODK","A2N4DD7IS7EI2D","31YWE12TE0YV78PCVO9WO2QLDWO7XY","","null","<img src=""img/food2.png"" style=""width:200px; border:14px solid green;"">","null","","","","","","","","","",""
"","image-keyboard-response","188","118889","0.0-190.0","3KYQYYSHYWTQGSAOCCUOU05CVESODK","A2N4DD7IS7EI2D","31YWE12TE0YV78PCVO9WO2QLDWO7XY","","206.30000001192093","img/food6.png","75","207.5","2","1","3","2","1,0.5,0,1,0.5,0,0.5,0,1","0,1,0.5,0,1,0.5,1,0.5,0","3","false",""
"","html-keyboard-response","189","119191","0.0-191.0","3KYQYYSHYWTQGSAOCCUOU05CVESODK","A2N4DD7IS7EI2D","31YWE12TE0YV78PCVO9WO2QLDWO7XY","","null","<img src=""img/food6.png"" style=""width:200px; border:14px solid green;"">","null","","","","","","","","","",""
"","image-keyboard-response","190","119480","0.0-193.0","3KYQYYSHYWTQGSAOCCUOU05CVESODK","A2N4DD7IS7EI2D","31YWE12TE0YV78PCVO9WO2QLDWO7XY","","287.5999999642372","img/food3.png","75","288.60000002384186","2","1","1","2","1,0.5,0,1,0.5,0,0.5,0,1","0,1,0.5,0,1,0.5,1,0.5,0","3","false",""
"","html-keyboard-response","191","119784","0.0-194.0","3KYQYYSHYWTQGSAOCCUOU05CVESODK","A2N4DD7IS7EI2D","31YWE12TE0YV78PCVO9WO2QLDWO7XY","","null","<img src=""img/food3.png"" style=""width:200px; border:14px solid green;"">","null","","","","","","","","","",""
"","image-keyboard-response","192","120021","0.0-196.0","3KYQYYSHYWTQGSAOCCUOU05CVESODK","A2N4DD7IS7EI2D","31YWE12TE0YV78PCVO9WO2QLDWO7XY","","235.30000001192093","img/food3.png","75","236.69999998807907","2","1","1","2","1,0.5,0,1,0.5,0,0.5,0,1","0,1,0.5,0,1,0.5,1,0.5,0","3","false",""
"","html-keyboard-response","193","120323","0.0-197.0","3KYQYYSHYWTQGSAOCCUOU05CVESODK","A2N4DD7IS7EI2D","31YWE12TE0YV78PCVO9WO2QLDWO7XY","","null","<img src=""img/food3.png"" style=""width:200px; border:14px solid green;"">","null","","","","","","","","","",""
"","image-keyboard-response","194","120584","0.0-199.0","3KYQYYSHYWTQGSAOCCUOU05CVESODK","A2N4DD7IS7EI2D","31YWE12TE0YV78PCVO9WO2QLDWO7XY","","259.39999997615814","img/food3.png","75","260.5","2","1","1","2","1,0.5,0,1,0.5,0,0.5,0,1","0,1,0.5,0,1,0.5,1,0.5,0","3","false",""
"","html-keyboard-response","195","120885","0.0-200.0","3KYQYYSHYWTQGSAOCCUOU05CVESODK","A2N4DD7IS7EI2D","31YWE12TE0YV78PCVO9WO2QLDWO7XY","","null","<img src=""img/food3.png"" style=""width:200px; border:14px solid green;"">","null","","","","","","","","","",""
"","image-keyboard-response","196","121063","0.0-202.0","3KYQYYSHYWTQGSAOCCUOU05CVESODK","A2N4DD7IS7EI2D","31YWE12TE0YV78PCVO9WO2QLDWO7XY","","176.5999999642372","img/food6.png","75","177.69999998807907","2","1","3","2","1,0.5,0,1,0.5,0,0.5,0,1","0,1,0.5,0,1,0.5,1,0.5,0","3","false",""
"","html-keyboard-response","197","121367","0.0-203.0","3KYQYYSHYWTQGSAOCCUOU05CVESODK","A2N4DD7IS7EI2D","31YWE12TE0YV78PCVO9WO2QLDWO7XY","","null","<img src=""img/food6.png"" style=""width:200px; border:14px solid green;"">","null","","","","","","","","","",""
"","image-keyboard-response","198","121576","0.0-205.0","3KYQYYSHYWTQGSAOCCUOU05CVESODK","A2N4DD7IS7EI2D","31YWE12TE0YV78PCVO9WO2QLDWO7XY","","207.19999998807907","img/food2.png","75","208.80000001192093","2","1","2","2","1,0.5,0,1,0.5,0,0.5,0,1","0,1,0.5,0,1,0.5,1,0.5,0","3","false",""
"","html-keyboard-response","199","121879","0.0-206.0","3KYQYYSHYWTQGSAOCCUOU05CVESODK","A2N4DD7IS7EI2D","31YWE12TE0YV78PCVO9WO2QLDWO7XY","","null","<img src=""img/food2.png"" style=""width:200px; border:14px solid green;"">","null","","","","","","","","","",""
"","image-keyboard-response","200","122074","0.0-208.0","3KYQYYSHYWTQGSAOCCUOU05CVESODK","A2N4DD7IS7EI2D","31YWE12TE0YV78PCVO9WO2QLDWO7XY","","193.89999997615814","img/food6.png","75","195.19999998807907","2","0","3","2","1,0.5,0,1,0.5,0,0.5,0,1","0,1,0.5,0,1,0.5,1,0.5,0","3","false",""
"","html-keyboard-response","201","122376","0.0-209.0","3KYQYYSHYWTQGSAOCCUOU05CVESODK","A2N4DD7IS7EI2D","31YWE12TE0YV78PCVO9WO2QLDWO7XY","","null","<img src=""img/food6.png"" style=""width:200px;border:14px solid red;"">","null","","","","","","","","","",""
"","image-keyboard-response","202","122569","0.0-211.0","3KYQYYSHYWTQGSAOCCUOU05CVESODK","A2N4DD7IS7EI2D","31YWE12TE0YV78PCVO9WO2QLDWO7XY","","190.5999999642372","img/food3.png","74","192.30000001192093","1","0","1","2","1,0.5,0,1,0.5,0,0.5,0,1","0,1,0.5,0,1,0.5,1,0.5,0","3","false",""
"","html-keyboard-response","203","122872","0.0-212.0","3KYQYYSHYWTQGSAOCCUOU05CVESODK","A2N4DD7IS7EI2D","31YWE12TE0YV78PCVO9WO2QLDWO7XY","","null","<img src=""img/food3.png"" style=""width:200px;border:14px solid red;"">","null","","","","","","","","","",""
"","image-keyboard-response","204","123019","0.0-214.0","3KYQYYSHYWTQGSAOCCUOU05CVESODK","A2N4DD7IS7EI2D","31YWE12TE0YV78PCVO9WO2QLDWO7XY","","145.60000002384186","img/food2.png","76","146.60000002384186","3","0","2","2","1,0.5,0,1,0.5,0,0.5,0,1","0,1,0.5,0,1,0.5,1,0.5,0","3","false",""
"","html-keyboard-response","205","123321","0.0-215.0","3KYQYYSHYWTQGSAOCCUOU05CVESODK","A2N4DD7IS7EI2D","31YWE12TE0YV78PCVO9WO2QLDWO7XY","","null","<img src=""img/food2.png"" style=""width:200px;border:14px solid red;"">","null","","","","","","","","","",""
"","image-keyboard-response","206","123500","0.0-217.0","3KYQYYSHYWTQGSAOCCUOU05CVESODK","A2N4DD7IS7EI2D","31YWE12TE0YV78PCVO9WO2QLDWO7XY","","177","img/food3.png","76","178.30000001192093","3","0","1","2","1,0.5,0,1,0.5,0,0.5,0,1","0,1,0.5,0,1,0.5,1,0.5,0","3","false",""
"","html-keyboard-response","207","123805","0.0-218.0","3KYQYYSHYWTQGSAOCCUOU05CVESODK","A2N4DD7IS7EI2D","31YWE12TE0YV78PCVO9WO2QLDWO7XY","","null","<img src=""img/food3.png"" style=""width:200px;border:14px solid red;"">","null","","","","","","","","","",""
"","image-keyboard-response","208","123971","0.0-220.0","3KYQYYSHYWTQGSAOCCUOU05CVESODK","A2N4DD7IS7EI2D","31YWE12TE0YV78PCVO9WO2QLDWO7XY","","164.5","img/food2.png","75","165.80000001192093","2","1","2","2","1,0.5,0,1,0.5,0,0.5,0,1","0,1,0.5,0,1,0.5,1,0.5,0","3","false",""
"","html-keyboard-response","209","124273","0.0-221.0","3KYQYYSHYWTQGSAOCCUOU05CVESODK","A2N4DD7IS7EI2D","31YWE12TE0YV78PCVO9WO2QLDWO7XY","","null","<img src=""img/food2.png"" style=""width:200px; border:14px solid green;"">","null","","","","","","","","","",""
"","image-keyboard-response","210","124411","0.0-223.0","3KYQYYSHYWTQGSAOCCUOU05CVESODK","A2N4DD7IS7EI2D","31YWE12TE0YV78PCVO9WO2QLDWO7XY","","136","img/food3.png","75","137.4000000357628","2","1","1","2","1,0.5,0,1,0.5,0,0.5,0,1","0,1,0.5,0,1,0.5,1,0.5,0","3","false",""
"","html-keyboard-response","211","124713","0.0-224.0","3KYQYYSHYWTQGSAOCCUOU05CVESODK","A2N4DD7IS7EI2D","31YWE12TE0YV78PCVO9WO2QLDWO7XY","","null","<img src=""img/food3.png"" style=""width:200px; border:14px solid green;"">","null","","","","","","","","","",""
"","image-keyboard-response","212","124851","0.0-226.0","3KYQYYSHYWTQGSAOCCUOU05CVESODK","A2N4DD7IS7EI2D","31YWE12TE0YV78PCVO9WO2QLDWO7XY","","136.30000001192093","img/food3.png","75","137.30000001192093","2","1","1","2","1,0.5,0,1,0.5,0,0.5,0,1","0,1,0.5,0,1,0.5,1,0.5,0","3","false",""
"","html-keyboard-response","213","125155","0.0-227.0","3KYQYYSHYWTQGSAOCCUOU05CVESODK","A2N4DD7IS7EI2D","31YWE12TE0YV78PCVO9WO2QLDWO7XY","","null","<img src=""img/food3.png"" style=""width:200px; border:14px solid green;"">","null","","","","","","","","","",""
"","image-keyboard-response","214","125304","0.0-229.0","3KYQYYSHYWTQGSAOCCUOU05CVESODK","A2N4DD7IS7EI2D","31YWE12TE0YV78PCVO9WO2QLDWO7XY","","147","img/food2.png","75","148.19999998807907","2","1","2","2","1,0.5,0,1,0.5,0,0.5,0,1","0,1,0.5,0,1,0.5,1,0.5,0","3","false",""
"","html-keyboard-response","215","125606","0.0-230.0","3KYQYYSHYWTQGSAOCCUOU05CVESODK","A2N4DD7IS7EI2D","31YWE12TE0YV78PCVO9WO2QLDWO7XY","","null","<img src=""img/food2.png"" style=""width:200px; border:14px solid green;"">","null","","","","","","","","","",""
"","image-keyboard-response","216","125762","0.0-232.0","3KYQYYSHYWTQGSAOCCUOU05CVESODK","A2N4DD7IS7EI2D","31YWE12TE0YV78PCVO9WO2QLDWO7XY","","153.19999998807907","img/food6.png","75","154.9000000357628","2","1","3","2","1,0.5,0,1,0.5,0,0.5,0,1","0,1,0.5,0,1,0.5,1,0.5,0","3","false",""
"","html-keyboard-response","217","126064","0.0-233.0","3KYQYYSHYWTQGSAOCCUOU05CVESODK","A2N4DD7IS7EI2D","31YWE12TE0YV78PCVO9WO2QLDWO7XY","","null","<img src=""img/food6.png"" style=""width:200px; border:14px solid green;"">","null","","","","","","","","","",""
"","image-keyboard-response","218","126197","0.0-235.0","3KYQYYSHYWTQGSAOCCUOU05CVESODK","A2N4DD7IS7EI2D","31YWE12TE0YV78PCVO9WO2QLDWO7XY","","131.4000000357628","img/food6.png","75","132.80000001192093","2","0","3","2","1,0.5,0,1,0.5,0,0.5,0,1","0,1,0.5,0,1,0.5,1,0.5,0","3","false",""
"","html-keyboard-response","219","126500","0.0-236.0","3KYQYYSHYWTQGSAOCCUOU05CVESODK","A2N4DD7IS7EI2D","31YWE12TE0YV78PCVO9WO2QLDWO7XY","","null","<img src=""img/food6.png"" style=""width:200px;border:14px solid red;"">","null","","","","","","","","","",""
"","image-keyboard-response","220","126691","0.0-238.0","3KYQYYSHYWTQGSAOCCUOU05CVESODK","A2N4DD7IS7EI2D","31YWE12TE0YV78PCVO9WO2QLDWO7XY","","190.19999998807907","img/food6.png","74","191.39999997615814","1","1","3","2","1,0.5,0,1,0.5,0,0.5,0,1","0,1,0.5,0,1,0.5,1,0.5,0","3","false",""
"","html-keyboard-response","221","126995","0.0-239.0","3KYQYYSHYWTQGSAOCCUOU05CVESODK","A2N4DD7IS7EI2D","31YWE12TE0YV78PCVO9WO2QLDWO7XY","","null","<img src=""img/food6.png"" style=""width:200px; border:14px solid green;"">","null","","","","","","","","","",""
"","image-keyboard-response","222","127117","0.0-241.0","3KYQYYSHYWTQGSAOCCUOU05CVESODK","A2N4DD7IS7EI2D","31YWE12TE0YV78PCVO9WO2QLDWO7XY","","120.69999998807907","img/food6.png","74","121.80000001192093","1","1","3","2","1,0.5,0,1,0.5,0,0.5,0,1","0,1,0.5,0,1,0.5,1,0.5,0","3","false",""
"","html-keyboard-response","223","127419","0.0-242.0","3KYQYYSHYWTQGSAOCCUOU05CVESODK","A2N4DD7IS7EI2D","31YWE12TE0YV78PCVO9WO2QLDWO7XY","","null","<img src=""img/food6.png"" style=""width:200px; border:14px solid green;"">","null","","","","","","","","","",""
"","image-keyboard-response","224","127554","0.0-244.0","3KYQYYSHYWTQGSAOCCUOU05CVESODK","A2N4DD7IS7EI2D","31YWE12TE0YV78PCVO9WO2QLDWO7XY","","133.10000002384186","img/food3.png","74","134.39999997615814","1","0","1","2","1,0.5,0,1,0.5,0,0.5,0,1","0,1,0.5,0,1,0.5,1,0.5,0","3","false",""
"","html-keyboard-response","225","127858","0.0-245.0","3KYQYYSHYWTQGSAOCCUOU05CVESODK","A2N4DD7IS7EI2D","31YWE12TE0YV78PCVO9WO2QLDWO7XY","","null","<img src=""img/food3.png"" style=""width:200px;border:14px solid red;"">","null","","","","","","","","","",""
"","image-keyboard-response","226","128113","0.0-247.0","3KYQYYSHYWTQGSAOCCUOU05CVESODK","A2N4DD7IS7EI2D","31YWE12TE0YV78PCVO9WO2QLDWO7XY","","252.89999997615814","img/food2.png","75","254.79999995231628","2","1","2","2","1,0.5,0,1,0.5,0,0.5,0,1","0,1,0.5,0,1,0.5,1,0.5,0","3","false",""
"","html-keyboard-response","227","128416","0.0-248.0","3KYQYYSHYWTQGSAOCCUOU05CVESODK","A2N4DD7IS7EI2D","31YWE12TE0YV78PCVO9WO2QLDWO7XY","","null","<img src=""img/food2.png"" style=""width:200px; border:14px solid green;"">","null","","","","","","","","","",""
"","image-keyboard-response","228","128546","0.0-250.0","3KYQYYSHYWTQGSAOCCUOU05CVESODK","A2N4DD7IS7EI2D","31YWE12TE0YV78PCVO9WO2QLDWO7XY","","127.89999997615814","img/food2.png","75","129.39999997615814","2","1","2","2","1,0.5,0,1,0.5,0,0.5,0,1","0,1,0.5,0,1,0.5,1,0.5,0","3","false",""
"","html-keyboard-response","229","128862","0.0-251.0","3KYQYYSHYWTQGSAOCCUOU05CVESODK","A2N4DD7IS7EI2D","31YWE12TE0YV78PCVO9WO2QLDWO7XY","","null","<img src=""img/food2.png"" style=""width:200px; border:14px solid green;"">","null","","","","","","","","","",""
"","image-keyboard-response","230","128952","0.0-253.0","3KYQYYSHYWTQGSAOCCUOU05CVESODK","A2N4DD7IS7EI2D","31YWE12TE0YV78PCVO9WO2QLDWO7XY","","88.40000003576279","img/food6.png","75","89.40000003576279","2","0","3","2","1,0.5,0,1,0.5,0,0.5,0,1","0,1,0.5,0,1,0.5,1,0.5,0","3","false",""
"","html-keyboard-response","231","129265","0.0-254.0","3KYQYYSHYWTQGSAOCCUOU05CVESODK","A2N4DD7IS7EI2D","31YWE12TE0YV78PCVO9WO2QLDWO7XY","","null","<img src=""img/food6.png"" style=""width:200px;border:14px solid red;"">","null","","","","","","","","","",""
"","image-keyboard-response","232","129442","0.0-256.0","3KYQYYSHYWTQGSAOCCUOU05CVESODK","A2N4DD7IS7EI2D","31YWE12TE0YV78PCVO9WO2QLDWO7XY","","175.29999995231628","img/food6.png","76","176.5999999642372","3","0","3","2","1,0.5,0,1,0.5,0,0.5,0,1","0,1,0.5,0,1,0.5,1,0.5,0","3","false",""
"","html-keyboard-response","233","129744","0.0-257.0","3KYQYYSHYWTQGSAOCCUOU05CVESODK","A2N4DD7IS7EI2D","31YWE12TE0YV78PCVO9WO2QLDWO7XY","","null","<img src=""img/food6.png"" style=""width:200px;border:14px solid red;"">","null","","","","","","","","","",""
"","image-keyboard-response","234","129912","0.0-259.0","3KYQYYSHYWTQGSAOCCUOU05CVESODK","A2N4DD7IS7EI2D","31YWE12TE0YV78PCVO9WO2QLDWO7XY","","166.10000002384186","img/food3.png","76","167.30000001192093","3","0","1","2","1,0.5,0,1,0.5,0,0.5,0,1","0,1,0.5,0,1,0.5,1,0.5,0","3","false",""
"","html-keyboard-response","235","130215","0.0-260.0","3KYQYYSHYWTQGSAOCCUOU05CVESODK","A2N4DD7IS7EI2D","31YWE12TE0YV78PCVO9WO2QLDWO7XY","","null","<img src=""img/food3.png"" style=""width:200px;border:14px solid red;"">","null","","","","","","","","","",""
"","image-keyboard-response","236","130349","0.0-262.0","3KYQYYSHYWTQGSAOCCUOU05CVESODK","A2N4DD7IS7EI2D","31YWE12TE0YV78PCVO9WO2QLDWO7XY","","132.80000001192093","img/food6.png","76","133.79999995231628","3","0","3","2","1,0.5,0,1,0.5,0,0.5,0,1","0,1,0.5,0,1,0.5,1,0.5,0","3","false",""
"","html-keyboard-response","237","130651","0.0-263.0","3KYQYYSHYWTQGSAOCCUOU05CVESODK","A2N4DD7IS7EI2D","31YWE12TE0YV78PCVO9WO2QLDWO7XY","","null","<img src=""img/food6.png"" style=""width:200px;border:14px solid red;"">","null","","","","","","","","","",""
"","image-keyboard-response","238","130860","0.0-265.0","3KYQYYSHYWTQGSAOCCUOU05CVESODK","A2N4DD7IS7EI2D","31YWE12TE0YV78PCVO9WO2QLDWO7XY","","206.19999998807907","img/food2.png","76","207.89999997615814","3","1","2","2","1,0.5,0,1,0.5,0,0.5,0,1","0,1,0.5,0,1,0.5,1,0.5,0","3","false",""
"","html-keyboard-response","239","131162","0.0-266.0","3KYQYYSHYWTQGSAOCCUOU05CVESODK","A2N4DD7IS7EI2D","31YWE12TE0YV78PCVO9WO2QLDWO7XY","","null","<img src=""img/food2.png"" style=""width:200px; border:14px solid green;"">","null","","","","","","","","","",""
"","image-keyboard-response","240","131185","0.0-268.0","3KYQYYSHYWTQGSAOCCUOU05CVESODK","A2N4DD7IS7EI2D","31YWE12TE0YV78PCVO9WO2QLDWO7XY","","21","img/food6.png","75","22","2","0","3","2","1,0.5,0,1,0.5,0,0.5,0,1","0,1,0.5,0,1,0.5,1,0.5,0","3","false",""
"","html-keyboard-response","241","131496","0.0-269.0","3KYQYYSHYWTQGSAOCCUOU05CVESODK","A2N4DD7IS7EI2D","31YWE12TE0YV78PCVO9WO2QLDWO7XY","","null","<img src=""img/food6.png"" style=""width:200px;border:14px solid red;"">","null","","","","","","","","","",""
"","image-keyboard-response","242","131677","0.0-271.0","3KYQYYSHYWTQGSAOCCUOU05CVESODK","A2N4DD7IS7EI2D","31YWE12TE0YV78PCVO9WO2QLDWO7XY","","179.9000000357628","img/food2.png","75","181.19999998807907","2","1","2","2","1,0.5,0,1,0.5,0,0.5,0,1","0,1,0.5,0,1,0.5,1,0.5,0","3","false",""
"","html-keyboard-response","243","131979","0.0-272.0","3KYQYYSHYWTQGSAOCCUOU05CVESODK","A2N4DD7IS7EI2D","31YWE12TE0YV78PCVO9WO2QLDWO7XY","","null","<img src=""img/food2.png"" style=""width:200px; border:14px solid green;"">","null","","","","","","","","","",""
"","image-keyboard-response","244","132217","0.0-274.0","3KYQYYSHYWTQGSAOCCUOU05CVESODK","A2N4DD7IS7EI2D","31YWE12TE0YV78PCVO9WO2QLDWO7XY","","235.79999995231628","img/food2.png","75","237.20000004768372","2","1","2","2","1,0.5,0,1,0.5,0,0.5,0,1","0,1,0.5,0,1,0.5,1,0.5,0","3","false",""
"","html-keyboard-response","245","132519","0.0-275.0","3KYQYYSHYWTQGSAOCCUOU05CVESODK","A2N4DD7IS7EI2D","31YWE12TE0YV78PCVO9WO2QLDWO7XY","","null","<img src=""img/food2.png"" style=""width:200px; border:14px solid green;"">","null","","","","","","","","","",""
"","image-keyboard-response","246","132658","0.0-277.0","3KYQYYSHYWTQGSAOCCUOU05CVESODK","A2N4DD7IS7EI2D","31YWE12TE0YV78PCVO9WO2QLDWO7XY","","137.0999999642372","img/food2.png","75","138.29999995231628","2","1","2","2","1,0.5,0,1,0.5,0,0.5,0,1","0,1,0.5,0,1,0.5,1,0.5,0","3","false",""
"","html-keyboard-response","247","132961","0.0-278.0","3KYQYYSHYWTQGSAOCCUOU05CVESODK","A2N4DD7IS7EI2D","31YWE12TE0YV78PCVO9WO2QLDWO7XY","","null","<img src=""img/food2.png"" style=""width:200px; border:14px solid green;"">","null","","","","","","","","","",""
"","image-keyboard-response","248","133161","0.0-280.0","3KYQYYSHYWTQGSAOCCUOU05CVESODK","A2N4DD7IS7EI2D","31YWE12TE0YV78PCVO9WO2QLDWO7XY","","197.89999997615814","img/food3.png","75","199.0999999642372","2","1","1","2","1,0.5,0,1,0.5,0,0.5,0,1","0,1,0.5,0,1,0.5,1,0.5,0","3","false",""
"","html-keyboard-response","249","133464","0.0-281.0","3KYQYYSHYWTQGSAOCCUOU05CVESODK","A2N4DD7IS7EI2D","31YWE12TE0YV78PCVO9WO2QLDWO7XY","","null","<img src=""img/food3.png"" style=""width:200px; border:14px solid green;"">","null","","","","","","","","","",""
"","image-keyboard-response","250","133595","0.0-283.0","3KYQYYSHYWTQGSAOCCUOU05CVESODK","A2N4DD7IS7EI2D","31YWE12TE0YV78PCVO9WO2QLDWO7XY","","128","img/food3.png","75","129.30000001192093","2","1","1","2","1,0.5,0,1,0.5,0,0.5,0,1","0,1,0.5,0,1,0.5,1,0.5,0","3","false",""
"","html-keyboard-response","251","133897","0.0-284.0","3KYQYYSHYWTQGSAOCCUOU05CVESODK","A2N4DD7IS7EI2D","31YWE12TE0YV78PCVO9WO2QLDWO7XY","","null","<img src=""img/food3.png"" style=""width:200px; border:14px solid green;"">","null","","","","","","","","","",""
"","image-keyboard-response","252","134021","0.0-286.0","3KYQYYSHYWTQGSAOCCUOU05CVESODK","A2N4DD7IS7EI2D","31YWE12TE0YV78PCVO9WO2QLDWO7XY","","121.69999998807907","img/food3.png","75","123.40000003576279","2","1","1","2","1,0.5,0,1,0.5,0,0.5,0,1","0,1,0.5,0,1,0.5,1,0.5,0","3","false",""
"","html-keyboard-response","253","134323","0.0-287.0","3KYQYYSHYWTQGSAOCCUOU05CVESODK","A2N4DD7IS7EI2D","31YWE12TE0YV78PCVO9WO2QLDWO7XY","","null","<img src=""img/food3.png"" style=""width:200px; border:14px solid green;"">","null","","","","","","","","","",""
"","image-keyboard-response","254","134419","0.0-289.0","3KYQYYSHYWTQGSAOCCUOU05CVESODK","A2N4DD7IS7EI2D","31YWE12TE0YV78PCVO9WO2QLDWO7XY","","94.09999996423721","img/food3.png","75","95.40000003576279","2","1","1","2","1,0.5,0,1,0.5,0,0.5,0,1","0,1,0.5,0,1,0.5,1,0.5,0","3","false",""
"","html-keyboard-response","255","134721","0.0-290.0","3KYQYYSHYWTQGSAOCCUOU05CVESODK","A2N4DD7IS7EI2D","31YWE12TE0YV78PCVO9WO2QLDWO7XY","","null","<img src=""img/food3.png"" style=""width:200px; border:14px solid green;"">","null","","","","","","","","","",""
"","image-keyboard-response","256","134827","0.0-292.0","3KYQYYSHYWTQGSAOCCUOU05CVESODK","A2N4DD7IS7EI2D","31YWE12TE0YV78PCVO9WO2QLDWO7XY","","104.89999997615814","img/food2.png","75","106.40000003576279","2","1","2","2","1,0.5,0,1,0.5,0,0.5,0,1","0,1,0.5,0,1,0.5,1,0.5,0","3","false",""
"","html-keyboard-response","257","135131","0.0-293.0","3KYQYYSHYWTQGSAOCCUOU05CVESODK","A2N4DD7IS7EI2D","31YWE12TE0YV78PCVO9WO2QLDWO7XY","","null","<img src=""img/food2.png"" style=""width:200px; border:14px solid green;"">","null","","","","","","","","","",""
"","image-keyboard-response","258","135280","0.0-295.0","3KYQYYSHYWTQGSAOCCUOU05CVESODK","A2N4DD7IS7EI2D","31YWE12TE0YV78PCVO9WO2QLDWO7XY","","147.10000002384186","img/food2.png","75","148.4000000357628","2","1","2","2","1,0.5,0,1,0.5,0,0.5,0,1","0,1,0.5,0,1,0.5,1,0.5,0","3","false",""
"","html-keyboard-response","259","135582","0.0-296.0","3KYQYYSHYWTQGSAOCCUOU05CVESODK","A2N4DD7IS7EI2D","31YWE12TE0YV78PCVO9WO2QLDWO7XY","","null","<img src=""img/food2.png"" style=""width:200px; border:14px solid green;"">","null","","","","","","","","","",""
"","image-keyboard-response","260","135653","0.0-298.0","3KYQYYSHYWTQGSAOCCUOU05CVESODK","A2N4DD7IS7EI2D","31YWE12TE0YV78PCVO9WO2QLDWO7XY","","69.40000003576279","img/food2.png","75","70.39999997615814","2","1","2","2","1,0.5,0,1,0.5,0,0.5,0,1","0,1,0.5,0,1,0.5,1,0.5,0","3","false",""
"","html-keyboard-response","261","135956","0.0-299.0","3KYQYYSHYWTQGSAOCCUOU05CVESODK","A2N4DD7IS7EI2D","31YWE12TE0YV78PCVO9WO2QLDWO7XY","","null","<img src=""img/food2.png"" style=""width:200px; border:14px solid green;"">","null","","","","","","","","","",""
"","image-keyboard-response","262","136056","0.0-301.0","3KYQYYSHYWTQGSAOCCUOU05CVESODK","A2N4DD7IS7EI2D","31YWE12TE0YV78PCVO9WO2QLDWO7XY","","97.89999997615814","img/food2.png","75","99.29999995231628","2","1","2","2","1,0.5,0,1,0.5,0,0.5,0,1","0,1,0.5,0,1,0.5,1,0.5,0","3","false",""
"","html-keyboard-response","263","136359","0.0-302.0","3KYQYYSHYWTQGSAOCCUOU05CVESODK","A2N4DD7IS7EI2D","31YWE12TE0YV78PCVO9WO2QLDWO7XY","","null","<img src=""img/food2.png"" style=""width:200px; border:14px solid green;"">","null","","","","","","","","","",""
"","image-keyboard-response","264","136424","0.0-304.0","3KYQYYSHYWTQGSAOCCUOU05CVESODK","A2N4DD7IS7EI2D","31YWE12TE0YV78PCVO9WO2QLDWO7XY","","63.40000003576279","img/food2.png","75","64.59999996423721","2","1","2","2","1,0.5,0,1,0.5,0,0.5,0,1","0,1,0.5,0,1,0.5,1,0.5,0","3","false",""
"","html-keyboard-response","265","136726","0.0-305.0","3KYQYYSHYWTQGSAOCCUOU05CVESODK","A2N4DD7IS7EI2D","31YWE12TE0YV78PCVO9WO2QLDWO7XY","","null","<img src=""img/food2.png"" style=""width:200px; border:14px solid green;"">","null","","","","","","","","","",""
"","image-keyboard-response","266","136777","0.0-307.0","3KYQYYSHYWTQGSAOCCUOU05CVESODK","A2N4DD7IS7EI2D","31YWE12TE0YV78PCVO9WO2QLDWO7XY","","49.69999998807907","img/food3.png","75","50.700000047683716","2","1","1","2","1,0.5,0,1,0.5,0,0.5,0,1","0,1,0.5,0,1,0.5,1,0.5,0","3","false",""
"","html-keyboard-response","267","137080","0.0-308.0","3KYQYYSHYWTQGSAOCCUOU05CVESODK","A2N4DD7IS7EI2D","31YWE12TE0YV78PCVO9WO2QLDWO7XY","","null","<img src=""img/food3.png"" style=""width:200px; border:14px solid green;"">","null","","","","","","","","","",""
"","image-keyboard-response","268","137227","0.0-310.0","3KYQYYSHYWTQGSAOCCUOU05CVESODK","A2N4DD7IS7EI2D","31YWE12TE0YV78PCVO9WO2QLDWO7XY","","145.5","img/food2.png","75","146.9000000357628","2","1","2","2","1,0.5,0,1,0.5,0,0.5,0,1","0,1,0.5,0,1,0.5,1,0.5,0","3","false",""
"","html-keyboard-response","269","137530","0.0-311.0","3KYQYYSHYWTQGSAOCCUOU05CVESODK","A2N4DD7IS7EI2D","31YWE12TE0YV78PCVO9WO2QLDWO7XY","","null","<img src=""img/food2.png"" style=""width:200px; border:14px solid green;"">","null","","","","","","","","","",""
"","image-keyboard-response","270","137612","0.0-313.0","3KYQYYSHYWTQGSAOCCUOU05CVESODK","A2N4DD7IS7EI2D","31YWE12TE0YV78PCVO9WO2QLDWO7XY","","80.20000004768372","img/food3.png","75","81","2","1","1","2","1,0.5,0,1,0.5,0,0.5,0,1","0,1,0.5,0,1,0.5,1,0.5,0","3","false",""
"","html-keyboard-response","271","137914","0.0-314.0","3KYQYYSHYWTQGSAOCCUOU05CVESODK","A2N4DD7IS7EI2D","31YWE12TE0YV78PCVO9WO2QLDWO7XY","","null","<img src=""img/food3.png"" style=""width:200px; border:14px solid green;"">","null","","","","","","","","","",""
"","image-keyboard-response","272","138062","0.0-316.0","3KYQYYSHYWTQGSAOCCUOU05CVESODK","A2N4DD7IS7EI2D","31YWE12TE0YV78PCVO9WO2QLDWO7XY","","145.5","img/food6.png","75","146.80000001192093","2","1","3","2","1,0.5,0,1,0.5,0,0.5,0,1","0,1,0.5,0,1,0.5,1,0.5,0","3","false",""
"","html-keyboard-response","273","138364","0.0-317.0","3KYQYYSHYWTQGSAOCCUOU05CVESODK","A2N4DD7IS7EI2D","31YWE12TE0YV78PCVO9WO2QLDWO7XY","","null","<img src=""img/food6.png"" style=""width:200px; border:14px solid green;"">","null","","","","","","","","","",""
"","image-keyboard-response","274","138496","0.0-319.0","3KYQYYSHYWTQGSAOCCUOU05CVESODK","A2N4DD7IS7EI2D","31YWE12TE0YV78PCVO9WO2QLDWO7XY","","130.60000002384186","img/food3.png","75","131.69999998807907","2","1","1","2","1,0.5,0,1,0.5,0,0.5,0,1","0,1,0.5,0,1,0.5,1,0.5,0","3","false",""
"","html-keyboard-response","275","138800","0.0-320.0","3KYQYYSHYWTQGSAOCCUOU05CVESODK","A2N4DD7IS7EI2D","31YWE12TE0YV78PCVO9WO2QLDWO7XY","","null","<img src=""img/food3.png"" style=""width:200px; border:14px solid green;"">","null","","","","","","","","","",""
"","image-keyboard-response","276","138901","0.0-322.0","3KYQYYSHYWTQGSAOCCUOU05CVESODK","A2N4DD7IS7EI2D","31YWE12TE0YV78PCVO9WO2QLDWO7XY","","98.79999995231628","img/food2.png","75","100.39999997615814","2","1","2","2","1,0.5,0,1,0.5,0,0.5,0,1","0,1,0.5,0,1,0.5,1,0.5,0","3","false",""
"","html-keyboard-response","277","139203","0.0-323.0","3KYQYYSHYWTQGSAOCCUOU05CVESODK","A2N4DD7IS7EI2D","31YWE12TE0YV78PCVO9WO2QLDWO7XY","","null","<img src=""img/food2.png"" style=""width:200px; border:14px solid green;"">","null","","","","","","","","","",""
"","image-keyboard-response","278","139383","0.0-325.0","3KYQYYSHYWTQGSAOCCUOU05CVESODK","A2N4DD7IS7EI2D","31YWE12TE0YV78PCVO9WO2QLDWO7XY","","178.30000001192093","img/food6.png","75","179.5","2","1","3","2","1,0.5,0,1,0.5,0,0.5,0,1","0,1,0.5,0,1,0.5,1,0.5,0","3","false",""
"","html-keyboard-response","279","139685","0.0-326.0","3KYQYYSHYWTQGSAOCCUOU05CVESODK","A2N4DD7IS7EI2D","31YWE12TE0YV78PCVO9WO2QLDWO7XY","","null","<img src=""img/food6.png"" style=""width:200px; border:14px solid green;"">","null","","","","","","","","","",""
"","image-keyboard-response","280","139805","0.0-328.0","3KYQYYSHYWTQGSAOCCUOU05CVESODK","A2N4DD7IS7EI2D","31YWE12TE0YV78PCVO9WO2QLDWO7XY","","118.39999997615814","img/food3.png","75","119.39999997615814","2","1","1","2","1,0.5,0,1,0.5,0,0.5,0,1","0,1,0.5,0,1,0.5,1,0.5,0","3","false",""
"","html-keyboard-response","281","140107","0.0-329.0","3KYQYYSHYWTQGSAOCCUOU05CVESODK","A2N4DD7IS7EI2D","31YWE12TE0YV78PCVO9WO2QLDWO7XY","","null","<img src=""img/food3.png"" style=""width:200px; border:14px solid green;"">","null","","","","","","","","","",""
"","image-keyboard-response","282","140270","0.0-331.0","3KYQYYSHYWTQGSAOCCUOU05CVESODK","A2N4DD7IS7EI2D","31YWE12TE0YV78PCVO9WO2QLDWO7XY","","161","img/food2.png","75","162.19999998807907","2","1","2","2","1,0.5,0,1,0.5,0,0.5,0,1","0,1,0.5,0,1,0.5,1,0.5,0","3","false",""
"","html-keyboard-response","283","140572","0.0-332.0","3KYQYYSHYWTQGSAOCCUOU05CVESODK","A2N4DD7IS7EI2D","31YWE12TE0YV78PCVO9WO2QLDWO7XY","","null","<img src=""img/food2.png"" style=""width:200px; border:14px solid green;"">","null","","","","","","","","","",""
"","image-keyboard-response","284","140683","0.0-334.0","3KYQYYSHYWTQGSAOCCUOU05CVESODK","A2N4DD7IS7EI2D","31YWE12TE0YV78PCVO9WO2QLDWO7XY","","109.60000002384186","img/food6.png","75","110.60000002384186","2","1","3","2","1,0.5,0,1,0.5,0,0.5,0,1","0,1,0.5,0,1,0.5,1,0.5,0","3","false",""
"","html-keyboard-response","285","140985","0.0-335.0","3KYQYYSHYWTQGSAOCCUOU05CVESODK","A2N4DD7IS7EI2D","31YWE12TE0YV78PCVO9WO2QLDWO7XY","","null","<img src=""img/food6.png"" style=""width:200px; border:14px solid green;"">","null","","","","","","","","","",""
"","image-keyboard-response","286","141206","0.0-337.0","3KYQYYSHYWTQGSAOCCUOU05CVESODK","A2N4DD7IS7EI2D","31YWE12TE0YV78PCVO9WO2QLDWO7XY","","219.69999998807907","img/food6.png","75","220.9000000357628","2","0","3","2","1,0.5,0,1,0.5,0,0.5,0,1","0,1,0.5,0,1,0.5,1,0.5,0","3","false",""
"","html-keyboard-response","287","141510","0.0-338.0","3KYQYYSHYWTQGSAOCCUOU05CVESODK","A2N4DD7IS7EI2D","31YWE12TE0YV78PCVO9WO2QLDWO7XY","","null","<img src=""img/food6.png"" style=""width:200px;border:14px solid red;"">","null","","","","","","","","","",""
"","image-keyboard-response","288","141944","0.0-340.0","3KYQYYSHYWTQGSAOCCUOU05CVESODK","A2N4DD7IS7EI2D","31YWE12TE0YV78PCVO9WO2QLDWO7XY","","432.69999998807907","img/food3.png","74","433.9000000357628","1","0","1","2","1,0.5,0,1,0.5,0,0.5,0,1","0,1,0.5,0,1,0.5,1,0.5,0","3","false",""
"","html-keyboard-response","289","142247","0.0-341.0","3KYQYYSHYWTQGSAOCCUOU05CVESODK","A2N4DD7IS7EI2D","31YWE12TE0YV78PCVO9WO2QLDWO7XY","","null","<img src=""img/food3.png"" style=""width:200px;border:14px solid red;"">","null","","","","","","","","","",""
"","image-keyboard-response","290","142450","0.0-343.0","3KYQYYSHYWTQGSAOCCUOU05CVESODK","A2N4DD7IS7EI2D","31YWE12TE0YV78PCVO9WO2QLDWO7XY","","201.80000001192093","img/food3.png","74","203.4000000357628","1","0","1","2","1,0.5,0,1,0.5,0,0.5,0,1","0,1,0.5,0,1,0.5,1,0.5,0","3","false",""
"","html-keyboard-response","291","142753","0.0-344.0","3KYQYYSHYWTQGSAOCCUOU05CVESODK","A2N4DD7IS7EI2D","31YWE12TE0YV78PCVO9WO2QLDWO7XY","","null","<img src=""img/food3.png"" style=""width:200px;border:14px solid red;"">","null","","","","","","","","","",""
"","image-keyboard-response","292","142811","0.0-346.0","3KYQYYSHYWTQGSAOCCUOU05CVESODK","A2N4DD7IS7EI2D","31YWE12TE0YV78PCVO9WO2QLDWO7XY","","57.200000047683716","img/food2.png","76","58.30000001192093","3","0","2","2","1,0.5,0,1,0.5,0,0.5,0,1","0,1,0.5,0,1,0.5,1,0.5,0","3","false",""
"","html-keyboard-response","293","143120","0.0-347.0","3KYQYYSHYWTQGSAOCCUOU05CVESODK","A2N4DD7IS7EI2D","31YWE12TE0YV78PCVO9WO2QLDWO7XY","","null","<img src=""img/food2.png"" style=""width:200px;border:14px solid red;"">","null","","","","","","","","","",""
"","image-keyboard-response","294","143299","0.0-349.0","3KYQYYSHYWTQGSAOCCUOU05CVESODK","A2N4DD7IS7EI2D","31YWE12TE0YV78PCVO9WO2QLDWO7XY","","177.80000001192093","img/food6.png","75","178.80000001192093","2","0","3","2","1,0.5,0,1,0.5,0,0.5,0,1","0,1,0.5,0,1,0.5,1,0.5,0","3","false",""
"","html-keyboard-response","295","143601","0.0-350.0","3KYQYYSHYWTQGSAOCCUOU05CVESODK","A2N4DD7IS7EI2D","31YWE12TE0YV78PCVO9WO2QLDWO7XY","","null","<img src=""img/food6.png"" style=""width:200px;border:14px solid red;"">","null","","","","","","","","","",""
"","image-keyboard-response","296","143920","0.0-352.0","3KYQYYSHYWTQGSAOCCUOU05CVESODK","A2N4DD7IS7EI2D","31YWE12TE0YV78PCVO9WO2QLDWO7XY","","318","img/food6.png","75","319.19999998807907","2","1","3","2","1,0.5,0,1,0.5,0,0.5,0,1","0,1,0.5,0,1,0.5,1,0.5,0","3","false",""
"","html-keyboard-response","297","144223","0.0-353.0","3KYQYYSHYWTQGSAOCCUOU05CVESODK","A2N4DD7IS7EI2D","31YWE12TE0YV78PCVO9WO2QLDWO7XY","","null","<img src=""img/food6.png"" style=""width:200px; border:14px solid green;"">","null","","","","","","","","","",""
"","image-keyboard-response","298","144369","0.0-355.0","3KYQYYSHYWTQGSAOCCUOU05CVESODK","A2N4DD7IS7EI2D","31YWE12TE0YV78PCVO9WO2QLDWO7XY","","144.9000000357628","img/food2.png","75","146.30000001192093","2","1","2","2","1,0.5,0,1,0.5,0,0.5,0,1","0,1,0.5,0,1,0.5,1,0.5,0","3","false",""
"","html-keyboard-response","299","144671","0.0-356.0","3KYQYYSHYWTQGSAOCCUOU05CVESODK","A2N4DD7IS7EI2D","31YWE12TE0YV78PCVO9WO2QLDWO7XY","","null","<img src=""img/food2.png"" style=""width:200px; border:14px solid green;"">","null","","","","","","","","","",""
"","image-keyboard-response","300","144868","0.0-358.0","3KYQYYSHYWTQGSAOCCUOU05CVESODK","A2N4DD7IS7EI2D","31YWE12TE0YV78PCVO9WO2QLDWO7XY","","194.60000002384186","img/food3.png","75","196.5","2","1","1","2","1,0.5,0,1,0.5,0,0.5,0,1","0,1,0.5,0,1,0.5,1,0.5,0","3","false",""
"","html-keyboard-response","301","145171","0.0-359.0","3KYQYYSHYWTQGSAOCCUOU05CVESODK","A2N4DD7IS7EI2D","31YWE12TE0YV78PCVO9WO2QLDWO7XY","","null","<img src=""img/food3.png"" style=""width:200px; border:14px solid green;"">","null","","","","","","","","","",""
"","image-keyboard-response","302","145427","0.0-361.0","3KYQYYSHYWTQGSAOCCUOU05CVESODK","A2N4DD7IS7EI2D","31YWE12TE0YV78PCVO9WO2QLDWO7XY","","254.89999997615814","img/food6.png","75","256.0999999642372","2","0","3","2","1,0.5,0,1,0.5,0,0.5,0,1","0,1,0.5,0,1,0.5,1,0.5,0","3","false",""
"","html-keyboard-response","303","145729","0.0-362.0","3KYQYYSHYWTQGSAOCCUOU05CVESODK","A2N4DD7IS7EI2D","31YWE12TE0YV78PCVO9WO2QLDWO7XY","","null","<img src=""img/food6.png"" style=""width:200px;border:14px solid red;"">","null","","","","","","","","","",""
"","image-keyboard-response","304","145961","0.0-364.0","3KYQYYSHYWTQGSAOCCUOU05CVESODK","A2N4DD7IS7EI2D","31YWE12TE0YV78PCVO9WO2QLDWO7XY","","229.5","img/food3.png","74","230.69999998807907","1","0","1","2","1,0.5,0,1,0.5,0,0.5,0,1","0,1,0.5,0,1,0.5,1,0.5,0","3","false",""
"","html-keyboard-response","305","146264","0.0-365.0","3KYQYYSHYWTQGSAOCCUOU05CVESODK","A2N4DD7IS7EI2D","31YWE12TE0YV78PCVO9WO2QLDWO7XY","","null","<img src=""img/food3.png"" style=""width:200px;border:14px solid red;"">","null","","","","","","","","","",""
"","image-keyboard-response","306","146418","0.0-367.0","3KYQYYSHYWTQGSAOCCUOU05CVESODK","A2N4DD7IS7EI2D","31YWE12TE0YV78PCVO9WO2QLDWO7XY","","151.30000001192093","img/food3.png","74","153","1","0","1","2","1,0.5,0,1,0.5,0,0.5,0,1","0,1,0.5,0,1,0.5,1,0.5,0","3","false",""
"","html-keyboard-response","307","146722","0.0-368.0","3KYQYYSHYWTQGSAOCCUOU05CVESODK","A2N4DD7IS7EI2D","31YWE12TE0YV78PCVO9WO2QLDWO7XY","","null","<img src=""img/food3.png"" style=""width:200px;border:14px solid red;"">","null","","","","","","","","","",""
"","image-keyboard-response","308","146762","0.0-370.0","3KYQYYSHYWTQGSAOCCUOU05CVESODK","A2N4DD7IS7EI2D","31YWE12TE0YV78PCVO9WO2QLDWO7XY","","38.40000003576279","img/food3.png","76","39.39999997615814","3","0","1","2","1,0.5,0,1,0.5,0,0.5,0,1","0,1,0.5,0,1,0.5,1,0.5,0","3","false",""
"","html-keyboard-response","309","147064","0.0-371.0","3KYQYYSHYWTQGSAOCCUOU05CVESODK","A2N4DD7IS7EI2D","31YWE12TE0YV78PCVO9WO2QLDWO7XY","","null","<img src=""img/food3.png"" style=""width:200px;border:14px solid red;"">","null","","","","","","","","","",""
"","image-keyboard-response","310","147206","0.0-373.0","3KYQYYSHYWTQGSAOCCUOU05CVESODK","A2N4DD7IS7EI2D","31YWE12TE0YV78PCVO9WO2QLDWO7XY","","140.69999998807907","img/food6.png","76","142.0999999642372","3","0","3","2","1,0.5,0,1,0.5,0,0.5,0,1","0,1,0.5,0,1,0.5,1,0.5,0","3","false",""
"","html-keyboard-response","311","147509","0.0-374.0","3KYQYYSHYWTQGSAOCCUOU05CVESODK","A2N4DD7IS7EI2D","31YWE12TE0YV78PCVO9WO2QLDWO7XY","","null","<img src=""img/food6.png"" style=""width:200px;border:14px solid red;"">","null","","","","","","","","","",""
"","image-keyboard-response","312","147674","0.0-376.0","3KYQYYSHYWTQGSAOCCUOU05CVESODK","A2N4DD7IS7EI2D","31YWE12TE0YV78PCVO9WO2QLDWO7XY","","164.10000002384186","img/food2.png","75","165.20000004768372","2","1","2","2","1,0.5,0,1,0.5,0,0.5,0,1","0,1,0.5,0,1,0.5,1,0.5,0","3","false",""
"","html-keyboard-response","313","147977","0.0-377.0","3KYQYYSHYWTQGSAOCCUOU05CVESODK","A2N4DD7IS7EI2D","31YWE12TE0YV78PCVO9WO2QLDWO7XY","","null","<img src=""img/food2.png"" style=""width:200px; border:14px solid green;"">","null","","","","","","","","","",""
"","image-keyboard-response","314","148120","0.0-379.0","3KYQYYSHYWTQGSAOCCUOU05CVESODK","A2N4DD7IS7EI2D","31YWE12TE0YV78PCVO9WO2QLDWO7XY","","142","img/food2.png","75","143.4000000357628","2","1","2","2","1,0.5,0,1,0.5,0,0.5,0,1","0,1,0.5,0,1,0.5,1,0.5,0","3","false",""
"","html-keyboard-response","315","148422","0.0-380.0","3KYQYYSHYWTQGSAOCCUOU05CVESODK","A2N4DD7IS7EI2D","31YWE12TE0YV78PCVO9WO2QLDWO7XY","","null","<img src=""img/food2.png"" style=""width:200px; border:14px solid green;"">","null","","","","","","","","","",""
"","image-keyboard-response","316","148564","0.0-382.0","3KYQYYSHYWTQGSAOCCUOU05CVESODK","A2N4DD7IS7EI2D","31YWE12TE0YV78PCVO9WO2QLDWO7XY","","140.0999999642372","img/food6.png","75","141.29999995231628","2","0","3","2","1,0.5,0,1,0.5,0,0.5,0,1","0,1,0.5,0,1,0.5,1,0.5,0","3","false",""
"","html-keyboard-response","317","148872","0.0-383.0","3KYQYYSHYWTQGSAOCCUOU05CVESODK","A2N4DD7IS7EI2D","31YWE12TE0YV78PCVO9WO2QLDWO7XY","","null","<img src=""img/food6.png"" style=""width:200px;border:14px solid red;"">","null","","","","","","","","","",""
"","image-keyboard-response","318","148954","0.0-385.0","3KYQYYSHYWTQGSAOCCUOU05CVESODK","A2N4DD7IS7EI2D","31YWE12TE0YV78PCVO9WO2QLDWO7XY","","80.80000001192093","img/food6.png","75","82.09999996423721","2","1","3","2","1,0.5,0,1,0.5,0,0.5,0,1","0,1,0.5,0,1,0.5,1,0.5,0","3","false",""
"","html-keyboard-response","319","149258","0.0-386.0","3KYQYYSHYWTQGSAOCCUOU05CVESODK","A2N4DD7IS7EI2D","31YWE12TE0YV78PCVO9WO2QLDWO7XY","","null","<img src=""img/food6.png"" style=""width:200px; border:14px solid green;"">","null","","","","","","","","","",""
"","image-keyboard-response","320","149404","0.0-388.0","3KYQYYSHYWTQGSAOCCUOU05CVESODK","A2N4DD7IS7EI2D","31YWE12TE0YV78PCVO9WO2QLDWO7XY","","144.30000001192093","img/food2.png","75","145.80000001192093","2","1","2","2","1,0.5,0,1,0.5,0,0.5,0,1","0,1,0.5,0,1,0.5,1,0.5,0","3","false",""
"","html-keyboard-response","321","149706","0.0-389.0","3KYQYYSHYWTQGSAOCCUOU05CVESODK","A2N4DD7IS7EI2D","31YWE12TE0YV78PCVO9WO2QLDWO7XY","","null","<img src=""img/food2.png"" style=""width:200px; border:14px solid green;"">","null","","","","","","","","","",""
"","image-keyboard-response","322","149915","0.0-391.0","3KYQYYSHYWTQGSAOCCUOU05CVESODK","A2N4DD7IS7EI2D","31YWE12TE0YV78PCVO9WO2QLDWO7XY","","208.30000001192093","img/food3.png","75","209.4000000357628","2","1","1","2","1,0.5,0,1,0.5,0,0.5,0,1","0,1,0.5,0,1,0.5,1,0.5,0","3","false",""
"","html-keyboard-response","323","150218","0.0-392.0","3KYQYYSHYWTQGSAOCCUOU05CVESODK","A2N4DD7IS7EI2D","31YWE12TE0YV78PCVO9WO2QLDWO7XY","","null","<img src=""img/food3.png"" style=""width:200px; border:14px solid green;"">","null","","","","","","","","","",""
"","image-keyboard-response","324","150375","0.0-394.0","3KYQYYSHYWTQGSAOCCUOU05CVESODK","A2N4DD7IS7EI2D","31YWE12TE0YV78PCVO9WO2QLDWO7XY","","155.80000001192093","img/food6.png","75","157","2","0","3","2","1,0.5,0,1,0.5,0,0.5,0,1","0,1,0.5,0,1,0.5,1,0.5,0","3","false",""
"","html-keyboard-response","325","150677","0.0-395.0","3KYQYYSHYWTQGSAOCCUOU05CVESODK","A2N4DD7IS7EI2D","31YWE12TE0YV78PCVO9WO2QLDWO7XY","","null","<img src=""img/food6.png"" style=""width:200px;border:14px solid red;"">","null","","","","","","","","","",""
"","image-keyboard-response","326","150978","0.0-397.0","3KYQYYSHYWTQGSAOCCUOU05CVESODK","A2N4DD7IS7EI2D","31YWE12TE0YV78PCVO9WO2QLDWO7XY","","299.39999997615814","img/food6.png","76","300.69999998807907","3","0","3","2","1,0.5,0,1,0.5,0,0.5,0,1","0,1,0.5,0,1,0.5,1,0.5,0","3","false",""
"","html-keyboard-response","327","151281","0.0-398.0","3KYQYYSHYWTQGSAOCCUOU05CVESODK","A2N4DD7IS7EI2D","31YWE12TE0YV78PCVO9WO2QLDWO7XY","","null","<img src=""img/food6.png"" style=""width:200px;border:14px solid red;"">","null","","","","","","","","","",""
"","image-keyboard-response","328","151490","0.0-400.0","3KYQYYSHYWTQGSAOCCUOU05CVESODK","A2N4DD7IS7EI2D","31YWE12TE0YV78PCVO9WO2QLDWO7XY","","207.60000002384186","img/food3.png","75","208.80000001192093","2","1","1","2","1,0.5,0,1,0.5,0,0.5,0,1","0,1,0.5,0,1,0.5,1,0.5,0","3","false",""
"","html-keyboard-response","329","151792","0.0-401.0","3KYQYYSHYWTQGSAOCCUOU05CVESODK","A2N4DD7IS7EI2D","31YWE12TE0YV78PCVO9WO2QLDWO7XY","","null","<img src=""img/food3.png"" style=""width:200px; border:14px solid green;"">","null","","","","","","","","","",""
"","image-keyboard-response","330","151968","0.0-403.0","3KYQYYSHYWTQGSAOCCUOU05CVESODK","A2N4DD7IS7EI2D","31YWE12TE0YV78PCVO9WO2QLDWO7XY","","174.5999999642372","img/food6.png","75","175.69999998807907","2","1","3","2","1,0.5,0,1,0.5,0,0.5,0,1","0,1,0.5,0,1,0.5,1,0.5,0","3","false",""
"","html-keyboard-response","331","152270","0.0-404.0","3KYQYYSHYWTQGSAOCCUOU05CVESODK","A2N4DD7IS7EI2D","31YWE12TE0YV78PCVO9WO2QLDWO7XY","","null","<img src=""img/food6.png"" style=""width:200px; border:14px solid green;"">","null","","","","","","","","","",""
"","image-keyboard-response","332","152439","0.0-406.0","3KYQYYSHYWTQGSAOCCUOU05CVESODK","A2N4DD7IS7EI2D","31YWE12TE0YV78PCVO9WO2QLDWO7XY","","166.5999999642372","img/food2.png","75","168","2","1","2","2","1,0.5,0,1,0.5,0,0.5,0,1","0,1,0.5,0,1,0.5,1,0.5,0","3","false",""
"","html-keyboard-response","333","152746","0.0-407.0","3KYQYYSHYWTQGSAOCCUOU05CVESODK","A2N4DD7IS7EI2D","31YWE12TE0YV78PCVO9WO2QLDWO7XY","","null","<img src=""img/food2.png"" style=""width:200px; border:14px solid green;"">","null","","","","","","","","","",""
"","image-keyboard-response","334","152863","0.0-409.0","3KYQYYSHYWTQGSAOCCUOU05CVESODK","A2N4DD7IS7EI2D","31YWE12TE0YV78PCVO9WO2QLDWO7XY","","114.39999997615814","img/food2.png","75","116.09999996423721","2","1","2","2","1,0.5,0,1,0.5,0,0.5,0,1","0,1,0.5,0,1,0.5,1,0.5,0","3","false",""
"","html-keyboard-response","335","153167","0.0-410.0","3KYQYYSHYWTQGSAOCCUOU05CVESODK","A2N4DD7IS7EI2D","31YWE12TE0YV78PCVO9WO2QLDWO7XY","","null","<img src=""img/food2.png"" style=""width:200px; border:14px solid green;"">","null","","","","","","","","","",""
"","image-keyboard-response","336","153304","0.0-412.0","3KYQYYSHYWTQGSAOCCUOU05CVESODK","A2N4DD7IS7EI2D","31YWE12TE0YV78PCVO9WO2QLDWO7XY","","135.4000000357628","img/food2.png","75","136.5","2","1","2","2","1,0.5,0,1,0.5,0,0.5,0,1","0,1,0.5,0,1,0.5,1,0.5,0","3","false",""
"","html-keyboard-response","337","153606","0.0-413.0","3KYQYYSHYWTQGSAOCCUOU05CVESODK","A2N4DD7IS7EI2D","31YWE12TE0YV78PCVO9WO2QLDWO7XY","","null","<img src=""img/food2.png"" style=""width:200px; border:14px solid green;"">","null","","","","","","","","","",""
"","image-keyboard-response","338","153772","0.0-415.0","3KYQYYSHYWTQGSAOCCUOU05CVESODK","A2N4DD7IS7EI2D","31YWE12TE0YV78PCVO9WO2QLDWO7XY","","163.89999997615814","img/food3.png","74","165.60000002384186","1","0","1","2","1,0.5,0,1,0.5,0,0.5,0,1","0,1,0.5,0,1,0.5,1,0.5,0","3","false",""
"","html-keyboard-response","339","154075","0.0-416.0","3KYQYYSHYWTQGSAOCCUOU05CVESODK","A2N4DD7IS7EI2D","31YWE12TE0YV78PCVO9WO2QLDWO7XY","","null","<img src=""img/food3.png"" style=""width:200px;border:14px solid red;"">","null","","","","","","","","","",""
"","image-keyboard-response","340","154152","0.0-418.0","3KYQYYSHYWTQGSAOCCUOU05CVESODK","A2N4DD7IS7EI2D","31YWE12TE0YV78PCVO9WO2QLDWO7XY","","75.40000003576279","img/food3.png","75","76.5","2","1","1","2","1,0.5,0,1,0.5,0,0.5,0,1","0,1,0.5,0,1,0.5,1,0.5,0","3","false",""
"","html-keyboard-response","341","154455","0.0-419.0","3KYQYYSHYWTQGSAOCCUOU05CVESODK","A2N4DD7IS7EI2D","31YWE12TE0YV78PCVO9WO2QLDWO7XY","","null","<img src=""img/food3.png"" style=""width:200px; border:14px solid green;"">","null","","","","","","","","","",""
"","image-keyboard-response","342","154630","0.0-421.0","3KYQYYSHYWTQGSAOCCUOU05CVESODK","A2N4DD7IS7EI2D","31YWE12TE0YV78PCVO9WO2QLDWO7XY","","172.0999999642372","img/food2.png","75","173.80000001192093","2","1","2","2","1,0.5,0,1,0.5,0,0.5,0,1","0,1,0.5,0,1,0.5,1,0.5,0","3","false",""
"","html-keyboard-response","343","154932","0.0-422.0","3KYQYYSHYWTQGSAOCCUOU05CVESODK","A2N4DD7IS7EI2D","31YWE12TE0YV78PCVO9WO2QLDWO7XY","","null","<img src=""img/food2.png"" style=""width:200px; border:14px solid green;"">","null","","","","","","","","","",""
"","image-keyboard-response","344","155088","0.0-424.0","3KYQYYSHYWTQGSAOCCUOU05CVESODK","A2N4DD7IS7EI2D","31YWE12TE0YV78PCVO9WO2QLDWO7XY","","155","img/food3.png","75","156.30000001192093","2","1","1","2","1,0.5,0,1,0.5,0,0.5,0,1","0,1,0.5,0,1,0.5,1,0.5,0","3","false",""
"","html-keyboard-response","345","155390","0.0-425.0","3KYQYYSHYWTQGSAOCCUOU05CVESODK","A2N4DD7IS7EI2D","31YWE12TE0YV78PCVO9WO2QLDWO7XY","","null","<img src=""img/food3.png"" style=""width:200px; border:14px solid green;"">","null","","","","","","","","","",""
"","image-keyboard-response","346","155616","0.0-427.0","3KYQYYSHYWTQGSAOCCUOU05CVESODK","A2N4DD7IS7EI2D","31YWE12TE0YV78PCVO9WO2QLDWO7XY","","224.30000001192093","img/food6.png","75","225.60000002384186","2","0","3","2","1,0.5,0,1,0.5,0,0.5,0,1","0,1,0.5,0,1,0.5,1,0.5,0","3","false",""
"","html-keyboard-response","347","155919","0.0-428.0","3KYQYYSHYWTQGSAOCCUOU05CVESODK","A2N4DD7IS7EI2D","31YWE12TE0YV78PCVO9WO2QLDWO7XY","","null","<img src=""img/food6.png"" style=""width:200px;border:14px solid red;"">","null","","","","","","","","","",""
"","image-keyboard-response","348","156064","0.0-430.0","3KYQYYSHYWTQGSAOCCUOU05CVESODK","A2N4DD7IS7EI2D","31YWE12TE0YV78PCVO9WO2QLDWO7XY","","143.69999998807907","img/food3.png","75","144.69999998807907","2","1","1","2","1,0.5,0,1,0.5,0,0.5,0,1","0,1,0.5,0,1,0.5,1,0.5,0","3","false",""
"","html-keyboard-response","349","156367","0.0-431.0","3KYQYYSHYWTQGSAOCCUOU05CVESODK","A2N4DD7IS7EI2D","31YWE12TE0YV78PCVO9WO2QLDWO7XY","","null","<img src=""img/food3.png"" style=""width:200px; border:14px solid green;"">","null","","","","","","","","","",""
"","image-keyboard-response","350","156547","0.0-433.0","3KYQYYSHYWTQGSAOCCUOU05CVESODK","A2N4DD7IS7EI2D","31YWE12TE0YV78PCVO9WO2QLDWO7XY","","178.10000002384186","img/food2.png","75","179.79999995231628","2","1","2","2","1,0.5,0,1,0.5,0,0.5,0,1","0,1,0.5,0,1,0.5,1,0.5,0","3","false",""
"","html-keyboard-response","351","156851","0.0-434.0","3KYQYYSHYWTQGSAOCCUOU05CVESODK","A2N4DD7IS7EI2D","31YWE12TE0YV78PCVO9WO2QLDWO7XY","","null","<img src=""img/food2.png"" style=""width:200px; border:14px solid green;"">","null","","","","","","","","","",""
"","image-keyboard-response","352","156981","0.0-436.0","3KYQYYSHYWTQGSAOCCUOU05CVESODK","A2N4DD7IS7EI2D","31YWE12TE0YV78PCVO9WO2QLDWO7XY","","128.5","img/food6.png","75","129.89999997615814","2","1","3","2","1,0.5,0,1,0.5,0,0.5,0,1","0,1,0.5,0,1,0.5,1,0.5,0","3","false",""
"","html-keyboard-response","353","157284","0.0-437.0","3KYQYYSHYWTQGSAOCCUOU05CVESODK","A2N4DD7IS7EI2D","31YWE12TE0YV78PCVO9WO2QLDWO7XY","","null","<img src=""img/food6.png"" style=""width:200px; border:14px solid green;"">","null","","","","","","","","","",""
"","image-keyboard-response","354","157428","0.0-439.0","3KYQYYSHYWTQGSAOCCUOU05CVESODK","A2N4DD7IS7EI2D","31YWE12TE0YV78PCVO9WO2QLDWO7XY","","142","img/food6.png","75","143.10000002384186","2","1","3","2","1,0.5,0,1,0.5,0,0.5,0,1","0,1,0.5,0,1,0.5,1,0.5,0","3","false",""
"","html-keyboard-response","355","157731","0.0-440.0","3KYQYYSHYWTQGSAOCCUOU05CVESODK","A2N4DD7IS7EI2D","31YWE12TE0YV78PCVO9WO2QLDWO7XY","","null","<img src=""img/food6.png"" style=""width:200px; border:14px solid green;"">","null","","","","","","","","","",""
"","image-keyboard-response","356","157871","0.0-442.0","3KYQYYSHYWTQGSAOCCUOU05CVESODK","A2N4DD7IS7EI2D","31YWE12TE0YV78PCVO9WO2QLDWO7XY","","136.60000002384186","img/food3.png","75","137.9000000357628","2","1","1","2","1,0.5,0,1,0.5,0,0.5,0,1","0,1,0.5,0,1,0.5,1,0.5,0","3","false",""
"","html-keyboard-response","357","158172","0.0-443.0","3KYQYYSHYWTQGSAOCCUOU05CVESODK","A2N4DD7IS7EI2D","31YWE12TE0YV78PCVO9WO2QLDWO7XY","","null","<img src=""img/food3.png"" style=""width:200px; border:14px solid green;"">","null","","","","","","","","","",""
"","image-keyboard-response","358","158259","0.0-445.0","3KYQYYSHYWTQGSAOCCUOU05CVESODK","A2N4DD7IS7EI2D","31YWE12TE0YV78PCVO9WO2QLDWO7XY","","86","img/food2.png","75","87.09999996423721","2","1","2","2","1,0.5,0,1,0.5,0,0.5,0,1","0,1,0.5,0,1,0.5,1,0.5,0","3","false",""
"","html-keyboard-response","359","158562","0.0-446.0","3KYQYYSHYWTQGSAOCCUOU05CVESODK","A2N4DD7IS7EI2D","31YWE12TE0YV78PCVO9WO2QLDWO7XY","","null","<img src=""img/food2.png"" style=""width:200px; border:14px solid green;"">","null","","","","","","","","","",""
"","image-keyboard-response","360","158738","0.0-448.0","3KYQYYSHYWTQGSAOCCUOU05CVESODK","A2N4DD7IS7EI2D","31YWE12TE0YV78PCVO9WO2QLDWO7XY","","174.19999998807907","img/food6.png","76","175.30000001192093","3","0","3","2","1,0.5,0,1,0.5,0,0.5,0,1","0,1,0.5,0,1,0.5,1,0.5,0","3","false",""
"","html-keyboard-response","361","159040","0.0-449.0","3KYQYYSHYWTQGSAOCCUOU05CVESODK","A2N4DD7IS7EI2D","31YWE12TE0YV78PCVO9WO2QLDWO7XY","","null","<img src=""img/food6.png"" style=""width:200px;border:14px solid red;"">","null","","","","","","","","","",""
"","image-keyboard-response","362","159121","0.0-451.0","3KYQYYSHYWTQGSAOCCUOU05CVESODK","A2N4DD7IS7EI2D","31YWE12TE0YV78PCVO9WO2QLDWO7XY","","80","img/food6.png","75","81.19999998807907","2","1","3","2","1,0.5,0,1,0.5,0,0.5,0,1","0,1,0.5,0,1,0.5,1,0.5,0","3","false",""
"","html-keyboard-response","363","159423","0.0-452.0","3KYQYYSHYWTQGSAOCCUOU05CVESODK","A2N4DD7IS7EI2D","31YWE12TE0YV78PCVO9WO2QLDWO7XY","","null","<img src=""img/food6.png"" style=""width:200px; border:14px solid green;"">","null","","","","","","","","","",""
"","instructions","364","164196","0.0-454.0","3KYQYYSHYWTQGSAOCCUOU05CVESODK","A2N4DD7IS7EI2D","31YWE12TE0YV78PCVO9WO2QLDWO7XY","[{""page_index"":0,""viewing_time"":4771.699999988079}]","4771.900000035763","","","","","","","","","","","",""
"","survey-text","365","170063","0.0-455.0","3KYQYYSHYWTQGSAOCCUOU05CVESODK","A2N4DD7IS7EI2D","31YWE12TE0YV78PCVO9WO2QLDWO7XY","","5860.800000011921","","","","","","","","","","","","{""Q0"":""A2N4DD7IS7EI2D""}"
