"success","trial_type","trial_index","time_elapsed","internal_node_id","assignmentID","mturkID","hitID","view_history","rt","stimulus","key_press","reactionTime","a","r","s","cond","reward_cond","reward_cond_actual","reward_matrix_idx","warning","responses"
"true","fullscreen","0","2173","0.0-0.0","","","","","","","","","","","","","","","","",""
"","instructions","1","19945","0.0-1.0","","","","[{""page_index"":0,""viewing_time"":964},{""page_index"":1,""viewing_time"":592},{""page_index"":2,""viewing_time"":626},{""page_index"":3,""viewing_time"":9436},{""page_index"":4,""viewing_time"":2984},{""page_index"":5,""viewing_time"":1195},{""page_index"":6,""viewing_time"":1972}]","17769","","","","","","","","","","","",""
"","image-keyboard-response","2","20881","0.0-2.0","","","","","934","img/food5.png","74","936","1","1","3","1","1,0.7,0,1,0.7,0,0.7,0,1","0,1,0.7,0,1,0.7,1,0.7,0","3","",""
"","html-keyboard-response","3","21184","0.0-3.0","","","","","null","<img src=""img/food5.png"" style=""width:200px; border:14px solid green;"">","null","","","","","","","","","",""
"","image-keyboard-response","4","22497","0.0-4.0","","","","","1311","img/food1.png","74","1312","1","0","2","1","1,0.7,0,1,0.7,0,0.7,0,1","0,1,0.7,0,1,0.7,1,0.7,0","3","",""
"","html-keyboard-response","5","22799","0.0-5.0","","","","","null","<img src=""img/food1.png"" style=""width:200px;border:14px solid red;"">","null","","","","","","","","","",""
"","image-keyboard-response","6","23377","0.0-6.0","","","","","577","img/food1.png","75","579","2","1","2","1","1,0.7,0,1,0.7,0,0.7,0,1","0,1,0.7,0,1,0.7,1,0.7,0","3","",""
"","html-keyboard-response","7","23678","0.0-7.0","","","","","null","<img src=""img/food1.png"" style=""width:200px; border:14px solid green;"">","null","","","","","","","","","",""
"","image-keyboard-response","8","24450","0.0-8.0","","","","","770","img/food3.png","74","770","1","0","1","1","1,0.7,0,1,0.7,0,0.7,0,1","0,1,0.7,0,1,0.7,1,0.7,0","3","",""
"","html-keyboard-response","9","24751","0.0-9.0","","","","","null","<img src=""img/food3.png"" style=""width:200px;border:14px solid red;"">","null","","","","","","","","","",""
"","image-keyboard-response","10","25569","0.0-10.0","","","","","817","img/food5.png","74","818","1","1","3","1","1,0.7,0,1,0.7,0,0.7,0,1","0,1,0.7,0,1,0.7,1,0.7,0","3","",""
"","html-keyboard-response","11","25870","0.0-11.0","","","","","null","<img src=""img/food5.png"" style=""width:200px; border:14px solid green;"">","null","","","","","","","","","",""
"","image-keyboard-response","12","26369","0.0-12.0","","","","","497","img/food5.png","74","499","1","1","3","1","1,0.7,0,1,0.7,0,0.7,0,1","0,1,0.7,0,1,0.7,1,0.7,0","3","",""
"","html-keyboard-response","13","26671","0.0-13.0","","","","","null","<img src=""img/food5.png"" style=""width:200px; border:14px solid green;"">","null","","","","","","","","","",""
"","image-keyboard-response","14","27264","0.0-14.0","","","","","592","img/food1.png","75","595","2","1","2","1","1,0.7,0,1,0.7,0,0.7,0,1","0,1,0.7,0,1,0.7,1,0.7,0","3","",""
"","html-keyboard-response","15","27566","0.0-15.0","","","","","null","<img src=""img/food1.png"" style=""width:200px; border:14px solid green;"">","null","","","","","","","","","",""
"","image-keyboard-response","16","28161","0.0-16.0","","","","","593","img/food5.png","74","595","1","1","3","1","1,0.7,0,1,0.7,0,0.7,0,1","0,1,0.7,0,1,0.7,1,0.7,0","3","",""
"","html-keyboard-response","17","28462","0.0-17.0","","","","","null","<img src=""img/food5.png"" style=""width:200px; border:14px solid green;"">","null","","","","","","","","","",""
"","image-keyboard-response","18","28832","0.0-18.0","","","","","369","img/food5.png","74","369","1","1","3","1","1,0.7,0,1,0.7,0,0.7,0,1","0,1,0.7,0,1,0.7,1,0.7,0","3","",""
"","html-keyboard-response","19","29135","0.0-19.0","","","","","null","<img src=""img/food5.png"" style=""width:200px; border:14px solid green;"">","null","","","","","","","","","",""
"","image-keyboard-response","20","29569","0.0-20.0","","","","","434","img/food1.png","75","434","2","1","2","1","1,0.7,0,1,0.7,0,0.7,0,1","0,1,0.7,0,1,0.7,1,0.7,0","3","",""
"","html-keyboard-response","21","29871","0.0-21.0","","","","","null","<img src=""img/food1.png"" style=""width:200px; border:14px solid green;"">","null","","","","","","","","","",""
"","image-keyboard-response","22","30481","0.0-22.0","","","","","609","img/food3.png","76","611","3","1","1","1","1,0.7,0,1,0.7,0,0.7,0,1","0,1,0.7,0,1,0.7,1,0.7,0","3","",""
"","html-keyboard-response","23","30783","0.0-23.0","","","","","null","<img src=""img/food3.png"" style=""width:200px; border:14px solid green;"">","null","","","","","","","","","",""
"","image-keyboard-response","24","31216","0.0-24.0","","","","","433","img/food3.png","76","434","3","0","1","1","1,0.7,0,1,0.7,0,0.7,0,1","0,1,0.7,0,1,0.7,1,0.7,0","3","",""
"","html-keyboard-response","25","31518","0.0-25.0","","","","","null","<img src=""img/food3.png"" style=""width:200px;border:14px solid red;"">","null","","","","","","","","","",""
"","image-keyboard-response","26","32018","0.0-26.0","","","","","498","img/food3.png","76","498","3","1","1","1","1,0.7,0,1,0.7,0,0.7,0,1","0,1,0.7,0,1,0.7,1,0.7,0","3","",""
"","html-keyboard-response","27","32318","0.0-27.0","","","","","null","<img src=""img/food3.png"" style=""width:200px; border:14px solid green;"">","null","","","","","","","","","",""
"","image-keyboard-response","28","33234","0.0-28.0","","","","","914","img/food5.png","74","915","1","1","3","1","1,0.7,0,1,0.7,0,0.7,0,1","0,1,0.7,0,1,0.7,1,0.7,0","3","",""
"","html-keyboard-response","29","33535","0.0-29.0","","","","","null","<img src=""img/food5.png"" style=""width:200px; border:14px solid green;"">","null","","","","","","","","","",""
"","image-keyboard-response","30","34304","0.0-30.0","","","","","769","img/food3.png","76","770","3","1","1","1","1,0.7,0,1,0.7,0,0.7,0,1","0,1,0.7,0,1,0.7,1,0.7,0","3","",""
"","html-keyboard-response","31","34607","0.0-31.0","","","","","null","<img src=""img/food3.png"" style=""width:200px; border:14px solid green;"">","null","","","","","","","","","",""
"","image-keyboard-response","32","35297","0.0-32.0","","","","","688","img/food1.png","75","691","2","1","2","1","1,0.7,0,1,0.7,0,0.7,0,1","0,1,0.7,0,1,0.7,1,0.7,0","3","",""
"","html-keyboard-response","33","35598","0.0-33.0","","","","","null","<img src=""img/food1.png"" style=""width:200px; border:14px solid green;"">","null","","","","","","","","","",""
"","image-keyboard-response","34","36273","0.0-34.0","","","","","673","img/food5.png","74","674","1","1","3","1","1,0.7,0,1,0.7,0,0.7,0,1","0,1,0.7,0,1,0.7,1,0.7,0","3","",""
"","html-keyboard-response","35","36574","0.0-35.0","","","","","null","<img src=""img/food5.png"" style=""width:200px; border:14px solid green;"">","null","","","","","","","","","",""
"","image-keyboard-response","36","36945","0.0-36.0","","","","","370","img/food5.png","74","370","1","1","3","1","1,0.7,0,1,0.7,0,0.7,0,1","0,1,0.7,0,1,0.7,1,0.7,0","3","",""
"","html-keyboard-response","37","37246","0.0-37.0","","","","","null","<img src=""img/food5.png"" style=""width:200px; border:14px solid green;"">","null","","","","","","","","","",""
"","image-keyboard-response","38","37905","0.0-38.0","","","","","657","img/food1.png","75","658","2","1","2","1","1,0.7,0,1,0.7,0,0.7,0,1","0,1,0.7,0,1,0.7,1,0.7,0","3","",""
"","html-keyboard-response","39","38206","0.0-39.0","","","","","null","<img src=""img/food1.png"" style=""width:200px; border:14px solid green;"">","null","","","","","","","","","",""
"","image-keyboard-response","40","39153","0.0-40.0","","","","","946","img/food5.png","74","947","1","1","3","1","1,0.7,0,1,0.7,0,0.7,0,1","0,1,0.7,0,1,0.7,1,0.7,0","3","",""
"","html-keyboard-response","41","39455","0.0-41.0","","","","","null","<img src=""img/food5.png"" style=""width:200px; border:14px solid green;"">","null","","","","","","","","","",""
"","image-keyboard-response","42","39793","0.0-42.0","","","","","337","img/food5.png","74","337","1","1","3","1","1,0.7,0,1,0.7,0,0.7,0,1","0,1,0.7,0,1,0.7,1,0.7,0","3","",""
"","html-keyboard-response","43","40093","0.0-43.0","","","","","null","<img src=""img/food5.png"" style=""width:200px; border:14px solid green;"">","null","","","","","","","","","",""
"","image-keyboard-response","44","40480","0.0-44.0","","","","","385","img/food5.png","74","387","1","1","3","1","1,0.7,0,1,0.7,0,0.7,0,1","0,1,0.7,0,1,0.7,1,0.7,0","3","",""
"","html-keyboard-response","45","40782","0.0-45.0","","","","","null","<img src=""img/food5.png"" style=""width:200px; border:14px solid green;"">","null","","","","","","","","","",""
"","image-keyboard-response","46","41440","0.0-46.0","","","","","657","img/food1.png","75","658","2","1","2","1","1,0.7,0,1,0.7,0,0.7,0,1","0,1,0.7,0,1,0.7,1,0.7,0","3","",""
"","html-keyboard-response","47","41741","0.0-47.0","","","","","null","<img src=""img/food1.png"" style=""width:200px; border:14px solid green;"">","null","","","","","","","","","",""
"","image-keyboard-response","48","42657","0.0-48.0","","","","","914","img/food3.png","76","914","3","1","1","1","1,0.7,0,1,0.7,0,0.7,0,1","0,1,0.7,0,1,0.7,1,0.7,0","3","",""
"","html-keyboard-response","49","42958","0.0-49.0","","","","","null","<img src=""img/food3.png"" style=""width:200px; border:14px solid green;"">","null","","","","","","","","","",""
"","image-keyboard-response","50","43601","0.0-50.0","","","","","642","img/food1.png","75","642","2","1","2","1","1,0.7,0,1,0.7,0,0.7,0,1","0,1,0.7,0,1,0.7,1,0.7,0","3","",""
"","html-keyboard-response","51","43904","0.0-51.0","","","","","null","<img src=""img/food1.png"" style=""width:200px; border:14px solid green;"">","null","","","","","","","","","",""
"","image-keyboard-response","52","44304","0.0-52.0","","","","","400","img/food1.png","75","400","2","1","2","1","1,0.7,0,1,0.7,0,0.7,0,1","0,1,0.7,0,1,0.7,1,0.7,0","3","",""
"","html-keyboard-response","53","44606","0.0-53.0","","","","","null","<img src=""img/food1.png"" style=""width:200px; border:14px solid green;"">","null","","","","","","","","","",""
"","image-keyboard-response","54","45985","0.0-54.0","","","","","1378","img/food5.png","74","1379","1","1","3","1","1,0.7,0,1,0.7,0,0.7,0,1","0,1,0.7,0,1,0.7,1,0.7,0","3","",""
"","html-keyboard-response","55","46286","0.0-55.0","","","","","null","<img src=""img/food5.png"" style=""width:200px; border:14px solid green;"">","null","","","","","","","","","",""
"","image-keyboard-response","56","46704","0.0-56.0","","","","","418","img/food5.png","74","419","1","1","3","1","1,0.7,0,1,0.7,0,0.7,0,1","0,1,0.7,0,1,0.7,1,0.7,0","3","",""
"","html-keyboard-response","57","47006","0.0-57.0","","","","","null","<img src=""img/food5.png"" style=""width:200px; border:14px solid green;"">","null","","","","","","","","","",""
"","image-keyboard-response","58","47393","0.0-58.0","","","","","386","img/food5.png","74","388","1","1","3","1","1,0.7,0,1,0.7,0,0.7,0,1","0,1,0.7,0,1,0.7,1,0.7,0","3","",""
"","html-keyboard-response","59","47694","0.0-59.0","","","","","null","<img src=""img/food5.png"" style=""width:200px; border:14px solid green;"">","null","","","","","","","","","",""
"","image-keyboard-response","60","48384","0.0-60.0","","","","","690","img/food1.png","75","691","2","1","2","1","1,0.7,0,1,0.7,0,0.7,0,1","0,1,0.7,0,1,0.7,1,0.7,0","3","",""
"","html-keyboard-response","61","48685","0.0-61.0","","","","","null","<img src=""img/food1.png"" style=""width:200px; border:14px solid green;"">","null","","","","","","","","","",""
"","image-keyboard-response","62","49072","0.0-62.0","","","","","385","img/food1.png","75","386","2","1","2","1","1,0.7,0,1,0.7,0,0.7,0,1","0,1,0.7,0,1,0.7,1,0.7,0","3","",""
"","html-keyboard-response","63","49373","0.0-63.0","","","","","null","<img src=""img/food1.png"" style=""width:200px; border:14px solid green;"">","null","","","","","","","","","",""
"","image-keyboard-response","64","49952","0.0-64.0","","","","","578","img/food5.png","74","580","1","1","3","1","1,0.7,0,1,0.7,0,0.7,0,1","0,1,0.7,0,1,0.7,1,0.7,0","3","",""
"","html-keyboard-response","65","50254","0.0-65.0","","","","","null","<img src=""img/food5.png"" style=""width:200px; border:14px solid green;"">","null","","","","","","","","","",""
"","image-keyboard-response","66","50864","0.0-66.0","","","","","609","img/food3.png","76","611","3","1","1","1","1,0.7,0,1,0.7,0,0.7,0,1","0,1,0.7,0,1,0.7,1,0.7,0","3","",""
"","html-keyboard-response","67","51166","0.0-67.0","","","","","null","<img src=""img/food3.png"" style=""width:200px; border:14px solid green;"">","null","","","","","","","","","",""
"","image-keyboard-response","68","51585","0.0-68.0","","","","","419","img/food3.png","76","419","3","1","1","1","1,0.7,0,1,0.7,0,0.7,0,1","0,1,0.7,0,1,0.7,1,0.7,0","3","",""
"","html-keyboard-response","69","51887","0.0-69.0","","","","","null","<img src=""img/food3.png"" style=""width:200px; border:14px solid green;"">","null","","","","","","","","","",""
"","image-keyboard-response","70","52257","0.0-70.0","","","","","369","img/food3.png","76","370","3","1","1","1","1,0.7,0,1,0.7,0,0.7,0,1","0,1,0.7,0,1,0.7,1,0.7,0","3","",""
"","html-keyboard-response","71","52558","0.0-71.0","","","","","null","<img src=""img/food3.png"" style=""width:200px; border:14px solid green;"">","null","","","","","","","","","",""
"","image-keyboard-response","72","53088","0.0-72.0","","","","","530","img/food3.png","76","530","3","0","1","1","1,0.7,0,1,0.7,0,0.7,0,1","0,1,0.7,0,1,0.7,1,0.7,0","3","",""
"","html-keyboard-response","73","53389","0.0-73.0","","","","","null","<img src=""img/food3.png"" style=""width:200px;border:14px solid red;"">","null","","","","","","","","","",""
"","image-keyboard-response","74","53936","0.0-74.0","","","","","546","img/food3.png","76","547","3","1","1","1","1,0.7,0,1,0.7,0,0.7,0,1","0,1,0.7,0,1,0.7,1,0.7,0","3","",""
"","html-keyboard-response","75","54238","0.0-75.0","","","","","null","<img src=""img/food3.png"" style=""width:200px; border:14px solid green;"">","null","","","","","","","","","",""
"","image-keyboard-response","76","54848","0.0-76.0","","","","","610","img/food1.png","75","610","2","1","2","1","1,0.7,0,1,0.7,0,0.7,0,1","0,1,0.7,0,1,0.7,1,0.7,0","3","",""
"","html-keyboard-response","77","55150","0.0-77.0","","","","","null","<img src=""img/food1.png"" style=""width:200px; border:14px solid green;"">","null","","","","","","","","","",""
"","image-keyboard-response","78","55473","0.0-78.0","","","","","320","img/food1.png","75","323","2","1","2","1","1,0.7,0,1,0.7,0,0.7,0,1","0,1,0.7,0,1,0.7,1,0.7,0","3","",""
"","html-keyboard-response","79","55776","0.0-79.0","","","","","null","<img src=""img/food1.png"" style=""width:200px; border:14px solid green;"">","null","","","","","","","","","",""
"","image-keyboard-response","80","56449","0.0-80.0","","","","","670","img/food3.png","76","673","3","0","1","1","1,0.7,0,1,0.7,0,0.7,0,1","0,1,0.7,0,1,0.7,1,0.7,0","3","",""
"","html-keyboard-response","81","56751","0.0-81.0","","","","","null","<img src=""img/food3.png"" style=""width:200px;border:14px solid red;"">","null","","","","","","","","","",""
"","image-keyboard-response","82","58656","0.0-82.0","","","","","1904","img/food1.png","75","1904","2","1","2","1","1,0.7,0,1,0.7,0,0.7,0,1","0,1,0.7,0,1,0.7,1,0.7,0","3","",""
"","html-keyboard-response","83","58958","0.0-83.0","","","","","null","<img src=""img/food1.png"" style=""width:200px; border:14px solid green;"">","null","","","","","","","","","",""
"","image-keyboard-response","84","59680","0.0-84.0","","","","","721","img/food3.png","76","723","3","0","1","1","1,0.7,0,1,0.7,0,0.7,0,1","0,1,0.7,0,1,0.7,1,0.7,0","3","",""
"","html-keyboard-response","85","59982","0.0-85.0","","","","","null","<img src=""img/food3.png"" style=""width:200px;border:14px solid red;"">","null","","","","","","","","","",""
"","image-keyboard-response","86","60369","0.0-86.0","","","","","386","img/food3.png","76","386","3","1","1","1","1,0.7,0,1,0.7,0,0.7,0,1","0,1,0.7,0,1,0.7,1,0.7,0","3","",""
"","html-keyboard-response","87","60670","0.0-87.0","","","","","null","<img src=""img/food3.png"" style=""width:200px; border:14px solid green;"">","null","","","","","","","","","",""
"","image-keyboard-response","88","61201","0.0-88.0","","","","","530","img/food5.png","74","530","1","1","3","1","1,0.7,0,1,0.7,0,0.7,0,1","0,1,0.7,0,1,0.7,1,0.7,0","3","",""
"","html-keyboard-response","89","61502","0.0-89.0","","","","","null","<img src=""img/food5.png"" style=""width:200px; border:14px solid green;"">","null","","","","","","","","","",""
"","image-keyboard-response","90","61872","0.0-90.0","","","","","370","img/food5.png","74","371","1","1","3","1","1,0.7,0,1,0.7,0,0.7,0,1","0,1,0.7,0,1,0.7,1,0.7,0","3","",""
"","html-keyboard-response","91","62175","0.0-91.0","","","","","null","<img src=""img/food5.png"" style=""width:200px; border:14px solid green;"">","null","","","","","","","","","",""
"","image-keyboard-response","92","62673","0.0-92.0","","","","","497","img/food1.png","75","498","2","1","2","1","1,0.7,0,1,0.7,0,0.7,0,1","0,1,0.7,0,1,0.7,1,0.7,0","3","",""
"","html-keyboard-response","93","62974","0.0-93.0","","","","","null","<img src=""img/food1.png"" style=""width:200px; border:14px solid green;"">","null","","","","","","","","","",""
"","image-keyboard-response","94","63568","0.0-94.0","","","","","593","img/food3.png","76","594","3","1","1","1","1,0.7,0,1,0.7,0,0.7,0,1","0,1,0.7,0,1,0.7,1,0.7,0","3","",""
"","html-keyboard-response","95","63870","0.0-95.0","","","","","null","<img src=""img/food3.png"" style=""width:200px; border:14px solid green;"">","null","","","","","","","","","",""
"","image-keyboard-response","96","64433","0.0-96.0","","","","","562","img/food1.png","75","562","2","1","2","1","1,0.7,0,1,0.7,0,0.7,0,1","0,1,0.7,0,1,0.7,1,0.7,0","3","",""
"","html-keyboard-response","97","64735","0.0-97.0","","","","","null","<img src=""img/food1.png"" style=""width:200px; border:14px solid green;"">","null","","","","","","","","","",""
"","image-keyboard-response","98","65088","0.0-98.0","","","","","353","img/food1.png","75","355","2","1","2","1","1,0.7,0,1,0.7,0,0.7,0,1","0,1,0.7,0,1,0.7,1,0.7,0","3","",""
"","html-keyboard-response","99","65390","0.0-99.0","","","","","null","<img src=""img/food1.png"" style=""width:200px; border:14px solid green;"">","null","","","","","","","","","",""
"","image-keyboard-response","100","66000","0.0-100.0","","","","","609","img/food3.png","74","611","1","0","1","1","1,0.7,0,1,0.7,0,0.7,0,1","0,1,0.7,0,1,0.7,1,0.7,0","3","",""
"","html-keyboard-response","101","66303","0.0-101.0","","","","","null","<img src=""img/food3.png"" style=""width:200px;border:14px solid red;"">","null","","","","","","","","","",""
"","image-keyboard-response","102","66768","0.0-102.0","","","","","465","img/food3.png","76","465","3","1","1","1","1,0.7,0,1,0.7,0,0.7,0,1","0,1,0.7,0,1,0.7,1,0.7,0","3","",""
"","html-keyboard-response","103","67069","0.0-103.0","","","","","null","<img src=""img/food3.png"" style=""width:200px; border:14px solid green;"">","null","","","","","","","","","",""
"","image-keyboard-response","104","67617","0.0-104.0","","","","","547","img/food5.png","74","548","1","1","3","1","1,0.7,0,1,0.7,0,0.7,0,1","0,1,0.7,0,1,0.7,1,0.7,0","3","",""
"","html-keyboard-response","105","67918","0.0-105.0","","","","","null","<img src=""img/food5.png"" style=""width:200px; border:14px solid green;"">","null","","","","","","","","","",""
"","image-keyboard-response","106","68304","0.0-106.0","","","","","386","img/food5.png","74","387","1","1","3","1","1,0.7,0,1,0.7,0,0.7,0,1","0,1,0.7,0,1,0.7,1,0.7,0","3","",""
"","html-keyboard-response","107","68606","0.0-107.0","","","","","null","<img src=""img/food5.png"" style=""width:200px; border:14px solid green;"">","null","","","","","","","","","",""
"","image-keyboard-response","108","68992","0.0-108.0","","","","","384","img/food5.png","74","385","1","1","3","1","1,0.7,0,1,0.7,0,0.7,0,1","0,1,0.7,0,1,0.7,1,0.7,0","3","",""
"","html-keyboard-response","109","69292","0.0-109.0","","","","","null","<img src=""img/food5.png"" style=""width:200px; border:14px solid green;"">","null","","","","","","","","","",""
"","image-keyboard-response","110","69920","0.0-110.0","","","","","626","img/food3.png","76","628","3","1","1","1","1,0.7,0,1,0.7,0,0.7,0,1","0,1,0.7,0,1,0.7,1,0.7,0","3","",""
"","html-keyboard-response","111","70221","0.0-111.0","","","","","null","<img src=""img/food3.png"" style=""width:200px; border:14px solid green;"">","null","","","","","","","","","",""
"","image-keyboard-response","112","71344","0.0-112.0","","","","","1122","img/food5.png","74","1123","1","1","3","1","1,0.7,0,1,0.7,0,0.7,0,1","0,1,0.7,0,1,0.7,1,0.7,0","3","",""
"","html-keyboard-response","113","71645","0.0-113.0","","","","","null","<img src=""img/food5.png"" style=""width:200px; border:14px solid green;"">","null","","","","","","","","","",""
"","image-keyboard-response","114","72273","0.0-114.0","","","","","627","img/food1.png","75","627","2","1","2","1","1,0.7,0,1,0.7,0,0.7,0,1","0,1,0.7,0,1,0.7,1,0.7,0","3","",""
"","html-keyboard-response","115","72573","0.0-115.0","","","","","null","<img src=""img/food1.png"" style=""width:200px; border:14px solid green;"">","null","","","","","","","","","",""
"","image-keyboard-response","116","72928","0.0-116.0","","","","","352","img/food1.png","75","353","2","1","2","1","1,0.7,0,1,0.7,0,0.7,0,1","0,1,0.7,0,1,0.7,1,0.7,0","3","",""
"","html-keyboard-response","117","73229","0.0-117.0","","","","","null","<img src=""img/food1.png"" style=""width:200px; border:14px solid green;"">","null","","","","","","","","","",""
"","image-keyboard-response","118","73585","0.0-118.0","","","","","356","img/food1.png","75","356","2","1","2","1","1,0.7,0,1,0.7,0,0.7,0,1","0,1,0.7,0,1,0.7,1,0.7,0","3","",""
"","html-keyboard-response","119","73885","0.0-119.0","","","","","null","<img src=""img/food1.png"" style=""width:200px; border:14px solid green;"">","null","","","","","","","","","",""
"","image-keyboard-response","120","74240","0.0-120.0","","","","","352","img/food1.png","75","353","2","1","2","1","1,0.7,0,1,0.7,0,0.7,0,1","0,1,0.7,0,1,0.7,1,0.7,0","3","",""
"","html-keyboard-response","121","74541","0.0-121.0","","","","","null","<img src=""img/food1.png"" style=""width:200px; border:14px solid green;"">","null","","","","","","","","","",""
"","image-keyboard-response","122","74914","0.0-122.0","","","","","373","img/food1.png","75","373","2","1","2","1","1,0.7,0,1,0.7,0,0.7,0,1","0,1,0.7,0,1,0.7,1,0.7,0","3","",""
"","html-keyboard-response","123","75215","0.0-123.0","","","","","null","<img src=""img/food1.png"" style=""width:200px; border:14px solid green;"">","null","","","","","","","","","",""
"","image-keyboard-response","124","75888","0.0-124.0","","","","","673","img/food3.png","76","673","3","0","1","1","1,0.7,0,1,0.7,0,0.7,0,1","0,1,0.7,0,1,0.7,1,0.7,0","3","",""
"","html-keyboard-response","125","76190","0.0-125.0","","","","","null","<img src=""img/food3.png"" style=""width:200px;border:14px solid red;"">","null","","","","","","","","","",""
"","image-keyboard-response","126","76576","0.0-126.0","","","","","386","img/food3.png","76","386","3","1","1","1","1,0.7,0,1,0.7,0,0.7,0,1","0,1,0.7,0,1,0.7,1,0.7,0","3","",""
"","html-keyboard-response","127","76877","0.0-127.0","","","","","null","<img src=""img/food3.png"" style=""width:200px; border:14px solid green;"">","null","","","","","","","","","",""
"","image-keyboard-response","128","77568","0.0-128.0","","","","","690","img/food1.png","75","690","2","1","2","1","1,0.7,0,1,0.7,0,0.7,0,1","0,1,0.7,0,1,0.7,1,0.7,0","3","",""
"","html-keyboard-response","129","77869","0.0-129.0","","","","","null","<img src=""img/food1.png"" style=""width:200px; border:14px solid green;"">","null","","","","","","","","","",""
"","image-keyboard-response","130","78240","0.0-130.0","","","","","370","img/food1.png","75","370","2","1","2","1","1,0.7,0,1,0.7,0,0.7,0,1","0,1,0.7,0,1,0.7,1,0.7,0","3","",""
"","html-keyboard-response","131","78541","0.0-131.0","","","","","null","<img src=""img/food1.png"" style=""width:200px; border:14px solid green;"">","null","","","","","","","","","",""
"","image-keyboard-response","132","78864","0.0-132.0","","","","","323","img/food1.png","75","323","2","1","2","1","1,0.7,0,1,0.7,0,0.7,0,1","0,1,0.7,0,1,0.7,1,0.7,0","3","",""
"","html-keyboard-response","133","79164","0.0-133.0","","","","","null","<img src=""img/food1.png"" style=""width:200px; border:14px solid green;"">","null","","","","","","","","","",""
"","image-keyboard-response","134","79952","0.0-134.0","","","","","787","img/food5.png","74","788","1","1","3","1","1,0.7,0,1,0.7,0,0.7,0,1","0,1,0.7,0,1,0.7,1,0.7,0","3","",""
"","html-keyboard-response","135","80253","0.0-135.0","","","","","null","<img src=""img/food5.png"" style=""width:200px; border:14px solid green;"">","null","","","","","","","","","",""
"","image-keyboard-response","136","80625","0.0-136.0","","","","","369","img/food5.png","74","371","1","1","3","1","1,0.7,0,1,0.7,0,0.7,0,1","0,1,0.7,0,1,0.7,1,0.7,0","3","",""
"","html-keyboard-response","137","80925","0.0-137.0","","","","","null","<img src=""img/food5.png"" style=""width:200px; border:14px solid green;"">","null","","","","","","","","","",""
"","image-keyboard-response","138","81536","0.0-138.0","","","","","609","img/food1.png","75","610","2","1","2","1","1,0.7,0,1,0.7,0,0.7,0,1","0,1,0.7,0,1,0.7,1,0.7,0","3","",""
"","html-keyboard-response","139","81837","0.0-139.0","","","","","null","<img src=""img/food1.png"" style=""width:200px; border:14px solid green;"">","null","","","","","","","","","",""
"","image-keyboard-response","140","82576","0.0-140.0","","","","","738","img/food3.png","76","739","3","1","1","1","1,0.7,0,1,0.7,0,0.7,0,1","0,1,0.7,0,1,0.7,1,0.7,0","3","",""
"","html-keyboard-response","141","82878","0.0-141.0","","","","","null","<img src=""img/food3.png"" style=""width:200px; border:14px solid green;"">","null","","","","","","","","","",""
"","image-keyboard-response","142","83600","0.0-142.0","","","","","722","img/food5.png","74","723","1","1","3","1","1,0.7,0,1,0.7,0,0.7,0,1","0,1,0.7,0,1,0.7,1,0.7,0","3","",""
"","html-keyboard-response","143","83901","0.0-143.0","","","","","null","<img src=""img/food5.png"" style=""width:200px; border:14px solid green;"">","null","","","","","","","","","",""
"","image-keyboard-response","144","84720","0.0-144.0","","","","","818","img/food3.png","76","819","3","1","1","1","1,0.7,0,1,0.7,0,0.7,0,1","0,1,0.7,0,1,0.7,1,0.7,0","3","",""
"","html-keyboard-response","145","85021","0.0-145.0","","","","","null","<img src=""img/food3.png"" style=""width:200px; border:14px solid green;"">","null","","","","","","","","","",""
"","image-keyboard-response","146","86672","0.0-146.0","","","","","1649","img/food5.png","74","1651","1","1","3","1","1,0.7,0,1,0.7,0,0.7,0,1","0,1,0.7,0,1,0.7,1,0.7,0","3","",""
"","html-keyboard-response","147","86973","0.0-147.0","","","","","null","<img src=""img/food5.png"" style=""width:200px; border:14px solid green;"">","null","","","","","","","","","",""
"","image-keyboard-response","148","87680","0.0-148.0","","","","","706","img/food1.png","75","707","2","1","2","1","1,0.7,0,1,0.7,0,0.7,0,1","0,1,0.7,0,1,0.7,1,0.7,0","3","",""
"","html-keyboard-response","149","87982","0.0-149.0","","","","","null","<img src=""img/food1.png"" style=""width:200px; border:14px solid green;"">","null","","","","","","","","","",""
"","image-keyboard-response","150","88752","0.0-150.0","","","","","769","img/food3.png","76","769","3","0","1","1","1,0.7,0,1,0.7,0,0.7,0,1","0,1,0.7,0,1,0.7,1,0.7,0","3","",""
"","html-keyboard-response","151","89053","0.0-151.0","","","","","null","<img src=""img/food3.png"" style=""width:200px;border:14px solid red;"">","null","","","","","","","","","",""
"","image-keyboard-response","152","89520","0.0-152.0","","","","","467","img/food3.png","76","467","3","0","1","1","1,0.7,0,1,0.7,0,0.7,0,1","0,1,0.7,0,1,0.7,1,0.7,0","3","",""
"","html-keyboard-response","153","89821","0.0-153.0","","","","","null","<img src=""img/food3.png"" style=""width:200px;border:14px solid red;"">","null","","","","","","","","","",""
"","image-keyboard-response","154","90576","0.0-154.0","","","","","754","img/food5.png","74","755","1","1","3","1","1,0.7,0,1,0.7,0,0.7,0,1","0,1,0.7,0,1,0.7,1,0.7,0","3","",""
"","html-keyboard-response","155","90877","0.0-155.0","","","","","null","<img src=""img/food5.png"" style=""width:200px; border:14px solid green;"">","null","","","","","","","","","",""
"","image-keyboard-response","156","91632","0.0-156.0","","","","","754","img/food3.png","76","755","3","1","1","1","1,0.7,0,1,0.7,0,0.7,0,1","0,1,0.7,0,1,0.7,1,0.7,0","3","",""
"","html-keyboard-response","157","91933","0.0-157.0","","","","","null","<img src=""img/food3.png"" style=""width:200px; border:14px solid green;"">","null","","","","","","","","","",""
"","image-keyboard-response","158","92368","0.0-158.0","","","","","434","img/food3.png","76","435","3","1","1","1","1,0.7,0,1,0.7,0,0.7,0,1","0,1,0.7,0,1,0.7,1,0.7,0","3","",""
"","html-keyboard-response","159","92670","0.0-159.0","","","","","null","<img src=""img/food3.png"" style=""width:200px; border:14px solid green;"">","null","","","","","","","","","",""
"","image-keyboard-response","160","93216","0.0-160.0","","","","","546","img/food3.png","76","546","3","0","1","1","1,0.7,0,1,0.7,0,0.7,0,1","0,1,0.7,0,1,0.7,1,0.7,0","3","",""
"","html-keyboard-response","161","93517","0.0-161.0","","","","","null","<img src=""img/food3.png"" style=""width:200px;border:14px solid red;"">","null","","","","","","","","","",""
"","image-keyboard-response","162","94176","0.0-162.0","","","","","657","img/food3.png","76","658","3","1","1","1","1,0.7,0,1,0.7,0,0.7,0,1","0,1,0.7,0,1,0.7,1,0.7,0","3","",""
"","html-keyboard-response","163","94477","0.0-163.0","","","","","null","<img src=""img/food3.png"" style=""width:200px; border:14px solid green;"">","null","","","","","","","","","",""
"","image-keyboard-response","164","95040","0.0-164.0","","","","","562","img/food1.png","75","563","2","1","2","1","1,0.7,0,1,0.7,0,0.7,0,1","0,1,0.7,0,1,0.7,1,0.7,0","3","",""
"","html-keyboard-response","165","95341","0.0-165.0","","","","","null","<img src=""img/food1.png"" style=""width:200px; border:14px solid green;"">","null","","","","","","","","","",""
"","image-keyboard-response","166","95904","0.0-166.0","","","","","563","img/food5.png","74","563","1","1","3","1","1,0.7,0,1,0.7,0,0.7,0,1","0,1,0.7,0,1,0.7,1,0.7,0","3","",""
"","html-keyboard-response","167","96205","0.0-167.0","","","","","null","<img src=""img/food5.png"" style=""width:200px; border:14px solid green;"">","null","","","","","","","","","",""
"","image-keyboard-response","168","97088","0.0-168.0","","","","","881","img/food3.png","76","882","3","1","1","1","1,0.7,0,1,0.7,0,0.7,0,1","0,1,0.7,0,1,0.7,1,0.7,0","3","",""
"","html-keyboard-response","169","97389","0.0-169.0","","","","","null","<img src=""img/food3.png"" style=""width:200px; border:14px solid green;"">","null","","","","","","","","","",""
"","image-keyboard-response","170","97968","0.0-170.0","","","","","579","img/food1.png","75","579","2","1","2","1","1,0.7,0,1,0.7,0,0.7,0,1","0,1,0.7,0,1,0.7,1,0.7,0","3","",""
"","html-keyboard-response","171","98269","0.0-171.0","","","","","null","<img src=""img/food1.png"" style=""width:200px; border:14px solid green;"">","null","","","","","","","","","",""
"","image-keyboard-response","172","98880","0.0-172.0","","","","","610","img/food5.png","74","610","1","1","3","1","1,0.7,0,1,0.7,0,0.7,0,1","0,1,0.7,0,1,0.7,1,0.7,0","3","",""
"","html-keyboard-response","173","99181","0.0-173.0","","","","","null","<img src=""img/food5.png"" style=""width:200px; border:14px solid green;"">","null","","","","","","","","","",""
"","image-keyboard-response","174","99903","0.0-174.0","","","","","723","img/food3.png","76","723","3","1","1","1","1,0.7,0,1,0.7,0,0.7,0,1","0,1,0.7,0,1,0.7,1,0.7,0","3","",""
"","html-keyboard-response","175","100204","0.0-175.0","","","","","null","<img src=""img/food3.png"" style=""width:200px; border:14px solid green;"">","null","","","","","","","","","",""
"","image-keyboard-response","176","101312","0.0-176.0","","","","","1107","img/food5.png","74","1108","1","1","3","1","1,0.7,0,1,0.7,0,0.7,0,1","0,1,0.7,0,1,0.7,1,0.7,0","3","",""
"","html-keyboard-response","177","101613","0.0-177.0","","","","","null","<img src=""img/food5.png"" style=""width:200px; border:14px solid green;"">","null","","","","","","","","","",""
"","image-keyboard-response","178","102272","0.0-178.0","","","","","658","img/food1.png","75","659","2","1","2","1","1,0.7,0,1,0.7,0,0.7,0,1","0,1,0.7,0,1,0.7,1,0.7,0","3","",""
"","html-keyboard-response","179","102574","0.0-179.0","","","","","null","<img src=""img/food1.png"" style=""width:200px; border:14px solid green;"">","null","","","","","","","","","",""
"","image-keyboard-response","180","103616","0.0-180.0","","","","","1041","img/food5.png","74","1041","1","1","3","1","1,0.7,0,1,0.7,0,0.7,0,1","0,1,0.7,0,1,0.7,1,0.7,0","3","",""
"","html-keyboard-response","181","103916","0.0-181.0","","","","","null","<img src=""img/food5.png"" style=""width:200px; border:14px solid green;"">","null","","","","","","","","","",""
"","html-keyboard-response","182","106496","0.0-182.0","","","","","","","","","","","","","","","","",""
"","instructions","183","116513","0.0-183.0","","","","[{""page_index"":0,""viewing_time"":9038},{""page_index"":1,""viewing_time"":976}]","10015","","","","","","","","","","","",""
"","image-keyboard-response","184","117152","0.0-184.0","","","","","636","img/food6.png","74","638","1","1","3","2","1,0.7,0,1,0.7,0,0.7,0,1","1,0.7,0,1,0.7,0,0.7,0,1","1","false",""
"","html-keyboard-response","185","117453","0.0-185.0","","","","","null","<img src=""img/food6.png"" style=""width:200px; border:14px solid green;"">","null","","","","","","","","","",""
"","image-keyboard-response","186","117840","0.0-187.0","","","","","385","img/food6.png","74","385","1","1","3","2","1,0.7,0,1,0.7,0,0.7,0,1","1,0.7,0,1,0.7,0,0.7,0,1","1","false",""
"","html-keyboard-response","187","118141","0.0-188.0","","","","","null","<img src=""img/food6.png"" style=""width:200px; border:14px solid green;"">","null","","","","","","","","","",""
"","image-keyboard-response","188","118576","0.0-190.0","","","","","434","img/food4.png","75","434","2","1","1","2","1,0.7,0,1,0.7,0,0.7,0,1","1,0.7,0,1,0.7,0,0.7,0,1","1","false",""
"","html-keyboard-response","189","118876","0.0-191.0","","","","","null","<img src=""img/food4.png"" style=""width:200px; border:14px solid green;"">","null","","","","","","","","","",""
"","image-keyboard-response","190","119407","0.0-193.0","","","","","530","img/food6.png","74","531","1","1","3","2","1,0.7,0,1,0.7,0,0.7,0,1","1,0.7,0,1,0.7,0,0.7,0,1","1","false",""
"","html-keyboard-response","191","119709","0.0-194.0","","","","","null","<img src=""img/food6.png"" style=""width:200px; border:14px solid green;"">","null","","","","","","","","","",""
"","image-keyboard-response","192","120063","0.0-196.0","","","","","353","img/food6.png","74","355","1","0","3","2","1,0.7,0,1,0.7,0,0.7,0,1","1,0.7,0,1,0.7,0,0.7,0,1","1","false",""
"","html-keyboard-response","193","120365","0.0-197.0","","","","","null","<img src=""img/food6.png"" style=""width:200px;border:14px solid red;"">","null","","","","","","","","","",""
"","image-keyboard-response","194","121039","0.0-199.0","","","","","674","img/food2.png","76","674","3","0","2","2","1,0.7,0,1,0.7,0,0.7,0,1","1,0.7,0,1,0.7,0,0.7,0,1","1","false",""
"","html-keyboard-response","195","121340","0.0-200.0","","","","","null","<img src=""img/food2.png"" style=""width:200px;border:14px solid red;"">","null","","","","","","","","","",""
"","image-keyboard-response","196","121727","0.0-202.0","","","","","386","img/food2.png","76","387","3","0","2","2","1,0.7,0,1,0.7,0,0.7,0,1","1,0.7,0,1,0.7,0,0.7,0,1","1","false",""
"","html-keyboard-response","197","122028","0.0-203.0","","","","","null","<img src=""img/food2.png"" style=""width:200px;border:14px solid red;"">","null","","","","","","","","","",""
"","image-keyboard-response","198","122736","0.0-205.0","","","","","707","img/food4.png","75","707","2","1","1","2","1,0.7,0,1,0.7,0,0.7,0,1","1,0.7,0,1,0.7,0,0.7,0,1","1","false",""
"","html-keyboard-response","199","123037","0.0-206.0","","","","","null","<img src=""img/food4.png"" style=""width:200px; border:14px solid green;"">","null","","","","","","","","","",""
"","image-keyboard-response","200","123360","0.0-208.0","","","","","321","img/food4.png","75","321","2","0","1","2","1,0.7,0,1,0.7,0,0.7,0,1","1,0.7,0,1,0.7,0,0.7,0,1","1","false",""
"","html-keyboard-response","201","123660","0.0-209.0","","","","","null","<img src=""img/food4.png"" style=""width:200px;border:14px solid red;"">","null","","","","","","","","","",""
"","image-keyboard-response","202","124160","0.0-211.0","","","","","498","img/food2.png","74","499","1","1","2","2","1,0.7,0,1,0.7,0,0.7,0,1","1,0.7,0,1,0.7,0,0.7,0,1","1","false",""
"","html-keyboard-response","203","124460","0.0-212.0","","","","","null","<img src=""img/food2.png"" style=""width:200px; border:14px solid green;"">","null","","","","","","","","","",""
"","image-keyboard-response","204","125216","0.0-214.0","","","","","753","img/food4.png","74","754","1","1","1","2","1,0.7,0,1,0.7,0,0.7,0,1","1,0.7,0,1,0.7,0,0.7,0,1","1","false",""
"","html-keyboard-response","205","125517","0.0-215.0","","","","","null","<img src=""img/food4.png"" style=""width:200px; border:14px solid green;"">","null","","","","","","","","","",""
"","image-keyboard-response","206","126291","0.0-217.0","","","","","772","img/food6.png","74","772","1","1","3","2","1,0.7,0,1,0.7,0,0.7,0,1","1,0.7,0,1,0.7,0,0.7,0,1","1","false",""
"","html-keyboard-response","207","126592","0.0-218.0","","","","","null","<img src=""img/food6.png"" style=""width:200px; border:14px solid green;"">","null","","","","","","","","","",""
"","image-keyboard-response","208","127087","0.0-220.0","","","","","496","img/food2.png","74","496","1","1","2","2","1,0.7,0,1,0.7,0,0.7,0,1","1,0.7,0,1,0.7,0,0.7,0,1","1","false",""
"","html-keyboard-response","209","127388","0.0-221.0","","","","","null","<img src=""img/food2.png"" style=""width:200px; border:14px solid green;"">","null","","","","","","","","","",""
"","image-keyboard-response","210","127935","0.0-223.0","","","","","547","img/food6.png","74","547","1","0","3","2","1,0.7,0,1,0.7,0,0.7,0,1","1,0.7,0,1,0.7,0,0.7,0,1","1","false",""
"","html-keyboard-response","211","128237","0.0-224.0","","","","","null","<img src=""img/food6.png"" style=""width:200px;border:14px solid red;"">","null","","","","","","","","","",""
"","image-keyboard-response","212","129055","0.0-226.0","","","","","817","img/food2.png","74","818","1","1","2","2","1,0.7,0,1,0.7,0,0.7,0,1","1,0.7,0,1,0.7,0,0.7,0,1","1","false",""
"","html-keyboard-response","213","129357","0.0-227.0","","","","","null","<img src=""img/food2.png"" style=""width:200px; border:14px solid green;"">","null","","","","","","","","","",""
"","image-keyboard-response","214","129823","0.0-229.0","","","","","465","img/food6.png","74","465","1","1","3","2","1,0.7,0,1,0.7,0,0.7,0,1","1,0.7,0,1,0.7,0,0.7,0,1","1","false",""
"","html-keyboard-response","215","130125","0.0-230.0","","","","","null","<img src=""img/food6.png"" style=""width:200px; border:14px solid green;"">","null","","","","","","","","","",""
"","image-keyboard-response","216","130447","0.0-232.0","","","","","322","img/food4.png","74","323","1","1","1","2","1,0.7,0,1,0.7,0,0.7,0,1","1,0.7,0,1,0.7,0,0.7,0,1","1","false",""
"","html-keyboard-response","217","130749","0.0-233.0","","","","","null","<img src=""img/food4.png"" style=""width:200px; border:14px solid green;"">","null","","","","","","","","","",""
"","image-keyboard-response","218","131088","0.0-235.0","","","","","338","img/food6.png","74","339","1","1","3","2","1,0.7,0,1,0.7,0,0.7,0,1","1,0.7,0,1,0.7,0,0.7,0,1","1","false",""
"","html-keyboard-response","219","131389","0.0-236.0","","","","","null","<img src=""img/food6.png"" style=""width:200px; border:14px solid green;"">","null","","","","","","","","","",""
"","image-keyboard-response","220","131696","0.0-238.0","","","","","306","img/food2.png","74","307","1","1","2","2","1,0.7,0,1,0.7,0,0.7,0,1","1,0.7,0,1,0.7,0,0.7,0,1","1","false",""
"","html-keyboard-response","221","131997","0.0-239.0","","","","","null","<img src=""img/food2.png"" style=""width:200px; border:14px solid green;"">","null","","","","","","","","","",""
"","image-keyboard-response","222","132287","0.0-241.0","","","","","289","img/food2.png","74","290","1","1","2","2","1,0.7,0,1,0.7,0,0.7,0,1","1,0.7,0,1,0.7,0,0.7,0,1","1","false",""
"","html-keyboard-response","223","132589","0.0-242.0","","","","","null","<img src=""img/food2.png"" style=""width:200px; border:14px solid green;"">","null","","","","","","","","","",""
"","image-keyboard-response","224","132784","0.0-244.0","","","","","193","img/food4.png","74","194","1","1","1","2","1,0.7,0,1,0.7,0,0.7,0,1","1,0.7,0,1,0.7,0,0.7,0,1","1","false",""
"","html-keyboard-response","225","133085","0.0-245.0","","","","","null","<img src=""img/food4.png"" style=""width:200px; border:14px solid green;"">","null","","","","","","","","","",""
"","image-keyboard-response","226","133296","0.0-247.0","","","","","210","img/food6.png","74","211","1","1","3","2","1,0.7,0,1,0.7,0,0.7,0,1","1,0.7,0,1,0.7,0,0.7,0,1","1","false",""
"","html-keyboard-response","227","133597","0.0-248.0","","","","","null","<img src=""img/food6.png"" style=""width:200px; border:14px solid green;"">","null","","","","","","","","","",""
"","image-keyboard-response","228","133808","0.0-250.0","","","","","210","img/food4.png","74","211","1","1","1","2","1,0.7,0,1,0.7,0,0.7,0,1","1,0.7,0,1,0.7,0,0.7,0,1","1","false",""
"","html-keyboard-response","229","134109","0.0-251.0","","","","","null","<img src=""img/food4.png"" style=""width:200px; border:14px solid green;"">","null","","","","","","","","","",""
"","image-keyboard-response","230","134288","0.0-253.0","","","","","177","img/food6.png","74","178","1","1","3","2","1,0.7,0,1,0.7,0,0.7,0,1","1,0.7,0,1,0.7,0,0.7,0,1","1","false",""
"","html-keyboard-response","231","134589","0.0-254.0","","","","","null","<img src=""img/food6.png"" style=""width:200px; border:14px solid green;"">","null","","","","","","","","","",""
"","image-keyboard-response","232","134800","0.0-256.0","","","","","210","img/food4.png","74","211","1","1","1","2","1,0.7,0,1,0.7,0,0.7,0,1","1,0.7,0,1,0.7,0,0.7,0,1","1","false",""
"","html-keyboard-response","233","135101","0.0-257.0","","","","","null","<img src=""img/food4.png"" style=""width:200px; border:14px solid green;"">","null","","","","","","","","","",""
"","image-keyboard-response","234","135343","0.0-259.0","","","","","242","img/food4.png","74","242","1","1","1","2","1,0.7,0,1,0.7,0,0.7,0,1","1,0.7,0,1,0.7,0,0.7,0,1","1","false",""
"","html-keyboard-response","235","135645","0.0-260.0","","","","","null","<img src=""img/food4.png"" style=""width:200px; border:14px solid green;"">","null","","","","","","","","","",""
"","image-keyboard-response","236","135776","0.0-262.0","","","","","129","img/food6.png","74","132","1","1","3","2","1,0.7,0,1,0.7,0,0.7,0,1","1,0.7,0,1,0.7,0,0.7,0,1","1","false",""
"","html-keyboard-response","237","136077","0.0-263.0","","","","","null","<img src=""img/food6.png"" style=""width:200px; border:14px solid green;"">","null","","","","","","","","","",""
"","image-keyboard-response","238","136271","0.0-265.0","","","","","193","img/food2.png","74","193","1","1","2","2","1,0.7,0,1,0.7,0,0.7,0,1","1,0.7,0,1,0.7,0,0.7,0,1","1","false",""
"","html-keyboard-response","239","136573","0.0-266.0","","","","","null","<img src=""img/food2.png"" style=""width:200px; border:14px solid green;"">","null","","","","","","","","","",""
"","image-keyboard-response","240","136735","0.0-268.0","","","","","163","img/food2.png","74","163","1","1","2","2","1,0.7,0,1,0.7,0,0.7,0,1","1,0.7,0,1,0.7,0,0.7,0,1","1","false",""
"","html-keyboard-response","241","137036","0.0-269.0","","","","","null","<img src=""img/food2.png"" style=""width:200px; border:14px solid green;"">","null","","","","","","","","","",""
"","image-keyboard-response","242","137216","0.0-271.0","","","","","178","img/food6.png","74","179","1","0","3","2","1,0.7,0,1,0.7,0,0.7,0,1","1,0.7,0,1,0.7,0,0.7,0,1","1","false",""
"","html-keyboard-response","243","137517","0.0-272.0","","","","","null","<img src=""img/food6.png"" style=""width:200px;border:14px solid red;"">","null","","","","","","","","","",""
"","image-keyboard-response","244","137728","0.0-274.0","","","","","209","img/food2.png","74","210","1","1","2","2","1,0.7,0,1,0.7,0,0.7,0,1","1,0.7,0,1,0.7,0,0.7,0,1","1","false",""
"","html-keyboard-response","245","138028","0.0-275.0","","","","","null","<img src=""img/food2.png"" style=""width:200px; border:14px solid green;"">","null","","","","","","","","","",""
"","image-keyboard-response","246","138208","0.0-277.0","","","","","179","img/food6.png","74","179","1","1","3","2","1,0.7,0,1,0.7,0,0.7,0,1","1,0.7,0,1,0.7,0,0.7,0,1","1","false",""
"","html-keyboard-response","247","138509","0.0-278.0","","","","","null","<img src=""img/food6.png"" style=""width:200px; border:14px solid green;"">","null","","","","","","","","","",""
"","image-keyboard-response","248","138671","0.0-280.0","","","","","161","img/food6.png","74","162","1","0","3","2","1,0.7,0,1,0.7,0,0.7,0,1","1,0.7,0,1,0.7,0,0.7,0,1","1","false",""
"","html-keyboard-response","249","138972","0.0-281.0","","","","","null","<img src=""img/food6.png"" style=""width:200px;border:14px solid red;"">","null","","","","","","","","","",""
"","image-keyboard-response","250","139103","0.0-283.0","","","","","130","img/food4.png","74","130","1","1","1","2","1,0.7,0,1,0.7,0,0.7,0,1","1,0.7,0,1,0.7,0,0.7,0,1","1","false",""
"","html-keyboard-response","251","139405","0.0-284.0","","","","","null","<img src=""img/food4.png"" style=""width:200px; border:14px solid green;"">","null","","","","","","","","","",""
"","image-keyboard-response","252","139600","0.0-286.0","","","","","193","img/food4.png","74","194","1","1","1","2","1,0.7,0,1,0.7,0,0.7,0,1","1,0.7,0,1,0.7,0,0.7,0,1","1","false",""
"","html-keyboard-response","253","139901","0.0-287.0","","","","","null","<img src=""img/food4.png"" style=""width:200px; border:14px solid green;"">","null","","","","","","","","","",""
"","image-keyboard-response","254","140063","0.0-289.0","","","","","162","img/food4.png","74","163","1","1","1","2","1,0.7,0,1,0.7,0,0.7,0,1","1,0.7,0,1,0.7,0,0.7,0,1","1","false",""
"","html-keyboard-response","255","140365","0.0-290.0","","","","","null","<img src=""img/food4.png"" style=""width:200px; border:14px solid green;"">","null","","","","","","","","","",""
"","image-keyboard-response","256","140559","0.0-292.0","","","","","194","img/food6.png","74","194","1","1","3","2","1,0.7,0,1,0.7,0,0.7,0,1","1,0.7,0,1,0.7,0,0.7,0,1","1","false",""
"","html-keyboard-response","257","140861","0.0-293.0","","","","","null","<img src=""img/food6.png"" style=""width:200px; border:14px solid green;"">","null","","","","","","","","","",""
"","image-keyboard-response","258","140944","0.0-295.0","","","","","82","img/food6.png","74","83","1","0","3","2","1,0.7,0,1,0.7,0,0.7,0,1","1,0.7,0,1,0.7,0,0.7,0,1","1","false",""
"","html-keyboard-response","259","141245","0.0-296.0","","","","","null","<img src=""img/food6.png"" style=""width:200px;border:14px solid red;"">","null","","","","","","","","","",""
"","image-keyboard-response","260","141407","0.0-298.0","","","","","162","img/food6.png","74","162","1","1","3","2","1,0.7,0,1,0.7,0,0.7,0,1","1,0.7,0,1,0.7,0,0.7,0,1","1","false",""
"","html-keyboard-response","261","141709","0.0-299.0","","","","","null","<img src=""img/food6.png"" style=""width:200px; border:14px solid green;"">","null","","","","","","","","","",""
"","image-keyboard-response","262","141871","0.0-301.0","","","","","161","img/food2.png","74","162","1","1","2","2","1,0.7,0,1,0.7,0,0.7,0,1","1,0.7,0,1,0.7,0,0.7,0,1","1","false",""
"","html-keyboard-response","263","142173","0.0-302.0","","","","","null","<img src=""img/food2.png"" style=""width:200px; border:14px solid green;"">","null","","","","","","","","","",""
"","image-keyboard-response","264","142352","0.0-304.0","","","","","177","img/food4.png","74","179","1","1","1","2","1,0.7,0,1,0.7,0,0.7,0,1","1,0.7,0,1,0.7,0,0.7,0,1","1","false",""
"","html-keyboard-response","265","142653","0.0-305.0","","","","","null","<img src=""img/food4.png"" style=""width:200px; border:14px solid green;"">","null","","","","","","","","","",""
"","image-keyboard-response","266","142736","0.0-307.0","","","","","81","img/food2.png","74","82","1","1","2","2","1,0.7,0,1,0.7,0,0.7,0,1","1,0.7,0,1,0.7,0,0.7,0,1","1","false",""
"","html-keyboard-response","267","143036","0.0-308.0","","","","","null","<img src=""img/food2.png"" style=""width:200px; border:14px solid green;"">","null","","","","","","","","","",""
"","image-keyboard-response","268","143263","0.0-310.0","","","","","226","img/food4.png","74","227","1","1","1","2","1,0.7,0,1,0.7,0,0.7,0,1","1,0.7,0,1,0.7,0,0.7,0,1","1","false",""
"","html-keyboard-response","269","143565","0.0-311.0","","","","","null","<img src=""img/food4.png"" style=""width:200px; border:14px solid green;"">","null","","","","","","","","","",""
"","image-keyboard-response","270","143711","0.0-313.0","","","","","146","img/food4.png","74","146","1","1","1","2","1,0.7,0,1,0.7,0,0.7,0,1","1,0.7,0,1,0.7,0,0.7,0,1","1","false",""
"","html-keyboard-response","271","144013","0.0-314.0","","","","","null","<img src=""img/food4.png"" style=""width:200px; border:14px solid green;"">","null","","","","","","","","","",""
"","image-keyboard-response","272","144111","0.0-316.0","","","","","98","img/food4.png","74","99","1","1","1","2","1,0.7,0,1,0.7,0,0.7,0,1","1,0.7,0,1,0.7,0,0.7,0,1","1","false",""
"","html-keyboard-response","273","144413","0.0-317.0","","","","","null","<img src=""img/food4.png"" style=""width:200px; border:14px solid green;"">","null","","","","","","","","","",""
"","image-keyboard-response","274","144527","0.0-319.0","","","","","113","img/food4.png","74","114","1","1","1","2","1,0.7,0,1,0.7,0,0.7,0,1","1,0.7,0,1,0.7,0,0.7,0,1","1","false",""
"","html-keyboard-response","275","144828","0.0-320.0","","","","","null","<img src=""img/food4.png"" style=""width:200px; border:14px solid green;"">","null","","","","","","","","","",""
"","image-keyboard-response","276","144959","0.0-322.0","","","","","130","img/food4.png","74","130","1","1","1","2","1,0.7,0,1,0.7,0,0.7,0,1","1,0.7,0,1,0.7,0,0.7,0,1","1","false",""
"","html-keyboard-response","277","145260","0.0-323.0","","","","","null","<img src=""img/food4.png"" style=""width:200px; border:14px solid green;"">","null","","","","","","","","","",""
"","image-keyboard-response","278","145392","0.0-325.0","","","","","130","img/food2.png","74","131","1","1","2","2","1,0.7,0,1,0.7,0,0.7,0,1","1,0.7,0,1,0.7,0,0.7,0,1","1","false",""
"","html-keyboard-response","279","145693","0.0-326.0","","","","","null","<img src=""img/food2.png"" style=""width:200px; border:14px solid green;"">","null","","","","","","","","","",""
"","image-keyboard-response","280","145823","0.0-328.0","","","","","130","img/food2.png","74","130","1","1","2","2","1,0.7,0,1,0.7,0,0.7,0,1","1,0.7,0,1,0.7,0,0.7,0,1","1","false",""
"","html-keyboard-response","281","146125","0.0-329.0","","","","","null","<img src=""img/food2.png"" style=""width:200px; border:14px solid green;"">","null","","","","","","","","","",""
"","image-keyboard-response","282","146207","0.0-331.0","","","","","81","img/food4.png","74","83","1","1","1","2","1,0.7,0,1,0.7,0,0.7,0,1","1,0.7,0,1,0.7,0,0.7,0,1","1","false",""
"","html-keyboard-response","283","146509","0.0-332.0","","","","","null","<img src=""img/food4.png"" style=""width:200px; border:14px solid green;"">","null","","","","","","","","","",""
"","image-keyboard-response","284","146704","0.0-334.0","","","","","194","img/food6.png","74","196","1","1","3","2","1,0.7,0,1,0.7,0,0.7,0,1","1,0.7,0,1,0.7,0,0.7,0,1","1","false",""
"","html-keyboard-response","285","147005","0.0-335.0","","","","","null","<img src=""img/food6.png"" style=""width:200px; border:14px solid green;"">","null","","","","","","","","","",""
"","image-keyboard-response","286","147103","0.0-337.0","","","","","97","img/food6.png","74","97","1","1","3","2","1,0.7,0,1,0.7,0,0.7,0,1","1,0.7,0,1,0.7,0,0.7,0,1","1","false",""
"","html-keyboard-response","287","147404","0.0-338.0","","","","","null","<img src=""img/food6.png"" style=""width:200px; border:14px solid green;"">","null","","","","","","","","","",""
"","image-keyboard-response","288","147536","0.0-340.0","","","","","130","img/food2.png","74","131","1","1","2","2","1,0.7,0,1,0.7,0,0.7,0,1","1,0.7,0,1,0.7,0,0.7,0,1","1","false",""
"","html-keyboard-response","289","147837","0.0-341.0","","","","","null","<img src=""img/food2.png"" style=""width:200px; border:14px solid green;"">","null","","","","","","","","","",""
"","image-keyboard-response","290","147967","0.0-343.0","","","","","130","img/food2.png","74","131","1","1","2","2","1,0.7,0,1,0.7,0,0.7,0,1","1,0.7,0,1,0.7,0,0.7,0,1","1","false",""
"","html-keyboard-response","291","148269","0.0-344.0","","","","","null","<img src=""img/food2.png"" style=""width:200px; border:14px solid green;"">","null","","","","","","","","","",""
"","image-keyboard-response","292","148415","0.0-346.0","","","","","146","img/food6.png","74","146","1","1","3","2","1,0.7,0,1,0.7,0,0.7,0,1","1,0.7,0,1,0.7,0,0.7,0,1","1","false",""
"","html-keyboard-response","293","148717","0.0-347.0","","","","","null","<img src=""img/food6.png"" style=""width:200px; border:14px solid green;"">","null","","","","","","","","","",""
"","image-keyboard-response","294","148864","0.0-349.0","","","","","146","img/food6.png","74","147","1","1","3","2","1,0.7,0,1,0.7,0,0.7,0,1","1,0.7,0,1,0.7,0,0.7,0,1","1","false",""
"","html-keyboard-response","295","149164","0.0-350.0","","","","","null","<img src=""img/food6.png"" style=""width:200px; border:14px solid green;"">","null","","","","","","","","","",""
"","image-keyboard-response","296","149295","0.0-352.0","","","","","131","img/food2.png","74","132","1","1","2","2","1,0.7,0,1,0.7,0,0.7,0,1","1,0.7,0,1,0.7,0,0.7,0,1","1","false",""
"","html-keyboard-response","297","149597","0.0-353.0","","","","","null","<img src=""img/food2.png"" style=""width:200px; border:14px solid green;"">","null","","","","","","","","","",""
"","image-keyboard-response","298","149727","0.0-355.0","","","","","129","img/food6.png","74","131","1","1","3","2","1,0.7,0,1,0.7,0,0.7,0,1","1,0.7,0,1,0.7,0,0.7,0,1","1","false",""
"","html-keyboard-response","299","150028","0.0-356.0","","","","","null","<img src=""img/food6.png"" style=""width:200px; border:14px solid green;"">","null","","","","","","","","","",""
"","image-keyboard-response","300","150143","0.0-358.0","","","","","114","img/food6.png","74","114","1","1","3","2","1,0.7,0,1,0.7,0,0.7,0,1","1,0.7,0,1,0.7,0,0.7,0,1","1","false",""
"","html-keyboard-response","301","150444","0.0-359.0","","","","","null","<img src=""img/food6.png"" style=""width:200px; border:14px solid green;"">","null","","","","","","","","","",""
"","image-keyboard-response","302","150543","0.0-361.0","","","","","98","img/food4.png","74","99","1","1","1","2","1,0.7,0,1,0.7,0,0.7,0,1","1,0.7,0,1,0.7,0,0.7,0,1","1","false",""
"","html-keyboard-response","303","150844","0.0-362.0","","","","","null","<img src=""img/food4.png"" style=""width:200px; border:14px solid green;"">","null","","","","","","","","","",""
"","image-keyboard-response","304","150912","0.0-364.0","","","","","66","img/food2.png","74","68","1","1","2","2","1,0.7,0,1,0.7,0,0.7,0,1","1,0.7,0,1,0.7,0,0.7,0,1","1","false",""
"","html-keyboard-response","305","151213","0.0-365.0","","","","","null","<img src=""img/food2.png"" style=""width:200px; border:14px solid green;"">","null","","","","","","","","","",""
"","image-keyboard-response","306","151360","0.0-367.0","","","","","146","img/food6.png","74","147","1","1","3","2","1,0.7,0,1,0.7,0,0.7,0,1","1,0.7,0,1,0.7,0,0.7,0,1","1","false",""
"","html-keyboard-response","307","151661","0.0-368.0","","","","","null","<img src=""img/food6.png"" style=""width:200px; border:14px solid green;"">","null","","","","","","","","","",""
"","image-keyboard-response","308","151808","0.0-370.0","","","","","146","img/food2.png","74","147","1","1","2","2","1,0.7,0,1,0.7,0,0.7,0,1","1,0.7,0,1,0.7,0,0.7,0,1","1","false",""
"","html-keyboard-response","309","152110","0.0-371.0","","","","","null","<img src=""img/food2.png"" style=""width:200px; border:14px solid green;"">","null","","","","","","","","","",""
"","image-keyboard-response","310","152255","0.0-373.0","","","","","145","img/food4.png","74","146","1","1","1","2","1,0.7,0,1,0.7,0,0.7,0,1","1,0.7,0,1,0.7,0,0.7,0,1","1","false",""
"","html-keyboard-response","311","152556","0.0-374.0","","","","","null","<img src=""img/food4.png"" style=""width:200px; border:14px solid green;"">","null","","","","","","","","","",""
"","image-keyboard-response","312","152639","0.0-376.0","","","","","82","img/food4.png","74","82","1","1","1","2","1,0.7,0,1,0.7,0,0.7,0,1","1,0.7,0,1,0.7,0,0.7,0,1","1","false",""
"","html-keyboard-response","313","152940","0.0-377.0","","","","","null","<img src=""img/food4.png"" style=""width:200px; border:14px solid green;"">","null","","","","","","","","","",""
"","image-keyboard-response","314","153040","0.0-379.0","","","","","97","img/food2.png","74","98","1","1","2","2","1,0.7,0,1,0.7,0,0.7,0,1","1,0.7,0,1,0.7,0,0.7,0,1","1","false",""
"","html-keyboard-response","315","153341","0.0-380.0","","","","","null","<img src=""img/food2.png"" style=""width:200px; border:14px solid green;"">","null","","","","","","","","","",""
"","image-keyboard-response","316","153423","0.0-382.0","","","","","82","img/food2.png","74","84","1","1","2","2","1,0.7,0,1,0.7,0,0.7,0,1","1,0.7,0,1,0.7,0,0.7,0,1","1","false",""
"","html-keyboard-response","317","153725","0.0-383.0","","","","","null","<img src=""img/food2.png"" style=""width:200px; border:14px solid green;"">","null","","","","","","","","","",""
"","image-keyboard-response","318","153856","0.0-385.0","","","","","131","img/food4.png","74","131","1","1","1","2","1,0.7,0,1,0.7,0,0.7,0,1","1,0.7,0,1,0.7,0,0.7,0,1","1","false",""
"","html-keyboard-response","319","154157","0.0-386.0","","","","","null","<img src=""img/food4.png"" style=""width:200px; border:14px solid green;"">","null","","","","","","","","","",""
"","image-keyboard-response","320","154287","0.0-388.0","","","","","129","img/food2.png","74","129","1","1","2","2","1,0.7,0,1,0.7,0,0.7,0,1","1,0.7,0,1,0.7,0,0.7,0,1","1","false",""
"","html-keyboard-response","321","154588","0.0-389.0","","","","","null","<img src=""img/food2.png"" style=""width:200px; border:14px solid green;"">","null","","","","","","","","","",""
"","image-keyboard-response","322","154720","0.0-391.0","","","","","130","img/food2.png","74","132","1","1","2","2","1,0.7,0,1,0.7,0,0.7,0,1","1,0.7,0,1,0.7,0,0.7,0,1","1","false",""
"","html-keyboard-response","323","155021","0.0-392.0","","","","","null","<img src=""img/food2.png"" style=""width:200px; border:14px solid green;"">","null","","","","","","","","","",""
"","image-keyboard-response","324","155136","0.0-394.0","","","","","114","img/food6.png","74","116","1","1","3","2","1,0.7,0,1,0.7,0,0.7,0,1","1,0.7,0,1,0.7,0,0.7,0,1","1","false",""
"","html-keyboard-response","325","155437","0.0-395.0","","","","","null","<img src=""img/food6.png"" style=""width:200px; border:14px solid green;"">","null","","","","","","","","","",""
"","image-keyboard-response","326","155583","0.0-397.0","","","","","146","img/food2.png","74","146","1","1","2","2","1,0.7,0,1,0.7,0,0.7,0,1","1,0.7,0,1,0.7,0,0.7,0,1","1","false",""
"","html-keyboard-response","327","155885","0.0-398.0","","","","","null","<img src=""img/food2.png"" style=""width:200px; border:14px solid green;"">","null","","","","","","","","","",""
"","image-keyboard-response","328","155936","0.0-400.0","","","","","50","img/food2.png","74","51","1","1","2","2","1,0.7,0,1,0.7,0,0.7,0,1","1,0.7,0,1,0.7,0,0.7,0,1","1","false",""
"","html-keyboard-response","329","156238","0.0-401.0","","","","","null","<img src=""img/food2.png"" style=""width:200px; border:14px solid green;"">","null","","","","","","","","","",""
"","image-keyboard-response","330","156399","0.0-403.0","","","","","160","img/food6.png","74","160","1","0","3","2","1,0.7,0,1,0.7,0,0.7,0,1","1,0.7,0,1,0.7,0,0.7,0,1","1","false",""
"","html-keyboard-response","331","156700","0.0-404.0","","","","","null","<img src=""img/food6.png"" style=""width:200px;border:14px solid red;"">","null","","","","","","","","","",""
"","image-keyboard-response","332","156816","0.0-406.0","","","","","114","img/food6.png","74","115","1","1","3","2","1,0.7,0,1,0.7,0,0.7,0,1","1,0.7,0,1,0.7,0,0.7,0,1","1","false",""
"","html-keyboard-response","333","157117","0.0-407.0","","","","","null","<img src=""img/food6.png"" style=""width:200px; border:14px solid green;"">","null","","","","","","","","","",""
"","image-keyboard-response","334","157184","0.0-409.0","","","","","66","img/food2.png","74","66","1","1","2","2","1,0.7,0,1,0.7,0,0.7,0,1","1,0.7,0,1,0.7,0,0.7,0,1","1","false",""
"","html-keyboard-response","335","157485","0.0-410.0","","","","","null","<img src=""img/food2.png"" style=""width:200px; border:14px solid green;"">","null","","","","","","","","","",""
"","image-keyboard-response","336","157600","0.0-412.0","","","","","113","img/food2.png","74","114","1","1","2","2","1,0.7,0,1,0.7,0,0.7,0,1","1,0.7,0,1,0.7,0,0.7,0,1","1","false",""
"","html-keyboard-response","337","157900","0.0-413.0","","","","","null","<img src=""img/food2.png"" style=""width:200px; border:14px solid green;"">","null","","","","","","","","","",""
"","image-keyboard-response","338","158015","0.0-415.0","","","","","113","img/food4.png","74","114","1","1","1","2","1,0.7,0,1,0.7,0,0.7,0,1","1,0.7,0,1,0.7,0,0.7,0,1","1","false",""
"","html-keyboard-response","339","158316","0.0-416.0","","","","","null","<img src=""img/food4.png"" style=""width:200px; border:14px solid green;"">","null","","","","","","","","","",""
"","image-keyboard-response","340","158463","0.0-418.0","","","","","146","img/food4.png","74","146","1","1","1","2","1,0.7,0,1,0.7,0,0.7,0,1","1,0.7,0,1,0.7,0,0.7,0,1","1","false",""
"","html-keyboard-response","341","158764","0.0-419.0","","","","","null","<img src=""img/food4.png"" style=""width:200px; border:14px solid green;"">","null","","","","","","","","","",""
"","image-keyboard-response","342","158848","0.0-421.0","","","","","82","img/food6.png","74","83","1","1","3","2","1,0.7,0,1,0.7,0,0.7,0,1","1,0.7,0,1,0.7,0,0.7,0,1","1","false",""
"","html-keyboard-response","343","159148","0.0-422.0","","","","","null","<img src=""img/food6.png"" style=""width:200px; border:14px solid green;"">","null","","","","","","","","","",""
"","image-keyboard-response","344","159248","0.0-424.0","","","","","98","img/food2.png","74","99","1","1","2","2","1,0.7,0,1,0.7,0,0.7,0,1","1,0.7,0,1,0.7,0,0.7,0,1","1","false",""
"","html-keyboard-response","345","159549","0.0-425.0","","","","","null","<img src=""img/food2.png"" style=""width:200px; border:14px solid green;"">","null","","","","","","","","","",""
"","image-keyboard-response","346","159647","0.0-427.0","","","","","97","img/food4.png","74","98","1","1","1","2","1,0.7,0,1,0.7,0,0.7,0,1","1,0.7,0,1,0.7,0,0.7,0,1","1","false",""
"","html-keyboard-response","347","159948","0.0-428.0","","","","","null","<img src=""img/food4.png"" style=""width:200px; border:14px solid green;"">","null","","","","","","","","","",""
"","image-keyboard-response","348","160015","0.0-430.0","","","","","65","img/food4.png","74","68","1","1","1","2","1,0.7,0,1,0.7,0,0.7,0,1","1,0.7,0,1,0.7,0,0.7,0,1","1","false",""
"","html-keyboard-response","349","160316","0.0-431.0","","","","","null","<img src=""img/food4.png"" style=""width:200px; border:14px solid green;"">","null","","","","","","","","","",""
"","image-keyboard-response","350","160479","0.0-433.0","","","","","162","img/food6.png","74","164","1","0","3","2","1,0.7,0,1,0.7,0,0.7,0,1","1,0.7,0,1,0.7,0,0.7,0,1","1","false",""
"","html-keyboard-response","351","160780","0.0-434.0","","","","","null","<img src=""img/food6.png"" style=""width:200px;border:14px solid red;"">","null","","","","","","","","","",""
"","image-keyboard-response","352","160863","0.0-436.0","","","","","81","img/food4.png","74","83","1","1","1","2","1,0.7,0,1,0.7,0,0.7,0,1","1,0.7,0,1,0.7,0,0.7,0,1","1","false",""
"","html-keyboard-response","353","161164","0.0-437.0","","","","","null","<img src=""img/food4.png"" style=""width:200px; border:14px solid green;"">","null","","","","","","","","","",""
"","image-keyboard-response","354","161247","0.0-439.0","","","","","82","img/food2.png","74","82","1","1","2","2","1,0.7,0,1,0.7,0,0.7,0,1","1,0.7,0,1,0.7,0,0.7,0,1","1","false",""
"","html-keyboard-response","355","161549","0.0-440.0","","","","","null","<img src=""img/food2.png"" style=""width:200px; border:14px solid green;"">","null","","","","","","","","","",""
"","image-keyboard-response","356","161680","0.0-442.0","","","","","130","img/food4.png","74","131","1","1","1","2","1,0.7,0,1,0.7,0,0.7,0,1","1,0.7,0,1,0.7,0,0.7,0,1","1","false",""
"","html-keyboard-response","357","161981","0.0-443.0","","","","","null","<img src=""img/food4.png"" style=""width:200px; border:14px solid green;"">","null","","","","","","","","","",""
"","image-keyboard-response","358","162031","0.0-445.0","","","","","49","img/food2.png","74","50","1","1","2","2","1,0.7,0,1,0.7,0,0.7,0,1","1,0.7,0,1,0.7,0,0.7,0,1","1","false",""
"","html-keyboard-response","359","162333","0.0-446.0","","","","","null","<img src=""img/food2.png"" style=""width:200px; border:14px solid green;"">","null","","","","","","","","","",""
"","image-keyboard-response","360","162415","0.0-448.0","","","","","82","img/food4.png","74","82","1","1","1","2","1,0.7,0,1,0.7,0,0.7,0,1","1,0.7,0,1,0.7,0,0.7,0,1","1","false",""
"","html-keyboard-response","361","162716","0.0-449.0","","","","","null","<img src=""img/food4.png"" style=""width:200px; border:14px solid green;"">","null","","","","","","","","","",""
"","image-keyboard-response","362","162847","0.0-451.0","","","","","129","img/food6.png","74","131","1","1","3","2","1,0.7,0,1,0.7,0,0.7,0,1","1,0.7,0,1,0.7,0,0.7,0,1","1","false",""
"","html-keyboard-response","363","163148","0.0-452.0","","","","","null","<img src=""img/food6.png"" style=""width:200px; border:14px solid green;"">","null","","","","","","","","","",""
"","instructions","364","165040","0.0-454.0","","","","[{""page_index"":0,""viewing_time"":1890}]","1890","","","","","","","","","","","",""
"","survey-text","365","170684","0.0-455.0","","","","","5638","","","","","","","","","","","","{""Q0"":""A2NAKIXS3DVGAA""}"
