"success","trial_type","trial_index","time_elapsed","internal_node_id","assignmentID","mturkID","hitID","view_history","rt","stimulus","key_press","reactionTime","a","r","warning","s","cond","reward_cond","reward_cond_actual","reward_matrix_idx","responses"
"true","fullscreen","0","215484","0.0-0.0","39U1BHVTDMD8BSDZF4ABB1PN3HC3TV","A2OU40SUJR40CC","3P520RYKCHSO30HY2QJC6BDLS9Z5UE","","","","","","","","","","","","","",""
"","instructions","1","251769","0.0-1.0","39U1BHVTDMD8BSDZF4ABB1PN3HC3TV","A2OU40SUJR40CC","3P520RYKCHSO30HY2QJC6BDLS9Z5UE","[{""page_index"":0,""viewing_time"":2545.6999999999534},{""page_index"":1,""viewing_time"":3567.899999999907},{""page_index"":2,""viewing_time"":2775.8000000000466},{""page_index"":3,""viewing_time"":8320},{""page_index"":4,""viewing_time"":2232},{""page_index"":5,""viewing_time"":9744.40000000014},{""page_index"":6,""viewing_time"":7095.799999999814}]","36282.59999999986","","","","","","","","","","","",""
"","instructions","2","267536","0.0-2.0","39U1BHVTDMD8BSDZF4ABB1PN3HC3TV","A2OU40SUJR40CC","3P520RYKCHSO30HY2QJC6BDLS9Z5UE","[{""page_index"":0,""viewing_time"":12917.600000000093},{""page_index"":1,""viewing_time"":2848.0999999998603}]","15765.90000000014","","","","","","","","","","","",""
"","image-keyboard-response","3","268541","0.0-3.0","39U1BHVTDMD8BSDZF4ABB1PN3HC3TV","A2OU40SUJR40CC","3P520RYKCHSO30HY2QJC6BDLS9Z5UE","","","img/food5.png","","1004.5","-1","0","true","1","2","1,0.5,0,1,0.5,0,0.5,0,1","1,0.5,0,1,0.5,0,0.5,0,1","1",""
"","html-keyboard-response","4","268846","0.0-4.0","39U1BHVTDMD8BSDZF4ABB1PN3HC3TV","A2OU40SUJR40CC","3P520RYKCHSO30HY2QJC6BDLS9Z5UE","","null","<img src=""img/food5.png"" style=""width:200px;border:14px solid red;"">","null","","","","","","","","","",""
"","html-keyboard-response","5","275479","0.0-5.0-0.0","39U1BHVTDMD8BSDZF4ABB1PN3HC3TV","A2OU40SUJR40CC","3P520RYKCHSO30HY2QJC6BDLS9Z5UE","","","","","","","","","","","","","",""
"","image-keyboard-response","6","275813","0.0-6.0","39U1BHVTDMD8BSDZF4ABB1PN3HC3TV","A2OU40SUJR40CC","3P520RYKCHSO30HY2QJC6BDLS9Z5UE","","331.5","img/food5.png","75","333.30000000004657","2","1","false","1","2","1,0.5,0,1,0.5,0,0.5,0,1","1,0.5,0,1,0.5,0,0.5,0,1","1",""
"","html-keyboard-response","7","276116","0.0-7.0","39U1BHVTDMD8BSDZF4ABB1PN3HC3TV","A2OU40SUJR40CC","3P520RYKCHSO30HY2QJC6BDLS9Z5UE","","null","<img src=""img/food5.png"" style=""width:200px; border:14px solid green;"">","null","","","","","","","","","",""
"","image-keyboard-response","8","276564","0.0-9.0","39U1BHVTDMD8BSDZF4ABB1PN3HC3TV","A2OU40SUJR40CC","3P520RYKCHSO30HY2QJC6BDLS9Z5UE","","445.4000000001397","img/food2.png","75","446.89999999990687","2","0","false","3","2","1,0.5,0,1,0.5,0,0.5,0,1","1,0.5,0,1,0.5,0,0.5,0,1","1",""
"","html-keyboard-response","9","276867","0.0-10.0","39U1BHVTDMD8BSDZF4ABB1PN3HC3TV","A2OU40SUJR40CC","3P520RYKCHSO30HY2QJC6BDLS9Z5UE","","null","<img src=""img/food2.png"" style=""width:200px;border:14px solid red;"">","null","","","","","","","","","",""
"","image-keyboard-response","10","277108","0.0-12.0","39U1BHVTDMD8BSDZF4ABB1PN3HC3TV","A2OU40SUJR40CC","3P520RYKCHSO30HY2QJC6BDLS9Z5UE","","238.0999999998603","img/food3.png","74","239.69999999995343","1","1","false","2","2","1,0.5,0,1,0.5,0,0.5,0,1","1,0.5,0,1,0.5,0,0.5,0,1","1",""
"","html-keyboard-response","11","277410","0.0-13.0","39U1BHVTDMD8BSDZF4ABB1PN3HC3TV","A2OU40SUJR40CC","3P520RYKCHSO30HY2QJC6BDLS9Z5UE","","null","<img src=""img/food3.png"" style=""width:200px; border:14px solid green;"">","null","","","","","","","","","",""
"","image-keyboard-response","12","277827","0.0-15.0","39U1BHVTDMD8BSDZF4ABB1PN3HC3TV","A2OU40SUJR40CC","3P520RYKCHSO30HY2QJC6BDLS9Z5UE","","414.69999999995343","img/food5.png","75","416.29999999981374","2","0","false","1","2","1,0.5,0,1,0.5,0,0.5,0,1","1,0.5,0,1,0.5,0,0.5,0,1","1",""
"","html-keyboard-response","13","278130","0.0-16.0","39U1BHVTDMD8BSDZF4ABB1PN3HC3TV","A2OU40SUJR40CC","3P520RYKCHSO30HY2QJC6BDLS9Z5UE","","null","<img src=""img/food5.png"" style=""width:200px;border:14px solid red;"">","null","","","","","","","","","",""
"","image-keyboard-response","14","278404","0.0-18.0","39U1BHVTDMD8BSDZF4ABB1PN3HC3TV","A2OU40SUJR40CC","3P520RYKCHSO30HY2QJC6BDLS9Z5UE","","271.5","img/food2.png","76","273","3","1","false","3","2","1,0.5,0,1,0.5,0,0.5,0,1","1,0.5,0,1,0.5,0,0.5,0,1","1",""
"","html-keyboard-response","15","278707","0.0-19.0","39U1BHVTDMD8BSDZF4ABB1PN3HC3TV","A2OU40SUJR40CC","3P520RYKCHSO30HY2QJC6BDLS9Z5UE","","null","<img src=""img/food2.png"" style=""width:200px; border:14px solid green;"">","null","","","","","","","","","",""
"","image-keyboard-response","16","279027","0.0-21.0","39U1BHVTDMD8BSDZF4ABB1PN3HC3TV","A2OU40SUJR40CC","3P520RYKCHSO30HY2QJC6BDLS9Z5UE","","318.89999999990687","img/food2.png","75","320.30000000004657","2","0","false","3","2","1,0.5,0,1,0.5,0,0.5,0,1","1,0.5,0,1,0.5,0,0.5,0,1","1",""
"","html-keyboard-response","17","279331","0.0-22.0","39U1BHVTDMD8BSDZF4ABB1PN3HC3TV","A2OU40SUJR40CC","3P520RYKCHSO30HY2QJC6BDLS9Z5UE","","null","<img src=""img/food2.png"" style=""width:200px;border:14px solid red;"">","null","","","","","","","","","",""
"","image-keyboard-response","18","279587","0.0-24.0","39U1BHVTDMD8BSDZF4ABB1PN3HC3TV","A2OU40SUJR40CC","3P520RYKCHSO30HY2QJC6BDLS9Z5UE","","254.80000000004657","img/food2.png","76","256","3","1","false","3","2","1,0.5,0,1,0.5,0,0.5,0,1","1,0.5,0,1,0.5,0,0.5,0,1","1",""
"","html-keyboard-response","19","279903","0.0-25.0","39U1BHVTDMD8BSDZF4ABB1PN3HC3TV","A2OU40SUJR40CC","3P520RYKCHSO30HY2QJC6BDLS9Z5UE","","null","<img src=""img/food2.png"" style=""width:200px; border:14px solid green;"">","null","","","","","","","","","",""
"","image-keyboard-response","20","280515","0.0-27.0","39U1BHVTDMD8BSDZF4ABB1PN3HC3TV","A2OU40SUJR40CC","3P520RYKCHSO30HY2QJC6BDLS9Z5UE","","610.8000000000466","img/food3.png","75","612.1000000000931","2","1","false","2","2","1,0.5,0,1,0.5,0,0.5,0,1","1,0.5,0,1,0.5,0,0.5,0,1","1",""
"","html-keyboard-response","21","280830","0.0-28.0","39U1BHVTDMD8BSDZF4ABB1PN3HC3TV","A2OU40SUJR40CC","3P520RYKCHSO30HY2QJC6BDLS9Z5UE","","null","<img src=""img/food3.png"" style=""width:200px; border:14px solid green;"">","null","","","","","","","","","",""
"","image-keyboard-response","22","281283","0.0-30.0","39U1BHVTDMD8BSDZF4ABB1PN3HC3TV","A2OU40SUJR40CC","3P520RYKCHSO30HY2QJC6BDLS9Z5UE","","451.60000000009313","img/food2.png","76","453.19999999995343","3","1","false","3","2","1,0.5,0,1,0.5,0,0.5,0,1","1,0.5,0,1,0.5,0,0.5,0,1","1",""
"","html-keyboard-response","23","281587","0.0-31.0","39U1BHVTDMD8BSDZF4ABB1PN3HC3TV","A2OU40SUJR40CC","3P520RYKCHSO30HY2QJC6BDLS9Z5UE","","null","<img src=""img/food2.png"" style=""width:200px; border:14px solid green;"">","null","","","","","","","","","",""
"","image-keyboard-response","24","282164","0.0-33.0","39U1BHVTDMD8BSDZF4ABB1PN3HC3TV","A2OU40SUJR40CC","3P520RYKCHSO30HY2QJC6BDLS9Z5UE","","575","img/food5.png","74","576.3000000000466","1","1","false","1","2","1,0.5,0,1,0.5,0,0.5,0,1","1,0.5,0,1,0.5,0,0.5,0,1","1",""
"","html-keyboard-response","25","282467","0.0-34.0","39U1BHVTDMD8BSDZF4ABB1PN3HC3TV","A2OU40SUJR40CC","3P520RYKCHSO30HY2QJC6BDLS9Z5UE","","null","<img src=""img/food5.png"" style=""width:200px; border:14px solid green;"">","null","","","","","","","","","",""
"","image-keyboard-response","26","283219","0.0-36.0","39U1BHVTDMD8BSDZF4ABB1PN3HC3TV","A2OU40SUJR40CC","3P520RYKCHSO30HY2QJC6BDLS9Z5UE","","751","img/food3.png","76","752.5","3","0","false","2","2","1,0.5,0,1,0.5,0,0.5,0,1","1,0.5,0,1,0.5,0,0.5,0,1","1",""
"","html-keyboard-response","27","283523","0.0-37.0","39U1BHVTDMD8BSDZF4ABB1PN3HC3TV","A2OU40SUJR40CC","3P520RYKCHSO30HY2QJC6BDLS9Z5UE","","null","<img src=""img/food3.png"" style=""width:200px;border:14px solid red;"">","null","","","","","","","","","",""
"","image-keyboard-response","28","284131","0.0-39.0","39U1BHVTDMD8BSDZF4ABB1PN3HC3TV","A2OU40SUJR40CC","3P520RYKCHSO30HY2QJC6BDLS9Z5UE","","606.8000000000466","img/food5.png","74","608.1999999999534","1","1","false","1","2","1,0.5,0,1,0.5,0,0.5,0,1","1,0.5,0,1,0.5,0,0.5,0,1","1",""
"","html-keyboard-response","29","284434","0.0-40.0","39U1BHVTDMD8BSDZF4ABB1PN3HC3TV","A2OU40SUJR40CC","3P520RYKCHSO30HY2QJC6BDLS9Z5UE","","null","<img src=""img/food5.png"" style=""width:200px; border:14px solid green;"">","null","","","","","","","","","",""
"","image-keyboard-response","30","284803","0.0-42.0","39U1BHVTDMD8BSDZF4ABB1PN3HC3TV","A2OU40SUJR40CC","3P520RYKCHSO30HY2QJC6BDLS9Z5UE","","367.10000000009313","img/food2.png","75","368.5","2","0","false","3","2","1,0.5,0,1,0.5,0,0.5,0,1","1,0.5,0,1,0.5,0,0.5,0,1","1",""
"","html-keyboard-response","31","285106","0.0-43.0","39U1BHVTDMD8BSDZF4ABB1PN3HC3TV","A2OU40SUJR40CC","3P520RYKCHSO30HY2QJC6BDLS9Z5UE","","null","<img src=""img/food2.png"" style=""width:200px;border:14px solid red;"">","null","","","","","","","","","",""
"","image-keyboard-response","32","285860","0.0-45.0","39U1BHVTDMD8BSDZF4ABB1PN3HC3TV","A2OU40SUJR40CC","3P520RYKCHSO30HY2QJC6BDLS9Z5UE","","751.4000000001397","img/food5.png","74","752.6999999999534","1","1","false","1","2","1,0.5,0,1,0.5,0,0.5,0,1","1,0.5,0,1,0.5,0,0.5,0,1","1",""
"","html-keyboard-response","33","286162","0.0-46.0","39U1BHVTDMD8BSDZF4ABB1PN3HC3TV","A2OU40SUJR40CC","3P520RYKCHSO30HY2QJC6BDLS9Z5UE","","null","<img src=""img/food5.png"" style=""width:200px; border:14px solid green;"">","null","","","","","","","","","",""
"","image-keyboard-response","34","286659","0.0-48.0","39U1BHVTDMD8BSDZF4ABB1PN3HC3TV","A2OU40SUJR40CC","3P520RYKCHSO30HY2QJC6BDLS9Z5UE","","495.29999999981374","img/food2.png","76","496.80000000004657","3","1","false","3","2","1,0.5,0,1,0.5,0,0.5,0,1","1,0.5,0,1,0.5,0,0.5,0,1","1",""
"","html-keyboard-response","35","286963","0.0-49.0","39U1BHVTDMD8BSDZF4ABB1PN3HC3TV","A2OU40SUJR40CC","3P520RYKCHSO30HY2QJC6BDLS9Z5UE","","null","<img src=""img/food2.png"" style=""width:200px; border:14px solid green;"">","null","","","","","","","","","",""
"","image-keyboard-response","36","287443","0.0-51.0","39U1BHVTDMD8BSDZF4ABB1PN3HC3TV","A2OU40SUJR40CC","3P520RYKCHSO30HY2QJC6BDLS9Z5UE","","478.39999999990687","img/food2.png","76","479.69999999995343","3","1","false","3","2","1,0.5,0,1,0.5,0,0.5,0,1","1,0.5,0,1,0.5,0,0.5,0,1","1",""
"","html-keyboard-response","37","287747","0.0-52.0","39U1BHVTDMD8BSDZF4ABB1PN3HC3TV","A2OU40SUJR40CC","3P520RYKCHSO30HY2QJC6BDLS9Z5UE","","null","<img src=""img/food2.png"" style=""width:200px; border:14px solid green;"">","null","","","","","","","","","",""
"","image-keyboard-response","38","288515","0.0-54.0","39U1BHVTDMD8BSDZF4ABB1PN3HC3TV","A2OU40SUJR40CC","3P520RYKCHSO30HY2QJC6BDLS9Z5UE","","766.1999999999534","img/food5.png","74","767.6000000000931","1","1","false","1","2","1,0.5,0,1,0.5,0,0.5,0,1","1,0.5,0,1,0.5,0,0.5,0,1","1",""
"","html-keyboard-response","39","288818","0.0-55.0","39U1BHVTDMD8BSDZF4ABB1PN3HC3TV","A2OU40SUJR40CC","3P520RYKCHSO30HY2QJC6BDLS9Z5UE","","null","<img src=""img/food5.png"" style=""width:200px; border:14px solid green;"">","null","","","","","","","","","",""
"","image-keyboard-response","40","289427","0.0-57.0","39U1BHVTDMD8BSDZF4ABB1PN3HC3TV","A2OU40SUJR40CC","3P520RYKCHSO30HY2QJC6BDLS9Z5UE","","607.0999999998603","img/food5.png","74","608.6999999999534","1","1","false","1","2","1,0.5,0,1,0.5,0,0.5,0,1","1,0.5,0,1,0.5,0,0.5,0,1","1",""
"","html-keyboard-response","41","289731","0.0-58.0","39U1BHVTDMD8BSDZF4ABB1PN3HC3TV","A2OU40SUJR40CC","3P520RYKCHSO30HY2QJC6BDLS9Z5UE","","null","<img src=""img/food5.png"" style=""width:200px; border:14px solid green;"">","null","","","","","","","","","",""
"","image-keyboard-response","42","290483","0.0-60.0","39U1BHVTDMD8BSDZF4ABB1PN3HC3TV","A2OU40SUJR40CC","3P520RYKCHSO30HY2QJC6BDLS9Z5UE","","750.5999999998603","img/food2.png","75","751.8999999999069","2","0","false","3","2","1,0.5,0,1,0.5,0,0.5,0,1","1,0.5,0,1,0.5,0,0.5,0,1","1",""
"","html-keyboard-response","43","290787","0.0-61.0","39U1BHVTDMD8BSDZF4ABB1PN3HC3TV","A2OU40SUJR40CC","3P520RYKCHSO30HY2QJC6BDLS9Z5UE","","null","<img src=""img/food2.png"" style=""width:200px;border:14px solid red;"">","null","","","","","","","","","",""
"","image-keyboard-response","44","291268","0.0-63.0","39U1BHVTDMD8BSDZF4ABB1PN3HC3TV","A2OU40SUJR40CC","3P520RYKCHSO30HY2QJC6BDLS9Z5UE","","478.80000000004657","img/food2.png","76","480.30000000004657","3","1","false","3","2","1,0.5,0,1,0.5,0,0.5,0,1","1,0.5,0,1,0.5,0,0.5,0,1","1",""
"","html-keyboard-response","45","291570","0.0-64.0","39U1BHVTDMD8BSDZF4ABB1PN3HC3TV","A2OU40SUJR40CC","3P520RYKCHSO30HY2QJC6BDLS9Z5UE","","null","<img src=""img/food2.png"" style=""width:200px; border:14px solid green;"">","null","","","","","","","","","",""
"","image-keyboard-response","46","292243","0.0-66.0","39U1BHVTDMD8BSDZF4ABB1PN3HC3TV","A2OU40SUJR40CC","3P520RYKCHSO30HY2QJC6BDLS9Z5UE","","671.6000000000931","img/food5.png","74","672.9000000001397","1","1","false","1","2","1,0.5,0,1,0.5,0,0.5,0,1","1,0.5,0,1,0.5,0,0.5,0,1","1",""
"","html-keyboard-response","47","292547","0.0-67.0","39U1BHVTDMD8BSDZF4ABB1PN3HC3TV","A2OU40SUJR40CC","3P520RYKCHSO30HY2QJC6BDLS9Z5UE","","null","<img src=""img/food5.png"" style=""width:200px; border:14px solid green;"">","null","","","","","","","","","",""
"","image-keyboard-response","48","293267","0.0-69.0","39U1BHVTDMD8BSDZF4ABB1PN3HC3TV","A2OU40SUJR40CC","3P520RYKCHSO30HY2QJC6BDLS9Z5UE","","718.6999999999534","img/food3.png","75","720.0999999998603","2","0","false","2","2","1,0.5,0,1,0.5,0,0.5,0,1","1,0.5,0,1,0.5,0,0.5,0,1","1",""
"","html-keyboard-response","49","293571","0.0-70.0","39U1BHVTDMD8BSDZF4ABB1PN3HC3TV","A2OU40SUJR40CC","3P520RYKCHSO30HY2QJC6BDLS9Z5UE","","null","<img src=""img/food3.png"" style=""width:200px;border:14px solid red;"">","null","","","","","","","","","",""
"","image-keyboard-response","50","294163","0.0-72.0","39U1BHVTDMD8BSDZF4ABB1PN3HC3TV","A2OU40SUJR40CC","3P520RYKCHSO30HY2QJC6BDLS9Z5UE","","590.6999999999534","img/food3.png","75","592.0999999998603","2","0","false","2","2","1,0.5,0,1,0.5,0,0.5,0,1","1,0.5,0,1,0.5,0,0.5,0,1","1",""
"","html-keyboard-response","51","294467","0.0-73.0","39U1BHVTDMD8BSDZF4ABB1PN3HC3TV","A2OU40SUJR40CC","3P520RYKCHSO30HY2QJC6BDLS9Z5UE","","null","<img src=""img/food3.png"" style=""width:200px;border:14px solid red;"">","null","","","","","","","","","",""
"","image-keyboard-response","52","295171","0.0-75.0","39U1BHVTDMD8BSDZF4ABB1PN3HC3TV","A2OU40SUJR40CC","3P520RYKCHSO30HY2QJC6BDLS9Z5UE","","702.1000000000931","img/food2.png","76","703.5999999998603","3","1","false","3","2","1,0.5,0,1,0.5,0,0.5,0,1","1,0.5,0,1,0.5,0,0.5,0,1","1",""
"","html-keyboard-response","53","295474","0.0-76.0","39U1BHVTDMD8BSDZF4ABB1PN3HC3TV","A2OU40SUJR40CC","3P520RYKCHSO30HY2QJC6BDLS9Z5UE","","null","<img src=""img/food2.png"" style=""width:200px; border:14px solid green;"">","null","","","","","","","","","",""
"","image-keyboard-response","54","296084","0.0-78.0","39U1BHVTDMD8BSDZF4ABB1PN3HC3TV","A2OU40SUJR40CC","3P520RYKCHSO30HY2QJC6BDLS9Z5UE","","608.1000000000931","img/food5.png","74","609.5","1","1","false","1","2","1,0.5,0,1,0.5,0,0.5,0,1","1,0.5,0,1,0.5,0,0.5,0,1","1",""
"","html-keyboard-response","55","296386","0.0-79.0","39U1BHVTDMD8BSDZF4ABB1PN3HC3TV","A2OU40SUJR40CC","3P520RYKCHSO30HY2QJC6BDLS9Z5UE","","null","<img src=""img/food5.png"" style=""width:200px; border:14px solid green;"">","null","","","","","","","","","",""
"","image-keyboard-response","56","297075","0.0-81.0","39U1BHVTDMD8BSDZF4ABB1PN3HC3TV","A2OU40SUJR40CC","3P520RYKCHSO30HY2QJC6BDLS9Z5UE","","687.9000000001397","img/food3.png","76","689.1999999999534","3","0","false","2","2","1,0.5,0,1,0.5,0,0.5,0,1","1,0.5,0,1,0.5,0,0.5,0,1","1",""
"","html-keyboard-response","57","297379","0.0-82.0","39U1BHVTDMD8BSDZF4ABB1PN3HC3TV","A2OU40SUJR40CC","3P520RYKCHSO30HY2QJC6BDLS9Z5UE","","null","<img src=""img/food3.png"" style=""width:200px;border:14px solid red;"">","null","","","","","","","","","",""
"","image-keyboard-response","58","298020","0.0-84.0","39U1BHVTDMD8BSDZF4ABB1PN3HC3TV","A2OU40SUJR40CC","3P520RYKCHSO30HY2QJC6BDLS9Z5UE","","639","img/food3.png","74","640.3999999999069","1","1","false","2","2","1,0.5,0,1,0.5,0,0.5,0,1","1,0.5,0,1,0.5,0,0.5,0,1","1",""
"","html-keyboard-response","59","298322","0.0-85.0","39U1BHVTDMD8BSDZF4ABB1PN3HC3TV","A2OU40SUJR40CC","3P520RYKCHSO30HY2QJC6BDLS9Z5UE","","null","<img src=""img/food3.png"" style=""width:200px; border:14px solid green;"">","null","","","","","","","","","",""
"","image-keyboard-response","60","299155","0.0-87.0","39U1BHVTDMD8BSDZF4ABB1PN3HC3TV","A2OU40SUJR40CC","3P520RYKCHSO30HY2QJC6BDLS9Z5UE","","832","img/food5.png","74","833.3000000000466","1","1","false","1","2","1,0.5,0,1,0.5,0,0.5,0,1","1,0.5,0,1,0.5,0,0.5,0,1","1",""
"","html-keyboard-response","61","299466","0.0-88.0","39U1BHVTDMD8BSDZF4ABB1PN3HC3TV","A2OU40SUJR40CC","3P520RYKCHSO30HY2QJC6BDLS9Z5UE","","null","<img src=""img/food5.png"" style=""width:200px; border:14px solid green;"">","null","","","","","","","","","",""
"","image-keyboard-response","62","299939","0.0-90.0","39U1BHVTDMD8BSDZF4ABB1PN3HC3TV","A2OU40SUJR40CC","3P520RYKCHSO30HY2QJC6BDLS9Z5UE","","471.69999999995343","img/food3.png","74","473.29999999981374","1","1","false","2","2","1,0.5,0,1,0.5,0,0.5,0,1","1,0.5,0,1,0.5,0,0.5,0,1","1",""
"","html-keyboard-response","63","300243","0.0-91.0","39U1BHVTDMD8BSDZF4ABB1PN3HC3TV","A2OU40SUJR40CC","3P520RYKCHSO30HY2QJC6BDLS9Z5UE","","null","<img src=""img/food3.png"" style=""width:200px; border:14px solid green;"">","null","","","","","","","","","",""
"","image-keyboard-response","64","300787","0.0-93.0","39U1BHVTDMD8BSDZF4ABB1PN3HC3TV","A2OU40SUJR40CC","3P520RYKCHSO30HY2QJC6BDLS9Z5UE","","543.1000000000931","img/food5.png","74","544.5999999998603","1","1","false","1","2","1,0.5,0,1,0.5,0,0.5,0,1","1,0.5,0,1,0.5,0,0.5,0,1","1",""
"","html-keyboard-response","65","301090","0.0-94.0","39U1BHVTDMD8BSDZF4ABB1PN3HC3TV","A2OU40SUJR40CC","3P520RYKCHSO30HY2QJC6BDLS9Z5UE","","null","<img src=""img/food5.png"" style=""width:200px; border:14px solid green;"">","null","","","","","","","","","",""
"","image-keyboard-response","66","301796","0.0-96.0","39U1BHVTDMD8BSDZF4ABB1PN3HC3TV","A2OU40SUJR40CC","3P520RYKCHSO30HY2QJC6BDLS9Z5UE","","703.5","img/food5.png","74","705","1","1","false","1","2","1,0.5,0,1,0.5,0,0.5,0,1","1,0.5,0,1,0.5,0,0.5,0,1","1",""
"","html-keyboard-response","67","302099","0.0-97.0","39U1BHVTDMD8BSDZF4ABB1PN3HC3TV","A2OU40SUJR40CC","3P520RYKCHSO30HY2QJC6BDLS9Z5UE","","null","<img src=""img/food5.png"" style=""width:200px; border:14px solid green;"">","null","","","","","","","","","",""
"","image-keyboard-response","68","302564","0.0-99.0","39U1BHVTDMD8BSDZF4ABB1PN3HC3TV","A2OU40SUJR40CC","3P520RYKCHSO30HY2QJC6BDLS9Z5UE","","462.19999999995343","img/food5.png","74","463.60000000009313","1","1","false","1","2","1,0.5,0,1,0.5,0,0.5,0,1","1,0.5,0,1,0.5,0,0.5,0,1","1",""
"","html-keyboard-response","69","302866","0.0-100.0","39U1BHVTDMD8BSDZF4ABB1PN3HC3TV","A2OU40SUJR40CC","3P520RYKCHSO30HY2QJC6BDLS9Z5UE","","null","<img src=""img/food5.png"" style=""width:200px; border:14px solid green;"">","null","","","","","","","","","",""
"","image-keyboard-response","70","303571","0.0-102.0","39U1BHVTDMD8BSDZF4ABB1PN3HC3TV","A2OU40SUJR40CC","3P520RYKCHSO30HY2QJC6BDLS9Z5UE","","703.1999999999534","img/food3.png","74","704.6999999999534","1","1","false","2","2","1,0.5,0,1,0.5,0,0.5,0,1","1,0.5,0,1,0.5,0,0.5,0,1","1",""
"","html-keyboard-response","71","303874","0.0-103.0","39U1BHVTDMD8BSDZF4ABB1PN3HC3TV","A2OU40SUJR40CC","3P520RYKCHSO30HY2QJC6BDLS9Z5UE","","null","<img src=""img/food3.png"" style=""width:200px; border:14px solid green;"">","null","","","","","","","","","",""
"","image-keyboard-response","72","304468","0.0-105.0","39U1BHVTDMD8BSDZF4ABB1PN3HC3TV","A2OU40SUJR40CC","3P520RYKCHSO30HY2QJC6BDLS9Z5UE","","592","img/food5.png","74","593.8000000000466","1","1","false","1","2","1,0.5,0,1,0.5,0,0.5,0,1","1,0.5,0,1,0.5,0,0.5,0,1","1",""
"","html-keyboard-response","73","304772","0.0-106.0","39U1BHVTDMD8BSDZF4ABB1PN3HC3TV","A2OU40SUJR40CC","3P520RYKCHSO30HY2QJC6BDLS9Z5UE","","null","<img src=""img/food5.png"" style=""width:200px; border:14px solid green;"">","null","","","","","","","","","",""
"","image-keyboard-response","74","305331","0.0-108.0","39U1BHVTDMD8BSDZF4ABB1PN3HC3TV","A2OU40SUJR40CC","3P520RYKCHSO30HY2QJC6BDLS9Z5UE","","557.3000000000466","img/food2.png","76","558.6999999999534","3","1","false","3","2","1,0.5,0,1,0.5,0,0.5,0,1","1,0.5,0,1,0.5,0,0.5,0,1","1",""
"","html-keyboard-response","75","305634","0.0-109.0","39U1BHVTDMD8BSDZF4ABB1PN3HC3TV","A2OU40SUJR40CC","3P520RYKCHSO30HY2QJC6BDLS9Z5UE","","null","<img src=""img/food2.png"" style=""width:200px; border:14px solid green;"">","null","","","","","","","","","",""
"","image-keyboard-response","76","306132","0.0-111.0","39U1BHVTDMD8BSDZF4ABB1PN3HC3TV","A2OU40SUJR40CC","3P520RYKCHSO30HY2QJC6BDLS9Z5UE","","495.70000000018626","img/food3.png","74","497.19999999995343","1","1","false","2","2","1,0.5,0,1,0.5,0,0.5,0,1","1,0.5,0,1,0.5,0,0.5,0,1","1",""
"","html-keyboard-response","77","306435","0.0-112.0","39U1BHVTDMD8BSDZF4ABB1PN3HC3TV","A2OU40SUJR40CC","3P520RYKCHSO30HY2QJC6BDLS9Z5UE","","null","<img src=""img/food3.png"" style=""width:200px; border:14px solid green;"">","null","","","","","","","","","",""
"","image-keyboard-response","78","306899","0.0-114.0","39U1BHVTDMD8BSDZF4ABB1PN3HC3TV","A2OU40SUJR40CC","3P520RYKCHSO30HY2QJC6BDLS9Z5UE","","462.4000000001397","img/food5.png","74","463.79999999981374","1","1","false","1","2","1,0.5,0,1,0.5,0,0.5,0,1","1,0.5,0,1,0.5,0,0.5,0,1","1",""
"","html-keyboard-response","79","307203","0.0-115.0","39U1BHVTDMD8BSDZF4ABB1PN3HC3TV","A2OU40SUJR40CC","3P520RYKCHSO30HY2QJC6BDLS9Z5UE","","null","<img src=""img/food5.png"" style=""width:200px; border:14px solid green;"">","null","","","","","","","","","",""
"","image-keyboard-response","80","307603","0.0-117.0","39U1BHVTDMD8BSDZF4ABB1PN3HC3TV","A2OU40SUJR40CC","3P520RYKCHSO30HY2QJC6BDLS9Z5UE","","398.5","img/food5.png","74","400","1","1","false","1","2","1,0.5,0,1,0.5,0,0.5,0,1","1,0.5,0,1,0.5,0,0.5,0,1","1",""
"","html-keyboard-response","81","307907","0.0-118.0","39U1BHVTDMD8BSDZF4ABB1PN3HC3TV","A2OU40SUJR40CC","3P520RYKCHSO30HY2QJC6BDLS9Z5UE","","null","<img src=""img/food5.png"" style=""width:200px; border:14px solid green;"">","null","","","","","","","","","",""
"","image-keyboard-response","82","308339","0.0-120.0","39U1BHVTDMD8BSDZF4ABB1PN3HC3TV","A2OU40SUJR40CC","3P520RYKCHSO30HY2QJC6BDLS9Z5UE","","430.5","img/food3.png","74","431.89999999990687","1","1","false","2","2","1,0.5,0,1,0.5,0,0.5,0,1","1,0.5,0,1,0.5,0,0.5,0,1","1",""
"","html-keyboard-response","83","308643","0.0-121.0","39U1BHVTDMD8BSDZF4ABB1PN3HC3TV","A2OU40SUJR40CC","3P520RYKCHSO30HY2QJC6BDLS9Z5UE","","null","<img src=""img/food3.png"" style=""width:200px; border:14px solid green;"">","null","","","","","","","","","",""
"","image-keyboard-response","84","309027","0.0-123.0","39U1BHVTDMD8BSDZF4ABB1PN3HC3TV","A2OU40SUJR40CC","3P520RYKCHSO30HY2QJC6BDLS9Z5UE","","382.29999999981374","img/food3.png","74","383.89999999990687","1","1","false","2","2","1,0.5,0,1,0.5,0,0.5,0,1","1,0.5,0,1,0.5,0,0.5,0,1","1",""
"","html-keyboard-response","85","309331","0.0-124.0","39U1BHVTDMD8BSDZF4ABB1PN3HC3TV","A2OU40SUJR40CC","3P520RYKCHSO30HY2QJC6BDLS9Z5UE","","null","<img src=""img/food3.png"" style=""width:200px; border:14px solid green;"">","null","","","","","","","","","",""
"","image-keyboard-response","86","309811","0.0-126.0","39U1BHVTDMD8BSDZF4ABB1PN3HC3TV","A2OU40SUJR40CC","3P520RYKCHSO30HY2QJC6BDLS9Z5UE","","478.5","img/food5.png","74","479.9000000001397","1","1","false","1","2","1,0.5,0,1,0.5,0,0.5,0,1","1,0.5,0,1,0.5,0,0.5,0,1","1",""
"","html-keyboard-response","87","310121","0.0-127.0","39U1BHVTDMD8BSDZF4ABB1PN3HC3TV","A2OU40SUJR40CC","3P520RYKCHSO30HY2QJC6BDLS9Z5UE","","null","<img src=""img/food5.png"" style=""width:200px; border:14px solid green;"">","null","","","","","","","","","",""
"","image-keyboard-response","88","310547","0.0-129.0","39U1BHVTDMD8BSDZF4ABB1PN3HC3TV","A2OU40SUJR40CC","3P520RYKCHSO30HY2QJC6BDLS9Z5UE","","424.69999999995343","img/food3.png","74","426.0999999998603","1","1","false","2","2","1,0.5,0,1,0.5,0,0.5,0,1","1,0.5,0,1,0.5,0,0.5,0,1","1",""
"","html-keyboard-response","89","310851","0.0-130.0","39U1BHVTDMD8BSDZF4ABB1PN3HC3TV","A2OU40SUJR40CC","3P520RYKCHSO30HY2QJC6BDLS9Z5UE","","null","<img src=""img/food3.png"" style=""width:200px; border:14px solid green;"">","null","","","","","","","","","",""
"","image-keyboard-response","90","311491","0.0-132.0","39U1BHVTDMD8BSDZF4ABB1PN3HC3TV","A2OU40SUJR40CC","3P520RYKCHSO30HY2QJC6BDLS9Z5UE","","638.6999999999534","img/food2.png","76","640.0999999998603","3","1","false","3","2","1,0.5,0,1,0.5,0,0.5,0,1","1,0.5,0,1,0.5,0,0.5,0,1","1",""
"","html-keyboard-response","91","311795","0.0-133.0","39U1BHVTDMD8BSDZF4ABB1PN3HC3TV","A2OU40SUJR40CC","3P520RYKCHSO30HY2QJC6BDLS9Z5UE","","null","<img src=""img/food2.png"" style=""width:200px; border:14px solid green;"">","null","","","","","","","","","",""
"","image-keyboard-response","92","312243","0.0-135.0","39U1BHVTDMD8BSDZF4ABB1PN3HC3TV","A2OU40SUJR40CC","3P520RYKCHSO30HY2QJC6BDLS9Z5UE","","446.69999999995343","img/food2.png","76","448.19999999995343","3","1","false","3","2","1,0.5,0,1,0.5,0,0.5,0,1","1,0.5,0,1,0.5,0,0.5,0,1","1",""
"","html-keyboard-response","93","312547","0.0-136.0","39U1BHVTDMD8BSDZF4ABB1PN3HC3TV","A2OU40SUJR40CC","3P520RYKCHSO30HY2QJC6BDLS9Z5UE","","null","<img src=""img/food2.png"" style=""width:200px; border:14px solid green;"">","null","","","","","","","","","",""
"","image-keyboard-response","94","313012","0.0-138.0","39U1BHVTDMD8BSDZF4ABB1PN3HC3TV","A2OU40SUJR40CC","3P520RYKCHSO30HY2QJC6BDLS9Z5UE","","463","img/food3.png","74","464.30000000004657","1","1","false","2","2","1,0.5,0,1,0.5,0,0.5,0,1","1,0.5,0,1,0.5,0,0.5,0,1","1",""
"","html-keyboard-response","95","313315","0.0-139.0","39U1BHVTDMD8BSDZF4ABB1PN3HC3TV","A2OU40SUJR40CC","3P520RYKCHSO30HY2QJC6BDLS9Z5UE","","null","<img src=""img/food3.png"" style=""width:200px; border:14px solid green;"">","null","","","","","","","","","",""
"","image-keyboard-response","96","313715","0.0-141.0","39U1BHVTDMD8BSDZF4ABB1PN3HC3TV","A2OU40SUJR40CC","3P520RYKCHSO30HY2QJC6BDLS9Z5UE","","398.9000000001397","img/food3.png","74","400.10000000009313","1","1","false","2","2","1,0.5,0,1,0.5,0,0.5,0,1","1,0.5,0,1,0.5,0,0.5,0,1","1",""
"","html-keyboard-response","97","314022","0.0-142.0","39U1BHVTDMD8BSDZF4ABB1PN3HC3TV","A2OU40SUJR40CC","3P520RYKCHSO30HY2QJC6BDLS9Z5UE","","null","<img src=""img/food3.png"" style=""width:200px; border:14px solid green;"">","null","","","","","","","","","",""
"","image-keyboard-response","98","314307","0.0-144.0","39U1BHVTDMD8BSDZF4ABB1PN3HC3TV","A2OU40SUJR40CC","3P520RYKCHSO30HY2QJC6BDLS9Z5UE","","283.80000000004657","img/food5.png","74","285.19999999995343","1","1","false","1","2","1,0.5,0,1,0.5,0,0.5,0,1","1,0.5,0,1,0.5,0,0.5,0,1","1",""
"","html-keyboard-response","99","314610","0.0-145.0","39U1BHVTDMD8BSDZF4ABB1PN3HC3TV","A2OU40SUJR40CC","3P520RYKCHSO30HY2QJC6BDLS9Z5UE","","null","<img src=""img/food5.png"" style=""width:200px; border:14px solid green;"">","null","","","","","","","","","",""
"","image-keyboard-response","100","315203","0.0-147.0","39U1BHVTDMD8BSDZF4ABB1PN3HC3TV","A2OU40SUJR40CC","3P520RYKCHSO30HY2QJC6BDLS9Z5UE","","591.9000000001397","img/food2.png","76","593.3999999999069","3","1","false","3","2","1,0.5,0,1,0.5,0,0.5,0,1","1,0.5,0,1,0.5,0,0.5,0,1","1",""
"","html-keyboard-response","101","315507","0.0-148.0","39U1BHVTDMD8BSDZF4ABB1PN3HC3TV","A2OU40SUJR40CC","3P520RYKCHSO30HY2QJC6BDLS9Z5UE","","null","<img src=""img/food2.png"" style=""width:200px; border:14px solid green;"">","null","","","","","","","","","",""
"","image-keyboard-response","102","315907","0.0-150.0","39U1BHVTDMD8BSDZF4ABB1PN3HC3TV","A2OU40SUJR40CC","3P520RYKCHSO30HY2QJC6BDLS9Z5UE","","398.69999999995343","img/food2.png","74","400.19999999995343","1","0","false","3","2","1,0.5,0,1,0.5,0,0.5,0,1","1,0.5,0,1,0.5,0,0.5,0,1","1",""
"","html-keyboard-response","103","316211","0.0-151.0","39U1BHVTDMD8BSDZF4ABB1PN3HC3TV","A2OU40SUJR40CC","3P520RYKCHSO30HY2QJC6BDLS9Z5UE","","null","<img src=""img/food2.png"" style=""width:200px;border:14px solid red;"">","null","","","","","","","","","",""
"","image-keyboard-response","104","316516","0.0-153.0","39U1BHVTDMD8BSDZF4ABB1PN3HC3TV","A2OU40SUJR40CC","3P520RYKCHSO30HY2QJC6BDLS9Z5UE","","303.30000000004657","img/food2.png","76","304.60000000009313","3","1","false","3","2","1,0.5,0,1,0.5,0,0.5,0,1","1,0.5,0,1,0.5,0,0.5,0,1","1",""
"","html-keyboard-response","105","316819","0.0-154.0","39U1BHVTDMD8BSDZF4ABB1PN3HC3TV","A2OU40SUJR40CC","3P520RYKCHSO30HY2QJC6BDLS9Z5UE","","null","<img src=""img/food2.png"" style=""width:200px; border:14px solid green;"">","null","","","","","","","","","",""
"","image-keyboard-response","106","317203","0.0-156.0","39U1BHVTDMD8BSDZF4ABB1PN3HC3TV","A2OU40SUJR40CC","3P520RYKCHSO30HY2QJC6BDLS9Z5UE","","383","img/food2.png","76","384.39999999990687","3","1","false","3","2","1,0.5,0,1,0.5,0,0.5,0,1","1,0.5,0,1,0.5,0,0.5,0,1","1",""
"","html-keyboard-response","107","317507","0.0-157.0","39U1BHVTDMD8BSDZF4ABB1PN3HC3TV","A2OU40SUJR40CC","3P520RYKCHSO30HY2QJC6BDLS9Z5UE","","null","<img src=""img/food2.png"" style=""width:200px; border:14px solid green;"">","null","","","","","","","","","",""
"","image-keyboard-response","108","317843","0.0-159.0","39U1BHVTDMD8BSDZF4ABB1PN3HC3TV","A2OU40SUJR40CC","3P520RYKCHSO30HY2QJC6BDLS9Z5UE","","335.10000000009313","img/food2.png","76","336.5","3","1","false","3","2","1,0.5,0,1,0.5,0,0.5,0,1","1,0.5,0,1,0.5,0,0.5,0,1","1",""
"","html-keyboard-response","109","318145","0.0-160.0","39U1BHVTDMD8BSDZF4ABB1PN3HC3TV","A2OU40SUJR40CC","3P520RYKCHSO30HY2QJC6BDLS9Z5UE","","null","<img src=""img/food2.png"" style=""width:200px; border:14px solid green;"">","null","","","","","","","","","",""
"","image-keyboard-response","110","318627","0.0-162.0","39U1BHVTDMD8BSDZF4ABB1PN3HC3TV","A2OU40SUJR40CC","3P520RYKCHSO30HY2QJC6BDLS9Z5UE","","480.19999999995343","img/food3.png","74","481.5","1","1","false","2","2","1,0.5,0,1,0.5,0,0.5,0,1","1,0.5,0,1,0.5,0,0.5,0,1","1",""
"","html-keyboard-response","111","318930","0.0-163.0","39U1BHVTDMD8BSDZF4ABB1PN3HC3TV","A2OU40SUJR40CC","3P520RYKCHSO30HY2QJC6BDLS9Z5UE","","null","<img src=""img/food3.png"" style=""width:200px; border:14px solid green;"">","null","","","","","","","","","",""
"","image-keyboard-response","112","319540","0.0-165.0","39U1BHVTDMD8BSDZF4ABB1PN3HC3TV","A2OU40SUJR40CC","3P520RYKCHSO30HY2QJC6BDLS9Z5UE","","607.2999999998137","img/food2.png","76","608.6000000000931","3","1","false","3","2","1,0.5,0,1,0.5,0,0.5,0,1","1,0.5,0,1,0.5,0,0.5,0,1","1",""
"","html-keyboard-response","113","319843","0.0-166.0","39U1BHVTDMD8BSDZF4ABB1PN3HC3TV","A2OU40SUJR40CC","3P520RYKCHSO30HY2QJC6BDLS9Z5UE","","null","<img src=""img/food2.png"" style=""width:200px; border:14px solid green;"">","null","","","","","","","","","",""
"","image-keyboard-response","114","320276","0.0-168.0","39U1BHVTDMD8BSDZF4ABB1PN3HC3TV","A2OU40SUJR40CC","3P520RYKCHSO30HY2QJC6BDLS9Z5UE","","430.19999999995343","img/food3.png","76","431.69999999995343","3","0","false","2","2","1,0.5,0,1,0.5,0,0.5,0,1","1,0.5,0,1,0.5,0,0.5,0,1","1",""
"","html-keyboard-response","115","320579","0.0-169.0","39U1BHVTDMD8BSDZF4ABB1PN3HC3TV","A2OU40SUJR40CC","3P520RYKCHSO30HY2QJC6BDLS9Z5UE","","null","<img src=""img/food3.png"" style=""width:200px;border:14px solid red;"">","null","","","","","","","","","",""
"","image-keyboard-response","116","320900","0.0-171.0","39U1BHVTDMD8BSDZF4ABB1PN3HC3TV","A2OU40SUJR40CC","3P520RYKCHSO30HY2QJC6BDLS9Z5UE","","318.29999999981374","img/food5.png","74","319.69999999995343","1","1","false","1","2","1,0.5,0,1,0.5,0,0.5,0,1","1,0.5,0,1,0.5,0,0.5,0,1","1",""
"","html-keyboard-response","117","321203","0.0-172.0","39U1BHVTDMD8BSDZF4ABB1PN3HC3TV","A2OU40SUJR40CC","3P520RYKCHSO30HY2QJC6BDLS9Z5UE","","null","<img src=""img/food5.png"" style=""width:200px; border:14px solid green;"">","null","","","","","","","","","",""
"","image-keyboard-response","118","321860","0.0-174.0","39U1BHVTDMD8BSDZF4ABB1PN3HC3TV","A2OU40SUJR40CC","3P520RYKCHSO30HY2QJC6BDLS9Z5UE","","654.2999999998137","img/food3.png","74","655.6999999999534","1","1","false","2","2","1,0.5,0,1,0.5,0,0.5,0,1","1,0.5,0,1,0.5,0,0.5,0,1","1",""
"","html-keyboard-response","119","322163","0.0-175.0","39U1BHVTDMD8BSDZF4ABB1PN3HC3TV","A2OU40SUJR40CC","3P520RYKCHSO30HY2QJC6BDLS9Z5UE","","null","<img src=""img/food3.png"" style=""width:200px; border:14px solid green;"">","null","","","","","","","","","",""
"","image-keyboard-response","120","322755","0.0-177.0","39U1BHVTDMD8BSDZF4ABB1PN3HC3TV","A2OU40SUJR40CC","3P520RYKCHSO30HY2QJC6BDLS9Z5UE","","590.3000000000466","img/food2.png","76","591.7999999998137","3","1","false","3","2","1,0.5,0,1,0.5,0,0.5,0,1","1,0.5,0,1,0.5,0,0.5,0,1","1",""
"","html-keyboard-response","121","323059","0.0-178.0","39U1BHVTDMD8BSDZF4ABB1PN3HC3TV","A2OU40SUJR40CC","3P520RYKCHSO30HY2QJC6BDLS9Z5UE","","null","<img src=""img/food2.png"" style=""width:200px; border:14px solid green;"">","null","","","","","","","","","",""
"","image-keyboard-response","122","323651","0.0-180.0","39U1BHVTDMD8BSDZF4ABB1PN3HC3TV","A2OU40SUJR40CC","3P520RYKCHSO30HY2QJC6BDLS9Z5UE","","590.3999999999069","img/food3.png","74","591.7999999998137","1","1","false","2","2","1,0.5,0,1,0.5,0,0.5,0,1","1,0.5,0,1,0.5,0,0.5,0,1","1",""
"","html-keyboard-response","123","323957","0.0-181.0","39U1BHVTDMD8BSDZF4ABB1PN3HC3TV","A2OU40SUJR40CC","3P520RYKCHSO30HY2QJC6BDLS9Z5UE","","null","<img src=""img/food3.png"" style=""width:200px; border:14px solid green;"">","null","","","","","","","","","",""
"","image-keyboard-response","124","324451","0.0-183.0","39U1BHVTDMD8BSDZF4ABB1PN3HC3TV","A2OU40SUJR40CC","3P520RYKCHSO30HY2QJC6BDLS9Z5UE","","492.69999999995343","img/food5.png","74","494.29999999981374","1","1","false","1","2","1,0.5,0,1,0.5,0,0.5,0,1","1,0.5,0,1,0.5,0,0.5,0,1","1",""
"","html-keyboard-response","125","324755","0.0-184.0","39U1BHVTDMD8BSDZF4ABB1PN3HC3TV","A2OU40SUJR40CC","3P520RYKCHSO30HY2QJC6BDLS9Z5UE","","null","<img src=""img/food5.png"" style=""width:200px; border:14px solid green;"">","null","","","","","","","","","",""
"","image-keyboard-response","126","325251","0.0-186.0","39U1BHVTDMD8BSDZF4ABB1PN3HC3TV","A2OU40SUJR40CC","3P520RYKCHSO30HY2QJC6BDLS9Z5UE","","494.39999999990687","img/food3.png","74","495.80000000004657","1","1","false","2","2","1,0.5,0,1,0.5,0,0.5,0,1","1,0.5,0,1,0.5,0,0.5,0,1","1",""
"","html-keyboard-response","127","325555","0.0-187.0","39U1BHVTDMD8BSDZF4ABB1PN3HC3TV","A2OU40SUJR40CC","3P520RYKCHSO30HY2QJC6BDLS9Z5UE","","null","<img src=""img/food3.png"" style=""width:200px; border:14px solid green;"">","null","","","","","","","","","",""
"","image-keyboard-response","128","326131","0.0-189.0","39U1BHVTDMD8BSDZF4ABB1PN3HC3TV","A2OU40SUJR40CC","3P520RYKCHSO30HY2QJC6BDLS9Z5UE","","574.6000000000931","img/food3.png","74","576","1","1","false","2","2","1,0.5,0,1,0.5,0,0.5,0,1","1,0.5,0,1,0.5,0,0.5,0,1","1",""
"","html-keyboard-response","129","326435","0.0-190.0","39U1BHVTDMD8BSDZF4ABB1PN3HC3TV","A2OU40SUJR40CC","3P520RYKCHSO30HY2QJC6BDLS9Z5UE","","null","<img src=""img/food3.png"" style=""width:200px; border:14px solid green;"">","null","","","","","","","","","",""
"","image-keyboard-response","130","326932","0.0-192.0","39U1BHVTDMD8BSDZF4ABB1PN3HC3TV","A2OU40SUJR40CC","3P520RYKCHSO30HY2QJC6BDLS9Z5UE","","494.9000000001397","img/food5.png","74","496.30000000004657","1","1","false","1","2","1,0.5,0,1,0.5,0,0.5,0,1","1,0.5,0,1,0.5,0,0.5,0,1","1",""
"","html-keyboard-response","131","327235","0.0-193.0","39U1BHVTDMD8BSDZF4ABB1PN3HC3TV","A2OU40SUJR40CC","3P520RYKCHSO30HY2QJC6BDLS9Z5UE","","null","<img src=""img/food5.png"" style=""width:200px; border:14px solid green;"">","null","","","","","","","","","",""
"","image-keyboard-response","132","327699","0.0-195.0","39U1BHVTDMD8BSDZF4ABB1PN3HC3TV","A2OU40SUJR40CC","3P520RYKCHSO30HY2QJC6BDLS9Z5UE","","462.60000000009313","img/food3.png","74","464","1","1","false","2","2","1,0.5,0,1,0.5,0,0.5,0,1","1,0.5,0,1,0.5,0,0.5,0,1","1",""
"","html-keyboard-response","133","328002","0.0-196.0","39U1BHVTDMD8BSDZF4ABB1PN3HC3TV","A2OU40SUJR40CC","3P520RYKCHSO30HY2QJC6BDLS9Z5UE","","null","<img src=""img/food3.png"" style=""width:200px; border:14px solid green;"">","null","","","","","","","","","",""
"","image-keyboard-response","134","328483","0.0-198.0","39U1BHVTDMD8BSDZF4ABB1PN3HC3TV","A2OU40SUJR40CC","3P520RYKCHSO30HY2QJC6BDLS9Z5UE","","479.5999999998603","img/food5.png","74","481","1","1","false","1","2","1,0.5,0,1,0.5,0,0.5,0,1","1,0.5,0,1,0.5,0,0.5,0,1","1",""
"","html-keyboard-response","135","328787","0.0-199.0","39U1BHVTDMD8BSDZF4ABB1PN3HC3TV","A2OU40SUJR40CC","3P520RYKCHSO30HY2QJC6BDLS9Z5UE","","null","<img src=""img/food5.png"" style=""width:200px; border:14px solid green;"">","null","","","","","","","","","",""
"","image-keyboard-response","136","329315","0.0-201.0","39U1BHVTDMD8BSDZF4ABB1PN3HC3TV","A2OU40SUJR40CC","3P520RYKCHSO30HY2QJC6BDLS9Z5UE","","526.5","img/food2.png","76","528","3","1","false","3","2","1,0.5,0,1,0.5,0,0.5,0,1","1,0.5,0,1,0.5,0,0.5,0,1","1",""
"","html-keyboard-response","137","329619","0.0-202.0","39U1BHVTDMD8BSDZF4ABB1PN3HC3TV","A2OU40SUJR40CC","3P520RYKCHSO30HY2QJC6BDLS9Z5UE","","null","<img src=""img/food2.png"" style=""width:200px; border:14px solid green;"">","null","","","","","","","","","",""
"","image-keyboard-response","138","330036","0.0-204.0","39U1BHVTDMD8BSDZF4ABB1PN3HC3TV","A2OU40SUJR40CC","3P520RYKCHSO30HY2QJC6BDLS9Z5UE","","414.5","img/food3.png","74","416","1","1","false","2","2","1,0.5,0,1,0.5,0,0.5,0,1","1,0.5,0,1,0.5,0,0.5,0,1","1",""
"","html-keyboard-response","139","330338","0.0-205.0","39U1BHVTDMD8BSDZF4ABB1PN3HC3TV","A2OU40SUJR40CC","3P520RYKCHSO30HY2QJC6BDLS9Z5UE","","null","<img src=""img/food3.png"" style=""width:200px; border:14px solid green;"">","null","","","","","","","","","",""
"","image-keyboard-response","140","330659","0.0-207.0","39U1BHVTDMD8BSDZF4ABB1PN3HC3TV","A2OU40SUJR40CC","3P520RYKCHSO30HY2QJC6BDLS9Z5UE","","319.89999999990687","img/food2.png","74","321.19999999995343","1","0","false","3","2","1,0.5,0,1,0.5,0,0.5,0,1","1,0.5,0,1,0.5,0,0.5,0,1","1",""
"","html-keyboard-response","141","330962","0.0-208.0","39U1BHVTDMD8BSDZF4ABB1PN3HC3TV","A2OU40SUJR40CC","3P520RYKCHSO30HY2QJC6BDLS9Z5UE","","null","<img src=""img/food2.png"" style=""width:200px;border:14px solid red;"">","null","","","","","","","","","",""
"","image-keyboard-response","142","331555","0.0-210.0","39U1BHVTDMD8BSDZF4ABB1PN3HC3TV","A2OU40SUJR40CC","3P520RYKCHSO30HY2QJC6BDLS9Z5UE","","591.8000000000466","img/food2.png","74","593.2999999998137","1","0","false","3","2","1,0.5,0,1,0.5,0,0.5,0,1","1,0.5,0,1,0.5,0,0.5,0,1","1",""
"","html-keyboard-response","143","331859","0.0-211.0","39U1BHVTDMD8BSDZF4ABB1PN3HC3TV","A2OU40SUJR40CC","3P520RYKCHSO30HY2QJC6BDLS9Z5UE","","null","<img src=""img/food2.png"" style=""width:200px;border:14px solid red;"">","null","","","","","","","","","",""
"","image-keyboard-response","144","332099","0.0-213.0","39U1BHVTDMD8BSDZF4ABB1PN3HC3TV","A2OU40SUJR40CC","3P520RYKCHSO30HY2QJC6BDLS9Z5UE","","238.9000000001397","img/food5.png","76","240.29999999981374","3","0","false","1","2","1,0.5,0,1,0.5,0,0.5,0,1","1,0.5,0,1,0.5,0,0.5,0,1","1",""
"","html-keyboard-response","145","332403","0.0-214.0","39U1BHVTDMD8BSDZF4ABB1PN3HC3TV","A2OU40SUJR40CC","3P520RYKCHSO30HY2QJC6BDLS9Z5UE","","null","<img src=""img/food5.png"" style=""width:200px;border:14px solid red;"">","null","","","","","","","","","",""
"","image-keyboard-response","146","333140","0.0-216.0","39U1BHVTDMD8BSDZF4ABB1PN3HC3TV","A2OU40SUJR40CC","3P520RYKCHSO30HY2QJC6BDLS9Z5UE","","735.1000000000931","img/food3.png","74","736.3999999999069","1","1","false","2","2","1,0.5,0,1,0.5,0,0.5,0,1","1,0.5,0,1,0.5,0,0.5,0,1","1",""
"","html-keyboard-response","147","333443","0.0-217.0","39U1BHVTDMD8BSDZF4ABB1PN3HC3TV","A2OU40SUJR40CC","3P520RYKCHSO30HY2QJC6BDLS9Z5UE","","null","<img src=""img/food3.png"" style=""width:200px; border:14px solid green;"">","null","","","","","","","","","",""
"","image-keyboard-response","148","333748","0.0-219.0","39U1BHVTDMD8BSDZF4ABB1PN3HC3TV","A2OU40SUJR40CC","3P520RYKCHSO30HY2QJC6BDLS9Z5UE","","303.0999999998603","img/food3.png","74","304.39999999990687","1","1","false","2","2","1,0.5,0,1,0.5,0,0.5,0,1","1,0.5,0,1,0.5,0,0.5,0,1","1",""
"","html-keyboard-response","149","334051","0.0-220.0","39U1BHVTDMD8BSDZF4ABB1PN3HC3TV","A2OU40SUJR40CC","3P520RYKCHSO30HY2QJC6BDLS9Z5UE","","null","<img src=""img/food3.png"" style=""width:200px; border:14px solid green;"">","null","","","","","","","","","",""
"","image-keyboard-response","150","334580","0.0-222.0","39U1BHVTDMD8BSDZF4ABB1PN3HC3TV","A2OU40SUJR40CC","3P520RYKCHSO30HY2QJC6BDLS9Z5UE","","527.0999999998603","img/food5.png","74","528.5","1","1","false","1","2","1,0.5,0,1,0.5,0,0.5,0,1","1,0.5,0,1,0.5,0,0.5,0,1","1",""
"","html-keyboard-response","151","334883","0.0-223.0","39U1BHVTDMD8BSDZF4ABB1PN3HC3TV","A2OU40SUJR40CC","3P520RYKCHSO30HY2QJC6BDLS9Z5UE","","null","<img src=""img/food5.png"" style=""width:200px; border:14px solid green;"">","null","","","","","","","","","",""
"","image-keyboard-response","152","335284","0.0-225.0","39U1BHVTDMD8BSDZF4ABB1PN3HC3TV","A2OU40SUJR40CC","3P520RYKCHSO30HY2QJC6BDLS9Z5UE","","398.69999999995343","img/food5.png","74","400.29999999981374","1","1","false","1","2","1,0.5,0,1,0.5,0,0.5,0,1","1,0.5,0,1,0.5,0,0.5,0,1","1",""
"","html-keyboard-response","153","335587","0.0-226.0","39U1BHVTDMD8BSDZF4ABB1PN3HC3TV","A2OU40SUJR40CC","3P520RYKCHSO30HY2QJC6BDLS9Z5UE","","null","<img src=""img/food5.png"" style=""width:200px; border:14px solid green;"">","null","","","","","","","","","",""
"","image-keyboard-response","154","336020","0.0-228.0","39U1BHVTDMD8BSDZF4ABB1PN3HC3TV","A2OU40SUJR40CC","3P520RYKCHSO30HY2QJC6BDLS9Z5UE","","431.29999999981374","img/food3.png","74","432.69999999995343","1","1","false","2","2","1,0.5,0,1,0.5,0,0.5,0,1","1,0.5,0,1,0.5,0,0.5,0,1","1",""
"","html-keyboard-response","155","336330","0.0-229.0","39U1BHVTDMD8BSDZF4ABB1PN3HC3TV","A2OU40SUJR40CC","3P520RYKCHSO30HY2QJC6BDLS9Z5UE","","null","<img src=""img/food3.png"" style=""width:200px; border:14px solid green;"">","null","","","","","","","","","",""
"","image-keyboard-response","156","336724","0.0-231.0","39U1BHVTDMD8BSDZF4ABB1PN3HC3TV","A2OU40SUJR40CC","3P520RYKCHSO30HY2QJC6BDLS9Z5UE","","392.10000000009313","img/food3.png","74","393.5999999998603","1","1","false","2","2","1,0.5,0,1,0.5,0,0.5,0,1","1,0.5,0,1,0.5,0,0.5,0,1","1",""
"","html-keyboard-response","157","337026","0.0-232.0","39U1BHVTDMD8BSDZF4ABB1PN3HC3TV","A2OU40SUJR40CC","3P520RYKCHSO30HY2QJC6BDLS9Z5UE","","null","<img src=""img/food3.png"" style=""width:200px; border:14px solid green;"">","null","","","","","","","","","",""
"","image-keyboard-response","158","337604","0.0-234.0","39U1BHVTDMD8BSDZF4ABB1PN3HC3TV","A2OU40SUJR40CC","3P520RYKCHSO30HY2QJC6BDLS9Z5UE","","576.4000000001397","img/food2.png","76","577.8999999999069","3","1","false","3","2","1,0.5,0,1,0.5,0,0.5,0,1","1,0.5,0,1,0.5,0,0.5,0,1","1",""
"","html-keyboard-response","159","337908","0.0-235.0","39U1BHVTDMD8BSDZF4ABB1PN3HC3TV","A2OU40SUJR40CC","3P520RYKCHSO30HY2QJC6BDLS9Z5UE","","null","<img src=""img/food2.png"" style=""width:200px; border:14px solid green;"">","null","","","","","","","","","",""
"","image-keyboard-response","160","338372","0.0-237.0","39U1BHVTDMD8BSDZF4ABB1PN3HC3TV","A2OU40SUJR40CC","3P520RYKCHSO30HY2QJC6BDLS9Z5UE","","462.29999999981374","img/food3.png","74","463.5999999998603","1","1","false","2","2","1,0.5,0,1,0.5,0,0.5,0,1","1,0.5,0,1,0.5,0,0.5,0,1","1",""
"","html-keyboard-response","161","338675","0.0-238.0","39U1BHVTDMD8BSDZF4ABB1PN3HC3TV","A2OU40SUJR40CC","3P520RYKCHSO30HY2QJC6BDLS9Z5UE","","null","<img src=""img/food3.png"" style=""width:200px; border:14px solid green;"">","null","","","","","","","","","",""
"","image-keyboard-response","162","338964","0.0-240.0","39U1BHVTDMD8BSDZF4ABB1PN3HC3TV","A2OU40SUJR40CC","3P520RYKCHSO30HY2QJC6BDLS9Z5UE","","287.39999999990687","img/food2.png","74","288.80000000004657","1","0","false","3","2","1,0.5,0,1,0.5,0,0.5,0,1","1,0.5,0,1,0.5,0,0.5,0,1","1",""
"","html-keyboard-response","163","339267","0.0-241.0","39U1BHVTDMD8BSDZF4ABB1PN3HC3TV","A2OU40SUJR40CC","3P520RYKCHSO30HY2QJC6BDLS9Z5UE","","null","<img src=""img/food2.png"" style=""width:200px;border:14px solid red;"">","null","","","","","","","","","",""
"","image-keyboard-response","164","339732","0.0-243.0","39U1BHVTDMD8BSDZF4ABB1PN3HC3TV","A2OU40SUJR40CC","3P520RYKCHSO30HY2QJC6BDLS9Z5UE","","462.30000000004657","img/food5.png","74","463.69999999995343","1","1","false","1","2","1,0.5,0,1,0.5,0,0.5,0,1","1,0.5,0,1,0.5,0,0.5,0,1","1",""
"","html-keyboard-response","165","340035","0.0-244.0","39U1BHVTDMD8BSDZF4ABB1PN3HC3TV","A2OU40SUJR40CC","3P520RYKCHSO30HY2QJC6BDLS9Z5UE","","null","<img src=""img/food5.png"" style=""width:200px; border:14px solid green;"">","null","","","","","","","","","",""
"","image-keyboard-response","166","340660","0.0-246.0","39U1BHVTDMD8BSDZF4ABB1PN3HC3TV","A2OU40SUJR40CC","3P520RYKCHSO30HY2QJC6BDLS9Z5UE","","622.5","img/food2.png","76","623.8000000000466","3","1","false","3","2","1,0.5,0,1,0.5,0,0.5,0,1","1,0.5,0,1,0.5,0,0.5,0,1","1",""
"","html-keyboard-response","167","340963","0.0-247.0","39U1BHVTDMD8BSDZF4ABB1PN3HC3TV","A2OU40SUJR40CC","3P520RYKCHSO30HY2QJC6BDLS9Z5UE","","null","<img src=""img/food2.png"" style=""width:200px; border:14px solid green;"">","null","","","","","","","","","",""
"","image-keyboard-response","168","341476","0.0-249.0","39U1BHVTDMD8BSDZF4ABB1PN3HC3TV","A2OU40SUJR40CC","3P520RYKCHSO30HY2QJC6BDLS9Z5UE","","510.4000000001397","img/food5.png","74","511.79999999981374","1","1","false","1","2","1,0.5,0,1,0.5,0,0.5,0,1","1,0.5,0,1,0.5,0,0.5,0,1","1",""
"","html-keyboard-response","169","341779","0.0-250.0","39U1BHVTDMD8BSDZF4ABB1PN3HC3TV","A2OU40SUJR40CC","3P520RYKCHSO30HY2QJC6BDLS9Z5UE","","null","<img src=""img/food5.png"" style=""width:200px; border:14px solid green;"">","null","","","","","","","","","",""
"","image-keyboard-response","170","342164","0.0-252.0","39U1BHVTDMD8BSDZF4ABB1PN3HC3TV","A2OU40SUJR40CC","3P520RYKCHSO30HY2QJC6BDLS9Z5UE","","382.30000000004657","img/food5.png","74","383.89999999990687","1","1","false","1","2","1,0.5,0,1,0.5,0,0.5,0,1","1,0.5,0,1,0.5,0,0.5,0,1","1",""
"","html-keyboard-response","171","342467","0.0-253.0","39U1BHVTDMD8BSDZF4ABB1PN3HC3TV","A2OU40SUJR40CC","3P520RYKCHSO30HY2QJC6BDLS9Z5UE","","null","<img src=""img/food5.png"" style=""width:200px; border:14px solid green;"">","null","","","","","","","","","",""
"","image-keyboard-response","172","343076","0.0-255.0","39U1BHVTDMD8BSDZF4ABB1PN3HC3TV","A2OU40SUJR40CC","3P520RYKCHSO30HY2QJC6BDLS9Z5UE","","606.3000000000466","img/food3.png","74","608.1000000000931","1","1","false","2","2","1,0.5,0,1,0.5,0,0.5,0,1","1,0.5,0,1,0.5,0,0.5,0,1","1",""
"","html-keyboard-response","173","343379","0.0-256.0","39U1BHVTDMD8BSDZF4ABB1PN3HC3TV","A2OU40SUJR40CC","3P520RYKCHSO30HY2QJC6BDLS9Z5UE","","null","<img src=""img/food3.png"" style=""width:200px; border:14px solid green;"">","null","","","","","","","","","",""
"","image-keyboard-response","174","344340","0.0-258.0","39U1BHVTDMD8BSDZF4ABB1PN3HC3TV","A2OU40SUJR40CC","3P520RYKCHSO30HY2QJC6BDLS9Z5UE","","958.6999999999534","img/food5.png","74","960.1000000000931","1","1","false","1","2","1,0.5,0,1,0.5,0,0.5,0,1","1,0.5,0,1,0.5,0,0.5,0,1","1",""
"","html-keyboard-response","175","344653","0.0-259.0","39U1BHVTDMD8BSDZF4ABB1PN3HC3TV","A2OU40SUJR40CC","3P520RYKCHSO30HY2QJC6BDLS9Z5UE","","null","<img src=""img/food5.png"" style=""width:200px; border:14px solid green;"">","null","","","","","","","","","",""
"","image-keyboard-response","176","345204","0.0-261.0","39U1BHVTDMD8BSDZF4ABB1PN3HC3TV","A2OU40SUJR40CC","3P520RYKCHSO30HY2QJC6BDLS9Z5UE","","548.3000000000466","img/food3.png","74","550.3000000000466","1","1","false","2","2","1,0.5,0,1,0.5,0,0.5,0,1","1,0.5,0,1,0.5,0,0.5,0,1","1",""
"","html-keyboard-response","177","345508","0.0-262.0","39U1BHVTDMD8BSDZF4ABB1PN3HC3TV","A2OU40SUJR40CC","3P520RYKCHSO30HY2QJC6BDLS9Z5UE","","null","<img src=""img/food3.png"" style=""width:200px; border:14px solid green;"">","null","","","","","","","","","",""
"","image-keyboard-response","178","346052","0.0-264.0","39U1BHVTDMD8BSDZF4ABB1PN3HC3TV","A2OU40SUJR40CC","3P520RYKCHSO30HY2QJC6BDLS9Z5UE","","541.6000000000931","img/food2.png","76","543.1999999999534","3","1","false","3","2","1,0.5,0,1,0.5,0,0.5,0,1","1,0.5,0,1,0.5,0,0.5,0,1","1",""
"","html-keyboard-response","179","346355","0.0-265.0","39U1BHVTDMD8BSDZF4ABB1PN3HC3TV","A2OU40SUJR40CC","3P520RYKCHSO30HY2QJC6BDLS9Z5UE","","null","<img src=""img/food2.png"" style=""width:200px; border:14px solid green;"">","null","","","","","","","","","",""
"","image-keyboard-response","180","346788","0.0-267.0","39U1BHVTDMD8BSDZF4ABB1PN3HC3TV","A2OU40SUJR40CC","3P520RYKCHSO30HY2QJC6BDLS9Z5UE","","430.69999999995343","img/food2.png","76","432.0999999998603","3","1","false","3","2","1,0.5,0,1,0.5,0,0.5,0,1","1,0.5,0,1,0.5,0,0.5,0,1","1",""
"","html-keyboard-response","181","347091","0.0-268.0","39U1BHVTDMD8BSDZF4ABB1PN3HC3TV","A2OU40SUJR40CC","3P520RYKCHSO30HY2QJC6BDLS9Z5UE","","null","<img src=""img/food2.png"" style=""width:200px; border:14px solid green;"">","null","","","","","","","","","",""
"","image-keyboard-response","182","347492","0.0-270.0","39U1BHVTDMD8BSDZF4ABB1PN3HC3TV","A2OU40SUJR40CC","3P520RYKCHSO30HY2QJC6BDLS9Z5UE","","398.89999999990687","img/food2.png","76","400.19999999995343","3","1","false","3","2","1,0.5,0,1,0.5,0,0.5,0,1","1,0.5,0,1,0.5,0,0.5,0,1","1",""
"","html-keyboard-response","183","347795","0.0-271.0","39U1BHVTDMD8BSDZF4ABB1PN3HC3TV","A2OU40SUJR40CC","3P520RYKCHSO30HY2QJC6BDLS9Z5UE","","null","<img src=""img/food2.png"" style=""width:200px; border:14px solid green;"">","null","","","","","","","","","",""
"","instructions","184","356288","0.0-273.0","39U1BHVTDMD8BSDZF4ABB1PN3HC3TV","A2OU40SUJR40CC","3P520RYKCHSO30HY2QJC6BDLS9Z5UE","[{""page_index"":0,""viewing_time"":5419.5},{""page_index"":1,""viewing_time"":3071.8000000000466}]","8491.600000000093","","","","","","","","","","","",""
"","image-keyboard-response","185","356947","0.0-274.0","39U1BHVTDMD8BSDZF4ABB1PN3HC3TV","A2OU40SUJR40CC","3P520RYKCHSO30HY2QJC6BDLS9Z5UE","","658.1999999999534","img/food6.png","74","659.8000000000466","1","1","","1","1","1,0.5,0,1,0.5,0,0.5,0,1","1,0.5,0,1,0.5,0,0.5,0,1","1",""
"","html-keyboard-response","186","357251","0.0-275.0","39U1BHVTDMD8BSDZF4ABB1PN3HC3TV","A2OU40SUJR40CC","3P520RYKCHSO30HY2QJC6BDLS9Z5UE","","null","<img src=""img/food6.png"" style=""width:200px; border:14px solid green;"">","null","","","","","","","","","",""
"","image-keyboard-response","187","359124","0.0-276.0","39U1BHVTDMD8BSDZF4ABB1PN3HC3TV","A2OU40SUJR40CC","3P520RYKCHSO30HY2QJC6BDLS9Z5UE","","1870.4000000001397","img/food4.png","76","1871.8999999999069","3","1","","3","1","1,0.5,0,1,0.5,0,0.5,0,1","1,0.5,0,1,0.5,0,0.5,0,1","1",""
"","html-keyboard-response","188","359427","0.0-277.0","39U1BHVTDMD8BSDZF4ABB1PN3HC3TV","A2OU40SUJR40CC","3P520RYKCHSO30HY2QJC6BDLS9Z5UE","","null","<img src=""img/food4.png"" style=""width:200px; border:14px solid green;"">","null","","","","","","","","","",""
"","image-keyboard-response","189","360212","0.0-278.0","39U1BHVTDMD8BSDZF4ABB1PN3HC3TV","A2OU40SUJR40CC","3P520RYKCHSO30HY2QJC6BDLS9Z5UE","","782.6999999999534","img/food6.png","74","784.0999999998603","1","1","","1","1","1,0.5,0,1,0.5,0,0.5,0,1","1,0.5,0,1,0.5,0,0.5,0,1","1",""
"","html-keyboard-response","190","360524","0.0-279.0","39U1BHVTDMD8BSDZF4ABB1PN3HC3TV","A2OU40SUJR40CC","3P520RYKCHSO30HY2QJC6BDLS9Z5UE","","null","<img src=""img/food6.png"" style=""width:200px; border:14px solid green;"">","null","","","","","","","","","",""
"","image-keyboard-response","191","361588","0.0-280.0","39U1BHVTDMD8BSDZF4ABB1PN3HC3TV","A2OU40SUJR40CC","3P520RYKCHSO30HY2QJC6BDLS9Z5UE","","1061.8999999999069","img/food1.png","75","1063.3000000000466","2","0","","2","1","1,0.5,0,1,0.5,0,0.5,0,1","1,0.5,0,1,0.5,0,0.5,0,1","1",""
"","html-keyboard-response","192","361891","0.0-281.0","39U1BHVTDMD8BSDZF4ABB1PN3HC3TV","A2OU40SUJR40CC","3P520RYKCHSO30HY2QJC6BDLS9Z5UE","","null","<img src=""img/food1.png"" style=""width:200px;border:14px solid red;"">","null","","","","","","","","","",""
"","image-keyboard-response","193","362500","0.0-282.0","39U1BHVTDMD8BSDZF4ABB1PN3HC3TV","A2OU40SUJR40CC","3P520RYKCHSO30HY2QJC6BDLS9Z5UE","","606.8999999999069","img/food4.png","74","608.1999999999534","1","0","","3","1","1,0.5,0,1,0.5,0,0.5,0,1","1,0.5,0,1,0.5,0,0.5,0,1","1",""
"","html-keyboard-response","194","362803","0.0-283.0","39U1BHVTDMD8BSDZF4ABB1PN3HC3TV","A2OU40SUJR40CC","3P520RYKCHSO30HY2QJC6BDLS9Z5UE","","null","<img src=""img/food4.png"" style=""width:200px;border:14px solid red;"">","null","","","","","","","","","",""
"","image-keyboard-response","195","363236","0.0-284.0","39U1BHVTDMD8BSDZF4ABB1PN3HC3TV","A2OU40SUJR40CC","3P520RYKCHSO30HY2QJC6BDLS9Z5UE","","431.20000000018626","img/food4.png","76","432.5999999998603","3","1","","3","1","1,0.5,0,1,0.5,0,0.5,0,1","1,0.5,0,1,0.5,0,0.5,0,1","1",""
"","html-keyboard-response","196","363539","0.0-285.0","39U1BHVTDMD8BSDZF4ABB1PN3HC3TV","A2OU40SUJR40CC","3P520RYKCHSO30HY2QJC6BDLS9Z5UE","","null","<img src=""img/food4.png"" style=""width:200px; border:14px solid green;"">","null","","","","","","","","","",""
"","image-keyboard-response","197","364404","0.0-286.0","39U1BHVTDMD8BSDZF4ABB1PN3HC3TV","A2OU40SUJR40CC","3P520RYKCHSO30HY2QJC6BDLS9Z5UE","","863","img/food1.png","74","864.3999999999069","1","1","","2","1","1,0.5,0,1,0.5,0,0.5,0,1","1,0.5,0,1,0.5,0,0.5,0,1","1",""
"","html-keyboard-response","198","364706","0.0-287.0","39U1BHVTDMD8BSDZF4ABB1PN3HC3TV","A2OU40SUJR40CC","3P520RYKCHSO30HY2QJC6BDLS9Z5UE","","null","<img src=""img/food1.png"" style=""width:200px; border:14px solid green;"">","null","","","","","","","","","",""
"","image-keyboard-response","199","365284","0.0-288.0","39U1BHVTDMD8BSDZF4ABB1PN3HC3TV","A2OU40SUJR40CC","3P520RYKCHSO30HY2QJC6BDLS9Z5UE","","576.0999999998603","img/food1.png","74","577.6000000000931","1","1","","2","1","1,0.5,0,1,0.5,0,0.5,0,1","1,0.5,0,1,0.5,0,0.5,0,1","1",""
"","html-keyboard-response","200","365587","0.0-289.0","39U1BHVTDMD8BSDZF4ABB1PN3HC3TV","A2OU40SUJR40CC","3P520RYKCHSO30HY2QJC6BDLS9Z5UE","","null","<img src=""img/food1.png"" style=""width:200px; border:14px solid green;"">","null","","","","","","","","","",""
"","image-keyboard-response","201","365924","0.0-290.0","39U1BHVTDMD8BSDZF4ABB1PN3HC3TV","A2OU40SUJR40CC","3P520RYKCHSO30HY2QJC6BDLS9Z5UE","","335.0999999998603","img/food1.png","74","336.60000000009313","1","1","","2","1","1,0.5,0,1,0.5,0,0.5,0,1","1,0.5,0,1,0.5,0,0.5,0,1","1",""
"","html-keyboard-response","202","366226","0.0-291.0","39U1BHVTDMD8BSDZF4ABB1PN3HC3TV","A2OU40SUJR40CC","3P520RYKCHSO30HY2QJC6BDLS9Z5UE","","null","<img src=""img/food1.png"" style=""width:200px; border:14px solid green;"">","null","","","","","","","","","",""
"","image-keyboard-response","203","366420","0.0-292.0","39U1BHVTDMD8BSDZF4ABB1PN3HC3TV","A2OU40SUJR40CC","3P520RYKCHSO30HY2QJC6BDLS9Z5UE","","192.10000000009313","img/food4.png","74","193.5","1","1","","3","1","1,0.5,0,1,0.5,0,0.5,0,1","1,0.5,0,1,0.5,0,0.5,0,1","1",""
"","html-keyboard-response","204","366723","0.0-293.0","39U1BHVTDMD8BSDZF4ABB1PN3HC3TV","A2OU40SUJR40CC","3P520RYKCHSO30HY2QJC6BDLS9Z5UE","","null","<img src=""img/food4.png"" style=""width:200px; border:14px solid green;"">","null","","","","","","","","","",""
"","image-keyboard-response","205","367204","0.0-294.0","39U1BHVTDMD8BSDZF4ABB1PN3HC3TV","A2OU40SUJR40CC","3P520RYKCHSO30HY2QJC6BDLS9Z5UE","","479.10000000009313","img/food1.png","74","480.5","1","1","","2","1","1,0.5,0,1,0.5,0,0.5,0,1","1,0.5,0,1,0.5,0,0.5,0,1","1",""
"","html-keyboard-response","206","367507","0.0-295.0","39U1BHVTDMD8BSDZF4ABB1PN3HC3TV","A2OU40SUJR40CC","3P520RYKCHSO30HY2QJC6BDLS9Z5UE","","null","<img src=""img/food1.png"" style=""width:200px; border:14px solid green;"">","null","","","","","","","","","",""
"","image-keyboard-response","207","368212","0.0-296.0","39U1BHVTDMD8BSDZF4ABB1PN3HC3TV","A2OU40SUJR40CC","3P520RYKCHSO30HY2QJC6BDLS9Z5UE","","703.1999999999534","img/food6.png","76","704.6000000000931","3","0","","1","1","1,0.5,0,1,0.5,0,0.5,0,1","1,0.5,0,1,0.5,0,0.5,0,1","1",""
"","html-keyboard-response","208","368514","0.0-297.0","39U1BHVTDMD8BSDZF4ABB1PN3HC3TV","A2OU40SUJR40CC","3P520RYKCHSO30HY2QJC6BDLS9Z5UE","","null","<img src=""img/food6.png"" style=""width:200px;border:14px solid red;"">","null","","","","","","","","","",""
"","image-keyboard-response","209","368916","0.0-298.0","39U1BHVTDMD8BSDZF4ABB1PN3HC3TV","A2OU40SUJR40CC","3P520RYKCHSO30HY2QJC6BDLS9Z5UE","","400.19999999995343","img/food1.png","74","401.60000000009313","1","1","","2","1","1,0.5,0,1,0.5,0,0.5,0,1","1,0.5,0,1,0.5,0,0.5,0,1","1",""
"","html-keyboard-response","210","369218","0.0-299.0","39U1BHVTDMD8BSDZF4ABB1PN3HC3TV","A2OU40SUJR40CC","3P520RYKCHSO30HY2QJC6BDLS9Z5UE","","null","<img src=""img/food1.png"" style=""width:200px; border:14px solid green;"">","null","","","","","","","","","",""
"","image-keyboard-response","211","369476","0.0-300.0","39U1BHVTDMD8BSDZF4ABB1PN3HC3TV","A2OU40SUJR40CC","3P520RYKCHSO30HY2QJC6BDLS9Z5UE","","256.39999999990687","img/food4.png","74","257.69999999995343","1","0","","3","1","1,0.5,0,1,0.5,0,0.5,0,1","1,0.5,0,1,0.5,0,0.5,0,1","1",""
"","html-keyboard-response","212","369793","0.0-301.0","39U1BHVTDMD8BSDZF4ABB1PN3HC3TV","A2OU40SUJR40CC","3P520RYKCHSO30HY2QJC6BDLS9Z5UE","","null","<img src=""img/food4.png"" style=""width:200px;border:14px solid red;"">","null","","","","","","","","","",""
"","image-keyboard-response","213","369956","0.0-302.0","39U1BHVTDMD8BSDZF4ABB1PN3HC3TV","A2OU40SUJR40CC","3P520RYKCHSO30HY2QJC6BDLS9Z5UE","","161.29999999981374","img/food6.png","74","162.80000000004657","1","1","","1","1","1,0.5,0,1,0.5,0,0.5,0,1","1,0.5,0,1,0.5,0,0.5,0,1","1",""
"","html-keyboard-response","214","370260","0.0-303.0","39U1BHVTDMD8BSDZF4ABB1PN3HC3TV","A2OU40SUJR40CC","3P520RYKCHSO30HY2QJC6BDLS9Z5UE","","null","<img src=""img/food6.png"" style=""width:200px; border:14px solid green;"">","null","","","","","","","","","",""
"","image-keyboard-response","215","370500","0.0-304.0","39U1BHVTDMD8BSDZF4ABB1PN3HC3TV","A2OU40SUJR40CC","3P520RYKCHSO30HY2QJC6BDLS9Z5UE","","238.30000000004657","img/food6.png","74","239.69999999995343","1","1","","1","1","1,0.5,0,1,0.5,0,0.5,0,1","1,0.5,0,1,0.5,0,0.5,0,1","1",""
"","html-keyboard-response","216","370802","0.0-305.0","39U1BHVTDMD8BSDZF4ABB1PN3HC3TV","A2OU40SUJR40CC","3P520RYKCHSO30HY2QJC6BDLS9Z5UE","","null","<img src=""img/food6.png"" style=""width:200px; border:14px solid green;"">","null","","","","","","","","","",""
"","image-keyboard-response","217","371060","0.0-306.0","39U1BHVTDMD8BSDZF4ABB1PN3HC3TV","A2OU40SUJR40CC","3P520RYKCHSO30HY2QJC6BDLS9Z5UE","","256.30000000004657","img/food6.png","74","257.89999999990687","1","1","","1","1","1,0.5,0,1,0.5,0,0.5,0,1","1,0.5,0,1,0.5,0,0.5,0,1","1",""
"","html-keyboard-response","218","371362","0.0-307.0","39U1BHVTDMD8BSDZF4ABB1PN3HC3TV","A2OU40SUJR40CC","3P520RYKCHSO30HY2QJC6BDLS9Z5UE","","null","<img src=""img/food6.png"" style=""width:200px; border:14px solid green;"">","null","","","","","","","","","",""
"","image-keyboard-response","219","371524","0.0-308.0","39U1BHVTDMD8BSDZF4ABB1PN3HC3TV","A2OU40SUJR40CC","3P520RYKCHSO30HY2QJC6BDLS9Z5UE","","160.39999999990687","img/food4.png","74","161.89999999990687","1","0","","3","1","1,0.5,0,1,0.5,0,0.5,0,1","1,0.5,0,1,0.5,0,0.5,0,1","1",""
"","html-keyboard-response","220","371828","0.0-309.0","39U1BHVTDMD8BSDZF4ABB1PN3HC3TV","A2OU40SUJR40CC","3P520RYKCHSO30HY2QJC6BDLS9Z5UE","","null","<img src=""img/food4.png"" style=""width:200px;border:14px solid red;"">","null","","","","","","","","","",""
"","image-keyboard-response","221","372484","0.0-310.0","39U1BHVTDMD8BSDZF4ABB1PN3HC3TV","A2OU40SUJR40CC","3P520RYKCHSO30HY2QJC6BDLS9Z5UE","","654.5","img/food4.png","76","656","3","1","","3","1","1,0.5,0,1,0.5,0,0.5,0,1","1,0.5,0,1,0.5,0,0.5,0,1","1",""
"","html-keyboard-response","222","372787","0.0-311.0","39U1BHVTDMD8BSDZF4ABB1PN3HC3TV","A2OU40SUJR40CC","3P520RYKCHSO30HY2QJC6BDLS9Z5UE","","null","<img src=""img/food4.png"" style=""width:200px; border:14px solid green;"">","null","","","","","","","","","",""
"","image-keyboard-response","223","373076","0.0-312.0","39U1BHVTDMD8BSDZF4ABB1PN3HC3TV","A2OU40SUJR40CC","3P520RYKCHSO30HY2QJC6BDLS9Z5UE","","286.5999999998603","img/food1.png","76","287.89999999990687","3","0","","2","1","1,0.5,0,1,0.5,0,0.5,0,1","1,0.5,0,1,0.5,0,0.5,0,1","1",""
"","html-keyboard-response","224","373388","0.0-313.0","39U1BHVTDMD8BSDZF4ABB1PN3HC3TV","A2OU40SUJR40CC","3P520RYKCHSO30HY2QJC6BDLS9Z5UE","","null","<img src=""img/food1.png"" style=""width:200px;border:14px solid red;"">","null","","","","","","","","","",""
"","image-keyboard-response","225","373748","0.0-314.0","39U1BHVTDMD8BSDZF4ABB1PN3HC3TV","A2OU40SUJR40CC","3P520RYKCHSO30HY2QJC6BDLS9Z5UE","","357.89999999990687","img/food6.png","74","359.39999999990687","1","1","","1","1","1,0.5,0,1,0.5,0,0.5,0,1","1,0.5,0,1,0.5,0,0.5,0,1","1",""
"","html-keyboard-response","226","374051","0.0-315.0","39U1BHVTDMD8BSDZF4ABB1PN3HC3TV","A2OU40SUJR40CC","3P520RYKCHSO30HY2QJC6BDLS9Z5UE","","null","<img src=""img/food6.png"" style=""width:200px; border:14px solid green;"">","null","","","","","","","","","",""
"","image-keyboard-response","227","374388","0.0-316.0","39U1BHVTDMD8BSDZF4ABB1PN3HC3TV","A2OU40SUJR40CC","3P520RYKCHSO30HY2QJC6BDLS9Z5UE","","334.5","img/food1.png","74","335.89999999990687","1","1","","2","1","1,0.5,0,1,0.5,0,0.5,0,1","1,0.5,0,1,0.5,0,0.5,0,1","1",""
"","html-keyboard-response","228","374691","0.0-317.0","39U1BHVTDMD8BSDZF4ABB1PN3HC3TV","A2OU40SUJR40CC","3P520RYKCHSO30HY2QJC6BDLS9Z5UE","","null","<img src=""img/food1.png"" style=""width:200px; border:14px solid green;"">","null","","","","","","","","","",""
"","image-keyboard-response","229","374996","0.0-318.0","39U1BHVTDMD8BSDZF4ABB1PN3HC3TV","A2OU40SUJR40CC","3P520RYKCHSO30HY2QJC6BDLS9Z5UE","","302.60000000009313","img/food4.png","74","304","1","1","","3","1","1,0.5,0,1,0.5,0,0.5,0,1","1,0.5,0,1,0.5,0,0.5,0,1","1",""
"","html-keyboard-response","230","375298","0.0-319.0","39U1BHVTDMD8BSDZF4ABB1PN3HC3TV","A2OU40SUJR40CC","3P520RYKCHSO30HY2QJC6BDLS9Z5UE","","null","<img src=""img/food4.png"" style=""width:200px; border:14px solid green;"">","null","","","","","","","","","",""
"","image-keyboard-response","231","375668","0.0-320.0","39U1BHVTDMD8BSDZF4ABB1PN3HC3TV","A2OU40SUJR40CC","3P520RYKCHSO30HY2QJC6BDLS9Z5UE","","367.60000000009313","img/food4.png","74","369","1","0","","3","1","1,0.5,0,1,0.5,0,0.5,0,1","1,0.5,0,1,0.5,0,0.5,0,1","1",""
"","html-keyboard-response","232","375970","0.0-321.0","39U1BHVTDMD8BSDZF4ABB1PN3HC3TV","A2OU40SUJR40CC","3P520RYKCHSO30HY2QJC6BDLS9Z5UE","","null","<img src=""img/food4.png"" style=""width:200px;border:14px solid red;"">","null","","","","","","","","","",""
"","image-keyboard-response","233","376388","0.0-322.0","39U1BHVTDMD8BSDZF4ABB1PN3HC3TV","A2OU40SUJR40CC","3P520RYKCHSO30HY2QJC6BDLS9Z5UE","","415.69999999995343","img/food4.png","76","417.19999999995343","3","1","","3","1","1,0.5,0,1,0.5,0,0.5,0,1","1,0.5,0,1,0.5,0,0.5,0,1","1",""
"","html-keyboard-response","234","376691","0.0-323.0","39U1BHVTDMD8BSDZF4ABB1PN3HC3TV","A2OU40SUJR40CC","3P520RYKCHSO30HY2QJC6BDLS9Z5UE","","null","<img src=""img/food4.png"" style=""width:200px; border:14px solid green;"">","null","","","","","","","","","",""
"","image-keyboard-response","235","377108","0.0-324.0","39U1BHVTDMD8BSDZF4ABB1PN3HC3TV","A2OU40SUJR40CC","3P520RYKCHSO30HY2QJC6BDLS9Z5UE","","414.69999999995343","img/food6.png","74","416.30000000004657","1","1","","1","1","1,0.5,0,1,0.5,0,0.5,0,1","1,0.5,0,1,0.5,0,0.5,0,1","1",""
"","html-keyboard-response","236","377411","0.0-325.0","39U1BHVTDMD8BSDZF4ABB1PN3HC3TV","A2OU40SUJR40CC","3P520RYKCHSO30HY2QJC6BDLS9Z5UE","","null","<img src=""img/food6.png"" style=""width:200px; border:14px solid green;"">","null","","","","","","","","","",""
"","image-keyboard-response","237","377700","0.0-326.0","39U1BHVTDMD8BSDZF4ABB1PN3HC3TV","A2OU40SUJR40CC","3P520RYKCHSO30HY2QJC6BDLS9Z5UE","","286.79999999981374","img/food6.png","74","288.4000000001397","1","1","","1","1","1,0.5,0,1,0.5,0,0.5,0,1","1,0.5,0,1,0.5,0,0.5,0,1","1",""
"","html-keyboard-response","238","378003","0.0-327.0","39U1BHVTDMD8BSDZF4ABB1PN3HC3TV","A2OU40SUJR40CC","3P520RYKCHSO30HY2QJC6BDLS9Z5UE","","null","<img src=""img/food6.png"" style=""width:200px; border:14px solid green;"">","null","","","","","","","","","",""
"","image-keyboard-response","239","378292","0.0-328.0","39U1BHVTDMD8BSDZF4ABB1PN3HC3TV","A2OU40SUJR40CC","3P520RYKCHSO30HY2QJC6BDLS9Z5UE","","286.80000000004657","img/food4.png","74","288.19999999995343","1","1","","3","1","1,0.5,0,1,0.5,0,0.5,0,1","1,0.5,0,1,0.5,0,0.5,0,1","1",""
"","html-keyboard-response","240","378595","0.0-329.0","39U1BHVTDMD8BSDZF4ABB1PN3HC3TV","A2OU40SUJR40CC","3P520RYKCHSO30HY2QJC6BDLS9Z5UE","","null","<img src=""img/food4.png"" style=""width:200px; border:14px solid green;"">","null","","","","","","","","","",""
"","image-keyboard-response","241","379092","0.0-330.0","39U1BHVTDMD8BSDZF4ABB1PN3HC3TV","A2OU40SUJR40CC","3P520RYKCHSO30HY2QJC6BDLS9Z5UE","","494.89999999990687","img/food1.png","74","496.39999999990687","1","1","","2","1","1,0.5,0,1,0.5,0,0.5,0,1","1,0.5,0,1,0.5,0,0.5,0,1","1",""
"","html-keyboard-response","242","379395","0.0-331.0","39U1BHVTDMD8BSDZF4ABB1PN3HC3TV","A2OU40SUJR40CC","3P520RYKCHSO30HY2QJC6BDLS9Z5UE","","null","<img src=""img/food1.png"" style=""width:200px; border:14px solid green;"">","null","","","","","","","","","",""
"","image-keyboard-response","243","379780","0.0-332.0","39U1BHVTDMD8BSDZF4ABB1PN3HC3TV","A2OU40SUJR40CC","3P520RYKCHSO30HY2QJC6BDLS9Z5UE","","382.89999999990687","img/food6.png","74","384.5","1","1","","1","1","1,0.5,0,1,0.5,0,0.5,0,1","1,0.5,0,1,0.5,0,0.5,0,1","1",""
"","html-keyboard-response","244","380082","0.0-333.0","39U1BHVTDMD8BSDZF4ABB1PN3HC3TV","A2OU40SUJR40CC","3P520RYKCHSO30HY2QJC6BDLS9Z5UE","","null","<img src=""img/food6.png"" style=""width:200px; border:14px solid green;"">","null","","","","","","","","","",""
"","image-keyboard-response","245","380356","0.0-334.0","39U1BHVTDMD8BSDZF4ABB1PN3HC3TV","A2OU40SUJR40CC","3P520RYKCHSO30HY2QJC6BDLS9Z5UE","","271.9000000001397","img/food1.png","74","273.29999999981374","1","1","","2","1","1,0.5,0,1,0.5,0,0.5,0,1","1,0.5,0,1,0.5,0,0.5,0,1","1",""
"","html-keyboard-response","246","380658","0.0-335.0","39U1BHVTDMD8BSDZF4ABB1PN3HC3TV","A2OU40SUJR40CC","3P520RYKCHSO30HY2QJC6BDLS9Z5UE","","null","<img src=""img/food1.png"" style=""width:200px; border:14px solid green;"">","null","","","","","","","","","",""
"","image-keyboard-response","247","380916","0.0-336.0","39U1BHVTDMD8BSDZF4ABB1PN3HC3TV","A2OU40SUJR40CC","3P520RYKCHSO30HY2QJC6BDLS9Z5UE","","256","img/food6.png","74","257.5","1","1","","1","1","1,0.5,0,1,0.5,0,0.5,0,1","1,0.5,0,1,0.5,0,0.5,0,1","1",""
"","html-keyboard-response","248","381218","0.0-337.0","39U1BHVTDMD8BSDZF4ABB1PN3HC3TV","A2OU40SUJR40CC","3P520RYKCHSO30HY2QJC6BDLS9Z5UE","","null","<img src=""img/food6.png"" style=""width:200px; border:14px solid green;"">","null","","","","","","","","","",""
"","image-keyboard-response","249","381492","0.0-338.0","39U1BHVTDMD8BSDZF4ABB1PN3HC3TV","A2OU40SUJR40CC","3P520RYKCHSO30HY2QJC6BDLS9Z5UE","","272.0999999998603","img/food4.png","74","273.60000000009313","1","0","","3","1","1,0.5,0,1,0.5,0,0.5,0,1","1,0.5,0,1,0.5,0,0.5,0,1","1",""
"","html-keyboard-response","250","381795","0.0-339.0","39U1BHVTDMD8BSDZF4ABB1PN3HC3TV","A2OU40SUJR40CC","3P520RYKCHSO30HY2QJC6BDLS9Z5UE","","null","<img src=""img/food4.png"" style=""width:200px;border:14px solid red;"">","null","","","","","","","","","",""
"","image-keyboard-response","251","382292","0.0-340.0","39U1BHVTDMD8BSDZF4ABB1PN3HC3TV","A2OU40SUJR40CC","3P520RYKCHSO30HY2QJC6BDLS9Z5UE","","495.0999999998603","img/food6.png","76","496.5","3","0","","1","1","1,0.5,0,1,0.5,0,0.5,0,1","1,0.5,0,1,0.5,0,0.5,0,1","1",""
"","html-keyboard-response","252","382596","0.0-341.0","39U1BHVTDMD8BSDZF4ABB1PN3HC3TV","A2OU40SUJR40CC","3P520RYKCHSO30HY2QJC6BDLS9Z5UE","","null","<img src=""img/food6.png"" style=""width:200px;border:14px solid red;"">","null","","","","","","","","","",""
"","image-keyboard-response","253","382772","0.0-342.0","39U1BHVTDMD8BSDZF4ABB1PN3HC3TV","A2OU40SUJR40CC","3P520RYKCHSO30HY2QJC6BDLS9Z5UE","","173.89999999990687","img/food6.png","74","175.39999999990687","1","1","","1","1","1,0.5,0,1,0.5,0,0.5,0,1","1,0.5,0,1,0.5,0,0.5,0,1","1",""
"","html-keyboard-response","254","383074","0.0-343.0","39U1BHVTDMD8BSDZF4ABB1PN3HC3TV","A2OU40SUJR40CC","3P520RYKCHSO30HY2QJC6BDLS9Z5UE","","null","<img src=""img/food6.png"" style=""width:200px; border:14px solid green;"">","null","","","","","","","","","",""
"","image-keyboard-response","255","383220","0.0-344.0","39U1BHVTDMD8BSDZF4ABB1PN3HC3TV","A2OU40SUJR40CC","3P520RYKCHSO30HY2QJC6BDLS9Z5UE","","144.0999999998603","img/food6.png","74","145.39999999990687","1","1","","1","1","1,0.5,0,1,0.5,0,0.5,0,1","1,0.5,0,1,0.5,0,0.5,0,1","1",""
"","html-keyboard-response","256","383522","0.0-345.0","39U1BHVTDMD8BSDZF4ABB1PN3HC3TV","A2OU40SUJR40CC","3P520RYKCHSO30HY2QJC6BDLS9Z5UE","","null","<img src=""img/food6.png"" style=""width:200px; border:14px solid green;"">","null","","","","","","","","","",""
"","image-keyboard-response","257","383636","0.0-346.0","39U1BHVTDMD8BSDZF4ABB1PN3HC3TV","A2OU40SUJR40CC","3P520RYKCHSO30HY2QJC6BDLS9Z5UE","","112.19999999995343","img/food6.png","74","113.60000000009313","1","1","","1","1","1,0.5,0,1,0.5,0,0.5,0,1","1,0.5,0,1,0.5,0,0.5,0,1","1",""
"","html-keyboard-response","258","383938","0.0-347.0","39U1BHVTDMD8BSDZF4ABB1PN3HC3TV","A2OU40SUJR40CC","3P520RYKCHSO30HY2QJC6BDLS9Z5UE","","null","<img src=""img/food6.png"" style=""width:200px; border:14px solid green;"">","null","","","","","","","","","",""
"","image-keyboard-response","259","384036","0.0-348.0","39U1BHVTDMD8BSDZF4ABB1PN3HC3TV","A2OU40SUJR40CC","3P520RYKCHSO30HY2QJC6BDLS9Z5UE","","96.30000000004657","img/food6.png","76","97.80000000004657","3","0","","1","1","1,0.5,0,1,0.5,0,0.5,0,1","1,0.5,0,1,0.5,0,0.5,0,1","1",""
"","html-keyboard-response","260","384354","0.0-349.0","39U1BHVTDMD8BSDZF4ABB1PN3HC3TV","A2OU40SUJR40CC","3P520RYKCHSO30HY2QJC6BDLS9Z5UE","","null","<img src=""img/food6.png"" style=""width:200px;border:14px solid red;"">","null","","","","","","","","","",""
"","image-keyboard-response","261","384452","0.0-350.0","39U1BHVTDMD8BSDZF4ABB1PN3HC3TV","A2OU40SUJR40CC","3P520RYKCHSO30HY2QJC6BDLS9Z5UE","","95.5999999998603","img/food1.png","74","97.30000000004657","1","1","","2","1","1,0.5,0,1,0.5,0,0.5,0,1","1,0.5,0,1,0.5,0,0.5,0,1","1",""
"","html-keyboard-response","262","384755","0.0-351.0","39U1BHVTDMD8BSDZF4ABB1PN3HC3TV","A2OU40SUJR40CC","3P520RYKCHSO30HY2QJC6BDLS9Z5UE","","null","<img src=""img/food1.png"" style=""width:200px; border:14px solid green;"">","null","","","","","","","","","",""
"","image-keyboard-response","263","384964","0.0-352.0","39U1BHVTDMD8BSDZF4ABB1PN3HC3TV","A2OU40SUJR40CC","3P520RYKCHSO30HY2QJC6BDLS9Z5UE","","207.19999999995343","img/food4.png","74","208.69999999995343","1","1","","3","1","1,0.5,0,1,0.5,0,0.5,0,1","1,0.5,0,1,0.5,0,0.5,0,1","1",""
"","html-keyboard-response","264","385280","0.0-353.0","39U1BHVTDMD8BSDZF4ABB1PN3HC3TV","A2OU40SUJR40CC","3P520RYKCHSO30HY2QJC6BDLS9Z5UE","","null","<img src=""img/food4.png"" style=""width:200px; border:14px solid green;"">","null","","","","","","","","","",""
"","image-keyboard-response","265","385364","0.0-354.0","39U1BHVTDMD8BSDZF4ABB1PN3HC3TV","A2OU40SUJR40CC","3P520RYKCHSO30HY2QJC6BDLS9Z5UE","","81.39999999990687","img/food4.png","74","82.89999999990687","1","0","","3","1","1,0.5,0,1,0.5,0,0.5,0,1","1,0.5,0,1,0.5,0,0.5,0,1","1",""
"","html-keyboard-response","266","385667","0.0-355.0","39U1BHVTDMD8BSDZF4ABB1PN3HC3TV","A2OU40SUJR40CC","3P520RYKCHSO30HY2QJC6BDLS9Z5UE","","null","<img src=""img/food4.png"" style=""width:200px;border:14px solid red;"">","null","","","","","","","","","",""
"","image-keyboard-response","267","385844","0.0-356.0","39U1BHVTDMD8BSDZF4ABB1PN3HC3TV","A2OU40SUJR40CC","3P520RYKCHSO30HY2QJC6BDLS9Z5UE","","175.29999999981374","img/food1.png","74","176.69999999995343","1","1","","2","1","1,0.5,0,1,0.5,0,0.5,0,1","1,0.5,0,1,0.5,0,0.5,0,1","1",""
"","html-keyboard-response","268","386160","0.0-357.0","39U1BHVTDMD8BSDZF4ABB1PN3HC3TV","A2OU40SUJR40CC","3P520RYKCHSO30HY2QJC6BDLS9Z5UE","","null","<img src=""img/food1.png"" style=""width:200px; border:14px solid green;"">","null","","","","","","","","","",""
"","image-keyboard-response","269","386308","0.0-358.0","39U1BHVTDMD8BSDZF4ABB1PN3HC3TV","A2OU40SUJR40CC","3P520RYKCHSO30HY2QJC6BDLS9Z5UE","","146.29999999981374","img/food4.png","74","147.80000000004657","1","0","","3","1","1,0.5,0,1,0.5,0,0.5,0,1","1,0.5,0,1,0.5,0,0.5,0,1","1",""
"","html-keyboard-response","270","386612","0.0-359.0","39U1BHVTDMD8BSDZF4ABB1PN3HC3TV","A2OU40SUJR40CC","3P520RYKCHSO30HY2QJC6BDLS9Z5UE","","null","<img src=""img/food4.png"" style=""width:200px;border:14px solid red;"">","null","","","","","","","","","",""
"","image-keyboard-response","271","387108","0.0-360.0","39U1BHVTDMD8BSDZF4ABB1PN3HC3TV","A2OU40SUJR40CC","3P520RYKCHSO30HY2QJC6BDLS9Z5UE","","494.39999999990687","img/food1.png","74","495.89999999990687","1","1","","2","1","1,0.5,0,1,0.5,0,0.5,0,1","1,0.5,0,1,0.5,0,0.5,0,1","1",""
"","html-keyboard-response","272","387412","0.0-361.0","39U1BHVTDMD8BSDZF4ABB1PN3HC3TV","A2OU40SUJR40CC","3P520RYKCHSO30HY2QJC6BDLS9Z5UE","","null","<img src=""img/food1.png"" style=""width:200px; border:14px solid green;"">","null","","","","","","","","","",""
"","image-keyboard-response","273","387524","0.0-362.0","39U1BHVTDMD8BSDZF4ABB1PN3HC3TV","A2OU40SUJR40CC","3P520RYKCHSO30HY2QJC6BDLS9Z5UE","","110.29999999981374","img/food6.png","74","111.89999999990687","1","1","","1","1","1,0.5,0,1,0.5,0,0.5,0,1","1,0.5,0,1,0.5,0,0.5,0,1","1",""
"","html-keyboard-response","274","387827","0.0-363.0","39U1BHVTDMD8BSDZF4ABB1PN3HC3TV","A2OU40SUJR40CC","3P520RYKCHSO30HY2QJC6BDLS9Z5UE","","null","<img src=""img/food6.png"" style=""width:200px; border:14px solid green;"">","null","","","","","","","","","",""
"","image-keyboard-response","275","388243","0.0-364.0","39U1BHVTDMD8BSDZF4ABB1PN3HC3TV","A2OU40SUJR40CC","3P520RYKCHSO30HY2QJC6BDLS9Z5UE","","415.20000000018626","img/food4.png","76","416.5","3","1","","3","1","1,0.5,0,1,0.5,0,0.5,0,1","1,0.5,0,1,0.5,0,0.5,0,1","1",""
"","html-keyboard-response","276","388547","0.0-365.0","39U1BHVTDMD8BSDZF4ABB1PN3HC3TV","A2OU40SUJR40CC","3P520RYKCHSO30HY2QJC6BDLS9Z5UE","","null","<img src=""img/food4.png"" style=""width:200px; border:14px solid green;"">","null","","","","","","","","","",""
"","image-keyboard-response","277","388820","0.0-366.0","39U1BHVTDMD8BSDZF4ABB1PN3HC3TV","A2OU40SUJR40CC","3P520RYKCHSO30HY2QJC6BDLS9Z5UE","","271.5","img/food4.png","74","273","1","0","","3","1","1,0.5,0,1,0.5,0,0.5,0,1","1,0.5,0,1,0.5,0,0.5,0,1","1",""
"","html-keyboard-response","278","389123","0.0-367.0","39U1BHVTDMD8BSDZF4ABB1PN3HC3TV","A2OU40SUJR40CC","3P520RYKCHSO30HY2QJC6BDLS9Z5UE","","null","<img src=""img/food4.png"" style=""width:200px;border:14px solid red;"">","null","","","","","","","","","",""
"","image-keyboard-response","279","389427","0.0-368.0","39U1BHVTDMD8BSDZF4ABB1PN3HC3TV","A2OU40SUJR40CC","3P520RYKCHSO30HY2QJC6BDLS9Z5UE","","302.30000000004657","img/food1.png","76","303.5","3","0","","2","1","1,0.5,0,1,0.5,0,0.5,0,1","1,0.5,0,1,0.5,0,0.5,0,1","1",""
"","html-keyboard-response","280","389730","0.0-369.0","39U1BHVTDMD8BSDZF4ABB1PN3HC3TV","A2OU40SUJR40CC","3P520RYKCHSO30HY2QJC6BDLS9Z5UE","","null","<img src=""img/food1.png"" style=""width:200px;border:14px solid red;"">","null","","","","","","","","","",""
"","image-keyboard-response","281","389971","0.0-370.0","39U1BHVTDMD8BSDZF4ABB1PN3HC3TV","A2OU40SUJR40CC","3P520RYKCHSO30HY2QJC6BDLS9Z5UE","","239.60000000009313","img/food1.png","74","240.70000000018626","1","1","","2","1","1,0.5,0,1,0.5,0,0.5,0,1","1,0.5,0,1,0.5,0,0.5,0,1","1",""
"","html-keyboard-response","282","390274","0.0-371.0","39U1BHVTDMD8BSDZF4ABB1PN3HC3TV","A2OU40SUJR40CC","3P520RYKCHSO30HY2QJC6BDLS9Z5UE","","null","<img src=""img/food1.png"" style=""width:200px; border:14px solid green;"">","null","","","","","","","","","",""
"","image-keyboard-response","283","390467","0.0-372.0","39U1BHVTDMD8BSDZF4ABB1PN3HC3TV","A2OU40SUJR40CC","3P520RYKCHSO30HY2QJC6BDLS9Z5UE","","191.70000000018626","img/food1.png","74","192.80000000004657","1","1","","2","1","1,0.5,0,1,0.5,0,0.5,0,1","1,0.5,0,1,0.5,0,0.5,0,1","1",""
"","html-keyboard-response","284","390771","0.0-373.0","39U1BHVTDMD8BSDZF4ABB1PN3HC3TV","A2OU40SUJR40CC","3P520RYKCHSO30HY2QJC6BDLS9Z5UE","","null","<img src=""img/food1.png"" style=""width:200px; border:14px solid green;"">","null","","","","","","","","","",""
"","image-keyboard-response","285","390932","0.0-374.0","39U1BHVTDMD8BSDZF4ABB1PN3HC3TV","A2OU40SUJR40CC","3P520RYKCHSO30HY2QJC6BDLS9Z5UE","","159.60000000009313","img/food4.png","74","160.69999999995343","1","0","","3","1","1,0.5,0,1,0.5,0,0.5,0,1","1,0.5,0,1,0.5,0,0.5,0,1","1",""
"","html-keyboard-response","286","391235","0.0-375.0","39U1BHVTDMD8BSDZF4ABB1PN3HC3TV","A2OU40SUJR40CC","3P520RYKCHSO30HY2QJC6BDLS9Z5UE","","null","<img src=""img/food4.png"" style=""width:200px;border:14px solid red;"">","null","","","","","","","","","",""
"","image-keyboard-response","287","391619","0.0-376.0","39U1BHVTDMD8BSDZF4ABB1PN3HC3TV","A2OU40SUJR40CC","3P520RYKCHSO30HY2QJC6BDLS9Z5UE","","383.4000000001397","img/food6.png","74","384.69999999995343","1","1","","1","1","1,0.5,0,1,0.5,0,0.5,0,1","1,0.5,0,1,0.5,0,0.5,0,1","1",""
"","html-keyboard-response","288","391921","0.0-377.0","39U1BHVTDMD8BSDZF4ABB1PN3HC3TV","A2OU40SUJR40CC","3P520RYKCHSO30HY2QJC6BDLS9Z5UE","","null","<img src=""img/food6.png"" style=""width:200px; border:14px solid green;"">","null","","","","","","","","","",""
"","image-keyboard-response","289","392340","0.0-378.0","39U1BHVTDMD8BSDZF4ABB1PN3HC3TV","A2OU40SUJR40CC","3P520RYKCHSO30HY2QJC6BDLS9Z5UE","","416.39999999990687","img/food6.png","74","417.89999999990687","1","1","","1","1","1,0.5,0,1,0.5,0,0.5,0,1","1,0.5,0,1,0.5,0,0.5,0,1","1",""
"","html-keyboard-response","290","392641","0.0-379.0","39U1BHVTDMD8BSDZF4ABB1PN3HC3TV","A2OU40SUJR40CC","3P520RYKCHSO30HY2QJC6BDLS9Z5UE","","null","<img src=""img/food6.png"" style=""width:200px; border:14px solid green;"">","null","","","","","","","","","",""
"","image-keyboard-response","291","393059","0.0-380.0","39U1BHVTDMD8BSDZF4ABB1PN3HC3TV","A2OU40SUJR40CC","3P520RYKCHSO30HY2QJC6BDLS9Z5UE","","416.69999999995343","img/food6.png","74","417.9000000001397","1","1","","1","1","1,0.5,0,1,0.5,0,0.5,0,1","1,0.5,0,1,0.5,0,0.5,0,1","1",""
"","html-keyboard-response","292","393362","0.0-381.0","39U1BHVTDMD8BSDZF4ABB1PN3HC3TV","A2OU40SUJR40CC","3P520RYKCHSO30HY2QJC6BDLS9Z5UE","","null","<img src=""img/food6.png"" style=""width:200px; border:14px solid green;"">","null","","","","","","","","","",""
"","image-keyboard-response","293","393683","0.0-382.0","39U1BHVTDMD8BSDZF4ABB1PN3HC3TV","A2OU40SUJR40CC","3P520RYKCHSO30HY2QJC6BDLS9Z5UE","","319.30000000004657","img/food6.png","74","320.69999999995343","1","1","","1","1","1,0.5,0,1,0.5,0,0.5,0,1","1,0.5,0,1,0.5,0,0.5,0,1","1",""
"","html-keyboard-response","294","393986","0.0-383.0","39U1BHVTDMD8BSDZF4ABB1PN3HC3TV","A2OU40SUJR40CC","3P520RYKCHSO30HY2QJC6BDLS9Z5UE","","null","<img src=""img/food6.png"" style=""width:200px; border:14px solid green;"">","null","","","","","","","","","",""
"","image-keyboard-response","295","394388","0.0-384.0","39U1BHVTDMD8BSDZF4ABB1PN3HC3TV","A2OU40SUJR40CC","3P520RYKCHSO30HY2QJC6BDLS9Z5UE","","400","img/food4.png","76","401.0999999998603","3","1","","3","1","1,0.5,0,1,0.5,0,0.5,0,1","1,0.5,0,1,0.5,0,0.5,0,1","1",""
"","html-keyboard-response","296","394703","0.0-385.0","39U1BHVTDMD8BSDZF4ABB1PN3HC3TV","A2OU40SUJR40CC","3P520RYKCHSO30HY2QJC6BDLS9Z5UE","","null","<img src=""img/food4.png"" style=""width:200px; border:14px solid green;"">","null","","","","","","","","","",""
"","image-keyboard-response","297","395059","0.0-386.0","39U1BHVTDMD8BSDZF4ABB1PN3HC3TV","A2OU40SUJR40CC","3P520RYKCHSO30HY2QJC6BDLS9Z5UE","","354.70000000018626","img/food6.png","74","356","1","1","","1","1","1,0.5,0,1,0.5,0,0.5,0,1","1,0.5,0,1,0.5,0,0.5,0,1","1",""
"","html-keyboard-response","298","395361","0.0-387.0","39U1BHVTDMD8BSDZF4ABB1PN3HC3TV","A2OU40SUJR40CC","3P520RYKCHSO30HY2QJC6BDLS9Z5UE","","null","<img src=""img/food6.png"" style=""width:200px; border:14px solid green;"">","null","","","","","","","","","",""
"","image-keyboard-response","299","395715","0.0-388.0","39U1BHVTDMD8BSDZF4ABB1PN3HC3TV","A2OU40SUJR40CC","3P520RYKCHSO30HY2QJC6BDLS9Z5UE","","352.70000000018626","img/food6.png","74","353.9000000001397","1","1","","1","1","1,0.5,0,1,0.5,0,0.5,0,1","1,0.5,0,1,0.5,0,0.5,0,1","1",""
"","html-keyboard-response","300","396018","0.0-389.0","39U1BHVTDMD8BSDZF4ABB1PN3HC3TV","A2OU40SUJR40CC","3P520RYKCHSO30HY2QJC6BDLS9Z5UE","","null","<img src=""img/food6.png"" style=""width:200px; border:14px solid green;"">","null","","","","","","","","","",""
"","image-keyboard-response","301","396228","0.0-390.0","39U1BHVTDMD8BSDZF4ABB1PN3HC3TV","A2OU40SUJR40CC","3P520RYKCHSO30HY2QJC6BDLS9Z5UE","","207.89999999990687","img/food6.png","74","209","1","1","","1","1","1,0.5,0,1,0.5,0,0.5,0,1","1,0.5,0,1,0.5,0,0.5,0,1","1",""
"","html-keyboard-response","302","396530","0.0-391.0","39U1BHVTDMD8BSDZF4ABB1PN3HC3TV","A2OU40SUJR40CC","3P520RYKCHSO30HY2QJC6BDLS9Z5UE","","null","<img src=""img/food6.png"" style=""width:200px; border:14px solid green;"">","null","","","","","","","","","",""
"","image-keyboard-response","303","397011","0.0-392.0","39U1BHVTDMD8BSDZF4ABB1PN3HC3TV","A2OU40SUJR40CC","3P520RYKCHSO30HY2QJC6BDLS9Z5UE","","479.10000000009313","img/food4.png","76","480.29999999981374","3","1","","3","1","1,0.5,0,1,0.5,0,0.5,0,1","1,0.5,0,1,0.5,0,0.5,0,1","1",""
"","html-keyboard-response","304","397313","0.0-393.0","39U1BHVTDMD8BSDZF4ABB1PN3HC3TV","A2OU40SUJR40CC","3P520RYKCHSO30HY2QJC6BDLS9Z5UE","","null","<img src=""img/food4.png"" style=""width:200px; border:14px solid green;"">","null","","","","","","","","","",""
"","image-keyboard-response","305","397524","0.0-394.0","39U1BHVTDMD8BSDZF4ABB1PN3HC3TV","A2OU40SUJR40CC","3P520RYKCHSO30HY2QJC6BDLS9Z5UE","","208.19999999995343","img/food4.png","74","210.19999999995343","1","0","","3","1","1,0.5,0,1,0.5,0,0.5,0,1","1,0.5,0,1,0.5,0,0.5,0,1","1",""
"","html-keyboard-response","306","397828","0.0-395.0","39U1BHVTDMD8BSDZF4ABB1PN3HC3TV","A2OU40SUJR40CC","3P520RYKCHSO30HY2QJC6BDLS9Z5UE","","null","<img src=""img/food4.png"" style=""width:200px;border:14px solid red;"">","null","","","","","","","","","",""
"","image-keyboard-response","307","398276","0.0-396.0","39U1BHVTDMD8BSDZF4ABB1PN3HC3TV","A2OU40SUJR40CC","3P520RYKCHSO30HY2QJC6BDLS9Z5UE","","446.0999999998603","img/food4.png","74","447.9000000001397","1","0","","3","1","1,0.5,0,1,0.5,0,0.5,0,1","1,0.5,0,1,0.5,0,0.5,0,1","1",""
"","html-keyboard-response","308","398593","0.0-397.0","39U1BHVTDMD8BSDZF4ABB1PN3HC3TV","A2OU40SUJR40CC","3P520RYKCHSO30HY2QJC6BDLS9Z5UE","","null","<img src=""img/food4.png"" style=""width:200px;border:14px solid red;"">","null","","","","","","","","","",""
"","image-keyboard-response","309","398836","0.0-398.0","39U1BHVTDMD8BSDZF4ABB1PN3HC3TV","A2OU40SUJR40CC","3P520RYKCHSO30HY2QJC6BDLS9Z5UE","","240.5","img/food1.png","76","242.10000000009313","3","0","","2","1","1,0.5,0,1,0.5,0,0.5,0,1","1,0.5,0,1,0.5,0,0.5,0,1","1",""
"","html-keyboard-response","310","399139","0.0-399.0","39U1BHVTDMD8BSDZF4ABB1PN3HC3TV","A2OU40SUJR40CC","3P520RYKCHSO30HY2QJC6BDLS9Z5UE","","null","<img src=""img/food1.png"" style=""width:200px;border:14px solid red;"">","null","","","","","","","","","",""
"","image-keyboard-response","311","399396","0.0-400.0","39U1BHVTDMD8BSDZF4ABB1PN3HC3TV","A2OU40SUJR40CC","3P520RYKCHSO30HY2QJC6BDLS9Z5UE","","254.89999999990687","img/food4.png","74","256.4000000001397","1","1","","3","1","1,0.5,0,1,0.5,0,0.5,0,1","1,0.5,0,1,0.5,0,0.5,0,1","1",""
"","html-keyboard-response","312","399699","0.0-401.0","39U1BHVTDMD8BSDZF4ABB1PN3HC3TV","A2OU40SUJR40CC","3P520RYKCHSO30HY2QJC6BDLS9Z5UE","","null","<img src=""img/food4.png"" style=""width:200px; border:14px solid green;"">","null","","","","","","","","","",""
"","image-keyboard-response","313","400356","0.0-402.0","39U1BHVTDMD8BSDZF4ABB1PN3HC3TV","A2OU40SUJR40CC","3P520RYKCHSO30HY2QJC6BDLS9Z5UE","","654.6999999999534","img/food1.png","74","656.1999999999534","1","1","","2","1","1,0.5,0,1,0.5,0,0.5,0,1","1,0.5,0,1,0.5,0,0.5,0,1","1",""
"","html-keyboard-response","314","400659","0.0-403.0","39U1BHVTDMD8BSDZF4ABB1PN3HC3TV","A2OU40SUJR40CC","3P520RYKCHSO30HY2QJC6BDLS9Z5UE","","null","<img src=""img/food1.png"" style=""width:200px; border:14px solid green;"">","null","","","","","","","","","",""
"","image-keyboard-response","315","401284","0.0-404.0","39U1BHVTDMD8BSDZF4ABB1PN3HC3TV","A2OU40SUJR40CC","3P520RYKCHSO30HY2QJC6BDLS9Z5UE","","622.8999999999069","img/food4.png","76","624.3999999999069","3","1","","3","1","1,0.5,0,1,0.5,0,0.5,0,1","1,0.5,0,1,0.5,0,0.5,0,1","1",""
"","html-keyboard-response","316","401587","0.0-405.0","39U1BHVTDMD8BSDZF4ABB1PN3HC3TV","A2OU40SUJR40CC","3P520RYKCHSO30HY2QJC6BDLS9Z5UE","","null","<img src=""img/food4.png"" style=""width:200px; border:14px solid green;"">","null","","","","","","","","","",""
"","image-keyboard-response","317","401828","0.0-406.0","39U1BHVTDMD8BSDZF4ABB1PN3HC3TV","A2OU40SUJR40CC","3P520RYKCHSO30HY2QJC6BDLS9Z5UE","","239.0999999998603","img/food6.png","74","240.39999999990687","1","1","","1","1","1,0.5,0,1,0.5,0,0.5,0,1","1,0.5,0,1,0.5,0,0.5,0,1","1",""
"","html-keyboard-response","318","402131","0.0-407.0","39U1BHVTDMD8BSDZF4ABB1PN3HC3TV","A2OU40SUJR40CC","3P520RYKCHSO30HY2QJC6BDLS9Z5UE","","null","<img src=""img/food6.png"" style=""width:200px; border:14px solid green;"">","null","","","","","","","","","",""
"","image-keyboard-response","319","402404","0.0-408.0","39U1BHVTDMD8BSDZF4ABB1PN3HC3TV","A2OU40SUJR40CC","3P520RYKCHSO30HY2QJC6BDLS9Z5UE","","270.69999999995343","img/food4.png","74","272.30000000004657","1","1","","3","1","1,0.5,0,1,0.5,0,0.5,0,1","1,0.5,0,1,0.5,0,0.5,0,1","1",""
"","html-keyboard-response","320","402706","0.0-409.0","39U1BHVTDMD8BSDZF4ABB1PN3HC3TV","A2OU40SUJR40CC","3P520RYKCHSO30HY2QJC6BDLS9Z5UE","","null","<img src=""img/food4.png"" style=""width:200px; border:14px solid green;"">","null","","","","","","","","","",""
"","image-keyboard-response","321","403220","0.0-410.0","39U1BHVTDMD8BSDZF4ABB1PN3HC3TV","A2OU40SUJR40CC","3P520RYKCHSO30HY2QJC6BDLS9Z5UE","","512","img/food1.png","74","513.5","1","1","","2","1","1,0.5,0,1,0.5,0,0.5,0,1","1,0.5,0,1,0.5,0,0.5,0,1","1",""
"","html-keyboard-response","322","403522","0.0-411.0","39U1BHVTDMD8BSDZF4ABB1PN3HC3TV","A2OU40SUJR40CC","3P520RYKCHSO30HY2QJC6BDLS9Z5UE","","null","<img src=""img/food1.png"" style=""width:200px; border:14px solid green;"">","null","","","","","","","","","",""
"","image-keyboard-response","323","404084","0.0-412.0","39U1BHVTDMD8BSDZF4ABB1PN3HC3TV","A2OU40SUJR40CC","3P520RYKCHSO30HY2QJC6BDLS9Z5UE","","560","img/food6.png","74","561.6000000000931","1","1","","1","1","1,0.5,0,1,0.5,0,0.5,0,1","1,0.5,0,1,0.5,0,0.5,0,1","1",""
"","html-keyboard-response","324","404386","0.0-413.0","39U1BHVTDMD8BSDZF4ABB1PN3HC3TV","A2OU40SUJR40CC","3P520RYKCHSO30HY2QJC6BDLS9Z5UE","","null","<img src=""img/food6.png"" style=""width:200px; border:14px solid green;"">","null","","","","","","","","","",""
"","image-keyboard-response","325","404852","0.0-414.0","39U1BHVTDMD8BSDZF4ABB1PN3HC3TV","A2OU40SUJR40CC","3P520RYKCHSO30HY2QJC6BDLS9Z5UE","","464.5","img/food1.png","74","466","1","1","","2","1","1,0.5,0,1,0.5,0,0.5,0,1","1,0.5,0,1,0.5,0,0.5,0,1","1",""
"","html-keyboard-response","326","405156","0.0-415.0","39U1BHVTDMD8BSDZF4ABB1PN3HC3TV","A2OU40SUJR40CC","3P520RYKCHSO30HY2QJC6BDLS9Z5UE","","null","<img src=""img/food1.png"" style=""width:200px; border:14px solid green;"">","null","","","","","","","","","",""
"","image-keyboard-response","327","405668","0.0-416.0","39U1BHVTDMD8BSDZF4ABB1PN3HC3TV","A2OU40SUJR40CC","3P520RYKCHSO30HY2QJC6BDLS9Z5UE","","510.19999999995343","img/food1.png","74","511.80000000004657","1","1","","2","1","1,0.5,0,1,0.5,0,0.5,0,1","1,0.5,0,1,0.5,0,0.5,0,1","1",""
"","html-keyboard-response","328","405971","0.0-417.0","39U1BHVTDMD8BSDZF4ABB1PN3HC3TV","A2OU40SUJR40CC","3P520RYKCHSO30HY2QJC6BDLS9Z5UE","","null","<img src=""img/food1.png"" style=""width:200px; border:14px solid green;"">","null","","","","","","","","","",""
"","image-keyboard-response","329","406468","0.0-418.0","39U1BHVTDMD8BSDZF4ABB1PN3HC3TV","A2OU40SUJR40CC","3P520RYKCHSO30HY2QJC6BDLS9Z5UE","","495.29999999981374","img/food4.png","76","496.69999999995343","3","1","","3","1","1,0.5,0,1,0.5,0,0.5,0,1","1,0.5,0,1,0.5,0,0.5,0,1","1",""
"","html-keyboard-response","330","406770","0.0-419.0","39U1BHVTDMD8BSDZF4ABB1PN3HC3TV","A2OU40SUJR40CC","3P520RYKCHSO30HY2QJC6BDLS9Z5UE","","null","<img src=""img/food4.png"" style=""width:200px; border:14px solid green;"">","null","","","","","","","","","",""
"","image-keyboard-response","331","407508","0.0-420.0","39U1BHVTDMD8BSDZF4ABB1PN3HC3TV","A2OU40SUJR40CC","3P520RYKCHSO30HY2QJC6BDLS9Z5UE","","735.1000000000931","img/food1.png","74","736.5","1","1","","2","1","1,0.5,0,1,0.5,0,0.5,0,1","1,0.5,0,1,0.5,0,0.5,0,1","1",""
"","html-keyboard-response","332","407812","0.0-421.0","39U1BHVTDMD8BSDZF4ABB1PN3HC3TV","A2OU40SUJR40CC","3P520RYKCHSO30HY2QJC6BDLS9Z5UE","","null","<img src=""img/food1.png"" style=""width:200px; border:14px solid green;"">","null","","","","","","","","","",""
"","image-keyboard-response","333","408052","0.0-422.0","39U1BHVTDMD8BSDZF4ABB1PN3HC3TV","A2OU40SUJR40CC","3P520RYKCHSO30HY2QJC6BDLS9Z5UE","","238.39999999990687","img/food1.png","74","239.69999999995343","1","1","","2","1","1,0.5,0,1,0.5,0,0.5,0,1","1,0.5,0,1,0.5,0,0.5,0,1","1",""
"","html-keyboard-response","334","408355","0.0-423.0","39U1BHVTDMD8BSDZF4ABB1PN3HC3TV","A2OU40SUJR40CC","3P520RYKCHSO30HY2QJC6BDLS9Z5UE","","null","<img src=""img/food1.png"" style=""width:200px; border:14px solid green;"">","null","","","","","","","","","",""
"","image-keyboard-response","335","408852","0.0-424.0","39U1BHVTDMD8BSDZF4ABB1PN3HC3TV","A2OU40SUJR40CC","3P520RYKCHSO30HY2QJC6BDLS9Z5UE","","495.29999999981374","img/food6.png","76","496.80000000004657","3","0","","1","1","1,0.5,0,1,0.5,0,0.5,0,1","1,0.5,0,1,0.5,0,0.5,0,1","1",""
"","html-keyboard-response","336","409156","0.0-425.0","39U1BHVTDMD8BSDZF4ABB1PN3HC3TV","A2OU40SUJR40CC","3P520RYKCHSO30HY2QJC6BDLS9Z5UE","","null","<img src=""img/food6.png"" style=""width:200px;border:14px solid red;"">","null","","","","","","","","","",""
"","image-keyboard-response","337","409396","0.0-426.0","39U1BHVTDMD8BSDZF4ABB1PN3HC3TV","A2OU40SUJR40CC","3P520RYKCHSO30HY2QJC6BDLS9Z5UE","","238.5","img/food6.png","74","240","1","1","","1","1","1,0.5,0,1,0.5,0,0.5,0,1","1,0.5,0,1,0.5,0,0.5,0,1","1",""
"","html-keyboard-response","338","409700","0.0-427.0","39U1BHVTDMD8BSDZF4ABB1PN3HC3TV","A2OU40SUJR40CC","3P520RYKCHSO30HY2QJC6BDLS9Z5UE","","null","<img src=""img/food6.png"" style=""width:200px; border:14px solid green;"">","null","","","","","","","","","",""
"","image-keyboard-response","339","409924","0.0-428.0","39U1BHVTDMD8BSDZF4ABB1PN3HC3TV","A2OU40SUJR40CC","3P520RYKCHSO30HY2QJC6BDLS9Z5UE","","222.5","img/food6.png","74","224","1","1","","1","1","1,0.5,0,1,0.5,0,0.5,0,1","1,0.5,0,1,0.5,0,0.5,0,1","1",""
"","html-keyboard-response","340","410228","0.0-429.0","39U1BHVTDMD8BSDZF4ABB1PN3HC3TV","A2OU40SUJR40CC","3P520RYKCHSO30HY2QJC6BDLS9Z5UE","","null","<img src=""img/food6.png"" style=""width:200px; border:14px solid green;"">","null","","","","","","","","","",""
"","image-keyboard-response","341","410564","0.0-430.0","39U1BHVTDMD8BSDZF4ABB1PN3HC3TV","A2OU40SUJR40CC","3P520RYKCHSO30HY2QJC6BDLS9Z5UE","","334.5","img/food6.png","74","335.89999999990687","1","1","","1","1","1,0.5,0,1,0.5,0,0.5,0,1","1,0.5,0,1,0.5,0,0.5,0,1","1",""
"","html-keyboard-response","342","410867","0.0-431.0","39U1BHVTDMD8BSDZF4ABB1PN3HC3TV","A2OU40SUJR40CC","3P520RYKCHSO30HY2QJC6BDLS9Z5UE","","null","<img src=""img/food6.png"" style=""width:200px; border:14px solid green;"">","null","","","","","","","","","",""
"","image-keyboard-response","343","411524","0.0-432.0","39U1BHVTDMD8BSDZF4ABB1PN3HC3TV","A2OU40SUJR40CC","3P520RYKCHSO30HY2QJC6BDLS9Z5UE","","654.6000000000931","img/food1.png","76","656.1999999999534","3","0","","2","1","1,0.5,0,1,0.5,0,0.5,0,1","1,0.5,0,1,0.5,0,0.5,0,1","1",""
"","html-keyboard-response","344","411827","0.0-433.0","39U1BHVTDMD8BSDZF4ABB1PN3HC3TV","A2OU40SUJR40CC","3P520RYKCHSO30HY2QJC6BDLS9Z5UE","","null","<img src=""img/food1.png"" style=""width:200px;border:14px solid red;"">","null","","","","","","","","","",""
"","image-keyboard-response","345","411956","0.0-434.0","39U1BHVTDMD8BSDZF4ABB1PN3HC3TV","A2OU40SUJR40CC","3P520RYKCHSO30HY2QJC6BDLS9Z5UE","","126.5","img/food4.png","74","128","1","1","","3","1","1,0.5,0,1,0.5,0,0.5,0,1","1,0.5,0,1,0.5,0,0.5,0,1","1",""
"","html-keyboard-response","346","412258","0.0-435.0","39U1BHVTDMD8BSDZF4ABB1PN3HC3TV","A2OU40SUJR40CC","3P520RYKCHSO30HY2QJC6BDLS9Z5UE","","null","<img src=""img/food4.png"" style=""width:200px; border:14px solid green;"">","null","","","","","","","","","",""
"","image-keyboard-response","347","412628","0.0-436.0","39U1BHVTDMD8BSDZF4ABB1PN3HC3TV","A2OU40SUJR40CC","3P520RYKCHSO30HY2QJC6BDLS9Z5UE","","367.5","img/food1.png","74","369.10000000009313","1","1","","2","1","1,0.5,0,1,0.5,0,0.5,0,1","1,0.5,0,1,0.5,0,0.5,0,1","1",""
"","html-keyboard-response","348","412931","0.0-437.0","39U1BHVTDMD8BSDZF4ABB1PN3HC3TV","A2OU40SUJR40CC","3P520RYKCHSO30HY2QJC6BDLS9Z5UE","","null","<img src=""img/food1.png"" style=""width:200px; border:14px solid green;"">","null","","","","","","","","","",""
"","image-keyboard-response","349","413188","0.0-438.0","39U1BHVTDMD8BSDZF4ABB1PN3HC3TV","A2OU40SUJR40CC","3P520RYKCHSO30HY2QJC6BDLS9Z5UE","","254.69999999995343","img/food1.png","74","256.20000000018626","1","1","","2","1","1,0.5,0,1,0.5,0,0.5,0,1","1,0.5,0,1,0.5,0,0.5,0,1","1",""
"","html-keyboard-response","350","413491","0.0-439.0","39U1BHVTDMD8BSDZF4ABB1PN3HC3TV","A2OU40SUJR40CC","3P520RYKCHSO30HY2QJC6BDLS9Z5UE","","null","<img src=""img/food1.png"" style=""width:200px; border:14px solid green;"">","null","","","","","","","","","",""
"","image-keyboard-response","351","413764","0.0-440.0","39U1BHVTDMD8BSDZF4ABB1PN3HC3TV","A2OU40SUJR40CC","3P520RYKCHSO30HY2QJC6BDLS9Z5UE","","270.69999999995343","img/food1.png","74","272.20000000018626","1","1","","2","1","1,0.5,0,1,0.5,0,0.5,0,1","1,0.5,0,1,0.5,0,0.5,0,1","1",""
"","html-keyboard-response","352","414067","0.0-441.0","39U1BHVTDMD8BSDZF4ABB1PN3HC3TV","A2OU40SUJR40CC","3P520RYKCHSO30HY2QJC6BDLS9Z5UE","","null","<img src=""img/food1.png"" style=""width:200px; border:14px solid green;"">","null","","","","","","","","","",""
"","image-keyboard-response","353","414580","0.0-442.0","39U1BHVTDMD8BSDZF4ABB1PN3HC3TV","A2OU40SUJR40CC","3P520RYKCHSO30HY2QJC6BDLS9Z5UE","","510.79999999981374","img/food4.png","76","512.0999999998603","3","1","","3","1","1,0.5,0,1,0.5,0,0.5,0,1","1,0.5,0,1,0.5,0,0.5,0,1","1",""
"","html-keyboard-response","354","414883","0.0-443.0","39U1BHVTDMD8BSDZF4ABB1PN3HC3TV","A2OU40SUJR40CC","3P520RYKCHSO30HY2QJC6BDLS9Z5UE","","null","<img src=""img/food4.png"" style=""width:200px; border:14px solid green;"">","null","","","","","","","","","",""
"","image-keyboard-response","355","415076","0.0-444.0","39U1BHVTDMD8BSDZF4ABB1PN3HC3TV","A2OU40SUJR40CC","3P520RYKCHSO30HY2QJC6BDLS9Z5UE","","191","img/food1.png","74","192.5999999998603","1","1","","2","1","1,0.5,0,1,0.5,0,0.5,0,1","1,0.5,0,1,0.5,0,0.5,0,1","1",""
"","html-keyboard-response","356","415379","0.0-445.0","39U1BHVTDMD8BSDZF4ABB1PN3HC3TV","A2OU40SUJR40CC","3P520RYKCHSO30HY2QJC6BDLS9Z5UE","","null","<img src=""img/food1.png"" style=""width:200px; border:14px solid green;"">","null","","","","","","","","","",""
"","image-keyboard-response","357","415556","0.0-446.0","39U1BHVTDMD8BSDZF4ABB1PN3HC3TV","A2OU40SUJR40CC","3P520RYKCHSO30HY2QJC6BDLS9Z5UE","","174.89999999990687","img/food4.png","74","176.30000000004657","1","1","","3","1","1,0.5,0,1,0.5,0,0.5,0,1","1,0.5,0,1,0.5,0,0.5,0,1","1",""
"","html-keyboard-response","358","415868","0.0-447.0","39U1BHVTDMD8BSDZF4ABB1PN3HC3TV","A2OU40SUJR40CC","3P520RYKCHSO30HY2QJC6BDLS9Z5UE","","null","<img src=""img/food4.png"" style=""width:200px; border:14px solid green;"">","null","","","","","","","","","",""
"","image-keyboard-response","359","416308","0.0-448.0","39U1BHVTDMD8BSDZF4ABB1PN3HC3TV","A2OU40SUJR40CC","3P520RYKCHSO30HY2QJC6BDLS9Z5UE","","437.69999999995343","img/food1.png","74","439.10000000009313","1","1","","2","1","1,0.5,0,1,0.5,0,0.5,0,1","1,0.5,0,1,0.5,0,0.5,0,1","1",""
"","html-keyboard-response","360","416619","0.0-449.0","39U1BHVTDMD8BSDZF4ABB1PN3HC3TV","A2OU40SUJR40CC","3P520RYKCHSO30HY2QJC6BDLS9Z5UE","","null","<img src=""img/food1.png"" style=""width:200px; border:14px solid green;"">","null","","","","","","","","","",""
"","image-keyboard-response","361","416820","0.0-450.0","39U1BHVTDMD8BSDZF4ABB1PN3HC3TV","A2OU40SUJR40CC","3P520RYKCHSO30HY2QJC6BDLS9Z5UE","","198.89999999990687","img/food4.png","74","200.4000000001397","1","0","","3","1","1,0.5,0,1,0.5,0,0.5,0,1","1,0.5,0,1,0.5,0,0.5,0,1","1",""
"","html-keyboard-response","362","417122","0.0-451.0","39U1BHVTDMD8BSDZF4ABB1PN3HC3TV","A2OU40SUJR40CC","3P520RYKCHSO30HY2QJC6BDLS9Z5UE","","null","<img src=""img/food4.png"" style=""width:200px;border:14px solid red;"">","null","","","","","","","","","",""
"","image-keyboard-response","363","417716","0.0-452.0","39U1BHVTDMD8BSDZF4ABB1PN3HC3TV","A2OU40SUJR40CC","3P520RYKCHSO30HY2QJC6BDLS9Z5UE","","591.8999999999069","img/food1.png","74","593.5","1","1","","2","1","1,0.5,0,1,0.5,0,0.5,0,1","1,0.5,0,1,0.5,0,0.5,0,1","1",""
"","html-keyboard-response","364","418019","0.0-453.0","39U1BHVTDMD8BSDZF4ABB1PN3HC3TV","A2OU40SUJR40CC","3P520RYKCHSO30HY2QJC6BDLS9Z5UE","","null","<img src=""img/food1.png"" style=""width:200px; border:14px solid green;"">","null","","","","","","","","","",""
"","html-keyboard-response","365","420920","0.0-454.0","39U1BHVTDMD8BSDZF4ABB1PN3HC3TV","A2OU40SUJR40CC","3P520RYKCHSO30HY2QJC6BDLS9Z5UE","","","","","","","","","","","","","",""
"","instructions","366","425344","0.0-455.0","39U1BHVTDMD8BSDZF4ABB1PN3HC3TV","A2OU40SUJR40CC","3P520RYKCHSO30HY2QJC6BDLS9Z5UE","[{""page_index"":0,""viewing_time"":4422.800000000047}]","4423.199999999953","","","","","","","","","","","",""
"","survey-text","367","430769","0.0-456.0","39U1BHVTDMD8BSDZF4ABB1PN3HC3TV","A2OU40SUJR40CC","3P520RYKCHSO30HY2QJC6BDLS9Z5UE","","5419.40000000014","","","","","","","","","","","","{""Q0"":""A2OU40SUJR40CC""}"
