"success","trial_type","trial_index","time_elapsed","internal_node_id","assignmentID","mturkID","hitID","view_history","rt","stimulus","key_press","reactionTime","a","r","warning","s","cond","reward_cond","reward_cond_actual","reward_matrix_idx","responses"
"true","fullscreen","0","4821","0.0-0.0","3CFVK00FWM7JPYSCPX6IWDRQJUBL6X","A2OWFJJ8YEKBF1","3I7KR83SNAZT1REYB2SRC49PCEEK9H","","","","","","","","","","","","","",""
"","instructions","1","56501","0.0-1.0","3CFVK00FWM7JPYSCPX6IWDRQJUBL6X","A2OWFJJ8YEKBF1","3I7KR83SNAZT1REYB2SRC49PCEEK9H","[{""page_index"":0,""viewing_time"":4976.100000023842},{""page_index"":1,""viewing_time"":5750.199999928474},{""page_index"":2,""viewing_time"":5267},{""page_index"":3,""viewing_time"":15150.700000047684},{""page_index"":4,""viewing_time"":10000.199999928474},{""page_index"":3,""viewing_time"":2084.3000000715256},{""page_index"":4,""viewing_time"":1849.1999999284744},{""page_index"":5,""viewing_time"":4634},{""page_index"":6,""viewing_time"":1966.3000000715256}]","51678.699999928474","","","","","","","","","","","",""
"","instructions","2","61268","0.0-2.0","3CFVK00FWM7JPYSCPX6IWDRQJUBL6X","A2OWFJJ8YEKBF1","3I7KR83SNAZT1REYB2SRC49PCEEK9H","[{""page_index"":0,""viewing_time"":2966},{""page_index"":1,""viewing_time"":1800.1999999284744}]","4766.5","","","","","","","","","","","",""
"","image-keyboard-response","3","62105","0.0-3.0","3CFVK00FWM7JPYSCPX6IWDRQJUBL6X","A2OWFJJ8YEKBF1","3I7KR83SNAZT1REYB2SRC49PCEEK9H","","835.1000000238419","img/food2.png","74","837","1","1","false","1","2","1,0.5,0,1,0.5,0,0.5,0,1","1,0.5,0,1,0.5,0,0.5,0,1","1",""
"","html-keyboard-response","4","62411","0.0-4.0","3CFVK00FWM7JPYSCPX6IWDRQJUBL6X","A2OWFJJ8YEKBF1","3I7KR83SNAZT1REYB2SRC49PCEEK9H","","null","<img src=""img/food2.png"" style=""width:200px; border:14px solid green;"">","null","","","","","","","","","",""
"","image-keyboard-response","5","63163","0.0-6.0","3CFVK00FWM7JPYSCPX6IWDRQJUBL6X","A2OWFJJ8YEKBF1","3I7KR83SNAZT1REYB2SRC49PCEEK9H","","750.5","img/food2.png","74","751.3999999761581","1","1","false","1","2","1,0.5,0,1,0.5,0,0.5,0,1","1,0.5,0,1,0.5,0,0.5,0,1","1",""
"","html-keyboard-response","6","63468","0.0-7.0","3CFVK00FWM7JPYSCPX6IWDRQJUBL6X","A2OWFJJ8YEKBF1","3I7KR83SNAZT1REYB2SRC49PCEEK9H","","null","<img src=""img/food2.png"" style=""width:200px; border:14px solid green;"">","null","","","","","","","","","",""
"","image-keyboard-response","7","64473","0.0-9.0","3CFVK00FWM7JPYSCPX6IWDRQJUBL6X","A2OWFJJ8YEKBF1","3I7KR83SNAZT1REYB2SRC49PCEEK9H","","","img/food5.png","","1003.0999999046326","-1","0","true","3","2","1,0.5,0,1,0.5,0,0.5,0,1","1,0.5,0,1,0.5,0,0.5,0,1","1",""
"","html-keyboard-response","8","64780","0.0-10.0","3CFVK00FWM7JPYSCPX6IWDRQJUBL6X","A2OWFJJ8YEKBF1","3I7KR83SNAZT1REYB2SRC49PCEEK9H","","null","<img src=""img/food5.png"" style=""width:200px;border:14px solid red;"">","null","","","","","","","","","",""
"","html-keyboard-response","9","71352","0.0-11.0-0.0","3CFVK00FWM7JPYSCPX6IWDRQJUBL6X","A2OWFJJ8YEKBF1","3I7KR83SNAZT1REYB2SRC49PCEEK9H","","","","","","","","","","","","","",""
"","image-keyboard-response","10","72355","0.0-12.0","3CFVK00FWM7JPYSCPX6IWDRQJUBL6X","A2OWFJJ8YEKBF1","3I7KR83SNAZT1REYB2SRC49PCEEK9H","","","img/food6.png","","1002.7999999523163","-1","0","true","2","2","1,0.5,0,1,0.5,0,0.5,0,1","1,0.5,0,1,0.5,0,0.5,0,1","1",""
"","html-keyboard-response","11","72662","0.0-13.0","3CFVK00FWM7JPYSCPX6IWDRQJUBL6X","A2OWFJJ8YEKBF1","3I7KR83SNAZT1REYB2SRC49PCEEK9H","","null","<img src=""img/food6.png"" style=""width:200px;border:14px solid red;"">","null","","","","","","","","","",""
"","html-keyboard-response","12","74735","0.0-14.0-0.0","3CFVK00FWM7JPYSCPX6IWDRQJUBL6X","A2OWFJJ8YEKBF1","3I7KR83SNAZT1REYB2SRC49PCEEK9H","","","","","","","","","","","","","",""
"","image-keyboard-response","13","75333","0.0-15.0","3CFVK00FWM7JPYSCPX6IWDRQJUBL6X","A2OWFJJ8YEKBF1","3I7KR83SNAZT1REYB2SRC49PCEEK9H","","595.2000000476837","img/food5.png","75","597.2999999523163","2","0","false","3","2","1,0.5,0,1,0.5,0,0.5,0,1","1,0.5,0,1,0.5,0,0.5,0,1","1",""
"","html-keyboard-response","14","75638","0.0-16.0","3CFVK00FWM7JPYSCPX6IWDRQJUBL6X","A2OWFJJ8YEKBF1","3I7KR83SNAZT1REYB2SRC49PCEEK9H","","null","<img src=""img/food5.png"" style=""width:200px;border:14px solid red;"">","null","","","","","","","","","",""
"","image-keyboard-response","15","76107","0.0-18.0","3CFVK00FWM7JPYSCPX6IWDRQJUBL6X","A2OWFJJ8YEKBF1","3I7KR83SNAZT1REYB2SRC49PCEEK9H","","468","img/food2.png","75","468.89999997615814","2","0","false","1","2","1,0.5,0,1,0.5,0,0.5,0,1","1,0.5,0,1,0.5,0,0.5,0,1","1",""
"","html-keyboard-response","16","76412","0.0-19.0","3CFVK00FWM7JPYSCPX6IWDRQJUBL6X","A2OWFJJ8YEKBF1","3I7KR83SNAZT1REYB2SRC49PCEEK9H","","null","<img src=""img/food2.png"" style=""width:200px;border:14px solid red;"">","null","","","","","","","","","",""
"","image-keyboard-response","17","77045","0.0-21.0","3CFVK00FWM7JPYSCPX6IWDRQJUBL6X","A2OWFJJ8YEKBF1","3I7KR83SNAZT1REYB2SRC49PCEEK9H","","630.1000000238419","img/food6.png","75","631.8999999761581","2","1","false","2","2","1,0.5,0,1,0.5,0,0.5,0,1","1,0.5,0,1,0.5,0,0.5,0,1","1",""
"","html-keyboard-response","18","77347","0.0-22.0","3CFVK00FWM7JPYSCPX6IWDRQJUBL6X","A2OWFJJ8YEKBF1","3I7KR83SNAZT1REYB2SRC49PCEEK9H","","null","<img src=""img/food6.png"" style=""width:200px; border:14px solid green;"">","null","","","","","","","","","",""
"","image-keyboard-response","19","77996","0.0-24.0","3CFVK00FWM7JPYSCPX6IWDRQJUBL6X","A2OWFJJ8YEKBF1","3I7KR83SNAZT1REYB2SRC49PCEEK9H","","645.8000000715256","img/food6.png","75","647.6000000238419","2","0","false","2","2","1,0.5,0,1,0.5,0,0.5,0,1","1,0.5,0,1,0.5,0,0.5,0,1","1",""
"","html-keyboard-response","20","78298","0.0-25.0","3CFVK00FWM7JPYSCPX6IWDRQJUBL6X","A2OWFJJ8YEKBF1","3I7KR83SNAZT1REYB2SRC49PCEEK9H","","null","<img src=""img/food6.png"" style=""width:200px;border:14px solid red;"">","null","","","","","","","","","",""
"","image-keyboard-response","21","78949","0.0-27.0","3CFVK00FWM7JPYSCPX6IWDRQJUBL6X","A2OWFJJ8YEKBF1","3I7KR83SNAZT1REYB2SRC49PCEEK9H","","648.5","img/food5.png","74","649.7999999523163","1","1","false","3","2","1,0.5,0,1,0.5,0,0.5,0,1","1,0.5,0,1,0.5,0,0.5,0,1","1",""
"","html-keyboard-response","22","79251","0.0-28.0","3CFVK00FWM7JPYSCPX6IWDRQJUBL6X","A2OWFJJ8YEKBF1","3I7KR83SNAZT1REYB2SRC49PCEEK9H","","null","<img src=""img/food5.png"" style=""width:200px; border:14px solid green;"">","null","","","","","","","","","",""
"","image-keyboard-response","23","79934","0.0-30.0","3CFVK00FWM7JPYSCPX6IWDRQJUBL6X","A2OWFJJ8YEKBF1","3I7KR83SNAZT1REYB2SRC49PCEEK9H","","681.7000000476837","img/food2.png","74","682.7000000476837","1","1","false","1","2","1,0.5,0,1,0.5,0,0.5,0,1","1,0.5,0,1,0.5,0,0.5,0,1","1",""
"","html-keyboard-response","24","80238","0.0-31.0","3CFVK00FWM7JPYSCPX6IWDRQJUBL6X","A2OWFJJ8YEKBF1","3I7KR83SNAZT1REYB2SRC49PCEEK9H","","null","<img src=""img/food2.png"" style=""width:200px; border:14px solid green;"">","null","","","","","","","","","",""
"","image-keyboard-response","25","80786","0.0-33.0","3CFVK00FWM7JPYSCPX6IWDRQJUBL6X","A2OWFJJ8YEKBF1","3I7KR83SNAZT1REYB2SRC49PCEEK9H","","545.1999999284744","img/food6.png","76","546.6000000238419","3","0","false","2","2","1,0.5,0,1,0.5,0,0.5,0,1","1,0.5,0,1,0.5,0,0.5,0,1","1",""
"","html-keyboard-response","26","81091","0.0-34.0","3CFVK00FWM7JPYSCPX6IWDRQJUBL6X","A2OWFJJ8YEKBF1","3I7KR83SNAZT1REYB2SRC49PCEEK9H","","null","<img src=""img/food6.png"" style=""width:200px;border:14px solid red;"">","null","","","","","","","","","",""
"","image-keyboard-response","27","81528","0.0-36.0","3CFVK00FWM7JPYSCPX6IWDRQJUBL6X","A2OWFJJ8YEKBF1","3I7KR83SNAZT1REYB2SRC49PCEEK9H","","434.59999990463257","img/food6.png","75","436.2999999523163","2","0","false","2","2","1,0.5,0,1,0.5,0,0.5,0,1","1,0.5,0,1,0.5,0,0.5,0,1","1",""
"","html-keyboard-response","28","81834","0.0-37.0","3CFVK00FWM7JPYSCPX6IWDRQJUBL6X","A2OWFJJ8YEKBF1","3I7KR83SNAZT1REYB2SRC49PCEEK9H","","null","<img src=""img/food6.png"" style=""width:200px;border:14px solid red;"">","null","","","","","","","","","",""
"","image-keyboard-response","29","82550","0.0-39.0","3CFVK00FWM7JPYSCPX6IWDRQJUBL6X","A2OWFJJ8YEKBF1","3I7KR83SNAZT1REYB2SRC49PCEEK9H","","714.3999999761581","img/food5.png","74","715.0999999046326","1","0","false","3","2","1,0.5,0,1,0.5,0,0.5,0,1","1,0.5,0,1,0.5,0,0.5,0,1","1",""
"","html-keyboard-response","30","82854","0.0-40.0","3CFVK00FWM7JPYSCPX6IWDRQJUBL6X","A2OWFJJ8YEKBF1","3I7KR83SNAZT1REYB2SRC49PCEEK9H","","null","<img src=""img/food5.png"" style=""width:200px;border:14px solid red;"">","null","","","","","","","","","",""
"","image-keyboard-response","31","83249","0.0-42.0","3CFVK00FWM7JPYSCPX6IWDRQJUBL6X","A2OWFJJ8YEKBF1","3I7KR83SNAZT1REYB2SRC49PCEEK9H","","392.2000000476837","img/food6.png","76","393.89999997615814","3","0","false","2","2","1,0.5,0,1,0.5,0,0.5,0,1","1,0.5,0,1,0.5,0,0.5,0,1","1",""
"","html-keyboard-response","32","83551","0.0-43.0","3CFVK00FWM7JPYSCPX6IWDRQJUBL6X","A2OWFJJ8YEKBF1","3I7KR83SNAZT1REYB2SRC49PCEEK9H","","null","<img src=""img/food6.png"" style=""width:200px;border:14px solid red;"">","null","","","","","","","","","",""
"","image-keyboard-response","33","84134","0.0-45.0","3CFVK00FWM7JPYSCPX6IWDRQJUBL6X","A2OWFJJ8YEKBF1","3I7KR83SNAZT1REYB2SRC49PCEEK9H","","581.1999999284744","img/food5.png","74","582.1000000238419","1","1","false","3","2","1,0.5,0,1,0.5,0,0.5,0,1","1,0.5,0,1,0.5,0,0.5,0,1","1",""
"","html-keyboard-response","34","84437","0.0-46.0","3CFVK00FWM7JPYSCPX6IWDRQJUBL6X","A2OWFJJ8YEKBF1","3I7KR83SNAZT1REYB2SRC49PCEEK9H","","null","<img src=""img/food5.png"" style=""width:200px; border:14px solid green;"">","null","","","","","","","","","",""
"","image-keyboard-response","35","84981","0.0-48.0","3CFVK00FWM7JPYSCPX6IWDRQJUBL6X","A2OWFJJ8YEKBF1","3I7KR83SNAZT1REYB2SRC49PCEEK9H","","541.8999999761581","img/food2.png","75","543.3999999761581","2","0","false","1","2","1,0.5,0,1,0.5,0,0.5,0,1","1,0.5,0,1,0.5,0,0.5,0,1","1",""
"","html-keyboard-response","36","85286","0.0-49.0","3CFVK00FWM7JPYSCPX6IWDRQJUBL6X","A2OWFJJ8YEKBF1","3I7KR83SNAZT1REYB2SRC49PCEEK9H","","null","<img src=""img/food2.png"" style=""width:200px;border:14px solid red;"">","null","","","","","","","","","",""
"","image-keyboard-response","37","85945","0.0-51.0","3CFVK00FWM7JPYSCPX6IWDRQJUBL6X","A2OWFJJ8YEKBF1","3I7KR83SNAZT1REYB2SRC49PCEEK9H","","656.1999999284744","img/food2.png","75","657.8000000715256","2","0","false","1","2","1,0.5,0,1,0.5,0,0.5,0,1","1,0.5,0,1,0.5,0,0.5,0,1","1",""
"","html-keyboard-response","38","86252","0.0-52.0","3CFVK00FWM7JPYSCPX6IWDRQJUBL6X","A2OWFJJ8YEKBF1","3I7KR83SNAZT1REYB2SRC49PCEEK9H","","null","<img src=""img/food2.png"" style=""width:200px;border:14px solid red;"">","null","","","","","","","","","",""
"","image-keyboard-response","39","86568","0.0-54.0","3CFVK00FWM7JPYSCPX6IWDRQJUBL6X","A2OWFJJ8YEKBF1","3I7KR83SNAZT1REYB2SRC49PCEEK9H","","313.39999997615814","img/food2.png","75","314.7999999523163","2","1","false","1","2","1,0.5,0,1,0.5,0,0.5,0,1","1,0.5,0,1,0.5,0,0.5,0,1","1",""
"","html-keyboard-response","40","86873","0.0-55.0","3CFVK00FWM7JPYSCPX6IWDRQJUBL6X","A2OWFJJ8YEKBF1","3I7KR83SNAZT1REYB2SRC49PCEEK9H","","null","<img src=""img/food2.png"" style=""width:200px; border:14px solid green;"">","null","","","","","","","","","",""
"","image-keyboard-response","41","87171","0.0-57.0","3CFVK00FWM7JPYSCPX6IWDRQJUBL6X","A2OWFJJ8YEKBF1","3I7KR83SNAZT1REYB2SRC49PCEEK9H","","297.2000000476837","img/food6.png","75","298.40000009536743","2","1","false","2","2","1,0.5,0,1,0.5,0,0.5,0,1","1,0.5,0,1,0.5,0,0.5,0,1","1",""
"","html-keyboard-response","42","87477","0.0-58.0","3CFVK00FWM7JPYSCPX6IWDRQJUBL6X","A2OWFJJ8YEKBF1","3I7KR83SNAZT1REYB2SRC49PCEEK9H","","null","<img src=""img/food6.png"" style=""width:200px; border:14px solid green;"">","null","","","","","","","","","",""
"","image-keyboard-response","43","88480","0.0-60.0","3CFVK00FWM7JPYSCPX6IWDRQJUBL6X","A2OWFJJ8YEKBF1","3I7KR83SNAZT1REYB2SRC49PCEEK9H","","","img/food5.png","","1002.3000000715256","-1","0","true","3","2","1,0.5,0,1,0.5,0,0.5,0,1","1,0.5,0,1,0.5,0,0.5,0,1","1",""
"","html-keyboard-response","44","88781","0.0-61.0","3CFVK00FWM7JPYSCPX6IWDRQJUBL6X","A2OWFJJ8YEKBF1","3I7KR83SNAZT1REYB2SRC49PCEEK9H","","null","<img src=""img/food5.png"" style=""width:200px;border:14px solid red;"">","null","","","","","","","","","",""
"","html-keyboard-response","45","89968","0.0-62.0-0.0","3CFVK00FWM7JPYSCPX6IWDRQJUBL6X","A2OWFJJ8YEKBF1","3I7KR83SNAZT1REYB2SRC49PCEEK9H","","","","","","","","","","","","","",""
"","image-keyboard-response","46","90556","0.0-63.0","3CFVK00FWM7JPYSCPX6IWDRQJUBL6X","A2OWFJJ8YEKBF1","3I7KR83SNAZT1REYB2SRC49PCEEK9H","","587.1000000238419","img/food2.png","74","588","1","1","false","1","2","1,0.5,0,1,0.5,0,0.5,0,1","1,0.5,0,1,0.5,0,0.5,0,1","1",""
"","html-keyboard-response","47","90860","0.0-64.0","3CFVK00FWM7JPYSCPX6IWDRQJUBL6X","A2OWFJJ8YEKBF1","3I7KR83SNAZT1REYB2SRC49PCEEK9H","","null","<img src=""img/food2.png"" style=""width:200px; border:14px solid green;"">","null","","","","","","","","","",""
"","image-keyboard-response","48","91144","0.0-66.0","3CFVK00FWM7JPYSCPX6IWDRQJUBL6X","A2OWFJJ8YEKBF1","3I7KR83SNAZT1REYB2SRC49PCEEK9H","","281.10000002384186","img/food6.png","74","282.7000000476837","1","1","false","2","2","1,0.5,0,1,0.5,0,0.5,0,1","1,0.5,0,1,0.5,0,0.5,0,1","1",""
"","html-keyboard-response","49","91446","0.0-67.0","3CFVK00FWM7JPYSCPX6IWDRQJUBL6X","A2OWFJJ8YEKBF1","3I7KR83SNAZT1REYB2SRC49PCEEK9H","","null","<img src=""img/food6.png"" style=""width:200px; border:14px solid green;"">","null","","","","","","","","","",""
"","image-keyboard-response","50","91558","0.0-69.0","3CFVK00FWM7JPYSCPX6IWDRQJUBL6X","A2OWFJJ8YEKBF1","3I7KR83SNAZT1REYB2SRC49PCEEK9H","","109.29999995231628","img/food2.png","75","110.20000004768372","2","1","false","1","2","1,0.5,0,1,0.5,0,0.5,0,1","1,0.5,0,1,0.5,0,0.5,0,1","1",""
"","html-keyboard-response","51","91859","0.0-70.0","3CFVK00FWM7JPYSCPX6IWDRQJUBL6X","A2OWFJJ8YEKBF1","3I7KR83SNAZT1REYB2SRC49PCEEK9H","","null","<img src=""img/food2.png"" style=""width:200px; border:14px solid green;"">","null","","","","","","","","","",""
"","image-keyboard-response","52","92388","0.0-72.0","3CFVK00FWM7JPYSCPX6IWDRQJUBL6X","A2OWFJJ8YEKBF1","3I7KR83SNAZT1REYB2SRC49PCEEK9H","","528.2000000476837","img/food6.png","74","529.4000000953674","1","1","false","2","2","1,0.5,0,1,0.5,0,0.5,0,1","1,0.5,0,1,0.5,0,0.5,0,1","1",""
"","html-keyboard-response","53","92693","0.0-73.0","3CFVK00FWM7JPYSCPX6IWDRQJUBL6X","A2OWFJJ8YEKBF1","3I7KR83SNAZT1REYB2SRC49PCEEK9H","","null","<img src=""img/food6.png"" style=""width:200px; border:14px solid green;"">","null","","","","","","","","","",""
"","image-keyboard-response","54","93485","0.0-75.0","3CFVK00FWM7JPYSCPX6IWDRQJUBL6X","A2OWFJJ8YEKBF1","3I7KR83SNAZT1REYB2SRC49PCEEK9H","","791.7000000476837","img/food6.png","76","792.0999999046326","3","0","false","2","2","1,0.5,0,1,0.5,0,0.5,0,1","1,0.5,0,1,0.5,0,0.5,0,1","1",""
"","html-keyboard-response","55","93789","0.0-76.0","3CFVK00FWM7JPYSCPX6IWDRQJUBL6X","A2OWFJJ8YEKBF1","3I7KR83SNAZT1REYB2SRC49PCEEK9H","","null","<img src=""img/food6.png"" style=""width:200px;border:14px solid red;"">","null","","","","","","","","","",""
"","image-keyboard-response","56","94091","0.0-78.0","3CFVK00FWM7JPYSCPX6IWDRQJUBL6X","A2OWFJJ8YEKBF1","3I7KR83SNAZT1REYB2SRC49PCEEK9H","","298.3000000715256","img/food5.png","76","300.2999999523163","3","1","false","3","2","1,0.5,0,1,0.5,0,0.5,0,1","1,0.5,0,1,0.5,0,0.5,0,1","1",""
"","html-keyboard-response","57","94395","0.0-79.0","3CFVK00FWM7JPYSCPX6IWDRQJUBL6X","A2OWFJJ8YEKBF1","3I7KR83SNAZT1REYB2SRC49PCEEK9H","","null","<img src=""img/food5.png"" style=""width:200px; border:14px solid green;"">","null","","","","","","","","","",""
"","image-keyboard-response","58","94641","0.0-81.0","3CFVK00FWM7JPYSCPX6IWDRQJUBL6X","A2OWFJJ8YEKBF1","3I7KR83SNAZT1REYB2SRC49PCEEK9H","","245.39999997615814","img/food5.png","75","245.79999995231628","2","0","false","3","2","1,0.5,0,1,0.5,0,0.5,0,1","1,0.5,0,1,0.5,0,0.5,0,1","1",""
"","html-keyboard-response","59","94947","0.0-82.0","3CFVK00FWM7JPYSCPX6IWDRQJUBL6X","A2OWFJJ8YEKBF1","3I7KR83SNAZT1REYB2SRC49PCEEK9H","","null","<img src=""img/food5.png"" style=""width:200px;border:14px solid red;"">","null","","","","","","","","","",""
"","image-keyboard-response","60","95628","0.0-84.0","3CFVK00FWM7JPYSCPX6IWDRQJUBL6X","A2OWFJJ8YEKBF1","3I7KR83SNAZT1REYB2SRC49PCEEK9H","","678.3999999761581","img/food6.png","75","680.2000000476837","2","1","false","2","2","1,0.5,0,1,0.5,0,0.5,0,1","1,0.5,0,1,0.5,0,0.5,0,1","1",""
"","html-keyboard-response","61","95932","0.0-85.0","3CFVK00FWM7JPYSCPX6IWDRQJUBL6X","A2OWFJJ8YEKBF1","3I7KR83SNAZT1REYB2SRC49PCEEK9H","","null","<img src=""img/food6.png"" style=""width:200px; border:14px solid green;"">","null","","","","","","","","","",""
"","image-keyboard-response","62","96012","0.0-87.0","3CFVK00FWM7JPYSCPX6IWDRQJUBL6X","A2OWFJJ8YEKBF1","3I7KR83SNAZT1REYB2SRC49PCEEK9H","","77.39999997615814","img/food2.png","76","78.79999995231628","3","0","false","1","2","1,0.5,0,1,0.5,0,0.5,0,1","1,0.5,0,1,0.5,0,0.5,0,1","1",""
"","html-keyboard-response","63","96317","0.0-88.0","3CFVK00FWM7JPYSCPX6IWDRQJUBL6X","A2OWFJJ8YEKBF1","3I7KR83SNAZT1REYB2SRC49PCEEK9H","","null","<img src=""img/food2.png"" style=""width:200px;border:14px solid red;"">","null","","","","","","","","","",""
"","image-keyboard-response","64","96813","0.0-90.0","3CFVK00FWM7JPYSCPX6IWDRQJUBL6X","A2OWFJJ8YEKBF1","3I7KR83SNAZT1REYB2SRC49PCEEK9H","","493.3000000715256","img/food2.png","74","494.59999990463257","1","1","false","1","2","1,0.5,0,1,0.5,0,0.5,0,1","1,0.5,0,1,0.5,0,0.5,0,1","1",""
"","html-keyboard-response","65","97117","0.0-91.0","3CFVK00FWM7JPYSCPX6IWDRQJUBL6X","A2OWFJJ8YEKBF1","3I7KR83SNAZT1REYB2SRC49PCEEK9H","","null","<img src=""img/food2.png"" style=""width:200px; border:14px solid green;"">","null","","","","","","","","","",""
"","image-keyboard-response","66","97628","0.0-93.0","3CFVK00FWM7JPYSCPX6IWDRQJUBL6X","A2OWFJJ8YEKBF1","3I7KR83SNAZT1REYB2SRC49PCEEK9H","","508.39999997615814","img/food6.png","75","509.60000002384186","2","0","false","2","2","1,0.5,0,1,0.5,0,0.5,0,1","1,0.5,0,1,0.5,0,0.5,0,1","1",""
"","html-keyboard-response","67","97931","0.0-94.0","3CFVK00FWM7JPYSCPX6IWDRQJUBL6X","A2OWFJJ8YEKBF1","3I7KR83SNAZT1REYB2SRC49PCEEK9H","","null","<img src=""img/food6.png"" style=""width:200px;border:14px solid red;"">","null","","","","","","","","","",""
"","image-keyboard-response","68","98144","0.0-96.0","3CFVK00FWM7JPYSCPX6IWDRQJUBL6X","A2OWFJJ8YEKBF1","3I7KR83SNAZT1REYB2SRC49PCEEK9H","","210.39999997615814","img/food6.png","76","212.10000002384186","3","0","false","2","2","1,0.5,0,1,0.5,0,0.5,0,1","1,0.5,0,1,0.5,0,0.5,0,1","1",""
"","html-keyboard-response","69","98447","0.0-97.0","3CFVK00FWM7JPYSCPX6IWDRQJUBL6X","A2OWFJJ8YEKBF1","3I7KR83SNAZT1REYB2SRC49PCEEK9H","","null","<img src=""img/food6.png"" style=""width:200px;border:14px solid red;"">","null","","","","","","","","","",""
"","image-keyboard-response","70","98746","0.0-99.0","3CFVK00FWM7JPYSCPX6IWDRQJUBL6X","A2OWFJJ8YEKBF1","3I7KR83SNAZT1REYB2SRC49PCEEK9H","","296.09999990463257","img/food6.png","76","297.3000000715256","3","0","false","2","2","1,0.5,0,1,0.5,0,0.5,0,1","1,0.5,0,1,0.5,0,0.5,0,1","1",""
"","html-keyboard-response","71","99051","0.0-100.0","3CFVK00FWM7JPYSCPX6IWDRQJUBL6X","A2OWFJJ8YEKBF1","3I7KR83SNAZT1REYB2SRC49PCEEK9H","","null","<img src=""img/food6.png"" style=""width:200px;border:14px solid red;"">","null","","","","","","","","","",""
"","image-keyboard-response","72","99283","0.0-102.0","3CFVK00FWM7JPYSCPX6IWDRQJUBL6X","A2OWFJJ8YEKBF1","3I7KR83SNAZT1REYB2SRC49PCEEK9H","","229.29999995231628","img/food6.png","76","230.89999997615814","3","0","false","2","2","1,0.5,0,1,0.5,0,0.5,0,1","1,0.5,0,1,0.5,0,0.5,0,1","1",""
"","html-keyboard-response","73","99585","0.0-103.0","3CFVK00FWM7JPYSCPX6IWDRQJUBL6X","A2OWFJJ8YEKBF1","3I7KR83SNAZT1REYB2SRC49PCEEK9H","","null","<img src=""img/food6.png"" style=""width:200px;border:14px solid red;"">","null","","","","","","","","","",""
"","image-keyboard-response","74","99819","0.0-105.0","3CFVK00FWM7JPYSCPX6IWDRQJUBL6X","A2OWFJJ8YEKBF1","3I7KR83SNAZT1REYB2SRC49PCEEK9H","","231.5","img/food2.png","76","233","3","0","false","1","2","1,0.5,0,1,0.5,0,0.5,0,1","1,0.5,0,1,0.5,0,0.5,0,1","1",""
"","html-keyboard-response","75","100125","0.0-106.0","3CFVK00FWM7JPYSCPX6IWDRQJUBL6X","A2OWFJJ8YEKBF1","3I7KR83SNAZT1REYB2SRC49PCEEK9H","","null","<img src=""img/food2.png"" style=""width:200px;border:14px solid red;"">","null","","","","","","","","","",""
"","image-keyboard-response","76","100614","0.0-108.0","3CFVK00FWM7JPYSCPX6IWDRQJUBL6X","A2OWFJJ8YEKBF1","3I7KR83SNAZT1REYB2SRC49PCEEK9H","","485.60000002384186","img/food2.png","75","487.10000002384186","2","0","false","1","2","1,0.5,0,1,0.5,0,0.5,0,1","1,0.5,0,1,0.5,0,0.5,0,1","1",""
"","html-keyboard-response","77","100917","0.0-109.0","3CFVK00FWM7JPYSCPX6IWDRQJUBL6X","A2OWFJJ8YEKBF1","3I7KR83SNAZT1REYB2SRC49PCEEK9H","","null","<img src=""img/food2.png"" style=""width:200px;border:14px solid red;"">","null","","","","","","","","","",""
"","image-keyboard-response","78","101654","0.0-111.0","3CFVK00FWM7JPYSCPX6IWDRQJUBL6X","A2OWFJJ8YEKBF1","3I7KR83SNAZT1REYB2SRC49PCEEK9H","","734.5","img/food2.png","74","736.3999999761581","1","1","false","1","2","1,0.5,0,1,0.5,0,0.5,0,1","1,0.5,0,1,0.5,0,0.5,0,1","1",""
"","html-keyboard-response","79","101959","0.0-112.0","3CFVK00FWM7JPYSCPX6IWDRQJUBL6X","A2OWFJJ8YEKBF1","3I7KR83SNAZT1REYB2SRC49PCEEK9H","","null","<img src=""img/food2.png"" style=""width:200px; border:14px solid green;"">","null","","","","","","","","","",""
"","image-keyboard-response","80","102247","0.0-114.0","3CFVK00FWM7JPYSCPX6IWDRQJUBL6X","A2OWFJJ8YEKBF1","3I7KR83SNAZT1REYB2SRC49PCEEK9H","","287.2999999523163","img/food2.png","74","288.2999999523163","1","1","false","1","2","1,0.5,0,1,0.5,0,0.5,0,1","1,0.5,0,1,0.5,0,0.5,0,1","1",""
"","html-keyboard-response","81","102551","0.0-115.0","3CFVK00FWM7JPYSCPX6IWDRQJUBL6X","A2OWFJJ8YEKBF1","3I7KR83SNAZT1REYB2SRC49PCEEK9H","","null","<img src=""img/food2.png"" style=""width:200px; border:14px solid green;"">","null","","","","","","","","","",""
"","image-keyboard-response","82","102723","0.0-117.0","3CFVK00FWM7JPYSCPX6IWDRQJUBL6X","A2OWFJJ8YEKBF1","3I7KR83SNAZT1REYB2SRC49PCEEK9H","","170.89999997615814","img/food5.png","74","171.5","1","0","false","3","2","1,0.5,0,1,0.5,0,0.5,0,1","1,0.5,0,1,0.5,0,0.5,0,1","1",""
"","html-keyboard-response","83","103027","0.0-118.0","3CFVK00FWM7JPYSCPX6IWDRQJUBL6X","A2OWFJJ8YEKBF1","3I7KR83SNAZT1REYB2SRC49PCEEK9H","","null","<img src=""img/food5.png"" style=""width:200px;border:14px solid red;"">","null","","","","","","","","","",""
"","image-keyboard-response","84","104004","0.0-120.0","3CFVK00FWM7JPYSCPX6IWDRQJUBL6X","A2OWFJJ8YEKBF1","3I7KR83SNAZT1REYB2SRC49PCEEK9H","","974.6999999284744","img/food2.png","75","976.5","2","0","false","1","2","1,0.5,0,1,0.5,0,0.5,0,1","1,0.5,0,1,0.5,0,0.5,0,1","1",""
"","html-keyboard-response","85","104309","0.0-121.0","3CFVK00FWM7JPYSCPX6IWDRQJUBL6X","A2OWFJJ8YEKBF1","3I7KR83SNAZT1REYB2SRC49PCEEK9H","","null","<img src=""img/food2.png"" style=""width:200px;border:14px solid red;"">","null","","","","","","","","","",""
"","image-keyboard-response","86","104976","0.0-123.0","3CFVK00FWM7JPYSCPX6IWDRQJUBL6X","A2OWFJJ8YEKBF1","3I7KR83SNAZT1REYB2SRC49PCEEK9H","","663.8999999761581","img/food5.png","74","665.6999999284744","1","0","false","3","2","1,0.5,0,1,0.5,0,0.5,0,1","1,0.5,0,1,0.5,0,0.5,0,1","1",""
"","html-keyboard-response","87","105279","0.0-124.0","3CFVK00FWM7JPYSCPX6IWDRQJUBL6X","A2OWFJJ8YEKBF1","3I7KR83SNAZT1REYB2SRC49PCEEK9H","","null","<img src=""img/food5.png"" style=""width:200px;border:14px solid red;"">","null","","","","","","","","","",""
"","image-keyboard-response","88","105648","0.0-126.0","3CFVK00FWM7JPYSCPX6IWDRQJUBL6X","A2OWFJJ8YEKBF1","3I7KR83SNAZT1REYB2SRC49PCEEK9H","","368.3000000715256","img/food5.png","74","368.89999997615814","1","0","false","3","2","1,0.5,0,1,0.5,0,0.5,0,1","1,0.5,0,1,0.5,0,0.5,0,1","1",""
"","html-keyboard-response","89","105952","0.0-127.0","3CFVK00FWM7JPYSCPX6IWDRQJUBL6X","A2OWFJJ8YEKBF1","3I7KR83SNAZT1REYB2SRC49PCEEK9H","","null","<img src=""img/food5.png"" style=""width:200px;border:14px solid red;"">","null","","","","","","","","","",""
"","image-keyboard-response","90","106869","0.0-129.0","3CFVK00FWM7JPYSCPX6IWDRQJUBL6X","A2OWFJJ8YEKBF1","3I7KR83SNAZT1REYB2SRC49PCEEK9H","","914.3000000715256","img/food2.png","74","915.6999999284744","1","1","false","1","2","1,0.5,0,1,0.5,0,0.5,0,1","1,0.5,0,1,0.5,0,0.5,0,1","1",""
"","html-keyboard-response","91","107172","0.0-130.0","3CFVK00FWM7JPYSCPX6IWDRQJUBL6X","A2OWFJJ8YEKBF1","3I7KR83SNAZT1REYB2SRC49PCEEK9H","","null","<img src=""img/food2.png"" style=""width:200px; border:14px solid green;"">","null","","","","","","","","","",""
"","image-keyboard-response","92","107187","0.0-132.0","3CFVK00FWM7JPYSCPX6IWDRQJUBL6X","A2OWFJJ8YEKBF1","3I7KR83SNAZT1REYB2SRC49PCEEK9H","","14.100000023841858","img/food6.png","75","15","2","1","false","2","2","1,0.5,0,1,0.5,0,0.5,0,1","1,0.5,0,1,0.5,0,0.5,0,1","1",""
"","html-keyboard-response","93","107490","0.0-133.0","3CFVK00FWM7JPYSCPX6IWDRQJUBL6X","A2OWFJJ8YEKBF1","3I7KR83SNAZT1REYB2SRC49PCEEK9H","","null","<img src=""img/food6.png"" style=""width:200px; border:14px solid green;"">","null","","","","","","","","","",""
"","image-keyboard-response","94","108495","0.0-135.0","3CFVK00FWM7JPYSCPX6IWDRQJUBL6X","A2OWFJJ8YEKBF1","3I7KR83SNAZT1REYB2SRC49PCEEK9H","","","img/food5.png","","1004","-1","0","true","3","2","1,0.5,0,1,0.5,0,0.5,0,1","1,0.5,0,1,0.5,0,0.5,0,1","1",""
"","html-keyboard-response","95","108802","0.0-136.0","3CFVK00FWM7JPYSCPX6IWDRQJUBL6X","A2OWFJJ8YEKBF1","3I7KR83SNAZT1REYB2SRC49PCEEK9H","","null","<img src=""img/food5.png"" style=""width:200px;border:14px solid red;"">","null","","","","","","","","","",""
"","html-keyboard-response","96","110584","0.0-137.0-0.0","3CFVK00FWM7JPYSCPX6IWDRQJUBL6X","A2OWFJJ8YEKBF1","3I7KR83SNAZT1REYB2SRC49PCEEK9H","","","","","","","","","","","","","",""
"","image-keyboard-response","97","111475","0.0-138.0","3CFVK00FWM7JPYSCPX6IWDRQJUBL6X","A2OWFJJ8YEKBF1","3I7KR83SNAZT1REYB2SRC49PCEEK9H","","889.7000000476837","img/food5.png","74","890.7999999523163","1","1","false","3","2","1,0.5,0,1,0.5,0,0.5,0,1","1,0.5,0,1,0.5,0,0.5,0,1","1",""
"","html-keyboard-response","98","111781","0.0-139.0","3CFVK00FWM7JPYSCPX6IWDRQJUBL6X","A2OWFJJ8YEKBF1","3I7KR83SNAZT1REYB2SRC49PCEEK9H","","null","<img src=""img/food5.png"" style=""width:200px; border:14px solid green;"">","null","","","","","","","","","",""
"","image-keyboard-response","99","112548","0.0-141.0","3CFVK00FWM7JPYSCPX6IWDRQJUBL6X","A2OWFJJ8YEKBF1","3I7KR83SNAZT1REYB2SRC49PCEEK9H","","764.4000000953674","img/food2.png","75","765.5","2","1","false","1","2","1,0.5,0,1,0.5,0,0.5,0,1","1,0.5,0,1,0.5,0,0.5,0,1","1",""
"","html-keyboard-response","100","112851","0.0-142.0","3CFVK00FWM7JPYSCPX6IWDRQJUBL6X","A2OWFJJ8YEKBF1","3I7KR83SNAZT1REYB2SRC49PCEEK9H","","null","<img src=""img/food2.png"" style=""width:200px; border:14px solid green;"">","null","","","","","","","","","",""
"","image-keyboard-response","101","113569","0.0-144.0","3CFVK00FWM7JPYSCPX6IWDRQJUBL6X","A2OWFJJ8YEKBF1","3I7KR83SNAZT1REYB2SRC49PCEEK9H","","717.1000000238419","img/food5.png","74","717.6000000238419","1","0","false","3","2","1,0.5,0,1,0.5,0,0.5,0,1","1,0.5,0,1,0.5,0,0.5,0,1","1",""
"","html-keyboard-response","102","113876","0.0-145.0","3CFVK00FWM7JPYSCPX6IWDRQJUBL6X","A2OWFJJ8YEKBF1","3I7KR83SNAZT1REYB2SRC49PCEEK9H","","null","<img src=""img/food5.png"" style=""width:200px;border:14px solid red;"">","null","","","","","","","","","",""
"","image-keyboard-response","103","114346","0.0-147.0","3CFVK00FWM7JPYSCPX6IWDRQJUBL6X","A2OWFJJ8YEKBF1","3I7KR83SNAZT1REYB2SRC49PCEEK9H","","467.39999997615814","img/food5.png","74","469","1","0","false","3","2","1,0.5,0,1,0.5,0,0.5,0,1","1,0.5,0,1,0.5,0,0.5,0,1","1",""
"","html-keyboard-response","104","114648","0.0-148.0","3CFVK00FWM7JPYSCPX6IWDRQJUBL6X","A2OWFJJ8YEKBF1","3I7KR83SNAZT1REYB2SRC49PCEEK9H","","null","<img src=""img/food5.png"" style=""width:200px;border:14px solid red;"">","null","","","","","","","","","",""
"","image-keyboard-response","105","114915","0.0-150.0","3CFVK00FWM7JPYSCPX6IWDRQJUBL6X","A2OWFJJ8YEKBF1","3I7KR83SNAZT1REYB2SRC49PCEEK9H","","265.10000002384186","img/food6.png","74","266.6999999284744","1","1","false","2","2","1,0.5,0,1,0.5,0,0.5,0,1","1,0.5,0,1,0.5,0,0.5,0,1","1",""
"","html-keyboard-response","106","115218","0.0-151.0","3CFVK00FWM7JPYSCPX6IWDRQJUBL6X","A2OWFJJ8YEKBF1","3I7KR83SNAZT1REYB2SRC49PCEEK9H","","null","<img src=""img/food6.png"" style=""width:200px; border:14px solid green;"">","null","","","","","","","","","",""
"","image-keyboard-response","107","115659","0.0-153.0","3CFVK00FWM7JPYSCPX6IWDRQJUBL6X","A2OWFJJ8YEKBF1","3I7KR83SNAZT1REYB2SRC49PCEEK9H","","439.10000002384186","img/food6.png","76","440.60000002384186","3","0","false","2","2","1,0.5,0,1,0.5,0,0.5,0,1","1,0.5,0,1,0.5,0,0.5,0,1","1",""
"","html-keyboard-response","108","115964","0.0-154.0","3CFVK00FWM7JPYSCPX6IWDRQJUBL6X","A2OWFJJ8YEKBF1","3I7KR83SNAZT1REYB2SRC49PCEEK9H","","null","<img src=""img/food6.png"" style=""width:200px;border:14px solid red;"">","null","","","","","","","","","",""
"","image-keyboard-response","109","116339","0.0-156.0","3CFVK00FWM7JPYSCPX6IWDRQJUBL6X","A2OWFJJ8YEKBF1","3I7KR83SNAZT1REYB2SRC49PCEEK9H","","372.7000000476837","img/food6.png","76","374.3000000715256","3","0","false","2","2","1,0.5,0,1,0.5,0,0.5,0,1","1,0.5,0,1,0.5,0,0.5,0,1","1",""
"","html-keyboard-response","110","116645","0.0-157.0","3CFVK00FWM7JPYSCPX6IWDRQJUBL6X","A2OWFJJ8YEKBF1","3I7KR83SNAZT1REYB2SRC49PCEEK9H","","null","<img src=""img/food6.png"" style=""width:200px;border:14px solid red;"">","null","","","","","","","","","",""
"","image-keyboard-response","111","116928","0.0-159.0","3CFVK00FWM7JPYSCPX6IWDRQJUBL6X","A2OWFJJ8YEKBF1","3I7KR83SNAZT1REYB2SRC49PCEEK9H","","280.2999999523163","img/food2.png","76","282","3","0","false","1","2","1,0.5,0,1,0.5,0,0.5,0,1","1,0.5,0,1,0.5,0,0.5,0,1","1",""
"","html-keyboard-response","112","117232","0.0-160.0","3CFVK00FWM7JPYSCPX6IWDRQJUBL6X","A2OWFJJ8YEKBF1","3I7KR83SNAZT1REYB2SRC49PCEEK9H","","null","<img src=""img/food2.png"" style=""width:200px;border:14px solid red;"">","null","","","","","","","","","",""
"","image-keyboard-response","113","117553","0.0-162.0","3CFVK00FWM7JPYSCPX6IWDRQJUBL6X","A2OWFJJ8YEKBF1","3I7KR83SNAZT1REYB2SRC49PCEEK9H","","318.89999997615814","img/food5.png","75","320.3000000715256","2","0","false","3","2","1,0.5,0,1,0.5,0,0.5,0,1","1,0.5,0,1,0.5,0,0.5,0,1","1",""
"","html-keyboard-response","114","117858","0.0-163.0","3CFVK00FWM7JPYSCPX6IWDRQJUBL6X","A2OWFJJ8YEKBF1","3I7KR83SNAZT1REYB2SRC49PCEEK9H","","null","<img src=""img/food5.png"" style=""width:200px;border:14px solid red;"">","null","","","","","","","","","",""
"","image-keyboard-response","115","118863","0.0-165.0","3CFVK00FWM7JPYSCPX6IWDRQJUBL6X","A2OWFJJ8YEKBF1","3I7KR83SNAZT1REYB2SRC49PCEEK9H","","","img/food6.png","","1004.5","-1","0","true","2","2","1,0.5,0,1,0.5,0,0.5,0,1","1,0.5,0,1,0.5,0,0.5,0,1","1",""
"","html-keyboard-response","116","119170","0.0-166.0","3CFVK00FWM7JPYSCPX6IWDRQJUBL6X","A2OWFJJ8YEKBF1","3I7KR83SNAZT1REYB2SRC49PCEEK9H","","null","<img src=""img/food6.png"" style=""width:200px;border:14px solid red;"">","null","","","","","","","","","",""
"","html-keyboard-response","117","120986","0.0-167.0-0.0","3CFVK00FWM7JPYSCPX6IWDRQJUBL6X","A2OWFJJ8YEKBF1","3I7KR83SNAZT1REYB2SRC49PCEEK9H","","","","","","","","","","","","","",""
"","image-keyboard-response","118","121667","0.0-168.0","3CFVK00FWM7JPYSCPX6IWDRQJUBL6X","A2OWFJJ8YEKBF1","3I7KR83SNAZT1REYB2SRC49PCEEK9H","","678.3000000715256","img/food6.png","76","679.6999999284744","3","0","false","2","2","1,0.5,0,1,0.5,0,0.5,0,1","1,0.5,0,1,0.5,0,0.5,0,1","1",""
"","html-keyboard-response","119","121968","0.0-169.0","3CFVK00FWM7JPYSCPX6IWDRQJUBL6X","A2OWFJJ8YEKBF1","3I7KR83SNAZT1REYB2SRC49PCEEK9H","","null","<img src=""img/food6.png"" style=""width:200px;border:14px solid red;"">","null","","","","","","","","","",""
"","image-keyboard-response","120","122159","0.0-171.0","3CFVK00FWM7JPYSCPX6IWDRQJUBL6X","A2OWFJJ8YEKBF1","3I7KR83SNAZT1REYB2SRC49PCEEK9H","","188.30000007152557","img/food6.png","76","189.79999995231628","3","0","false","2","2","1,0.5,0,1,0.5,0,0.5,0,1","1,0.5,0,1,0.5,0,0.5,0,1","1",""
"","html-keyboard-response","121","122462","0.0-172.0","3CFVK00FWM7JPYSCPX6IWDRQJUBL6X","A2OWFJJ8YEKBF1","3I7KR83SNAZT1REYB2SRC49PCEEK9H","","null","<img src=""img/food6.png"" style=""width:200px;border:14px solid red;"">","null","","","","","","","","","",""
"","image-keyboard-response","122","122684","0.0-174.0","3CFVK00FWM7JPYSCPX6IWDRQJUBL6X","A2OWFJJ8YEKBF1","3I7KR83SNAZT1REYB2SRC49PCEEK9H","","219.5","img/food6.png","76","221","3","0","false","2","2","1,0.5,0,1,0.5,0,0.5,0,1","1,0.5,0,1,0.5,0,0.5,0,1","1",""
"","html-keyboard-response","123","122987","0.0-175.0","3CFVK00FWM7JPYSCPX6IWDRQJUBL6X","A2OWFJJ8YEKBF1","3I7KR83SNAZT1REYB2SRC49PCEEK9H","","null","<img src=""img/food6.png"" style=""width:200px;border:14px solid red;"">","null","","","","","","","","","",""
"","image-keyboard-response","124","123110","0.0-177.0","3CFVK00FWM7JPYSCPX6IWDRQJUBL6X","A2OWFJJ8YEKBF1","3I7KR83SNAZT1REYB2SRC49PCEEK9H","","121.5","img/food5.png","76","122.79999995231628","3","1","false","3","2","1,0.5,0,1,0.5,0,0.5,0,1","1,0.5,0,1,0.5,0,0.5,0,1","1",""
"","html-keyboard-response","125","123414","0.0-178.0","3CFVK00FWM7JPYSCPX6IWDRQJUBL6X","A2OWFJJ8YEKBF1","3I7KR83SNAZT1REYB2SRC49PCEEK9H","","null","<img src=""img/food5.png"" style=""width:200px; border:14px solid green;"">","null","","","","","","","","","",""
"","image-keyboard-response","126","123759","0.0-180.0","3CFVK00FWM7JPYSCPX6IWDRQJUBL6X","A2OWFJJ8YEKBF1","3I7KR83SNAZT1REYB2SRC49PCEEK9H","","343.3000000715256","img/food5.png","74","344.59999990463257","1","0","false","3","2","1,0.5,0,1,0.5,0,0.5,0,1","1,0.5,0,1,0.5,0,0.5,0,1","1",""
"","html-keyboard-response","127","124064","0.0-181.0","3CFVK00FWM7JPYSCPX6IWDRQJUBL6X","A2OWFJJ8YEKBF1","3I7KR83SNAZT1REYB2SRC49PCEEK9H","","null","<img src=""img/food5.png"" style=""width:200px;border:14px solid red;"">","null","","","","","","","","","",""
"","image-keyboard-response","128","124337","0.0-183.0","3CFVK00FWM7JPYSCPX6IWDRQJUBL6X","A2OWFJJ8YEKBF1","3I7KR83SNAZT1REYB2SRC49PCEEK9H","","271.09999990463257","img/food5.png","74","272.6999999284744","1","1","false","3","2","1,0.5,0,1,0.5,0,0.5,0,1","1,0.5,0,1,0.5,0,0.5,0,1","1",""
"","html-keyboard-response","129","124643","0.0-184.0","3CFVK00FWM7JPYSCPX6IWDRQJUBL6X","A2OWFJJ8YEKBF1","3I7KR83SNAZT1REYB2SRC49PCEEK9H","","null","<img src=""img/food5.png"" style=""width:200px; border:14px solid green;"">","null","","","","","","","","","",""
"","image-keyboard-response","130","124988","0.0-186.0","3CFVK00FWM7JPYSCPX6IWDRQJUBL6X","A2OWFJJ8YEKBF1","3I7KR83SNAZT1REYB2SRC49PCEEK9H","","343.2000000476837","img/food5.png","74","344.7000000476837","1","1","false","3","2","1,0.5,0,1,0.5,0,0.5,0,1","1,0.5,0,1,0.5,0,0.5,0,1","1",""
"","html-keyboard-response","131","125292","0.0-187.0","3CFVK00FWM7JPYSCPX6IWDRQJUBL6X","A2OWFJJ8YEKBF1","3I7KR83SNAZT1REYB2SRC49PCEEK9H","","null","<img src=""img/food5.png"" style=""width:200px; border:14px solid green;"">","null","","","","","","","","","",""
"","image-keyboard-response","132","125480","0.0-189.0","3CFVK00FWM7JPYSCPX6IWDRQJUBL6X","A2OWFJJ8YEKBF1","3I7KR83SNAZT1REYB2SRC49PCEEK9H","","184.79999995231628","img/food2.png","74","186.20000004768372","1","1","false","1","2","1,0.5,0,1,0.5,0,0.5,0,1","1,0.5,0,1,0.5,0,0.5,0,1","1",""
"","html-keyboard-response","133","125782","0.0-190.0","3CFVK00FWM7JPYSCPX6IWDRQJUBL6X","A2OWFJJ8YEKBF1","3I7KR83SNAZT1REYB2SRC49PCEEK9H","","null","<img src=""img/food2.png"" style=""width:200px; border:14px solid green;"">","null","","","","","","","","","",""
"","image-keyboard-response","134","125872","0.0-192.0","3CFVK00FWM7JPYSCPX6IWDRQJUBL6X","A2OWFJJ8YEKBF1","3I7KR83SNAZT1REYB2SRC49PCEEK9H","","87.79999995231628","img/food5.png","75","89.39999997615814","2","0","false","3","2","1,0.5,0,1,0.5,0,0.5,0,1","1,0.5,0,1,0.5,0,0.5,0,1","1",""
"","html-keyboard-response","135","126176","0.0-193.0","3CFVK00FWM7JPYSCPX6IWDRQJUBL6X","A2OWFJJ8YEKBF1","3I7KR83SNAZT1REYB2SRC49PCEEK9H","","null","<img src=""img/food5.png"" style=""width:200px;border:14px solid red;"">","null","","","","","","","","","",""
"","image-keyboard-response","136","126916","0.0-195.0","3CFVK00FWM7JPYSCPX6IWDRQJUBL6X","A2OWFJJ8YEKBF1","3I7KR83SNAZT1REYB2SRC49PCEEK9H","","738.0999999046326","img/food2.png","75","739.1999999284744","2","1","false","1","2","1,0.5,0,1,0.5,0,0.5,0,1","1,0.5,0,1,0.5,0,0.5,0,1","1",""
"","html-keyboard-response","137","127219","0.0-196.0","3CFVK00FWM7JPYSCPX6IWDRQJUBL6X","A2OWFJJ8YEKBF1","3I7KR83SNAZT1REYB2SRC49PCEEK9H","","null","<img src=""img/food2.png"" style=""width:200px; border:14px solid green;"">","null","","","","","","","","","",""
"","image-keyboard-response","138","127705","0.0-198.0","3CFVK00FWM7JPYSCPX6IWDRQJUBL6X","A2OWFJJ8YEKBF1","3I7KR83SNAZT1REYB2SRC49PCEEK9H","","485","img/food6.png","74","485.7999999523163","1","1","false","2","2","1,0.5,0,1,0.5,0,0.5,0,1","1,0.5,0,1,0.5,0,0.5,0,1","1",""
"","html-keyboard-response","139","128010","0.0-199.0","3CFVK00FWM7JPYSCPX6IWDRQJUBL6X","A2OWFJJ8YEKBF1","3I7KR83SNAZT1REYB2SRC49PCEEK9H","","null","<img src=""img/food6.png"" style=""width:200px; border:14px solid green;"">","null","","","","","","","","","",""
"","image-keyboard-response","140","128098","0.0-201.0","3CFVK00FWM7JPYSCPX6IWDRQJUBL6X","A2OWFJJ8YEKBF1","3I7KR83SNAZT1REYB2SRC49PCEEK9H","","87.29999995231628","img/food5.png","76","88.20000004768372","3","1","false","3","2","1,0.5,0,1,0.5,0,0.5,0,1","1,0.5,0,1,0.5,0,0.5,0,1","1",""
"","html-keyboard-response","141","128403","0.0-202.0","3CFVK00FWM7JPYSCPX6IWDRQJUBL6X","A2OWFJJ8YEKBF1","3I7KR83SNAZT1REYB2SRC49PCEEK9H","","null","<img src=""img/food5.png"" style=""width:200px; border:14px solid green;"">","null","","","","","","","","","",""
"","image-keyboard-response","142","129082","0.0-204.0","3CFVK00FWM7JPYSCPX6IWDRQJUBL6X","A2OWFJJ8YEKBF1","3I7KR83SNAZT1REYB2SRC49PCEEK9H","","676.5","img/food2.png","76","678.0999999046326","3","0","false","1","2","1,0.5,0,1,0.5,0,0.5,0,1","1,0.5,0,1,0.5,0,0.5,0,1","1",""
"","html-keyboard-response","143","129387","0.0-205.0","3CFVK00FWM7JPYSCPX6IWDRQJUBL6X","A2OWFJJ8YEKBF1","3I7KR83SNAZT1REYB2SRC49PCEEK9H","","null","<img src=""img/food2.png"" style=""width:200px;border:14px solid red;"">","null","","","","","","","","","",""
"","image-keyboard-response","144","129815","0.0-207.0","3CFVK00FWM7JPYSCPX6IWDRQJUBL6X","A2OWFJJ8YEKBF1","3I7KR83SNAZT1REYB2SRC49PCEEK9H","","425.59999990463257","img/food2.png","76","427.2999999523163","3","0","false","1","2","1,0.5,0,1,0.5,0,0.5,0,1","1,0.5,0,1,0.5,0,0.5,0,1","1",""
"","html-keyboard-response","145","130118","0.0-208.0","3CFVK00FWM7JPYSCPX6IWDRQJUBL6X","A2OWFJJ8YEKBF1","3I7KR83SNAZT1REYB2SRC49PCEEK9H","","null","<img src=""img/food2.png"" style=""width:200px;border:14px solid red;"">","null","","","","","","","","","",""
"","image-keyboard-response","146","130345","0.0-210.0","3CFVK00FWM7JPYSCPX6IWDRQJUBL6X","A2OWFJJ8YEKBF1","3I7KR83SNAZT1REYB2SRC49PCEEK9H","","224.20000004768372","img/food6.png","76","225.80000007152557","3","0","false","2","2","1,0.5,0,1,0.5,0,0.5,0,1","1,0.5,0,1,0.5,0,0.5,0,1","1",""
"","html-keyboard-response","147","130652","0.0-211.0","3CFVK00FWM7JPYSCPX6IWDRQJUBL6X","A2OWFJJ8YEKBF1","3I7KR83SNAZT1REYB2SRC49PCEEK9H","","null","<img src=""img/food6.png"" style=""width:200px;border:14px solid red;"">","null","","","","","","","","","",""
"","image-keyboard-response","148","131656","0.0-213.0","3CFVK00FWM7JPYSCPX6IWDRQJUBL6X","A2OWFJJ8YEKBF1","3I7KR83SNAZT1REYB2SRC49PCEEK9H","","","img/food2.png","","1003.8999999761581","-1","0","true","1","2","1,0.5,0,1,0.5,0,0.5,0,1","1,0.5,0,1,0.5,0,0.5,0,1","1",""
"","html-keyboard-response","149","131958","0.0-214.0","3CFVK00FWM7JPYSCPX6IWDRQJUBL6X","A2OWFJJ8YEKBF1","3I7KR83SNAZT1REYB2SRC49PCEEK9H","","null","<img src=""img/food2.png"" style=""width:200px;border:14px solid red;"">","null","","","","","","","","","",""
"","html-keyboard-response","150","138451","0.0-215.0-0.0","3CFVK00FWM7JPYSCPX6IWDRQJUBL6X","A2OWFJJ8YEKBF1","3I7KR83SNAZT1REYB2SRC49PCEEK9H","","","","","","","","","","","","","",""
"","image-keyboard-response","151","139089","0.0-216.0","3CFVK00FWM7JPYSCPX6IWDRQJUBL6X","A2OWFJJ8YEKBF1","3I7KR83SNAZT1REYB2SRC49PCEEK9H","","636.3999999761581","img/food5.png","74","637.5999999046326","1","1","false","3","2","1,0.5,0,1,0.5,0,0.5,0,1","1,0.5,0,1,0.5,0,0.5,0,1","1",""
"","html-keyboard-response","152","139394","0.0-217.0","3CFVK00FWM7JPYSCPX6IWDRQJUBL6X","A2OWFJJ8YEKBF1","3I7KR83SNAZT1REYB2SRC49PCEEK9H","","null","<img src=""img/food5.png"" style=""width:200px; border:14px solid green;"">","null","","","","","","","","","",""
"","image-keyboard-response","153","139721","0.0-219.0","3CFVK00FWM7JPYSCPX6IWDRQJUBL6X","A2OWFJJ8YEKBF1","3I7KR83SNAZT1REYB2SRC49PCEEK9H","","325.39999997615814","img/food5.png","74","326.5","1","1","false","3","2","1,0.5,0,1,0.5,0,0.5,0,1","1,0.5,0,1,0.5,0,0.5,0,1","1",""
"","html-keyboard-response","154","140031","0.0-220.0","3CFVK00FWM7JPYSCPX6IWDRQJUBL6X","A2OWFJJ8YEKBF1","3I7KR83SNAZT1REYB2SRC49PCEEK9H","","null","<img src=""img/food5.png"" style=""width:200px; border:14px solid green;"">","null","","","","","","","","","",""
"","image-keyboard-response","155","140508","0.0-222.0","3CFVK00FWM7JPYSCPX6IWDRQJUBL6X","A2OWFJJ8YEKBF1","3I7KR83SNAZT1REYB2SRC49PCEEK9H","","475","img/food2.png","74","475.89999997615814","1","1","false","1","2","1,0.5,0,1,0.5,0,0.5,0,1","1,0.5,0,1,0.5,0,0.5,0,1","1",""
"","html-keyboard-response","156","140810","0.0-223.0","3CFVK00FWM7JPYSCPX6IWDRQJUBL6X","A2OWFJJ8YEKBF1","3I7KR83SNAZT1REYB2SRC49PCEEK9H","","null","<img src=""img/food2.png"" style=""width:200px; border:14px solid green;"">","null","","","","","","","","","",""
"","image-keyboard-response","157","140960","0.0-225.0","3CFVK00FWM7JPYSCPX6IWDRQJUBL6X","A2OWFJJ8YEKBF1","3I7KR83SNAZT1REYB2SRC49PCEEK9H","","148.09999990463257","img/food2.png","75","149.20000004768372","2","1","false","1","2","1,0.5,0,1,0.5,0,0.5,0,1","1,0.5,0,1,0.5,0,0.5,0,1","1",""
"","html-keyboard-response","158","141263","0.0-226.0","3CFVK00FWM7JPYSCPX6IWDRQJUBL6X","A2OWFJJ8YEKBF1","3I7KR83SNAZT1REYB2SRC49PCEEK9H","","null","<img src=""img/food2.png"" style=""width:200px; border:14px solid green;"">","null","","","","","","","","","",""
"","image-keyboard-response","159","141728","0.0-228.0","3CFVK00FWM7JPYSCPX6IWDRQJUBL6X","A2OWFJJ8YEKBF1","3I7KR83SNAZT1REYB2SRC49PCEEK9H","","460.60000002384186","img/food6.png","76","461.6999999284744","3","0","false","2","2","1,0.5,0,1,0.5,0,0.5,0,1","1,0.5,0,1,0.5,0,0.5,0,1","1",""
"","html-keyboard-response","160","142029","0.0-229.0","3CFVK00FWM7JPYSCPX6IWDRQJUBL6X","A2OWFJJ8YEKBF1","3I7KR83SNAZT1REYB2SRC49PCEEK9H","","null","<img src=""img/food6.png"" style=""width:200px;border:14px solid red;"">","null","","","","","","","","","",""
"","image-keyboard-response","161","142259","0.0-231.0","3CFVK00FWM7JPYSCPX6IWDRQJUBL6X","A2OWFJJ8YEKBF1","3I7KR83SNAZT1REYB2SRC49PCEEK9H","","226.60000002384186","img/food5.png","76","228","3","1","false","3","2","1,0.5,0,1,0.5,0,0.5,0,1","1,0.5,0,1,0.5,0,0.5,0,1","1",""
"","html-keyboard-response","162","142563","0.0-232.0","3CFVK00FWM7JPYSCPX6IWDRQJUBL6X","A2OWFJJ8YEKBF1","3I7KR83SNAZT1REYB2SRC49PCEEK9H","","null","<img src=""img/food5.png"" style=""width:200px; border:14px solid green;"">","null","","","","","","","","","",""
"","image-keyboard-response","163","142730","0.0-234.0","3CFVK00FWM7JPYSCPX6IWDRQJUBL6X","A2OWFJJ8YEKBF1","3I7KR83SNAZT1REYB2SRC49PCEEK9H","","166.5","img/food5.png","75","167.39999997615814","2","0","false","3","2","1,0.5,0,1,0.5,0,0.5,0,1","1,0.5,0,1,0.5,0,0.5,0,1","1",""
"","html-keyboard-response","164","143033","0.0-235.0","3CFVK00FWM7JPYSCPX6IWDRQJUBL6X","A2OWFJJ8YEKBF1","3I7KR83SNAZT1REYB2SRC49PCEEK9H","","null","<img src=""img/food5.png"" style=""width:200px;border:14px solid red;"">","null","","","","","","","","","",""
"","image-keyboard-response","165","143097","0.0-237.0","3CFVK00FWM7JPYSCPX6IWDRQJUBL6X","A2OWFJJ8YEKBF1","3I7KR83SNAZT1REYB2SRC49PCEEK9H","","63.09999990463257","img/food5.png","74","63.700000047683716","1","1","false","3","2","1,0.5,0,1,0.5,0,0.5,0,1","1,0.5,0,1,0.5,0,0.5,0,1","1",""
"","html-keyboard-response","166","143399","0.0-238.0","3CFVK00FWM7JPYSCPX6IWDRQJUBL6X","A2OWFJJ8YEKBF1","3I7KR83SNAZT1REYB2SRC49PCEEK9H","","null","<img src=""img/food5.png"" style=""width:200px; border:14px solid green;"">","null","","","","","","","","","",""
"","image-keyboard-response","167","143562","0.0-240.0","3CFVK00FWM7JPYSCPX6IWDRQJUBL6X","A2OWFJJ8YEKBF1","3I7KR83SNAZT1REYB2SRC49PCEEK9H","","159.89999997615814","img/food2.png","74","161.20000004768372","1","1","false","1","2","1,0.5,0,1,0.5,0,0.5,0,1","1,0.5,0,1,0.5,0,0.5,0,1","1",""
"","html-keyboard-response","168","143863","0.0-241.0","3CFVK00FWM7JPYSCPX6IWDRQJUBL6X","A2OWFJJ8YEKBF1","3I7KR83SNAZT1REYB2SRC49PCEEK9H","","null","<img src=""img/food2.png"" style=""width:200px; border:14px solid green;"">","null","","","","","","","","","",""
"","image-keyboard-response","169","144444","0.0-243.0","3CFVK00FWM7JPYSCPX6IWDRQJUBL6X","A2OWFJJ8YEKBF1","3I7KR83SNAZT1REYB2SRC49PCEEK9H","","579.5999999046326","img/food2.png","75","580.7000000476837","2","1","false","1","2","1,0.5,0,1,0.5,0,0.5,0,1","1,0.5,0,1,0.5,0,0.5,0,1","1",""
"","html-keyboard-response","170","144745","0.0-244.0","3CFVK00FWM7JPYSCPX6IWDRQJUBL6X","A2OWFJJ8YEKBF1","3I7KR83SNAZT1REYB2SRC49PCEEK9H","","null","<img src=""img/food2.png"" style=""width:200px; border:14px solid green;"">","null","","","","","","","","","",""
"","image-keyboard-response","171","145288","0.0-246.0","3CFVK00FWM7JPYSCPX6IWDRQJUBL6X","A2OWFJJ8YEKBF1","3I7KR83SNAZT1REYB2SRC49PCEEK9H","","541.8000000715256","img/food6.png","75","542.7000000476837","2","1","false","2","2","1,0.5,0,1,0.5,0,0.5,0,1","1,0.5,0,1,0.5,0,0.5,0,1","1",""
"","html-keyboard-response","172","145591","0.0-247.0","3CFVK00FWM7JPYSCPX6IWDRQJUBL6X","A2OWFJJ8YEKBF1","3I7KR83SNAZT1REYB2SRC49PCEEK9H","","null","<img src=""img/food6.png"" style=""width:200px; border:14px solid green;"">","null","","","","","","","","","",""
"","image-keyboard-response","173","146265","0.0-249.0","3CFVK00FWM7JPYSCPX6IWDRQJUBL6X","A2OWFJJ8YEKBF1","3I7KR83SNAZT1REYB2SRC49PCEEK9H","","672.7000000476837","img/food6.png","76","673.7999999523163","3","0","false","2","2","1,0.5,0,1,0.5,0,0.5,0,1","1,0.5,0,1,0.5,0,0.5,0,1","1",""
"","html-keyboard-response","174","146568","0.0-250.0","3CFVK00FWM7JPYSCPX6IWDRQJUBL6X","A2OWFJJ8YEKBF1","3I7KR83SNAZT1REYB2SRC49PCEEK9H","","null","<img src=""img/food6.png"" style=""width:200px;border:14px solid red;"">","null","","","","","","","","","",""
"","image-keyboard-response","175","146818","0.0-252.0","3CFVK00FWM7JPYSCPX6IWDRQJUBL6X","A2OWFJJ8YEKBF1","3I7KR83SNAZT1REYB2SRC49PCEEK9H","","248.60000002384186","img/food2.png","76","249.59999990463257","3","0","false","1","2","1,0.5,0,1,0.5,0,0.5,0,1","1,0.5,0,1,0.5,0,0.5,0,1","1",""
"","html-keyboard-response","176","147120","0.0-253.0","3CFVK00FWM7JPYSCPX6IWDRQJUBL6X","A2OWFJJ8YEKBF1","3I7KR83SNAZT1REYB2SRC49PCEEK9H","","null","<img src=""img/food2.png"" style=""width:200px;border:14px solid red;"">","null","","","","","","","","","",""
"","image-keyboard-response","177","147211","0.0-255.0","3CFVK00FWM7JPYSCPX6IWDRQJUBL6X","A2OWFJJ8YEKBF1","3I7KR83SNAZT1REYB2SRC49PCEEK9H","","87.59999990463257","img/food2.png","75","89.20000004768372","2","1","false","1","2","1,0.5,0,1,0.5,0,0.5,0,1","1,0.5,0,1,0.5,0,0.5,0,1","1",""
"","html-keyboard-response","178","147514","0.0-256.0","3CFVK00FWM7JPYSCPX6IWDRQJUBL6X","A2OWFJJ8YEKBF1","3I7KR83SNAZT1REYB2SRC49PCEEK9H","","null","<img src=""img/food2.png"" style=""width:200px; border:14px solid green;"">","null","","","","","","","","","",""
"","image-keyboard-response","179","148158","0.0-258.0","3CFVK00FWM7JPYSCPX6IWDRQJUBL6X","A2OWFJJ8YEKBF1","3I7KR83SNAZT1REYB2SRC49PCEEK9H","","641.6000000238419","img/food5.png","74","642.7999999523163","1","0","false","3","2","1,0.5,0,1,0.5,0,0.5,0,1","1,0.5,0,1,0.5,0,0.5,0,1","1",""
"","html-keyboard-response","180","148461","0.0-259.0","3CFVK00FWM7JPYSCPX6IWDRQJUBL6X","A2OWFJJ8YEKBF1","3I7KR83SNAZT1REYB2SRC49PCEEK9H","","null","<img src=""img/food5.png"" style=""width:200px;border:14px solid red;"">","null","","","","","","","","","",""
"","image-keyboard-response","181","148957","0.0-261.0","3CFVK00FWM7JPYSCPX6IWDRQJUBL6X","A2OWFJJ8YEKBF1","3I7KR83SNAZT1REYB2SRC49PCEEK9H","","494.2000000476837","img/food6.png","75","495.60000002384186","2","1","false","2","2","1,0.5,0,1,0.5,0,0.5,0,1","1,0.5,0,1,0.5,0,0.5,0,1","1",""
"","html-keyboard-response","182","149262","0.0-262.0","3CFVK00FWM7JPYSCPX6IWDRQJUBL6X","A2OWFJJ8YEKBF1","3I7KR83SNAZT1REYB2SRC49PCEEK9H","","null","<img src=""img/food6.png"" style=""width:200px; border:14px solid green;"">","null","","","","","","","","","",""
"","image-keyboard-response","183","149366","0.0-264.0","3CFVK00FWM7JPYSCPX6IWDRQJUBL6X","A2OWFJJ8YEKBF1","3I7KR83SNAZT1REYB2SRC49PCEEK9H","","101.30000007152557","img/food5.png","76","102.89999997615814","3","1","false","3","2","1,0.5,0,1,0.5,0,0.5,0,1","1,0.5,0,1,0.5,0,0.5,0,1","1",""
"","html-keyboard-response","184","149668","0.0-265.0","3CFVK00FWM7JPYSCPX6IWDRQJUBL6X","A2OWFJJ8YEKBF1","3I7KR83SNAZT1REYB2SRC49PCEEK9H","","null","<img src=""img/food5.png"" style=""width:200px; border:14px solid green;"">","null","","","","","","","","","",""
"","image-keyboard-response","185","150147","0.0-267.0","3CFVK00FWM7JPYSCPX6IWDRQJUBL6X","A2OWFJJ8YEKBF1","3I7KR83SNAZT1REYB2SRC49PCEEK9H","","475.2000000476837","img/food5.png","74","477","1","1","false","3","2","1,0.5,0,1,0.5,0,0.5,0,1","1,0.5,0,1,0.5,0,0.5,0,1","1",""
"","html-keyboard-response","186","150451","0.0-268.0","3CFVK00FWM7JPYSCPX6IWDRQJUBL6X","A2OWFJJ8YEKBF1","3I7KR83SNAZT1REYB2SRC49PCEEK9H","","null","<img src=""img/food5.png"" style=""width:200px; border:14px solid green;"">","null","","","","","","","","","",""
"","image-keyboard-response","187","150929","0.0-270.0","3CFVK00FWM7JPYSCPX6IWDRQJUBL6X","A2OWFJJ8YEKBF1","3I7KR83SNAZT1REYB2SRC49PCEEK9H","","475.10000002384186","img/food6.png","75","476.89999997615814","2","0","false","2","2","1,0.5,0,1,0.5,0,0.5,0,1","1,0.5,0,1,0.5,0,0.5,0,1","1",""
"","html-keyboard-response","188","151234","0.0-271.0","3CFVK00FWM7JPYSCPX6IWDRQJUBL6X","A2OWFJJ8YEKBF1","3I7KR83SNAZT1REYB2SRC49PCEEK9H","","null","<img src=""img/food6.png"" style=""width:200px;border:14px solid red;"">","null","","","","","","","","","",""
"","instructions","189","165618","0.0-273.0","3CFVK00FWM7JPYSCPX6IWDRQJUBL6X","A2OWFJJ8YEKBF1","3I7KR83SNAZT1REYB2SRC49PCEEK9H","[{""page_index"":0,""viewing_time"":10799.899999976158},{""page_index"":1,""viewing_time"":3583.399999976158}]","14383.5","","","","","","","","","","","",""
"","image-keyboard-response","190","169064","0.0-274.0","3CFVK00FWM7JPYSCPX6IWDRQJUBL6X","A2OWFJJ8YEKBF1","3I7KR83SNAZT1REYB2SRC49PCEEK9H","","3445.2999999523163","img/food3.png","75","3446.1999999284744","2","0","","2","1","1,0.5,0,1,0.5,0,0.5,0,1","0.5,0,1,0.5,0,1,0,1,0.5","2",""
"","html-keyboard-response","191","169369","0.0-275.0","3CFVK00FWM7JPYSCPX6IWDRQJUBL6X","A2OWFJJ8YEKBF1","3I7KR83SNAZT1REYB2SRC49PCEEK9H","","null","<img src=""img/food3.png"" style=""width:200px;border:14px solid red;"">","null","","","","","","","","","",""
"","image-keyboard-response","192","170497","0.0-276.0","3CFVK00FWM7JPYSCPX6IWDRQJUBL6X","A2OWFJJ8YEKBF1","3I7KR83SNAZT1REYB2SRC49PCEEK9H","","1125.3000000715256","img/food4.png","74","1127.1000000238419","1","0","","1","1","1,0.5,0,1,0.5,0,0.5,0,1","0.5,0,1,0.5,0,1,0,1,0.5","2",""
"","html-keyboard-response","193","170802","0.0-277.0","3CFVK00FWM7JPYSCPX6IWDRQJUBL6X","A2OWFJJ8YEKBF1","3I7KR83SNAZT1REYB2SRC49PCEEK9H","","null","<img src=""img/food4.png"" style=""width:200px;border:14px solid red;"">","null","","","","","","","","","",""
"","image-keyboard-response","194","172764","0.0-278.0","3CFVK00FWM7JPYSCPX6IWDRQJUBL6X","A2OWFJJ8YEKBF1","3I7KR83SNAZT1REYB2SRC49PCEEK9H","","1961.1000000238419","img/food4.png","74","1961.7999999523163","1","1","","1","1","1,0.5,0,1,0.5,0,0.5,0,1","0.5,0,1,0.5,0,1,0,1,0.5","2",""
"","html-keyboard-response","195","173067","0.0-279.0","3CFVK00FWM7JPYSCPX6IWDRQJUBL6X","A2OWFJJ8YEKBF1","3I7KR83SNAZT1REYB2SRC49PCEEK9H","","null","<img src=""img/food4.png"" style=""width:200px; border:14px solid green;"">","null","","","","","","","","","",""
"","image-keyboard-response","196","174369","0.0-280.0","3CFVK00FWM7JPYSCPX6IWDRQJUBL6X","A2OWFJJ8YEKBF1","3I7KR83SNAZT1REYB2SRC49PCEEK9H","","1299.9000000953674","img/food1.png","76","1301.3999999761581","3","1","","3","1","1,0.5,0,1,0.5,0,0.5,0,1","0.5,0,1,0.5,0,1,0,1,0.5","2",""
"","html-keyboard-response","197","174673","0.0-281.0","3CFVK00FWM7JPYSCPX6IWDRQJUBL6X","A2OWFJJ8YEKBF1","3I7KR83SNAZT1REYB2SRC49PCEEK9H","","null","<img src=""img/food1.png"" style=""width:200px; border:14px solid green;"">","null","","","","","","","","","",""
"","image-keyboard-response","198","175812","0.0-282.0","3CFVK00FWM7JPYSCPX6IWDRQJUBL6X","A2OWFJJ8YEKBF1","3I7KR83SNAZT1REYB2SRC49PCEEK9H","","1137.3000000715256","img/food3.png","75","1137.8999999761581","2","0","","2","1","1,0.5,0,1,0.5,0,0.5,0,1","0.5,0,1,0.5,0,1,0,1,0.5","2",""
"","html-keyboard-response","199","176115","0.0-283.0","3CFVK00FWM7JPYSCPX6IWDRQJUBL6X","A2OWFJJ8YEKBF1","3I7KR83SNAZT1REYB2SRC49PCEEK9H","","null","<img src=""img/food3.png"" style=""width:200px;border:14px solid red;"">","null","","","","","","","","","",""
"","image-keyboard-response","200","177668","0.0-284.0","3CFVK00FWM7JPYSCPX6IWDRQJUBL6X","A2OWFJJ8YEKBF1","3I7KR83SNAZT1REYB2SRC49PCEEK9H","","1551","img/food1.png","76","1552.7000000476837","3","0","","3","1","1,0.5,0,1,0.5,0,0.5,0,1","0.5,0,1,0.5,0,1,0,1,0.5","2",""
"","html-keyboard-response","201","177972","0.0-285.0","3CFVK00FWM7JPYSCPX6IWDRQJUBL6X","A2OWFJJ8YEKBF1","3I7KR83SNAZT1REYB2SRC49PCEEK9H","","null","<img src=""img/food1.png"" style=""width:200px;border:14px solid red;"">","null","","","","","","","","","",""
"","image-keyboard-response","202","179323","0.0-286.0","3CFVK00FWM7JPYSCPX6IWDRQJUBL6X","A2OWFJJ8YEKBF1","3I7KR83SNAZT1REYB2SRC49PCEEK9H","","1347.2000000476837","img/food3.png","74","1348.8999999761581","1","0","","2","1","1,0.5,0,1,0.5,0,0.5,0,1","0.5,0,1,0.5,0,1,0,1,0.5","2",""
"","html-keyboard-response","203","179627","0.0-287.0","3CFVK00FWM7JPYSCPX6IWDRQJUBL6X","A2OWFJJ8YEKBF1","3I7KR83SNAZT1REYB2SRC49PCEEK9H","","null","<img src=""img/food3.png"" style=""width:200px;border:14px solid red;"">","null","","","","","","","","","",""
"","image-keyboard-response","204","180805","0.0-288.0","3CFVK00FWM7JPYSCPX6IWDRQJUBL6X","A2OWFJJ8YEKBF1","3I7KR83SNAZT1REYB2SRC49PCEEK9H","","1175.7999999523163","img/food4.png","75","1177.3999999761581","2","0","","1","1","1,0.5,0,1,0.5,0,0.5,0,1","0.5,0,1,0.5,0,1,0,1,0.5","2",""
"","html-keyboard-response","205","181107","0.0-289.0","3CFVK00FWM7JPYSCPX6IWDRQJUBL6X","A2OWFJJ8YEKBF1","3I7KR83SNAZT1REYB2SRC49PCEEK9H","","null","<img src=""img/food4.png"" style=""width:200px;border:14px solid red;"">","null","","","","","","","","","",""
"","image-keyboard-response","206","182145","0.0-290.0","3CFVK00FWM7JPYSCPX6IWDRQJUBL6X","A2OWFJJ8YEKBF1","3I7KR83SNAZT1REYB2SRC49PCEEK9H","","1035.8999999761581","img/food1.png","76","1037.6000000238419","3","1","","3","1","1,0.5,0,1,0.5,0,0.5,0,1","0.5,0,1,0.5,0,1,0,1,0.5","2",""
"","html-keyboard-response","207","182449","0.0-291.0","3CFVK00FWM7JPYSCPX6IWDRQJUBL6X","A2OWFJJ8YEKBF1","3I7KR83SNAZT1REYB2SRC49PCEEK9H","","null","<img src=""img/food1.png"" style=""width:200px; border:14px solid green;"">","null","","","","","","","","","",""
"","image-keyboard-response","208","183525","0.0-292.0","3CFVK00FWM7JPYSCPX6IWDRQJUBL6X","A2OWFJJ8YEKBF1","3I7KR83SNAZT1REYB2SRC49PCEEK9H","","1073.6999999284744","img/food3.png","75","1074.8000000715256","2","0","","2","1","1,0.5,0,1,0.5,0,0.5,0,1","0.5,0,1,0.5,0,1,0,1,0.5","2",""
"","html-keyboard-response","209","183829","0.0-293.0","3CFVK00FWM7JPYSCPX6IWDRQJUBL6X","A2OWFJJ8YEKBF1","3I7KR83SNAZT1REYB2SRC49PCEEK9H","","null","<img src=""img/food3.png"" style=""width:200px;border:14px solid red;"">","null","","","","","","","","","",""
"","image-keyboard-response","210","184834","0.0-294.0","3CFVK00FWM7JPYSCPX6IWDRQJUBL6X","A2OWFJJ8YEKBF1","3I7KR83SNAZT1REYB2SRC49PCEEK9H","","1003","img/food3.png","75","1004.7000000476837","2","0","","2","1","1,0.5,0,1,0.5,0,0.5,0,1","0.5,0,1,0.5,0,1,0,1,0.5","2",""
"","html-keyboard-response","211","185141","0.0-295.0","3CFVK00FWM7JPYSCPX6IWDRQJUBL6X","A2OWFJJ8YEKBF1","3I7KR83SNAZT1REYB2SRC49PCEEK9H","","null","<img src=""img/food3.png"" style=""width:200px;border:14px solid red;"">","null","","","","","","","","","",""
"","image-keyboard-response","212","186086","0.0-296.0","3CFVK00FWM7JPYSCPX6IWDRQJUBL6X","A2OWFJJ8YEKBF1","3I7KR83SNAZT1REYB2SRC49PCEEK9H","","944.2999999523163","img/food1.png","75","945.2999999523163","2","1","","3","1","1,0.5,0,1,0.5,0,0.5,0,1","0.5,0,1,0.5,0,1,0,1,0.5","2",""
"","html-keyboard-response","213","186389","0.0-297.0","3CFVK00FWM7JPYSCPX6IWDRQJUBL6X","A2OWFJJ8YEKBF1","3I7KR83SNAZT1REYB2SRC49PCEEK9H","","null","<img src=""img/food1.png"" style=""width:200px; border:14px solid green;"">","null","","","","","","","","","",""
"","image-keyboard-response","214","187175","0.0-298.0","3CFVK00FWM7JPYSCPX6IWDRQJUBL6X","A2OWFJJ8YEKBF1","3I7KR83SNAZT1REYB2SRC49PCEEK9H","","784.2000000476837","img/food1.png","75","785.6000000238419","2","1","","3","1","1,0.5,0,1,0.5,0,0.5,0,1","0.5,0,1,0.5,0,1,0,1,0.5","2",""
"","html-keyboard-response","215","187480","0.0-299.0","3CFVK00FWM7JPYSCPX6IWDRQJUBL6X","A2OWFJJ8YEKBF1","3I7KR83SNAZT1REYB2SRC49PCEEK9H","","null","<img src=""img/food1.png"" style=""width:200px; border:14px solid green;"">","null","","","","","","","","","",""
"","image-keyboard-response","216","187910","0.0-300.0","3CFVK00FWM7JPYSCPX6IWDRQJUBL6X","A2OWFJJ8YEKBF1","3I7KR83SNAZT1REYB2SRC49PCEEK9H","","427.3000000715256","img/food1.png","75","429.10000002384186","2","1","","3","1","1,0.5,0,1,0.5,0,0.5,0,1","0.5,0,1,0.5,0,1,0,1,0.5","2",""
"","html-keyboard-response","217","188217","0.0-301.0","3CFVK00FWM7JPYSCPX6IWDRQJUBL6X","A2OWFJJ8YEKBF1","3I7KR83SNAZT1REYB2SRC49PCEEK9H","","null","<img src=""img/food1.png"" style=""width:200px; border:14px solid green;"">","null","","","","","","","","","",""
"","image-keyboard-response","218","188888","0.0-302.0","3CFVK00FWM7JPYSCPX6IWDRQJUBL6X","A2OWFJJ8YEKBF1","3I7KR83SNAZT1REYB2SRC49PCEEK9H","","667.7999999523163","img/food4.png","76","669.8000000715256","3","1","","1","1","1,0.5,0,1,0.5,0,0.5,0,1","0.5,0,1,0.5,0,1,0,1,0.5","2",""
"","html-keyboard-response","219","189193","0.0-303.0","3CFVK00FWM7JPYSCPX6IWDRQJUBL6X","A2OWFJJ8YEKBF1","3I7KR83SNAZT1REYB2SRC49PCEEK9H","","null","<img src=""img/food4.png"" style=""width:200px; border:14px solid green;"">","null","","","","","","","","","",""
"","image-keyboard-response","220","190057","0.0-304.0","3CFVK00FWM7JPYSCPX6IWDRQJUBL6X","A2OWFJJ8YEKBF1","3I7KR83SNAZT1REYB2SRC49PCEEK9H","","863","img/food3.png","74","864.2999999523163","1","0","","2","1","1,0.5,0,1,0.5,0,0.5,0,1","0.5,0,1,0.5,0,1,0,1,0.5","2",""
"","html-keyboard-response","221","190359","0.0-305.0","3CFVK00FWM7JPYSCPX6IWDRQJUBL6X","A2OWFJJ8YEKBF1","3I7KR83SNAZT1REYB2SRC49PCEEK9H","","null","<img src=""img/food3.png"" style=""width:200px;border:14px solid red;"">","null","","","","","","","","","",""
"","image-keyboard-response","222","191479","0.0-306.0","3CFVK00FWM7JPYSCPX6IWDRQJUBL6X","A2OWFJJ8YEKBF1","3I7KR83SNAZT1REYB2SRC49PCEEK9H","","1117.3999999761581","img/food4.png","76","1119.2000000476837","3","1","","1","1","1,0.5,0,1,0.5,0,0.5,0,1","0.5,0,1,0.5,0,1,0,1,0.5","2",""
"","html-keyboard-response","223","191781","0.0-307.0","3CFVK00FWM7JPYSCPX6IWDRQJUBL6X","A2OWFJJ8YEKBF1","3I7KR83SNAZT1REYB2SRC49PCEEK9H","","null","<img src=""img/food4.png"" style=""width:200px; border:14px solid green;"">","null","","","","","","","","","",""
"","image-keyboard-response","224","192453","0.0-308.0","3CFVK00FWM7JPYSCPX6IWDRQJUBL6X","A2OWFJJ8YEKBF1","3I7KR83SNAZT1REYB2SRC49PCEEK9H","","670.6999999284744","img/food4.png","76","671.6000000238419","3","1","","1","1","1,0.5,0,1,0.5,0,0.5,0,1","0.5,0,1,0.5,0,1,0,1,0.5","2",""
"","html-keyboard-response","225","192756","0.0-309.0","3CFVK00FWM7JPYSCPX6IWDRQJUBL6X","A2OWFJJ8YEKBF1","3I7KR83SNAZT1REYB2SRC49PCEEK9H","","null","<img src=""img/food4.png"" style=""width:200px; border:14px solid green;"">","null","","","","","","","","","",""
"","image-keyboard-response","226","194499","0.0-310.0","3CFVK00FWM7JPYSCPX6IWDRQJUBL6X","A2OWFJJ8YEKBF1","3I7KR83SNAZT1REYB2SRC49PCEEK9H","","1742","img/food1.png","76","1743","3","1","","3","1","1,0.5,0,1,0.5,0,0.5,0,1","0.5,0,1,0.5,0,1,0,1,0.5","2",""
"","html-keyboard-response","227","194806","0.0-311.0","3CFVK00FWM7JPYSCPX6IWDRQJUBL6X","A2OWFJJ8YEKBF1","3I7KR83SNAZT1REYB2SRC49PCEEK9H","","null","<img src=""img/food1.png"" style=""width:200px; border:14px solid green;"">","null","","","","","","","","","",""
"","image-keyboard-response","228","196160","0.0-312.0","3CFVK00FWM7JPYSCPX6IWDRQJUBL6X","A2OWFJJ8YEKBF1","3I7KR83SNAZT1REYB2SRC49PCEEK9H","","1351.8999999761581","img/food4.png","75","1353.4000000953674","2","0","","1","1","1,0.5,0,1,0.5,0,0.5,0,1","0.5,0,1,0.5,0,1,0,1,0.5","2",""
"","html-keyboard-response","229","196465","0.0-313.0","3CFVK00FWM7JPYSCPX6IWDRQJUBL6X","A2OWFJJ8YEKBF1","3I7KR83SNAZT1REYB2SRC49PCEEK9H","","null","<img src=""img/food4.png"" style=""width:200px;border:14px solid red;"">","null","","","","","","","","","",""
"","image-keyboard-response","230","196763","0.0-314.0","3CFVK00FWM7JPYSCPX6IWDRQJUBL6X","A2OWFJJ8YEKBF1","3I7KR83SNAZT1REYB2SRC49PCEEK9H","","296.2000000476837","img/food4.png","76","297.39999997615814","3","1","","1","1","1,0.5,0,1,0.5,0,0.5,0,1","0.5,0,1,0.5,0,1,0,1,0.5","2",""
"","html-keyboard-response","231","197069","0.0-315.0","3CFVK00FWM7JPYSCPX6IWDRQJUBL6X","A2OWFJJ8YEKBF1","3I7KR83SNAZT1REYB2SRC49PCEEK9H","","null","<img src=""img/food4.png"" style=""width:200px; border:14px solid green;"">","null","","","","","","","","","",""
"","image-keyboard-response","232","197725","0.0-316.0","3CFVK00FWM7JPYSCPX6IWDRQJUBL6X","A2OWFJJ8YEKBF1","3I7KR83SNAZT1REYB2SRC49PCEEK9H","","653.7999999523163","img/food1.png","76","655","3","1","","3","1","1,0.5,0,1,0.5,0,0.5,0,1","0.5,0,1,0.5,0,1,0,1,0.5","2",""
"","html-keyboard-response","233","198027","0.0-317.0","3CFVK00FWM7JPYSCPX6IWDRQJUBL6X","A2OWFJJ8YEKBF1","3I7KR83SNAZT1REYB2SRC49PCEEK9H","","null","<img src=""img/food1.png"" style=""width:200px; border:14px solid green;"">","null","","","","","","","","","",""
"","image-keyboard-response","234","198420","0.0-318.0","3CFVK00FWM7JPYSCPX6IWDRQJUBL6X","A2OWFJJ8YEKBF1","3I7KR83SNAZT1REYB2SRC49PCEEK9H","","390","img/food1.png","76","391.59999990463257","3","1","","3","1","1,0.5,0,1,0.5,0,0.5,0,1","0.5,0,1,0.5,0,1,0,1,0.5","2",""
"","html-keyboard-response","235","198724","0.0-319.0","3CFVK00FWM7JPYSCPX6IWDRQJUBL6X","A2OWFJJ8YEKBF1","3I7KR83SNAZT1REYB2SRC49PCEEK9H","","null","<img src=""img/food1.png"" style=""width:200px; border:14px solid green;"">","null","","","","","","","","","",""
"","image-keyboard-response","236","199089","0.0-320.0","3CFVK00FWM7JPYSCPX6IWDRQJUBL6X","A2OWFJJ8YEKBF1","3I7KR83SNAZT1REYB2SRC49PCEEK9H","","362.39999997615814","img/food1.png","76","364.1999999284744","3","1","","3","1","1,0.5,0,1,0.5,0,0.5,0,1","0.5,0,1,0.5,0,1,0,1,0.5","2",""
"","html-keyboard-response","237","199391","0.0-321.0","3CFVK00FWM7JPYSCPX6IWDRQJUBL6X","A2OWFJJ8YEKBF1","3I7KR83SNAZT1REYB2SRC49PCEEK9H","","null","<img src=""img/food1.png"" style=""width:200px; border:14px solid green;"">","null","","","","","","","","","",""
"","image-keyboard-response","238","199713","0.0-322.0","3CFVK00FWM7JPYSCPX6IWDRQJUBL6X","A2OWFJJ8YEKBF1","3I7KR83SNAZT1REYB2SRC49PCEEK9H","","320.5","img/food1.png","76","321.5","3","1","","3","1","1,0.5,0,1,0.5,0,0.5,0,1","0.5,0,1,0.5,0,1,0,1,0.5","2",""
"","html-keyboard-response","239","200017","0.0-323.0","3CFVK00FWM7JPYSCPX6IWDRQJUBL6X","A2OWFJJ8YEKBF1","3I7KR83SNAZT1REYB2SRC49PCEEK9H","","null","<img src=""img/food1.png"" style=""width:200px; border:14px solid green;"">","null","","","","","","","","","",""
"","image-keyboard-response","240","200742","0.0-324.0","3CFVK00FWM7JPYSCPX6IWDRQJUBL6X","A2OWFJJ8YEKBF1","3I7KR83SNAZT1REYB2SRC49PCEEK9H","","722.5","img/food4.png","76","724.1999999284744","3","1","","1","1","1,0.5,0,1,0.5,0,0.5,0,1","0.5,0,1,0.5,0,1,0,1,0.5","2",""
"","html-keyboard-response","241","201045","0.0-325.0","3CFVK00FWM7JPYSCPX6IWDRQJUBL6X","A2OWFJJ8YEKBF1","3I7KR83SNAZT1REYB2SRC49PCEEK9H","","null","<img src=""img/food4.png"" style=""width:200px; border:14px solid green;"">","null","","","","","","","","","",""
"","image-keyboard-response","242","201675","0.0-326.0","3CFVK00FWM7JPYSCPX6IWDRQJUBL6X","A2OWFJJ8YEKBF1","3I7KR83SNAZT1REYB2SRC49PCEEK9H","","629.1000000238419","img/food1.png","76","629.7999999523163","3","0","","3","1","1,0.5,0,1,0.5,0,0.5,0,1","0.5,0,1,0.5,0,1,0,1,0.5","2",""
"","html-keyboard-response","243","201980","0.0-327.0","3CFVK00FWM7JPYSCPX6IWDRQJUBL6X","A2OWFJJ8YEKBF1","3I7KR83SNAZT1REYB2SRC49PCEEK9H","","null","<img src=""img/food1.png"" style=""width:200px;border:14px solid red;"">","null","","","","","","","","","",""
"","image-keyboard-response","244","203343","0.0-328.0","3CFVK00FWM7JPYSCPX6IWDRQJUBL6X","A2OWFJJ8YEKBF1","3I7KR83SNAZT1REYB2SRC49PCEEK9H","","1360.5","img/food4.png","76","1362","3","1","","1","1","1,0.5,0,1,0.5,0,0.5,0,1","0.5,0,1,0.5,0,1,0,1,0.5","2",""
"","html-keyboard-response","245","203646","0.0-329.0","3CFVK00FWM7JPYSCPX6IWDRQJUBL6X","A2OWFJJ8YEKBF1","3I7KR83SNAZT1REYB2SRC49PCEEK9H","","null","<img src=""img/food4.png"" style=""width:200px; border:14px solid green;"">","null","","","","","","","","","",""
"","image-keyboard-response","246","204102","0.0-330.0","3CFVK00FWM7JPYSCPX6IWDRQJUBL6X","A2OWFJJ8YEKBF1","3I7KR83SNAZT1REYB2SRC49PCEEK9H","","454.59999990463257","img/food4.png","76","455.7000000476837","3","1","","1","1","1,0.5,0,1,0.5,0,0.5,0,1","0.5,0,1,0.5,0,1,0,1,0.5","2",""
"","html-keyboard-response","247","204405","0.0-331.0","3CFVK00FWM7JPYSCPX6IWDRQJUBL6X","A2OWFJJ8YEKBF1","3I7KR83SNAZT1REYB2SRC49PCEEK9H","","null","<img src=""img/food4.png"" style=""width:200px; border:14px solid green;"">","null","","","","","","","","","",""
"","image-keyboard-response","248","204948","0.0-332.0","3CFVK00FWM7JPYSCPX6IWDRQJUBL6X","A2OWFJJ8YEKBF1","3I7KR83SNAZT1REYB2SRC49PCEEK9H","","541.7999999523163","img/food4.png","76","542.3000000715256","3","1","","1","1","1,0.5,0,1,0.5,0,0.5,0,1","0.5,0,1,0.5,0,1,0,1,0.5","2",""
"","html-keyboard-response","249","205254","0.0-333.0","3CFVK00FWM7JPYSCPX6IWDRQJUBL6X","A2OWFJJ8YEKBF1","3I7KR83SNAZT1REYB2SRC49PCEEK9H","","null","<img src=""img/food4.png"" style=""width:200px; border:14px solid green;"">","null","","","","","","","","","",""
"","image-keyboard-response","250","205645","0.0-334.0","3CFVK00FWM7JPYSCPX6IWDRQJUBL6X","A2OWFJJ8YEKBF1","3I7KR83SNAZT1REYB2SRC49PCEEK9H","","390.60000002384186","img/food4.png","75","391.2000000476837","2","0","","1","1","1,0.5,0,1,0.5,0,0.5,0,1","0.5,0,1,0.5,0,1,0,1,0.5","2",""
"","html-keyboard-response","251","205951","0.0-335.0","3CFVK00FWM7JPYSCPX6IWDRQJUBL6X","A2OWFJJ8YEKBF1","3I7KR83SNAZT1REYB2SRC49PCEEK9H","","null","<img src=""img/food4.png"" style=""width:200px;border:14px solid red;"">","null","","","","","","","","","",""
"","image-keyboard-response","252","206210","0.0-336.0","3CFVK00FWM7JPYSCPX6IWDRQJUBL6X","A2OWFJJ8YEKBF1","3I7KR83SNAZT1REYB2SRC49PCEEK9H","","257.5","img/food3.png","76","258.7000000476837","3","1","","2","1","1,0.5,0,1,0.5,0,0.5,0,1","0.5,0,1,0.5,0,1,0,1,0.5","2",""
"","html-keyboard-response","253","206514","0.0-337.0","3CFVK00FWM7JPYSCPX6IWDRQJUBL6X","A2OWFJJ8YEKBF1","3I7KR83SNAZT1REYB2SRC49PCEEK9H","","null","<img src=""img/food3.png"" style=""width:200px; border:14px solid green;"">","null","","","","","","","","","",""
"","image-keyboard-response","254","207444","0.0-338.0","3CFVK00FWM7JPYSCPX6IWDRQJUBL6X","A2OWFJJ8YEKBF1","3I7KR83SNAZT1REYB2SRC49PCEEK9H","","926.8999999761581","img/food4.png","76","928.7000000476837","3","1","","1","1","1,0.5,0,1,0.5,0,0.5,0,1","0.5,0,1,0.5,0,1,0,1,0.5","2",""
"","html-keyboard-response","255","207750","0.0-339.0","3CFVK00FWM7JPYSCPX6IWDRQJUBL6X","A2OWFJJ8YEKBF1","3I7KR83SNAZT1REYB2SRC49PCEEK9H","","null","<img src=""img/food4.png"" style=""width:200px; border:14px solid green;"">","null","","","","","","","","","",""
"","image-keyboard-response","256","208365","0.0-340.0","3CFVK00FWM7JPYSCPX6IWDRQJUBL6X","A2OWFJJ8YEKBF1","3I7KR83SNAZT1REYB2SRC49PCEEK9H","","613.8000000715256","img/food3.png","75","614.7999999523163","2","0","","2","1","1,0.5,0,1,0.5,0,0.5,0,1","0.5,0,1,0.5,0,1,0,1,0.5","2",""
"","html-keyboard-response","257","208667","0.0-341.0","3CFVK00FWM7JPYSCPX6IWDRQJUBL6X","A2OWFJJ8YEKBF1","3I7KR83SNAZT1REYB2SRC49PCEEK9H","","null","<img src=""img/food3.png"" style=""width:200px;border:14px solid red;"">","null","","","","","","","","","",""
"","image-keyboard-response","258","209428","0.0-342.0","3CFVK00FWM7JPYSCPX6IWDRQJUBL6X","A2OWFJJ8YEKBF1","3I7KR83SNAZT1REYB2SRC49PCEEK9H","","759.8999999761581","img/food4.png","76","760.5","3","1","","1","1","1,0.5,0,1,0.5,0,0.5,0,1","0.5,0,1,0.5,0,1,0,1,0.5","2",""
"","html-keyboard-response","259","209730","0.0-343.0","3CFVK00FWM7JPYSCPX6IWDRQJUBL6X","A2OWFJJ8YEKBF1","3I7KR83SNAZT1REYB2SRC49PCEEK9H","","null","<img src=""img/food4.png"" style=""width:200px; border:14px solid green;"">","null","","","","","","","","","",""
"","image-keyboard-response","260","210539","0.0-344.0","3CFVK00FWM7JPYSCPX6IWDRQJUBL6X","A2OWFJJ8YEKBF1","3I7KR83SNAZT1REYB2SRC49PCEEK9H","","807","img/food3.png","74","808.6999999284744","1","1","","2","1","1,0.5,0,1,0.5,0,0.5,0,1","0.5,0,1,0.5,0,1,0,1,0.5","2",""
"","html-keyboard-response","261","210844","0.0-345.0","3CFVK00FWM7JPYSCPX6IWDRQJUBL6X","A2OWFJJ8YEKBF1","3I7KR83SNAZT1REYB2SRC49PCEEK9H","","null","<img src=""img/food3.png"" style=""width:200px; border:14px solid green;"">","null","","","","","","","","","",""
"","image-keyboard-response","262","212436","0.0-346.0","3CFVK00FWM7JPYSCPX6IWDRQJUBL6X","A2OWFJJ8YEKBF1","3I7KR83SNAZT1REYB2SRC49PCEEK9H","","1589","img/food1.png","76","1590.8999999761581","3","0","","3","1","1,0.5,0,1,0.5,0,0.5,0,1","0.5,0,1,0.5,0,1,0,1,0.5","2",""
"","html-keyboard-response","263","212742","0.0-347.0","3CFVK00FWM7JPYSCPX6IWDRQJUBL6X","A2OWFJJ8YEKBF1","3I7KR83SNAZT1REYB2SRC49PCEEK9H","","null","<img src=""img/food1.png"" style=""width:200px;border:14px solid red;"">","null","","","","","","","","","",""
"","image-keyboard-response","264","213657","0.0-348.0","3CFVK00FWM7JPYSCPX6IWDRQJUBL6X","A2OWFJJ8YEKBF1","3I7KR83SNAZT1REYB2SRC49PCEEK9H","","914.2999999523163","img/food1.png","75","914.8000000715256","2","1","","3","1","1,0.5,0,1,0.5,0,0.5,0,1","0.5,0,1,0.5,0,1,0,1,0.5","2",""
"","html-keyboard-response","265","213961","0.0-349.0","3CFVK00FWM7JPYSCPX6IWDRQJUBL6X","A2OWFJJ8YEKBF1","3I7KR83SNAZT1REYB2SRC49PCEEK9H","","null","<img src=""img/food1.png"" style=""width:200px; border:14px solid green;"">","null","","","","","","","","","",""
"","image-keyboard-response","266","214785","0.0-350.0","3CFVK00FWM7JPYSCPX6IWDRQJUBL6X","A2OWFJJ8YEKBF1","3I7KR83SNAZT1REYB2SRC49PCEEK9H","","821.3000000715256","img/food3.png","74","823","1","0","","2","1","1,0.5,0,1,0.5,0,0.5,0,1","0.5,0,1,0.5,0,1,0,1,0.5","2",""
"","html-keyboard-response","267","215088","0.0-351.0","3CFVK00FWM7JPYSCPX6IWDRQJUBL6X","A2OWFJJ8YEKBF1","3I7KR83SNAZT1REYB2SRC49PCEEK9H","","null","<img src=""img/food3.png"" style=""width:200px;border:14px solid red;"">","null","","","","","","","","","",""
"","image-keyboard-response","268","216177","0.0-352.0","3CFVK00FWM7JPYSCPX6IWDRQJUBL6X","A2OWFJJ8YEKBF1","3I7KR83SNAZT1REYB2SRC49PCEEK9H","","1087.7999999523163","img/food1.png","75","1088.5","2","1","","3","1","1,0.5,0,1,0.5,0,0.5,0,1","0.5,0,1,0.5,0,1,0,1,0.5","2",""
"","html-keyboard-response","269","216480","0.0-353.0","3CFVK00FWM7JPYSCPX6IWDRQJUBL6X","A2OWFJJ8YEKBF1","3I7KR83SNAZT1REYB2SRC49PCEEK9H","","null","<img src=""img/food1.png"" style=""width:200px; border:14px solid green;"">","null","","","","","","","","","",""
"","image-keyboard-response","270","217349","0.0-354.0","3CFVK00FWM7JPYSCPX6IWDRQJUBL6X","A2OWFJJ8YEKBF1","3I7KR83SNAZT1REYB2SRC49PCEEK9H","","866.6000000238419","img/food4.png","76","868.2999999523163","3","1","","1","1","1,0.5,0,1,0.5,0,0.5,0,1","0.5,0,1,0.5,0,1,0,1,0.5","2",""
"","html-keyboard-response","271","217652","0.0-355.0","3CFVK00FWM7JPYSCPX6IWDRQJUBL6X","A2OWFJJ8YEKBF1","3I7KR83SNAZT1REYB2SRC49PCEEK9H","","null","<img src=""img/food4.png"" style=""width:200px; border:14px solid green;"">","null","","","","","","","","","",""
"","image-keyboard-response","272","218595","0.0-356.0","3CFVK00FWM7JPYSCPX6IWDRQJUBL6X","A2OWFJJ8YEKBF1","3I7KR83SNAZT1REYB2SRC49PCEEK9H","","940.6999999284744","img/food1.png","75","942","2","1","","3","1","1,0.5,0,1,0.5,0,0.5,0,1","0.5,0,1,0.5,0,1,0,1,0.5","2",""
"","html-keyboard-response","273","218901","0.0-357.0","3CFVK00FWM7JPYSCPX6IWDRQJUBL6X","A2OWFJJ8YEKBF1","3I7KR83SNAZT1REYB2SRC49PCEEK9H","","null","<img src=""img/food1.png"" style=""width:200px; border:14px solid green;"">","null","","","","","","","","","",""
"","image-keyboard-response","274","219511","0.0-358.0","3CFVK00FWM7JPYSCPX6IWDRQJUBL6X","A2OWFJJ8YEKBF1","3I7KR83SNAZT1REYB2SRC49PCEEK9H","","607.1999999284744","img/food4.png","75","608.6000000238419","2","0","","1","1","1,0.5,0,1,0.5,0,0.5,0,1","0.5,0,1,0.5,0,1,0,1,0.5","2",""
"","html-keyboard-response","275","219813","0.0-359.0","3CFVK00FWM7JPYSCPX6IWDRQJUBL6X","A2OWFJJ8YEKBF1","3I7KR83SNAZT1REYB2SRC49PCEEK9H","","null","<img src=""img/food4.png"" style=""width:200px;border:14px solid red;"">","null","","","","","","","","","",""
"","image-keyboard-response","276","220145","0.0-360.0","3CFVK00FWM7JPYSCPX6IWDRQJUBL6X","A2OWFJJ8YEKBF1","3I7KR83SNAZT1REYB2SRC49PCEEK9H","","330.09999990463257","img/food1.png","76","331.60000002384186","3","1","","3","1","1,0.5,0,1,0.5,0,0.5,0,1","0.5,0,1,0.5,0,1,0,1,0.5","2",""
"","html-keyboard-response","277","220451","0.0-361.0","3CFVK00FWM7JPYSCPX6IWDRQJUBL6X","A2OWFJJ8YEKBF1","3I7KR83SNAZT1REYB2SRC49PCEEK9H","","null","<img src=""img/food1.png"" style=""width:200px; border:14px solid green;"">","null","","","","","","","","","",""
"","image-keyboard-response","278","221096","0.0-362.0","3CFVK00FWM7JPYSCPX6IWDRQJUBL6X","A2OWFJJ8YEKBF1","3I7KR83SNAZT1REYB2SRC49PCEEK9H","","643.5","img/food1.png","75","644.7000000476837","2","1","","3","1","1,0.5,0,1,0.5,0,0.5,0,1","0.5,0,1,0.5,0,1,0,1,0.5","2",""
"","html-keyboard-response","279","221400","0.0-363.0","3CFVK00FWM7JPYSCPX6IWDRQJUBL6X","A2OWFJJ8YEKBF1","3I7KR83SNAZT1REYB2SRC49PCEEK9H","","null","<img src=""img/food1.png"" style=""width:200px; border:14px solid green;"">","null","","","","","","","","","",""
"","image-keyboard-response","280","221957","0.0-364.0","3CFVK00FWM7JPYSCPX6IWDRQJUBL6X","A2OWFJJ8YEKBF1","3I7KR83SNAZT1REYB2SRC49PCEEK9H","","554.3000000715256","img/food1.png","75","555.7999999523163","2","1","","3","1","1,0.5,0,1,0.5,0,0.5,0,1","0.5,0,1,0.5,0,1,0,1,0.5","2",""
"","html-keyboard-response","281","222262","0.0-365.0","3CFVK00FWM7JPYSCPX6IWDRQJUBL6X","A2OWFJJ8YEKBF1","3I7KR83SNAZT1REYB2SRC49PCEEK9H","","null","<img src=""img/food1.png"" style=""width:200px; border:14px solid green;"">","null","","","","","","","","","",""
"","image-keyboard-response","282","222964","0.0-366.0","3CFVK00FWM7JPYSCPX6IWDRQJUBL6X","A2OWFJJ8YEKBF1","3I7KR83SNAZT1REYB2SRC49PCEEK9H","","700.1000000238419","img/food3.png","74","701.5","1","1","","2","1","1,0.5,0,1,0.5,0,0.5,0,1","0.5,0,1,0.5,0,1,0,1,0.5","2",""
"","html-keyboard-response","283","223266","0.0-367.0","3CFVK00FWM7JPYSCPX6IWDRQJUBL6X","A2OWFJJ8YEKBF1","3I7KR83SNAZT1REYB2SRC49PCEEK9H","","null","<img src=""img/food3.png"" style=""width:200px; border:14px solid green;"">","null","","","","","","","","","",""
"","image-keyboard-response","284","223746","0.0-368.0","3CFVK00FWM7JPYSCPX6IWDRQJUBL6X","A2OWFJJ8YEKBF1","3I7KR83SNAZT1REYB2SRC49PCEEK9H","","477.2999999523163","img/food3.png","74","478.7000000476837","1","1","","2","1","1,0.5,0,1,0.5,0,0.5,0,1","0.5,0,1,0.5,0,1,0,1,0.5","2",""
"","html-keyboard-response","285","224050","0.0-369.0","3CFVK00FWM7JPYSCPX6IWDRQJUBL6X","A2OWFJJ8YEKBF1","3I7KR83SNAZT1REYB2SRC49PCEEK9H","","null","<img src=""img/food3.png"" style=""width:200px; border:14px solid green;"">","null","","","","","","","","","",""
"","image-keyboard-response","286","224426","0.0-370.0","3CFVK00FWM7JPYSCPX6IWDRQJUBL6X","A2OWFJJ8YEKBF1","3I7KR83SNAZT1REYB2SRC49PCEEK9H","","373.5","img/food3.png","74","375.2000000476837","1","1","","2","1","1,0.5,0,1,0.5,0,0.5,0,1","0.5,0,1,0.5,0,1,0,1,0.5","2",""
"","html-keyboard-response","287","224729","0.0-371.0","3CFVK00FWM7JPYSCPX6IWDRQJUBL6X","A2OWFJJ8YEKBF1","3I7KR83SNAZT1REYB2SRC49PCEEK9H","","null","<img src=""img/food3.png"" style=""width:200px; border:14px solid green;"">","null","","","","","","","","","",""
"","image-keyboard-response","288","225552","0.0-372.0","3CFVK00FWM7JPYSCPX6IWDRQJUBL6X","A2OWFJJ8YEKBF1","3I7KR83SNAZT1REYB2SRC49PCEEK9H","","820.7000000476837","img/food4.png","75","821.9000000953674","2","0","","1","1","1,0.5,0,1,0.5,0,0.5,0,1","0.5,0,1,0.5,0,1,0,1,0.5","2",""
"","html-keyboard-response","289","225855","0.0-373.0","3CFVK00FWM7JPYSCPX6IWDRQJUBL6X","A2OWFJJ8YEKBF1","3I7KR83SNAZT1REYB2SRC49PCEEK9H","","null","<img src=""img/food4.png"" style=""width:200px;border:14px solid red;"">","null","","","","","","","","","",""
"","image-keyboard-response","290","226098","0.0-374.0","3CFVK00FWM7JPYSCPX6IWDRQJUBL6X","A2OWFJJ8YEKBF1","3I7KR83SNAZT1REYB2SRC49PCEEK9H","","240.39999997615814","img/food1.png","76","242","3","0","","3","1","1,0.5,0,1,0.5,0,0.5,0,1","0.5,0,1,0.5,0,1,0,1,0.5","2",""
"","html-keyboard-response","291","226401","0.0-375.0","3CFVK00FWM7JPYSCPX6IWDRQJUBL6X","A2OWFJJ8YEKBF1","3I7KR83SNAZT1REYB2SRC49PCEEK9H","","null","<img src=""img/food1.png"" style=""width:200px;border:14px solid red;"">","null","","","","","","","","","",""
"","image-keyboard-response","292","227258","0.0-376.0","3CFVK00FWM7JPYSCPX6IWDRQJUBL6X","A2OWFJJ8YEKBF1","3I7KR83SNAZT1REYB2SRC49PCEEK9H","","854.3999999761581","img/food3.png","74","856.1000000238419","1","0","","2","1","1,0.5,0,1,0.5,0,0.5,0,1","0.5,0,1,0.5,0,1,0,1,0.5","2",""
"","html-keyboard-response","293","227560","0.0-377.0","3CFVK00FWM7JPYSCPX6IWDRQJUBL6X","A2OWFJJ8YEKBF1","3I7KR83SNAZT1REYB2SRC49PCEEK9H","","null","<img src=""img/food3.png"" style=""width:200px;border:14px solid red;"">","null","","","","","","","","","",""
"","image-keyboard-response","294","228635","0.0-378.0","3CFVK00FWM7JPYSCPX6IWDRQJUBL6X","A2OWFJJ8YEKBF1","3I7KR83SNAZT1REYB2SRC49PCEEK9H","","1073.6000000238419","img/food1.png","75","1074.5","2","1","","3","1","1,0.5,0,1,0.5,0,0.5,0,1","0.5,0,1,0.5,0,1,0,1,0.5","2",""
"","html-keyboard-response","295","228938","0.0-379.0","3CFVK00FWM7JPYSCPX6IWDRQJUBL6X","A2OWFJJ8YEKBF1","3I7KR83SNAZT1REYB2SRC49PCEEK9H","","null","<img src=""img/food1.png"" style=""width:200px; border:14px solid green;"">","null","","","","","","","","","",""
"","image-keyboard-response","296","229960","0.0-380.0","3CFVK00FWM7JPYSCPX6IWDRQJUBL6X","A2OWFJJ8YEKBF1","3I7KR83SNAZT1REYB2SRC49PCEEK9H","","1020","img/food4.png","76","1021.8000000715256","3","1","","1","1","1,0.5,0,1,0.5,0,0.5,0,1","0.5,0,1,0.5,0,1,0,1,0.5","2",""
"","html-keyboard-response","297","230267","0.0-381.0","3CFVK00FWM7JPYSCPX6IWDRQJUBL6X","A2OWFJJ8YEKBF1","3I7KR83SNAZT1REYB2SRC49PCEEK9H","","null","<img src=""img/food4.png"" style=""width:200px; border:14px solid green;"">","null","","","","","","","","","",""
"","image-keyboard-response","298","230741","0.0-382.0","3CFVK00FWM7JPYSCPX6IWDRQJUBL6X","A2OWFJJ8YEKBF1","3I7KR83SNAZT1REYB2SRC49PCEEK9H","","470.7999999523163","img/food4.png","76","472.7000000476837","3","1","","1","1","1,0.5,0,1,0.5,0,0.5,0,1","0.5,0,1,0.5,0,1,0,1,0.5","2",""
"","html-keyboard-response","299","231044","0.0-383.0","3CFVK00FWM7JPYSCPX6IWDRQJUBL6X","A2OWFJJ8YEKBF1","3I7KR83SNAZT1REYB2SRC49PCEEK9H","","null","<img src=""img/food4.png"" style=""width:200px; border:14px solid green;"">","null","","","","","","","","","",""
"","image-keyboard-response","300","231949","0.0-384.0","3CFVK00FWM7JPYSCPX6IWDRQJUBL6X","A2OWFJJ8YEKBF1","3I7KR83SNAZT1REYB2SRC49PCEEK9H","","902.0999999046326","img/food3.png","74","903.5999999046326","1","1","","2","1","1,0.5,0,1,0.5,0,0.5,0,1","0.5,0,1,0.5,0,1,0,1,0.5","2",""
"","html-keyboard-response","301","232252","0.0-385.0","3CFVK00FWM7JPYSCPX6IWDRQJUBL6X","A2OWFJJ8YEKBF1","3I7KR83SNAZT1REYB2SRC49PCEEK9H","","null","<img src=""img/food3.png"" style=""width:200px; border:14px solid green;"">","null","","","","","","","","","",""
"","image-keyboard-response","302","233077","0.0-386.0","3CFVK00FWM7JPYSCPX6IWDRQJUBL6X","A2OWFJJ8YEKBF1","3I7KR83SNAZT1REYB2SRC49PCEEK9H","","823.2000000476837","img/food1.png","75","824.2999999523163","2","1","","3","1","1,0.5,0,1,0.5,0,0.5,0,1","0.5,0,1,0.5,0,1,0,1,0.5","2",""
"","html-keyboard-response","303","233384","0.0-387.0","3CFVK00FWM7JPYSCPX6IWDRQJUBL6X","A2OWFJJ8YEKBF1","3I7KR83SNAZT1REYB2SRC49PCEEK9H","","null","<img src=""img/food1.png"" style=""width:200px; border:14px solid green;"">","null","","","","","","","","","",""
"","image-keyboard-response","304","234176","0.0-388.0","3CFVK00FWM7JPYSCPX6IWDRQJUBL6X","A2OWFJJ8YEKBF1","3I7KR83SNAZT1REYB2SRC49PCEEK9H","","789.7000000476837","img/food4.png","76","791.6999999284744","3","1","","1","1","1,0.5,0,1,0.5,0,0.5,0,1","0.5,0,1,0.5,0,1,0,1,0.5","2",""
"","html-keyboard-response","305","234481","0.0-389.0","3CFVK00FWM7JPYSCPX6IWDRQJUBL6X","A2OWFJJ8YEKBF1","3I7KR83SNAZT1REYB2SRC49PCEEK9H","","null","<img src=""img/food4.png"" style=""width:200px; border:14px solid green;"">","null","","","","","","","","","",""
"","image-keyboard-response","306","235321","0.0-390.0","3CFVK00FWM7JPYSCPX6IWDRQJUBL6X","A2OWFJJ8YEKBF1","3I7KR83SNAZT1REYB2SRC49PCEEK9H","","837.1000000238419","img/food3.png","74","838.7000000476837","1","0","","2","1","1,0.5,0,1,0.5,0,0.5,0,1","0.5,0,1,0.5,0,1,0,1,0.5","2",""
"","html-keyboard-response","307","235624","0.0-391.0","3CFVK00FWM7JPYSCPX6IWDRQJUBL6X","A2OWFJJ8YEKBF1","3I7KR83SNAZT1REYB2SRC49PCEEK9H","","null","<img src=""img/food3.png"" style=""width:200px;border:14px solid red;"">","null","","","","","","","","","",""
"","image-keyboard-response","308","236328","0.0-392.0","3CFVK00FWM7JPYSCPX6IWDRQJUBL6X","A2OWFJJ8YEKBF1","3I7KR83SNAZT1REYB2SRC49PCEEK9H","","702.6000000238419","img/food3.png","74","703.3000000715256","1","0","","2","1","1,0.5,0,1,0.5,0,0.5,0,1","0.5,0,1,0.5,0,1,0,1,0.5","2",""
"","html-keyboard-response","309","236629","0.0-393.0","3CFVK00FWM7JPYSCPX6IWDRQJUBL6X","A2OWFJJ8YEKBF1","3I7KR83SNAZT1REYB2SRC49PCEEK9H","","null","<img src=""img/food3.png"" style=""width:200px;border:14px solid red;"">","null","","","","","","","","","",""
"","image-keyboard-response","310","237558","0.0-394.0","3CFVK00FWM7JPYSCPX6IWDRQJUBL6X","A2OWFJJ8YEKBF1","3I7KR83SNAZT1REYB2SRC49PCEEK9H","","926.1999999284744","img/food4.png","76","927.7000000476837","3","1","","1","1","1,0.5,0,1,0.5,0,0.5,0,1","0.5,0,1,0.5,0,1,0,1,0.5","2",""
"","html-keyboard-response","311","237860","0.0-395.0","3CFVK00FWM7JPYSCPX6IWDRQJUBL6X","A2OWFJJ8YEKBF1","3I7KR83SNAZT1REYB2SRC49PCEEK9H","","null","<img src=""img/food4.png"" style=""width:200px; border:14px solid green;"">","null","","","","","","","","","",""
"","image-keyboard-response","312","238272","0.0-396.0","3CFVK00FWM7JPYSCPX6IWDRQJUBL6X","A2OWFJJ8YEKBF1","3I7KR83SNAZT1REYB2SRC49PCEEK9H","","409.7000000476837","img/food4.png","76","411.60000002384186","3","1","","1","1","1,0.5,0,1,0.5,0,0.5,0,1","0.5,0,1,0.5,0,1,0,1,0.5","2",""
"","html-keyboard-response","313","238579","0.0-397.0","3CFVK00FWM7JPYSCPX6IWDRQJUBL6X","A2OWFJJ8YEKBF1","3I7KR83SNAZT1REYB2SRC49PCEEK9H","","null","<img src=""img/food4.png"" style=""width:200px; border:14px solid green;"">","null","","","","","","","","","",""
"","image-keyboard-response","314","238959","0.0-398.0","3CFVK00FWM7JPYSCPX6IWDRQJUBL6X","A2OWFJJ8YEKBF1","3I7KR83SNAZT1REYB2SRC49PCEEK9H","","379.1999999284744","img/food4.png","76","380.2000000476837","3","1","","1","1","1,0.5,0,1,0.5,0,0.5,0,1","0.5,0,1,0.5,0,1,0,1,0.5","2",""
"","html-keyboard-response","315","239262","0.0-399.0","3CFVK00FWM7JPYSCPX6IWDRQJUBL6X","A2OWFJJ8YEKBF1","3I7KR83SNAZT1REYB2SRC49PCEEK9H","","null","<img src=""img/food4.png"" style=""width:200px; border:14px solid green;"">","null","","","","","","","","","",""
"","image-keyboard-response","316","240103","0.0-400.0","3CFVK00FWM7JPYSCPX6IWDRQJUBL6X","A2OWFJJ8YEKBF1","3I7KR83SNAZT1REYB2SRC49PCEEK9H","","837.8999999761581","img/food3.png","74","839.7999999523163","1","1","","2","1","1,0.5,0,1,0.5,0,0.5,0,1","0.5,0,1,0.5,0,1,0,1,0.5","2",""
"","html-keyboard-response","317","240407","0.0-401.0","3CFVK00FWM7JPYSCPX6IWDRQJUBL6X","A2OWFJJ8YEKBF1","3I7KR83SNAZT1REYB2SRC49PCEEK9H","","null","<img src=""img/food3.png"" style=""width:200px; border:14px solid green;"">","null","","","","","","","","","",""
"","image-keyboard-response","318","240782","0.0-402.0","3CFVK00FWM7JPYSCPX6IWDRQJUBL6X","A2OWFJJ8YEKBF1","3I7KR83SNAZT1REYB2SRC49PCEEK9H","","372.2999999523163","img/food3.png","74","374.2000000476837","1","1","","2","1","1,0.5,0,1,0.5,0,0.5,0,1","0.5,0,1,0.5,0,1,0,1,0.5","2",""
"","html-keyboard-response","319","241086","0.0-403.0","3CFVK00FWM7JPYSCPX6IWDRQJUBL6X","A2OWFJJ8YEKBF1","3I7KR83SNAZT1REYB2SRC49PCEEK9H","","null","<img src=""img/food3.png"" style=""width:200px; border:14px solid green;"">","null","","","","","","","","","",""
"","image-keyboard-response","320","241826","0.0-404.0","3CFVK00FWM7JPYSCPX6IWDRQJUBL6X","A2OWFJJ8YEKBF1","3I7KR83SNAZT1REYB2SRC49PCEEK9H","","737.2000000476837","img/food1.png","75","738.8999999761581","2","1","","3","1","1,0.5,0,1,0.5,0,0.5,0,1","0.5,0,1,0.5,0,1,0,1,0.5","2",""
"","html-keyboard-response","321","242130","0.0-405.0","3CFVK00FWM7JPYSCPX6IWDRQJUBL6X","A2OWFJJ8YEKBF1","3I7KR83SNAZT1REYB2SRC49PCEEK9H","","null","<img src=""img/food1.png"" style=""width:200px; border:14px solid green;"">","null","","","","","","","","","",""
"","image-keyboard-response","322","242775","0.0-406.0","3CFVK00FWM7JPYSCPX6IWDRQJUBL6X","A2OWFJJ8YEKBF1","3I7KR83SNAZT1REYB2SRC49PCEEK9H","","644","img/food4.png","76","645","3","1","","1","1","1,0.5,0,1,0.5,0,0.5,0,1","0.5,0,1,0.5,0,1,0,1,0.5","2",""
"","html-keyboard-response","323","243077","0.0-407.0","3CFVK00FWM7JPYSCPX6IWDRQJUBL6X","A2OWFJJ8YEKBF1","3I7KR83SNAZT1REYB2SRC49PCEEK9H","","null","<img src=""img/food4.png"" style=""width:200px; border:14px solid green;"">","null","","","","","","","","","",""
"","image-keyboard-response","324","243718","0.0-408.0","3CFVK00FWM7JPYSCPX6IWDRQJUBL6X","A2OWFJJ8YEKBF1","3I7KR83SNAZT1REYB2SRC49PCEEK9H","","639.8999999761581","img/food3.png","74","640.8000000715256","1","0","","2","1","1,0.5,0,1,0.5,0,0.5,0,1","0.5,0,1,0.5,0,1,0,1,0.5","2",""
"","html-keyboard-response","325","244022","0.0-409.0","3CFVK00FWM7JPYSCPX6IWDRQJUBL6X","A2OWFJJ8YEKBF1","3I7KR83SNAZT1REYB2SRC49PCEEK9H","","null","<img src=""img/food3.png"" style=""width:200px;border:14px solid red;"">","null","","","","","","","","","",""
"","image-keyboard-response","326","244777","0.0-410.0","3CFVK00FWM7JPYSCPX6IWDRQJUBL6X","A2OWFJJ8YEKBF1","3I7KR83SNAZT1REYB2SRC49PCEEK9H","","752.8000000715256","img/food4.png","76","754.1999999284744","3","1","","1","1","1,0.5,0,1,0.5,0,0.5,0,1","0.5,0,1,0.5,0,1,0,1,0.5","2",""
"","html-keyboard-response","327","245081","0.0-411.0","3CFVK00FWM7JPYSCPX6IWDRQJUBL6X","A2OWFJJ8YEKBF1","3I7KR83SNAZT1REYB2SRC49PCEEK9H","","null","<img src=""img/food4.png"" style=""width:200px; border:14px solid green;"">","null","","","","","","","","","",""
"","image-keyboard-response","328","246006","0.0-412.0","3CFVK00FWM7JPYSCPX6IWDRQJUBL6X","A2OWFJJ8YEKBF1","3I7KR83SNAZT1REYB2SRC49PCEEK9H","","922.5","img/food3.png","74","924.5999999046326","1","0","","2","1","1,0.5,0,1,0.5,0,0.5,0,1","0.5,0,1,0.5,0,1,0,1,0.5","2",""
"","html-keyboard-response","329","246310","0.0-413.0","3CFVK00FWM7JPYSCPX6IWDRQJUBL6X","A2OWFJJ8YEKBF1","3I7KR83SNAZT1REYB2SRC49PCEEK9H","","null","<img src=""img/food3.png"" style=""width:200px;border:14px solid red;"">","null","","","","","","","","","",""
"","image-keyboard-response","330","247054","0.0-414.0","3CFVK00FWM7JPYSCPX6IWDRQJUBL6X","A2OWFJJ8YEKBF1","3I7KR83SNAZT1REYB2SRC49PCEEK9H","","742.3999999761581","img/food1.png","75","743.4000000953674","2","1","","3","1","1,0.5,0,1,0.5,0,0.5,0,1","0.5,0,1,0.5,0,1,0,1,0.5","2",""
"","html-keyboard-response","331","247356","0.0-415.0","3CFVK00FWM7JPYSCPX6IWDRQJUBL6X","A2OWFJJ8YEKBF1","3I7KR83SNAZT1REYB2SRC49PCEEK9H","","null","<img src=""img/food1.png"" style=""width:200px; border:14px solid green;"">","null","","","","","","","","","",""
"","image-keyboard-response","332","247752","0.0-416.0","3CFVK00FWM7JPYSCPX6IWDRQJUBL6X","A2OWFJJ8YEKBF1","3I7KR83SNAZT1REYB2SRC49PCEEK9H","","393.5","img/food1.png","75","395.3000000715256","2","1","","3","1","1,0.5,0,1,0.5,0,0.5,0,1","0.5,0,1,0.5,0,1,0,1,0.5","2",""
"","html-keyboard-response","333","248058","0.0-417.0","3CFVK00FWM7JPYSCPX6IWDRQJUBL6X","A2OWFJJ8YEKBF1","3I7KR83SNAZT1REYB2SRC49PCEEK9H","","null","<img src=""img/food1.png"" style=""width:200px; border:14px solid green;"">","null","","","","","","","","","",""
"","image-keyboard-response","334","248850","0.0-418.0","3CFVK00FWM7JPYSCPX6IWDRQJUBL6X","A2OWFJJ8YEKBF1","3I7KR83SNAZT1REYB2SRC49PCEEK9H","","791.8999999761581","img/food4.png","76","792.3999999761581","3","1","","1","1","1,0.5,0,1,0.5,0,0.5,0,1","0.5,0,1,0.5,0,1,0,1,0.5","2",""
"","html-keyboard-response","335","249155","0.0-419.0","3CFVK00FWM7JPYSCPX6IWDRQJUBL6X","A2OWFJJ8YEKBF1","3I7KR83SNAZT1REYB2SRC49PCEEK9H","","null","<img src=""img/food4.png"" style=""width:200px; border:14px solid green;"">","null","","","","","","","","","",""
"","image-keyboard-response","336","249558","0.0-420.0","3CFVK00FWM7JPYSCPX6IWDRQJUBL6X","A2OWFJJ8YEKBF1","3I7KR83SNAZT1REYB2SRC49PCEEK9H","","401","img/food4.png","76","402.3000000715256","3","1","","1","1","1,0.5,0,1,0.5,0,0.5,0,1","0.5,0,1,0.5,0,1,0,1,0.5","2",""
"","html-keyboard-response","337","249863","0.0-421.0","3CFVK00FWM7JPYSCPX6IWDRQJUBL6X","A2OWFJJ8YEKBF1","3I7KR83SNAZT1REYB2SRC49PCEEK9H","","null","<img src=""img/food4.png"" style=""width:200px; border:14px solid green;"">","null","","","","","","","","","",""
"","image-keyboard-response","338","250558","0.0-422.0","3CFVK00FWM7JPYSCPX6IWDRQJUBL6X","A2OWFJJ8YEKBF1","3I7KR83SNAZT1REYB2SRC49PCEEK9H","","693.5999999046326","img/food1.png","75","694.7999999523163","2","1","","3","1","1,0.5,0,1,0.5,0,0.5,0,1","0.5,0,1,0.5,0,1,0,1,0.5","2",""
"","html-keyboard-response","339","250862","0.0-423.0","3CFVK00FWM7JPYSCPX6IWDRQJUBL6X","A2OWFJJ8YEKBF1","3I7KR83SNAZT1REYB2SRC49PCEEK9H","","null","<img src=""img/food1.png"" style=""width:200px; border:14px solid green;"">","null","","","","","","","","","",""
"","image-keyboard-response","340","251423","0.0-424.0","3CFVK00FWM7JPYSCPX6IWDRQJUBL6X","A2OWFJJ8YEKBF1","3I7KR83SNAZT1REYB2SRC49PCEEK9H","","559.1000000238419","img/food3.png","74","560.4000000953674","1","0","","2","1","1,0.5,0,1,0.5,0,0.5,0,1","0.5,0,1,0.5,0,1,0,1,0.5","2",""
"","html-keyboard-response","341","251726","0.0-425.0","3CFVK00FWM7JPYSCPX6IWDRQJUBL6X","A2OWFJJ8YEKBF1","3I7KR83SNAZT1REYB2SRC49PCEEK9H","","null","<img src=""img/food3.png"" style=""width:200px;border:14px solid red;"">","null","","","","","","","","","",""
"","image-keyboard-response","342","252207","0.0-426.0","3CFVK00FWM7JPYSCPX6IWDRQJUBL6X","A2OWFJJ8YEKBF1","3I7KR83SNAZT1REYB2SRC49PCEEK9H","","477.89999997615814","img/food3.png","74","479.5","1","0","","2","1","1,0.5,0,1,0.5,0,0.5,0,1","0.5,0,1,0.5,0,1,0,1,0.5","2",""
"","html-keyboard-response","343","252510","0.0-427.0","3CFVK00FWM7JPYSCPX6IWDRQJUBL6X","A2OWFJJ8YEKBF1","3I7KR83SNAZT1REYB2SRC49PCEEK9H","","null","<img src=""img/food3.png"" style=""width:200px;border:14px solid red;"">","null","","","","","","","","","",""
"","image-keyboard-response","344","252846","0.0-428.0","3CFVK00FWM7JPYSCPX6IWDRQJUBL6X","A2OWFJJ8YEKBF1","3I7KR83SNAZT1REYB2SRC49PCEEK9H","","335","img/food3.png","74","336.2999999523163","1","1","","2","1","1,0.5,0,1,0.5,0,0.5,0,1","0.5,0,1,0.5,0,1,0,1,0.5","2",""
"","html-keyboard-response","345","253149","0.0-429.0","3CFVK00FWM7JPYSCPX6IWDRQJUBL6X","A2OWFJJ8YEKBF1","3I7KR83SNAZT1REYB2SRC49PCEEK9H","","null","<img src=""img/food3.png"" style=""width:200px; border:14px solid green;"">","null","","","","","","","","","",""
"","image-keyboard-response","346","253473","0.0-430.0","3CFVK00FWM7JPYSCPX6IWDRQJUBL6X","A2OWFJJ8YEKBF1","3I7KR83SNAZT1REYB2SRC49PCEEK9H","","323.10000002384186","img/food3.png","74","323.89999997615814","1","1","","2","1","1,0.5,0,1,0.5,0,0.5,0,1","0.5,0,1,0.5,0,1,0,1,0.5","2",""
"","html-keyboard-response","347","253776","0.0-431.0","3CFVK00FWM7JPYSCPX6IWDRQJUBL6X","A2OWFJJ8YEKBF1","3I7KR83SNAZT1REYB2SRC49PCEEK9H","","null","<img src=""img/food3.png"" style=""width:200px; border:14px solid green;"">","null","","","","","","","","","",""
"","image-keyboard-response","348","254090","0.0-432.0","3CFVK00FWM7JPYSCPX6IWDRQJUBL6X","A2OWFJJ8YEKBF1","3I7KR83SNAZT1REYB2SRC49PCEEK9H","","310.7000000476837","img/food3.png","74","312.5","1","0","","2","1","1,0.5,0,1,0.5,0,0.5,0,1","0.5,0,1,0.5,0,1,0,1,0.5","2",""
"","html-keyboard-response","349","254397","0.0-433.0","3CFVK00FWM7JPYSCPX6IWDRQJUBL6X","A2OWFJJ8YEKBF1","3I7KR83SNAZT1REYB2SRC49PCEEK9H","","null","<img src=""img/food3.png"" style=""width:200px;border:14px solid red;"">","null","","","","","","","","","",""
"","image-keyboard-response","350","255241","0.0-434.0","3CFVK00FWM7JPYSCPX6IWDRQJUBL6X","A2OWFJJ8YEKBF1","3I7KR83SNAZT1REYB2SRC49PCEEK9H","","840.5999999046326","img/food1.png","75","842.6000000238419","2","1","","3","1","1,0.5,0,1,0.5,0,0.5,0,1","0.5,0,1,0.5,0,1,0,1,0.5","2",""
"","html-keyboard-response","351","255546","0.0-435.0","3CFVK00FWM7JPYSCPX6IWDRQJUBL6X","A2OWFJJ8YEKBF1","3I7KR83SNAZT1REYB2SRC49PCEEK9H","","null","<img src=""img/food1.png"" style=""width:200px; border:14px solid green;"">","null","","","","","","","","","",""
"","image-keyboard-response","352","256455","0.0-436.0","3CFVK00FWM7JPYSCPX6IWDRQJUBL6X","A2OWFJJ8YEKBF1","3I7KR83SNAZT1REYB2SRC49PCEEK9H","","908.3999999761581","img/food1.png","75","909","2","1","","3","1","1,0.5,0,1,0.5,0,0.5,0,1","0.5,0,1,0.5,0,1,0,1,0.5","2",""
"","html-keyboard-response","353","256757","0.0-437.0","3CFVK00FWM7JPYSCPX6IWDRQJUBL6X","A2OWFJJ8YEKBF1","3I7KR83SNAZT1REYB2SRC49PCEEK9H","","null","<img src=""img/food1.png"" style=""width:200px; border:14px solid green;"">","null","","","","","","","","","",""
"","image-keyboard-response","354","257745","0.0-438.0","3CFVK00FWM7JPYSCPX6IWDRQJUBL6X","A2OWFJJ8YEKBF1","3I7KR83SNAZT1REYB2SRC49PCEEK9H","","986","img/food3.png","74","987.5","1","1","","2","1","1,0.5,0,1,0.5,0,0.5,0,1","0.5,0,1,0.5,0,1,0,1,0.5","2",""
"","html-keyboard-response","355","258048","0.0-439.0","3CFVK00FWM7JPYSCPX6IWDRQJUBL6X","A2OWFJJ8YEKBF1","3I7KR83SNAZT1REYB2SRC49PCEEK9H","","null","<img src=""img/food3.png"" style=""width:200px; border:14px solid green;"">","null","","","","","","","","","",""
"","image-keyboard-response","356","258482","0.0-440.0","3CFVK00FWM7JPYSCPX6IWDRQJUBL6X","A2OWFJJ8YEKBF1","3I7KR83SNAZT1REYB2SRC49PCEEK9H","","431.39999997615814","img/food3.png","74","432.89999997615814","1","0","","2","1","1,0.5,0,1,0.5,0,0.5,0,1","0.5,0,1,0.5,0,1,0,1,0.5","2",""
"","html-keyboard-response","357","258785","0.0-441.0","3CFVK00FWM7JPYSCPX6IWDRQJUBL6X","A2OWFJJ8YEKBF1","3I7KR83SNAZT1REYB2SRC49PCEEK9H","","null","<img src=""img/food3.png"" style=""width:200px;border:14px solid red;"">","null","","","","","","","","","",""
"","image-keyboard-response","358","259448","0.0-442.0","3CFVK00FWM7JPYSCPX6IWDRQJUBL6X","A2OWFJJ8YEKBF1","3I7KR83SNAZT1REYB2SRC49PCEEK9H","","660.6000000238419","img/food1.png","75","662.2000000476837","2","1","","3","1","1,0.5,0,1,0.5,0,0.5,0,1","0.5,0,1,0.5,0,1,0,1,0.5","2",""
"","html-keyboard-response","359","259754","0.0-443.0","3CFVK00FWM7JPYSCPX6IWDRQJUBL6X","A2OWFJJ8YEKBF1","3I7KR83SNAZT1REYB2SRC49PCEEK9H","","null","<img src=""img/food1.png"" style=""width:200px; border:14px solid green;"">","null","","","","","","","","","",""
"","image-keyboard-response","360","260210","0.0-444.0","3CFVK00FWM7JPYSCPX6IWDRQJUBL6X","A2OWFJJ8YEKBF1","3I7KR83SNAZT1REYB2SRC49PCEEK9H","","454.2000000476837","img/food4.png","76","455.5","3","1","","1","1","1,0.5,0,1,0.5,0,0.5,0,1","0.5,0,1,0.5,0,1,0,1,0.5","2",""
"","html-keyboard-response","361","260515","0.0-445.0","3CFVK00FWM7JPYSCPX6IWDRQJUBL6X","A2OWFJJ8YEKBF1","3I7KR83SNAZT1REYB2SRC49PCEEK9H","","null","<img src=""img/food4.png"" style=""width:200px; border:14px solid green;"">","null","","","","","","","","","",""
"","image-keyboard-response","362","261210","0.0-446.0","3CFVK00FWM7JPYSCPX6IWDRQJUBL6X","A2OWFJJ8YEKBF1","3I7KR83SNAZT1REYB2SRC49PCEEK9H","","692.7999999523163","img/food3.png","74","694.2000000476837","1","1","","2","1","1,0.5,0,1,0.5,0,0.5,0,1","0.5,0,1,0.5,0,1,0,1,0.5","2",""
"","html-keyboard-response","363","261513","0.0-447.0","3CFVK00FWM7JPYSCPX6IWDRQJUBL6X","A2OWFJJ8YEKBF1","3I7KR83SNAZT1REYB2SRC49PCEEK9H","","null","<img src=""img/food3.png"" style=""width:200px; border:14px solid green;"">","null","","","","","","","","","",""
"","image-keyboard-response","364","261946","0.0-448.0","3CFVK00FWM7JPYSCPX6IWDRQJUBL6X","A2OWFJJ8YEKBF1","3I7KR83SNAZT1REYB2SRC49PCEEK9H","","432","img/food3.png","74","433","1","0","","2","1","1,0.5,0,1,0.5,0,0.5,0,1","0.5,0,1,0.5,0,1,0,1,0.5","2",""
"","html-keyboard-response","365","262251","0.0-449.0","3CFVK00FWM7JPYSCPX6IWDRQJUBL6X","A2OWFJJ8YEKBF1","3I7KR83SNAZT1REYB2SRC49PCEEK9H","","null","<img src=""img/food3.png"" style=""width:200px;border:14px solid red;"">","null","","","","","","","","","",""
"","image-keyboard-response","366","262514","0.0-450.0","3CFVK00FWM7JPYSCPX6IWDRQJUBL6X","A2OWFJJ8YEKBF1","3I7KR83SNAZT1REYB2SRC49PCEEK9H","","262","img/food1.png","76","263.09999990463257","3","1","","3","1","1,0.5,0,1,0.5,0,0.5,0,1","0.5,0,1,0.5,0,1,0,1,0.5","2",""
"","html-keyboard-response","367","262819","0.0-451.0","3CFVK00FWM7JPYSCPX6IWDRQJUBL6X","A2OWFJJ8YEKBF1","3I7KR83SNAZT1REYB2SRC49PCEEK9H","","null","<img src=""img/food1.png"" style=""width:200px; border:14px solid green;"">","null","","","","","","","","","",""
"","image-keyboard-response","368","263086","0.0-452.0","3CFVK00FWM7JPYSCPX6IWDRQJUBL6X","A2OWFJJ8YEKBF1","3I7KR83SNAZT1REYB2SRC49PCEEK9H","","263.6999999284744","img/food4.png","75","265.7000000476837","2","0","","1","1","1,0.5,0,1,0.5,0,0.5,0,1","0.5,0,1,0.5,0,1,0,1,0.5","2",""
"","html-keyboard-response","369","263394","0.0-453.0","3CFVK00FWM7JPYSCPX6IWDRQJUBL6X","A2OWFJJ8YEKBF1","3I7KR83SNAZT1REYB2SRC49PCEEK9H","","null","<img src=""img/food4.png"" style=""width:200px;border:14px solid red;"">","null","","","","","","","","","",""
"","html-keyboard-response","370","268268","0.0-454.0","3CFVK00FWM7JPYSCPX6IWDRQJUBL6X","A2OWFJJ8YEKBF1","3I7KR83SNAZT1REYB2SRC49PCEEK9H","","","","","","","","","","","","","",""
