"success","trial_type","trial_index","time_elapsed","internal_node_id","assignmentID","mturkID","hitID","view_history","rt","stimulus","key_press","reactionTime","a","r","warning","s","cond","reward_cond","reward_cond_actual","reward_matrix_idx","responses"
"true","fullscreen","0","3109","0.0-0.0","3YMU66OBIOUJ0VYSAP06GCB8WSMGH6","A2POU9TTW177VH","3RBI0I35XEP26UEZY8S8UZLEA1IY3E","","","","","","","","","","","","","",""
"","instructions","1","68178","0.0-1.0","3YMU66OBIOUJ0VYSAP06GCB8WSMGH6","A2POU9TTW177VH","3RBI0I35XEP26UEZY8S8UZLEA1IY3E","[{""page_index"":0,""viewing_time"":5422.199999988079},{""page_index"":1,""viewing_time"":2404.2000000178814},{""page_index"":2,""viewing_time"":6878.799999982119},{""page_index"":3,""viewing_time"":4017.9000000059605},{""page_index"":4,""viewing_time"":1953.5},{""page_index"":5,""viewing_time"":14810},{""page_index"":6,""viewing_time"":3873.9000000059605},{""page_index"":5,""viewing_time"":3190.199999988079},{""page_index"":4,""viewing_time"":1686.4000000059605},{""page_index"":3,""viewing_time"":2152},{""page_index"":2,""viewing_time"":3748},{""page_index"":1,""viewing_time"":2155.0999999940395},{""page_index"":0,""viewing_time"":2065.4000000059605},{""page_index"":1,""viewing_time"":1492.699999988079},{""page_index"":2,""viewing_time"":2089.600000023842},{""page_index"":3,""viewing_time"":4179.799999982119},{""page_index"":4,""viewing_time"":1121.7000000178814},{""page_index"":5,""viewing_time"":832.2999999821186},{""page_index"":6,""viewing_time"":983.9000000059605}]","65058.29999998212","","","","","","","","","","","",""
"","instructions","2","92157","0.0-2.0","3YMU66OBIOUJ0VYSAP06GCB8WSMGH6","A2POU9TTW177VH","3RBI0I35XEP26UEZY8S8UZLEA1IY3E","[{""page_index"":0,""viewing_time"":17593.30000001192},{""page_index"":1,""viewing_time"":6384.5}]","23978","","","","","","","","","","","",""
"","image-keyboard-response","3","92812","0.0-3.0","3YMU66OBIOUJ0VYSAP06GCB8WSMGH6","A2POU9TTW177VH","3RBI0I35XEP26UEZY8S8UZLEA1IY3E","","654.7999999821186","img/food2.png","74","655.5","1","0","false","2","2","1,0.5,0,1,0.5,0,0.5,0,1","0,1,0.5,0,1,0.5,1,0.5,0","3",""
"","html-keyboard-response","4","93114","0.0-4.0","3YMU66OBIOUJ0VYSAP06GCB8WSMGH6","A2POU9TTW177VH","3RBI0I35XEP26UEZY8S8UZLEA1IY3E","","null","<img src=""img/food2.png"" style=""width:200px;border:14px solid red;"">","null","","","","","","","","","",""
"","image-keyboard-response","5","93551","0.0-6.0","3YMU66OBIOUJ0VYSAP06GCB8WSMGH6","A2POU9TTW177VH","3RBI0I35XEP26UEZY8S8UZLEA1IY3E","","435.90000000596046","img/food2.png","75","436.60000002384186","2","1","false","2","2","1,0.5,0,1,0.5,0,0.5,0,1","0,1,0.5,0,1,0.5,1,0.5,0","3",""
"","html-keyboard-response","6","93852","0.0-7.0","3YMU66OBIOUJ0VYSAP06GCB8WSMGH6","A2POU9TTW177VH","3RBI0I35XEP26UEZY8S8UZLEA1IY3E","","null","<img src=""img/food2.png"" style=""width:200px; border:14px solid green;"">","null","","","","","","","","","",""
"","image-keyboard-response","7","94332","0.0-9.0","3YMU66OBIOUJ0VYSAP06GCB8WSMGH6","A2POU9TTW177VH","3RBI0I35XEP26UEZY8S8UZLEA1IY3E","","479.59999999403954","img/food2.png","75","480.09999999403954","2","1","false","2","2","1,0.5,0,1,0.5,0,0.5,0,1","0,1,0.5,0,1,0.5,1,0.5,0","3",""
"","html-keyboard-response","8","94634","0.0-10.0","3YMU66OBIOUJ0VYSAP06GCB8WSMGH6","A2POU9TTW177VH","3RBI0I35XEP26UEZY8S8UZLEA1IY3E","","null","<img src=""img/food2.png"" style=""width:200px; border:14px solid green;"">","null","","","","","","","","","",""
"","image-keyboard-response","9","95214","0.0-12.0","3YMU66OBIOUJ0VYSAP06GCB8WSMGH6","A2POU9TTW177VH","3RBI0I35XEP26UEZY8S8UZLEA1IY3E","","579.4000000059605","img/food1.png","76","580","3","1","false","1","2","1,0.5,0,1,0.5,0,0.5,0,1","0,1,0.5,0,1,0.5,1,0.5,0","3",""
"","html-keyboard-response","10","95515","0.0-13.0","3YMU66OBIOUJ0VYSAP06GCB8WSMGH6","A2POU9TTW177VH","3RBI0I35XEP26UEZY8S8UZLEA1IY3E","","null","<img src=""img/food1.png"" style=""width:200px; border:14px solid green;"">","null","","","","","","","","","",""
"","image-keyboard-response","11","95918","0.0-15.0","3YMU66OBIOUJ0VYSAP06GCB8WSMGH6","A2POU9TTW177VH","3RBI0I35XEP26UEZY8S8UZLEA1IY3E","","402","img/food1.png","76","403","3","1","false","1","2","1,0.5,0,1,0.5,0,0.5,0,1","0,1,0.5,0,1,0.5,1,0.5,0","3",""
"","html-keyboard-response","12","96220","0.0-16.0","3YMU66OBIOUJ0VYSAP06GCB8WSMGH6","A2POU9TTW177VH","3RBI0I35XEP26UEZY8S8UZLEA1IY3E","","null","<img src=""img/food1.png"" style=""width:200px; border:14px solid green;"">","null","","","","","","","","","",""
"","image-keyboard-response","13","96622","0.0-18.0","3YMU66OBIOUJ0VYSAP06GCB8WSMGH6","A2POU9TTW177VH","3RBI0I35XEP26UEZY8S8UZLEA1IY3E","","400.7999999821186","img/food1.png","76","401.59999999403954","3","0","false","1","2","1,0.5,0,1,0.5,0,0.5,0,1","0,1,0.5,0,1,0.5,1,0.5,0","3",""
"","html-keyboard-response","14","96924","0.0-19.0","3YMU66OBIOUJ0VYSAP06GCB8WSMGH6","A2POU9TTW177VH","3RBI0I35XEP26UEZY8S8UZLEA1IY3E","","null","<img src=""img/food1.png"" style=""width:200px;border:14px solid red;"">","null","","","","","","","","","",""
"","image-keyboard-response","15","97302","0.0-21.0","3YMU66OBIOUJ0VYSAP06GCB8WSMGH6","A2POU9TTW177VH","3RBI0I35XEP26UEZY8S8UZLEA1IY3E","","377.30000001192093","img/food1.png","76","378.09999999403954","3","0","false","1","2","1,0.5,0,1,0.5,0,0.5,0,1","0,1,0.5,0,1,0.5,1,0.5,0","3",""
"","html-keyboard-response","16","97604","0.0-22.0","3YMU66OBIOUJ0VYSAP06GCB8WSMGH6","A2POU9TTW177VH","3RBI0I35XEP26UEZY8S8UZLEA1IY3E","","null","<img src=""img/food1.png"" style=""width:200px;border:14px solid red;"">","null","","","","","","","","","",""
"","image-keyboard-response","17","98280","0.0-24.0","3YMU66OBIOUJ0VYSAP06GCB8WSMGH6","A2POU9TTW177VH","3RBI0I35XEP26UEZY8S8UZLEA1IY3E","","675.2000000178814","img/food2.png","75","676","2","1","false","2","2","1,0.5,0,1,0.5,0,0.5,0,1","0,1,0.5,0,1,0.5,1,0.5,0","3",""
"","html-keyboard-response","18","98581","0.0-25.0","3YMU66OBIOUJ0VYSAP06GCB8WSMGH6","A2POU9TTW177VH","3RBI0I35XEP26UEZY8S8UZLEA1IY3E","","null","<img src=""img/food2.png"" style=""width:200px; border:14px solid green;"">","null","","","","","","","","","",""
"","image-keyboard-response","19","99199","0.0-27.0","3YMU66OBIOUJ0VYSAP06GCB8WSMGH6","A2POU9TTW177VH","3RBI0I35XEP26UEZY8S8UZLEA1IY3E","","616.6999999880791","img/food1.png","76","617.5","3","0","false","1","2","1,0.5,0,1,0.5,0,0.5,0,1","0,1,0.5,0,1,0.5,1,0.5,0","3",""
"","html-keyboard-response","20","99501","0.0-28.0","3YMU66OBIOUJ0VYSAP06GCB8WSMGH6","A2POU9TTW177VH","3RBI0I35XEP26UEZY8S8UZLEA1IY3E","","null","<img src=""img/food1.png"" style=""width:200px;border:14px solid red;"">","null","","","","","","","","","",""
"","image-keyboard-response","21","100192","0.0-30.0","3YMU66OBIOUJ0VYSAP06GCB8WSMGH6","A2POU9TTW177VH","3RBI0I35XEP26UEZY8S8UZLEA1IY3E","","690","img/food3.png","75","690.8000000119209","2","1","false","3","2","1,0.5,0,1,0.5,0,0.5,0,1","0,1,0.5,0,1,0.5,1,0.5,0","3",""
"","html-keyboard-response","22","100494","0.0-31.0","3YMU66OBIOUJ0VYSAP06GCB8WSMGH6","A2POU9TTW177VH","3RBI0I35XEP26UEZY8S8UZLEA1IY3E","","null","<img src=""img/food3.png"" style=""width:200px; border:14px solid green;"">","null","","","","","","","","","",""
"","image-keyboard-response","23","100813","0.0-33.0","3YMU66OBIOUJ0VYSAP06GCB8WSMGH6","A2POU9TTW177VH","3RBI0I35XEP26UEZY8S8UZLEA1IY3E","","317.59999999403954","img/food3.png","75","318.30000001192093","2","1","false","3","2","1,0.5,0,1,0.5,0,0.5,0,1","0,1,0.5,0,1,0.5,1,0.5,0","3",""
"","html-keyboard-response","24","101114","0.0-34.0","3YMU66OBIOUJ0VYSAP06GCB8WSMGH6","A2POU9TTW177VH","3RBI0I35XEP26UEZY8S8UZLEA1IY3E","","null","<img src=""img/food3.png"" style=""width:200px; border:14px solid green;"">","null","","","","","","","","","",""
"","image-keyboard-response","25","101457","0.0-36.0","3YMU66OBIOUJ0VYSAP06GCB8WSMGH6","A2POU9TTW177VH","3RBI0I35XEP26UEZY8S8UZLEA1IY3E","","341.80000001192093","img/food3.png","75","342.69999998807907","2","0","false","3","2","1,0.5,0,1,0.5,0,0.5,0,1","0,1,0.5,0,1,0.5,1,0.5,0","3",""
"","html-keyboard-response","26","101759","0.0-37.0","3YMU66OBIOUJ0VYSAP06GCB8WSMGH6","A2POU9TTW177VH","3RBI0I35XEP26UEZY8S8UZLEA1IY3E","","null","<img src=""img/food3.png"" style=""width:200px;border:14px solid red;"">","null","","","","","","","","","",""
"","image-keyboard-response","27","102425","0.0-39.0","3YMU66OBIOUJ0VYSAP06GCB8WSMGH6","A2POU9TTW177VH","3RBI0I35XEP26UEZY8S8UZLEA1IY3E","","665.1999999880791","img/food1.png","76","666.1999999880791","3","0","false","1","2","1,0.5,0,1,0.5,0,0.5,0,1","0,1,0.5,0,1,0.5,1,0.5,0","3",""
"","html-keyboard-response","28","102728","0.0-40.0","3YMU66OBIOUJ0VYSAP06GCB8WSMGH6","A2POU9TTW177VH","3RBI0I35XEP26UEZY8S8UZLEA1IY3E","","null","<img src=""img/food1.png"" style=""width:200px;border:14px solid red;"">","null","","","","","","","","","",""
"","image-keyboard-response","29","103609","0.0-42.0","3YMU66OBIOUJ0VYSAP06GCB8WSMGH6","A2POU9TTW177VH","3RBI0I35XEP26UEZY8S8UZLEA1IY3E","","879.9000000059605","img/food2.png","75","881.0999999940395","2","1","false","2","2","1,0.5,0,1,0.5,0,0.5,0,1","0,1,0.5,0,1,0.5,1,0.5,0","3",""
"","html-keyboard-response","30","103912","0.0-43.0","3YMU66OBIOUJ0VYSAP06GCB8WSMGH6","A2POU9TTW177VH","3RBI0I35XEP26UEZY8S8UZLEA1IY3E","","null","<img src=""img/food2.png"" style=""width:200px; border:14px solid green;"">","null","","","","","","","","","",""
"","image-keyboard-response","31","104860","0.0-45.0","3YMU66OBIOUJ0VYSAP06GCB8WSMGH6","A2POU9TTW177VH","3RBI0I35XEP26UEZY8S8UZLEA1IY3E","","947.5999999940395","img/food1.png","74","948.2000000178814","1","0","false","1","2","1,0.5,0,1,0.5,0,0.5,0,1","0,1,0.5,0,1,0.5,1,0.5,0","3",""
"","html-keyboard-response","32","105163","0.0-46.0","3YMU66OBIOUJ0VYSAP06GCB8WSMGH6","A2POU9TTW177VH","3RBI0I35XEP26UEZY8S8UZLEA1IY3E","","null","<img src=""img/food1.png"" style=""width:200px;border:14px solid red;"">","null","","","","","","","","","",""
"","image-keyboard-response","33","105540","0.0-48.0","3YMU66OBIOUJ0VYSAP06GCB8WSMGH6","A2POU9TTW177VH","3RBI0I35XEP26UEZY8S8UZLEA1IY3E","","376.60000002384186","img/food2.png","76","377.40000000596046","3","1","false","2","2","1,0.5,0,1,0.5,0,0.5,0,1","0,1,0.5,0,1,0.5,1,0.5,0","3",""
"","html-keyboard-response","34","105842","0.0-49.0","3YMU66OBIOUJ0VYSAP06GCB8WSMGH6","A2POU9TTW177VH","3RBI0I35XEP26UEZY8S8UZLEA1IY3E","","null","<img src=""img/food2.png"" style=""width:200px; border:14px solid green;"">","null","","","","","","","","","",""
"","image-keyboard-response","35","106475","0.0-51.0","3YMU66OBIOUJ0VYSAP06GCB8WSMGH6","A2POU9TTW177VH","3RBI0I35XEP26UEZY8S8UZLEA1IY3E","","631.6999999880791","img/food1.png","75","632.5","2","1","false","1","2","1,0.5,0,1,0.5,0,0.5,0,1","0,1,0.5,0,1,0.5,1,0.5,0","3",""
"","html-keyboard-response","36","106777","0.0-52.0","3YMU66OBIOUJ0VYSAP06GCB8WSMGH6","A2POU9TTW177VH","3RBI0I35XEP26UEZY8S8UZLEA1IY3E","","null","<img src=""img/food1.png"" style=""width:200px; border:14px solid green;"">","null","","","","","","","","","",""
"","image-keyboard-response","37","107156","0.0-54.0","3YMU66OBIOUJ0VYSAP06GCB8WSMGH6","A2POU9TTW177VH","3RBI0I35XEP26UEZY8S8UZLEA1IY3E","","378.2000000178814","img/food1.png","75","378.90000000596046","2","1","false","1","2","1,0.5,0,1,0.5,0,0.5,0,1","0,1,0.5,0,1,0.5,1,0.5,0","3",""
"","html-keyboard-response","38","107458","0.0-55.0","3YMU66OBIOUJ0VYSAP06GCB8WSMGH6","A2POU9TTW177VH","3RBI0I35XEP26UEZY8S8UZLEA1IY3E","","null","<img src=""img/food1.png"" style=""width:200px; border:14px solid green;"">","null","","","","","","","","","",""
"","image-keyboard-response","39","107835","0.0-57.0","3YMU66OBIOUJ0VYSAP06GCB8WSMGH6","A2POU9TTW177VH","3RBI0I35XEP26UEZY8S8UZLEA1IY3E","","375.80000001192093","img/food1.png","75","376.59999999403954","2","1","false","1","2","1,0.5,0,1,0.5,0,0.5,0,1","0,1,0.5,0,1,0.5,1,0.5,0","3",""
"","html-keyboard-response","40","108138","0.0-58.0","3YMU66OBIOUJ0VYSAP06GCB8WSMGH6","A2POU9TTW177VH","3RBI0I35XEP26UEZY8S8UZLEA1IY3E","","null","<img src=""img/food1.png"" style=""width:200px; border:14px solid green;"">","null","","","","","","","","","",""
"","image-keyboard-response","41","108800","0.0-60.0","3YMU66OBIOUJ0VYSAP06GCB8WSMGH6","A2POU9TTW177VH","3RBI0I35XEP26UEZY8S8UZLEA1IY3E","","661","img/food3.png","76","661.5999999940395","3","0","false","3","2","1,0.5,0,1,0.5,0,0.5,0,1","0,1,0.5,0,1,0.5,1,0.5,0","3",""
"","html-keyboard-response","42","109102","0.0-61.0","3YMU66OBIOUJ0VYSAP06GCB8WSMGH6","A2POU9TTW177VH","3RBI0I35XEP26UEZY8S8UZLEA1IY3E","","null","<img src=""img/food3.png"" style=""width:200px;border:14px solid red;"">","null","","","","","","","","","",""
"","image-keyboard-response","43","109867","0.0-63.0","3YMU66OBIOUJ0VYSAP06GCB8WSMGH6","A2POU9TTW177VH","3RBI0I35XEP26UEZY8S8UZLEA1IY3E","","764.0999999940395","img/food1.png","76","764.8000000119209","3","1","false","1","2","1,0.5,0,1,0.5,0,0.5,0,1","0,1,0.5,0,1,0.5,1,0.5,0","3",""
"","html-keyboard-response","44","110169","0.0-64.0","3YMU66OBIOUJ0VYSAP06GCB8WSMGH6","A2POU9TTW177VH","3RBI0I35XEP26UEZY8S8UZLEA1IY3E","","null","<img src=""img/food1.png"" style=""width:200px; border:14px solid green;"">","null","","","","","","","","","",""
"","image-keyboard-response","45","110479","0.0-66.0","3YMU66OBIOUJ0VYSAP06GCB8WSMGH6","A2POU9TTW177VH","3RBI0I35XEP26UEZY8S8UZLEA1IY3E","","308.90000000596046","img/food2.png","76","309.90000000596046","3","1","false","2","2","1,0.5,0,1,0.5,0,0.5,0,1","0,1,0.5,0,1,0.5,1,0.5,0","3",""
"","html-keyboard-response","46","110781","0.0-67.0","3YMU66OBIOUJ0VYSAP06GCB8WSMGH6","A2POU9TTW177VH","3RBI0I35XEP26UEZY8S8UZLEA1IY3E","","null","<img src=""img/food2.png"" style=""width:200px; border:14px solid green;"">","null","","","","","","","","","",""
"","image-keyboard-response","47","111169","0.0-69.0","3YMU66OBIOUJ0VYSAP06GCB8WSMGH6","A2POU9TTW177VH","3RBI0I35XEP26UEZY8S8UZLEA1IY3E","","387.7999999821186","img/food3.png","76","388.30000001192093","3","0","false","3","2","1,0.5,0,1,0.5,0,0.5,0,1","0,1,0.5,0,1,0.5,1,0.5,0","3",""
"","html-keyboard-response","48","111472","0.0-70.0","3YMU66OBIOUJ0VYSAP06GCB8WSMGH6","A2POU9TTW177VH","3RBI0I35XEP26UEZY8S8UZLEA1IY3E","","null","<img src=""img/food3.png"" style=""width:200px;border:14px solid red;"">","null","","","","","","","","","",""
"","image-keyboard-response","49","111949","0.0-72.0","3YMU66OBIOUJ0VYSAP06GCB8WSMGH6","A2POU9TTW177VH","3RBI0I35XEP26UEZY8S8UZLEA1IY3E","","475.5","img/food3.png","75","476.59999999403954","2","0","false","3","2","1,0.5,0,1,0.5,0,0.5,0,1","0,1,0.5,0,1,0.5,1,0.5,0","3",""
"","html-keyboard-response","50","112265","0.0-73.0","3YMU66OBIOUJ0VYSAP06GCB8WSMGH6","A2POU9TTW177VH","3RBI0I35XEP26UEZY8S8UZLEA1IY3E","","null","<img src=""img/food3.png"" style=""width:200px;border:14px solid red;"">","null","","","","","","","","","",""
"","image-keyboard-response","51","112518","0.0-75.0","3YMU66OBIOUJ0VYSAP06GCB8WSMGH6","A2POU9TTW177VH","3RBI0I35XEP26UEZY8S8UZLEA1IY3E","","251.69999998807907","img/food2.png","74","252.59999999403954","1","0","false","2","2","1,0.5,0,1,0.5,0,0.5,0,1","0,1,0.5,0,1,0.5,1,0.5,0","3",""
"","html-keyboard-response","52","112820","0.0-76.0","3YMU66OBIOUJ0VYSAP06GCB8WSMGH6","A2POU9TTW177VH","3RBI0I35XEP26UEZY8S8UZLEA1IY3E","","null","<img src=""img/food2.png"" style=""width:200px;border:14px solid red;"">","null","","","","","","","","","",""
"","image-keyboard-response","53","113226","0.0-78.0","3YMU66OBIOUJ0VYSAP06GCB8WSMGH6","A2POU9TTW177VH","3RBI0I35XEP26UEZY8S8UZLEA1IY3E","","405.2999999821186","img/food3.png","75","405.80000001192093","2","1","false","3","2","1,0.5,0,1,0.5,0,0.5,0,1","0,1,0.5,0,1,0.5,1,0.5,0","3",""
"","html-keyboard-response","54","113528","0.0-79.0","3YMU66OBIOUJ0VYSAP06GCB8WSMGH6","A2POU9TTW177VH","3RBI0I35XEP26UEZY8S8UZLEA1IY3E","","null","<img src=""img/food3.png"" style=""width:200px; border:14px solid green;"">","null","","","","","","","","","",""
"","image-keyboard-response","55","114051","0.0-81.0","3YMU66OBIOUJ0VYSAP06GCB8WSMGH6","A2POU9TTW177VH","3RBI0I35XEP26UEZY8S8UZLEA1IY3E","","521.7999999821186","img/food2.png","75","522.9000000059605","2","1","false","2","2","1,0.5,0,1,0.5,0,0.5,0,1","0,1,0.5,0,1,0.5,1,0.5,0","3",""
"","html-keyboard-response","56","114353","0.0-82.0","3YMU66OBIOUJ0VYSAP06GCB8WSMGH6","A2POU9TTW177VH","3RBI0I35XEP26UEZY8S8UZLEA1IY3E","","null","<img src=""img/food2.png"" style=""width:200px; border:14px solid green;"">","null","","","","","","","","","",""
"","image-keyboard-response","57","114826","0.0-84.0","3YMU66OBIOUJ0VYSAP06GCB8WSMGH6","A2POU9TTW177VH","3RBI0I35XEP26UEZY8S8UZLEA1IY3E","","472.19999998807907","img/food1.png","76","473","3","1","false","1","2","1,0.5,0,1,0.5,0,0.5,0,1","0,1,0.5,0,1,0.5,1,0.5,0","3",""
"","html-keyboard-response","58","115129","0.0-85.0","3YMU66OBIOUJ0VYSAP06GCB8WSMGH6","A2POU9TTW177VH","3RBI0I35XEP26UEZY8S8UZLEA1IY3E","","null","<img src=""img/food1.png"" style=""width:200px; border:14px solid green;"">","null","","","","","","","","","",""
"","image-keyboard-response","59","115512","0.0-87.0","3YMU66OBIOUJ0VYSAP06GCB8WSMGH6","A2POU9TTW177VH","3RBI0I35XEP26UEZY8S8UZLEA1IY3E","","382.59999999403954","img/food2.png","76","383.39999997615814","3","0","false","2","2","1,0.5,0,1,0.5,0,0.5,0,1","0,1,0.5,0,1,0.5,1,0.5,0","3",""
"","html-keyboard-response","60","115814","0.0-88.0","3YMU66OBIOUJ0VYSAP06GCB8WSMGH6","A2POU9TTW177VH","3RBI0I35XEP26UEZY8S8UZLEA1IY3E","","null","<img src=""img/food2.png"" style=""width:200px;border:14px solid red;"">","null","","","","","","","","","",""
"","image-keyboard-response","61","116134","0.0-90.0","3YMU66OBIOUJ0VYSAP06GCB8WSMGH6","A2POU9TTW177VH","3RBI0I35XEP26UEZY8S8UZLEA1IY3E","","317.90000000596046","img/food1.png","75","319","2","1","false","1","2","1,0.5,0,1,0.5,0,0.5,0,1","0,1,0.5,0,1,0.5,1,0.5,0","3",""
"","html-keyboard-response","62","116436","0.0-91.0","3YMU66OBIOUJ0VYSAP06GCB8WSMGH6","A2POU9TTW177VH","3RBI0I35XEP26UEZY8S8UZLEA1IY3E","","null","<img src=""img/food1.png"" style=""width:200px; border:14px solid green;"">","null","","","","","","","","","",""
"","image-keyboard-response","63","116853","0.0-93.0","3YMU66OBIOUJ0VYSAP06GCB8WSMGH6","A2POU9TTW177VH","3RBI0I35XEP26UEZY8S8UZLEA1IY3E","","416.19999998807907","img/food3.png","75","417.09999999403954","2","1","false","3","2","1,0.5,0,1,0.5,0,0.5,0,1","0,1,0.5,0,1,0.5,1,0.5,0","3",""
"","html-keyboard-response","64","117155","0.0-94.0","3YMU66OBIOUJ0VYSAP06GCB8WSMGH6","A2POU9TTW177VH","3RBI0I35XEP26UEZY8S8UZLEA1IY3E","","null","<img src=""img/food3.png"" style=""width:200px; border:14px solid green;"">","null","","","","","","","","","",""
"","image-keyboard-response","65","117821","0.0-96.0","3YMU66OBIOUJ0VYSAP06GCB8WSMGH6","A2POU9TTW177VH","3RBI0I35XEP26UEZY8S8UZLEA1IY3E","","664.3000000119209","img/food1.png","75","665.6999999880791","2","1","false","1","2","1,0.5,0,1,0.5,0,0.5,0,1","0,1,0.5,0,1,0.5,1,0.5,0","3",""
"","html-keyboard-response","66","118123","0.0-97.0","3YMU66OBIOUJ0VYSAP06GCB8WSMGH6","A2POU9TTW177VH","3RBI0I35XEP26UEZY8S8UZLEA1IY3E","","null","<img src=""img/food1.png"" style=""width:200px; border:14px solid green;"">","null","","","","","","","","","",""
"","image-keyboard-response","67","118782","0.0-99.0","3YMU66OBIOUJ0VYSAP06GCB8WSMGH6","A2POU9TTW177VH","3RBI0I35XEP26UEZY8S8UZLEA1IY3E","","657.8000000119209","img/food2.png","76","658.5999999940395","3","1","false","2","2","1,0.5,0,1,0.5,0,0.5,0,1","0,1,0.5,0,1,0.5,1,0.5,0","3",""
"","html-keyboard-response","68","119084","0.0-100.0","3YMU66OBIOUJ0VYSAP06GCB8WSMGH6","A2POU9TTW177VH","3RBI0I35XEP26UEZY8S8UZLEA1IY3E","","null","<img src=""img/food2.png"" style=""width:200px; border:14px solid green;"">","null","","","","","","","","","",""
"","image-keyboard-response","69","119963","0.0-102.0","3YMU66OBIOUJ0VYSAP06GCB8WSMGH6","A2POU9TTW177VH","3RBI0I35XEP26UEZY8S8UZLEA1IY3E","","878.1000000238419","img/food3.png","75","878.9000000059605","2","0","false","3","2","1,0.5,0,1,0.5,0,0.5,0,1","0,1,0.5,0,1,0.5,1,0.5,0","3",""
"","html-keyboard-response","70","120265","0.0-103.0","3YMU66OBIOUJ0VYSAP06GCB8WSMGH6","A2POU9TTW177VH","3RBI0I35XEP26UEZY8S8UZLEA1IY3E","","null","<img src=""img/food3.png"" style=""width:200px;border:14px solid red;"">","null","","","","","","","","","",""
"","image-keyboard-response","71","120739","0.0-105.0","3YMU66OBIOUJ0VYSAP06GCB8WSMGH6","A2POU9TTW177VH","3RBI0I35XEP26UEZY8S8UZLEA1IY3E","","473","img/food3.png","74","474","1","1","false","3","2","1,0.5,0,1,0.5,0,0.5,0,1","0,1,0.5,0,1,0.5,1,0.5,0","3",""
"","html-keyboard-response","72","121042","0.0-106.0","3YMU66OBIOUJ0VYSAP06GCB8WSMGH6","A2POU9TTW177VH","3RBI0I35XEP26UEZY8S8UZLEA1IY3E","","null","<img src=""img/food3.png"" style=""width:200px; border:14px solid green;"">","null","","","","","","","","","",""
"","image-keyboard-response","73","121429","0.0-108.0","3YMU66OBIOUJ0VYSAP06GCB8WSMGH6","A2POU9TTW177VH","3RBI0I35XEP26UEZY8S8UZLEA1IY3E","","386.09999999403954","img/food3.png","74","387.19999998807907","1","1","false","3","2","1,0.5,0,1,0.5,0,0.5,0,1","0,1,0.5,0,1,0.5,1,0.5,0","3",""
"","html-keyboard-response","74","121732","0.0-109.0","3YMU66OBIOUJ0VYSAP06GCB8WSMGH6","A2POU9TTW177VH","3RBI0I35XEP26UEZY8S8UZLEA1IY3E","","null","<img src=""img/food3.png"" style=""width:200px; border:14px solid green;"">","null","","","","","","","","","",""
"","image-keyboard-response","75","122403","0.0-111.0","3YMU66OBIOUJ0VYSAP06GCB8WSMGH6","A2POU9TTW177VH","3RBI0I35XEP26UEZY8S8UZLEA1IY3E","","669.6999999880791","img/food1.png","76","670.9000000059605","3","0","false","1","2","1,0.5,0,1,0.5,0,0.5,0,1","0,1,0.5,0,1,0.5,1,0.5,0","3",""
"","html-keyboard-response","76","122706","0.0-112.0","3YMU66OBIOUJ0VYSAP06GCB8WSMGH6","A2POU9TTW177VH","3RBI0I35XEP26UEZY8S8UZLEA1IY3E","","null","<img src=""img/food1.png"" style=""width:200px;border:14px solid red;"">","null","","","","","","","","","",""
"","image-keyboard-response","77","123099","0.0-114.0","3YMU66OBIOUJ0VYSAP06GCB8WSMGH6","A2POU9TTW177VH","3RBI0I35XEP26UEZY8S8UZLEA1IY3E","","391.7999999821186","img/food2.png","75","392.90000000596046","2","1","false","2","2","1,0.5,0,1,0.5,0,0.5,0,1","0,1,0.5,0,1,0.5,1,0.5,0","3",""
"","html-keyboard-response","78","123401","0.0-115.0","3YMU66OBIOUJ0VYSAP06GCB8WSMGH6","A2POU9TTW177VH","3RBI0I35XEP26UEZY8S8UZLEA1IY3E","","null","<img src=""img/food2.png"" style=""width:200px; border:14px solid green;"">","null","","","","","","","","","",""
"","image-keyboard-response","79","123922","0.0-117.0","3YMU66OBIOUJ0VYSAP06GCB8WSMGH6","A2POU9TTW177VH","3RBI0I35XEP26UEZY8S8UZLEA1IY3E","","520.2000000178814","img/food1.png","75","521","2","1","false","1","2","1,0.5,0,1,0.5,0,0.5,0,1","0,1,0.5,0,1,0.5,1,0.5,0","3",""
"","html-keyboard-response","80","124225","0.0-118.0","3YMU66OBIOUJ0VYSAP06GCB8WSMGH6","A2POU9TTW177VH","3RBI0I35XEP26UEZY8S8UZLEA1IY3E","","null","<img src=""img/food1.png"" style=""width:200px; border:14px solid green;"">","null","","","","","","","","","",""
"","image-keyboard-response","81","124616","0.0-120.0","3YMU66OBIOUJ0VYSAP06GCB8WSMGH6","A2POU9TTW177VH","3RBI0I35XEP26UEZY8S8UZLEA1IY3E","","390.19999998807907","img/food1.png","75","390.80000001192093","2","1","false","1","2","1,0.5,0,1,0.5,0,0.5,0,1","0,1,0.5,0,1,0.5,1,0.5,0","3",""
"","html-keyboard-response","82","124918","0.0-121.0","3YMU66OBIOUJ0VYSAP06GCB8WSMGH6","A2POU9TTW177VH","3RBI0I35XEP26UEZY8S8UZLEA1IY3E","","null","<img src=""img/food1.png"" style=""width:200px; border:14px solid green;"">","null","","","","","","","","","",""
"","image-keyboard-response","83","125292","0.0-123.0","3YMU66OBIOUJ0VYSAP06GCB8WSMGH6","A2POU9TTW177VH","3RBI0I35XEP26UEZY8S8UZLEA1IY3E","","371.7999999821186","img/food1.png","75","372.90000000596046","2","1","false","1","2","1,0.5,0,1,0.5,0,0.5,0,1","0,1,0.5,0,1,0.5,1,0.5,0","3",""
"","html-keyboard-response","84","125594","0.0-124.0","3YMU66OBIOUJ0VYSAP06GCB8WSMGH6","A2POU9TTW177VH","3RBI0I35XEP26UEZY8S8UZLEA1IY3E","","null","<img src=""img/food1.png"" style=""width:200px; border:14px solid green;"">","null","","","","","","","","","",""
"","image-keyboard-response","85","125982","0.0-126.0","3YMU66OBIOUJ0VYSAP06GCB8WSMGH6","A2POU9TTW177VH","3RBI0I35XEP26UEZY8S8UZLEA1IY3E","","386.5","img/food1.png","75","387.59999999403954","2","1","false","1","2","1,0.5,0,1,0.5,0,0.5,0,1","0,1,0.5,0,1,0.5,1,0.5,0","3",""
"","html-keyboard-response","86","126285","0.0-127.0","3YMU66OBIOUJ0VYSAP06GCB8WSMGH6","A2POU9TTW177VH","3RBI0I35XEP26UEZY8S8UZLEA1IY3E","","null","<img src=""img/food1.png"" style=""width:200px; border:14px solid green;"">","null","","","","","","","","","",""
"","image-keyboard-response","87","126951","0.0-129.0","3YMU66OBIOUJ0VYSAP06GCB8WSMGH6","A2POU9TTW177VH","3RBI0I35XEP26UEZY8S8UZLEA1IY3E","","664.5","img/food2.png","76","665.3000000119209","3","1","false","2","2","1,0.5,0,1,0.5,0,0.5,0,1","0,1,0.5,0,1,0.5,1,0.5,0","3",""
"","html-keyboard-response","88","127253","0.0-130.0","3YMU66OBIOUJ0VYSAP06GCB8WSMGH6","A2POU9TTW177VH","3RBI0I35XEP26UEZY8S8UZLEA1IY3E","","null","<img src=""img/food2.png"" style=""width:200px; border:14px solid green;"">","null","","","","","","","","","",""
"","image-keyboard-response","89","127779","0.0-132.0","3YMU66OBIOUJ0VYSAP06GCB8WSMGH6","A2POU9TTW177VH","3RBI0I35XEP26UEZY8S8UZLEA1IY3E","","524.2999999821186","img/food1.png","75","525.5","2","1","false","1","2","1,0.5,0,1,0.5,0,0.5,0,1","0,1,0.5,0,1,0.5,1,0.5,0","3",""
"","html-keyboard-response","90","128081","0.0-133.0","3YMU66OBIOUJ0VYSAP06GCB8WSMGH6","A2POU9TTW177VH","3RBI0I35XEP26UEZY8S8UZLEA1IY3E","","null","<img src=""img/food1.png"" style=""width:200px; border:14px solid green;"">","null","","","","","","","","","",""
"","image-keyboard-response","91","128458","0.0-135.0","3YMU66OBIOUJ0VYSAP06GCB8WSMGH6","A2POU9TTW177VH","3RBI0I35XEP26UEZY8S8UZLEA1IY3E","","375.2999999821186","img/food1.png","75","376.40000000596046","2","1","false","1","2","1,0.5,0,1,0.5,0,0.5,0,1","0,1,0.5,0,1,0.5,1,0.5,0","3",""
"","html-keyboard-response","92","128759","0.0-136.0","3YMU66OBIOUJ0VYSAP06GCB8WSMGH6","A2POU9TTW177VH","3RBI0I35XEP26UEZY8S8UZLEA1IY3E","","null","<img src=""img/food1.png"" style=""width:200px; border:14px solid green;"">","null","","","","","","","","","",""
"","image-keyboard-response","93","129304","0.0-138.0","3YMU66OBIOUJ0VYSAP06GCB8WSMGH6","A2POU9TTW177VH","3RBI0I35XEP26UEZY8S8UZLEA1IY3E","","544.4000000059605","img/food2.png","76","544.8999999761581","3","1","false","2","2","1,0.5,0,1,0.5,0,0.5,0,1","0,1,0.5,0,1,0.5,1,0.5,0","3",""
"","html-keyboard-response","94","129616","0.0-139.0","3YMU66OBIOUJ0VYSAP06GCB8WSMGH6","A2POU9TTW177VH","3RBI0I35XEP26UEZY8S8UZLEA1IY3E","","null","<img src=""img/food2.png"" style=""width:200px; border:14px solid green;"">","null","","","","","","","","","",""
"","image-keyboard-response","95","130476","0.0-141.0","3YMU66OBIOUJ0VYSAP06GCB8WSMGH6","A2POU9TTW177VH","3RBI0I35XEP26UEZY8S8UZLEA1IY3E","","859.2000000178814","img/food3.png","74","860.1999999880791","1","1","false","3","2","1,0.5,0,1,0.5,0,0.5,0,1","0,1,0.5,0,1,0.5,1,0.5,0","3",""
"","html-keyboard-response","96","130779","0.0-142.0","3YMU66OBIOUJ0VYSAP06GCB8WSMGH6","A2POU9TTW177VH","3RBI0I35XEP26UEZY8S8UZLEA1IY3E","","null","<img src=""img/food3.png"" style=""width:200px; border:14px solid green;"">","null","","","","","","","","","",""
"","image-keyboard-response","97","131228","0.0-144.0","3YMU66OBIOUJ0VYSAP06GCB8WSMGH6","A2POU9TTW177VH","3RBI0I35XEP26UEZY8S8UZLEA1IY3E","","448.80000001192093","img/food3.png","74","449.19999998807907","1","1","false","3","2","1,0.5,0,1,0.5,0,0.5,0,1","0,1,0.5,0,1,0.5,1,0.5,0","3",""
"","html-keyboard-response","98","131530","0.0-145.0","3YMU66OBIOUJ0VYSAP06GCB8WSMGH6","A2POU9TTW177VH","3RBI0I35XEP26UEZY8S8UZLEA1IY3E","","null","<img src=""img/food3.png"" style=""width:200px; border:14px solid green;"">","null","","","","","","","","","",""
"","image-keyboard-response","99","132352","0.0-147.0","3YMU66OBIOUJ0VYSAP06GCB8WSMGH6","A2POU9TTW177VH","3RBI0I35XEP26UEZY8S8UZLEA1IY3E","","820.6999999880791","img/food1.png","76","821.7000000178814","3","1","false","1","2","1,0.5,0,1,0.5,0,0.5,0,1","0,1,0.5,0,1,0.5,1,0.5,0","3",""
"","html-keyboard-response","100","132654","0.0-148.0","3YMU66OBIOUJ0VYSAP06GCB8WSMGH6","A2POU9TTW177VH","3RBI0I35XEP26UEZY8S8UZLEA1IY3E","","null","<img src=""img/food1.png"" style=""width:200px; border:14px solid green;"">","null","","","","","","","","","",""
"","image-keyboard-response","101","133473","0.0-150.0","3YMU66OBIOUJ0VYSAP06GCB8WSMGH6","A2POU9TTW177VH","3RBI0I35XEP26UEZY8S8UZLEA1IY3E","","817.0999999940395","img/food2.png","76","818.0999999940395","3","1","false","2","2","1,0.5,0,1,0.5,0,0.5,0,1","0,1,0.5,0,1,0.5,1,0.5,0","3",""
"","html-keyboard-response","102","133774","0.0-151.0","3YMU66OBIOUJ0VYSAP06GCB8WSMGH6","A2POU9TTW177VH","3RBI0I35XEP26UEZY8S8UZLEA1IY3E","","null","<img src=""img/food2.png"" style=""width:200px; border:14px solid green;"">","null","","","","","","","","","",""
"","image-keyboard-response","103","134145","0.0-153.0","3YMU66OBIOUJ0VYSAP06GCB8WSMGH6","A2POU9TTW177VH","3RBI0I35XEP26UEZY8S8UZLEA1IY3E","","369.09999999403954","img/food2.png","76","370","3","0","false","2","2","1,0.5,0,1,0.5,0,0.5,0,1","0,1,0.5,0,1,0.5,1,0.5,0","3",""
"","html-keyboard-response","104","134447","0.0-154.0","3YMU66OBIOUJ0VYSAP06GCB8WSMGH6","A2POU9TTW177VH","3RBI0I35XEP26UEZY8S8UZLEA1IY3E","","null","<img src=""img/food2.png"" style=""width:200px;border:14px solid red;"">","null","","","","","","","","","",""
"","image-keyboard-response","105","134947","0.0-156.0","3YMU66OBIOUJ0VYSAP06GCB8WSMGH6","A2POU9TTW177VH","3RBI0I35XEP26UEZY8S8UZLEA1IY3E","","499.2999999821186","img/food2.png","76","500.30000001192093","3","0","false","2","2","1,0.5,0,1,0.5,0,0.5,0,1","0,1,0.5,0,1,0.5,1,0.5,0","3",""
"","html-keyboard-response","106","135249","0.0-157.0","3YMU66OBIOUJ0VYSAP06GCB8WSMGH6","A2POU9TTW177VH","3RBI0I35XEP26UEZY8S8UZLEA1IY3E","","null","<img src=""img/food2.png"" style=""width:200px;border:14px solid red;"">","null","","","","","","","","","",""
"","image-keyboard-response","107","135546","0.0-159.0","3YMU66OBIOUJ0VYSAP06GCB8WSMGH6","A2POU9TTW177VH","3RBI0I35XEP26UEZY8S8UZLEA1IY3E","","296.5","img/food2.png","75","297.5","2","1","false","2","2","1,0.5,0,1,0.5,0,0.5,0,1","0,1,0.5,0,1,0.5,1,0.5,0","3",""
"","html-keyboard-response","108","135863","0.0-160.0","3YMU66OBIOUJ0VYSAP06GCB8WSMGH6","A2POU9TTW177VH","3RBI0I35XEP26UEZY8S8UZLEA1IY3E","","null","<img src=""img/food2.png"" style=""width:200px; border:14px solid green;"">","null","","","","","","","","","",""
"","image-keyboard-response","109","136766","0.0-162.0","3YMU66OBIOUJ0VYSAP06GCB8WSMGH6","A2POU9TTW177VH","3RBI0I35XEP26UEZY8S8UZLEA1IY3E","","902.3000000119209","img/food1.png","75","903.2999999821186","2","1","false","1","2","1,0.5,0,1,0.5,0,0.5,0,1","0,1,0.5,0,1,0.5,1,0.5,0","3",""
"","html-keyboard-response","110","137068","0.0-163.0","3YMU66OBIOUJ0VYSAP06GCB8WSMGH6","A2POU9TTW177VH","3RBI0I35XEP26UEZY8S8UZLEA1IY3E","","null","<img src=""img/food1.png"" style=""width:200px; border:14px solid green;"">","null","","","","","","","","","",""
"","image-keyboard-response","111","137943","0.0-165.0","3YMU66OBIOUJ0VYSAP06GCB8WSMGH6","A2POU9TTW177VH","3RBI0I35XEP26UEZY8S8UZLEA1IY3E","","873.8000000119209","img/food3.png","74","874.7999999821186","1","1","false","3","2","1,0.5,0,1,0.5,0,0.5,0,1","0,1,0.5,0,1,0.5,1,0.5,0","3",""
"","html-keyboard-response","112","138245","0.0-166.0","3YMU66OBIOUJ0VYSAP06GCB8WSMGH6","A2POU9TTW177VH","3RBI0I35XEP26UEZY8S8UZLEA1IY3E","","null","<img src=""img/food3.png"" style=""width:200px; border:14px solid green;"">","null","","","","","","","","","",""
"","image-keyboard-response","113","138650","0.0-168.0","3YMU66OBIOUJ0VYSAP06GCB8WSMGH6","A2POU9TTW177VH","3RBI0I35XEP26UEZY8S8UZLEA1IY3E","","403.2999999821186","img/food3.png","74","403.90000000596046","1","1","false","3","2","1,0.5,0,1,0.5,0,0.5,0,1","0,1,0.5,0,1,0.5,1,0.5,0","3",""
"","html-keyboard-response","114","138951","0.0-169.0","3YMU66OBIOUJ0VYSAP06GCB8WSMGH6","A2POU9TTW177VH","3RBI0I35XEP26UEZY8S8UZLEA1IY3E","","null","<img src=""img/food3.png"" style=""width:200px; border:14px solid green;"">","null","","","","","","","","","",""
"","image-keyboard-response","115","139825","0.0-171.0","3YMU66OBIOUJ0VYSAP06GCB8WSMGH6","A2POU9TTW177VH","3RBI0I35XEP26UEZY8S8UZLEA1IY3E","","872.5","img/food2.png","76","873.5","3","0","false","2","2","1,0.5,0,1,0.5,0,0.5,0,1","0,1,0.5,0,1,0.5,1,0.5,0","3",""
"","html-keyboard-response","116","140127","0.0-172.0","3YMU66OBIOUJ0VYSAP06GCB8WSMGH6","A2POU9TTW177VH","3RBI0I35XEP26UEZY8S8UZLEA1IY3E","","null","<img src=""img/food2.png"" style=""width:200px;border:14px solid red;"">","null","","","","","","","","","",""
"","image-keyboard-response","117","140465","0.0-174.0","3YMU66OBIOUJ0VYSAP06GCB8WSMGH6","A2POU9TTW177VH","3RBI0I35XEP26UEZY8S8UZLEA1IY3E","","337","img/food1.png","75","338","2","1","false","1","2","1,0.5,0,1,0.5,0,0.5,0,1","0,1,0.5,0,1,0.5,1,0.5,0","3",""
"","html-keyboard-response","118","140768","0.0-175.0","3YMU66OBIOUJ0VYSAP06GCB8WSMGH6","A2POU9TTW177VH","3RBI0I35XEP26UEZY8S8UZLEA1IY3E","","null","<img src=""img/food1.png"" style=""width:200px; border:14px solid green;"">","null","","","","","","","","","",""
"","image-keyboard-response","119","141076","0.0-177.0","3YMU66OBIOUJ0VYSAP06GCB8WSMGH6","A2POU9TTW177VH","3RBI0I35XEP26UEZY8S8UZLEA1IY3E","","307.60000002384186","img/food1.png","75","308.30000001192093","2","1","false","1","2","1,0.5,0,1,0.5,0,0.5,0,1","0,1,0.5,0,1,0.5,1,0.5,0","3",""
"","html-keyboard-response","120","141377","0.0-178.0","3YMU66OBIOUJ0VYSAP06GCB8WSMGH6","A2POU9TTW177VH","3RBI0I35XEP26UEZY8S8UZLEA1IY3E","","null","<img src=""img/food1.png"" style=""width:200px; border:14px solid green;"">","null","","","","","","","","","",""
"","image-keyboard-response","121","141864","0.0-180.0","3YMU66OBIOUJ0VYSAP06GCB8WSMGH6","A2POU9TTW177VH","3RBI0I35XEP26UEZY8S8UZLEA1IY3E","","485.59999999403954","img/food2.png","75","486.59999999403954","2","1","false","2","2","1,0.5,0,1,0.5,0,0.5,0,1","0,1,0.5,0,1,0.5,1,0.5,0","3",""
"","html-keyboard-response","122","142167","0.0-181.0","3YMU66OBIOUJ0VYSAP06GCB8WSMGH6","A2POU9TTW177VH","3RBI0I35XEP26UEZY8S8UZLEA1IY3E","","null","<img src=""img/food2.png"" style=""width:200px; border:14px solid green;"">","null","","","","","","","","","",""
"","image-keyboard-response","123","142565","0.0-183.0","3YMU66OBIOUJ0VYSAP06GCB8WSMGH6","A2POU9TTW177VH","3RBI0I35XEP26UEZY8S8UZLEA1IY3E","","395.7999999821186","img/food3.png","75","396.90000000596046","2","0","false","3","2","1,0.5,0,1,0.5,0,0.5,0,1","0,1,0.5,0,1,0.5,1,0.5,0","3",""
"","html-keyboard-response","124","142866","0.0-184.0","3YMU66OBIOUJ0VYSAP06GCB8WSMGH6","A2POU9TTW177VH","3RBI0I35XEP26UEZY8S8UZLEA1IY3E","","null","<img src=""img/food3.png"" style=""width:200px;border:14px solid red;"">","null","","","","","","","","","",""
"","image-keyboard-response","125","143342","0.0-186.0","3YMU66OBIOUJ0VYSAP06GCB8WSMGH6","A2POU9TTW177VH","3RBI0I35XEP26UEZY8S8UZLEA1IY3E","","475.5","img/food3.png","74","476.19999998807907","1","1","false","3","2","1,0.5,0,1,0.5,0,0.5,0,1","0,1,0.5,0,1,0.5,1,0.5,0","3",""
"","html-keyboard-response","126","143644","0.0-187.0","3YMU66OBIOUJ0VYSAP06GCB8WSMGH6","A2POU9TTW177VH","3RBI0I35XEP26UEZY8S8UZLEA1IY3E","","null","<img src=""img/food3.png"" style=""width:200px; border:14px solid green;"">","null","","","","","","","","","",""
"","image-keyboard-response","127","144494","0.0-189.0","3YMU66OBIOUJ0VYSAP06GCB8WSMGH6","A2POU9TTW177VH","3RBI0I35XEP26UEZY8S8UZLEA1IY3E","","848.7000000178814","img/food2.png","75","849.7000000178814","2","1","false","2","2","1,0.5,0,1,0.5,0,0.5,0,1","0,1,0.5,0,1,0.5,1,0.5,0","3",""
"","html-keyboard-response","128","144796","0.0-190.0","3YMU66OBIOUJ0VYSAP06GCB8WSMGH6","A2POU9TTW177VH","3RBI0I35XEP26UEZY8S8UZLEA1IY3E","","null","<img src=""img/food2.png"" style=""width:200px; border:14px solid green;"">","null","","","","","","","","","",""
"","image-keyboard-response","129","145402","0.0-192.0","3YMU66OBIOUJ0VYSAP06GCB8WSMGH6","A2POU9TTW177VH","3RBI0I35XEP26UEZY8S8UZLEA1IY3E","","604.8000000119209","img/food3.png","74","605.3999999761581","1","1","false","3","2","1,0.5,0,1,0.5,0,0.5,0,1","0,1,0.5,0,1,0.5,1,0.5,0","3",""
"","html-keyboard-response","130","145704","0.0-193.0","3YMU66OBIOUJ0VYSAP06GCB8WSMGH6","A2POU9TTW177VH","3RBI0I35XEP26UEZY8S8UZLEA1IY3E","","null","<img src=""img/food3.png"" style=""width:200px; border:14px solid green;"">","null","","","","","","","","","",""
"","image-keyboard-response","131","146147","0.0-195.0","3YMU66OBIOUJ0VYSAP06GCB8WSMGH6","A2POU9TTW177VH","3RBI0I35XEP26UEZY8S8UZLEA1IY3E","","442","img/food3.png","74","443.2000000178814","1","1","false","3","2","1,0.5,0,1,0.5,0,0.5,0,1","0,1,0.5,0,1,0.5,1,0.5,0","3",""
"","html-keyboard-response","132","146449","0.0-196.0","3YMU66OBIOUJ0VYSAP06GCB8WSMGH6","A2POU9TTW177VH","3RBI0I35XEP26UEZY8S8UZLEA1IY3E","","null","<img src=""img/food3.png"" style=""width:200px; border:14px solid green;"">","null","","","","","","","","","",""
"","image-keyboard-response","133","147020","0.0-198.0","3YMU66OBIOUJ0VYSAP06GCB8WSMGH6","A2POU9TTW177VH","3RBI0I35XEP26UEZY8S8UZLEA1IY3E","","569.2000000178814","img/food2.png","75","570","2","1","false","2","2","1,0.5,0,1,0.5,0,0.5,0,1","0,1,0.5,0,1,0.5,1,0.5,0","3",""
"","html-keyboard-response","134","147322","0.0-199.0","3YMU66OBIOUJ0VYSAP06GCB8WSMGH6","A2POU9TTW177VH","3RBI0I35XEP26UEZY8S8UZLEA1IY3E","","null","<img src=""img/food2.png"" style=""width:200px; border:14px solid green;"">","null","","","","","","","","","",""
"","image-keyboard-response","135","147950","0.0-201.0","3YMU66OBIOUJ0VYSAP06GCB8WSMGH6","A2POU9TTW177VH","3RBI0I35XEP26UEZY8S8UZLEA1IY3E","","626.5","img/food3.png","74","627.5","1","1","false","3","2","1,0.5,0,1,0.5,0,0.5,0,1","0,1,0.5,0,1,0.5,1,0.5,0","3",""
"","html-keyboard-response","136","148253","0.0-202.0","3YMU66OBIOUJ0VYSAP06GCB8WSMGH6","A2POU9TTW177VH","3RBI0I35XEP26UEZY8S8UZLEA1IY3E","","null","<img src=""img/food3.png"" style=""width:200px; border:14px solid green;"">","null","","","","","","","","","",""
"","image-keyboard-response","137","148660","0.0-204.0","3YMU66OBIOUJ0VYSAP06GCB8WSMGH6","A2POU9TTW177VH","3RBI0I35XEP26UEZY8S8UZLEA1IY3E","","405.5","img/food3.png","74","406.40000000596046","1","1","false","3","2","1,0.5,0,1,0.5,0,0.5,0,1","0,1,0.5,0,1,0.5,1,0.5,0","3",""
"","html-keyboard-response","138","148965","0.0-205.0","3YMU66OBIOUJ0VYSAP06GCB8WSMGH6","A2POU9TTW177VH","3RBI0I35XEP26UEZY8S8UZLEA1IY3E","","null","<img src=""img/food3.png"" style=""width:200px; border:14px solid green;"">","null","","","","","","","","","",""
"","image-keyboard-response","139","149814","0.0-207.0","3YMU66OBIOUJ0VYSAP06GCB8WSMGH6","A2POU9TTW177VH","3RBI0I35XEP26UEZY8S8UZLEA1IY3E","","848.4000000059605","img/food1.png","75","849.0999999940395","2","1","false","1","2","1,0.5,0,1,0.5,0,0.5,0,1","0,1,0.5,0,1,0.5,1,0.5,0","3",""
"","html-keyboard-response","140","150116","0.0-208.0","3YMU66OBIOUJ0VYSAP06GCB8WSMGH6","A2POU9TTW177VH","3RBI0I35XEP26UEZY8S8UZLEA1IY3E","","null","<img src=""img/food1.png"" style=""width:200px; border:14px solid green;"">","null","","","","","","","","","",""
"","image-keyboard-response","141","150830","0.0-210.0","3YMU66OBIOUJ0VYSAP06GCB8WSMGH6","A2POU9TTW177VH","3RBI0I35XEP26UEZY8S8UZLEA1IY3E","","712.8000000119209","img/food2.png","76","713.5999999940395","3","0","false","2","2","1,0.5,0,1,0.5,0,0.5,0,1","0,1,0.5,0,1,0.5,1,0.5,0","3",""
"","html-keyboard-response","142","151133","0.0-211.0","3YMU66OBIOUJ0VYSAP06GCB8WSMGH6","A2POU9TTW177VH","3RBI0I35XEP26UEZY8S8UZLEA1IY3E","","null","<img src=""img/food2.png"" style=""width:200px;border:14px solid red;"">","null","","","","","","","","","",""
"","image-keyboard-response","143","151544","0.0-213.0","3YMU66OBIOUJ0VYSAP06GCB8WSMGH6","A2POU9TTW177VH","3RBI0I35XEP26UEZY8S8UZLEA1IY3E","","410.5","img/food2.png","75","411.19999998807907","2","1","false","2","2","1,0.5,0,1,0.5,0,0.5,0,1","0,1,0.5,0,1,0.5,1,0.5,0","3",""
"","html-keyboard-response","144","151845","0.0-214.0","3YMU66OBIOUJ0VYSAP06GCB8WSMGH6","A2POU9TTW177VH","3RBI0I35XEP26UEZY8S8UZLEA1IY3E","","null","<img src=""img/food2.png"" style=""width:200px; border:14px solid green;"">","null","","","","","","","","","",""
"","image-keyboard-response","145","152412","0.0-216.0","3YMU66OBIOUJ0VYSAP06GCB8WSMGH6","A2POU9TTW177VH","3RBI0I35XEP26UEZY8S8UZLEA1IY3E","","565.8000000119209","img/food1.png","75","566.8000000119209","2","1","false","1","2","1,0.5,0,1,0.5,0,0.5,0,1","0,1,0.5,0,1,0.5,1,0.5,0","3",""
"","html-keyboard-response","146","152714","0.0-217.0","3YMU66OBIOUJ0VYSAP06GCB8WSMGH6","A2POU9TTW177VH","3RBI0I35XEP26UEZY8S8UZLEA1IY3E","","null","<img src=""img/food1.png"" style=""width:200px; border:14px solid green;"">","null","","","","","","","","","",""
"","image-keyboard-response","147","153553","0.0-219.0","3YMU66OBIOUJ0VYSAP06GCB8WSMGH6","A2POU9TTW177VH","3RBI0I35XEP26UEZY8S8UZLEA1IY3E","","836.6999999880791","img/food3.png","74","837.9000000059605","1","1","false","3","2","1,0.5,0,1,0.5,0,0.5,0,1","0,1,0.5,0,1,0.5,1,0.5,0","3",""
"","html-keyboard-response","148","153855","0.0-220.0","3YMU66OBIOUJ0VYSAP06GCB8WSMGH6","A2POU9TTW177VH","3RBI0I35XEP26UEZY8S8UZLEA1IY3E","","null","<img src=""img/food3.png"" style=""width:200px; border:14px solid green;"">","null","","","","","","","","","",""
"","image-keyboard-response","149","154250","0.0-222.0","3YMU66OBIOUJ0VYSAP06GCB8WSMGH6","A2POU9TTW177VH","3RBI0I35XEP26UEZY8S8UZLEA1IY3E","","393","img/food3.png","74","394.19999998807907","1","1","false","3","2","1,0.5,0,1,0.5,0,0.5,0,1","0,1,0.5,0,1,0.5,1,0.5,0","3",""
"","html-keyboard-response","150","154553","0.0-223.0","3YMU66OBIOUJ0VYSAP06GCB8WSMGH6","A2POU9TTW177VH","3RBI0I35XEP26UEZY8S8UZLEA1IY3E","","null","<img src=""img/food3.png"" style=""width:200px; border:14px solid green;"">","null","","","","","","","","","",""
"","image-keyboard-response","151","154916","0.0-225.0","3YMU66OBIOUJ0VYSAP06GCB8WSMGH6","A2POU9TTW177VH","3RBI0I35XEP26UEZY8S8UZLEA1IY3E","","362.7000000178814","img/food3.png","74","363.5","1","1","false","3","2","1,0.5,0,1,0.5,0,0.5,0,1","0,1,0.5,0,1,0.5,1,0.5,0","3",""
"","html-keyboard-response","152","155220","0.0-226.0","3YMU66OBIOUJ0VYSAP06GCB8WSMGH6","A2POU9TTW177VH","3RBI0I35XEP26UEZY8S8UZLEA1IY3E","","null","<img src=""img/food3.png"" style=""width:200px; border:14px solid green;"">","null","","","","","","","","","",""
"","image-keyboard-response","153","155565","0.0-228.0","3YMU66OBIOUJ0VYSAP06GCB8WSMGH6","A2POU9TTW177VH","3RBI0I35XEP26UEZY8S8UZLEA1IY3E","","344","img/food3.png","74","344.90000000596046","1","1","false","3","2","1,0.5,0,1,0.5,0,0.5,0,1","0,1,0.5,0,1,0.5,1,0.5,0","3",""
"","html-keyboard-response","154","155866","0.0-229.0","3YMU66OBIOUJ0VYSAP06GCB8WSMGH6","A2POU9TTW177VH","3RBI0I35XEP26UEZY8S8UZLEA1IY3E","","null","<img src=""img/food3.png"" style=""width:200px; border:14px solid green;"">","null","","","","","","","","","",""
"","image-keyboard-response","155","156187","0.0-231.0","3YMU66OBIOUJ0VYSAP06GCB8WSMGH6","A2POU9TTW177VH","3RBI0I35XEP26UEZY8S8UZLEA1IY3E","","319.5","img/food3.png","74","320.40000000596046","1","1","false","3","2","1,0.5,0,1,0.5,0,0.5,0,1","0,1,0.5,0,1,0.5,1,0.5,0","3",""
"","html-keyboard-response","156","156490","0.0-232.0","3YMU66OBIOUJ0VYSAP06GCB8WSMGH6","A2POU9TTW177VH","3RBI0I35XEP26UEZY8S8UZLEA1IY3E","","null","<img src=""img/food3.png"" style=""width:200px; border:14px solid green;"">","null","","","","","","","","","",""
"","image-keyboard-response","157","157201","0.0-234.0","3YMU66OBIOUJ0VYSAP06GCB8WSMGH6","A2POU9TTW177VH","3RBI0I35XEP26UEZY8S8UZLEA1IY3E","","709.2999999821186","img/food1.png","75","710.4000000059605","2","1","false","1","2","1,0.5,0,1,0.5,0,0.5,0,1","0,1,0.5,0,1,0.5,1,0.5,0","3",""
"","html-keyboard-response","158","157503","0.0-235.0","3YMU66OBIOUJ0VYSAP06GCB8WSMGH6","A2POU9TTW177VH","3RBI0I35XEP26UEZY8S8UZLEA1IY3E","","null","<img src=""img/food1.png"" style=""width:200px; border:14px solid green;"">","null","","","","","","","","","",""
"","image-keyboard-response","159","158507","0.0-237.0","3YMU66OBIOUJ0VYSAP06GCB8WSMGH6","A2POU9TTW177VH","3RBI0I35XEP26UEZY8S8UZLEA1IY3E","","","img/food2.png","","1002.9000000059605","-1","0","true","2","2","1,0.5,0,1,0.5,0,0.5,0,1","0,1,0.5,0,1,0.5,1,0.5,0","3",""
"","html-keyboard-response","160","158809","0.0-238.0","3YMU66OBIOUJ0VYSAP06GCB8WSMGH6","A2POU9TTW177VH","3RBI0I35XEP26UEZY8S8UZLEA1IY3E","","null","<img src=""img/food2.png"" style=""width:200px;border:14px solid red;"">","null","","","","","","","","","",""
"","html-keyboard-response","161","181341","0.0-239.0-0.0","3YMU66OBIOUJ0VYSAP06GCB8WSMGH6","A2POU9TTW177VH","3RBI0I35XEP26UEZY8S8UZLEA1IY3E","","","","","","","","","","","","","",""
"","image-keyboard-response","162","182039","0.0-240.0","3YMU66OBIOUJ0VYSAP06GCB8WSMGH6","A2POU9TTW177VH","3RBI0I35XEP26UEZY8S8UZLEA1IY3E","","695.7999999821186","img/food2.png","75","697.0999999940395","2","1","false","2","2","1,0.5,0,1,0.5,0,0.5,0,1","0,1,0.5,0,1,0.5,1,0.5,0","3",""
"","html-keyboard-response","163","182341","0.0-241.0","3YMU66OBIOUJ0VYSAP06GCB8WSMGH6","A2POU9TTW177VH","3RBI0I35XEP26UEZY8S8UZLEA1IY3E","","null","<img src=""img/food2.png"" style=""width:200px; border:14px solid green;"">","null","","","","","","","","","",""
"","image-keyboard-response","164","182747","0.0-243.0","3YMU66OBIOUJ0VYSAP06GCB8WSMGH6","A2POU9TTW177VH","3RBI0I35XEP26UEZY8S8UZLEA1IY3E","","405.09999999403954","img/food3.png","75","405.90000000596046","2","0","false","3","2","1,0.5,0,1,0.5,0,0.5,0,1","0,1,0.5,0,1,0.5,1,0.5,0","3",""
"","html-keyboard-response","165","183048","0.0-244.0","3YMU66OBIOUJ0VYSAP06GCB8WSMGH6","A2POU9TTW177VH","3RBI0I35XEP26UEZY8S8UZLEA1IY3E","","null","<img src=""img/food3.png"" style=""width:200px;border:14px solid red;"">","null","","","","","","","","","",""
"","image-keyboard-response","166","183431","0.0-246.0","3YMU66OBIOUJ0VYSAP06GCB8WSMGH6","A2POU9TTW177VH","3RBI0I35XEP26UEZY8S8UZLEA1IY3E","","381.80000001192093","img/food1.png","76","382.7000000178814","3","1","false","1","2","1,0.5,0,1,0.5,0,0.5,0,1","0,1,0.5,0,1,0.5,1,0.5,0","3",""
"","html-keyboard-response","167","183733","0.0-247.0","3YMU66OBIOUJ0VYSAP06GCB8WSMGH6","A2POU9TTW177VH","3RBI0I35XEP26UEZY8S8UZLEA1IY3E","","null","<img src=""img/food1.png"" style=""width:200px; border:14px solid green;"">","null","","","","","","","","","",""
"","image-keyboard-response","168","184030","0.0-249.0","3YMU66OBIOUJ0VYSAP06GCB8WSMGH6","A2POU9TTW177VH","3RBI0I35XEP26UEZY8S8UZLEA1IY3E","","295.19999998807907","img/food3.png","76","296","3","0","false","3","2","1,0.5,0,1,0.5,0,0.5,0,1","0,1,0.5,0,1,0.5,1,0.5,0","3",""
"","html-keyboard-response","169","184331","0.0-250.0","3YMU66OBIOUJ0VYSAP06GCB8WSMGH6","A2POU9TTW177VH","3RBI0I35XEP26UEZY8S8UZLEA1IY3E","","null","<img src=""img/food3.png"" style=""width:200px;border:14px solid red;"">","null","","","","","","","","","",""
"","image-keyboard-response","170","184929","0.0-252.0","3YMU66OBIOUJ0VYSAP06GCB8WSMGH6","A2POU9TTW177VH","3RBI0I35XEP26UEZY8S8UZLEA1IY3E","","596.5999999940395","img/food1.png","74","597.3000000119209","1","0","false","1","2","1,0.5,0,1,0.5,0,0.5,0,1","0,1,0.5,0,1,0.5,1,0.5,0","3",""
"","html-keyboard-response","171","185230","0.0-253.0","3YMU66OBIOUJ0VYSAP06GCB8WSMGH6","A2POU9TTW177VH","3RBI0I35XEP26UEZY8S8UZLEA1IY3E","","null","<img src=""img/food1.png"" style=""width:200px;border:14px solid red;"">","null","","","","","","","","","",""
"","image-keyboard-response","172","185931","0.0-255.0","3YMU66OBIOUJ0VYSAP06GCB8WSMGH6","A2POU9TTW177VH","3RBI0I35XEP26UEZY8S8UZLEA1IY3E","","699.9000000059605","img/food3.png","75","700.7999999821186","2","1","false","3","2","1,0.5,0,1,0.5,0,0.5,0,1","0,1,0.5,0,1,0.5,1,0.5,0","3",""
"","html-keyboard-response","173","186233","0.0-256.0","3YMU66OBIOUJ0VYSAP06GCB8WSMGH6","A2POU9TTW177VH","3RBI0I35XEP26UEZY8S8UZLEA1IY3E","","null","<img src=""img/food3.png"" style=""width:200px; border:14px solid green;"">","null","","","","","","","","","",""
"","image-keyboard-response","174","186535","0.0-258.0","3YMU66OBIOUJ0VYSAP06GCB8WSMGH6","A2POU9TTW177VH","3RBI0I35XEP26UEZY8S8UZLEA1IY3E","","300.40000000596046","img/food3.png","75","301.5","2","0","false","3","2","1,0.5,0,1,0.5,0,0.5,0,1","0,1,0.5,0,1,0.5,1,0.5,0","3",""
"","html-keyboard-response","175","186837","0.0-259.0","3YMU66OBIOUJ0VYSAP06GCB8WSMGH6","A2POU9TTW177VH","3RBI0I35XEP26UEZY8S8UZLEA1IY3E","","null","<img src=""img/food3.png"" style=""width:200px;border:14px solid red;"">","null","","","","","","","","","",""
"","image-keyboard-response","176","187598","0.0-261.0","3YMU66OBIOUJ0VYSAP06GCB8WSMGH6","A2POU9TTW177VH","3RBI0I35XEP26UEZY8S8UZLEA1IY3E","","760.5","img/food2.png","74","761.4000000059605","1","0","false","2","2","1,0.5,0,1,0.5,0,0.5,0,1","0,1,0.5,0,1,0.5,1,0.5,0","3",""
"","html-keyboard-response","177","187900","0.0-262.0","3YMU66OBIOUJ0VYSAP06GCB8WSMGH6","A2POU9TTW177VH","3RBI0I35XEP26UEZY8S8UZLEA1IY3E","","null","<img src=""img/food2.png"" style=""width:200px;border:14px solid red;"">","null","","","","","","","","","",""
"","image-keyboard-response","178","188618","0.0-264.0","3YMU66OBIOUJ0VYSAP06GCB8WSMGH6","A2POU9TTW177VH","3RBI0I35XEP26UEZY8S8UZLEA1IY3E","","716.2000000178814","img/food2.png","76","717.2000000178814","3","0","false","2","2","1,0.5,0,1,0.5,0,0.5,0,1","0,1,0.5,0,1,0.5,1,0.5,0","3",""
"","html-keyboard-response","179","188919","0.0-265.0","3YMU66OBIOUJ0VYSAP06GCB8WSMGH6","A2POU9TTW177VH","3RBI0I35XEP26UEZY8S8UZLEA1IY3E","","null","<img src=""img/food2.png"" style=""width:200px;border:14px solid red;"">","null","","","","","","","","","",""
"","image-keyboard-response","180","189149","0.0-267.0","3YMU66OBIOUJ0VYSAP06GCB8WSMGH6","A2POU9TTW177VH","3RBI0I35XEP26UEZY8S8UZLEA1IY3E","","228.5","img/food2.png","76","229.30000001192093","3","1","false","2","2","1,0.5,0,1,0.5,0,0.5,0,1","0,1,0.5,0,1,0.5,1,0.5,0","3",""
"","html-keyboard-response","181","189452","0.0-268.0","3YMU66OBIOUJ0VYSAP06GCB8WSMGH6","A2POU9TTW177VH","3RBI0I35XEP26UEZY8S8UZLEA1IY3E","","null","<img src=""img/food2.png"" style=""width:200px; border:14px solid green;"">","null","","","","","","","","","",""
"","image-keyboard-response","182","189830","0.0-270.0","3YMU66OBIOUJ0VYSAP06GCB8WSMGH6","A2POU9TTW177VH","3RBI0I35XEP26UEZY8S8UZLEA1IY3E","","376.69999998807907","img/food2.png","76","377.59999999403954","3","0","false","2","2","1,0.5,0,1,0.5,0,0.5,0,1","0,1,0.5,0,1,0.5,1,0.5,0","3",""
"","html-keyboard-response","183","190132","0.0-271.0","3YMU66OBIOUJ0VYSAP06GCB8WSMGH6","A2POU9TTW177VH","3RBI0I35XEP26UEZY8S8UZLEA1IY3E","","null","<img src=""img/food2.png"" style=""width:200px;border:14px solid red;"">","null","","","","","","","","","",""
"","instructions","184","199501","0.0-273.0","3YMU66OBIOUJ0VYSAP06GCB8WSMGH6","A2POU9TTW177VH","3RBI0I35XEP26UEZY8S8UZLEA1IY3E","[{""page_index"":0,""viewing_time"":7880.5999999940395},{""page_index"":1,""viewing_time"":1487.4000000059605}]","9368.200000017881","","","","","","","","","","","",""
"","image-keyboard-response","185","201291","0.0-274.0","3YMU66OBIOUJ0VYSAP06GCB8WSMGH6","A2POU9TTW177VH","3RBI0I35XEP26UEZY8S8UZLEA1IY3E","","1789.2999999821186","img/food6.png","74","1790.4000000059605","1","0","","1","1","1,0.5,0,1,0.5,0,0.5,0,1","0,1,0.5,0,1,0.5,1,0.5,0","3",""
"","html-keyboard-response","186","201593","0.0-275.0","3YMU66OBIOUJ0VYSAP06GCB8WSMGH6","A2POU9TTW177VH","3RBI0I35XEP26UEZY8S8UZLEA1IY3E","","null","<img src=""img/food6.png"" style=""width:200px;border:14px solid red;"">","null","","","","","","","","","",""
"","image-keyboard-response","187","202316","0.0-276.0","3YMU66OBIOUJ0VYSAP06GCB8WSMGH6","A2POU9TTW177VH","3RBI0I35XEP26UEZY8S8UZLEA1IY3E","","721.5999999940395","img/food5.png","76","722.5","3","0","","2","1","1,0.5,0,1,0.5,0,0.5,0,1","0,1,0.5,0,1,0.5,1,0.5,0","3",""
"","html-keyboard-response","188","202619","0.0-277.0","3YMU66OBIOUJ0VYSAP06GCB8WSMGH6","A2POU9TTW177VH","3RBI0I35XEP26UEZY8S8UZLEA1IY3E","","null","<img src=""img/food5.png"" style=""width:200px;border:14px solid red;"">","null","","","","","","","","","",""
"","image-keyboard-response","189","202962","0.0-278.0","3YMU66OBIOUJ0VYSAP06GCB8WSMGH6","A2POU9TTW177VH","3RBI0I35XEP26UEZY8S8UZLEA1IY3E","","342.40000000596046","img/food5.png","75","343.19999998807907","2","1","","2","1","1,0.5,0,1,0.5,0,0.5,0,1","0,1,0.5,0,1,0.5,1,0.5,0","3",""
"","html-keyboard-response","190","203264","0.0-279.0","3YMU66OBIOUJ0VYSAP06GCB8WSMGH6","A2POU9TTW177VH","3RBI0I35XEP26UEZY8S8UZLEA1IY3E","","null","<img src=""img/food5.png"" style=""width:200px; border:14px solid green;"">","null","","","","","","","","","",""
"","image-keyboard-response","191","203954","0.0-280.0","3YMU66OBIOUJ0VYSAP06GCB8WSMGH6","A2POU9TTW177VH","3RBI0I35XEP26UEZY8S8UZLEA1IY3E","","689","img/food6.png","76","689.9000000059605","3","1","","1","1","1,0.5,0,1,0.5,0,0.5,0,1","0,1,0.5,0,1,0.5,1,0.5,0","3",""
"","html-keyboard-response","192","204256","0.0-281.0","3YMU66OBIOUJ0VYSAP06GCB8WSMGH6","A2POU9TTW177VH","3RBI0I35XEP26UEZY8S8UZLEA1IY3E","","null","<img src=""img/food6.png"" style=""width:200px; border:14px solid green;"">","null","","","","","","","","","",""
"","image-keyboard-response","193","205091","0.0-282.0","3YMU66OBIOUJ0VYSAP06GCB8WSMGH6","A2POU9TTW177VH","3RBI0I35XEP26UEZY8S8UZLEA1IY3E","","833.7000000178814","img/food4.png","74","834.8000000119209","1","1","","3","1","1,0.5,0,1,0.5,0,0.5,0,1","0,1,0.5,0,1,0.5,1,0.5,0","3",""
"","html-keyboard-response","194","205393","0.0-283.0","3YMU66OBIOUJ0VYSAP06GCB8WSMGH6","A2POU9TTW177VH","3RBI0I35XEP26UEZY8S8UZLEA1IY3E","","null","<img src=""img/food4.png"" style=""width:200px; border:14px solid green;"">","null","","","","","","","","","",""
"","image-keyboard-response","195","206228","0.0-284.0","3YMU66OBIOUJ0VYSAP06GCB8WSMGH6","A2POU9TTW177VH","3RBI0I35XEP26UEZY8S8UZLEA1IY3E","","834.1999999880791","img/food6.png","76","835.1999999880791","3","1","","1","1","1,0.5,0,1,0.5,0,0.5,0,1","0,1,0.5,0,1,0.5,1,0.5,0","3",""
"","html-keyboard-response","196","206530","0.0-285.0","3YMU66OBIOUJ0VYSAP06GCB8WSMGH6","A2POU9TTW177VH","3RBI0I35XEP26UEZY8S8UZLEA1IY3E","","null","<img src=""img/food6.png"" style=""width:200px; border:14px solid green;"">","null","","","","","","","","","",""
"","image-keyboard-response","197","206998","0.0-286.0","3YMU66OBIOUJ0VYSAP06GCB8WSMGH6","A2POU9TTW177VH","3RBI0I35XEP26UEZY8S8UZLEA1IY3E","","466.69999998807907","img/food6.png","76","468","3","1","","1","1","1,0.5,0,1,0.5,0,0.5,0,1","0,1,0.5,0,1,0.5,1,0.5,0","3",""
"","html-keyboard-response","198","207300","0.0-287.0","3YMU66OBIOUJ0VYSAP06GCB8WSMGH6","A2POU9TTW177VH","3RBI0I35XEP26UEZY8S8UZLEA1IY3E","","null","<img src=""img/food6.png"" style=""width:200px; border:14px solid green;"">","null","","","","","","","","","",""
"","image-keyboard-response","199","208058","0.0-288.0","3YMU66OBIOUJ0VYSAP06GCB8WSMGH6","A2POU9TTW177VH","3RBI0I35XEP26UEZY8S8UZLEA1IY3E","","757.3999999761581","img/food5.png","75","758.7999999821186","2","1","","2","1","1,0.5,0,1,0.5,0,0.5,0,1","0,1,0.5,0,1,0.5,1,0.5,0","3",""
"","html-keyboard-response","200","208361","0.0-289.0","3YMU66OBIOUJ0VYSAP06GCB8WSMGH6","A2POU9TTW177VH","3RBI0I35XEP26UEZY8S8UZLEA1IY3E","","null","<img src=""img/food5.png"" style=""width:200px; border:14px solid green;"">","null","","","","","","","","","",""
"","image-keyboard-response","201","208736","0.0-290.0","3YMU66OBIOUJ0VYSAP06GCB8WSMGH6","A2POU9TTW177VH","3RBI0I35XEP26UEZY8S8UZLEA1IY3E","","373.80000001192093","img/food5.png","75","374.5","2","1","","2","1","1,0.5,0,1,0.5,0,0.5,0,1","0,1,0.5,0,1,0.5,1,0.5,0","3",""
"","html-keyboard-response","202","209038","0.0-291.0","3YMU66OBIOUJ0VYSAP06GCB8WSMGH6","A2POU9TTW177VH","3RBI0I35XEP26UEZY8S8UZLEA1IY3E","","null","<img src=""img/food5.png"" style=""width:200px; border:14px solid green;"">","null","","","","","","","","","",""
"","image-keyboard-response","203","209360","0.0-292.0","3YMU66OBIOUJ0VYSAP06GCB8WSMGH6","A2POU9TTW177VH","3RBI0I35XEP26UEZY8S8UZLEA1IY3E","","321","img/food5.png","75","322","2","1","","2","1","1,0.5,0,1,0.5,0,0.5,0,1","0,1,0.5,0,1,0.5,1,0.5,0","3",""
"","html-keyboard-response","204","209661","0.0-293.0","3YMU66OBIOUJ0VYSAP06GCB8WSMGH6","A2POU9TTW177VH","3RBI0I35XEP26UEZY8S8UZLEA1IY3E","","null","<img src=""img/food5.png"" style=""width:200px; border:14px solid green;"">","null","","","","","","","","","",""
"","image-keyboard-response","205","210014","0.0-294.0","3YMU66OBIOUJ0VYSAP06GCB8WSMGH6","A2POU9TTW177VH","3RBI0I35XEP26UEZY8S8UZLEA1IY3E","","351.5","img/food5.png","75","352.5","2","1","","2","1","1,0.5,0,1,0.5,0,0.5,0,1","0,1,0.5,0,1,0.5,1,0.5,0","3",""
"","html-keyboard-response","206","210316","0.0-295.0","3YMU66OBIOUJ0VYSAP06GCB8WSMGH6","A2POU9TTW177VH","3RBI0I35XEP26UEZY8S8UZLEA1IY3E","","null","<img src=""img/food5.png"" style=""width:200px; border:14px solid green;"">","null","","","","","","","","","",""
"","image-keyboard-response","207","211089","0.0-296.0","3YMU66OBIOUJ0VYSAP06GCB8WSMGH6","A2POU9TTW177VH","3RBI0I35XEP26UEZY8S8UZLEA1IY3E","","772.1999999880791","img/food4.png","74","773.0999999940395","1","1","","3","1","1,0.5,0,1,0.5,0,0.5,0,1","0,1,0.5,0,1,0.5,1,0.5,0","3",""
"","html-keyboard-response","208","211392","0.0-297.0","3YMU66OBIOUJ0VYSAP06GCB8WSMGH6","A2POU9TTW177VH","3RBI0I35XEP26UEZY8S8UZLEA1IY3E","","null","<img src=""img/food4.png"" style=""width:200px; border:14px solid green;"">","null","","","","","","","","","",""
"","image-keyboard-response","209","212042","0.0-298.0","3YMU66OBIOUJ0VYSAP06GCB8WSMGH6","A2POU9TTW177VH","3RBI0I35XEP26UEZY8S8UZLEA1IY3E","","648.9000000059605","img/food5.png","75","650","2","1","","2","1","1,0.5,0,1,0.5,0,0.5,0,1","0,1,0.5,0,1,0.5,1,0.5,0","3",""
"","html-keyboard-response","210","212344","0.0-299.0","3YMU66OBIOUJ0VYSAP06GCB8WSMGH6","A2POU9TTW177VH","3RBI0I35XEP26UEZY8S8UZLEA1IY3E","","null","<img src=""img/food5.png"" style=""width:200px; border:14px solid green;"">","null","","","","","","","","","",""
"","image-keyboard-response","211","213198","0.0-300.0","3YMU66OBIOUJ0VYSAP06GCB8WSMGH6","A2POU9TTW177VH","3RBI0I35XEP26UEZY8S8UZLEA1IY3E","","852.6000000238419","img/food6.png","76","853.5","3","1","","1","1","1,0.5,0,1,0.5,0,0.5,0,1","0,1,0.5,0,1,0.5,1,0.5,0","3",""
"","html-keyboard-response","212","213500","0.0-301.0","3YMU66OBIOUJ0VYSAP06GCB8WSMGH6","A2POU9TTW177VH","3RBI0I35XEP26UEZY8S8UZLEA1IY3E","","null","<img src=""img/food6.png"" style=""width:200px; border:14px solid green;"">","null","","","","","","","","","",""
"","image-keyboard-response","213","214484","0.0-302.0","3YMU66OBIOUJ0VYSAP06GCB8WSMGH6","A2POU9TTW177VH","3RBI0I35XEP26UEZY8S8UZLEA1IY3E","","982.4000000059605","img/food4.png","75","983.2000000178814","2","1","","3","1","1,0.5,0,1,0.5,0,0.5,0,1","0,1,0.5,0,1,0.5,1,0.5,0","3",""
"","html-keyboard-response","214","214785","0.0-303.0","3YMU66OBIOUJ0VYSAP06GCB8WSMGH6","A2POU9TTW177VH","3RBI0I35XEP26UEZY8S8UZLEA1IY3E","","null","<img src=""img/food4.png"" style=""width:200px; border:14px solid green;"">","null","","","","","","","","","",""
"","image-keyboard-response","215","215476","0.0-304.0","3YMU66OBIOUJ0VYSAP06GCB8WSMGH6","A2POU9TTW177VH","3RBI0I35XEP26UEZY8S8UZLEA1IY3E","","690.5","img/food6.png","76","691.2000000178814","3","0","","1","1","1,0.5,0,1,0.5,0,0.5,0,1","0,1,0.5,0,1,0.5,1,0.5,0","3",""
"","html-keyboard-response","216","215778","0.0-305.0","3YMU66OBIOUJ0VYSAP06GCB8WSMGH6","A2POU9TTW177VH","3RBI0I35XEP26UEZY8S8UZLEA1IY3E","","null","<img src=""img/food6.png"" style=""width:200px;border:14px solid red;"">","null","","","","","","","","","",""
"","image-keyboard-response","217","216453","0.0-306.0","3YMU66OBIOUJ0VYSAP06GCB8WSMGH6","A2POU9TTW177VH","3RBI0I35XEP26UEZY8S8UZLEA1IY3E","","673.3000000119209","img/food4.png","75","674.0999999940395","2","0","","3","1","1,0.5,0,1,0.5,0,0.5,0,1","0,1,0.5,0,1,0.5,1,0.5,0","3",""
"","html-keyboard-response","218","216755","0.0-307.0","3YMU66OBIOUJ0VYSAP06GCB8WSMGH6","A2POU9TTW177VH","3RBI0I35XEP26UEZY8S8UZLEA1IY3E","","null","<img src=""img/food4.png"" style=""width:200px;border:14px solid red;"">","null","","","","","","","","","",""
"","image-keyboard-response","219","217629","0.0-308.0","3YMU66OBIOUJ0VYSAP06GCB8WSMGH6","A2POU9TTW177VH","3RBI0I35XEP26UEZY8S8UZLEA1IY3E","","873.7000000178814","img/food5.png","74","874.2999999821186","1","0","","2","1","1,0.5,0,1,0.5,0,0.5,0,1","0,1,0.5,0,1,0.5,1,0.5,0","3",""
"","html-keyboard-response","220","217930","0.0-309.0","3YMU66OBIOUJ0VYSAP06GCB8WSMGH6","A2POU9TTW177VH","3RBI0I35XEP26UEZY8S8UZLEA1IY3E","","null","<img src=""img/food5.png"" style=""width:200px;border:14px solid red;"">","null","","","","","","","","","",""
"","image-keyboard-response","221","218823","0.0-310.0","3YMU66OBIOUJ0VYSAP06GCB8WSMGH6","A2POU9TTW177VH","3RBI0I35XEP26UEZY8S8UZLEA1IY3E","","891.5999999940395","img/food6.png","76","892.5999999940395","3","0","","1","1","1,0.5,0,1,0.5,0,0.5,0,1","0,1,0.5,0,1,0.5,1,0.5,0","3",""
"","html-keyboard-response","222","219125","0.0-311.0","3YMU66OBIOUJ0VYSAP06GCB8WSMGH6","A2POU9TTW177VH","3RBI0I35XEP26UEZY8S8UZLEA1IY3E","","null","<img src=""img/food6.png"" style=""width:200px;border:14px solid red;"">","null","","","","","","","","","",""
"","image-keyboard-response","223","219673","0.0-312.0","3YMU66OBIOUJ0VYSAP06GCB8WSMGH6","A2POU9TTW177VH","3RBI0I35XEP26UEZY8S8UZLEA1IY3E","","546.4000000059605","img/food4.png","75","547.2999999821186","2","1","","3","1","1,0.5,0,1,0.5,0,0.5,0,1","0,1,0.5,0,1,0.5,1,0.5,0","3",""
"","html-keyboard-response","224","219975","0.0-313.0","3YMU66OBIOUJ0VYSAP06GCB8WSMGH6","A2POU9TTW177VH","3RBI0I35XEP26UEZY8S8UZLEA1IY3E","","null","<img src=""img/food4.png"" style=""width:200px; border:14px solid green;"">","null","","","","","","","","","",""
"","image-keyboard-response","225","220309","0.0-314.0","3YMU66OBIOUJ0VYSAP06GCB8WSMGH6","A2POU9TTW177VH","3RBI0I35XEP26UEZY8S8UZLEA1IY3E","","332.59999999403954","img/food4.png","75","333.5","2","1","","3","1","1,0.5,0,1,0.5,0,0.5,0,1","0,1,0.5,0,1,0.5,1,0.5,0","3",""
"","html-keyboard-response","226","220610","0.0-315.0","3YMU66OBIOUJ0VYSAP06GCB8WSMGH6","A2POU9TTW177VH","3RBI0I35XEP26UEZY8S8UZLEA1IY3E","","null","<img src=""img/food4.png"" style=""width:200px; border:14px solid green;"">","null","","","","","","","","","",""
"","image-keyboard-response","227","220949","0.0-316.0","3YMU66OBIOUJ0VYSAP06GCB8WSMGH6","A2POU9TTW177VH","3RBI0I35XEP26UEZY8S8UZLEA1IY3E","","337.40000000596046","img/food4.png","75","338.40000000596046","2","0","","3","1","1,0.5,0,1,0.5,0,0.5,0,1","0,1,0.5,0,1,0.5,1,0.5,0","3",""
"","html-keyboard-response","228","221251","0.0-317.0","3YMU66OBIOUJ0VYSAP06GCB8WSMGH6","A2POU9TTW177VH","3RBI0I35XEP26UEZY8S8UZLEA1IY3E","","null","<img src=""img/food4.png"" style=""width:200px;border:14px solid red;"">","null","","","","","","","","","",""
"","image-keyboard-response","229","221983","0.0-318.0","3YMU66OBIOUJ0VYSAP06GCB8WSMGH6","A2POU9TTW177VH","3RBI0I35XEP26UEZY8S8UZLEA1IY3E","","731.4000000059605","img/food5.png","76","732.4000000059605","3","1","","2","1","1,0.5,0,1,0.5,0,0.5,0,1","0,1,0.5,0,1,0.5,1,0.5,0","3",""
"","html-keyboard-response","230","222286","0.0-319.0","3YMU66OBIOUJ0VYSAP06GCB8WSMGH6","A2POU9TTW177VH","3RBI0I35XEP26UEZY8S8UZLEA1IY3E","","null","<img src=""img/food5.png"" style=""width:200px; border:14px solid green;"">","null","","","","","","","","","",""
"","image-keyboard-response","231","222593","0.0-320.0","3YMU66OBIOUJ0VYSAP06GCB8WSMGH6","A2POU9TTW177VH","3RBI0I35XEP26UEZY8S8UZLEA1IY3E","","305.69999998807907","img/food5.png","76","306.69999998807907","3","0","","2","1","1,0.5,0,1,0.5,0,0.5,0,1","0,1,0.5,0,1,0.5,1,0.5,0","3",""
"","html-keyboard-response","232","222895","0.0-321.0","3YMU66OBIOUJ0VYSAP06GCB8WSMGH6","A2POU9TTW177VH","3RBI0I35XEP26UEZY8S8UZLEA1IY3E","","null","<img src=""img/food5.png"" style=""width:200px;border:14px solid red;"">","null","","","","","","","","","",""
"","image-keyboard-response","233","223206","0.0-322.0","3YMU66OBIOUJ0VYSAP06GCB8WSMGH6","A2POU9TTW177VH","3RBI0I35XEP26UEZY8S8UZLEA1IY3E","","309.30000001192093","img/food5.png","76","310.19999998807907","3","0","","2","1","1,0.5,0,1,0.5,0,0.5,0,1","0,1,0.5,0,1,0.5,1,0.5,0","3",""
"","html-keyboard-response","234","223507","0.0-323.0","3YMU66OBIOUJ0VYSAP06GCB8WSMGH6","A2POU9TTW177VH","3RBI0I35XEP26UEZY8S8UZLEA1IY3E","","null","<img src=""img/food5.png"" style=""width:200px;border:14px solid red;"">","null","","","","","","","","","",""
"","image-keyboard-response","235","224185","0.0-324.0","3YMU66OBIOUJ0VYSAP06GCB8WSMGH6","A2POU9TTW177VH","3RBI0I35XEP26UEZY8S8UZLEA1IY3E","","676.9000000059605","img/food5.png","76","677.8000000119209","3","0","","2","1","1,0.5,0,1,0.5,0,0.5,0,1","0,1,0.5,0,1,0.5,1,0.5,0","3",""
"","html-keyboard-response","236","224488","0.0-325.0","3YMU66OBIOUJ0VYSAP06GCB8WSMGH6","A2POU9TTW177VH","3RBI0I35XEP26UEZY8S8UZLEA1IY3E","","null","<img src=""img/food5.png"" style=""width:200px;border:14px solid red;"">","null","","","","","","","","","",""
"","image-keyboard-response","237","224693","0.0-326.0","3YMU66OBIOUJ0VYSAP06GCB8WSMGH6","A2POU9TTW177VH","3RBI0I35XEP26UEZY8S8UZLEA1IY3E","","204.5","img/food6.png","75","205.2999999821186","2","1","","1","1","1,0.5,0,1,0.5,0,0.5,0,1","0,1,0.5,0,1,0.5,1,0.5,0","3",""
"","html-keyboard-response","238","224995","0.0-327.0","3YMU66OBIOUJ0VYSAP06GCB8WSMGH6","A2POU9TTW177VH","3RBI0I35XEP26UEZY8S8UZLEA1IY3E","","null","<img src=""img/food6.png"" style=""width:200px; border:14px solid green;"">","null","","","","","","","","","",""
"","image-keyboard-response","239","225448","0.0-328.0","3YMU66OBIOUJ0VYSAP06GCB8WSMGH6","A2POU9TTW177VH","3RBI0I35XEP26UEZY8S8UZLEA1IY3E","","451.90000000596046","img/food6.png","75","453","2","1","","1","1","1,0.5,0,1,0.5,0,0.5,0,1","0,1,0.5,0,1,0.5,1,0.5,0","3",""
"","html-keyboard-response","240","225751","0.0-329.0","3YMU66OBIOUJ0VYSAP06GCB8WSMGH6","A2POU9TTW177VH","3RBI0I35XEP26UEZY8S8UZLEA1IY3E","","null","<img src=""img/food6.png"" style=""width:200px; border:14px solid green;"">","null","","","","","","","","","",""
"","image-keyboard-response","241","226464","0.0-330.0","3YMU66OBIOUJ0VYSAP06GCB8WSMGH6","A2POU9TTW177VH","3RBI0I35XEP26UEZY8S8UZLEA1IY3E","","712.3000000119209","img/food4.png","74","713.1999999880791","1","1","","3","1","1,0.5,0,1,0.5,0,0.5,0,1","0,1,0.5,0,1,0.5,1,0.5,0","3",""
"","html-keyboard-response","242","226766","0.0-331.0","3YMU66OBIOUJ0VYSAP06GCB8WSMGH6","A2POU9TTW177VH","3RBI0I35XEP26UEZY8S8UZLEA1IY3E","","null","<img src=""img/food4.png"" style=""width:200px; border:14px solid green;"">","null","","","","","","","","","",""
"","image-keyboard-response","243","227522","0.0-332.0","3YMU66OBIOUJ0VYSAP06GCB8WSMGH6","A2POU9TTW177VH","3RBI0I35XEP26UEZY8S8UZLEA1IY3E","","754.1000000238419","img/food6.png","75","755.1000000238419","2","1","","1","1","1,0.5,0,1,0.5,0,0.5,0,1","0,1,0.5,0,1,0.5,1,0.5,0","3",""
"","html-keyboard-response","244","227832","0.0-333.0","3YMU66OBIOUJ0VYSAP06GCB8WSMGH6","A2POU9TTW177VH","3RBI0I35XEP26UEZY8S8UZLEA1IY3E","","null","<img src=""img/food6.png"" style=""width:200px; border:14px solid green;"">","null","","","","","","","","","",""
"","image-keyboard-response","245","228635","0.0-334.0","3YMU66OBIOUJ0VYSAP06GCB8WSMGH6","A2POU9TTW177VH","3RBI0I35XEP26UEZY8S8UZLEA1IY3E","","801.6999999880791","img/food5.png","76","802.6000000238419","3","0","","2","1","1,0.5,0,1,0.5,0,0.5,0,1","0,1,0.5,0,1,0.5,1,0.5,0","3",""
"","html-keyboard-response","246","228939","0.0-335.0","3YMU66OBIOUJ0VYSAP06GCB8WSMGH6","A2POU9TTW177VH","3RBI0I35XEP26UEZY8S8UZLEA1IY3E","","null","<img src=""img/food5.png"" style=""width:200px;border:14px solid red;"">","null","","","","","","","","","",""
"","image-keyboard-response","247","229570","0.0-336.0","3YMU66OBIOUJ0VYSAP06GCB8WSMGH6","A2POU9TTW177VH","3RBI0I35XEP26UEZY8S8UZLEA1IY3E","","630","img/food4.png","75","630.5","2","1","","3","1","1,0.5,0,1,0.5,0,0.5,0,1","0,1,0.5,0,1,0.5,1,0.5,0","3",""
"","html-keyboard-response","248","229873","0.0-337.0","3YMU66OBIOUJ0VYSAP06GCB8WSMGH6","A2POU9TTW177VH","3RBI0I35XEP26UEZY8S8UZLEA1IY3E","","null","<img src=""img/food4.png"" style=""width:200px; border:14px solid green;"">","null","","","","","","","","","",""
"","image-keyboard-response","249","230235","0.0-338.0","3YMU66OBIOUJ0VYSAP06GCB8WSMGH6","A2POU9TTW177VH","3RBI0I35XEP26UEZY8S8UZLEA1IY3E","","360.90000000596046","img/food4.png","75","361.80000001192093","2","0","","3","1","1,0.5,0,1,0.5,0,0.5,0,1","0,1,0.5,0,1,0.5,1,0.5,0","3",""
"","html-keyboard-response","250","230537","0.0-339.0","3YMU66OBIOUJ0VYSAP06GCB8WSMGH6","A2POU9TTW177VH","3RBI0I35XEP26UEZY8S8UZLEA1IY3E","","null","<img src=""img/food4.png"" style=""width:200px;border:14px solid red;"">","null","","","","","","","","","",""
"","image-keyboard-response","251","231227","0.0-340.0","3YMU66OBIOUJ0VYSAP06GCB8WSMGH6","A2POU9TTW177VH","3RBI0I35XEP26UEZY8S8UZLEA1IY3E","","689","img/food6.png","76","690","3","0","","1","1","1,0.5,0,1,0.5,0,0.5,0,1","0,1,0.5,0,1,0.5,1,0.5,0","3",""
"","html-keyboard-response","252","231528","0.0-341.0","3YMU66OBIOUJ0VYSAP06GCB8WSMGH6","A2POU9TTW177VH","3RBI0I35XEP26UEZY8S8UZLEA1IY3E","","null","<img src=""img/food6.png"" style=""width:200px;border:14px solid red;"">","null","","","","","","","","","",""
"","image-keyboard-response","253","232120","0.0-342.0","3YMU66OBIOUJ0VYSAP06GCB8WSMGH6","A2POU9TTW177VH","3RBI0I35XEP26UEZY8S8UZLEA1IY3E","","591.3000000119209","img/food6.png","74","592.1999999880791","1","0","","1","1","1,0.5,0,1,0.5,0,0.5,0,1","0,1,0.5,0,1,0.5,1,0.5,0","3",""
"","html-keyboard-response","254","232423","0.0-343.0","3YMU66OBIOUJ0VYSAP06GCB8WSMGH6","A2POU9TTW177VH","3RBI0I35XEP26UEZY8S8UZLEA1IY3E","","null","<img src=""img/food6.png"" style=""width:200px;border:14px solid red;"">","null","","","","","","","","","",""
"","image-keyboard-response","255","233146","0.0-344.0","3YMU66OBIOUJ0VYSAP06GCB8WSMGH6","A2POU9TTW177VH","3RBI0I35XEP26UEZY8S8UZLEA1IY3E","","721.6999999880791","img/food5.png","75","722.9000000059605","2","1","","2","1","1,0.5,0,1,0.5,0,0.5,0,1","0,1,0.5,0,1,0.5,1,0.5,0","3",""
"","html-keyboard-response","256","233449","0.0-345.0","3YMU66OBIOUJ0VYSAP06GCB8WSMGH6","A2POU9TTW177VH","3RBI0I35XEP26UEZY8S8UZLEA1IY3E","","null","<img src=""img/food5.png"" style=""width:200px; border:14px solid green;"">","null","","","","","","","","","",""
"","image-keyboard-response","257","234005","0.0-346.0","3YMU66OBIOUJ0VYSAP06GCB8WSMGH6","A2POU9TTW177VH","3RBI0I35XEP26UEZY8S8UZLEA1IY3E","","555.5","img/food6.png","75","556.1999999880791","2","1","","1","1","1,0.5,0,1,0.5,0,0.5,0,1","0,1,0.5,0,1,0.5,1,0.5,0","3",""
"","html-keyboard-response","258","234307","0.0-347.0","3YMU66OBIOUJ0VYSAP06GCB8WSMGH6","A2POU9TTW177VH","3RBI0I35XEP26UEZY8S8UZLEA1IY3E","","null","<img src=""img/food6.png"" style=""width:200px; border:14px solid green;"">","null","","","","","","","","","",""
"","image-keyboard-response","259","235125","0.0-348.0","3YMU66OBIOUJ0VYSAP06GCB8WSMGH6","A2POU9TTW177VH","3RBI0I35XEP26UEZY8S8UZLEA1IY3E","","816.5","img/food4.png","76","817.3999999761581","3","0","","3","1","1,0.5,0,1,0.5,0,0.5,0,1","0,1,0.5,0,1,0.5,1,0.5,0","3",""
"","html-keyboard-response","260","235427","0.0-349.0","3YMU66OBIOUJ0VYSAP06GCB8WSMGH6","A2POU9TTW177VH","3RBI0I35XEP26UEZY8S8UZLEA1IY3E","","null","<img src=""img/food4.png"" style=""width:200px;border:14px solid red;"">","null","","","","","","","","","",""
"","image-keyboard-response","261","235814","0.0-350.0","3YMU66OBIOUJ0VYSAP06GCB8WSMGH6","A2POU9TTW177VH","3RBI0I35XEP26UEZY8S8UZLEA1IY3E","","386.69999998807907","img/food4.png","75","387.69999998807907","2","1","","3","1","1,0.5,0,1,0.5,0,0.5,0,1","0,1,0.5,0,1,0.5,1,0.5,0","3",""
"","html-keyboard-response","262","236116","0.0-351.0","3YMU66OBIOUJ0VYSAP06GCB8WSMGH6","A2POU9TTW177VH","3RBI0I35XEP26UEZY8S8UZLEA1IY3E","","null","<img src=""img/food4.png"" style=""width:200px; border:14px solid green;"">","null","","","","","","","","","",""
"","image-keyboard-response","263","236802","0.0-352.0","3YMU66OBIOUJ0VYSAP06GCB8WSMGH6","A2POU9TTW177VH","3RBI0I35XEP26UEZY8S8UZLEA1IY3E","","684.7000000178814","img/food6.png","75","685.4000000059605","2","1","","1","1","1,0.5,0,1,0.5,0,0.5,0,1","0,1,0.5,0,1,0.5,1,0.5,0","3",""
"","html-keyboard-response","264","237103","0.0-353.0","3YMU66OBIOUJ0VYSAP06GCB8WSMGH6","A2POU9TTW177VH","3RBI0I35XEP26UEZY8S8UZLEA1IY3E","","null","<img src=""img/food6.png"" style=""width:200px; border:14px solid green;"">","null","","","","","","","","","",""
"","image-keyboard-response","265","237540","0.0-354.0","3YMU66OBIOUJ0VYSAP06GCB8WSMGH6","A2POU9TTW177VH","3RBI0I35XEP26UEZY8S8UZLEA1IY3E","","434.2000000178814","img/food6.png","75","436.2000000178814","2","1","","1","1","1,0.5,0,1,0.5,0,0.5,0,1","0,1,0.5,0,1,0.5,1,0.5,0","3",""
"","html-keyboard-response","266","237842","0.0-355.0","3YMU66OBIOUJ0VYSAP06GCB8WSMGH6","A2POU9TTW177VH","3RBI0I35XEP26UEZY8S8UZLEA1IY3E","","null","<img src=""img/food6.png"" style=""width:200px; border:14px solid green;"">","null","","","","","","","","","",""
"","image-keyboard-response","267","238662","0.0-356.0","3YMU66OBIOUJ0VYSAP06GCB8WSMGH6","A2POU9TTW177VH","3RBI0I35XEP26UEZY8S8UZLEA1IY3E","","818.8000000119209","img/food4.png","75","819.9000000059605","2","0","","3","1","1,0.5,0,1,0.5,0,0.5,0,1","0,1,0.5,0,1,0.5,1,0.5,0","3",""
"","html-keyboard-response","268","238964","0.0-357.0","3YMU66OBIOUJ0VYSAP06GCB8WSMGH6","A2POU9TTW177VH","3RBI0I35XEP26UEZY8S8UZLEA1IY3E","","null","<img src=""img/food4.png"" style=""width:200px;border:14px solid red;"">","null","","","","","","","","","",""
"","image-keyboard-response","269","239759","0.0-358.0","3YMU66OBIOUJ0VYSAP06GCB8WSMGH6","A2POU9TTW177VH","3RBI0I35XEP26UEZY8S8UZLEA1IY3E","","794.1999999880791","img/food5.png","74","794.9000000059605","1","0","","2","1","1,0.5,0,1,0.5,0,0.5,0,1","0,1,0.5,0,1,0.5,1,0.5,0","3",""
"","html-keyboard-response","270","240061","0.0-359.0","3YMU66OBIOUJ0VYSAP06GCB8WSMGH6","A2POU9TTW177VH","3RBI0I35XEP26UEZY8S8UZLEA1IY3E","","null","<img src=""img/food5.png"" style=""width:200px;border:14px solid red;"">","null","","","","","","","","","",""
"","image-keyboard-response","271","240545","0.0-360.0","3YMU66OBIOUJ0VYSAP06GCB8WSMGH6","A2POU9TTW177VH","3RBI0I35XEP26UEZY8S8UZLEA1IY3E","","483.09999999403954","img/food4.png","76","483.90000000596046","3","0","","3","1","1,0.5,0,1,0.5,0,0.5,0,1","0,1,0.5,0,1,0.5,1,0.5,0","3",""
"","html-keyboard-response","272","240847","0.0-361.0","3YMU66OBIOUJ0VYSAP06GCB8WSMGH6","A2POU9TTW177VH","3RBI0I35XEP26UEZY8S8UZLEA1IY3E","","null","<img src=""img/food4.png"" style=""width:200px;border:14px solid red;"">","null","","","","","","","","","",""
"","image-keyboard-response","273","241517","0.0-362.0","3YMU66OBIOUJ0VYSAP06GCB8WSMGH6","A2POU9TTW177VH","3RBI0I35XEP26UEZY8S8UZLEA1IY3E","","669.5999999940395","img/food6.png","75","670.5","2","1","","1","1","1,0.5,0,1,0.5,0,0.5,0,1","0,1,0.5,0,1,0.5,1,0.5,0","3",""
"","html-keyboard-response","274","241818","0.0-363.0","3YMU66OBIOUJ0VYSAP06GCB8WSMGH6","A2POU9TTW177VH","3RBI0I35XEP26UEZY8S8UZLEA1IY3E","","null","<img src=""img/food6.png"" style=""width:200px; border:14px solid green;"">","null","","","","","","","","","",""
"","image-keyboard-response","275","242481","0.0-364.0","3YMU66OBIOUJ0VYSAP06GCB8WSMGH6","A2POU9TTW177VH","3RBI0I35XEP26UEZY8S8UZLEA1IY3E","","662.2999999821186","img/food4.png","75","663.3999999761581","2","1","","3","1","1,0.5,0,1,0.5,0,0.5,0,1","0,1,0.5,0,1,0.5,1,0.5,0","3",""
"","html-keyboard-response","276","242784","0.0-365.0","3YMU66OBIOUJ0VYSAP06GCB8WSMGH6","A2POU9TTW177VH","3RBI0I35XEP26UEZY8S8UZLEA1IY3E","","null","<img src=""img/food4.png"" style=""width:200px; border:14px solid green;"">","null","","","","","","","","","",""
"","image-keyboard-response","277","243315","0.0-366.0","3YMU66OBIOUJ0VYSAP06GCB8WSMGH6","A2POU9TTW177VH","3RBI0I35XEP26UEZY8S8UZLEA1IY3E","","530.2000000178814","img/food6.png","75","530.9000000059605","2","1","","1","1","1,0.5,0,1,0.5,0,0.5,0,1","0,1,0.5,0,1,0.5,1,0.5,0","3",""
"","html-keyboard-response","278","243617","0.0-367.0","3YMU66OBIOUJ0VYSAP06GCB8WSMGH6","A2POU9TTW177VH","3RBI0I35XEP26UEZY8S8UZLEA1IY3E","","null","<img src=""img/food6.png"" style=""width:200px; border:14px solid green;"">","null","","","","","","","","","",""
"","image-keyboard-response","279","244028","0.0-368.0","3YMU66OBIOUJ0VYSAP06GCB8WSMGH6","A2POU9TTW177VH","3RBI0I35XEP26UEZY8S8UZLEA1IY3E","","410","img/food5.png","75","410.90000000596046","2","1","","2","1","1,0.5,0,1,0.5,0,0.5,0,1","0,1,0.5,0,1,0.5,1,0.5,0","3",""
"","html-keyboard-response","280","244340","0.0-369.0","3YMU66OBIOUJ0VYSAP06GCB8WSMGH6","A2POU9TTW177VH","3RBI0I35XEP26UEZY8S8UZLEA1IY3E","","null","<img src=""img/food5.png"" style=""width:200px; border:14px solid green;"">","null","","","","","","","","","",""
"","image-keyboard-response","281","244670","0.0-370.0","3YMU66OBIOUJ0VYSAP06GCB8WSMGH6","A2POU9TTW177VH","3RBI0I35XEP26UEZY8S8UZLEA1IY3E","","328.30000001192093","img/food4.png","75","329.2000000178814","2","0","","3","1","1,0.5,0,1,0.5,0,0.5,0,1","0,1,0.5,0,1,0.5,1,0.5,0","3",""
"","html-keyboard-response","282","244971","0.0-371.0","3YMU66OBIOUJ0VYSAP06GCB8WSMGH6","A2POU9TTW177VH","3RBI0I35XEP26UEZY8S8UZLEA1IY3E","","null","<img src=""img/food4.png"" style=""width:200px;border:14px solid red;"">","null","","","","","","","","","",""
"","image-keyboard-response","283","245431","0.0-372.0","3YMU66OBIOUJ0VYSAP06GCB8WSMGH6","A2POU9TTW177VH","3RBI0I35XEP26UEZY8S8UZLEA1IY3E","","459.09999999403954","img/food4.png","76","460.09999999403954","3","0","","3","1","1,0.5,0,1,0.5,0,0.5,0,1","0,1,0.5,0,1,0.5,1,0.5,0","3",""
"","html-keyboard-response","284","245734","0.0-373.0","3YMU66OBIOUJ0VYSAP06GCB8WSMGH6","A2POU9TTW177VH","3RBI0I35XEP26UEZY8S8UZLEA1IY3E","","null","<img src=""img/food4.png"" style=""width:200px;border:14px solid red;"">","null","","","","","","","","","",""
"","image-keyboard-response","285","246170","0.0-374.0","3YMU66OBIOUJ0VYSAP06GCB8WSMGH6","A2POU9TTW177VH","3RBI0I35XEP26UEZY8S8UZLEA1IY3E","","434.80000001192093","img/food4.png","74","436.09999999403954","1","1","","3","1","1,0.5,0,1,0.5,0,0.5,0,1","0,1,0.5,0,1,0.5,1,0.5,0","3",""
"","html-keyboard-response","286","246472","0.0-375.0","3YMU66OBIOUJ0VYSAP06GCB8WSMGH6","A2POU9TTW177VH","3RBI0I35XEP26UEZY8S8UZLEA1IY3E","","null","<img src=""img/food4.png"" style=""width:200px; border:14px solid green;"">","null","","","","","","","","","",""
"","image-keyboard-response","287","246842","0.0-376.0","3YMU66OBIOUJ0VYSAP06GCB8WSMGH6","A2POU9TTW177VH","3RBI0I35XEP26UEZY8S8UZLEA1IY3E","","368.69999998807907","img/food4.png","74","369.5","1","1","","3","1","1,0.5,0,1,0.5,0,0.5,0,1","0,1,0.5,0,1,0.5,1,0.5,0","3",""
"","html-keyboard-response","288","247144","0.0-377.0","3YMU66OBIOUJ0VYSAP06GCB8WSMGH6","A2POU9TTW177VH","3RBI0I35XEP26UEZY8S8UZLEA1IY3E","","null","<img src=""img/food4.png"" style=""width:200px; border:14px solid green;"">","null","","","","","","","","","",""
"","image-keyboard-response","289","247854","0.0-378.0","3YMU66OBIOUJ0VYSAP06GCB8WSMGH6","A2POU9TTW177VH","3RBI0I35XEP26UEZY8S8UZLEA1IY3E","","709.5","img/food5.png","75","710.5","2","1","","2","1","1,0.5,0,1,0.5,0,0.5,0,1","0,1,0.5,0,1,0.5,1,0.5,0","3",""
"","html-keyboard-response","290","248156","0.0-379.0","3YMU66OBIOUJ0VYSAP06GCB8WSMGH6","A2POU9TTW177VH","3RBI0I35XEP26UEZY8S8UZLEA1IY3E","","null","<img src=""img/food5.png"" style=""width:200px; border:14px solid green;"">","null","","","","","","","","","",""
"","image-keyboard-response","291","248565","0.0-380.0","3YMU66OBIOUJ0VYSAP06GCB8WSMGH6","A2POU9TTW177VH","3RBI0I35XEP26UEZY8S8UZLEA1IY3E","","408.19999998807907","img/food5.png","75","409.09999999403954","2","1","","2","1","1,0.5,0,1,0.5,0,0.5,0,1","0,1,0.5,0,1,0.5,1,0.5,0","3",""
"","html-keyboard-response","292","248867","0.0-381.0","3YMU66OBIOUJ0VYSAP06GCB8WSMGH6","A2POU9TTW177VH","3RBI0I35XEP26UEZY8S8UZLEA1IY3E","","null","<img src=""img/food5.png"" style=""width:200px; border:14px solid green;"">","null","","","","","","","","","",""
"","image-keyboard-response","293","249239","0.0-382.0","3YMU66OBIOUJ0VYSAP06GCB8WSMGH6","A2POU9TTW177VH","3RBI0I35XEP26UEZY8S8UZLEA1IY3E","","370.69999998807907","img/food5.png","75","371.59999999403954","2","1","","2","1","1,0.5,0,1,0.5,0,0.5,0,1","0,1,0.5,0,1,0.5,1,0.5,0","3",""
"","html-keyboard-response","294","249542","0.0-383.0","3YMU66OBIOUJ0VYSAP06GCB8WSMGH6","A2POU9TTW177VH","3RBI0I35XEP26UEZY8S8UZLEA1IY3E","","null","<img src=""img/food5.png"" style=""width:200px; border:14px solid green;"">","null","","","","","","","","","",""
"","image-keyboard-response","295","250043","0.0-384.0","3YMU66OBIOUJ0VYSAP06GCB8WSMGH6","A2POU9TTW177VH","3RBI0I35XEP26UEZY8S8UZLEA1IY3E","","500","img/food5.png","75","501.09999999403954","2","1","","2","1","1,0.5,0,1,0.5,0,0.5,0,1","0,1,0.5,0,1,0.5,1,0.5,0","3",""
"","html-keyboard-response","296","250345","0.0-385.0","3YMU66OBIOUJ0VYSAP06GCB8WSMGH6","A2POU9TTW177VH","3RBI0I35XEP26UEZY8S8UZLEA1IY3E","","null","<img src=""img/food5.png"" style=""width:200px; border:14px solid green;"">","null","","","","","","","","","",""
"","image-keyboard-response","297","251351","0.0-386.0","3YMU66OBIOUJ0VYSAP06GCB8WSMGH6","A2POU9TTW177VH","3RBI0I35XEP26UEZY8S8UZLEA1IY3E","","1004.8000000119209","img/food6.png","76","1005.7999999821186","3","1","","1","1","1,0.5,0,1,0.5,0,0.5,0,1","0,1,0.5,0,1,0.5,1,0.5,0","3",""
"","html-keyboard-response","298","251654","0.0-387.0","3YMU66OBIOUJ0VYSAP06GCB8WSMGH6","A2POU9TTW177VH","3RBI0I35XEP26UEZY8S8UZLEA1IY3E","","null","<img src=""img/food6.png"" style=""width:200px; border:14px solid green;"">","null","","","","","","","","","",""
"","image-keyboard-response","299","252313","0.0-388.0","3YMU66OBIOUJ0VYSAP06GCB8WSMGH6","A2POU9TTW177VH","3RBI0I35XEP26UEZY8S8UZLEA1IY3E","","657.6999999880791","img/food4.png","75","658.7999999821186","2","0","","3","1","1,0.5,0,1,0.5,0,0.5,0,1","0,1,0.5,0,1,0.5,1,0.5,0","3",""
"","html-keyboard-response","300","252615","0.0-389.0","3YMU66OBIOUJ0VYSAP06GCB8WSMGH6","A2POU9TTW177VH","3RBI0I35XEP26UEZY8S8UZLEA1IY3E","","null","<img src=""img/food4.png"" style=""width:200px;border:14px solid red;"">","null","","","","","","","","","",""
"","image-keyboard-response","301","253703","0.0-390.0","3YMU66OBIOUJ0VYSAP06GCB8WSMGH6","A2POU9TTW177VH","3RBI0I35XEP26UEZY8S8UZLEA1IY3E","","1087.5","img/food6.png","75","1088.0999999940395","2","1","","1","1","1,0.5,0,1,0.5,0,0.5,0,1","0,1,0.5,0,1,0.5,1,0.5,0","3",""
"","html-keyboard-response","302","254005","0.0-391.0","3YMU66OBIOUJ0VYSAP06GCB8WSMGH6","A2POU9TTW177VH","3RBI0I35XEP26UEZY8S8UZLEA1IY3E","","null","<img src=""img/food6.png"" style=""width:200px; border:14px solid green;"">","null","","","","","","","","","",""
"","image-keyboard-response","303","255056","0.0-392.0","3YMU66OBIOUJ0VYSAP06GCB8WSMGH6","A2POU9TTW177VH","3RBI0I35XEP26UEZY8S8UZLEA1IY3E","","1050.0999999940395","img/food5.png","76","1051.0999999940395","3","1","","2","1","1,0.5,0,1,0.5,0,0.5,0,1","0,1,0.5,0,1,0.5,1,0.5,0","3",""
"","html-keyboard-response","304","255357","0.0-393.0","3YMU66OBIOUJ0VYSAP06GCB8WSMGH6","A2POU9TTW177VH","3RBI0I35XEP26UEZY8S8UZLEA1IY3E","","null","<img src=""img/food5.png"" style=""width:200px; border:14px solid green;"">","null","","","","","","","","","",""
"","image-keyboard-response","305","256475","0.0-394.0","3YMU66OBIOUJ0VYSAP06GCB8WSMGH6","A2POU9TTW177VH","3RBI0I35XEP26UEZY8S8UZLEA1IY3E","","1117.2000000178814","img/food4.png","74","1118.199999988079","1","1","","3","1","1,0.5,0,1,0.5,0,0.5,0,1","0,1,0.5,0,1,0.5,1,0.5,0","3",""
"","html-keyboard-response","306","256778","0.0-395.0","3YMU66OBIOUJ0VYSAP06GCB8WSMGH6","A2POU9TTW177VH","3RBI0I35XEP26UEZY8S8UZLEA1IY3E","","null","<img src=""img/food4.png"" style=""width:200px; border:14px solid green;"">","null","","","","","","","","","",""
"","image-keyboard-response","307","257448","0.0-396.0","3YMU66OBIOUJ0VYSAP06GCB8WSMGH6","A2POU9TTW177VH","3RBI0I35XEP26UEZY8S8UZLEA1IY3E","","669.6999999880791","img/food6.png","75","670.5","2","1","","1","1","1,0.5,0,1,0.5,0,0.5,0,1","0,1,0.5,0,1,0.5,1,0.5,0","3",""
"","html-keyboard-response","308","257750","0.0-397.0","3YMU66OBIOUJ0VYSAP06GCB8WSMGH6","A2POU9TTW177VH","3RBI0I35XEP26UEZY8S8UZLEA1IY3E","","null","<img src=""img/food6.png"" style=""width:200px; border:14px solid green;"">","null","","","","","","","","","",""
"","image-keyboard-response","309","258140","0.0-398.0","3YMU66OBIOUJ0VYSAP06GCB8WSMGH6","A2POU9TTW177VH","3RBI0I35XEP26UEZY8S8UZLEA1IY3E","","388.19999998807907","img/food6.png","75","389.09999999403954","2","1","","1","1","1,0.5,0,1,0.5,0,0.5,0,1","0,1,0.5,0,1,0.5,1,0.5,0","3",""
"","html-keyboard-response","310","258442","0.0-399.0","3YMU66OBIOUJ0VYSAP06GCB8WSMGH6","A2POU9TTW177VH","3RBI0I35XEP26UEZY8S8UZLEA1IY3E","","null","<img src=""img/food6.png"" style=""width:200px; border:14px solid green;"">","null","","","","","","","","","",""
"","image-keyboard-response","311","258816","0.0-400.0","3YMU66OBIOUJ0VYSAP06GCB8WSMGH6","A2POU9TTW177VH","3RBI0I35XEP26UEZY8S8UZLEA1IY3E","","373.39999997615814","img/food6.png","75","374.30000001192093","2","1","","1","1","1,0.5,0,1,0.5,0,0.5,0,1","0,1,0.5,0,1,0.5,1,0.5,0","3",""
"","html-keyboard-response","312","259118","0.0-401.0","3YMU66OBIOUJ0VYSAP06GCB8WSMGH6","A2POU9TTW177VH","3RBI0I35XEP26UEZY8S8UZLEA1IY3E","","null","<img src=""img/food6.png"" style=""width:200px; border:14px solid green;"">","null","","","","","","","","","",""
"","image-keyboard-response","313","259985","0.0-402.0","3YMU66OBIOUJ0VYSAP06GCB8WSMGH6","A2POU9TTW177VH","3RBI0I35XEP26UEZY8S8UZLEA1IY3E","","865.9000000059605","img/food4.png","74","866.4000000059605","1","1","","3","1","1,0.5,0,1,0.5,0,0.5,0,1","0,1,0.5,0,1,0.5,1,0.5,0","3",""
"","html-keyboard-response","314","260289","0.0-403.0","3YMU66OBIOUJ0VYSAP06GCB8WSMGH6","A2POU9TTW177VH","3RBI0I35XEP26UEZY8S8UZLEA1IY3E","","null","<img src=""img/food4.png"" style=""width:200px; border:14px solid green;"">","null","","","","","","","","","",""
"","image-keyboard-response","315","261223","0.0-404.0","3YMU66OBIOUJ0VYSAP06GCB8WSMGH6","A2POU9TTW177VH","3RBI0I35XEP26UEZY8S8UZLEA1IY3E","","931.5999999940395","img/food5.png","75","932.5999999940395","2","1","","2","1","1,0.5,0,1,0.5,0,0.5,0,1","0,1,0.5,0,1,0.5,1,0.5,0","3",""
"","html-keyboard-response","316","261536","0.0-405.0","3YMU66OBIOUJ0VYSAP06GCB8WSMGH6","A2POU9TTW177VH","3RBI0I35XEP26UEZY8S8UZLEA1IY3E","","null","<img src=""img/food5.png"" style=""width:200px; border:14px solid green;"">","null","","","","","","","","","",""
"","image-keyboard-response","317","262183","0.0-406.0","3YMU66OBIOUJ0VYSAP06GCB8WSMGH6","A2POU9TTW177VH","3RBI0I35XEP26UEZY8S8UZLEA1IY3E","","646.1999999880791","img/food5.png","75","647.1999999880791","2","1","","2","1","1,0.5,0,1,0.5,0,0.5,0,1","0,1,0.5,0,1,0.5,1,0.5,0","3",""
"","html-keyboard-response","318","262486","0.0-407.0","3YMU66OBIOUJ0VYSAP06GCB8WSMGH6","A2POU9TTW177VH","3RBI0I35XEP26UEZY8S8UZLEA1IY3E","","null","<img src=""img/food5.png"" style=""width:200px; border:14px solid green;"">","null","","","","","","","","","",""
"","image-keyboard-response","319","263738","0.0-408.0","3YMU66OBIOUJ0VYSAP06GCB8WSMGH6","A2POU9TTW177VH","3RBI0I35XEP26UEZY8S8UZLEA1IY3E","","1251.199999988079","img/food4.png","74","1252.199999988079","1","1","","3","1","1,0.5,0,1,0.5,0,0.5,0,1","0,1,0.5,0,1,0.5,1,0.5,0","3",""
"","html-keyboard-response","320","264040","0.0-409.0","3YMU66OBIOUJ0VYSAP06GCB8WSMGH6","A2POU9TTW177VH","3RBI0I35XEP26UEZY8S8UZLEA1IY3E","","null","<img src=""img/food4.png"" style=""width:200px; border:14px solid green;"">","null","","","","","","","","","",""
"","image-keyboard-response","321","264400","0.0-410.0","3YMU66OBIOUJ0VYSAP06GCB8WSMGH6","A2POU9TTW177VH","3RBI0I35XEP26UEZY8S8UZLEA1IY3E","","359.09999999403954","img/food4.png","74","360","1","1","","3","1","1,0.5,0,1,0.5,0,0.5,0,1","0,1,0.5,0,1,0.5,1,0.5,0","3",""
"","html-keyboard-response","322","264702","0.0-411.0","3YMU66OBIOUJ0VYSAP06GCB8WSMGH6","A2POU9TTW177VH","3RBI0I35XEP26UEZY8S8UZLEA1IY3E","","null","<img src=""img/food4.png"" style=""width:200px; border:14px solid green;"">","null","","","","","","","","","",""
"","image-keyboard-response","323","265324","0.0-412.0","3YMU66OBIOUJ0VYSAP06GCB8WSMGH6","A2POU9TTW177VH","3RBI0I35XEP26UEZY8S8UZLEA1IY3E","","620.6999999880791","img/food6.png","75","621.5999999940395","2","1","","1","1","1,0.5,0,1,0.5,0,0.5,0,1","0,1,0.5,0,1,0.5,1,0.5,0","3",""
"","html-keyboard-response","324","265625","0.0-413.0","3YMU66OBIOUJ0VYSAP06GCB8WSMGH6","A2POU9TTW177VH","3RBI0I35XEP26UEZY8S8UZLEA1IY3E","","null","<img src=""img/food6.png"" style=""width:200px; border:14px solid green;"">","null","","","","","","","","","",""
"","image-keyboard-response","325","266080","0.0-414.0","3YMU66OBIOUJ0VYSAP06GCB8WSMGH6","A2POU9TTW177VH","3RBI0I35XEP26UEZY8S8UZLEA1IY3E","","454.40000000596046","img/food6.png","75","455.2999999821186","2","1","","1","1","1,0.5,0,1,0.5,0,0.5,0,1","0,1,0.5,0,1,0.5,1,0.5,0","3",""
"","html-keyboard-response","326","266382","0.0-415.0","3YMU66OBIOUJ0VYSAP06GCB8WSMGH6","A2POU9TTW177VH","3RBI0I35XEP26UEZY8S8UZLEA1IY3E","","null","<img src=""img/food6.png"" style=""width:200px; border:14px solid green;"">","null","","","","","","","","","",""
"","image-keyboard-response","327","266791","0.0-416.0","3YMU66OBIOUJ0VYSAP06GCB8WSMGH6","A2POU9TTW177VH","3RBI0I35XEP26UEZY8S8UZLEA1IY3E","","408.10000002384186","img/food6.png","75","408.90000000596046","2","1","","1","1","1,0.5,0,1,0.5,0,0.5,0,1","0,1,0.5,0,1,0.5,1,0.5,0","3",""
"","html-keyboard-response","328","267094","0.0-417.0","3YMU66OBIOUJ0VYSAP06GCB8WSMGH6","A2POU9TTW177VH","3RBI0I35XEP26UEZY8S8UZLEA1IY3E","","null","<img src=""img/food6.png"" style=""width:200px; border:14px solid green;"">","null","","","","","","","","","",""
"","image-keyboard-response","329","267920","0.0-418.0","3YMU66OBIOUJ0VYSAP06GCB8WSMGH6","A2POU9TTW177VH","3RBI0I35XEP26UEZY8S8UZLEA1IY3E","","825.4000000059605","img/food5.png","76","826.2999999821186","3","1","","2","1","1,0.5,0,1,0.5,0,0.5,0,1","0,1,0.5,0,1,0.5,1,0.5,0","3",""
"","html-keyboard-response","330","268222","0.0-419.0","3YMU66OBIOUJ0VYSAP06GCB8WSMGH6","A2POU9TTW177VH","3RBI0I35XEP26UEZY8S8UZLEA1IY3E","","null","<img src=""img/food5.png"" style=""width:200px; border:14px solid green;"">","null","","","","","","","","","",""
"","image-keyboard-response","331","268575","0.0-420.0","3YMU66OBIOUJ0VYSAP06GCB8WSMGH6","A2POU9TTW177VH","3RBI0I35XEP26UEZY8S8UZLEA1IY3E","","351.69999998807907","img/food5.png","76","352.90000000596046","3","0","","2","1","1,0.5,0,1,0.5,0,0.5,0,1","0,1,0.5,0,1,0.5,1,0.5,0","3",""
"","html-keyboard-response","332","268877","0.0-421.0","3YMU66OBIOUJ0VYSAP06GCB8WSMGH6","A2POU9TTW177VH","3RBI0I35XEP26UEZY8S8UZLEA1IY3E","","null","<img src=""img/food5.png"" style=""width:200px;border:14px solid red;"">","null","","","","","","","","","",""
"","image-keyboard-response","333","269602","0.0-422.0","3YMU66OBIOUJ0VYSAP06GCB8WSMGH6","A2POU9TTW177VH","3RBI0I35XEP26UEZY8S8UZLEA1IY3E","","723.8999999761581","img/food5.png","76","725","3","1","","2","1","1,0.5,0,1,0.5,0,0.5,0,1","0,1,0.5,0,1,0.5,1,0.5,0","3",""
"","html-keyboard-response","334","269904","0.0-423.0","3YMU66OBIOUJ0VYSAP06GCB8WSMGH6","A2POU9TTW177VH","3RBI0I35XEP26UEZY8S8UZLEA1IY3E","","null","<img src=""img/food5.png"" style=""width:200px; border:14px solid green;"">","null","","","","","","","","","",""
"","image-keyboard-response","335","270528","0.0-424.0","3YMU66OBIOUJ0VYSAP06GCB8WSMGH6","A2POU9TTW177VH","3RBI0I35XEP26UEZY8S8UZLEA1IY3E","","622.5","img/food6.png","75","623.5","2","1","","1","1","1,0.5,0,1,0.5,0,0.5,0,1","0,1,0.5,0,1,0.5,1,0.5,0","3",""
"","html-keyboard-response","336","270831","0.0-425.0","3YMU66OBIOUJ0VYSAP06GCB8WSMGH6","A2POU9TTW177VH","3RBI0I35XEP26UEZY8S8UZLEA1IY3E","","null","<img src=""img/food6.png"" style=""width:200px; border:14px solid green;"">","null","","","","","","","","","",""
"","image-keyboard-response","337","271792","0.0-426.0","3YMU66OBIOUJ0VYSAP06GCB8WSMGH6","A2POU9TTW177VH","3RBI0I35XEP26UEZY8S8UZLEA1IY3E","","960.6999999880791","img/food5.png","76","961.3000000119209","3","1","","2","1","1,0.5,0,1,0.5,0,0.5,0,1","0,1,0.5,0,1,0.5,1,0.5,0","3",""
"","html-keyboard-response","338","272094","0.0-427.0","3YMU66OBIOUJ0VYSAP06GCB8WSMGH6","A2POU9TTW177VH","3RBI0I35XEP26UEZY8S8UZLEA1IY3E","","null","<img src=""img/food5.png"" style=""width:200px; border:14px solid green;"">","null","","","","","","","","","",""
"","image-keyboard-response","339","272928","0.0-428.0","3YMU66OBIOUJ0VYSAP06GCB8WSMGH6","A2POU9TTW177VH","3RBI0I35XEP26UEZY8S8UZLEA1IY3E","","832.5999999940395","img/food4.png","74","833.3999999761581","1","1","","3","1","1,0.5,0,1,0.5,0,0.5,0,1","0,1,0.5,0,1,0.5,1,0.5,0","3",""
"","html-keyboard-response","340","273229","0.0-429.0","3YMU66OBIOUJ0VYSAP06GCB8WSMGH6","A2POU9TTW177VH","3RBI0I35XEP26UEZY8S8UZLEA1IY3E","","null","<img src=""img/food4.png"" style=""width:200px; border:14px solid green;"">","null","","","","","","","","","",""
"","image-keyboard-response","341","273583","0.0-430.0","3YMU66OBIOUJ0VYSAP06GCB8WSMGH6","A2POU9TTW177VH","3RBI0I35XEP26UEZY8S8UZLEA1IY3E","","352.7999999821186","img/food4.png","74","353.80000001192093","1","1","","3","1","1,0.5,0,1,0.5,0,0.5,0,1","0,1,0.5,0,1,0.5,1,0.5,0","3",""
"","html-keyboard-response","342","273886","0.0-431.0","3YMU66OBIOUJ0VYSAP06GCB8WSMGH6","A2POU9TTW177VH","3RBI0I35XEP26UEZY8S8UZLEA1IY3E","","null","<img src=""img/food4.png"" style=""width:200px; border:14px solid green;"">","null","","","","","","","","","",""
"","image-keyboard-response","343","274225","0.0-432.0","3YMU66OBIOUJ0VYSAP06GCB8WSMGH6","A2POU9TTW177VH","3RBI0I35XEP26UEZY8S8UZLEA1IY3E","","338.2000000178814","img/food4.png","74","339.39999997615814","1","1","","3","1","1,0.5,0,1,0.5,0,0.5,0,1","0,1,0.5,0,1,0.5,1,0.5,0","3",""
"","html-keyboard-response","344","274527","0.0-433.0","3YMU66OBIOUJ0VYSAP06GCB8WSMGH6","A2POU9TTW177VH","3RBI0I35XEP26UEZY8S8UZLEA1IY3E","","null","<img src=""img/food4.png"" style=""width:200px; border:14px solid green;"">","null","","","","","","","","","",""
"","image-keyboard-response","345","275180","0.0-434.0","3YMU66OBIOUJ0VYSAP06GCB8WSMGH6","A2POU9TTW177VH","3RBI0I35XEP26UEZY8S8UZLEA1IY3E","","651.5999999940395","img/food5.png","75","652.6000000238419","2","1","","2","1","1,0.5,0,1,0.5,0,0.5,0,1","0,1,0.5,0,1,0.5,1,0.5,0","3",""
"","html-keyboard-response","346","275481","0.0-435.0","3YMU66OBIOUJ0VYSAP06GCB8WSMGH6","A2POU9TTW177VH","3RBI0I35XEP26UEZY8S8UZLEA1IY3E","","null","<img src=""img/food5.png"" style=""width:200px; border:14px solid green;"">","null","","","","","","","","","",""
"","image-keyboard-response","347","275785","0.0-436.0","3YMU66OBIOUJ0VYSAP06GCB8WSMGH6","A2POU9TTW177VH","3RBI0I35XEP26UEZY8S8UZLEA1IY3E","","303","img/food4.png","75","303.7000000178814","2","0","","3","1","1,0.5,0,1,0.5,0,0.5,0,1","0,1,0.5,0,1,0.5,1,0.5,0","3",""
"","html-keyboard-response","348","276087","0.0-437.0","3YMU66OBIOUJ0VYSAP06GCB8WSMGH6","A2POU9TTW177VH","3RBI0I35XEP26UEZY8S8UZLEA1IY3E","","null","<img src=""img/food4.png"" style=""width:200px;border:14px solid red;"">","null","","","","","","","","","",""
"","image-keyboard-response","349","276867","0.0-438.0","3YMU66OBIOUJ0VYSAP06GCB8WSMGH6","A2POU9TTW177VH","3RBI0I35XEP26UEZY8S8UZLEA1IY3E","","777.7999999821186","img/food6.png","75","779","2","1","","1","1","1,0.5,0,1,0.5,0,0.5,0,1","0,1,0.5,0,1,0.5,1,0.5,0","3",""
"","html-keyboard-response","350","277169","0.0-439.0","3YMU66OBIOUJ0VYSAP06GCB8WSMGH6","A2POU9TTW177VH","3RBI0I35XEP26UEZY8S8UZLEA1IY3E","","null","<img src=""img/food6.png"" style=""width:200px; border:14px solid green;"">","null","","","","","","","","","",""
"","image-keyboard-response","351","277542","0.0-440.0","3YMU66OBIOUJ0VYSAP06GCB8WSMGH6","A2POU9TTW177VH","3RBI0I35XEP26UEZY8S8UZLEA1IY3E","","372.19999998807907","img/food6.png","75","373.19999998807907","2","1","","1","1","1,0.5,0,1,0.5,0,0.5,0,1","0,1,0.5,0,1,0.5,1,0.5,0","3",""
"","html-keyboard-response","352","277845","0.0-441.0","3YMU66OBIOUJ0VYSAP06GCB8WSMGH6","A2POU9TTW177VH","3RBI0I35XEP26UEZY8S8UZLEA1IY3E","","null","<img src=""img/food6.png"" style=""width:200px; border:14px solid green;"">","null","","","","","","","","","",""
"","image-keyboard-response","353","278533","0.0-442.0","3YMU66OBIOUJ0VYSAP06GCB8WSMGH6","A2POU9TTW177VH","3RBI0I35XEP26UEZY8S8UZLEA1IY3E","","686.8999999761581","img/food4.png","74","687.7999999821186","1","1","","3","1","1,0.5,0,1,0.5,0,0.5,0,1","0,1,0.5,0,1,0.5,1,0.5,0","3",""
"","html-keyboard-response","354","278836","0.0-443.0","3YMU66OBIOUJ0VYSAP06GCB8WSMGH6","A2POU9TTW177VH","3RBI0I35XEP26UEZY8S8UZLEA1IY3E","","null","<img src=""img/food4.png"" style=""width:200px; border:14px solid green;"">","null","","","","","","","","","",""
"","image-keyboard-response","355","279513","0.0-444.0","3YMU66OBIOUJ0VYSAP06GCB8WSMGH6","A2POU9TTW177VH","3RBI0I35XEP26UEZY8S8UZLEA1IY3E","","675.9000000059605","img/food5.png","76","676.5","3","0","","2","1","1,0.5,0,1,0.5,0,0.5,0,1","0,1,0.5,0,1,0.5,1,0.5,0","3",""
"","html-keyboard-response","356","279815","0.0-445.0","3YMU66OBIOUJ0VYSAP06GCB8WSMGH6","A2POU9TTW177VH","3RBI0I35XEP26UEZY8S8UZLEA1IY3E","","null","<img src=""img/food5.png"" style=""width:200px;border:14px solid red;"">","null","","","","","","","","","",""
"","image-keyboard-response","357","280478","0.0-446.0","3YMU66OBIOUJ0VYSAP06GCB8WSMGH6","A2POU9TTW177VH","3RBI0I35XEP26UEZY8S8UZLEA1IY3E","","662","img/food4.png","75","662.9000000059605","2","1","","3","1","1,0.5,0,1,0.5,0,0.5,0,1","0,1,0.5,0,1,0.5,1,0.5,0","3",""
"","html-keyboard-response","358","280780","0.0-447.0","3YMU66OBIOUJ0VYSAP06GCB8WSMGH6","A2POU9TTW177VH","3RBI0I35XEP26UEZY8S8UZLEA1IY3E","","null","<img src=""img/food4.png"" style=""width:200px; border:14px solid green;"">","null","","","","","","","","","",""
"","image-keyboard-response","359","281348","0.0-448.0","3YMU66OBIOUJ0VYSAP06GCB8WSMGH6","A2POU9TTW177VH","3RBI0I35XEP26UEZY8S8UZLEA1IY3E","","566.5999999940395","img/food6.png","75","567.3000000119209","2","1","","1","1","1,0.5,0,1,0.5,0,0.5,0,1","0,1,0.5,0,1,0.5,1,0.5,0","3",""
"","html-keyboard-response","360","281649","0.0-449.0","3YMU66OBIOUJ0VYSAP06GCB8WSMGH6","A2POU9TTW177VH","3RBI0I35XEP26UEZY8S8UZLEA1IY3E","","null","<img src=""img/food6.png"" style=""width:200px; border:14px solid green;"">","null","","","","","","","","","",""
"","image-keyboard-response","361","282042","0.0-450.0","3YMU66OBIOUJ0VYSAP06GCB8WSMGH6","A2POU9TTW177VH","3RBI0I35XEP26UEZY8S8UZLEA1IY3E","","390.80000001192093","img/food6.png","75","391.90000000596046","2","1","","1","1","1,0.5,0,1,0.5,0,0.5,0,1","0,1,0.5,0,1,0.5,1,0.5,0","3",""
"","html-keyboard-response","362","282344","0.0-451.0","3YMU66OBIOUJ0VYSAP06GCB8WSMGH6","A2POU9TTW177VH","3RBI0I35XEP26UEZY8S8UZLEA1IY3E","","null","<img src=""img/food6.png"" style=""width:200px; border:14px solid green;"">","null","","","","","","","","","",""
"","image-keyboard-response","363","283091","0.0-452.0","3YMU66OBIOUJ0VYSAP06GCB8WSMGH6","A2POU9TTW177VH","3RBI0I35XEP26UEZY8S8UZLEA1IY3E","","746.0999999940395","img/food5.png","74","747.2999999821186","1","0","","2","1","1,0.5,0,1,0.5,0,0.5,0,1","0,1,0.5,0,1,0.5,1,0.5,0","3",""
"","html-keyboard-response","364","283393","0.0-453.0","3YMU66OBIOUJ0VYSAP06GCB8WSMGH6","A2POU9TTW177VH","3RBI0I35XEP26UEZY8S8UZLEA1IY3E","","null","<img src=""img/food5.png"" style=""width:200px;border:14px solid red;"">","null","","","","","","","","","",""
"","html-keyboard-response","365","292289","0.0-454.0","3YMU66OBIOUJ0VYSAP06GCB8WSMGH6","A2POU9TTW177VH","3RBI0I35XEP26UEZY8S8UZLEA1IY3E","","","","","","","","","","","","","",""
"","instructions","366","298323","0.0-455.0","3YMU66OBIOUJ0VYSAP06GCB8WSMGH6","A2POU9TTW177VH","3RBI0I35XEP26UEZY8S8UZLEA1IY3E","[{""page_index"":0,""viewing_time"":6033.0999999940395}]","6033.4000000059605","","","","","","","","","","","",""
