"success","trial_type","trial_index","time_elapsed","internal_node_id","assignmentID","mturkID","hitID","view_history","rt","stimulus","key_press","reactionTime","a","r","s","reward_cond","responses"
"true","fullscreen","0","3000","0.0-0.0","3EKVH9QMEZQC9LLJPEWRNN29Q2Z2DD","A2PSR3CMNR1R9X","3QGHA0EA0JM3KKNCY0PQRLYANCJBWP","","","","","","","","","",""
"","instructions","1","17591","0.0-1.0","3EKVH9QMEZQC9LLJPEWRNN29Q2Z2DD","A2PSR3CMNR1R9X","3QGHA0EA0JM3KKNCY0PQRLYANCJBWP","[{""page_index"":0,""viewing_time"":5882.600000023842},{""page_index"":1,""viewing_time"":2723.899999976158},{""page_index"":2,""viewing_time"":860.1000000238419},{""page_index"":3,""viewing_time"":494},{""page_index"":4,""viewing_time"":1737.8999999761581},{""page_index"":5,""viewing_time"":1188},{""page_index"":6,""viewing_time"":882},{""page_index"":7,""viewing_time"":821.9000000357628}]","14591","","","","","","","",""
"","image-keyboard-response","2","19989","0.0-2.0","3EKVH9QMEZQC9LLJPEWRNN29Q2Z2DD","A2PSR3CMNR1R9X","3QGHA0EA0JM3KKNCY0PQRLYANCJBWP","","2396.199999988079","img/food4.png","75","2397.7000000476837","1","1","1","0.2,0.8,0.2,0.8,0.2,0.8,0.8,0.2",""
"","html-keyboard-response","3","20308","0.0-3.0","3EKVH9QMEZQC9LLJPEWRNN29Q2Z2DD","A2PSR3CMNR1R9X","3QGHA0EA0JM3KKNCY0PQRLYANCJBWP","","null","<img src=""img/food4.png"" style=""width:200px; border:14px solid green;"">","null","","","","","",""
"","image-keyboard-response","4","21395","0.0-4.0","3EKVH9QMEZQC9LLJPEWRNN29Q2Z2DD","A2PSR3CMNR1R9X","3QGHA0EA0JM3KKNCY0PQRLYANCJBWP","","1085","img/food1.png","76","1086.199999988079","2","0","4","0.2,0.8,0.2,0.8,0.2,0.8,0.8,0.2",""
"","html-keyboard-response","5","21702","0.0-5.0","3EKVH9QMEZQC9LLJPEWRNN29Q2Z2DD","A2PSR3CMNR1R9X","3QGHA0EA0JM3KKNCY0PQRLYANCJBWP","","null","<img src=""img/food1.png"" style=""width:200px;border:14px solid red;"">","null","","","","","",""
"","image-keyboard-response","6","22500","0.0-6.0","3EKVH9QMEZQC9LLJPEWRNN29Q2Z2DD","A2PSR3CMNR1R9X","3QGHA0EA0JM3KKNCY0PQRLYANCJBWP","","797","img/food4.png","76","798.1999999880791","2","1","1","0.2,0.8,0.2,0.8,0.2,0.8,0.8,0.2",""
"","html-keyboard-response","7","22805","0.0-7.0","3EKVH9QMEZQC9LLJPEWRNN29Q2Z2DD","A2PSR3CMNR1R9X","3QGHA0EA0JM3KKNCY0PQRLYANCJBWP","","null","<img src=""img/food4.png"" style=""width:200px; border:14px solid green;"">","null","","","","","",""
"","image-keyboard-response","8","23395","0.0-8.0","3EKVH9QMEZQC9LLJPEWRNN29Q2Z2DD","A2PSR3CMNR1R9X","3QGHA0EA0JM3KKNCY0PQRLYANCJBWP","","589.3999999761581","img/food1.png","75","589.8000000119209","1","1","4","0.2,0.8,0.2,0.8,0.2,0.8,0.8,0.2",""
"","html-keyboard-response","9","23710","0.0-9.0","3EKVH9QMEZQC9LLJPEWRNN29Q2Z2DD","A2PSR3CMNR1R9X","3QGHA0EA0JM3KKNCY0PQRLYANCJBWP","","null","<img src=""img/food1.png"" style=""width:200px; border:14px solid green;"">","null","","","","","",""
"","image-keyboard-response","10","24084","0.0-10.0","3EKVH9QMEZQC9LLJPEWRNN29Q2Z2DD","A2PSR3CMNR1R9X","3QGHA0EA0JM3KKNCY0PQRLYANCJBWP","","372.5","img/food1.png","75","373.89999997615814","1","1","4","0.2,0.8,0.2,0.8,0.2,0.8,0.8,0.2",""
"","html-keyboard-response","11","24390","0.0-11.0","3EKVH9QMEZQC9LLJPEWRNN29Q2Z2DD","A2PSR3CMNR1R9X","3QGHA0EA0JM3KKNCY0PQRLYANCJBWP","","null","<img src=""img/food1.png"" style=""width:200px; border:14px solid green;"">","null","","","","","",""
"","image-keyboard-response","12","24972","0.0-12.0","3EKVH9QMEZQC9LLJPEWRNN29Q2Z2DD","A2PSR3CMNR1R9X","3QGHA0EA0JM3KKNCY0PQRLYANCJBWP","","580.6999999880791","img/food5.png","76","582.1000000238419","2","1","2","0.2,0.8,0.2,0.8,0.2,0.8,0.8,0.2",""
"","html-keyboard-response","13","25286","0.0-13.0","3EKVH9QMEZQC9LLJPEWRNN29Q2Z2DD","A2PSR3CMNR1R9X","3QGHA0EA0JM3KKNCY0PQRLYANCJBWP","","null","<img src=""img/food5.png"" style=""width:200px; border:14px solid green;"">","null","","","","","",""
"","image-keyboard-response","14","26164","0.0-14.0","3EKVH9QMEZQC9LLJPEWRNN29Q2Z2DD","A2PSR3CMNR1R9X","3QGHA0EA0JM3KKNCY0PQRLYANCJBWP","","877.5","img/food2.png","75","878.1999999880791","1","0","3","0.2,0.8,0.2,0.8,0.2,0.8,0.8,0.2",""
"","html-keyboard-response","15","26466","0.0-15.0","3EKVH9QMEZQC9LLJPEWRNN29Q2Z2DD","A2PSR3CMNR1R9X","3QGHA0EA0JM3KKNCY0PQRLYANCJBWP","","null","<img src=""img/food2.png"" style=""width:200px;border:14px solid red;"">","null","","","","","",""
"","image-keyboard-response","16","27012","0.0-16.0","3EKVH9QMEZQC9LLJPEWRNN29Q2Z2DD","A2PSR3CMNR1R9X","3QGHA0EA0JM3KKNCY0PQRLYANCJBWP","","545.5","img/food5.png","75","546.1999999880791","1","0","2","0.2,0.8,0.2,0.8,0.2,0.8,0.8,0.2",""
"","html-keyboard-response","17","27318","0.0-17.0","3EKVH9QMEZQC9LLJPEWRNN29Q2Z2DD","A2PSR3CMNR1R9X","3QGHA0EA0JM3KKNCY0PQRLYANCJBWP","","null","<img src=""img/food5.png"" style=""width:200px;border:14px solid red;"">","null","","","","","",""
"","image-keyboard-response","18","27884","0.0-18.0","3EKVH9QMEZQC9LLJPEWRNN29Q2Z2DD","A2PSR3CMNR1R9X","3QGHA0EA0JM3KKNCY0PQRLYANCJBWP","","565.6000000238419","img/food1.png","76","566.5","2","0","4","0.2,0.8,0.2,0.8,0.2,0.8,0.8,0.2",""
"","html-keyboard-response","19","28190","0.0-19.0","3EKVH9QMEZQC9LLJPEWRNN29Q2Z2DD","A2PSR3CMNR1R9X","3QGHA0EA0JM3KKNCY0PQRLYANCJBWP","","null","<img src=""img/food1.png"" style=""width:200px;border:14px solid red;"">","null","","","","","",""
"","image-keyboard-response","20","28596","0.0-20.0","3EKVH9QMEZQC9LLJPEWRNN29Q2Z2DD","A2PSR3CMNR1R9X","3QGHA0EA0JM3KKNCY0PQRLYANCJBWP","","404.5","img/food4.png","76","405.80000001192093","2","1","1","0.2,0.8,0.2,0.8,0.2,0.8,0.8,0.2",""
"","html-keyboard-response","21","28903","0.0-21.0","3EKVH9QMEZQC9LLJPEWRNN29Q2Z2DD","A2PSR3CMNR1R9X","3QGHA0EA0JM3KKNCY0PQRLYANCJBWP","","null","<img src=""img/food4.png"" style=""width:200px; border:14px solid green;"">","null","","","","","",""
"","image-keyboard-response","22","29276","0.0-22.0","3EKVH9QMEZQC9LLJPEWRNN29Q2Z2DD","A2PSR3CMNR1R9X","3QGHA0EA0JM3KKNCY0PQRLYANCJBWP","","371.80000001192093","img/food4.png","76","372.5","2","1","1","0.2,0.8,0.2,0.8,0.2,0.8,0.8,0.2",""
"","html-keyboard-response","23","29586","0.0-23.0","3EKVH9QMEZQC9LLJPEWRNN29Q2Z2DD","A2PSR3CMNR1R9X","3QGHA0EA0JM3KKNCY0PQRLYANCJBWP","","null","<img src=""img/food4.png"" style=""width:200px; border:14px solid green;"">","null","","","","","",""
"","image-keyboard-response","24","30068","0.0-24.0","3EKVH9QMEZQC9LLJPEWRNN29Q2Z2DD","A2PSR3CMNR1R9X","3QGHA0EA0JM3KKNCY0PQRLYANCJBWP","","480","img/food5.png","75","481.0999999642372","1","0","2","0.2,0.8,0.2,0.8,0.2,0.8,0.8,0.2",""
"","html-keyboard-response","25","30370","0.0-25.0","3EKVH9QMEZQC9LLJPEWRNN29Q2Z2DD","A2PSR3CMNR1R9X","3QGHA0EA0JM3KKNCY0PQRLYANCJBWP","","null","<img src=""img/food5.png"" style=""width:200px;border:14px solid red;"">","null","","","","","",""
"","image-keyboard-response","26","30740","0.0-26.0","3EKVH9QMEZQC9LLJPEWRNN29Q2Z2DD","A2PSR3CMNR1R9X","3QGHA0EA0JM3KKNCY0PQRLYANCJBWP","","368.69999998807907","img/food5.png","76","370","2","0","2","0.2,0.8,0.2,0.8,0.2,0.8,0.8,0.2",""
"","html-keyboard-response","27","31042","0.0-27.0","3EKVH9QMEZQC9LLJPEWRNN29Q2Z2DD","A2PSR3CMNR1R9X","3QGHA0EA0JM3KKNCY0PQRLYANCJBWP","","null","<img src=""img/food5.png"" style=""width:200px;border:14px solid red;"">","null","","","","","",""
"","image-keyboard-response","28","31548","0.0-28.0","3EKVH9QMEZQC9LLJPEWRNN29Q2Z2DD","A2PSR3CMNR1R9X","3QGHA0EA0JM3KKNCY0PQRLYANCJBWP","","505.5","img/food2.png","76","506.19999998807907","2","0","3","0.2,0.8,0.2,0.8,0.2,0.8,0.8,0.2",""
"","html-keyboard-response","29","31851","0.0-29.0","3EKVH9QMEZQC9LLJPEWRNN29Q2Z2DD","A2PSR3CMNR1R9X","3QGHA0EA0JM3KKNCY0PQRLYANCJBWP","","null","<img src=""img/food2.png"" style=""width:200px;border:14px solid red;"">","null","","","","","",""
"","image-keyboard-response","30","32372","0.0-30.0","3EKVH9QMEZQC9LLJPEWRNN29Q2Z2DD","A2PSR3CMNR1R9X","3QGHA0EA0JM3KKNCY0PQRLYANCJBWP","","520.3000000119209","img/food1.png","75","521.1000000238419","1","1","4","0.2,0.8,0.2,0.8,0.2,0.8,0.8,0.2",""
"","html-keyboard-response","31","32674","0.0-31.0","3EKVH9QMEZQC9LLJPEWRNN29Q2Z2DD","A2PSR3CMNR1R9X","3QGHA0EA0JM3KKNCY0PQRLYANCJBWP","","null","<img src=""img/food1.png"" style=""width:200px; border:14px solid green;"">","null","","","","","",""
"","image-keyboard-response","32","33043","0.0-32.0","3EKVH9QMEZQC9LLJPEWRNN29Q2Z2DD","A2PSR3CMNR1R9X","3QGHA0EA0JM3KKNCY0PQRLYANCJBWP","","368.10000002384186","img/food2.png","75","369","1","0","3","0.2,0.8,0.2,0.8,0.2,0.8,0.8,0.2",""
"","html-keyboard-response","33","33344","0.0-33.0","3EKVH9QMEZQC9LLJPEWRNN29Q2Z2DD","A2PSR3CMNR1R9X","3QGHA0EA0JM3KKNCY0PQRLYANCJBWP","","null","<img src=""img/food2.png"" style=""width:200px;border:14px solid red;"">","null","","","","","",""
"","image-keyboard-response","34","33795","0.0-34.0","3EKVH9QMEZQC9LLJPEWRNN29Q2Z2DD","A2PSR3CMNR1R9X","3QGHA0EA0JM3KKNCY0PQRLYANCJBWP","","450.7000000476837","img/food4.png","76","451.19999998807907","2","1","1","0.2,0.8,0.2,0.8,0.2,0.8,0.8,0.2",""
"","html-keyboard-response","35","34096","0.0-35.0","3EKVH9QMEZQC9LLJPEWRNN29Q2Z2DD","A2PSR3CMNR1R9X","3QGHA0EA0JM3KKNCY0PQRLYANCJBWP","","null","<img src=""img/food4.png"" style=""width:200px; border:14px solid green;"">","null","","","","","",""
"","image-keyboard-response","36","34380","0.0-36.0","3EKVH9QMEZQC9LLJPEWRNN29Q2Z2DD","A2PSR3CMNR1R9X","3QGHA0EA0JM3KKNCY0PQRLYANCJBWP","","282.5","img/food1.png","76","283.69999998807907","2","0","4","0.2,0.8,0.2,0.8,0.2,0.8,0.8,0.2",""
"","html-keyboard-response","37","34682","0.0-37.0","3EKVH9QMEZQC9LLJPEWRNN29Q2Z2DD","A2PSR3CMNR1R9X","3QGHA0EA0JM3KKNCY0PQRLYANCJBWP","","null","<img src=""img/food1.png"" style=""width:200px;border:14px solid red;"">","null","","","","","",""
"","image-keyboard-response","38","35067","0.0-38.0","3EKVH9QMEZQC9LLJPEWRNN29Q2Z2DD","A2PSR3CMNR1R9X","3QGHA0EA0JM3KKNCY0PQRLYANCJBWP","","384","img/food2.png","76","385.0999999642372","2","1","3","0.2,0.8,0.2,0.8,0.2,0.8,0.8,0.2",""
"","html-keyboard-response","39","35369","0.0-39.0","3EKVH9QMEZQC9LLJPEWRNN29Q2Z2DD","A2PSR3CMNR1R9X","3QGHA0EA0JM3KKNCY0PQRLYANCJBWP","","null","<img src=""img/food2.png"" style=""width:200px; border:14px solid green;"">","null","","","","","",""
"","image-keyboard-response","40","35660","0.0-40.0","3EKVH9QMEZQC9LLJPEWRNN29Q2Z2DD","A2PSR3CMNR1R9X","3QGHA0EA0JM3KKNCY0PQRLYANCJBWP","","289.80000001192093","img/food1.png","75","291","1","1","4","0.2,0.8,0.2,0.8,0.2,0.8,0.8,0.2",""
"","html-keyboard-response","41","35962","0.0-41.0","3EKVH9QMEZQC9LLJPEWRNN29Q2Z2DD","A2PSR3CMNR1R9X","3QGHA0EA0JM3KKNCY0PQRLYANCJBWP","","null","<img src=""img/food1.png"" style=""width:200px; border:14px solid green;"">","null","","","","","",""
"","image-keyboard-response","42","36244","0.0-42.0","3EKVH9QMEZQC9LLJPEWRNN29Q2Z2DD","A2PSR3CMNR1R9X","3QGHA0EA0JM3KKNCY0PQRLYANCJBWP","","280.4000000357628","img/food2.png","76","281.5","2","1","3","0.2,0.8,0.2,0.8,0.2,0.8,0.8,0.2",""
"","html-keyboard-response","43","36546","0.0-43.0","3EKVH9QMEZQC9LLJPEWRNN29Q2Z2DD","A2PSR3CMNR1R9X","3QGHA0EA0JM3KKNCY0PQRLYANCJBWP","","null","<img src=""img/food2.png"" style=""width:200px; border:14px solid green;"">","null","","","","","",""
"","image-keyboard-response","44","36779","0.0-44.0","3EKVH9QMEZQC9LLJPEWRNN29Q2Z2DD","A2PSR3CMNR1R9X","3QGHA0EA0JM3KKNCY0PQRLYANCJBWP","","231.69999998807907","img/food2.png","76","232.60000002384186","2","1","3","0.2,0.8,0.2,0.8,0.2,0.8,0.8,0.2",""
"","html-keyboard-response","45","37081","0.0-45.0","3EKVH9QMEZQC9LLJPEWRNN29Q2Z2DD","A2PSR3CMNR1R9X","3QGHA0EA0JM3KKNCY0PQRLYANCJBWP","","null","<img src=""img/food2.png"" style=""width:200px; border:14px solid green;"">","null","","","","","",""
"","image-keyboard-response","46","37652","0.0-46.0","3EKVH9QMEZQC9LLJPEWRNN29Q2Z2DD","A2PSR3CMNR1R9X","3QGHA0EA0JM3KKNCY0PQRLYANCJBWP","","570.2999999523163","img/food1.png","75","571.0999999642372","1","1","4","0.2,0.8,0.2,0.8,0.2,0.8,0.8,0.2",""
"","html-keyboard-response","47","37954","0.0-47.0","3EKVH9QMEZQC9LLJPEWRNN29Q2Z2DD","A2PSR3CMNR1R9X","3QGHA0EA0JM3KKNCY0PQRLYANCJBWP","","null","<img src=""img/food1.png"" style=""width:200px; border:14px solid green;"">","null","","","","","",""
"","image-keyboard-response","48","38324","0.0-48.0","3EKVH9QMEZQC9LLJPEWRNN29Q2Z2DD","A2PSR3CMNR1R9X","3QGHA0EA0JM3KKNCY0PQRLYANCJBWP","","368.5","img/food1.png","75","369.80000001192093","1","1","4","0.2,0.8,0.2,0.8,0.2,0.8,0.8,0.2",""
"","html-keyboard-response","49","38625","0.0-49.0","3EKVH9QMEZQC9LLJPEWRNN29Q2Z2DD","A2PSR3CMNR1R9X","3QGHA0EA0JM3KKNCY0PQRLYANCJBWP","","null","<img src=""img/food1.png"" style=""width:200px; border:14px solid green;"">","null","","","","","",""
"","image-keyboard-response","50","39131","0.0-50.0","3EKVH9QMEZQC9LLJPEWRNN29Q2Z2DD","A2PSR3CMNR1R9X","3QGHA0EA0JM3KKNCY0PQRLYANCJBWP","","504.2000000476837","img/food5.png","76","505.30000001192093","2","1","2","0.2,0.8,0.2,0.8,0.2,0.8,0.8,0.2",""
"","html-keyboard-response","51","39432","0.0-51.0","3EKVH9QMEZQC9LLJPEWRNN29Q2Z2DD","A2PSR3CMNR1R9X","3QGHA0EA0JM3KKNCY0PQRLYANCJBWP","","null","<img src=""img/food5.png"" style=""width:200px; border:14px solid green;"">","null","","","","","",""
"","image-keyboard-response","52","39932","0.0-52.0","3EKVH9QMEZQC9LLJPEWRNN29Q2Z2DD","A2PSR3CMNR1R9X","3QGHA0EA0JM3KKNCY0PQRLYANCJBWP","","499.19999998807907","img/food2.png","76","499.89999997615814","2","1","3","0.2,0.8,0.2,0.8,0.2,0.8,0.8,0.2",""
"","html-keyboard-response","53","40233","0.0-53.0","3EKVH9QMEZQC9LLJPEWRNN29Q2Z2DD","A2PSR3CMNR1R9X","3QGHA0EA0JM3KKNCY0PQRLYANCJBWP","","null","<img src=""img/food2.png"" style=""width:200px; border:14px solid green;"">","null","","","","","",""
"","image-keyboard-response","54","40531","0.0-54.0","3EKVH9QMEZQC9LLJPEWRNN29Q2Z2DD","A2PSR3CMNR1R9X","3QGHA0EA0JM3KKNCY0PQRLYANCJBWP","","297.0999999642372","img/food2.png","76","297.60000002384186","2","1","3","0.2,0.8,0.2,0.8,0.2,0.8,0.8,0.2",""
"","html-keyboard-response","55","40832","0.0-55.0","3EKVH9QMEZQC9LLJPEWRNN29Q2Z2DD","A2PSR3CMNR1R9X","3QGHA0EA0JM3KKNCY0PQRLYANCJBWP","","null","<img src=""img/food2.png"" style=""width:200px; border:14px solid green;"">","null","","","","","",""
"","image-keyboard-response","56","41340","0.0-56.0","3EKVH9QMEZQC9LLJPEWRNN29Q2Z2DD","A2PSR3CMNR1R9X","3QGHA0EA0JM3KKNCY0PQRLYANCJBWP","","507.10000002384186","img/food1.png","75","507.80000001192093","1","1","4","0.2,0.8,0.2,0.8,0.2,0.8,0.8,0.2",""
"","html-keyboard-response","57","41642","0.0-57.0","3EKVH9QMEZQC9LLJPEWRNN29Q2Z2DD","A2PSR3CMNR1R9X","3QGHA0EA0JM3KKNCY0PQRLYANCJBWP","","null","<img src=""img/food1.png"" style=""width:200px; border:14px solid green;"">","null","","","","","",""
"","image-keyboard-response","58","41979","0.0-58.0","3EKVH9QMEZQC9LLJPEWRNN29Q2Z2DD","A2PSR3CMNR1R9X","3QGHA0EA0JM3KKNCY0PQRLYANCJBWP","","336.80000001192093","img/food1.png","75","337.2999999523163","1","1","4","0.2,0.8,0.2,0.8,0.2,0.8,0.8,0.2",""
"","html-keyboard-response","59","42280","0.0-59.0","3EKVH9QMEZQC9LLJPEWRNN29Q2Z2DD","A2PSR3CMNR1R9X","3QGHA0EA0JM3KKNCY0PQRLYANCJBWP","","null","<img src=""img/food1.png"" style=""width:200px; border:14px solid green;"">","null","","","","","",""
"","image-keyboard-response","60","42819","0.0-60.0","3EKVH9QMEZQC9LLJPEWRNN29Q2Z2DD","A2PSR3CMNR1R9X","3QGHA0EA0JM3KKNCY0PQRLYANCJBWP","","538.8000000119209","img/food5.png","76","539.1999999880791","2","0","2","0.2,0.8,0.2,0.8,0.2,0.8,0.8,0.2",""
"","html-keyboard-response","61","43121","0.0-61.0","3EKVH9QMEZQC9LLJPEWRNN29Q2Z2DD","A2PSR3CMNR1R9X","3QGHA0EA0JM3KKNCY0PQRLYANCJBWP","","null","<img src=""img/food5.png"" style=""width:200px;border:14px solid red;"">","null","","","","","",""
"","image-keyboard-response","62","43612","0.0-62.0","3EKVH9QMEZQC9LLJPEWRNN29Q2Z2DD","A2PSR3CMNR1R9X","3QGHA0EA0JM3KKNCY0PQRLYANCJBWP","","490.10000002384186","img/food1.png","76","491.39999997615814","2","0","4","0.2,0.8,0.2,0.8,0.2,0.8,0.8,0.2",""
"","html-keyboard-response","63","43915","0.0-63.0","3EKVH9QMEZQC9LLJPEWRNN29Q2Z2DD","A2PSR3CMNR1R9X","3QGHA0EA0JM3KKNCY0PQRLYANCJBWP","","null","<img src=""img/food1.png"" style=""width:200px;border:14px solid red;"">","null","","","","","",""
"","image-keyboard-response","64","44261","0.0-64.0","3EKVH9QMEZQC9LLJPEWRNN29Q2Z2DD","A2PSR3CMNR1R9X","3QGHA0EA0JM3KKNCY0PQRLYANCJBWP","","345.69999998807907","img/food1.png","76","346.5","2","0","4","0.2,0.8,0.2,0.8,0.2,0.8,0.8,0.2",""
"","html-keyboard-response","65","44563","0.0-65.0","3EKVH9QMEZQC9LLJPEWRNN29Q2Z2DD","A2PSR3CMNR1R9X","3QGHA0EA0JM3KKNCY0PQRLYANCJBWP","","null","<img src=""img/food1.png"" style=""width:200px;border:14px solid red;"">","null","","","","","",""
"","image-keyboard-response","66","45228","0.0-66.0","3EKVH9QMEZQC9LLJPEWRNN29Q2Z2DD","A2PSR3CMNR1R9X","3QGHA0EA0JM3KKNCY0PQRLYANCJBWP","","663.5999999642372","img/food4.png","76","664.8000000119209","2","1","1","0.2,0.8,0.2,0.8,0.2,0.8,0.8,0.2",""
"","html-keyboard-response","67","45530","0.0-67.0","3EKVH9QMEZQC9LLJPEWRNN29Q2Z2DD","A2PSR3CMNR1R9X","3QGHA0EA0JM3KKNCY0PQRLYANCJBWP","","null","<img src=""img/food4.png"" style=""width:200px; border:14px solid green;"">","null","","","","","",""
"","image-keyboard-response","68","46212","0.0-68.0","3EKVH9QMEZQC9LLJPEWRNN29Q2Z2DD","A2PSR3CMNR1R9X","3QGHA0EA0JM3KKNCY0PQRLYANCJBWP","","680.8999999761581","img/food1.png","75","682","1","1","4","0.2,0.8,0.2,0.8,0.2,0.8,0.8,0.2",""
"","html-keyboard-response","69","46514","0.0-69.0","3EKVH9QMEZQC9LLJPEWRNN29Q2Z2DD","A2PSR3CMNR1R9X","3QGHA0EA0JM3KKNCY0PQRLYANCJBWP","","null","<img src=""img/food1.png"" style=""width:200px; border:14px solid green;"">","null","","","","","",""
"","image-keyboard-response","70","47268","0.0-70.0","3EKVH9QMEZQC9LLJPEWRNN29Q2Z2DD","A2PSR3CMNR1R9X","3QGHA0EA0JM3KKNCY0PQRLYANCJBWP","","752.5","img/food2.png","76","753.6999999880791","2","1","3","0.2,0.8,0.2,0.8,0.2,0.8,0.8,0.2",""
"","html-keyboard-response","71","47570","0.0-71.0","3EKVH9QMEZQC9LLJPEWRNN29Q2Z2DD","A2PSR3CMNR1R9X","3QGHA0EA0JM3KKNCY0PQRLYANCJBWP","","null","<img src=""img/food2.png"" style=""width:200px; border:14px solid green;"">","null","","","","","",""
"","image-keyboard-response","72","48100","0.0-72.0","3EKVH9QMEZQC9LLJPEWRNN29Q2Z2DD","A2PSR3CMNR1R9X","3QGHA0EA0JM3KKNCY0PQRLYANCJBWP","","528.5","img/food1.png","75","529.5","1","1","4","0.2,0.8,0.2,0.8,0.2,0.8,0.8,0.2",""
"","html-keyboard-response","73","48402","0.0-73.0","3EKVH9QMEZQC9LLJPEWRNN29Q2Z2DD","A2PSR3CMNR1R9X","3QGHA0EA0JM3KKNCY0PQRLYANCJBWP","","null","<img src=""img/food1.png"" style=""width:200px; border:14px solid green;"">","null","","","","","",""
"","image-keyboard-response","74","48779","0.0-74.0","3EKVH9QMEZQC9LLJPEWRNN29Q2Z2DD","A2PSR3CMNR1R9X","3QGHA0EA0JM3KKNCY0PQRLYANCJBWP","","375.9000000357628","img/food1.png","75","376.9000000357628","1","1","4","0.2,0.8,0.2,0.8,0.2,0.8,0.8,0.2",""
"","html-keyboard-response","75","49081","0.0-75.0","3EKVH9QMEZQC9LLJPEWRNN29Q2Z2DD","A2PSR3CMNR1R9X","3QGHA0EA0JM3KKNCY0PQRLYANCJBWP","","null","<img src=""img/food1.png"" style=""width:200px; border:14px solid green;"">","null","","","","","",""
"","image-keyboard-response","76","49412","0.0-76.0","3EKVH9QMEZQC9LLJPEWRNN29Q2Z2DD","A2PSR3CMNR1R9X","3QGHA0EA0JM3KKNCY0PQRLYANCJBWP","","329.89999997615814","img/food1.png","75","330.89999997615814","1","0","4","0.2,0.8,0.2,0.8,0.2,0.8,0.8,0.2",""
"","html-keyboard-response","77","49714","0.0-77.0","3EKVH9QMEZQC9LLJPEWRNN29Q2Z2DD","A2PSR3CMNR1R9X","3QGHA0EA0JM3KKNCY0PQRLYANCJBWP","","null","<img src=""img/food1.png"" style=""width:200px;border:14px solid red;"">","null","","","","","",""
"","image-keyboard-response","78","50308","0.0-78.0","3EKVH9QMEZQC9LLJPEWRNN29Q2Z2DD","A2PSR3CMNR1R9X","3QGHA0EA0JM3KKNCY0PQRLYANCJBWP","","593.1000000238419","img/food5.png","76","594.0999999642372","2","1","2","0.2,0.8,0.2,0.8,0.2,0.8,0.8,0.2",""
"","html-keyboard-response","79","50610","0.0-79.0","3EKVH9QMEZQC9LLJPEWRNN29Q2Z2DD","A2PSR3CMNR1R9X","3QGHA0EA0JM3KKNCY0PQRLYANCJBWP","","null","<img src=""img/food5.png"" style=""width:200px; border:14px solid green;"">","null","","","","","",""
"","image-keyboard-response","80","51108","0.0-80.0","3EKVH9QMEZQC9LLJPEWRNN29Q2Z2DD","A2PSR3CMNR1R9X","3QGHA0EA0JM3KKNCY0PQRLYANCJBWP","","496.69999998807907","img/food2.png","76","497.89999997615814","2","1","3","0.2,0.8,0.2,0.8,0.2,0.8,0.8,0.2",""
"","html-keyboard-response","81","51410","0.0-81.0","3EKVH9QMEZQC9LLJPEWRNN29Q2Z2DD","A2PSR3CMNR1R9X","3QGHA0EA0JM3KKNCY0PQRLYANCJBWP","","null","<img src=""img/food2.png"" style=""width:200px; border:14px solid green;"">","null","","","","","",""
"","image-keyboard-response","82","51972","0.0-82.0","3EKVH9QMEZQC9LLJPEWRNN29Q2Z2DD","A2PSR3CMNR1R9X","3QGHA0EA0JM3KKNCY0PQRLYANCJBWP","","561","img/food4.png","75","561.7000000476837","1","0","1","0.2,0.8,0.2,0.8,0.2,0.8,0.8,0.2",""
"","html-keyboard-response","83","52274","0.0-83.0","3EKVH9QMEZQC9LLJPEWRNN29Q2Z2DD","A2PSR3CMNR1R9X","3QGHA0EA0JM3KKNCY0PQRLYANCJBWP","","null","<img src=""img/food4.png"" style=""width:200px;border:14px solid red;"">","null","","","","","",""
"","image-keyboard-response","84","52787","0.0-84.0","3EKVH9QMEZQC9LLJPEWRNN29Q2Z2DD","A2PSR3CMNR1R9X","3QGHA0EA0JM3KKNCY0PQRLYANCJBWP","","511.9000000357628","img/food1.png","75","512.6999999880791","1","0","4","0.2,0.8,0.2,0.8,0.2,0.8,0.8,0.2",""
"","html-keyboard-response","85","53088","0.0-85.0","3EKVH9QMEZQC9LLJPEWRNN29Q2Z2DD","A2PSR3CMNR1R9X","3QGHA0EA0JM3KKNCY0PQRLYANCJBWP","","null","<img src=""img/food1.png"" style=""width:200px;border:14px solid red;"">","null","","","","","",""
"","image-keyboard-response","86","53668","0.0-86.0","3EKVH9QMEZQC9LLJPEWRNN29Q2Z2DD","A2PSR3CMNR1R9X","3QGHA0EA0JM3KKNCY0PQRLYANCJBWP","","579","img/food4.png","76","580.1000000238419","2","1","1","0.2,0.8,0.2,0.8,0.2,0.8,0.8,0.2",""
"","html-keyboard-response","87","53970","0.0-87.0","3EKVH9QMEZQC9LLJPEWRNN29Q2Z2DD","A2PSR3CMNR1R9X","3QGHA0EA0JM3KKNCY0PQRLYANCJBWP","","null","<img src=""img/food4.png"" style=""width:200px; border:14px solid green;"">","null","","","","","",""
"","image-keyboard-response","88","54452","0.0-88.0","3EKVH9QMEZQC9LLJPEWRNN29Q2Z2DD","A2PSR3CMNR1R9X","3QGHA0EA0JM3KKNCY0PQRLYANCJBWP","","480.80000001192093","img/food1.png","76","482","2","0","4","0.2,0.8,0.2,0.8,0.2,0.8,0.8,0.2",""
"","html-keyboard-response","89","54755","0.0-89.0","3EKVH9QMEZQC9LLJPEWRNN29Q2Z2DD","A2PSR3CMNR1R9X","3QGHA0EA0JM3KKNCY0PQRLYANCJBWP","","null","<img src=""img/food1.png"" style=""width:200px;border:14px solid red;"">","null","","","","","",""
"","image-keyboard-response","90","55404","0.0-90.0","3EKVH9QMEZQC9LLJPEWRNN29Q2Z2DD","A2PSR3CMNR1R9X","3QGHA0EA0JM3KKNCY0PQRLYANCJBWP","","647.5","img/food5.png","76","648.8000000119209","2","1","2","0.2,0.8,0.2,0.8,0.2,0.8,0.8,0.2",""
"","html-keyboard-response","91","55706","0.0-91.0","3EKVH9QMEZQC9LLJPEWRNN29Q2Z2DD","A2PSR3CMNR1R9X","3QGHA0EA0JM3KKNCY0PQRLYANCJBWP","","null","<img src=""img/food5.png"" style=""width:200px; border:14px solid green;"">","null","","","","","",""
"","image-keyboard-response","92","56236","0.0-92.0","3EKVH9QMEZQC9LLJPEWRNN29Q2Z2DD","A2PSR3CMNR1R9X","3QGHA0EA0JM3KKNCY0PQRLYANCJBWP","","528.6999999880791","img/food1.png","75","529.8999999761581","1","1","4","0.2,0.8,0.2,0.8,0.2,0.8,0.8,0.2",""
"","html-keyboard-response","93","56538","0.0-93.0","3EKVH9QMEZQC9LLJPEWRNN29Q2Z2DD","A2PSR3CMNR1R9X","3QGHA0EA0JM3KKNCY0PQRLYANCJBWP","","null","<img src=""img/food1.png"" style=""width:200px; border:14px solid green;"">","null","","","","","",""
"","image-keyboard-response","94","56779","0.0-94.0","3EKVH9QMEZQC9LLJPEWRNN29Q2Z2DD","A2PSR3CMNR1R9X","3QGHA0EA0JM3KKNCY0PQRLYANCJBWP","","240.89999997615814","img/food4.png","75","241.39999997615814","1","0","1","0.2,0.8,0.2,0.8,0.2,0.8,0.8,0.2",""
"","html-keyboard-response","95","57081","0.0-95.0","3EKVH9QMEZQC9LLJPEWRNN29Q2Z2DD","A2PSR3CMNR1R9X","3QGHA0EA0JM3KKNCY0PQRLYANCJBWP","","null","<img src=""img/food4.png"" style=""width:200px;border:14px solid red;"">","null","","","","","",""
"","image-keyboard-response","96","57292","0.0-96.0","3EKVH9QMEZQC9LLJPEWRNN29Q2Z2DD","A2PSR3CMNR1R9X","3QGHA0EA0JM3KKNCY0PQRLYANCJBWP","","209.79999995231628","img/food4.png","76","210.89999997615814","2","1","1","0.2,0.8,0.2,0.8,0.2,0.8,0.8,0.2",""
"","html-keyboard-response","97","57594","0.0-97.0","3EKVH9QMEZQC9LLJPEWRNN29Q2Z2DD","A2PSR3CMNR1R9X","3QGHA0EA0JM3KKNCY0PQRLYANCJBWP","","null","<img src=""img/food4.png"" style=""width:200px; border:14px solid green;"">","null","","","","","",""
"","image-keyboard-response","98","57827","0.0-98.0","3EKVH9QMEZQC9LLJPEWRNN29Q2Z2DD","A2PSR3CMNR1R9X","3QGHA0EA0JM3KKNCY0PQRLYANCJBWP","","232.89999997615814","img/food2.png","76","233.30000001192093","2","1","3","0.2,0.8,0.2,0.8,0.2,0.8,0.8,0.2",""
"","html-keyboard-response","99","58129","0.0-99.0","3EKVH9QMEZQC9LLJPEWRNN29Q2Z2DD","A2PSR3CMNR1R9X","3QGHA0EA0JM3KKNCY0PQRLYANCJBWP","","null","<img src=""img/food2.png"" style=""width:200px; border:14px solid green;"">","null","","","","","",""
"","image-keyboard-response","100","58660","0.0-100.0","3EKVH9QMEZQC9LLJPEWRNN29Q2Z2DD","A2PSR3CMNR1R9X","3QGHA0EA0JM3KKNCY0PQRLYANCJBWP","","529.7999999523163","img/food4.png","76","531.1000000238419","2","1","1","0.2,0.8,0.2,0.8,0.2,0.8,0.8,0.2",""
"","html-keyboard-response","101","58962","0.0-101.0","3EKVH9QMEZQC9LLJPEWRNN29Q2Z2DD","A2PSR3CMNR1R9X","3QGHA0EA0JM3KKNCY0PQRLYANCJBWP","","null","<img src=""img/food4.png"" style=""width:200px; border:14px solid green;"">","null","","","","","",""
"","image-keyboard-response","102","59444","0.0-102.0","3EKVH9QMEZQC9LLJPEWRNN29Q2Z2DD","A2PSR3CMNR1R9X","3QGHA0EA0JM3KKNCY0PQRLYANCJBWP","","480.60000002384186","img/food5.png","76","481.69999998807907","2","1","2","0.2,0.8,0.2,0.8,0.2,0.8,0.8,0.2",""
"","html-keyboard-response","103","59746","0.0-103.0","3EKVH9QMEZQC9LLJPEWRNN29Q2Z2DD","A2PSR3CMNR1R9X","3QGHA0EA0JM3KKNCY0PQRLYANCJBWP","","null","<img src=""img/food5.png"" style=""width:200px; border:14px solid green;"">","null","","","","","",""
"","image-keyboard-response","104","60060","0.0-104.0","3EKVH9QMEZQC9LLJPEWRNN29Q2Z2DD","A2PSR3CMNR1R9X","3QGHA0EA0JM3KKNCY0PQRLYANCJBWP","","312.7999999523163","img/food5.png","76","313.89999997615814","2","1","2","0.2,0.8,0.2,0.8,0.2,0.8,0.8,0.2",""
"","html-keyboard-response","105","60371","0.0-105.0","3EKVH9QMEZQC9LLJPEWRNN29Q2Z2DD","A2PSR3CMNR1R9X","3QGHA0EA0JM3KKNCY0PQRLYANCJBWP","","null","<img src=""img/food5.png"" style=""width:200px; border:14px solid green;"">","null","","","","","",""
"","image-keyboard-response","106","60819","0.0-106.0","3EKVH9QMEZQC9LLJPEWRNN29Q2Z2DD","A2PSR3CMNR1R9X","3QGHA0EA0JM3KKNCY0PQRLYANCJBWP","","446.89999997615814","img/food4.png","75","447.69999998807907","1","0","1","0.2,0.8,0.2,0.8,0.2,0.8,0.8,0.2",""
"","html-keyboard-response","107","61121","0.0-107.0","3EKVH9QMEZQC9LLJPEWRNN29Q2Z2DD","A2PSR3CMNR1R9X","3QGHA0EA0JM3KKNCY0PQRLYANCJBWP","","null","<img src=""img/food4.png"" style=""width:200px;border:14px solid red;"">","null","","","","","",""
"","image-keyboard-response","108","61260","0.0-108.0","3EKVH9QMEZQC9LLJPEWRNN29Q2Z2DD","A2PSR3CMNR1R9X","3QGHA0EA0JM3KKNCY0PQRLYANCJBWP","","137.60000002384186","img/food4.png","76","138.80000001192093","2","1","1","0.2,0.8,0.2,0.8,0.2,0.8,0.8,0.2",""
"","html-keyboard-response","109","61562","0.0-109.0","3EKVH9QMEZQC9LLJPEWRNN29Q2Z2DD","A2PSR3CMNR1R9X","3QGHA0EA0JM3KKNCY0PQRLYANCJBWP","","null","<img src=""img/food4.png"" style=""width:200px; border:14px solid green;"">","null","","","","","",""
"","image-keyboard-response","110","61980","0.0-110.0","3EKVH9QMEZQC9LLJPEWRNN29Q2Z2DD","A2PSR3CMNR1R9X","3QGHA0EA0JM3KKNCY0PQRLYANCJBWP","","416.39999997615814","img/food4.png","76","417.5","2","0","1","0.2,0.8,0.2,0.8,0.2,0.8,0.8,0.2",""
"","html-keyboard-response","111","62282","0.0-111.0","3EKVH9QMEZQC9LLJPEWRNN29Q2Z2DD","A2PSR3CMNR1R9X","3QGHA0EA0JM3KKNCY0PQRLYANCJBWP","","null","<img src=""img/food4.png"" style=""width:200px;border:14px solid red;"">","null","","","","","",""
"","image-keyboard-response","112","62772","0.0-112.0","3EKVH9QMEZQC9LLJPEWRNN29Q2Z2DD","A2PSR3CMNR1R9X","3QGHA0EA0JM3KKNCY0PQRLYANCJBWP","","488.0999999642372","img/food1.png","76","489.10000002384186","2","0","4","0.2,0.8,0.2,0.8,0.2,0.8,0.8,0.2",""
"","html-keyboard-response","113","63074","0.0-113.0","3EKVH9QMEZQC9LLJPEWRNN29Q2Z2DD","A2PSR3CMNR1R9X","3QGHA0EA0JM3KKNCY0PQRLYANCJBWP","","null","<img src=""img/food1.png"" style=""width:200px;border:14px solid red;"">","null","","","","","",""
"","image-keyboard-response","114","63643","0.0-114.0","3EKVH9QMEZQC9LLJPEWRNN29Q2Z2DD","A2PSR3CMNR1R9X","3QGHA0EA0JM3KKNCY0PQRLYANCJBWP","","567.6000000238419","img/food5.png","76","568.5999999642372","2","1","2","0.2,0.8,0.2,0.8,0.2,0.8,0.8,0.2",""
"","html-keyboard-response","115","63944","0.0-115.0","3EKVH9QMEZQC9LLJPEWRNN29Q2Z2DD","A2PSR3CMNR1R9X","3QGHA0EA0JM3KKNCY0PQRLYANCJBWP","","null","<img src=""img/food5.png"" style=""width:200px; border:14px solid green;"">","null","","","","","",""
"","image-keyboard-response","116","64267","0.0-116.0","3EKVH9QMEZQC9LLJPEWRNN29Q2Z2DD","A2PSR3CMNR1R9X","3QGHA0EA0JM3KKNCY0PQRLYANCJBWP","","322","img/food5.png","76","323","2","1","2","0.2,0.8,0.2,0.8,0.2,0.8,0.8,0.2",""
"","html-keyboard-response","117","64569","0.0-117.0","3EKVH9QMEZQC9LLJPEWRNN29Q2Z2DD","A2PSR3CMNR1R9X","3QGHA0EA0JM3KKNCY0PQRLYANCJBWP","","null","<img src=""img/food5.png"" style=""width:200px; border:14px solid green;"">","null","","","","","",""
"","image-keyboard-response","118","65004","0.0-118.0","3EKVH9QMEZQC9LLJPEWRNN29Q2Z2DD","A2PSR3CMNR1R9X","3QGHA0EA0JM3KKNCY0PQRLYANCJBWP","","433.69999998807907","img/food1.png","75","434.80000001192093","1","1","4","0.2,0.8,0.2,0.8,0.2,0.8,0.8,0.2",""
"","html-keyboard-response","119","65306","0.0-119.0","3EKVH9QMEZQC9LLJPEWRNN29Q2Z2DD","A2PSR3CMNR1R9X","3QGHA0EA0JM3KKNCY0PQRLYANCJBWP","","null","<img src=""img/food1.png"" style=""width:200px; border:14px solid green;"">","null","","","","","",""
"","image-keyboard-response","120","65851","0.0-120.0","3EKVH9QMEZQC9LLJPEWRNN29Q2Z2DD","A2PSR3CMNR1R9X","3QGHA0EA0JM3KKNCY0PQRLYANCJBWP","","544.2999999523163","img/food2.png","76","545.4000000357628","2","1","3","0.2,0.8,0.2,0.8,0.2,0.8,0.8,0.2",""
"","html-keyboard-response","121","66153","0.0-121.0","3EKVH9QMEZQC9LLJPEWRNN29Q2Z2DD","A2PSR3CMNR1R9X","3QGHA0EA0JM3KKNCY0PQRLYANCJBWP","","null","<img src=""img/food2.png"" style=""width:200px; border:14px solid green;"">","null","","","","","",""
"","image-keyboard-response","122","66803","0.0-122.0","3EKVH9QMEZQC9LLJPEWRNN29Q2Z2DD","A2PSR3CMNR1R9X","3QGHA0EA0JM3KKNCY0PQRLYANCJBWP","","648.7000000476837","img/food4.png","76","649.6999999880791","2","1","1","0.2,0.8,0.2,0.8,0.2,0.8,0.8,0.2",""
"","html-keyboard-response","123","67104","0.0-123.0","3EKVH9QMEZQC9LLJPEWRNN29Q2Z2DD","A2PSR3CMNR1R9X","3QGHA0EA0JM3KKNCY0PQRLYANCJBWP","","null","<img src=""img/food4.png"" style=""width:200px; border:14px solid green;"">","null","","","","","",""
"","image-keyboard-response","124","67443","0.0-124.0","3EKVH9QMEZQC9LLJPEWRNN29Q2Z2DD","A2PSR3CMNR1R9X","3QGHA0EA0JM3KKNCY0PQRLYANCJBWP","","338.10000002384186","img/food4.png","76","339.19999998807907","2","1","1","0.2,0.8,0.2,0.8,0.2,0.8,0.8,0.2",""
"","html-keyboard-response","125","67745","0.0-125.0","3EKVH9QMEZQC9LLJPEWRNN29Q2Z2DD","A2PSR3CMNR1R9X","3QGHA0EA0JM3KKNCY0PQRLYANCJBWP","","null","<img src=""img/food4.png"" style=""width:200px; border:14px solid green;"">","null","","","","","",""
"","image-keyboard-response","126","68204","0.0-126.0","3EKVH9QMEZQC9LLJPEWRNN29Q2Z2DD","A2PSR3CMNR1R9X","3QGHA0EA0JM3KKNCY0PQRLYANCJBWP","","457.0999999642372","img/food1.png","75","458.4000000357628","1","1","4","0.2,0.8,0.2,0.8,0.2,0.8,0.8,0.2",""
"","html-keyboard-response","127","68506","0.0-127.0","3EKVH9QMEZQC9LLJPEWRNN29Q2Z2DD","A2PSR3CMNR1R9X","3QGHA0EA0JM3KKNCY0PQRLYANCJBWP","","null","<img src=""img/food1.png"" style=""width:200px; border:14px solid green;"">","null","","","","","",""
"","image-keyboard-response","128","68931","0.0-128.0","3EKVH9QMEZQC9LLJPEWRNN29Q2Z2DD","A2PSR3CMNR1R9X","3QGHA0EA0JM3KKNCY0PQRLYANCJBWP","","424.19999998807907","img/food1.png","75","425.0999999642372","1","1","4","0.2,0.8,0.2,0.8,0.2,0.8,0.8,0.2",""
"","html-keyboard-response","129","69232","0.0-129.0","3EKVH9QMEZQC9LLJPEWRNN29Q2Z2DD","A2PSR3CMNR1R9X","3QGHA0EA0JM3KKNCY0PQRLYANCJBWP","","null","<img src=""img/food1.png"" style=""width:200px; border:14px solid green;"">","null","","","","","",""
"","image-keyboard-response","130","69740","0.0-130.0","3EKVH9QMEZQC9LLJPEWRNN29Q2Z2DD","A2PSR3CMNR1R9X","3QGHA0EA0JM3KKNCY0PQRLYANCJBWP","","506.80000001192093","img/food2.png","76","507.5999999642372","2","1","3","0.2,0.8,0.2,0.8,0.2,0.8,0.8,0.2",""
"","html-keyboard-response","131","70042","0.0-131.0","3EKVH9QMEZQC9LLJPEWRNN29Q2Z2DD","A2PSR3CMNR1R9X","3QGHA0EA0JM3KKNCY0PQRLYANCJBWP","","null","<img src=""img/food2.png"" style=""width:200px; border:14px solid green;"">","null","","","","","",""
"","image-keyboard-response","132","70524","0.0-132.0","3EKVH9QMEZQC9LLJPEWRNN29Q2Z2DD","A2PSR3CMNR1R9X","3QGHA0EA0JM3KKNCY0PQRLYANCJBWP","","480.60000002384186","img/food4.png","76","481.69999998807907","2","1","1","0.2,0.8,0.2,0.8,0.2,0.8,0.8,0.2",""
"","html-keyboard-response","133","70826","0.0-133.0","3EKVH9QMEZQC9LLJPEWRNN29Q2Z2DD","A2PSR3CMNR1R9X","3QGHA0EA0JM3KKNCY0PQRLYANCJBWP","","null","<img src=""img/food4.png"" style=""width:200px; border:14px solid green;"">","null","","","","","",""
"","image-keyboard-response","134","71084","0.0-134.0","3EKVH9QMEZQC9LLJPEWRNN29Q2Z2DD","A2PSR3CMNR1R9X","3QGHA0EA0JM3KKNCY0PQRLYANCJBWP","","257.10000002384186","img/food5.png","76","257.7000000476837","2","1","2","0.2,0.8,0.2,0.8,0.2,0.8,0.8,0.2",""
"","html-keyboard-response","135","71387","0.0-135.0","3EKVH9QMEZQC9LLJPEWRNN29Q2Z2DD","A2PSR3CMNR1R9X","3QGHA0EA0JM3KKNCY0PQRLYANCJBWP","","null","<img src=""img/food5.png"" style=""width:200px; border:14px solid green;"">","null","","","","","",""
"","image-keyboard-response","136","71684","0.0-136.0","3EKVH9QMEZQC9LLJPEWRNN29Q2Z2DD","A2PSR3CMNR1R9X","3QGHA0EA0JM3KKNCY0PQRLYANCJBWP","","295.5","img/food5.png","76","296.7000000476837","2","1","2","0.2,0.8,0.2,0.8,0.2,0.8,0.8,0.2",""
"","html-keyboard-response","137","71986","0.0-137.0","3EKVH9QMEZQC9LLJPEWRNN29Q2Z2DD","A2PSR3CMNR1R9X","3QGHA0EA0JM3KKNCY0PQRLYANCJBWP","","null","<img src=""img/food5.png"" style=""width:200px; border:14px solid green;"">","null","","","","","",""
"","image-keyboard-response","138","72676","0.0-138.0","3EKVH9QMEZQC9LLJPEWRNN29Q2Z2DD","A2PSR3CMNR1R9X","3QGHA0EA0JM3KKNCY0PQRLYANCJBWP","","688.6000000238419","img/food4.png","76","689.8000000119209","2","1","1","0.2,0.8,0.2,0.8,0.2,0.8,0.8,0.2",""
"","html-keyboard-response","139","72978","0.0-139.0","3EKVH9QMEZQC9LLJPEWRNN29Q2Z2DD","A2PSR3CMNR1R9X","3QGHA0EA0JM3KKNCY0PQRLYANCJBWP","","null","<img src=""img/food4.png"" style=""width:200px; border:14px solid green;"">","null","","","","","",""
"","image-keyboard-response","140","73428","0.0-140.0","3EKVH9QMEZQC9LLJPEWRNN29Q2Z2DD","A2PSR3CMNR1R9X","3QGHA0EA0JM3KKNCY0PQRLYANCJBWP","","448.5999999642372","img/food5.png","76","449.69999998807907","2","1","2","0.2,0.8,0.2,0.8,0.2,0.8,0.8,0.2",""
"","html-keyboard-response","141","73730","0.0-141.0","3EKVH9QMEZQC9LLJPEWRNN29Q2Z2DD","A2PSR3CMNR1R9X","3QGHA0EA0JM3KKNCY0PQRLYANCJBWP","","null","<img src=""img/food5.png"" style=""width:200px; border:14px solid green;"">","null","","","","","",""
"","image-keyboard-response","142","74228","0.0-142.0","3EKVH9QMEZQC9LLJPEWRNN29Q2Z2DD","A2PSR3CMNR1R9X","3QGHA0EA0JM3KKNCY0PQRLYANCJBWP","","496.7999999523163","img/food1.png","75","497.89999997615814","1","1","4","0.2,0.8,0.2,0.8,0.2,0.8,0.8,0.2",""
"","html-keyboard-response","143","74529","0.0-143.0","3EKVH9QMEZQC9LLJPEWRNN29Q2Z2DD","A2PSR3CMNR1R9X","3QGHA0EA0JM3KKNCY0PQRLYANCJBWP","","null","<img src=""img/food1.png"" style=""width:200px; border:14px solid green;"">","null","","","","","",""
"","image-keyboard-response","144","75107","0.0-144.0","3EKVH9QMEZQC9LLJPEWRNN29Q2Z2DD","A2PSR3CMNR1R9X","3QGHA0EA0JM3KKNCY0PQRLYANCJBWP","","577.6999999880791","img/food4.png","76","578.2999999523163","2","1","1","0.2,0.8,0.2,0.8,0.2,0.8,0.8,0.2",""
"","html-keyboard-response","145","75409","0.0-145.0","3EKVH9QMEZQC9LLJPEWRNN29Q2Z2DD","A2PSR3CMNR1R9X","3QGHA0EA0JM3KKNCY0PQRLYANCJBWP","","null","<img src=""img/food4.png"" style=""width:200px; border:14px solid green;"">","null","","","","","",""
"","image-keyboard-response","146","75756","0.0-146.0","3EKVH9QMEZQC9LLJPEWRNN29Q2Z2DD","A2PSR3CMNR1R9X","3QGHA0EA0JM3KKNCY0PQRLYANCJBWP","","345.7999999523163","img/food2.png","76","346.89999997615814","2","1","3","0.2,0.8,0.2,0.8,0.2,0.8,0.8,0.2",""
"","html-keyboard-response","147","76058","0.0-147.0","3EKVH9QMEZQC9LLJPEWRNN29Q2Z2DD","A2PSR3CMNR1R9X","3QGHA0EA0JM3KKNCY0PQRLYANCJBWP","","null","<img src=""img/food2.png"" style=""width:200px; border:14px solid green;"">","null","","","","","",""
"","image-keyboard-response","148","76476","0.0-148.0","3EKVH9QMEZQC9LLJPEWRNN29Q2Z2DD","A2PSR3CMNR1R9X","3QGHA0EA0JM3KKNCY0PQRLYANCJBWP","","417","img/food4.png","76","417.69999998807907","2","1","1","0.2,0.8,0.2,0.8,0.2,0.8,0.8,0.2",""
"","html-keyboard-response","149","76785","0.0-149.0","3EKVH9QMEZQC9LLJPEWRNN29Q2Z2DD","A2PSR3CMNR1R9X","3QGHA0EA0JM3KKNCY0PQRLYANCJBWP","","null","<img src=""img/food4.png"" style=""width:200px; border:14px solid green;"">","null","","","","","",""
"","image-keyboard-response","150","77132","0.0-150.0","3EKVH9QMEZQC9LLJPEWRNN29Q2Z2DD","A2PSR3CMNR1R9X","3QGHA0EA0JM3KKNCY0PQRLYANCJBWP","","346","img/food1.png","76","346.60000002384186","2","0","4","0.2,0.8,0.2,0.8,0.2,0.8,0.8,0.2",""
"","html-keyboard-response","151","77434","0.0-151.0","3EKVH9QMEZQC9LLJPEWRNN29Q2Z2DD","A2PSR3CMNR1R9X","3QGHA0EA0JM3KKNCY0PQRLYANCJBWP","","null","<img src=""img/food1.png"" style=""width:200px;border:14px solid red;"">","null","","","","","",""
"","image-keyboard-response","152","77924","0.0-152.0","3EKVH9QMEZQC9LLJPEWRNN29Q2Z2DD","A2PSR3CMNR1R9X","3QGHA0EA0JM3KKNCY0PQRLYANCJBWP","","488.7999999523163","img/food5.png","76","490","2","1","2","0.2,0.8,0.2,0.8,0.2,0.8,0.8,0.2",""
"","html-keyboard-response","153","78226","0.0-153.0","3EKVH9QMEZQC9LLJPEWRNN29Q2Z2DD","A2PSR3CMNR1R9X","3QGHA0EA0JM3KKNCY0PQRLYANCJBWP","","null","<img src=""img/food5.png"" style=""width:200px; border:14px solid green;"">","null","","","","","",""
"","image-keyboard-response","154","78700","0.0-154.0","3EKVH9QMEZQC9LLJPEWRNN29Q2Z2DD","A2PSR3CMNR1R9X","3QGHA0EA0JM3KKNCY0PQRLYANCJBWP","","472.60000002384186","img/food2.png","76","473.7000000476837","2","0","3","0.2,0.8,0.2,0.8,0.2,0.8,0.8,0.2",""
"","html-keyboard-response","155","79003","0.0-155.0","3EKVH9QMEZQC9LLJPEWRNN29Q2Z2DD","A2PSR3CMNR1R9X","3QGHA0EA0JM3KKNCY0PQRLYANCJBWP","","null","<img src=""img/food2.png"" style=""width:200px;border:14px solid red;"">","null","","","","","",""
"","image-keyboard-response","156","79308","0.0-156.0","3EKVH9QMEZQC9LLJPEWRNN29Q2Z2DD","A2PSR3CMNR1R9X","3QGHA0EA0JM3KKNCY0PQRLYANCJBWP","","303.9000000357628","img/food2.png","76","305.0999999642372","2","0","3","0.2,0.8,0.2,0.8,0.2,0.8,0.8,0.2",""
"","html-keyboard-response","157","79611","0.0-157.0","3EKVH9QMEZQC9LLJPEWRNN29Q2Z2DD","A2PSR3CMNR1R9X","3QGHA0EA0JM3KKNCY0PQRLYANCJBWP","","null","<img src=""img/food2.png"" style=""width:200px;border:14px solid red;"">","null","","","","","",""
"","image-keyboard-response","158","80212","0.0-158.0","3EKVH9QMEZQC9LLJPEWRNN29Q2Z2DD","A2PSR3CMNR1R9X","3QGHA0EA0JM3KKNCY0PQRLYANCJBWP","","599.6000000238419","img/food5.png","76","600.8999999761581","2","1","2","0.2,0.8,0.2,0.8,0.2,0.8,0.8,0.2",""
"","html-keyboard-response","159","80514","0.0-159.0","3EKVH9QMEZQC9LLJPEWRNN29Q2Z2DD","A2PSR3CMNR1R9X","3QGHA0EA0JM3KKNCY0PQRLYANCJBWP","","null","<img src=""img/food5.png"" style=""width:200px; border:14px solid green;"">","null","","","","","",""
"","image-keyboard-response","160","80836","0.0-160.0","3EKVH9QMEZQC9LLJPEWRNN29Q2Z2DD","A2PSR3CMNR1R9X","3QGHA0EA0JM3KKNCY0PQRLYANCJBWP","","320.39999997615814","img/food5.png","76","321.60000002384186","2","1","2","0.2,0.8,0.2,0.8,0.2,0.8,0.8,0.2",""
"","html-keyboard-response","161","81137","0.0-161.0","3EKVH9QMEZQC9LLJPEWRNN29Q2Z2DD","A2PSR3CMNR1R9X","3QGHA0EA0JM3KKNCY0PQRLYANCJBWP","","null","<img src=""img/food5.png"" style=""width:200px; border:14px solid green;"">","null","","","","","",""
"","image-keyboard-response","162","81460","0.0-162.0","3EKVH9QMEZQC9LLJPEWRNN29Q2Z2DD","A2PSR3CMNR1R9X","3QGHA0EA0JM3KKNCY0PQRLYANCJBWP","","321.39999997615814","img/food5.png","76","322.5","2","1","2","0.2,0.8,0.2,0.8,0.2,0.8,0.8,0.2",""
"","html-keyboard-response","163","81762","0.0-163.0","3EKVH9QMEZQC9LLJPEWRNN29Q2Z2DD","A2PSR3CMNR1R9X","3QGHA0EA0JM3KKNCY0PQRLYANCJBWP","","null","<img src=""img/food5.png"" style=""width:200px; border:14px solid green;"">","null","","","","","",""
"","image-keyboard-response","164","82060","0.0-164.0","3EKVH9QMEZQC9LLJPEWRNN29Q2Z2DD","A2PSR3CMNR1R9X","3QGHA0EA0JM3KKNCY0PQRLYANCJBWP","","296.30000001192093","img/food5.png","76","297.4000000357628","2","1","2","0.2,0.8,0.2,0.8,0.2,0.8,0.8,0.2",""
"","html-keyboard-response","165","82362","0.0-165.0","3EKVH9QMEZQC9LLJPEWRNN29Q2Z2DD","A2PSR3CMNR1R9X","3QGHA0EA0JM3KKNCY0PQRLYANCJBWP","","null","<img src=""img/food5.png"" style=""width:200px; border:14px solid green;"">","null","","","","","",""
"","image-keyboard-response","166","82652","0.0-166.0","3EKVH9QMEZQC9LLJPEWRNN29Q2Z2DD","A2PSR3CMNR1R9X","3QGHA0EA0JM3KKNCY0PQRLYANCJBWP","","288.5","img/food5.png","76","289.5999999642372","2","1","2","0.2,0.8,0.2,0.8,0.2,0.8,0.8,0.2",""
"","html-keyboard-response","167","82954","0.0-167.0","3EKVH9QMEZQC9LLJPEWRNN29Q2Z2DD","A2PSR3CMNR1R9X","3QGHA0EA0JM3KKNCY0PQRLYANCJBWP","","null","<img src=""img/food5.png"" style=""width:200px; border:14px solid green;"">","null","","","","","",""
"","image-keyboard-response","168","83244","0.0-168.0","3EKVH9QMEZQC9LLJPEWRNN29Q2Z2DD","A2PSR3CMNR1R9X","3QGHA0EA0JM3KKNCY0PQRLYANCJBWP","","289.69999998807907","img/food5.png","76","290.39999997615814","2","1","2","0.2,0.8,0.2,0.8,0.2,0.8,0.8,0.2",""
"","html-keyboard-response","169","83546","0.0-169.0","3EKVH9QMEZQC9LLJPEWRNN29Q2Z2DD","A2PSR3CMNR1R9X","3QGHA0EA0JM3KKNCY0PQRLYANCJBWP","","null","<img src=""img/food5.png"" style=""width:200px; border:14px solid green;"">","null","","","","","",""
"","image-keyboard-response","170","84051","0.0-170.0","3EKVH9QMEZQC9LLJPEWRNN29Q2Z2DD","A2PSR3CMNR1R9X","3QGHA0EA0JM3KKNCY0PQRLYANCJBWP","","504","img/food1.png","75","504.89999997615814","1","0","4","0.2,0.8,0.2,0.8,0.2,0.8,0.8,0.2",""
"","html-keyboard-response","171","84353","0.0-171.0","3EKVH9QMEZQC9LLJPEWRNN29Q2Z2DD","A2PSR3CMNR1R9X","3QGHA0EA0JM3KKNCY0PQRLYANCJBWP","","null","<img src=""img/food1.png"" style=""width:200px;border:14px solid red;"">","null","","","","","",""
"","image-keyboard-response","172","84939","0.0-172.0","3EKVH9QMEZQC9LLJPEWRNN29Q2Z2DD","A2PSR3CMNR1R9X","3QGHA0EA0JM3KKNCY0PQRLYANCJBWP","","585","img/food2.png","75","585.8999999761581","1","0","3","0.2,0.8,0.2,0.8,0.2,0.8,0.8,0.2",""
"","html-keyboard-response","173","85240","0.0-173.0","3EKVH9QMEZQC9LLJPEWRNN29Q2Z2DD","A2PSR3CMNR1R9X","3QGHA0EA0JM3KKNCY0PQRLYANCJBWP","","null","<img src=""img/food2.png"" style=""width:200px;border:14px solid red;"">","null","","","","","",""
"","image-keyboard-response","174","85964","0.0-174.0","3EKVH9QMEZQC9LLJPEWRNN29Q2Z2DD","A2PSR3CMNR1R9X","3QGHA0EA0JM3KKNCY0PQRLYANCJBWP","","722.4000000357628","img/food4.png","76","723.6000000238419","2","0","1","0.2,0.8,0.2,0.8,0.2,0.8,0.8,0.2",""
"","html-keyboard-response","175","86266","0.0-175.0","3EKVH9QMEZQC9LLJPEWRNN29Q2Z2DD","A2PSR3CMNR1R9X","3QGHA0EA0JM3KKNCY0PQRLYANCJBWP","","null","<img src=""img/food4.png"" style=""width:200px;border:14px solid red;"">","null","","","","","",""
"","image-keyboard-response","176","86588","0.0-176.0","3EKVH9QMEZQC9LLJPEWRNN29Q2Z2DD","A2PSR3CMNR1R9X","3QGHA0EA0JM3KKNCY0PQRLYANCJBWP","","320.69999998807907","img/food2.png","76","321.69999998807907","2","1","3","0.2,0.8,0.2,0.8,0.2,0.8,0.8,0.2",""
"","html-keyboard-response","177","86890","0.0-177.0","3EKVH9QMEZQC9LLJPEWRNN29Q2Z2DD","A2PSR3CMNR1R9X","3QGHA0EA0JM3KKNCY0PQRLYANCJBWP","","null","<img src=""img/food2.png"" style=""width:200px; border:14px solid green;"">","null","","","","","",""
"","image-keyboard-response","178","87203","0.0-178.0","3EKVH9QMEZQC9LLJPEWRNN29Q2Z2DD","A2PSR3CMNR1R9X","3QGHA0EA0JM3KKNCY0PQRLYANCJBWP","","312.2000000476837","img/food2.png","76","312.60000002384186","2","1","3","0.2,0.8,0.2,0.8,0.2,0.8,0.8,0.2",""
"","html-keyboard-response","179","87505","0.0-179.0","3EKVH9QMEZQC9LLJPEWRNN29Q2Z2DD","A2PSR3CMNR1R9X","3QGHA0EA0JM3KKNCY0PQRLYANCJBWP","","null","<img src=""img/food2.png"" style=""width:200px; border:14px solid green;"">","null","","","","","",""
"","image-keyboard-response","180","87803","0.0-180.0","3EKVH9QMEZQC9LLJPEWRNN29Q2Z2DD","A2PSR3CMNR1R9X","3QGHA0EA0JM3KKNCY0PQRLYANCJBWP","","296.89999997615814","img/food2.png","76","297.80000001192093","2","1","3","0.2,0.8,0.2,0.8,0.2,0.8,0.8,0.2",""
"","html-keyboard-response","181","88104","0.0-181.0","3EKVH9QMEZQC9LLJPEWRNN29Q2Z2DD","A2PSR3CMNR1R9X","3QGHA0EA0JM3KKNCY0PQRLYANCJBWP","","null","<img src=""img/food2.png"" style=""width:200px; border:14px solid green;"">","null","","","","","",""
"","image-keyboard-response","182","88628","0.0-182.0","3EKVH9QMEZQC9LLJPEWRNN29Q2Z2DD","A2PSR3CMNR1R9X","3QGHA0EA0JM3KKNCY0PQRLYANCJBWP","","522.1999999880791","img/food1.png","75","523.3000000119209","1","1","4","0.2,0.8,0.2,0.8,0.2,0.8,0.8,0.2",""
"","html-keyboard-response","183","88930","0.0-183.0","3EKVH9QMEZQC9LLJPEWRNN29Q2Z2DD","A2PSR3CMNR1R9X","3QGHA0EA0JM3KKNCY0PQRLYANCJBWP","","null","<img src=""img/food1.png"" style=""width:200px; border:14px solid green;"">","null","","","","","",""
"","image-keyboard-response","184","89380","0.0-184.0","3EKVH9QMEZQC9LLJPEWRNN29Q2Z2DD","A2PSR3CMNR1R9X","3QGHA0EA0JM3KKNCY0PQRLYANCJBWP","","448.80000001192093","img/food2.png","76","450","2","1","3","0.2,0.8,0.2,0.8,0.2,0.8,0.8,0.2",""
"","html-keyboard-response","185","89682","0.0-185.0","3EKVH9QMEZQC9LLJPEWRNN29Q2Z2DD","A2PSR3CMNR1R9X","3QGHA0EA0JM3KKNCY0PQRLYANCJBWP","","null","<img src=""img/food2.png"" style=""width:200px; border:14px solid green;"">","null","","","","","",""
"","image-keyboard-response","186","90612","0.0-186.0","3EKVH9QMEZQC9LLJPEWRNN29Q2Z2DD","A2PSR3CMNR1R9X","3QGHA0EA0JM3KKNCY0PQRLYANCJBWP","","929.2999999523163","img/food5.png","76","930.3000000119209","2","1","2","0.2,0.8,0.2,0.8,0.2,0.8,0.8,0.2",""
"","html-keyboard-response","187","90915","0.0-187.0","3EKVH9QMEZQC9LLJPEWRNN29Q2Z2DD","A2PSR3CMNR1R9X","3QGHA0EA0JM3KKNCY0PQRLYANCJBWP","","null","<img src=""img/food5.png"" style=""width:200px; border:14px solid green;"">","null","","","","","",""
"","image-keyboard-response","188","91324","0.0-188.0","3EKVH9QMEZQC9LLJPEWRNN29Q2Z2DD","A2PSR3CMNR1R9X","3QGHA0EA0JM3KKNCY0PQRLYANCJBWP","","407.69999998807907","img/food1.png","76","408.89999997615814","2","0","4","0.2,0.8,0.2,0.8,0.2,0.8,0.8,0.2",""
"","html-keyboard-response","189","91626","0.0-189.0","3EKVH9QMEZQC9LLJPEWRNN29Q2Z2DD","A2PSR3CMNR1R9X","3QGHA0EA0JM3KKNCY0PQRLYANCJBWP","","null","<img src=""img/food1.png"" style=""width:200px;border:14px solid red;"">","null","","","","","",""
"","image-keyboard-response","190","92092","0.0-190.0","3EKVH9QMEZQC9LLJPEWRNN29Q2Z2DD","A2PSR3CMNR1R9X","3QGHA0EA0JM3KKNCY0PQRLYANCJBWP","","464.69999998807907","img/food2.png","76","465.89999997615814","2","0","3","0.2,0.8,0.2,0.8,0.2,0.8,0.8,0.2",""
"","html-keyboard-response","191","92394","0.0-191.0","3EKVH9QMEZQC9LLJPEWRNN29Q2Z2DD","A2PSR3CMNR1R9X","3QGHA0EA0JM3KKNCY0PQRLYANCJBWP","","null","<img src=""img/food2.png"" style=""width:200px;border:14px solid red;"">","null","","","","","",""
"","image-keyboard-response","192","93075","0.0-192.0","3EKVH9QMEZQC9LLJPEWRNN29Q2Z2DD","A2PSR3CMNR1R9X","3QGHA0EA0JM3KKNCY0PQRLYANCJBWP","","680","img/food5.png","76","680.9000000357628","2","1","2","0.2,0.8,0.2,0.8,0.2,0.8,0.8,0.2",""
"","html-keyboard-response","193","93377","0.0-193.0","3EKVH9QMEZQC9LLJPEWRNN29Q2Z2DD","A2PSR3CMNR1R9X","3QGHA0EA0JM3KKNCY0PQRLYANCJBWP","","null","<img src=""img/food5.png"" style=""width:200px; border:14px solid green;"">","null","","","","","",""
"","image-keyboard-response","194","93700","0.0-194.0","3EKVH9QMEZQC9LLJPEWRNN29Q2Z2DD","A2PSR3CMNR1R9X","3QGHA0EA0JM3KKNCY0PQRLYANCJBWP","","321.5999999642372","img/food5.png","76","322.80000001192093","2","1","2","0.2,0.8,0.2,0.8,0.2,0.8,0.8,0.2",""
"","html-keyboard-response","195","94002","0.0-195.0","3EKVH9QMEZQC9LLJPEWRNN29Q2Z2DD","A2PSR3CMNR1R9X","3QGHA0EA0JM3KKNCY0PQRLYANCJBWP","","null","<img src=""img/food5.png"" style=""width:200px; border:14px solid green;"">","null","","","","","",""
"","image-keyboard-response","196","94428","0.0-196.0","3EKVH9QMEZQC9LLJPEWRNN29Q2Z2DD","A2PSR3CMNR1R9X","3QGHA0EA0JM3KKNCY0PQRLYANCJBWP","","424.69999998807907","img/food2.png","75","425.80000001192093","1","0","3","0.2,0.8,0.2,0.8,0.2,0.8,0.8,0.2",""
"","html-keyboard-response","197","94730","0.0-197.0","3EKVH9QMEZQC9LLJPEWRNN29Q2Z2DD","A2PSR3CMNR1R9X","3QGHA0EA0JM3KKNCY0PQRLYANCJBWP","","null","<img src=""img/food2.png"" style=""width:200px;border:14px solid red;"">","null","","","","","",""
"","image-keyboard-response","198","95163","0.0-198.0","3EKVH9QMEZQC9LLJPEWRNN29Q2Z2DD","A2PSR3CMNR1R9X","3QGHA0EA0JM3KKNCY0PQRLYANCJBWP","","432.9000000357628","img/food4.png","76","433.30000001192093","2","1","1","0.2,0.8,0.2,0.8,0.2,0.8,0.8,0.2",""
"","html-keyboard-response","199","95464","0.0-199.0","3EKVH9QMEZQC9LLJPEWRNN29Q2Z2DD","A2PSR3CMNR1R9X","3QGHA0EA0JM3KKNCY0PQRLYANCJBWP","","null","<img src=""img/food4.png"" style=""width:200px; border:14px solid green;"">","null","","","","","",""
"","image-keyboard-response","200","95924","0.0-200.0","3EKVH9QMEZQC9LLJPEWRNN29Q2Z2DD","A2PSR3CMNR1R9X","3QGHA0EA0JM3KKNCY0PQRLYANCJBWP","","458.5","img/food2.png","76","459.7000000476837","2","1","3","0.2,0.8,0.2,0.8,0.2,0.8,0.8,0.2",""
"","html-keyboard-response","201","96226","0.0-201.0","3EKVH9QMEZQC9LLJPEWRNN29Q2Z2DD","A2PSR3CMNR1R9X","3QGHA0EA0JM3KKNCY0PQRLYANCJBWP","","null","<img src=""img/food2.png"" style=""width:200px; border:14px solid green;"">","null","","","","","",""
"","image-keyboard-response","202","96547","0.0-202.0","3EKVH9QMEZQC9LLJPEWRNN29Q2Z2DD","A2PSR3CMNR1R9X","3QGHA0EA0JM3KKNCY0PQRLYANCJBWP","","319.69999998807907","img/food2.png","76","320.5999999642372","2","1","3","0.2,0.8,0.2,0.8,0.2,0.8,0.8,0.2",""
"","html-keyboard-response","203","96849","0.0-203.0","3EKVH9QMEZQC9LLJPEWRNN29Q2Z2DD","A2PSR3CMNR1R9X","3QGHA0EA0JM3KKNCY0PQRLYANCJBWP","","null","<img src=""img/food2.png"" style=""width:200px; border:14px solid green;"">","null","","","","","",""
"","image-keyboard-response","204","97500","0.0-204.0","3EKVH9QMEZQC9LLJPEWRNN29Q2Z2DD","A2PSR3CMNR1R9X","3QGHA0EA0JM3KKNCY0PQRLYANCJBWP","","649.9000000357628","img/food4.png","76","650.9000000357628","2","1","1","0.2,0.8,0.2,0.8,0.2,0.8,0.8,0.2",""
"","html-keyboard-response","205","97801","0.0-205.0","3EKVH9QMEZQC9LLJPEWRNN29Q2Z2DD","A2PSR3CMNR1R9X","3QGHA0EA0JM3KKNCY0PQRLYANCJBWP","","null","<img src=""img/food4.png"" style=""width:200px; border:14px solid green;"">","null","","","","","",""
"","image-keyboard-response","206","98300","0.0-206.0","3EKVH9QMEZQC9LLJPEWRNN29Q2Z2DD","A2PSR3CMNR1R9X","3QGHA0EA0JM3KKNCY0PQRLYANCJBWP","","498","img/food2.png","76","498.5","2","1","3","0.2,0.8,0.2,0.8,0.2,0.8,0.8,0.2",""
"","html-keyboard-response","207","98602","0.0-207.0","3EKVH9QMEZQC9LLJPEWRNN29Q2Z2DD","A2PSR3CMNR1R9X","3QGHA0EA0JM3KKNCY0PQRLYANCJBWP","","null","<img src=""img/food2.png"" style=""width:200px; border:14px solid green;"">","null","","","","","",""
"","image-keyboard-response","208","99276","0.0-208.0","3EKVH9QMEZQC9LLJPEWRNN29Q2Z2DD","A2PSR3CMNR1R9X","3QGHA0EA0JM3KKNCY0PQRLYANCJBWP","","673.0999999642372","img/food5.png","76","673.8000000119209","2","1","2","0.2,0.8,0.2,0.8,0.2,0.8,0.8,0.2",""
"","html-keyboard-response","209","99579","0.0-209.0","3EKVH9QMEZQC9LLJPEWRNN29Q2Z2DD","A2PSR3CMNR1R9X","3QGHA0EA0JM3KKNCY0PQRLYANCJBWP","","null","<img src=""img/food5.png"" style=""width:200px; border:14px solid green;"">","null","","","","","",""
"","image-keyboard-response","210","99892","0.0-210.0","3EKVH9QMEZQC9LLJPEWRNN29Q2Z2DD","A2PSR3CMNR1R9X","3QGHA0EA0JM3KKNCY0PQRLYANCJBWP","","312.69999998807907","img/food5.png","76","313.39999997615814","2","1","2","0.2,0.8,0.2,0.8,0.2,0.8,0.8,0.2",""
"","html-keyboard-response","211","100193","0.0-211.0","3EKVH9QMEZQC9LLJPEWRNN29Q2Z2DD","A2PSR3CMNR1R9X","3QGHA0EA0JM3KKNCY0PQRLYANCJBWP","","null","<img src=""img/food5.png"" style=""width:200px; border:14px solid green;"">","null","","","","","",""
"","image-keyboard-response","212","100819","0.0-212.0","3EKVH9QMEZQC9LLJPEWRNN29Q2Z2DD","A2PSR3CMNR1R9X","3QGHA0EA0JM3KKNCY0PQRLYANCJBWP","","624.3000000119209","img/food4.png","76","625.1999999880791","2","1","1","0.2,0.8,0.2,0.8,0.2,0.8,0.8,0.2",""
"","html-keyboard-response","213","101120","0.0-213.0","3EKVH9QMEZQC9LLJPEWRNN29Q2Z2DD","A2PSR3CMNR1R9X","3QGHA0EA0JM3KKNCY0PQRLYANCJBWP","","null","<img src=""img/food4.png"" style=""width:200px; border:14px solid green;"">","null","","","","","",""
"","image-keyboard-response","214","101435","0.0-214.0","3EKVH9QMEZQC9LLJPEWRNN29Q2Z2DD","A2PSR3CMNR1R9X","3QGHA0EA0JM3KKNCY0PQRLYANCJBWP","","313.89999997615814","img/food4.png","76","314.9000000357628","2","1","1","0.2,0.8,0.2,0.8,0.2,0.8,0.8,0.2",""
"","html-keyboard-response","215","101736","0.0-215.0","3EKVH9QMEZQC9LLJPEWRNN29Q2Z2DD","A2PSR3CMNR1R9X","3QGHA0EA0JM3KKNCY0PQRLYANCJBWP","","null","<img src=""img/food4.png"" style=""width:200px; border:14px solid green;"">","null","","","","","",""
"","image-keyboard-response","216","102316","0.0-216.0","3EKVH9QMEZQC9LLJPEWRNN29Q2Z2DD","A2PSR3CMNR1R9X","3QGHA0EA0JM3KKNCY0PQRLYANCJBWP","","578.9000000357628","img/food5.png","76","580.2000000476837","2","1","2","0.2,0.8,0.2,0.8,0.2,0.8,0.8,0.2",""
"","html-keyboard-response","217","102619","0.0-217.0","3EKVH9QMEZQC9LLJPEWRNN29Q2Z2DD","A2PSR3CMNR1R9X","3QGHA0EA0JM3KKNCY0PQRLYANCJBWP","","null","<img src=""img/food5.png"" style=""width:200px; border:14px solid green;"">","null","","","","","",""
"","image-keyboard-response","218","103068","0.0-218.0","3EKVH9QMEZQC9LLJPEWRNN29Q2Z2DD","A2PSR3CMNR1R9X","3QGHA0EA0JM3KKNCY0PQRLYANCJBWP","","447.89999997615814","img/food2.png","76","448.89999997615814","2","1","3","0.2,0.8,0.2,0.8,0.2,0.8,0.8,0.2",""
"","html-keyboard-response","219","103371","0.0-219.0","3EKVH9QMEZQC9LLJPEWRNN29Q2Z2DD","A2PSR3CMNR1R9X","3QGHA0EA0JM3KKNCY0PQRLYANCJBWP","","null","<img src=""img/food2.png"" style=""width:200px; border:14px solid green;"">","null","","","","","",""
"","image-keyboard-response","220","103819","0.0-220.0","3EKVH9QMEZQC9LLJPEWRNN29Q2Z2DD","A2PSR3CMNR1R9X","3QGHA0EA0JM3KKNCY0PQRLYANCJBWP","","446.5","img/food4.png","76","447.5","2","1","1","0.2,0.8,0.2,0.8,0.2,0.8,0.8,0.2",""
"","html-keyboard-response","221","104120","0.0-221.0","3EKVH9QMEZQC9LLJPEWRNN29Q2Z2DD","A2PSR3CMNR1R9X","3QGHA0EA0JM3KKNCY0PQRLYANCJBWP","","null","<img src=""img/food4.png"" style=""width:200px; border:14px solid green;"">","null","","","","","",""
"","image-keyboard-response","222","104460","0.0-222.0","3EKVH9QMEZQC9LLJPEWRNN29Q2Z2DD","A2PSR3CMNR1R9X","3QGHA0EA0JM3KKNCY0PQRLYANCJBWP","","338.69999998807907","img/food5.png","76","339.89999997615814","2","1","2","0.2,0.8,0.2,0.8,0.2,0.8,0.8,0.2",""
"","html-keyboard-response","223","104762","0.0-223.0","3EKVH9QMEZQC9LLJPEWRNN29Q2Z2DD","A2PSR3CMNR1R9X","3QGHA0EA0JM3KKNCY0PQRLYANCJBWP","","null","<img src=""img/food5.png"" style=""width:200px; border:14px solid green;"">","null","","","","","",""
"","image-keyboard-response","224","105084","0.0-224.0","3EKVH9QMEZQC9LLJPEWRNN29Q2Z2DD","A2PSR3CMNR1R9X","3QGHA0EA0JM3KKNCY0PQRLYANCJBWP","","320.69999998807907","img/food4.png","76","321.89999997615814","2","1","1","0.2,0.8,0.2,0.8,0.2,0.8,0.8,0.2",""
"","html-keyboard-response","225","105386","0.0-225.0","3EKVH9QMEZQC9LLJPEWRNN29Q2Z2DD","A2PSR3CMNR1R9X","3QGHA0EA0JM3KKNCY0PQRLYANCJBWP","","null","<img src=""img/food4.png"" style=""width:200px; border:14px solid green;"">","null","","","","","",""
"","image-keyboard-response","226","105811","0.0-226.0","3EKVH9QMEZQC9LLJPEWRNN29Q2Z2DD","A2PSR3CMNR1R9X","3QGHA0EA0JM3KKNCY0PQRLYANCJBWP","","423.89999997615814","img/food2.png","76","424.69999998807907","2","1","3","0.2,0.8,0.2,0.8,0.2,0.8,0.8,0.2",""
"","html-keyboard-response","227","106113","0.0-227.0","3EKVH9QMEZQC9LLJPEWRNN29Q2Z2DD","A2PSR3CMNR1R9X","3QGHA0EA0JM3KKNCY0PQRLYANCJBWP","","null","<img src=""img/food2.png"" style=""width:200px; border:14px solid green;"">","null","","","","","",""
"","image-keyboard-response","228","106484","0.0-228.0","3EKVH9QMEZQC9LLJPEWRNN29Q2Z2DD","A2PSR3CMNR1R9X","3QGHA0EA0JM3KKNCY0PQRLYANCJBWP","","369.69999998807907","img/food4.png","76","370.80000001192093","2","1","1","0.2,0.8,0.2,0.8,0.2,0.8,0.8,0.2",""
"","html-keyboard-response","229","106793","0.0-229.0","3EKVH9QMEZQC9LLJPEWRNN29Q2Z2DD","A2PSR3CMNR1R9X","3QGHA0EA0JM3KKNCY0PQRLYANCJBWP","","null","<img src=""img/food4.png"" style=""width:200px; border:14px solid green;"">","null","","","","","",""
"","image-keyboard-response","230","107084","0.0-230.0","3EKVH9QMEZQC9LLJPEWRNN29Q2Z2DD","A2PSR3CMNR1R9X","3QGHA0EA0JM3KKNCY0PQRLYANCJBWP","","290.89999997615814","img/food4.png","76","291.60000002384186","2","0","1","0.2,0.8,0.2,0.8,0.2,0.8,0.8,0.2",""
"","html-keyboard-response","231","107387","0.0-231.0","3EKVH9QMEZQC9LLJPEWRNN29Q2Z2DD","A2PSR3CMNR1R9X","3QGHA0EA0JM3KKNCY0PQRLYANCJBWP","","null","<img src=""img/food4.png"" style=""width:200px;border:14px solid red;"">","null","","","","","",""
"","image-keyboard-response","232","107716","0.0-232.0","3EKVH9QMEZQC9LLJPEWRNN29Q2Z2DD","A2PSR3CMNR1R9X","3QGHA0EA0JM3KKNCY0PQRLYANCJBWP","","327.5999999642372","img/food4.png","76","328.9000000357628","2","0","1","0.2,0.8,0.2,0.8,0.2,0.8,0.8,0.2",""
"","html-keyboard-response","233","108018","0.0-233.0","3EKVH9QMEZQC9LLJPEWRNN29Q2Z2DD","A2PSR3CMNR1R9X","3QGHA0EA0JM3KKNCY0PQRLYANCJBWP","","null","<img src=""img/food4.png"" style=""width:200px;border:14px solid red;"">","null","","","","","",""
"","image-keyboard-response","234","108540","0.0-234.0","3EKVH9QMEZQC9LLJPEWRNN29Q2Z2DD","A2PSR3CMNR1R9X","3QGHA0EA0JM3KKNCY0PQRLYANCJBWP","","520.3000000119209","img/food1.png","76","521.5999999642372","2","0","4","0.2,0.8,0.2,0.8,0.2,0.8,0.8,0.2",""
"","html-keyboard-response","235","108842","0.0-235.0","3EKVH9QMEZQC9LLJPEWRNN29Q2Z2DD","A2PSR3CMNR1R9X","3QGHA0EA0JM3KKNCY0PQRLYANCJBWP","","null","<img src=""img/food1.png"" style=""width:200px;border:14px solid red;"">","null","","","","","",""
"","image-keyboard-response","236","109147","0.0-236.0","3EKVH9QMEZQC9LLJPEWRNN29Q2Z2DD","A2PSR3CMNR1R9X","3QGHA0EA0JM3KKNCY0PQRLYANCJBWP","","304.5","img/food2.png","76","305","2","1","3","0.2,0.8,0.2,0.8,0.2,0.8,0.8,0.2",""
"","html-keyboard-response","237","109447","0.0-237.0","3EKVH9QMEZQC9LLJPEWRNN29Q2Z2DD","A2PSR3CMNR1R9X","3QGHA0EA0JM3KKNCY0PQRLYANCJBWP","","null","<img src=""img/food2.png"" style=""width:200px; border:14px solid green;"">","null","","","","","",""
"","image-keyboard-response","238","109916","0.0-238.0","3EKVH9QMEZQC9LLJPEWRNN29Q2Z2DD","A2PSR3CMNR1R9X","3QGHA0EA0JM3KKNCY0PQRLYANCJBWP","","467.69999998807907","img/food5.png","76","468.30000001192093","2","1","2","0.2,0.8,0.2,0.8,0.2,0.8,0.8,0.2",""
"","html-keyboard-response","239","110218","0.0-239.0","3EKVH9QMEZQC9LLJPEWRNN29Q2Z2DD","A2PSR3CMNR1R9X","3QGHA0EA0JM3KKNCY0PQRLYANCJBWP","","null","<img src=""img/food5.png"" style=""width:200px; border:14px solid green;"">","null","","","","","",""
"","image-keyboard-response","240","110644","0.0-240.0","3EKVH9QMEZQC9LLJPEWRNN29Q2Z2DD","A2PSR3CMNR1R9X","3QGHA0EA0JM3KKNCY0PQRLYANCJBWP","","425.19999998807907","img/food2.png","76","425.80000001192093","2","1","3","0.2,0.8,0.2,0.8,0.2,0.8,0.8,0.2",""
"","html-keyboard-response","241","110946","0.0-241.0","3EKVH9QMEZQC9LLJPEWRNN29Q2Z2DD","A2PSR3CMNR1R9X","3QGHA0EA0JM3KKNCY0PQRLYANCJBWP","","null","<img src=""img/food2.png"" style=""width:200px; border:14px solid green;"">","null","","","","","",""
"","html-keyboard-response","242","113293","0.0-242.0","3EKVH9QMEZQC9LLJPEWRNN29Q2Z2DD","A2PSR3CMNR1R9X","3QGHA0EA0JM3KKNCY0PQRLYANCJBWP","","","","","","","","","",""
"","image-keyboard-response","243","115348","0.0-243.0","3EKVH9QMEZQC9LLJPEWRNN29Q2Z2DD","A2PSR3CMNR1R9X","3QGHA0EA0JM3KKNCY0PQRLYANCJBWP","","2053.899999976158","img/food6.png","75","2054.800000011921","1","0","3","0.8,0.2,0.8,0.2,0.2,0.8,0.2,0.8",""
"","html-keyboard-response","244","115649","0.0-244.0","3EKVH9QMEZQC9LLJPEWRNN29Q2Z2DD","A2PSR3CMNR1R9X","3QGHA0EA0JM3KKNCY0PQRLYANCJBWP","","null","<img src=""img/food6.png"" style=""width:200px;border:14px solid red;"">","null","","","","","",""
"","image-keyboard-response","245","116308","0.0-245.0","3EKVH9QMEZQC9LLJPEWRNN29Q2Z2DD","A2PSR3CMNR1R9X","3QGHA0EA0JM3KKNCY0PQRLYANCJBWP","","657.6000000238419","img/food3.png","75","658.4000000357628","1","0","4","0.8,0.2,0.8,0.2,0.2,0.8,0.2,0.8",""
"","html-keyboard-response","246","116610","0.0-246.0","3EKVH9QMEZQC9LLJPEWRNN29Q2Z2DD","A2PSR3CMNR1R9X","3QGHA0EA0JM3KKNCY0PQRLYANCJBWP","","null","<img src=""img/food3.png"" style=""width:200px;border:14px solid red;"">","null","","","","","",""
"","image-keyboard-response","247","116980","0.0-247.0","3EKVH9QMEZQC9LLJPEWRNN29Q2Z2DD","A2PSR3CMNR1R9X","3QGHA0EA0JM3KKNCY0PQRLYANCJBWP","","367.39999997615814","img/food3.png","75","368.89999997615814","1","0","4","0.8,0.2,0.8,0.2,0.2,0.8,0.2,0.8",""
"","html-keyboard-response","248","117289","0.0-248.0","3EKVH9QMEZQC9LLJPEWRNN29Q2Z2DD","A2PSR3CMNR1R9X","3QGHA0EA0JM3KKNCY0PQRLYANCJBWP","","null","<img src=""img/food3.png"" style=""width:200px;border:14px solid red;"">","null","","","","","",""
"","image-keyboard-response","249","117611","0.0-249.0","3EKVH9QMEZQC9LLJPEWRNN29Q2Z2DD","A2PSR3CMNR1R9X","3QGHA0EA0JM3KKNCY0PQRLYANCJBWP","","321","img/food3.png","75","321.4000000357628","1","0","4","0.8,0.2,0.8,0.2,0.2,0.8,0.2,0.8",""
"","html-keyboard-response","250","117913","0.0-250.0","3EKVH9QMEZQC9LLJPEWRNN29Q2Z2DD","A2PSR3CMNR1R9X","3QGHA0EA0JM3KKNCY0PQRLYANCJBWP","","null","<img src=""img/food3.png"" style=""width:200px;border:14px solid red;"">","null","","","","","",""
"","image-keyboard-response","251","118787","0.0-251.0","3EKVH9QMEZQC9LLJPEWRNN29Q2Z2DD","A2PSR3CMNR1R9X","3QGHA0EA0JM3KKNCY0PQRLYANCJBWP","","872.6999999880791","img/food6.png","76","873.6999999880791","2","1","3","0.8,0.2,0.8,0.2,0.2,0.8,0.2,0.8",""
"","html-keyboard-response","252","119089","0.0-252.0","3EKVH9QMEZQC9LLJPEWRNN29Q2Z2DD","A2PSR3CMNR1R9X","3QGHA0EA0JM3KKNCY0PQRLYANCJBWP","","null","<img src=""img/food6.png"" style=""width:200px; border:14px solid green;"">","null","","","","","",""
"","image-keyboard-response","253","119645","0.0-253.0","3EKVH9QMEZQC9LLJPEWRNN29Q2Z2DD","A2PSR3CMNR1R9X","3QGHA0EA0JM3KKNCY0PQRLYANCJBWP","","554.3999999761581","img/food3.png","76","555.6999999880791","2","1","4","0.8,0.2,0.8,0.2,0.2,0.8,0.2,0.8",""
"","html-keyboard-response","254","119948","0.0-254.0","3EKVH9QMEZQC9LLJPEWRNN29Q2Z2DD","A2PSR3CMNR1R9X","3QGHA0EA0JM3KKNCY0PQRLYANCJBWP","","null","<img src=""img/food3.png"" style=""width:200px; border:14px solid green;"">","null","","","","","",""
"","image-keyboard-response","255","120452","0.0-255.0","3EKVH9QMEZQC9LLJPEWRNN29Q2Z2DD","A2PSR3CMNR1R9X","3QGHA0EA0JM3KKNCY0PQRLYANCJBWP","","502.5999999642372","img/food7.png","76","504","2","0","1","0.8,0.2,0.8,0.2,0.2,0.8,0.2,0.8",""
"","html-keyboard-response","256","120754","0.0-256.0","3EKVH9QMEZQC9LLJPEWRNN29Q2Z2DD","A2PSR3CMNR1R9X","3QGHA0EA0JM3KKNCY0PQRLYANCJBWP","","null","<img src=""img/food7.png"" style=""width:200px;border:14px solid red;"">","null","","","","","",""
"","image-keyboard-response","257","121244","0.0-257.0","3EKVH9QMEZQC9LLJPEWRNN29Q2Z2DD","A2PSR3CMNR1R9X","3QGHA0EA0JM3KKNCY0PQRLYANCJBWP","","488.30000001192093","img/food8.png","76","489.60000002384186","2","0","2","0.8,0.2,0.8,0.2,0.2,0.8,0.2,0.8",""
"","html-keyboard-response","258","121545","0.0-258.0","3EKVH9QMEZQC9LLJPEWRNN29Q2Z2DD","A2PSR3CMNR1R9X","3QGHA0EA0JM3KKNCY0PQRLYANCJBWP","","null","<img src=""img/food8.png"" style=""width:200px;border:14px solid red;"">","null","","","","","",""
"","image-keyboard-response","259","122028","0.0-259.0","3EKVH9QMEZQC9LLJPEWRNN29Q2Z2DD","A2PSR3CMNR1R9X","3QGHA0EA0JM3KKNCY0PQRLYANCJBWP","","481.7999999523163","img/food6.png","76","482.5999999642372","2","0","3","0.8,0.2,0.8,0.2,0.2,0.8,0.2,0.8",""
"","html-keyboard-response","260","122330","0.0-260.0","3EKVH9QMEZQC9LLJPEWRNN29Q2Z2DD","A2PSR3CMNR1R9X","3QGHA0EA0JM3KKNCY0PQRLYANCJBWP","","null","<img src=""img/food6.png"" style=""width:200px;border:14px solid red;"">","null","","","","","",""
"","image-keyboard-response","261","122556","0.0-261.0","3EKVH9QMEZQC9LLJPEWRNN29Q2Z2DD","A2PSR3CMNR1R9X","3QGHA0EA0JM3KKNCY0PQRLYANCJBWP","","224.69999998807907","img/food8.png","76","226","2","0","2","0.8,0.2,0.8,0.2,0.2,0.8,0.2,0.8",""
"","html-keyboard-response","262","122859","0.0-262.0","3EKVH9QMEZQC9LLJPEWRNN29Q2Z2DD","A2PSR3CMNR1R9X","3QGHA0EA0JM3KKNCY0PQRLYANCJBWP","","null","<img src=""img/food8.png"" style=""width:200px;border:14px solid red;"">","null","","","","","",""
"","image-keyboard-response","263","123444","0.0-263.0","3EKVH9QMEZQC9LLJPEWRNN29Q2Z2DD","A2PSR3CMNR1R9X","3QGHA0EA0JM3KKNCY0PQRLYANCJBWP","","583.5999999642372","img/food7.png","75","584.9000000357628","1","1","1","0.8,0.2,0.8,0.2,0.2,0.8,0.2,0.8",""
"","html-keyboard-response","264","123746","0.0-264.0","3EKVH9QMEZQC9LLJPEWRNN29Q2Z2DD","A2PSR3CMNR1R9X","3QGHA0EA0JM3KKNCY0PQRLYANCJBWP","","null","<img src=""img/food7.png"" style=""width:200px; border:14px solid green;"">","null","","","","","",""
"","image-keyboard-response","265","124436","0.0-265.0","3EKVH9QMEZQC9LLJPEWRNN29Q2Z2DD","A2PSR3CMNR1R9X","3QGHA0EA0JM3KKNCY0PQRLYANCJBWP","","688.6999999880791","img/food8.png","76","689.8999999761581","2","1","2","0.8,0.2,0.8,0.2,0.2,0.8,0.2,0.8",""
"","html-keyboard-response","266","124739","0.0-266.0","3EKVH9QMEZQC9LLJPEWRNN29Q2Z2DD","A2PSR3CMNR1R9X","3QGHA0EA0JM3KKNCY0PQRLYANCJBWP","","null","<img src=""img/food8.png"" style=""width:200px; border:14px solid green;"">","null","","","","","",""
"","image-keyboard-response","267","125141","0.0-267.0","3EKVH9QMEZQC9LLJPEWRNN29Q2Z2DD","A2PSR3CMNR1R9X","3QGHA0EA0JM3KKNCY0PQRLYANCJBWP","","401","img/food8.png","76","402.39999997615814","2","1","2","0.8,0.2,0.8,0.2,0.2,0.8,0.2,0.8",""
"","html-keyboard-response","268","125443","0.0-268.0","3EKVH9QMEZQC9LLJPEWRNN29Q2Z2DD","A2PSR3CMNR1R9X","3QGHA0EA0JM3KKNCY0PQRLYANCJBWP","","null","<img src=""img/food8.png"" style=""width:200px; border:14px solid green;"">","null","","","","","",""
"","image-keyboard-response","269","126220","0.0-269.0","3EKVH9QMEZQC9LLJPEWRNN29Q2Z2DD","A2PSR3CMNR1R9X","3QGHA0EA0JM3KKNCY0PQRLYANCJBWP","","774.6999999880791","img/food3.png","76","775.9000000357628","2","1","4","0.8,0.2,0.8,0.2,0.2,0.8,0.2,0.8",""
"","html-keyboard-response","270","126522","0.0-270.0","3EKVH9QMEZQC9LLJPEWRNN29Q2Z2DD","A2PSR3CMNR1R9X","3QGHA0EA0JM3KKNCY0PQRLYANCJBWP","","null","<img src=""img/food3.png"" style=""width:200px; border:14px solid green;"">","null","","","","","",""
"","image-keyboard-response","271","126843","0.0-271.0","3EKVH9QMEZQC9LLJPEWRNN29Q2Z2DD","A2PSR3CMNR1R9X","3QGHA0EA0JM3KKNCY0PQRLYANCJBWP","","319.89999997615814","img/food3.png","76","320.89999997615814","2","1","4","0.8,0.2,0.8,0.2,0.2,0.8,0.2,0.8",""
"","html-keyboard-response","272","127145","0.0-272.0","3EKVH9QMEZQC9LLJPEWRNN29Q2Z2DD","A2PSR3CMNR1R9X","3QGHA0EA0JM3KKNCY0PQRLYANCJBWP","","null","<img src=""img/food3.png"" style=""width:200px; border:14px solid green;"">","null","","","","","",""
"","image-keyboard-response","273","127835","0.0-273.0","3EKVH9QMEZQC9LLJPEWRNN29Q2Z2DD","A2PSR3CMNR1R9X","3QGHA0EA0JM3KKNCY0PQRLYANCJBWP","","689.0999999642372","img/food7.png","75","690.0999999642372","1","1","1","0.8,0.2,0.8,0.2,0.2,0.8,0.2,0.8",""
"","html-keyboard-response","274","128136","0.0-274.0","3EKVH9QMEZQC9LLJPEWRNN29Q2Z2DD","A2PSR3CMNR1R9X","3QGHA0EA0JM3KKNCY0PQRLYANCJBWP","","null","<img src=""img/food7.png"" style=""width:200px; border:14px solid green;"">","null","","","","","",""
"","image-keyboard-response","275","128492","0.0-275.0","3EKVH9QMEZQC9LLJPEWRNN29Q2Z2DD","A2PSR3CMNR1R9X","3QGHA0EA0JM3KKNCY0PQRLYANCJBWP","","354.10000002384186","img/food7.png","75","355.30000001192093","1","1","1","0.8,0.2,0.8,0.2,0.2,0.8,0.2,0.8",""
"","html-keyboard-response","276","128793","0.0-276.0","3EKVH9QMEZQC9LLJPEWRNN29Q2Z2DD","A2PSR3CMNR1R9X","3QGHA0EA0JM3KKNCY0PQRLYANCJBWP","","null","<img src=""img/food7.png"" style=""width:200px; border:14px solid green;"">","null","","","","","",""
"","image-keyboard-response","277","129260","0.0-277.0","3EKVH9QMEZQC9LLJPEWRNN29Q2Z2DD","A2PSR3CMNR1R9X","3QGHA0EA0JM3KKNCY0PQRLYANCJBWP","","465.5999999642372","img/food6.png","76","466.30000001192093","2","1","3","0.8,0.2,0.8,0.2,0.2,0.8,0.2,0.8",""
"","html-keyboard-response","278","129562","0.0-278.0","3EKVH9QMEZQC9LLJPEWRNN29Q2Z2DD","A2PSR3CMNR1R9X","3QGHA0EA0JM3KKNCY0PQRLYANCJBWP","","null","<img src=""img/food6.png"" style=""width:200px; border:14px solid green;"">","null","","","","","",""
"","image-keyboard-response","279","130260","0.0-279.0","3EKVH9QMEZQC9LLJPEWRNN29Q2Z2DD","A2PSR3CMNR1R9X","3QGHA0EA0JM3KKNCY0PQRLYANCJBWP","","697.2999999523163","img/food8.png","76","698.5","2","0","2","0.8,0.2,0.8,0.2,0.2,0.8,0.2,0.8",""
"","html-keyboard-response","280","130565","0.0-280.0","3EKVH9QMEZQC9LLJPEWRNN29Q2Z2DD","A2PSR3CMNR1R9X","3QGHA0EA0JM3KKNCY0PQRLYANCJBWP","","null","<img src=""img/food8.png"" style=""width:200px;border:14px solid red;"">","null","","","","","",""
"","image-keyboard-response","281","131156","0.0-281.0","3EKVH9QMEZQC9LLJPEWRNN29Q2Z2DD","A2PSR3CMNR1R9X","3QGHA0EA0JM3KKNCY0PQRLYANCJBWP","","589.5","img/food6.png","76","590.6999999880791","2","0","3","0.8,0.2,0.8,0.2,0.2,0.8,0.2,0.8",""
"","html-keyboard-response","282","131458","0.0-282.0","3EKVH9QMEZQC9LLJPEWRNN29Q2Z2DD","A2PSR3CMNR1R9X","3QGHA0EA0JM3KKNCY0PQRLYANCJBWP","","null","<img src=""img/food6.png"" style=""width:200px;border:14px solid red;"">","null","","","","","",""
"","image-keyboard-response","283","131916","0.0-283.0","3EKVH9QMEZQC9LLJPEWRNN29Q2Z2DD","A2PSR3CMNR1R9X","3QGHA0EA0JM3KKNCY0PQRLYANCJBWP","","456.60000002384186","img/food8.png","76","457.5","2","0","2","0.8,0.2,0.8,0.2,0.2,0.8,0.2,0.8",""
"","html-keyboard-response","284","132219","0.0-284.0","3EKVH9QMEZQC9LLJPEWRNN29Q2Z2DD","A2PSR3CMNR1R9X","3QGHA0EA0JM3KKNCY0PQRLYANCJBWP","","null","<img src=""img/food8.png"" style=""width:200px;border:14px solid red;"">","null","","","","","",""
"","image-keyboard-response","285","132516","0.0-285.0","3EKVH9QMEZQC9LLJPEWRNN29Q2Z2DD","A2PSR3CMNR1R9X","3QGHA0EA0JM3KKNCY0PQRLYANCJBWP","","295.69999998807907","img/food8.png","76","296.89999997615814","2","0","2","0.8,0.2,0.8,0.2,0.2,0.8,0.2,0.8",""
"","html-keyboard-response","286","132818","0.0-286.0","3EKVH9QMEZQC9LLJPEWRNN29Q2Z2DD","A2PSR3CMNR1R9X","3QGHA0EA0JM3KKNCY0PQRLYANCJBWP","","null","<img src=""img/food8.png"" style=""width:200px;border:14px solid red;"">","null","","","","","",""
"","image-keyboard-response","287","133028","0.0-287.0","3EKVH9QMEZQC9LLJPEWRNN29Q2Z2DD","A2PSR3CMNR1R9X","3QGHA0EA0JM3KKNCY0PQRLYANCJBWP","","208.5999999642372","img/food6.png","75","209.20000004768372","1","1","3","0.8,0.2,0.8,0.2,0.2,0.8,0.2,0.8",""
"","html-keyboard-response","288","133330","0.0-288.0","3EKVH9QMEZQC9LLJPEWRNN29Q2Z2DD","A2PSR3CMNR1R9X","3QGHA0EA0JM3KKNCY0PQRLYANCJBWP","","null","<img src=""img/food6.png"" style=""width:200px; border:14px solid green;"">","null","","","","","",""
"","image-keyboard-response","289","133780","0.0-289.0","3EKVH9QMEZQC9LLJPEWRNN29Q2Z2DD","A2PSR3CMNR1R9X","3QGHA0EA0JM3KKNCY0PQRLYANCJBWP","","448.7000000476837","img/food6.png","75","449.7999999523163","1","0","3","0.8,0.2,0.8,0.2,0.2,0.8,0.2,0.8",""
"","html-keyboard-response","290","134082","0.0-290.0","3EKVH9QMEZQC9LLJPEWRNN29Q2Z2DD","A2PSR3CMNR1R9X","3QGHA0EA0JM3KKNCY0PQRLYANCJBWP","","null","<img src=""img/food6.png"" style=""width:200px;border:14px solid red;"">","null","","","","","",""
"","image-keyboard-response","291","134635","0.0-291.0","3EKVH9QMEZQC9LLJPEWRNN29Q2Z2DD","A2PSR3CMNR1R9X","3QGHA0EA0JM3KKNCY0PQRLYANCJBWP","","551.6000000238419","img/food8.png","75","552.6000000238419","1","1","2","0.8,0.2,0.8,0.2,0.2,0.8,0.2,0.8",""
"","html-keyboard-response","292","134937","0.0-292.0","3EKVH9QMEZQC9LLJPEWRNN29Q2Z2DD","A2PSR3CMNR1R9X","3QGHA0EA0JM3KKNCY0PQRLYANCJBWP","","null","<img src=""img/food8.png"" style=""width:200px; border:14px solid green;"">","null","","","","","",""
"","image-keyboard-response","293","135420","0.0-293.0","3EKVH9QMEZQC9LLJPEWRNN29Q2Z2DD","A2PSR3CMNR1R9X","3QGHA0EA0JM3KKNCY0PQRLYANCJBWP","","480.5","img/food3.png","75","481.80000001192093","1","0","4","0.8,0.2,0.8,0.2,0.2,0.8,0.2,0.8",""
"","html-keyboard-response","294","135722","0.0-294.0","3EKVH9QMEZQC9LLJPEWRNN29Q2Z2DD","A2PSR3CMNR1R9X","3QGHA0EA0JM3KKNCY0PQRLYANCJBWP","","null","<img src=""img/food3.png"" style=""width:200px;border:14px solid red;"">","null","","","","","",""
"","image-keyboard-response","295","136107","0.0-295.0","3EKVH9QMEZQC9LLJPEWRNN29Q2Z2DD","A2PSR3CMNR1R9X","3QGHA0EA0JM3KKNCY0PQRLYANCJBWP","","384.10000002384186","img/food3.png","76","385.0999999642372","2","1","4","0.8,0.2,0.8,0.2,0.2,0.8,0.2,0.8",""
"","html-keyboard-response","296","136408","0.0-296.0","3EKVH9QMEZQC9LLJPEWRNN29Q2Z2DD","A2PSR3CMNR1R9X","3QGHA0EA0JM3KKNCY0PQRLYANCJBWP","","null","<img src=""img/food3.png"" style=""width:200px; border:14px solid green;"">","null","","","","","",""
"","image-keyboard-response","297","137116","0.0-297.0","3EKVH9QMEZQC9LLJPEWRNN29Q2Z2DD","A2PSR3CMNR1R9X","3QGHA0EA0JM3KKNCY0PQRLYANCJBWP","","706.8000000119209","img/food6.png","75","707.3999999761581","1","1","3","0.8,0.2,0.8,0.2,0.2,0.8,0.2,0.8",""
"","html-keyboard-response","298","137418","0.0-298.0","3EKVH9QMEZQC9LLJPEWRNN29Q2Z2DD","A2PSR3CMNR1R9X","3QGHA0EA0JM3KKNCY0PQRLYANCJBWP","","null","<img src=""img/food6.png"" style=""width:200px; border:14px solid green;"">","null","","","","","",""
"","image-keyboard-response","299","137996","0.0-299.0","3EKVH9QMEZQC9LLJPEWRNN29Q2Z2DD","A2PSR3CMNR1R9X","3QGHA0EA0JM3KKNCY0PQRLYANCJBWP","","576.1000000238419","img/food7.png","75","577.3000000119209","1","1","1","0.8,0.2,0.8,0.2,0.2,0.8,0.2,0.8",""
"","html-keyboard-response","300","138299","0.0-300.0","3EKVH9QMEZQC9LLJPEWRNN29Q2Z2DD","A2PSR3CMNR1R9X","3QGHA0EA0JM3KKNCY0PQRLYANCJBWP","","null","<img src=""img/food7.png"" style=""width:200px; border:14px solid green;"">","null","","","","","",""
"","image-keyboard-response","301","138980","0.0-301.0","3EKVH9QMEZQC9LLJPEWRNN29Q2Z2DD","A2PSR3CMNR1R9X","3QGHA0EA0JM3KKNCY0PQRLYANCJBWP","","678.8000000119209","img/food3.png","76","680","2","0","4","0.8,0.2,0.8,0.2,0.2,0.8,0.2,0.8",""
"","html-keyboard-response","302","139282","0.0-302.0","3EKVH9QMEZQC9LLJPEWRNN29Q2Z2DD","A2PSR3CMNR1R9X","3QGHA0EA0JM3KKNCY0PQRLYANCJBWP","","null","<img src=""img/food3.png"" style=""width:200px;border:14px solid red;"">","null","","","","","",""
"","image-keyboard-response","303","139636","0.0-303.0","3EKVH9QMEZQC9LLJPEWRNN29Q2Z2DD","A2PSR3CMNR1R9X","3QGHA0EA0JM3KKNCY0PQRLYANCJBWP","","352.60000002384186","img/food8.png","75","353.89999997615814","1","1","2","0.8,0.2,0.8,0.2,0.2,0.8,0.2,0.8",""
"","html-keyboard-response","304","139938","0.0-304.0","3EKVH9QMEZQC9LLJPEWRNN29Q2Z2DD","A2PSR3CMNR1R9X","3QGHA0EA0JM3KKNCY0PQRLYANCJBWP","","null","<img src=""img/food8.png"" style=""width:200px; border:14px solid green;"">","null","","","","","",""
"","image-keyboard-response","305","140236","0.0-305.0","3EKVH9QMEZQC9LLJPEWRNN29Q2Z2DD","A2PSR3CMNR1R9X","3QGHA0EA0JM3KKNCY0PQRLYANCJBWP","","295.69999998807907","img/food3.png","75","297","1","0","4","0.8,0.2,0.8,0.2,0.2,0.8,0.2,0.8",""
"","html-keyboard-response","306","140538","0.0-306.0","3EKVH9QMEZQC9LLJPEWRNN29Q2Z2DD","A2PSR3CMNR1R9X","3QGHA0EA0JM3KKNCY0PQRLYANCJBWP","","null","<img src=""img/food3.png"" style=""width:200px;border:14px solid red;"">","null","","","","","",""
"","image-keyboard-response","307","141012","0.0-307.0","3EKVH9QMEZQC9LLJPEWRNN29Q2Z2DD","A2PSR3CMNR1R9X","3QGHA0EA0JM3KKNCY0PQRLYANCJBWP","","473.10000002384186","img/food7.png","75","473.69999998807907","1","1","1","0.8,0.2,0.8,0.2,0.2,0.8,0.2,0.8",""
"","html-keyboard-response","308","141313","0.0-308.0","3EKVH9QMEZQC9LLJPEWRNN29Q2Z2DD","A2PSR3CMNR1R9X","3QGHA0EA0JM3KKNCY0PQRLYANCJBWP","","null","<img src=""img/food7.png"" style=""width:200px; border:14px solid green;"">","null","","","","","",""
"","image-keyboard-response","309","142228","0.0-309.0","3EKVH9QMEZQC9LLJPEWRNN29Q2Z2DD","A2PSR3CMNR1R9X","3QGHA0EA0JM3KKNCY0PQRLYANCJBWP","","913.1999999880791","img/food8.png","75","914.3000000119209","1","1","2","0.8,0.2,0.8,0.2,0.2,0.8,0.2,0.8",""
"","html-keyboard-response","310","142530","0.0-310.0","3EKVH9QMEZQC9LLJPEWRNN29Q2Z2DD","A2PSR3CMNR1R9X","3QGHA0EA0JM3KKNCY0PQRLYANCJBWP","","null","<img src=""img/food8.png"" style=""width:200px; border:14px solid green;"">","null","","","","","",""
"","image-keyboard-response","311","143108","0.0-311.0","3EKVH9QMEZQC9LLJPEWRNN29Q2Z2DD","A2PSR3CMNR1R9X","3QGHA0EA0JM3KKNCY0PQRLYANCJBWP","","576.6999999880791","img/food6.png","76","577.8000000119209","2","1","3","0.8,0.2,0.8,0.2,0.2,0.8,0.2,0.8",""
"","html-keyboard-response","312","143411","0.0-312.0","3EKVH9QMEZQC9LLJPEWRNN29Q2Z2DD","A2PSR3CMNR1R9X","3QGHA0EA0JM3KKNCY0PQRLYANCJBWP","","null","<img src=""img/food6.png"" style=""width:200px; border:14px solid green;"">","null","","","","","",""
"","image-keyboard-response","313","143996","0.0-313.0","3EKVH9QMEZQC9LLJPEWRNN29Q2Z2DD","A2PSR3CMNR1R9X","3QGHA0EA0JM3KKNCY0PQRLYANCJBWP","","583.6000000238419","img/food8.png","75","584.8999999761581","1","1","2","0.8,0.2,0.8,0.2,0.2,0.8,0.2,0.8",""
"","html-keyboard-response","314","144299","0.0-314.0","3EKVH9QMEZQC9LLJPEWRNN29Q2Z2DD","A2PSR3CMNR1R9X","3QGHA0EA0JM3KKNCY0PQRLYANCJBWP","","null","<img src=""img/food8.png"" style=""width:200px; border:14px solid green;"">","null","","","","","",""
"","image-keyboard-response","315","144851","0.0-315.0","3EKVH9QMEZQC9LLJPEWRNN29Q2Z2DD","A2PSR3CMNR1R9X","3QGHA0EA0JM3KKNCY0PQRLYANCJBWP","","551","img/food3.png","76","552.1999999880791","2","1","4","0.8,0.2,0.8,0.2,0.2,0.8,0.2,0.8",""
"","html-keyboard-response","316","145153","0.0-316.0","3EKVH9QMEZQC9LLJPEWRNN29Q2Z2DD","A2PSR3CMNR1R9X","3QGHA0EA0JM3KKNCY0PQRLYANCJBWP","","null","<img src=""img/food3.png"" style=""width:200px; border:14px solid green;"">","null","","","","","",""
"","image-keyboard-response","317","145516","0.0-317.0","3EKVH9QMEZQC9LLJPEWRNN29Q2Z2DD","A2PSR3CMNR1R9X","3QGHA0EA0JM3KKNCY0PQRLYANCJBWP","","361.5","img/food3.png","76","362.7000000476837","2","1","4","0.8,0.2,0.8,0.2,0.2,0.8,0.2,0.8",""
"","html-keyboard-response","318","145817","0.0-318.0","3EKVH9QMEZQC9LLJPEWRNN29Q2Z2DD","A2PSR3CMNR1R9X","3QGHA0EA0JM3KKNCY0PQRLYANCJBWP","","null","<img src=""img/food3.png"" style=""width:200px; border:14px solid green;"">","null","","","","","",""
"","image-keyboard-response","319","146323","0.0-319.0","3EKVH9QMEZQC9LLJPEWRNN29Q2Z2DD","A2PSR3CMNR1R9X","3QGHA0EA0JM3KKNCY0PQRLYANCJBWP","","505","img/food7.png","75","505.39999997615814","1","0","1","0.8,0.2,0.8,0.2,0.2,0.8,0.2,0.8",""
"","html-keyboard-response","320","146625","0.0-320.0","3EKVH9QMEZQC9LLJPEWRNN29Q2Z2DD","A2PSR3CMNR1R9X","3QGHA0EA0JM3KKNCY0PQRLYANCJBWP","","null","<img src=""img/food7.png"" style=""width:200px;border:14px solid red;"">","null","","","","","",""
"","image-keyboard-response","321","147764","0.0-321.0","3EKVH9QMEZQC9LLJPEWRNN29Q2Z2DD","A2PSR3CMNR1R9X","3QGHA0EA0JM3KKNCY0PQRLYANCJBWP","","1137.5999999642372","img/food6.png","75","1139","1","1","3","0.8,0.2,0.8,0.2,0.2,0.8,0.2,0.8",""
"","html-keyboard-response","322","148066","0.0-322.0","3EKVH9QMEZQC9LLJPEWRNN29Q2Z2DD","A2PSR3CMNR1R9X","3QGHA0EA0JM3KKNCY0PQRLYANCJBWP","","null","<img src=""img/food6.png"" style=""width:200px; border:14px solid green;"">","null","","","","","",""
"","image-keyboard-response","323","148628","0.0-323.0","3EKVH9QMEZQC9LLJPEWRNN29Q2Z2DD","A2PSR3CMNR1R9X","3QGHA0EA0JM3KKNCY0PQRLYANCJBWP","","560.5","img/food7.png","75","561.8000000119209","1","1","1","0.8,0.2,0.8,0.2,0.2,0.8,0.2,0.8",""
"","html-keyboard-response","324","148931","0.0-324.0","3EKVH9QMEZQC9LLJPEWRNN29Q2Z2DD","A2PSR3CMNR1R9X","3QGHA0EA0JM3KKNCY0PQRLYANCJBWP","","null","<img src=""img/food7.png"" style=""width:200px; border:14px solid green;"">","null","","","","","",""
"","image-keyboard-response","325","149756","0.0-325.0","3EKVH9QMEZQC9LLJPEWRNN29Q2Z2DD","A2PSR3CMNR1R9X","3QGHA0EA0JM3KKNCY0PQRLYANCJBWP","","823.5","img/food3.png","76","824.8000000119209","2","0","4","0.8,0.2,0.8,0.2,0.2,0.8,0.2,0.8",""
"","html-keyboard-response","326","150057","0.0-326.0","3EKVH9QMEZQC9LLJPEWRNN29Q2Z2DD","A2PSR3CMNR1R9X","3QGHA0EA0JM3KKNCY0PQRLYANCJBWP","","null","<img src=""img/food3.png"" style=""width:200px;border:14px solid red;"">","null","","","","","",""
"","image-keyboard-response","327","150403","0.0-327.0","3EKVH9QMEZQC9LLJPEWRNN29Q2Z2DD","A2PSR3CMNR1R9X","3QGHA0EA0JM3KKNCY0PQRLYANCJBWP","","344.0999999642372","img/food6.png","75","345.19999998807907","1","1","3","0.8,0.2,0.8,0.2,0.2,0.8,0.2,0.8",""
"","html-keyboard-response","328","150704","0.0-328.0","3EKVH9QMEZQC9LLJPEWRNN29Q2Z2DD","A2PSR3CMNR1R9X","3QGHA0EA0JM3KKNCY0PQRLYANCJBWP","","null","<img src=""img/food6.png"" style=""width:200px; border:14px solid green;"">","null","","","","","",""
"","image-keyboard-response","329","150980","0.0-329.0","3EKVH9QMEZQC9LLJPEWRNN29Q2Z2DD","A2PSR3CMNR1R9X","3QGHA0EA0JM3KKNCY0PQRLYANCJBWP","","274.7999999523163","img/food8.png","75","275.60000002384186","1","1","2","0.8,0.2,0.8,0.2,0.2,0.8,0.2,0.8",""
"","html-keyboard-response","330","151283","0.0-330.0","3EKVH9QMEZQC9LLJPEWRNN29Q2Z2DD","A2PSR3CMNR1R9X","3QGHA0EA0JM3KKNCY0PQRLYANCJBWP","","null","<img src=""img/food8.png"" style=""width:200px; border:14px solid green;"">","null","","","","","",""
"","image-keyboard-response","331","151540","0.0-331.0","3EKVH9QMEZQC9LLJPEWRNN29Q2Z2DD","A2PSR3CMNR1R9X","3QGHA0EA0JM3KKNCY0PQRLYANCJBWP","","255.5","img/food6.png","75","256.80000001192093","1","1","3","0.8,0.2,0.8,0.2,0.2,0.8,0.2,0.8",""
"","html-keyboard-response","332","151842","0.0-332.0","3EKVH9QMEZQC9LLJPEWRNN29Q2Z2DD","A2PSR3CMNR1R9X","3QGHA0EA0JM3KKNCY0PQRLYANCJBWP","","null","<img src=""img/food6.png"" style=""width:200px; border:14px solid green;"">","null","","","","","",""
"","image-keyboard-response","333","152084","0.0-333.0","3EKVH9QMEZQC9LLJPEWRNN29Q2Z2DD","A2PSR3CMNR1R9X","3QGHA0EA0JM3KKNCY0PQRLYANCJBWP","","241.60000002384186","img/food7.png","75","242.19999998807907","1","1","1","0.8,0.2,0.8,0.2,0.2,0.8,0.2,0.8",""
"","html-keyboard-response","334","152386","0.0-334.0","3EKVH9QMEZQC9LLJPEWRNN29Q2Z2DD","A2PSR3CMNR1R9X","3QGHA0EA0JM3KKNCY0PQRLYANCJBWP","","null","<img src=""img/food7.png"" style=""width:200px; border:14px solid green;"">","null","","","","","",""
"","image-keyboard-response","335","152612","0.0-335.0","3EKVH9QMEZQC9LLJPEWRNN29Q2Z2DD","A2PSR3CMNR1R9X","3QGHA0EA0JM3KKNCY0PQRLYANCJBWP","","225","img/food8.png","75","225.69999998807907","1","1","2","0.8,0.2,0.8,0.2,0.2,0.8,0.2,0.8",""
"","html-keyboard-response","336","152914","0.0-336.0","3EKVH9QMEZQC9LLJPEWRNN29Q2Z2DD","A2PSR3CMNR1R9X","3QGHA0EA0JM3KKNCY0PQRLYANCJBWP","","null","<img src=""img/food8.png"" style=""width:200px; border:14px solid green;"">","null","","","","","",""
"","image-keyboard-response","337","153380","0.0-337.0","3EKVH9QMEZQC9LLJPEWRNN29Q2Z2DD","A2PSR3CMNR1R9X","3QGHA0EA0JM3KKNCY0PQRLYANCJBWP","","464.30000001192093","img/food7.png","75","465.5","1","0","1","0.8,0.2,0.8,0.2,0.2,0.8,0.2,0.8",""
"","html-keyboard-response","338","153682","0.0-338.0","3EKVH9QMEZQC9LLJPEWRNN29Q2Z2DD","A2PSR3CMNR1R9X","3QGHA0EA0JM3KKNCY0PQRLYANCJBWP","","null","<img src=""img/food7.png"" style=""width:200px;border:14px solid red;"">","null","","","","","",""
"","image-keyboard-response","339","154244","0.0-339.0","3EKVH9QMEZQC9LLJPEWRNN29Q2Z2DD","A2PSR3CMNR1R9X","3QGHA0EA0JM3KKNCY0PQRLYANCJBWP","","560.3000000119209","img/food8.png","75","561.7000000476837","1","1","2","0.8,0.2,0.8,0.2,0.2,0.8,0.2,0.8",""
"","html-keyboard-response","340","154546","0.0-340.0","3EKVH9QMEZQC9LLJPEWRNN29Q2Z2DD","A2PSR3CMNR1R9X","3QGHA0EA0JM3KKNCY0PQRLYANCJBWP","","null","<img src=""img/food8.png"" style=""width:200px; border:14px solid green;"">","null","","","","","",""
"","image-keyboard-response","341","154915","0.0-341.0","3EKVH9QMEZQC9LLJPEWRNN29Q2Z2DD","A2PSR3CMNR1R9X","3QGHA0EA0JM3KKNCY0PQRLYANCJBWP","","368.19999998807907","img/food6.png","75","369.39999997615814","1","0","3","0.8,0.2,0.8,0.2,0.2,0.8,0.2,0.8",""
"","html-keyboard-response","342","155216","0.0-342.0","3EKVH9QMEZQC9LLJPEWRNN29Q2Z2DD","A2PSR3CMNR1R9X","3QGHA0EA0JM3KKNCY0PQRLYANCJBWP","","null","<img src=""img/food6.png"" style=""width:200px;border:14px solid red;"">","null","","","","","",""
"","image-keyboard-response","343","155924","0.0-343.0","3EKVH9QMEZQC9LLJPEWRNN29Q2Z2DD","A2PSR3CMNR1R9X","3QGHA0EA0JM3KKNCY0PQRLYANCJBWP","","706","img/food7.png","75","707.3999999761581","1","1","1","0.8,0.2,0.8,0.2,0.2,0.8,0.2,0.8",""
"","html-keyboard-response","344","156226","0.0-344.0","3EKVH9QMEZQC9LLJPEWRNN29Q2Z2DD","A2PSR3CMNR1R9X","3QGHA0EA0JM3KKNCY0PQRLYANCJBWP","","null","<img src=""img/food7.png"" style=""width:200px; border:14px solid green;"">","null","","","","","",""
"","image-keyboard-response","345","156732","0.0-345.0","3EKVH9QMEZQC9LLJPEWRNN29Q2Z2DD","A2PSR3CMNR1R9X","3QGHA0EA0JM3KKNCY0PQRLYANCJBWP","","504.69999998807907","img/food3.png","76","506","2","0","4","0.8,0.2,0.8,0.2,0.2,0.8,0.2,0.8",""
"","html-keyboard-response","346","157035","0.0-346.0","3EKVH9QMEZQC9LLJPEWRNN29Q2Z2DD","A2PSR3CMNR1R9X","3QGHA0EA0JM3KKNCY0PQRLYANCJBWP","","null","<img src=""img/food3.png"" style=""width:200px;border:14px solid red;"">","null","","","","","",""
"","image-keyboard-response","347","157380","0.0-347.0","3EKVH9QMEZQC9LLJPEWRNN29Q2Z2DD","A2PSR3CMNR1R9X","3QGHA0EA0JM3KKNCY0PQRLYANCJBWP","","343.30000001192093","img/food3.png","75","344.5","1","0","4","0.8,0.2,0.8,0.2,0.2,0.8,0.2,0.8",""
"","html-keyboard-response","348","157682","0.0-348.0","3EKVH9QMEZQC9LLJPEWRNN29Q2Z2DD","A2PSR3CMNR1R9X","3QGHA0EA0JM3KKNCY0PQRLYANCJBWP","","null","<img src=""img/food3.png"" style=""width:200px;border:14px solid red;"">","null","","","","","",""
"","image-keyboard-response","349","157980","0.0-349.0","3EKVH9QMEZQC9LLJPEWRNN29Q2Z2DD","A2PSR3CMNR1R9X","3QGHA0EA0JM3KKNCY0PQRLYANCJBWP","","296.5","img/food3.png","75","297.80000001192093","1","1","4","0.8,0.2,0.8,0.2,0.2,0.8,0.2,0.8",""
"","html-keyboard-response","350","158282","0.0-350.0","3EKVH9QMEZQC9LLJPEWRNN29Q2Z2DD","A2PSR3CMNR1R9X","3QGHA0EA0JM3KKNCY0PQRLYANCJBWP","","null","<img src=""img/food3.png"" style=""width:200px; border:14px solid green;"">","null","","","","","",""
"","image-keyboard-response","351","158860","0.0-351.0","3EKVH9QMEZQC9LLJPEWRNN29Q2Z2DD","A2PSR3CMNR1R9X","3QGHA0EA0JM3KKNCY0PQRLYANCJBWP","","576.6000000238419","img/food8.png","75","577.8000000119209","1","1","2","0.8,0.2,0.8,0.2,0.2,0.8,0.2,0.8",""
"","html-keyboard-response","352","159162","0.0-352.0","3EKVH9QMEZQC9LLJPEWRNN29Q2Z2DD","A2PSR3CMNR1R9X","3QGHA0EA0JM3KKNCY0PQRLYANCJBWP","","null","<img src=""img/food8.png"" style=""width:200px; border:14px solid green;"">","null","","","","","",""
"","image-keyboard-response","353","159676","0.0-353.0","3EKVH9QMEZQC9LLJPEWRNN29Q2Z2DD","A2PSR3CMNR1R9X","3QGHA0EA0JM3KKNCY0PQRLYANCJBWP","","512.4000000357628","img/food6.png","75","513.5999999642372","1","1","3","0.8,0.2,0.8,0.2,0.2,0.8,0.2,0.8",""
"","html-keyboard-response","354","159977","0.0-354.0","3EKVH9QMEZQC9LLJPEWRNN29Q2Z2DD","A2PSR3CMNR1R9X","3QGHA0EA0JM3KKNCY0PQRLYANCJBWP","","null","<img src=""img/food6.png"" style=""width:200px; border:14px solid green;"">","null","","","","","",""
"","image-keyboard-response","355","160308","0.0-355.0","3EKVH9QMEZQC9LLJPEWRNN29Q2Z2DD","A2PSR3CMNR1R9X","3QGHA0EA0JM3KKNCY0PQRLYANCJBWP","","329.5999999642372","img/food6.png","75","330.4000000357628","1","0","3","0.8,0.2,0.8,0.2,0.2,0.8,0.2,0.8",""
"","html-keyboard-response","356","160611","0.0-356.0","3EKVH9QMEZQC9LLJPEWRNN29Q2Z2DD","A2PSR3CMNR1R9X","3QGHA0EA0JM3KKNCY0PQRLYANCJBWP","","null","<img src=""img/food6.png"" style=""width:200px;border:14px solid red;"">","null","","","","","",""
"","image-keyboard-response","357","160963","0.0-357.0","3EKVH9QMEZQC9LLJPEWRNN29Q2Z2DD","A2PSR3CMNR1R9X","3QGHA0EA0JM3KKNCY0PQRLYANCJBWP","","351.30000001192093","img/food6.png","75","351.80000001192093","1","0","3","0.8,0.2,0.8,0.2,0.2,0.8,0.2,0.8",""
"","html-keyboard-response","358","161264","0.0-358.0","3EKVH9QMEZQC9LLJPEWRNN29Q2Z2DD","A2PSR3CMNR1R9X","3QGHA0EA0JM3KKNCY0PQRLYANCJBWP","","null","<img src=""img/food6.png"" style=""width:200px;border:14px solid red;"">","null","","","","","",""
"","image-keyboard-response","359","161620","0.0-359.0","3EKVH9QMEZQC9LLJPEWRNN29Q2Z2DD","A2PSR3CMNR1R9X","3QGHA0EA0JM3KKNCY0PQRLYANCJBWP","","353.5999999642372","img/food6.png","76","354.9000000357628","2","0","3","0.8,0.2,0.8,0.2,0.2,0.8,0.2,0.8",""
"","html-keyboard-response","360","161922","0.0-360.0","3EKVH9QMEZQC9LLJPEWRNN29Q2Z2DD","A2PSR3CMNR1R9X","3QGHA0EA0JM3KKNCY0PQRLYANCJBWP","","null","<img src=""img/food6.png"" style=""width:200px;border:14px solid red;"">","null","","","","","",""
"","image-keyboard-response","361","162540","0.0-361.0","3EKVH9QMEZQC9LLJPEWRNN29Q2Z2DD","A2PSR3CMNR1R9X","3QGHA0EA0JM3KKNCY0PQRLYANCJBWP","","617.1999999880791","img/food8.png","75","617.9000000357628","1","1","2","0.8,0.2,0.8,0.2,0.2,0.8,0.2,0.8",""
"","html-keyboard-response","362","162842","0.0-362.0","3EKVH9QMEZQC9LLJPEWRNN29Q2Z2DD","A2PSR3CMNR1R9X","3QGHA0EA0JM3KKNCY0PQRLYANCJBWP","","null","<img src=""img/food8.png"" style=""width:200px; border:14px solid green;"">","null","","","","","",""
"","image-keyboard-response","363","163156","0.0-363.0","3EKVH9QMEZQC9LLJPEWRNN29Q2Z2DD","A2PSR3CMNR1R9X","3QGHA0EA0JM3KKNCY0PQRLYANCJBWP","","313.30000001192093","img/food8.png","75","313.9000000357628","1","1","2","0.8,0.2,0.8,0.2,0.2,0.8,0.2,0.8",""
"","html-keyboard-response","364","163458","0.0-364.0","3EKVH9QMEZQC9LLJPEWRNN29Q2Z2DD","A2PSR3CMNR1R9X","3QGHA0EA0JM3KKNCY0PQRLYANCJBWP","","null","<img src=""img/food8.png"" style=""width:200px; border:14px solid green;"">","null","","","","","",""
"","image-keyboard-response","365","163900","0.0-365.0","3EKVH9QMEZQC9LLJPEWRNN29Q2Z2DD","A2PSR3CMNR1R9X","3QGHA0EA0JM3KKNCY0PQRLYANCJBWP","","440.5999999642372","img/food6.png","75","441.80000001192093","1","0","3","0.8,0.2,0.8,0.2,0.2,0.8,0.2,0.8",""
"","html-keyboard-response","366","164202","0.0-366.0","3EKVH9QMEZQC9LLJPEWRNN29Q2Z2DD","A2PSR3CMNR1R9X","3QGHA0EA0JM3KKNCY0PQRLYANCJBWP","","null","<img src=""img/food6.png"" style=""width:200px;border:14px solid red;"">","null","","","","","",""
"","image-keyboard-response","367","164453","0.0-367.0","3EKVH9QMEZQC9LLJPEWRNN29Q2Z2DD","A2PSR3CMNR1R9X","3QGHA0EA0JM3KKNCY0PQRLYANCJBWP","","250","img/food7.png","75","251.19999998807907","1","1","1","0.8,0.2,0.8,0.2,0.2,0.8,0.2,0.8",""
"","html-keyboard-response","368","164756","0.0-368.0","3EKVH9QMEZQC9LLJPEWRNN29Q2Z2DD","A2PSR3CMNR1R9X","3QGHA0EA0JM3KKNCY0PQRLYANCJBWP","","null","<img src=""img/food7.png"" style=""width:200px; border:14px solid green;"">","null","","","","","",""
"","image-keyboard-response","369","165004","0.0-369.0","3EKVH9QMEZQC9LLJPEWRNN29Q2Z2DD","A2PSR3CMNR1R9X","3QGHA0EA0JM3KKNCY0PQRLYANCJBWP","","246.5","img/food6.png","75","247.60000002384186","1","0","3","0.8,0.2,0.8,0.2,0.2,0.8,0.2,0.8",""
"","html-keyboard-response","370","165306","0.0-370.0","3EKVH9QMEZQC9LLJPEWRNN29Q2Z2DD","A2PSR3CMNR1R9X","3QGHA0EA0JM3KKNCY0PQRLYANCJBWP","","null","<img src=""img/food6.png"" style=""width:200px;border:14px solid red;"">","null","","","","","",""
"","image-keyboard-response","371","165516","0.0-371.0","3EKVH9QMEZQC9LLJPEWRNN29Q2Z2DD","A2PSR3CMNR1R9X","3QGHA0EA0JM3KKNCY0PQRLYANCJBWP","","209.19999998807907","img/food7.png","75","209.80000001192093","1","0","1","0.8,0.2,0.8,0.2,0.2,0.8,0.2,0.8",""
"","html-keyboard-response","372","165818","0.0-372.0","3EKVH9QMEZQC9LLJPEWRNN29Q2Z2DD","A2PSR3CMNR1R9X","3QGHA0EA0JM3KKNCY0PQRLYANCJBWP","","null","<img src=""img/food7.png"" style=""width:200px;border:14px solid red;"">","null","","","","","",""
"","image-keyboard-response","373","166044","0.0-373.0","3EKVH9QMEZQC9LLJPEWRNN29Q2Z2DD","A2PSR3CMNR1R9X","3QGHA0EA0JM3KKNCY0PQRLYANCJBWP","","225","img/food6.png","75","225.69999998807907","1","0","3","0.8,0.2,0.8,0.2,0.2,0.8,0.2,0.8",""
"","html-keyboard-response","374","166346","0.0-374.0","3EKVH9QMEZQC9LLJPEWRNN29Q2Z2DD","A2PSR3CMNR1R9X","3QGHA0EA0JM3KKNCY0PQRLYANCJBWP","","null","<img src=""img/food6.png"" style=""width:200px;border:14px solid red;"">","null","","","","","",""
"","image-keyboard-response","375","166548","0.0-375.0","3EKVH9QMEZQC9LLJPEWRNN29Q2Z2DD","A2PSR3CMNR1R9X","3QGHA0EA0JM3KKNCY0PQRLYANCJBWP","","200","img/food7.png","76","201.4000000357628","2","0","1","0.8,0.2,0.8,0.2,0.2,0.8,0.2,0.8",""
"","html-keyboard-response","376","166851","0.0-376.0","3EKVH9QMEZQC9LLJPEWRNN29Q2Z2DD","A2PSR3CMNR1R9X","3QGHA0EA0JM3KKNCY0PQRLYANCJBWP","","null","<img src=""img/food7.png"" style=""width:200px;border:14px solid red;"">","null","","","","","",""
"","image-keyboard-response","377","167092","0.0-377.0","3EKVH9QMEZQC9LLJPEWRNN29Q2Z2DD","A2PSR3CMNR1R9X","3QGHA0EA0JM3KKNCY0PQRLYANCJBWP","","240.19999998807907","img/food3.png","75","241.10000002384186","1","1","4","0.8,0.2,0.8,0.2,0.2,0.8,0.2,0.8",""
"","html-keyboard-response","378","167395","0.0-378.0","3EKVH9QMEZQC9LLJPEWRNN29Q2Z2DD","A2PSR3CMNR1R9X","3QGHA0EA0JM3KKNCY0PQRLYANCJBWP","","null","<img src=""img/food3.png"" style=""width:200px; border:14px solid green;"">","null","","","","","",""
"","image-keyboard-response","379","167572","0.0-379.0","3EKVH9QMEZQC9LLJPEWRNN29Q2Z2DD","A2PSR3CMNR1R9X","3QGHA0EA0JM3KKNCY0PQRLYANCJBWP","","175.39999997615814","img/food8.png","75","176.80000001192093","1","1","2","0.8,0.2,0.8,0.2,0.2,0.8,0.2,0.8",""
"","html-keyboard-response","380","167874","0.0-380.0","3EKVH9QMEZQC9LLJPEWRNN29Q2Z2DD","A2PSR3CMNR1R9X","3QGHA0EA0JM3KKNCY0PQRLYANCJBWP","","null","<img src=""img/food8.png"" style=""width:200px; border:14px solid green;"">","null","","","","","",""
"","image-keyboard-response","381","168148","0.0-381.0","3EKVH9QMEZQC9LLJPEWRNN29Q2Z2DD","A2PSR3CMNR1R9X","3QGHA0EA0JM3KKNCY0PQRLYANCJBWP","","272.39999997615814","img/food8.png","75","273.60000002384186","1","1","2","0.8,0.2,0.8,0.2,0.2,0.8,0.2,0.8",""
"","html-keyboard-response","382","168448","0.0-382.0","3EKVH9QMEZQC9LLJPEWRNN29Q2Z2DD","A2PSR3CMNR1R9X","3QGHA0EA0JM3KKNCY0PQRLYANCJBWP","","null","<img src=""img/food8.png"" style=""width:200px; border:14px solid green;"">","null","","","","","",""
"","image-keyboard-response","383","168964","0.0-383.0","3EKVH9QMEZQC9LLJPEWRNN29Q2Z2DD","A2PSR3CMNR1R9X","3QGHA0EA0JM3KKNCY0PQRLYANCJBWP","","514.1000000238419","img/food3.png","75","515.3000000119209","1","0","4","0.8,0.2,0.8,0.2,0.2,0.8,0.2,0.8",""
"","html-keyboard-response","384","169267","0.0-384.0","3EKVH9QMEZQC9LLJPEWRNN29Q2Z2DD","A2PSR3CMNR1R9X","3QGHA0EA0JM3KKNCY0PQRLYANCJBWP","","null","<img src=""img/food3.png"" style=""width:200px;border:14px solid red;"">","null","","","","","",""
"","image-keyboard-response","385","169739","0.0-385.0","3EKVH9QMEZQC9LLJPEWRNN29Q2Z2DD","A2PSR3CMNR1R9X","3QGHA0EA0JM3KKNCY0PQRLYANCJBWP","","471","img/food8.png","75","472.0999999642372","1","1","2","0.8,0.2,0.8,0.2,0.2,0.8,0.2,0.8",""
"","html-keyboard-response","386","170041","0.0-386.0","3EKVH9QMEZQC9LLJPEWRNN29Q2Z2DD","A2PSR3CMNR1R9X","3QGHA0EA0JM3KKNCY0PQRLYANCJBWP","","null","<img src=""img/food8.png"" style=""width:200px; border:14px solid green;"">","null","","","","","",""
"","image-keyboard-response","387","170516","0.0-387.0","3EKVH9QMEZQC9LLJPEWRNN29Q2Z2DD","A2PSR3CMNR1R9X","3QGHA0EA0JM3KKNCY0PQRLYANCJBWP","","473.5999999642372","img/food3.png","76","474.89999997615814","2","1","4","0.8,0.2,0.8,0.2,0.2,0.8,0.2,0.8",""
"","html-keyboard-response","388","170828","0.0-388.0","3EKVH9QMEZQC9LLJPEWRNN29Q2Z2DD","A2PSR3CMNR1R9X","3QGHA0EA0JM3KKNCY0PQRLYANCJBWP","","null","<img src=""img/food3.png"" style=""width:200px; border:14px solid green;"">","null","","","","","",""
"","image-keyboard-response","389","171372","0.0-389.0","3EKVH9QMEZQC9LLJPEWRNN29Q2Z2DD","A2PSR3CMNR1R9X","3QGHA0EA0JM3KKNCY0PQRLYANCJBWP","","542.6000000238419","img/food8.png","75","543.3000000119209","1","1","2","0.8,0.2,0.8,0.2,0.2,0.8,0.2,0.8",""
"","html-keyboard-response","390","171673","0.0-390.0","3EKVH9QMEZQC9LLJPEWRNN29Q2Z2DD","A2PSR3CMNR1R9X","3QGHA0EA0JM3KKNCY0PQRLYANCJBWP","","null","<img src=""img/food8.png"" style=""width:200px; border:14px solid green;"">","null","","","","","",""
"","image-keyboard-response","391","172604","0.0-391.0","3EKVH9QMEZQC9LLJPEWRNN29Q2Z2DD","A2PSR3CMNR1R9X","3QGHA0EA0JM3KKNCY0PQRLYANCJBWP","","929.7999999523163","img/food7.png","75","930.3000000119209","1","1","1","0.8,0.2,0.8,0.2,0.2,0.8,0.2,0.8",""
"","html-keyboard-response","392","172906","0.0-392.0","3EKVH9QMEZQC9LLJPEWRNN29Q2Z2DD","A2PSR3CMNR1R9X","3QGHA0EA0JM3KKNCY0PQRLYANCJBWP","","null","<img src=""img/food7.png"" style=""width:200px; border:14px solid green;"">","null","","","","","",""
"","image-keyboard-response","393","173700","0.0-393.0","3EKVH9QMEZQC9LLJPEWRNN29Q2Z2DD","A2PSR3CMNR1R9X","3QGHA0EA0JM3KKNCY0PQRLYANCJBWP","","792.5","img/food6.png","76","793.6000000238419","2","1","3","0.8,0.2,0.8,0.2,0.2,0.8,0.2,0.8",""
"","html-keyboard-response","394","174002","0.0-394.0","3EKVH9QMEZQC9LLJPEWRNN29Q2Z2DD","A2PSR3CMNR1R9X","3QGHA0EA0JM3KKNCY0PQRLYANCJBWP","","null","<img src=""img/food6.png"" style=""width:200px; border:14px solid green;"">","null","","","","","",""
"","image-keyboard-response","395","174539","0.0-395.0","3EKVH9QMEZQC9LLJPEWRNN29Q2Z2DD","A2PSR3CMNR1R9X","3QGHA0EA0JM3KKNCY0PQRLYANCJBWP","","535.9000000357628","img/food8.png","75","536.8999999761581","1","1","2","0.8,0.2,0.8,0.2,0.2,0.8,0.2,0.8",""
"","html-keyboard-response","396","174841","0.0-396.0","3EKVH9QMEZQC9LLJPEWRNN29Q2Z2DD","A2PSR3CMNR1R9X","3QGHA0EA0JM3KKNCY0PQRLYANCJBWP","","null","<img src=""img/food8.png"" style=""width:200px; border:14px solid green;"">","null","","","","","",""
"","image-keyboard-response","397","175180","0.0-397.0","3EKVH9QMEZQC9LLJPEWRNN29Q2Z2DD","A2PSR3CMNR1R9X","3QGHA0EA0JM3KKNCY0PQRLYANCJBWP","","338","img/food8.png","75","338.7000000476837","1","0","2","0.8,0.2,0.8,0.2,0.2,0.8,0.2,0.8",""
"","html-keyboard-response","398","175482","0.0-398.0","3EKVH9QMEZQC9LLJPEWRNN29Q2Z2DD","A2PSR3CMNR1R9X","3QGHA0EA0JM3KKNCY0PQRLYANCJBWP","","null","<img src=""img/food8.png"" style=""width:200px;border:14px solid red;"">","null","","","","","",""
"","image-keyboard-response","399","176140","0.0-399.0","3EKVH9QMEZQC9LLJPEWRNN29Q2Z2DD","A2PSR3CMNR1R9X","3QGHA0EA0JM3KKNCY0PQRLYANCJBWP","","656.5","img/food3.png","76","657.8000000119209","2","1","4","0.8,0.2,0.8,0.2,0.2,0.8,0.2,0.8",""
"","html-keyboard-response","400","176442","0.0-400.0","3EKVH9QMEZQC9LLJPEWRNN29Q2Z2DD","A2PSR3CMNR1R9X","3QGHA0EA0JM3KKNCY0PQRLYANCJBWP","","null","<img src=""img/food3.png"" style=""width:200px; border:14px solid green;"">","null","","","","","",""
"","image-keyboard-response","401","176835","0.0-401.0","3EKVH9QMEZQC9LLJPEWRNN29Q2Z2DD","A2PSR3CMNR1R9X","3QGHA0EA0JM3KKNCY0PQRLYANCJBWP","","392.69999998807907","img/food6.png","76","393.19999998807907","2","0","3","0.8,0.2,0.8,0.2,0.2,0.8,0.2,0.8",""
