"success","trial_type","trial_index","time_elapsed","internal_node_id","assignmentID","mturkID","hitID","view_history","rt","stimulus","key_press","reactionTime","a","r","warning","s","cond","reward_cond","reward_cond_actual","reward_matrix_idx","responses"
"true","fullscreen","0","3786","0.0-0.0","3MB8LZR5BGFQODD1R10J6WW8JFQLKC","A2PWUACCQI97J8","3KTZHH2ONI1ODAVRRMZTRL6IHCUM80","","","","","","","","","","","","","",""
"","instructions","1","25324","0.0-1.0","3MB8LZR5BGFQODD1R10J6WW8JFQLKC","A2PWUACCQI97J8","3KTZHH2ONI1ODAVRRMZTRL6IHCUM80","[{""page_index"":0,""viewing_time"":5563.29999999702},{""page_index"":1,""viewing_time"":855.8999999910593},{""page_index"":2,""viewing_time"":988.6000000089407},{""page_index"":3,""viewing_time"":5839.20000000298},{""page_index"":4,""viewing_time"":2234.0999999940395},{""page_index"":5,""viewing_time"":4547.9000000059605},{""page_index"":6,""viewing_time"":1506.3999999910593}]","21535.69999998808","","","","","","","","","","","",""
"","instructions","2","40921","0.0-2.0","3MB8LZR5BGFQODD1R10J6WW8JFQLKC","A2PWUACCQI97J8","3KTZHH2ONI1ODAVRRMZTRL6IHCUM80","[{""page_index"":0,""viewing_time"":13388.90000000596},{""page_index"":1,""viewing_time"":2207.5999999940395}]","15596.79999999702","","","","","","","","","","","",""
"","image-keyboard-response","3","41474","0.0-3.0","3MB8LZR5BGFQODD1R10J6WW8JFQLKC","A2PWUACCQI97J8","3KTZHH2ONI1ODAVRRMZTRL6IHCUM80","","551.1999999880791","img/food2.png","74","553","1","1","false","1","2","1,0.7,0,1,0.7,0,0.7,0,1","1,0.7,0,1,0.7,0,0.7,0,1","1",""
"","html-keyboard-response","4","41777","0.0-4.0","3MB8LZR5BGFQODD1R10J6WW8JFQLKC","A2PWUACCQI97J8","3KTZHH2ONI1ODAVRRMZTRL6IHCUM80","","null","<img src=""img/food2.png"" style=""width:200px; border:14px solid green;"">","null","","","","","","","","","",""
"","image-keyboard-response","5","42301","0.0-6.0","3MB8LZR5BGFQODD1R10J6WW8JFQLKC","A2PWUACCQI97J8","3KTZHH2ONI1ODAVRRMZTRL6IHCUM80","","521.8000000119209","img/food4.png","74","522.8999999910593","1","1","false","3","2","1,0.7,0,1,0.7,0,0.7,0,1","1,0.7,0,1,0.7,0,0.7,0,1","1",""
"","html-keyboard-response","6","42603","0.0-7.0","3MB8LZR5BGFQODD1R10J6WW8JFQLKC","A2PWUACCQI97J8","3KTZHH2ONI1ODAVRRMZTRL6IHCUM80","","null","<img src=""img/food4.png"" style=""width:200px; border:14px solid green;"">","null","","","","","","","","","",""
"","image-keyboard-response","7","43033","0.0-9.0","3MB8LZR5BGFQODD1R10J6WW8JFQLKC","A2PWUACCQI97J8","3KTZHH2ONI1ODAVRRMZTRL6IHCUM80","","428.5","img/food6.png","74","429.3999999910593","1","1","false","2","2","1,0.7,0,1,0.7,0,0.7,0,1","1,0.7,0,1,0.7,0,0.7,0,1","1",""
"","html-keyboard-response","8","43335","0.0-10.0","3MB8LZR5BGFQODD1R10J6WW8JFQLKC","A2PWUACCQI97J8","3KTZHH2ONI1ODAVRRMZTRL6IHCUM80","","null","<img src=""img/food6.png"" style=""width:200px; border:14px solid green;"">","null","","","","","","","","","",""
"","image-keyboard-response","9","43698","0.0-12.0","3MB8LZR5BGFQODD1R10J6WW8JFQLKC","A2PWUACCQI97J8","3KTZHH2ONI1ODAVRRMZTRL6IHCUM80","","361.3999999910593","img/food2.png","74","362.09999999403954","1","1","false","1","2","1,0.7,0,1,0.7,0,0.7,0,1","1,0.7,0,1,0.7,0,0.7,0,1","1",""
"","html-keyboard-response","10","43999","0.0-13.0","3MB8LZR5BGFQODD1R10J6WW8JFQLKC","A2PWUACCQI97J8","3KTZHH2ONI1ODAVRRMZTRL6IHCUM80","","null","<img src=""img/food2.png"" style=""width:200px; border:14px solid green;"">","null","","","","","","","","","",""
"","image-keyboard-response","11","44334","0.0-15.0","3MB8LZR5BGFQODD1R10J6WW8JFQLKC","A2PWUACCQI97J8","3KTZHH2ONI1ODAVRRMZTRL6IHCUM80","","333.59999999403954","img/food6.png","74","334.8999999910593","1","1","false","2","2","1,0.7,0,1,0.7,0,0.7,0,1","1,0.7,0,1,0.7,0,0.7,0,1","1",""
"","html-keyboard-response","12","44644","0.0-16.0","3MB8LZR5BGFQODD1R10J6WW8JFQLKC","A2PWUACCQI97J8","3KTZHH2ONI1ODAVRRMZTRL6IHCUM80","","null","<img src=""img/food6.png"" style=""width:200px; border:14px solid green;"">","null","","","","","","","","","",""
"","image-keyboard-response","13","44966","0.0-18.0","3MB8LZR5BGFQODD1R10J6WW8JFQLKC","A2PWUACCQI97J8","3KTZHH2ONI1ODAVRRMZTRL6IHCUM80","","320.5","img/food4.png","74","321.70000000298023","1","1","false","3","2","1,0.7,0,1,0.7,0,0.7,0,1","1,0.7,0,1,0.7,0,0.7,0,1","1",""
"","html-keyboard-response","14","45269","0.0-19.0","3MB8LZR5BGFQODD1R10J6WW8JFQLKC","A2PWUACCQI97J8","3KTZHH2ONI1ODAVRRMZTRL6IHCUM80","","null","<img src=""img/food4.png"" style=""width:200px; border:14px solid green;"">","null","","","","","","","","","",""
"","image-keyboard-response","15","45620","0.0-21.0","3MB8LZR5BGFQODD1R10J6WW8JFQLKC","A2PWUACCQI97J8","3KTZHH2ONI1ODAVRRMZTRL6IHCUM80","","349.90000000596046","img/food2.png","74","350.79999999701977","1","1","false","1","2","1,0.7,0,1,0.7,0,0.7,0,1","1,0.7,0,1,0.7,0,0.7,0,1","1",""
"","html-keyboard-response","16","45923","0.0-22.0","3MB8LZR5BGFQODD1R10J6WW8JFQLKC","A2PWUACCQI97J8","3KTZHH2ONI1ODAVRRMZTRL6IHCUM80","","null","<img src=""img/food2.png"" style=""width:200px; border:14px solid green;"">","null","","","","","","","","","",""
"","image-keyboard-response","17","46240","0.0-24.0","3MB8LZR5BGFQODD1R10J6WW8JFQLKC","A2PWUACCQI97J8","3KTZHH2ONI1ODAVRRMZTRL6IHCUM80","","316.59999999403954","img/food2.png","74","317.09999999403954","1","1","false","1","2","1,0.7,0,1,0.7,0,0.7,0,1","1,0.7,0,1,0.7,0,0.7,0,1","1",""
"","html-keyboard-response","18","46542","0.0-25.0","3MB8LZR5BGFQODD1R10J6WW8JFQLKC","A2PWUACCQI97J8","3KTZHH2ONI1ODAVRRMZTRL6IHCUM80","","null","<img src=""img/food2.png"" style=""width:200px; border:14px solid green;"">","null","","","","","","","","","",""
"","image-keyboard-response","19","46858","0.0-27.0","3MB8LZR5BGFQODD1R10J6WW8JFQLKC","A2PWUACCQI97J8","3KTZHH2ONI1ODAVRRMZTRL6IHCUM80","","313.29999999701977","img/food6.png","74","315.20000000298023","1","1","false","2","2","1,0.7,0,1,0.7,0,0.7,0,1","1,0.7,0,1,0.7,0,0.7,0,1","1",""
"","html-keyboard-response","20","47161","0.0-28.0","3MB8LZR5BGFQODD1R10J6WW8JFQLKC","A2PWUACCQI97J8","3KTZHH2ONI1ODAVRRMZTRL6IHCUM80","","null","<img src=""img/food6.png"" style=""width:200px; border:14px solid green;"">","null","","","","","","","","","",""
"","image-keyboard-response","21","47441","0.0-30.0","3MB8LZR5BGFQODD1R10J6WW8JFQLKC","A2PWUACCQI97J8","3KTZHH2ONI1ODAVRRMZTRL6IHCUM80","","278.79999999701977","img/food2.png","74","280","1","1","false","1","2","1,0.7,0,1,0.7,0,0.7,0,1","1,0.7,0,1,0.7,0,0.7,0,1","1",""
"","html-keyboard-response","22","47744","0.0-31.0","3MB8LZR5BGFQODD1R10J6WW8JFQLKC","A2PWUACCQI97J8","3KTZHH2ONI1ODAVRRMZTRL6IHCUM80","","null","<img src=""img/food2.png"" style=""width:200px; border:14px solid green;"">","null","","","","","","","","","",""
"","image-keyboard-response","23","48011","0.0-33.0","3MB8LZR5BGFQODD1R10J6WW8JFQLKC","A2PWUACCQI97J8","3KTZHH2ONI1ODAVRRMZTRL6IHCUM80","","266.29999999701977","img/food2.png","74","266.79999999701977","1","1","false","1","2","1,0.7,0,1,0.7,0,0.7,0,1","1,0.7,0,1,0.7,0,0.7,0,1","1",""
"","html-keyboard-response","24","48314","0.0-34.0","3MB8LZR5BGFQODD1R10J6WW8JFQLKC","A2PWUACCQI97J8","3KTZHH2ONI1ODAVRRMZTRL6IHCUM80","","null","<img src=""img/food2.png"" style=""width:200px; border:14px solid green;"">","null","","","","","","","","","",""
"","image-keyboard-response","25","48586","0.0-36.0","3MB8LZR5BGFQODD1R10J6WW8JFQLKC","A2PWUACCQI97J8","3KTZHH2ONI1ODAVRRMZTRL6IHCUM80","","270.80000001192093","img/food4.png","74","271.59999999403954","1","0","false","3","2","1,0.7,0,1,0.7,0,0.7,0,1","1,0.7,0,1,0.7,0,0.7,0,1","1",""
"","html-keyboard-response","26","48888","0.0-37.0","3MB8LZR5BGFQODD1R10J6WW8JFQLKC","A2PWUACCQI97J8","3KTZHH2ONI1ODAVRRMZTRL6IHCUM80","","null","<img src=""img/food4.png"" style=""width:200px;border:14px solid red;"">","null","","","","","","","","","",""
"","image-keyboard-response","27","49219","0.0-39.0","3MB8LZR5BGFQODD1R10J6WW8JFQLKC","A2PWUACCQI97J8","3KTZHH2ONI1ODAVRRMZTRL6IHCUM80","","329","img/food4.png","74","329.90000000596046","1","1","false","3","2","1,0.7,0,1,0.7,0,0.7,0,1","1,0.7,0,1,0.7,0,0.7,0,1","1",""
"","html-keyboard-response","28","49520","0.0-40.0","3MB8LZR5BGFQODD1R10J6WW8JFQLKC","A2PWUACCQI97J8","3KTZHH2ONI1ODAVRRMZTRL6IHCUM80","","null","<img src=""img/food4.png"" style=""width:200px; border:14px solid green;"">","null","","","","","","","","","",""
"","image-keyboard-response","29","49824","0.0-42.0","3MB8LZR5BGFQODD1R10J6WW8JFQLKC","A2PWUACCQI97J8","3KTZHH2ONI1ODAVRRMZTRL6IHCUM80","","302.40000000596046","img/food2.png","74","303.09999999403954","1","1","false","1","2","1,0.7,0,1,0.7,0,0.7,0,1","1,0.7,0,1,0.7,0,0.7,0,1","1",""
"","html-keyboard-response","30","50125","0.0-43.0","3MB8LZR5BGFQODD1R10J6WW8JFQLKC","A2PWUACCQI97J8","3KTZHH2ONI1ODAVRRMZTRL6IHCUM80","","null","<img src=""img/food2.png"" style=""width:200px; border:14px solid green;"">","null","","","","","","","","","",""
"","image-keyboard-response","31","50417","0.0-45.0","3MB8LZR5BGFQODD1R10J6WW8JFQLKC","A2PWUACCQI97J8","3KTZHH2ONI1ODAVRRMZTRL6IHCUM80","","290.1000000089407","img/food4.png","74","291.09999999403954","1","1","false","3","2","1,0.7,0,1,0.7,0,0.7,0,1","1,0.7,0,1,0.7,0,0.7,0,1","1",""
"","html-keyboard-response","32","50719","0.0-46.0","3MB8LZR5BGFQODD1R10J6WW8JFQLKC","A2PWUACCQI97J8","3KTZHH2ONI1ODAVRRMZTRL6IHCUM80","","null","<img src=""img/food4.png"" style=""width:200px; border:14px solid green;"">","null","","","","","","","","","",""
"","image-keyboard-response","33","50952","0.0-48.0","3MB8LZR5BGFQODD1R10J6WW8JFQLKC","A2PWUACCQI97J8","3KTZHH2ONI1ODAVRRMZTRL6IHCUM80","","231.79999999701977","img/food6.png","74","232.40000000596046","1","1","false","2","2","1,0.7,0,1,0.7,0,0.7,0,1","1,0.7,0,1,0.7,0,0.7,0,1","1",""
"","html-keyboard-response","34","51254","0.0-49.0","3MB8LZR5BGFQODD1R10J6WW8JFQLKC","A2PWUACCQI97J8","3KTZHH2ONI1ODAVRRMZTRL6IHCUM80","","null","<img src=""img/food6.png"" style=""width:200px; border:14px solid green;"">","null","","","","","","","","","",""
"","image-keyboard-response","35","51525","0.0-51.0","3MB8LZR5BGFQODD1R10J6WW8JFQLKC","A2PWUACCQI97J8","3KTZHH2ONI1ODAVRRMZTRL6IHCUM80","","270.70000000298023","img/food4.png","74","271.29999999701977","1","1","false","3","2","1,0.7,0,1,0.7,0,0.7,0,1","1,0.7,0,1,0.7,0,0.7,0,1","1",""
"","html-keyboard-response","36","51827","0.0-52.0","3MB8LZR5BGFQODD1R10J6WW8JFQLKC","A2PWUACCQI97J8","3KTZHH2ONI1ODAVRRMZTRL6IHCUM80","","null","<img src=""img/food4.png"" style=""width:200px; border:14px solid green;"">","null","","","","","","","","","",""
"","image-keyboard-response","37","52068","0.0-54.0","3MB8LZR5BGFQODD1R10J6WW8JFQLKC","A2PWUACCQI97J8","3KTZHH2ONI1ODAVRRMZTRL6IHCUM80","","240.20000000298023","img/food2.png","74","241","1","1","false","1","2","1,0.7,0,1,0.7,0,0.7,0,1","1,0.7,0,1,0.7,0,0.7,0,1","1",""
"","html-keyboard-response","38","52386","0.0-55.0","3MB8LZR5BGFQODD1R10J6WW8JFQLKC","A2PWUACCQI97J8","3KTZHH2ONI1ODAVRRMZTRL6IHCUM80","","null","<img src=""img/food2.png"" style=""width:200px; border:14px solid green;"">","null","","","","","","","","","",""
"","image-keyboard-response","39","52637","0.0-57.0","3MB8LZR5BGFQODD1R10J6WW8JFQLKC","A2PWUACCQI97J8","3KTZHH2ONI1ODAVRRMZTRL6IHCUM80","","249.80000001192093","img/food6.png","74","250.59999999403954","1","1","false","2","2","1,0.7,0,1,0.7,0,0.7,0,1","1,0.7,0,1,0.7,0,0.7,0,1","1",""
"","html-keyboard-response","40","52939","0.0-58.0","3MB8LZR5BGFQODD1R10J6WW8JFQLKC","A2PWUACCQI97J8","3KTZHH2ONI1ODAVRRMZTRL6IHCUM80","","null","<img src=""img/food6.png"" style=""width:200px; border:14px solid green;"">","null","","","","","","","","","",""
"","image-keyboard-response","41","53170","0.0-60.0","3MB8LZR5BGFQODD1R10J6WW8JFQLKC","A2PWUACCQI97J8","3KTZHH2ONI1ODAVRRMZTRL6IHCUM80","","228.90000000596046","img/food2.png","74","230","1","1","false","1","2","1,0.7,0,1,0.7,0,0.7,0,1","1,0.7,0,1,0.7,0,0.7,0,1","1",""
"","html-keyboard-response","42","53471","0.0-61.0","3MB8LZR5BGFQODD1R10J6WW8JFQLKC","A2PWUACCQI97J8","3KTZHH2ONI1ODAVRRMZTRL6IHCUM80","","null","<img src=""img/food2.png"" style=""width:200px; border:14px solid green;"">","null","","","","","","","","","",""
"","image-keyboard-response","43","53708","0.0-63.0","3MB8LZR5BGFQODD1R10J6WW8JFQLKC","A2PWUACCQI97J8","3KTZHH2ONI1ODAVRRMZTRL6IHCUM80","","236.20000000298023","img/food6.png","74","236.90000000596046","1","1","false","2","2","1,0.7,0,1,0.7,0,0.7,0,1","1,0.7,0,1,0.7,0,0.7,0,1","1",""
"","html-keyboard-response","44","54009","0.0-64.0","3MB8LZR5BGFQODD1R10J6WW8JFQLKC","A2PWUACCQI97J8","3KTZHH2ONI1ODAVRRMZTRL6IHCUM80","","null","<img src=""img/food6.png"" style=""width:200px; border:14px solid green;"">","null","","","","","","","","","",""
"","image-keyboard-response","45","54202","0.0-66.0","3MB8LZR5BGFQODD1R10J6WW8JFQLKC","A2PWUACCQI97J8","3KTZHH2ONI1ODAVRRMZTRL6IHCUM80","","191.5","img/food6.png","74","192.20000000298023","1","1","false","2","2","1,0.7,0,1,0.7,0,0.7,0,1","1,0.7,0,1,0.7,0,0.7,0,1","1",""
"","html-keyboard-response","46","54503","0.0-67.0","3MB8LZR5BGFQODD1R10J6WW8JFQLKC","A2PWUACCQI97J8","3KTZHH2ONI1ODAVRRMZTRL6IHCUM80","","null","<img src=""img/food6.png"" style=""width:200px; border:14px solid green;"">","null","","","","","","","","","",""
"","image-keyboard-response","47","54718","0.0-69.0","3MB8LZR5BGFQODD1R10J6WW8JFQLKC","A2PWUACCQI97J8","3KTZHH2ONI1ODAVRRMZTRL6IHCUM80","","213.5","img/food6.png","74","214.40000000596046","1","1","false","2","2","1,0.7,0,1,0.7,0,0.7,0,1","1,0.7,0,1,0.7,0,0.7,0,1","1",""
"","html-keyboard-response","48","55020","0.0-70.0","3MB8LZR5BGFQODD1R10J6WW8JFQLKC","A2PWUACCQI97J8","3KTZHH2ONI1ODAVRRMZTRL6IHCUM80","","null","<img src=""img/food6.png"" style=""width:200px; border:14px solid green;"">","null","","","","","","","","","",""
"","image-keyboard-response","49","55222","0.0-72.0","3MB8LZR5BGFQODD1R10J6WW8JFQLKC","A2PWUACCQI97J8","3KTZHH2ONI1ODAVRRMZTRL6IHCUM80","","201.20000000298023","img/food4.png","74","201.79999999701977","1","1","false","3","2","1,0.7,0,1,0.7,0,0.7,0,1","1,0.7,0,1,0.7,0,0.7,0,1","1",""
"","html-keyboard-response","50","55525","0.0-73.0","3MB8LZR5BGFQODD1R10J6WW8JFQLKC","A2PWUACCQI97J8","3KTZHH2ONI1ODAVRRMZTRL6IHCUM80","","null","<img src=""img/food4.png"" style=""width:200px; border:14px solid green;"">","null","","","","","","","","","",""
"","image-keyboard-response","51","55760","0.0-75.0","3MB8LZR5BGFQODD1R10J6WW8JFQLKC","A2PWUACCQI97J8","3KTZHH2ONI1ODAVRRMZTRL6IHCUM80","","233.8999999910593","img/food6.png","74","234.69999998807907","1","1","false","2","2","1,0.7,0,1,0.7,0,0.7,0,1","1,0.7,0,1,0.7,0,0.7,0,1","1",""
"","html-keyboard-response","52","56061","0.0-76.0","3MB8LZR5BGFQODD1R10J6WW8JFQLKC","A2PWUACCQI97J8","3KTZHH2ONI1ODAVRRMZTRL6IHCUM80","","null","<img src=""img/food6.png"" style=""width:200px; border:14px solid green;"">","null","","","","","","","","","",""
"","image-keyboard-response","53","56269","0.0-78.0","3MB8LZR5BGFQODD1R10J6WW8JFQLKC","A2PWUACCQI97J8","3KTZHH2ONI1ODAVRRMZTRL6IHCUM80","","206.40000000596046","img/food4.png","74","207.29999999701977","1","1","false","3","2","1,0.7,0,1,0.7,0,0.7,0,1","1,0.7,0,1,0.7,0,0.7,0,1","1",""
"","html-keyboard-response","54","56572","0.0-79.0","3MB8LZR5BGFQODD1R10J6WW8JFQLKC","A2PWUACCQI97J8","3KTZHH2ONI1ODAVRRMZTRL6IHCUM80","","null","<img src=""img/food4.png"" style=""width:200px; border:14px solid green;"">","null","","","","","","","","","",""
"","image-keyboard-response","55","56813","0.0-81.0","3MB8LZR5BGFQODD1R10J6WW8JFQLKC","A2PWUACCQI97J8","3KTZHH2ONI1ODAVRRMZTRL6IHCUM80","","240.5","img/food6.png","74","241.20000000298023","1","1","false","2","2","1,0.7,0,1,0.7,0,0.7,0,1","1,0.7,0,1,0.7,0,0.7,0,1","1",""
"","html-keyboard-response","56","57114","0.0-82.0","3MB8LZR5BGFQODD1R10J6WW8JFQLKC","A2PWUACCQI97J8","3KTZHH2ONI1ODAVRRMZTRL6IHCUM80","","null","<img src=""img/food6.png"" style=""width:200px; border:14px solid green;"">","null","","","","","","","","","",""
"","image-keyboard-response","57","57338","0.0-84.0","3MB8LZR5BGFQODD1R10J6WW8JFQLKC","A2PWUACCQI97J8","3KTZHH2ONI1ODAVRRMZTRL6IHCUM80","","222.5","img/food4.png","74","223.1000000089407","1","1","false","3","2","1,0.7,0,1,0.7,0,0.7,0,1","1,0.7,0,1,0.7,0,0.7,0,1","1",""
"","html-keyboard-response","58","57639","0.0-85.0","3MB8LZR5BGFQODD1R10J6WW8JFQLKC","A2PWUACCQI97J8","3KTZHH2ONI1ODAVRRMZTRL6IHCUM80","","null","<img src=""img/food4.png"" style=""width:200px; border:14px solid green;"">","null","","","","","","","","","",""
"","image-keyboard-response","59","57899","0.0-87.0","3MB8LZR5BGFQODD1R10J6WW8JFQLKC","A2PWUACCQI97J8","3KTZHH2ONI1ODAVRRMZTRL6IHCUM80","","258.90000000596046","img/food4.png","74","259.5","1","1","false","3","2","1,0.7,0,1,0.7,0,0.7,0,1","1,0.7,0,1,0.7,0,0.7,0,1","1",""
"","html-keyboard-response","60","58201","0.0-88.0","3MB8LZR5BGFQODD1R10J6WW8JFQLKC","A2PWUACCQI97J8","3KTZHH2ONI1ODAVRRMZTRL6IHCUM80","","null","<img src=""img/food4.png"" style=""width:200px; border:14px solid green;"">","null","","","","","","","","","",""
"","image-keyboard-response","61","58433","0.0-90.0","3MB8LZR5BGFQODD1R10J6WW8JFQLKC","A2PWUACCQI97J8","3KTZHH2ONI1ODAVRRMZTRL6IHCUM80","","231.70000000298023","img/food6.png","74","232.30000001192093","1","1","false","2","2","1,0.7,0,1,0.7,0,0.7,0,1","1,0.7,0,1,0.7,0,0.7,0,1","1",""
"","html-keyboard-response","62","58736","0.0-91.0","3MB8LZR5BGFQODD1R10J6WW8JFQLKC","A2PWUACCQI97J8","3KTZHH2ONI1ODAVRRMZTRL6IHCUM80","","null","<img src=""img/food6.png"" style=""width:200px; border:14px solid green;"">","null","","","","","","","","","",""
"","image-keyboard-response","63","58892","0.0-93.0","3MB8LZR5BGFQODD1R10J6WW8JFQLKC","A2PWUACCQI97J8","3KTZHH2ONI1ODAVRRMZTRL6IHCUM80","","154.30000001192093","img/food6.png","74","155.5","1","1","false","2","2","1,0.7,0,1,0.7,0,0.7,0,1","1,0.7,0,1,0.7,0,0.7,0,1","1",""
"","html-keyboard-response","64","59195","0.0-94.0","3MB8LZR5BGFQODD1R10J6WW8JFQLKC","A2PWUACCQI97J8","3KTZHH2ONI1ODAVRRMZTRL6IHCUM80","","null","<img src=""img/food6.png"" style=""width:200px; border:14px solid green;"">","null","","","","","","","","","",""
"","image-keyboard-response","65","59392","0.0-96.0","3MB8LZR5BGFQODD1R10J6WW8JFQLKC","A2PWUACCQI97J8","3KTZHH2ONI1ODAVRRMZTRL6IHCUM80","","196.79999999701977","img/food2.png","74","197.29999999701977","1","1","false","1","2","1,0.7,0,1,0.7,0,0.7,0,1","1,0.7,0,1,0.7,0,0.7,0,1","1",""
"","html-keyboard-response","66","59694","0.0-97.0","3MB8LZR5BGFQODD1R10J6WW8JFQLKC","A2PWUACCQI97J8","3KTZHH2ONI1ODAVRRMZTRL6IHCUM80","","null","<img src=""img/food2.png"" style=""width:200px; border:14px solid green;"">","null","","","","","","","","","",""
"","image-keyboard-response","67","59887","0.0-99.0","3MB8LZR5BGFQODD1R10J6WW8JFQLKC","A2PWUACCQI97J8","3KTZHH2ONI1ODAVRRMZTRL6IHCUM80","","192.40000000596046","img/food6.png","74","193.29999999701977","1","1","false","2","2","1,0.7,0,1,0.7,0,0.7,0,1","1,0.7,0,1,0.7,0,0.7,0,1","1",""
"","html-keyboard-response","68","60189","0.0-100.0","3MB8LZR5BGFQODD1R10J6WW8JFQLKC","A2PWUACCQI97J8","3KTZHH2ONI1ODAVRRMZTRL6IHCUM80","","null","<img src=""img/food6.png"" style=""width:200px; border:14px solid green;"">","null","","","","","","","","","",""
"","image-keyboard-response","69","60376","0.0-102.0","3MB8LZR5BGFQODD1R10J6WW8JFQLKC","A2PWUACCQI97J8","3KTZHH2ONI1ODAVRRMZTRL6IHCUM80","","186.5","img/food2.png","74","187.1000000089407","1","1","false","1","2","1,0.7,0,1,0.7,0,0.7,0,1","1,0.7,0,1,0.7,0,0.7,0,1","1",""
"","html-keyboard-response","70","60678","0.0-103.0","3MB8LZR5BGFQODD1R10J6WW8JFQLKC","A2PWUACCQI97J8","3KTZHH2ONI1ODAVRRMZTRL6IHCUM80","","null","<img src=""img/food2.png"" style=""width:200px; border:14px solid green;"">","null","","","","","","","","","",""
"","image-keyboard-response","71","60864","0.0-105.0","3MB8LZR5BGFQODD1R10J6WW8JFQLKC","A2PWUACCQI97J8","3KTZHH2ONI1ODAVRRMZTRL6IHCUM80","","184.90000000596046","img/food2.png","74","185.59999999403954","1","1","false","1","2","1,0.7,0,1,0.7,0,0.7,0,1","1,0.7,0,1,0.7,0,0.7,0,1","1",""
"","html-keyboard-response","72","61167","0.0-106.0","3MB8LZR5BGFQODD1R10J6WW8JFQLKC","A2PWUACCQI97J8","3KTZHH2ONI1ODAVRRMZTRL6IHCUM80","","null","<img src=""img/food2.png"" style=""width:200px; border:14px solid green;"">","null","","","","","","","","","",""
"","image-keyboard-response","73","61361","0.0-108.0","3MB8LZR5BGFQODD1R10J6WW8JFQLKC","A2PWUACCQI97J8","3KTZHH2ONI1ODAVRRMZTRL6IHCUM80","","193.5","img/food4.png","74","194.09999999403954","1","0","false","3","2","1,0.7,0,1,0.7,0,0.7,0,1","1,0.7,0,1,0.7,0,0.7,0,1","1",""
"","html-keyboard-response","74","61664","0.0-109.0","3MB8LZR5BGFQODD1R10J6WW8JFQLKC","A2PWUACCQI97J8","3KTZHH2ONI1ODAVRRMZTRL6IHCUM80","","null","<img src=""img/food4.png"" style=""width:200px;border:14px solid red;"">","null","","","","","","","","","",""
"","image-keyboard-response","75","61877","0.0-111.0","3MB8LZR5BGFQODD1R10J6WW8JFQLKC","A2PWUACCQI97J8","3KTZHH2ONI1ODAVRRMZTRL6IHCUM80","","212.59999999403954","img/food6.png","74","213.5","1","1","false","2","2","1,0.7,0,1,0.7,0,0.7,0,1","1,0.7,0,1,0.7,0,0.7,0,1","1",""
"","html-keyboard-response","76","62180","0.0-112.0","3MB8LZR5BGFQODD1R10J6WW8JFQLKC","A2PWUACCQI97J8","3KTZHH2ONI1ODAVRRMZTRL6IHCUM80","","null","<img src=""img/food6.png"" style=""width:200px; border:14px solid green;"">","null","","","","","","","","","",""
"","image-keyboard-response","77","62346","0.0-114.0","3MB8LZR5BGFQODD1R10J6WW8JFQLKC","A2PWUACCQI97J8","3KTZHH2ONI1ODAVRRMZTRL6IHCUM80","","164.09999999403954","img/food2.png","74","165.29999999701977","1","1","false","1","2","1,0.7,0,1,0.7,0,0.7,0,1","1,0.7,0,1,0.7,0,0.7,0,1","1",""
"","html-keyboard-response","78","62649","0.0-115.0","3MB8LZR5BGFQODD1R10J6WW8JFQLKC","A2PWUACCQI97J8","3KTZHH2ONI1ODAVRRMZTRL6IHCUM80","","null","<img src=""img/food2.png"" style=""width:200px; border:14px solid green;"">","null","","","","","","","","","",""
"","image-keyboard-response","79","62756","0.0-117.0","3MB8LZR5BGFQODD1R10J6WW8JFQLKC","A2PWUACCQI97J8","3KTZHH2ONI1ODAVRRMZTRL6IHCUM80","","106.40000000596046","img/food6.png","74","107.5","1","1","false","2","2","1,0.7,0,1,0.7,0,0.7,0,1","1,0.7,0,1,0.7,0,0.7,0,1","1",""
"","html-keyboard-response","80","63060","0.0-118.0","3MB8LZR5BGFQODD1R10J6WW8JFQLKC","A2PWUACCQI97J8","3KTZHH2ONI1ODAVRRMZTRL6IHCUM80","","null","<img src=""img/food6.png"" style=""width:200px; border:14px solid green;"">","null","","","","","","","","","",""
"","image-keyboard-response","81","63217","0.0-120.0","3MB8LZR5BGFQODD1R10J6WW8JFQLKC","A2PWUACCQI97J8","3KTZHH2ONI1ODAVRRMZTRL6IHCUM80","","155.29999999701977","img/food6.png","74","156.40000000596046","1","1","false","2","2","1,0.7,0,1,0.7,0,0.7,0,1","1,0.7,0,1,0.7,0,0.7,0,1","1",""
"","html-keyboard-response","82","63518","0.0-121.0","3MB8LZR5BGFQODD1R10J6WW8JFQLKC","A2PWUACCQI97J8","3KTZHH2ONI1ODAVRRMZTRL6IHCUM80","","null","<img src=""img/food6.png"" style=""width:200px; border:14px solid green;"">","null","","","","","","","","","",""
"","image-keyboard-response","83","63659","0.0-123.0","3MB8LZR5BGFQODD1R10J6WW8JFQLKC","A2PWUACCQI97J8","3KTZHH2ONI1ODAVRRMZTRL6IHCUM80","","139.69999998807907","img/food2.png","74","140.40000000596046","1","1","false","1","2","1,0.7,0,1,0.7,0,0.7,0,1","1,0.7,0,1,0.7,0,0.7,0,1","1",""
"","html-keyboard-response","84","63961","0.0-124.0","3MB8LZR5BGFQODD1R10J6WW8JFQLKC","A2PWUACCQI97J8","3KTZHH2ONI1ODAVRRMZTRL6IHCUM80","","null","<img src=""img/food2.png"" style=""width:200px; border:14px solid green;"">","null","","","","","","","","","",""
"","image-keyboard-response","85","64122","0.0-126.0","3MB8LZR5BGFQODD1R10J6WW8JFQLKC","A2PWUACCQI97J8","3KTZHH2ONI1ODAVRRMZTRL6IHCUM80","","160.1000000089407","img/food6.png","74","161.09999999403954","1","1","false","2","2","1,0.7,0,1,0.7,0,0.7,0,1","1,0.7,0,1,0.7,0,0.7,0,1","1",""
"","html-keyboard-response","86","64425","0.0-127.0","3MB8LZR5BGFQODD1R10J6WW8JFQLKC","A2PWUACCQI97J8","3KTZHH2ONI1ODAVRRMZTRL6IHCUM80","","null","<img src=""img/food6.png"" style=""width:200px; border:14px solid green;"">","null","","","","","","","","","",""
"","image-keyboard-response","87","64530","0.0-129.0","3MB8LZR5BGFQODD1R10J6WW8JFQLKC","A2PWUACCQI97J8","3KTZHH2ONI1ODAVRRMZTRL6IHCUM80","","104.29999999701977","img/food4.png","74","104.79999999701977","1","1","false","3","2","1,0.7,0,1,0.7,0,0.7,0,1","1,0.7,0,1,0.7,0,0.7,0,1","1",""
"","html-keyboard-response","88","64832","0.0-130.0","3MB8LZR5BGFQODD1R10J6WW8JFQLKC","A2PWUACCQI97J8","3KTZHH2ONI1ODAVRRMZTRL6IHCUM80","","null","<img src=""img/food4.png"" style=""width:200px; border:14px solid green;"">","null","","","","","","","","","",""
"","image-keyboard-response","89","65087","0.0-132.0","3MB8LZR5BGFQODD1R10J6WW8JFQLKC","A2PWUACCQI97J8","3KTZHH2ONI1ODAVRRMZTRL6IHCUM80","","253.5","img/food6.png","74","254.5","1","1","false","2","2","1,0.7,0,1,0.7,0,0.7,0,1","1,0.7,0,1,0.7,0,0.7,0,1","1",""
"","html-keyboard-response","90","65388","0.0-133.0","3MB8LZR5BGFQODD1R10J6WW8JFQLKC","A2PWUACCQI97J8","3KTZHH2ONI1ODAVRRMZTRL6IHCUM80","","null","<img src=""img/food6.png"" style=""width:200px; border:14px solid green;"">","null","","","","","","","","","",""
"","image-keyboard-response","91","65533","0.0-135.0","3MB8LZR5BGFQODD1R10J6WW8JFQLKC","A2PWUACCQI97J8","3KTZHH2ONI1ODAVRRMZTRL6IHCUM80","","144.1000000089407","img/food2.png","74","144.70000000298023","1","1","false","1","2","1,0.7,0,1,0.7,0,0.7,0,1","1,0.7,0,1,0.7,0,0.7,0,1","1",""
"","html-keyboard-response","92","65834","0.0-136.0","3MB8LZR5BGFQODD1R10J6WW8JFQLKC","A2PWUACCQI97J8","3KTZHH2ONI1ODAVRRMZTRL6IHCUM80","","null","<img src=""img/food2.png"" style=""width:200px; border:14px solid green;"">","null","","","","","","","","","",""
"","image-keyboard-response","93","65882","0.0-138.0","3MB8LZR5BGFQODD1R10J6WW8JFQLKC","A2PWUACCQI97J8","3KTZHH2ONI1ODAVRRMZTRL6IHCUM80","","46","img/food6.png","74","47","1","1","false","2","2","1,0.7,0,1,0.7,0,0.7,0,1","1,0.7,0,1,0.7,0,0.7,0,1","1",""
"","html-keyboard-response","94","66184","0.0-139.0","3MB8LZR5BGFQODD1R10J6WW8JFQLKC","A2PWUACCQI97J8","3KTZHH2ONI1ODAVRRMZTRL6IHCUM80","","null","<img src=""img/food6.png"" style=""width:200px; border:14px solid green;"">","null","","","","","","","","","",""
"","image-keyboard-response","95","66293","0.0-141.0","3MB8LZR5BGFQODD1R10J6WW8JFQLKC","A2PWUACCQI97J8","3KTZHH2ONI1ODAVRRMZTRL6IHCUM80","","108.6000000089407","img/food6.png","74","109.29999999701977","1","1","false","2","2","1,0.7,0,1,0.7,0,0.7,0,1","1,0.7,0,1,0.7,0,0.7,0,1","1",""
"","html-keyboard-response","96","66595","0.0-142.0","3MB8LZR5BGFQODD1R10J6WW8JFQLKC","A2PWUACCQI97J8","3KTZHH2ONI1ODAVRRMZTRL6IHCUM80","","null","<img src=""img/food6.png"" style=""width:200px; border:14px solid green;"">","null","","","","","","","","","",""
"","image-keyboard-response","97","66675","0.0-144.0","3MB8LZR5BGFQODD1R10J6WW8JFQLKC","A2PWUACCQI97J8","3KTZHH2ONI1ODAVRRMZTRL6IHCUM80","","78.80000001192093","img/food4.png","74","79.5","1","1","false","3","2","1,0.7,0,1,0.7,0,0.7,0,1","1,0.7,0,1,0.7,0,0.7,0,1","1",""
"","html-keyboard-response","98","66977","0.0-145.0","3MB8LZR5BGFQODD1R10J6WW8JFQLKC","A2PWUACCQI97J8","3KTZHH2ONI1ODAVRRMZTRL6IHCUM80","","null","<img src=""img/food4.png"" style=""width:200px; border:14px solid green;"">","null","","","","","","","","","",""
"","image-keyboard-response","99","67030","0.0-147.0","3MB8LZR5BGFQODD1R10J6WW8JFQLKC","A2PWUACCQI97J8","3KTZHH2ONI1ODAVRRMZTRL6IHCUM80","","52.599999994039536","img/food4.png","74","53.30000001192093","1","1","false","3","2","1,0.7,0,1,0.7,0,0.7,0,1","1,0.7,0,1,0.7,0,0.7,0,1","1",""
"","html-keyboard-response","100","67333","0.0-148.0","3MB8LZR5BGFQODD1R10J6WW8JFQLKC","A2PWUACCQI97J8","3KTZHH2ONI1ODAVRRMZTRL6IHCUM80","","null","<img src=""img/food4.png"" style=""width:200px; border:14px solid green;"">","null","","","","","","","","","",""
"","image-keyboard-response","101","67448","0.0-150.0","3MB8LZR5BGFQODD1R10J6WW8JFQLKC","A2PWUACCQI97J8","3KTZHH2ONI1ODAVRRMZTRL6IHCUM80","","113.5","img/food4.png","74","114.29999999701977","1","1","false","3","2","1,0.7,0,1,0.7,0,0.7,0,1","1,0.7,0,1,0.7,0,0.7,0,1","1",""
"","html-keyboard-response","102","67750","0.0-151.0","3MB8LZR5BGFQODD1R10J6WW8JFQLKC","A2PWUACCQI97J8","3KTZHH2ONI1ODAVRRMZTRL6IHCUM80","","null","<img src=""img/food4.png"" style=""width:200px; border:14px solid green;"">","null","","","","","","","","","",""
"","image-keyboard-response","103","67841","0.0-153.0","3MB8LZR5BGFQODD1R10J6WW8JFQLKC","A2PWUACCQI97J8","3KTZHH2ONI1ODAVRRMZTRL6IHCUM80","","90","img/food4.png","74","90.3999999910593","1","1","false","3","2","1,0.7,0,1,0.7,0,0.7,0,1","1,0.7,0,1,0.7,0,0.7,0,1","1",""
"","html-keyboard-response","104","68142","0.0-154.0","3MB8LZR5BGFQODD1R10J6WW8JFQLKC","A2PWUACCQI97J8","3KTZHH2ONI1ODAVRRMZTRL6IHCUM80","","null","<img src=""img/food4.png"" style=""width:200px; border:14px solid green;"">","null","","","","","","","","","",""
"","image-keyboard-response","105","68246","0.0-156.0","3MB8LZR5BGFQODD1R10J6WW8JFQLKC","A2PWUACCQI97J8","3KTZHH2ONI1ODAVRRMZTRL6IHCUM80","","101.40000000596046","img/food6.png","74","102.79999999701977","1","1","false","2","2","1,0.7,0,1,0.7,0,0.7,0,1","1,0.7,0,1,0.7,0,0.7,0,1","1",""
"","html-keyboard-response","106","68548","0.0-157.0","3MB8LZR5BGFQODD1R10J6WW8JFQLKC","A2PWUACCQI97J8","3KTZHH2ONI1ODAVRRMZTRL6IHCUM80","","null","<img src=""img/food6.png"" style=""width:200px; border:14px solid green;"">","null","","","","","","","","","",""
"","image-keyboard-response","107","68665","0.0-159.0","3MB8LZR5BGFQODD1R10J6WW8JFQLKC","A2PWUACCQI97J8","3KTZHH2ONI1ODAVRRMZTRL6IHCUM80","","116.69999998807907","img/food4.png","74","117.40000000596046","1","1","false","3","2","1,0.7,0,1,0.7,0,0.7,0,1","1,0.7,0,1,0.7,0,0.7,0,1","1",""
"","html-keyboard-response","108","68967","0.0-160.0","3MB8LZR5BGFQODD1R10J6WW8JFQLKC","A2PWUACCQI97J8","3KTZHH2ONI1ODAVRRMZTRL6IHCUM80","","null","<img src=""img/food4.png"" style=""width:200px; border:14px solid green;"">","null","","","","","","","","","",""
"","image-keyboard-response","109","69028","0.0-162.0","3MB8LZR5BGFQODD1R10J6WW8JFQLKC","A2PWUACCQI97J8","3KTZHH2ONI1ODAVRRMZTRL6IHCUM80","","60.29999999701977","img/food4.png","74","61.20000000298023","1","1","false","3","2","1,0.7,0,1,0.7,0,0.7,0,1","1,0.7,0,1,0.7,0,0.7,0,1","1",""
"","html-keyboard-response","110","69330","0.0-163.0","3MB8LZR5BGFQODD1R10J6WW8JFQLKC","A2PWUACCQI97J8","3KTZHH2ONI1ODAVRRMZTRL6IHCUM80","","null","<img src=""img/food4.png"" style=""width:200px; border:14px solid green;"">","null","","","","","","","","","",""
"","image-keyboard-response","111","69392","0.0-165.0","3MB8LZR5BGFQODD1R10J6WW8JFQLKC","A2PWUACCQI97J8","3KTZHH2ONI1ODAVRRMZTRL6IHCUM80","","60.80000001192093","img/food6.png","74","62.099999994039536","1","1","false","2","2","1,0.7,0,1,0.7,0,0.7,0,1","1,0.7,0,1,0.7,0,0.7,0,1","1",""
"","html-keyboard-response","112","69696","0.0-166.0","3MB8LZR5BGFQODD1R10J6WW8JFQLKC","A2PWUACCQI97J8","3KTZHH2ONI1ODAVRRMZTRL6IHCUM80","","null","<img src=""img/food6.png"" style=""width:200px; border:14px solid green;"">","null","","","","","","","","","",""
"","image-keyboard-response","113","69817","0.0-168.0","3MB8LZR5BGFQODD1R10J6WW8JFQLKC","A2PWUACCQI97J8","3KTZHH2ONI1ODAVRRMZTRL6IHCUM80","","120.59999999403954","img/food6.png","74","121.20000000298023","1","1","false","2","2","1,0.7,0,1,0.7,0,0.7,0,1","1,0.7,0,1,0.7,0,0.7,0,1","1",""
"","html-keyboard-response","114","70119","0.0-169.0","3MB8LZR5BGFQODD1R10J6WW8JFQLKC","A2PWUACCQI97J8","3KTZHH2ONI1ODAVRRMZTRL6IHCUM80","","null","<img src=""img/food6.png"" style=""width:200px; border:14px solid green;"">","null","","","","","","","","","",""
"","image-keyboard-response","115","70170","0.0-171.0","3MB8LZR5BGFQODD1R10J6WW8JFQLKC","A2PWUACCQI97J8","3KTZHH2ONI1ODAVRRMZTRL6IHCUM80","","50.29999999701977","img/food4.png","74","50.599999994039536","1","0","false","3","2","1,0.7,0,1,0.7,0,0.7,0,1","1,0.7,0,1,0.7,0,0.7,0,1","1",""
"","html-keyboard-response","116","70471","0.0-172.0","3MB8LZR5BGFQODD1R10J6WW8JFQLKC","A2PWUACCQI97J8","3KTZHH2ONI1ODAVRRMZTRL6IHCUM80","","null","<img src=""img/food4.png"" style=""width:200px;border:14px solid red;"">","null","","","","","","","","","",""
"","image-keyboard-response","117","70933","0.0-174.0","3MB8LZR5BGFQODD1R10J6WW8JFQLKC","A2PWUACCQI97J8","3KTZHH2ONI1ODAVRRMZTRL6IHCUM80","","460.79999999701977","img/food2.png","75","461.5","2","1","false","1","2","1,0.7,0,1,0.7,0,0.7,0,1","1,0.7,0,1,0.7,0,0.7,0,1","1",""
"","html-keyboard-response","118","71235","0.0-175.0","3MB8LZR5BGFQODD1R10J6WW8JFQLKC","A2PWUACCQI97J8","3KTZHH2ONI1ODAVRRMZTRL6IHCUM80","","null","<img src=""img/food2.png"" style=""width:200px; border:14px solid green;"">","null","","","","","","","","","",""
"","image-keyboard-response","119","71272","0.0-177.0","3MB8LZR5BGFQODD1R10J6WW8JFQLKC","A2PWUACCQI97J8","3KTZHH2ONI1ODAVRRMZTRL6IHCUM80","","35.900000005960464","img/food2.png","75","36.70000000298023","2","0","false","1","2","1,0.7,0,1,0.7,0,0.7,0,1","1,0.7,0,1,0.7,0,0.7,0,1","1",""
"","html-keyboard-response","120","71574","0.0-178.0","3MB8LZR5BGFQODD1R10J6WW8JFQLKC","A2PWUACCQI97J8","3KTZHH2ONI1ODAVRRMZTRL6IHCUM80","","null","<img src=""img/food2.png"" style=""width:200px;border:14px solid red;"">","null","","","","","","","","","",""
"","image-keyboard-response","121","71645","0.0-180.0","3MB8LZR5BGFQODD1R10J6WW8JFQLKC","A2PWUACCQI97J8","3KTZHH2ONI1ODAVRRMZTRL6IHCUM80","","70.40000000596046","img/food6.png","75","71.20000000298023","2","1","false","2","2","1,0.7,0,1,0.7,0,0.7,0,1","1,0.7,0,1,0.7,0,0.7,0,1","1",""
"","html-keyboard-response","122","71947","0.0-181.0","3MB8LZR5BGFQODD1R10J6WW8JFQLKC","A2PWUACCQI97J8","3KTZHH2ONI1ODAVRRMZTRL6IHCUM80","","null","<img src=""img/food6.png"" style=""width:200px; border:14px solid green;"">","null","","","","","","","","","",""
"","image-keyboard-response","123","72211","0.0-183.0","3MB8LZR5BGFQODD1R10J6WW8JFQLKC","A2PWUACCQI97J8","3KTZHH2ONI1ODAVRRMZTRL6IHCUM80","","263.30000001192093","img/food4.png","75","264.1000000089407","2","0","false","3","2","1,0.7,0,1,0.7,0,0.7,0,1","1,0.7,0,1,0.7,0,0.7,0,1","1",""
"","html-keyboard-response","124","72513","0.0-184.0","3MB8LZR5BGFQODD1R10J6WW8JFQLKC","A2PWUACCQI97J8","3KTZHH2ONI1ODAVRRMZTRL6IHCUM80","","null","<img src=""img/food4.png"" style=""width:200px;border:14px solid red;"">","null","","","","","","","","","",""
"","image-keyboard-response","125","72626","0.0-186.0","3MB8LZR5BGFQODD1R10J6WW8JFQLKC","A2PWUACCQI97J8","3KTZHH2ONI1ODAVRRMZTRL6IHCUM80","","111.40000000596046","img/food4.png","75","112.70000000298023","2","0","false","3","2","1,0.7,0,1,0.7,0,0.7,0,1","1,0.7,0,1,0.7,0,0.7,0,1","1",""
"","html-keyboard-response","126","72928","0.0-187.0","3MB8LZR5BGFQODD1R10J6WW8JFQLKC","A2PWUACCQI97J8","3KTZHH2ONI1ODAVRRMZTRL6IHCUM80","","null","<img src=""img/food4.png"" style=""width:200px;border:14px solid red;"">","null","","","","","","","","","",""
"","image-keyboard-response","127","72989","0.0-189.0","3MB8LZR5BGFQODD1R10J6WW8JFQLKC","A2PWUACCQI97J8","3KTZHH2ONI1ODAVRRMZTRL6IHCUM80","","59.099999994039536","img/food2.png","74","60.29999999701977","1","1","false","1","2","1,0.7,0,1,0.7,0,0.7,0,1","1,0.7,0,1,0.7,0,0.7,0,1","1",""
"","html-keyboard-response","128","73291","0.0-190.0","3MB8LZR5BGFQODD1R10J6WW8JFQLKC","A2PWUACCQI97J8","3KTZHH2ONI1ODAVRRMZTRL6IHCUM80","","null","<img src=""img/food2.png"" style=""width:200px; border:14px solid green;"">","null","","","","","","","","","",""
"","image-keyboard-response","129","73325","0.0-192.0","3MB8LZR5BGFQODD1R10J6WW8JFQLKC","A2PWUACCQI97J8","3KTZHH2ONI1ODAVRRMZTRL6IHCUM80","","32.29999999701977","img/food6.png","74","33.29999999701977","1","1","false","2","2","1,0.7,0,1,0.7,0,0.7,0,1","1,0.7,0,1,0.7,0,0.7,0,1","1",""
"","html-keyboard-response","130","73627","0.0-193.0","3MB8LZR5BGFQODD1R10J6WW8JFQLKC","A2PWUACCQI97J8","3KTZHH2ONI1ODAVRRMZTRL6IHCUM80","","null","<img src=""img/food6.png"" style=""width:200px; border:14px solid green;"">","null","","","","","","","","","",""
"","image-keyboard-response","131","73704","0.0-195.0","3MB8LZR5BGFQODD1R10J6WW8JFQLKC","A2PWUACCQI97J8","3KTZHH2ONI1ODAVRRMZTRL6IHCUM80","","75.70000000298023","img/food2.png","74","76.19999998807907","1","1","false","1","2","1,0.7,0,1,0.7,0,0.7,0,1","1,0.7,0,1,0.7,0,0.7,0,1","1",""
"","html-keyboard-response","132","74012","0.0-196.0","3MB8LZR5BGFQODD1R10J6WW8JFQLKC","A2PWUACCQI97J8","3KTZHH2ONI1ODAVRRMZTRL6IHCUM80","","null","<img src=""img/food2.png"" style=""width:200px; border:14px solid green;"">","null","","","","","","","","","",""
"","image-keyboard-response","133","74098","0.0-198.0","3MB8LZR5BGFQODD1R10J6WW8JFQLKC","A2PWUACCQI97J8","3KTZHH2ONI1ODAVRRMZTRL6IHCUM80","","84.5","img/food4.png","74","85.29999999701977","1","1","false","3","2","1,0.7,0,1,0.7,0,0.7,0,1","1,0.7,0,1,0.7,0,0.7,0,1","1",""
"","html-keyboard-response","134","74400","0.0-199.0","3MB8LZR5BGFQODD1R10J6WW8JFQLKC","A2PWUACCQI97J8","3KTZHH2ONI1ODAVRRMZTRL6IHCUM80","","null","<img src=""img/food4.png"" style=""width:200px; border:14px solid green;"">","null","","","","","","","","","",""
"","image-keyboard-response","135","74428","0.0-201.0","3MB8LZR5BGFQODD1R10J6WW8JFQLKC","A2PWUACCQI97J8","3KTZHH2ONI1ODAVRRMZTRL6IHCUM80","","25.69999998807907","img/food2.png","74","26.900000005960464","1","1","false","1","2","1,0.7,0,1,0.7,0,0.7,0,1","1,0.7,0,1,0.7,0,0.7,0,1","1",""
"","html-keyboard-response","136","74730","0.0-202.0","3MB8LZR5BGFQODD1R10J6WW8JFQLKC","A2PWUACCQI97J8","3KTZHH2ONI1ODAVRRMZTRL6IHCUM80","","null","<img src=""img/food2.png"" style=""width:200px; border:14px solid green;"">","null","","","","","","","","","",""
"","image-keyboard-response","137","74738","0.0-204.0","3MB8LZR5BGFQODD1R10J6WW8JFQLKC","A2PWUACCQI97J8","3KTZHH2ONI1ODAVRRMZTRL6IHCUM80","","7.0999999940395355","img/food4.png","74","7.799999997019768","1","0","false","3","2","1,0.7,0,1,0.7,0,0.7,0,1","1,0.7,0,1,0.7,0,0.7,0,1","1",""
"","html-keyboard-response","138","75040","0.0-205.0","3MB8LZR5BGFQODD1R10J6WW8JFQLKC","A2PWUACCQI97J8","3KTZHH2ONI1ODAVRRMZTRL6IHCUM80","","null","<img src=""img/food4.png"" style=""width:200px;border:14px solid red;"">","null","","","","","","","","","",""
"","image-keyboard-response","139","75043","0.0-207.0","3MB8LZR5BGFQODD1R10J6WW8JFQLKC","A2PWUACCQI97J8","3KTZHH2ONI1ODAVRRMZTRL6IHCUM80","","2.2000000029802322","img/food4.png","76","3","3","1","false","3","2","1,0.7,0,1,0.7,0,0.7,0,1","1,0.7,0,1,0.7,0,0.7,0,1","1",""
"","html-keyboard-response","140","75345","0.0-208.0","3MB8LZR5BGFQODD1R10J6WW8JFQLKC","A2PWUACCQI97J8","3KTZHH2ONI1ODAVRRMZTRL6IHCUM80","","null","<img src=""img/food4.png"" style=""width:200px; border:14px solid green;"">","null","","","","","","","","","",""
"","image-keyboard-response","141","75445","0.0-210.0","3MB8LZR5BGFQODD1R10J6WW8JFQLKC","A2PWUACCQI97J8","3KTZHH2ONI1ODAVRRMZTRL6IHCUM80","","98.5","img/food4.png","76","99.5","3","1","false","3","2","1,0.7,0,1,0.7,0,0.7,0,1","1,0.7,0,1,0.7,0,0.7,0,1","1",""
"","html-keyboard-response","142","75747","0.0-211.0","3MB8LZR5BGFQODD1R10J6WW8JFQLKC","A2PWUACCQI97J8","3KTZHH2ONI1ODAVRRMZTRL6IHCUM80","","null","<img src=""img/food4.png"" style=""width:200px; border:14px solid green;"">","null","","","","","","","","","",""
"","image-keyboard-response","143","75807","0.0-213.0","3MB8LZR5BGFQODD1R10J6WW8JFQLKC","A2PWUACCQI97J8","3KTZHH2ONI1ODAVRRMZTRL6IHCUM80","","59.5","img/food6.png","76","60.099999994039536","3","0","false","2","2","1,0.7,0,1,0.7,0,0.7,0,1","1,0.7,0,1,0.7,0,0.7,0,1","1",""
"","html-keyboard-response","144","76109","0.0-214.0","3MB8LZR5BGFQODD1R10J6WW8JFQLKC","A2PWUACCQI97J8","3KTZHH2ONI1ODAVRRMZTRL6IHCUM80","","null","<img src=""img/food6.png"" style=""width:200px;border:14px solid red;"">","null","","","","","","","","","",""
"","image-keyboard-response","145","76162","0.0-216.0","3MB8LZR5BGFQODD1R10J6WW8JFQLKC","A2PWUACCQI97J8","3KTZHH2ONI1ODAVRRMZTRL6IHCUM80","","51.3999999910593","img/food2.png","76","52","3","0","false","1","2","1,0.7,0,1,0.7,0,0.7,0,1","1,0.7,0,1,0.7,0,0.7,0,1","1",""
"","html-keyboard-response","146","76463","0.0-217.0","3MB8LZR5BGFQODD1R10J6WW8JFQLKC","A2PWUACCQI97J8","3KTZHH2ONI1ODAVRRMZTRL6IHCUM80","","null","<img src=""img/food2.png"" style=""width:200px;border:14px solid red;"">","null","","","","","","","","","",""
"","image-keyboard-response","147","76521","0.0-219.0","3MB8LZR5BGFQODD1R10J6WW8JFQLKC","A2PWUACCQI97J8","3KTZHH2ONI1ODAVRRMZTRL6IHCUM80","","56.20000000298023","img/food2.png","74","57.1000000089407","1","1","false","1","2","1,0.7,0,1,0.7,0,0.7,0,1","1,0.7,0,1,0.7,0,0.7,0,1","1",""
"","html-keyboard-response","148","76823","0.0-220.0","3MB8LZR5BGFQODD1R10J6WW8JFQLKC","A2PWUACCQI97J8","3KTZHH2ONI1ODAVRRMZTRL6IHCUM80","","null","<img src=""img/food2.png"" style=""width:200px; border:14px solid green;"">","null","","","","","","","","","",""
"","image-keyboard-response","149","77003","0.0-222.0","3MB8LZR5BGFQODD1R10J6WW8JFQLKC","A2PWUACCQI97J8","3KTZHH2ONI1ODAVRRMZTRL6IHCUM80","","179","img/food4.png","74","179.70000000298023","1","1","false","3","2","1,0.7,0,1,0.7,0,0.7,0,1","1,0.7,0,1,0.7,0,0.7,0,1","1",""
"","html-keyboard-response","150","77305","0.0-223.0","3MB8LZR5BGFQODD1R10J6WW8JFQLKC","A2PWUACCQI97J8","3KTZHH2ONI1ODAVRRMZTRL6IHCUM80","","null","<img src=""img/food4.png"" style=""width:200px; border:14px solid green;"">","null","","","","","","","","","",""
"","image-keyboard-response","151","77341","0.0-225.0","3MB8LZR5BGFQODD1R10J6WW8JFQLKC","A2PWUACCQI97J8","3KTZHH2ONI1ODAVRRMZTRL6IHCUM80","","34.599999994039536","img/food6.png","74","35.69999998807907","1","1","false","2","2","1,0.7,0,1,0.7,0,0.7,0,1","1,0.7,0,1,0.7,0,0.7,0,1","1",""
"","html-keyboard-response","152","77644","0.0-226.0","3MB8LZR5BGFQODD1R10J6WW8JFQLKC","A2PWUACCQI97J8","3KTZHH2ONI1ODAVRRMZTRL6IHCUM80","","null","<img src=""img/food6.png"" style=""width:200px; border:14px solid green;"">","null","","","","","","","","","",""
"","image-keyboard-response","153","77746","0.0-228.0","3MB8LZR5BGFQODD1R10J6WW8JFQLKC","A2PWUACCQI97J8","3KTZHH2ONI1ODAVRRMZTRL6IHCUM80","","100.70000000298023","img/food4.png","74","101.29999999701977","1","0","false","3","2","1,0.7,0,1,0.7,0,0.7,0,1","1,0.7,0,1,0.7,0,0.7,0,1","1",""
"","html-keyboard-response","154","78048","0.0-229.0","3MB8LZR5BGFQODD1R10J6WW8JFQLKC","A2PWUACCQI97J8","3KTZHH2ONI1ODAVRRMZTRL6IHCUM80","","null","<img src=""img/food4.png"" style=""width:200px;border:14px solid red;"">","null","","","","","","","","","",""
"","image-keyboard-response","155","78152","0.0-231.0","3MB8LZR5BGFQODD1R10J6WW8JFQLKC","A2PWUACCQI97J8","3KTZHH2ONI1ODAVRRMZTRL6IHCUM80","","102.40000000596046","img/food6.png","74","103.09999999403954","1","1","false","2","2","1,0.7,0,1,0.7,0,0.7,0,1","1,0.7,0,1,0.7,0,0.7,0,1","1",""
"","html-keyboard-response","156","78453","0.0-232.0","3MB8LZR5BGFQODD1R10J6WW8JFQLKC","A2PWUACCQI97J8","3KTZHH2ONI1ODAVRRMZTRL6IHCUM80","","null","<img src=""img/food6.png"" style=""width:200px; border:14px solid green;"">","null","","","","","","","","","",""
"","image-keyboard-response","157","78553","0.0-234.0","3MB8LZR5BGFQODD1R10J6WW8JFQLKC","A2PWUACCQI97J8","3KTZHH2ONI1ODAVRRMZTRL6IHCUM80","","97.70000000298023","img/food6.png","74","98.79999999701977","1","1","false","2","2","1,0.7,0,1,0.7,0,0.7,0,1","1,0.7,0,1,0.7,0,0.7,0,1","1",""
"","html-keyboard-response","158","78855","0.0-235.0","3MB8LZR5BGFQODD1R10J6WW8JFQLKC","A2PWUACCQI97J8","3KTZHH2ONI1ODAVRRMZTRL6IHCUM80","","null","<img src=""img/food6.png"" style=""width:200px; border:14px solid green;"">","null","","","","","","","","","",""
"","image-keyboard-response","159","78936","0.0-237.0","3MB8LZR5BGFQODD1R10J6WW8JFQLKC","A2PWUACCQI97J8","3KTZHH2ONI1ODAVRRMZTRL6IHCUM80","","80.1000000089407","img/food2.png","74","80.80000001192093","1","1","false","1","2","1,0.7,0,1,0.7,0,0.7,0,1","1,0.7,0,1,0.7,0,0.7,0,1","1",""
"","html-keyboard-response","160","79237","0.0-238.0","3MB8LZR5BGFQODD1R10J6WW8JFQLKC","A2PWUACCQI97J8","3KTZHH2ONI1ODAVRRMZTRL6IHCUM80","","null","<img src=""img/food2.png"" style=""width:200px; border:14px solid green;"">","null","","","","","","","","","",""
"","image-keyboard-response","161","79344","0.0-240.0","3MB8LZR5BGFQODD1R10J6WW8JFQLKC","A2PWUACCQI97J8","3KTZHH2ONI1ODAVRRMZTRL6IHCUM80","","105.79999999701977","img/food2.png","74","106.79999999701977","1","1","false","1","2","1,0.7,0,1,0.7,0,0.7,0,1","1,0.7,0,1,0.7,0,0.7,0,1","1",""
"","html-keyboard-response","162","79646","0.0-241.0","3MB8LZR5BGFQODD1R10J6WW8JFQLKC","A2PWUACCQI97J8","3KTZHH2ONI1ODAVRRMZTRL6IHCUM80","","null","<img src=""img/food2.png"" style=""width:200px; border:14px solid green;"">","null","","","","","","","","","",""
"","image-keyboard-response","163","79733","0.0-243.0","3MB8LZR5BGFQODD1R10J6WW8JFQLKC","A2PWUACCQI97J8","3KTZHH2ONI1ODAVRRMZTRL6IHCUM80","","85.59999999403954","img/food2.png","74","86.5","1","1","false","1","2","1,0.7,0,1,0.7,0,0.7,0,1","1,0.7,0,1,0.7,0,0.7,0,1","1",""
"","html-keyboard-response","164","80035","0.0-244.0","3MB8LZR5BGFQODD1R10J6WW8JFQLKC","A2PWUACCQI97J8","3KTZHH2ONI1ODAVRRMZTRL6IHCUM80","","null","<img src=""img/food2.png"" style=""width:200px; border:14px solid green;"">","null","","","","","","","","","",""
"","image-keyboard-response","165","80108","0.0-246.0","3MB8LZR5BGFQODD1R10J6WW8JFQLKC","A2PWUACCQI97J8","3KTZHH2ONI1ODAVRRMZTRL6IHCUM80","","70.90000000596046","img/food2.png","74","71.79999999701977","1","1","false","1","2","1,0.7,0,1,0.7,0,0.7,0,1","1,0.7,0,1,0.7,0,0.7,0,1","1",""
"","html-keyboard-response","166","80410","0.0-247.0","3MB8LZR5BGFQODD1R10J6WW8JFQLKC","A2PWUACCQI97J8","3KTZHH2ONI1ODAVRRMZTRL6IHCUM80","","null","<img src=""img/food2.png"" style=""width:200px; border:14px solid green;"">","null","","","","","","","","","",""
"","image-keyboard-response","167","80479","0.0-249.0","3MB8LZR5BGFQODD1R10J6WW8JFQLKC","A2PWUACCQI97J8","3KTZHH2ONI1ODAVRRMZTRL6IHCUM80","","65.90000000596046","img/food4.png","74","67.69999998807907","1","1","false","3","2","1,0.7,0,1,0.7,0,0.7,0,1","1,0.7,0,1,0.7,0,0.7,0,1","1",""
"","html-keyboard-response","168","80782","0.0-250.0","3MB8LZR5BGFQODD1R10J6WW8JFQLKC","A2PWUACCQI97J8","3KTZHH2ONI1ODAVRRMZTRL6IHCUM80","","null","<img src=""img/food4.png"" style=""width:200px; border:14px solid green;"">","null","","","","","","","","","",""
"","image-keyboard-response","169","80855","0.0-252.0","3MB8LZR5BGFQODD1R10J6WW8JFQLKC","A2PWUACCQI97J8","3KTZHH2ONI1ODAVRRMZTRL6IHCUM80","","72.5","img/food4.png","74","73.5","1","0","false","3","2","1,0.7,0,1,0.7,0,0.7,0,1","1,0.7,0,1,0.7,0,0.7,0,1","1",""
"","html-keyboard-response","170","81159","0.0-253.0","3MB8LZR5BGFQODD1R10J6WW8JFQLKC","A2PWUACCQI97J8","3KTZHH2ONI1ODAVRRMZTRL6IHCUM80","","null","<img src=""img/food4.png"" style=""width:200px;border:14px solid red;"">","null","","","","","","","","","",""
"","image-keyboard-response","171","81217","0.0-255.0","3MB8LZR5BGFQODD1R10J6WW8JFQLKC","A2PWUACCQI97J8","3KTZHH2ONI1ODAVRRMZTRL6IHCUM80","","56.6000000089407","img/food4.png","74","57.5","1","1","false","3","2","1,0.7,0,1,0.7,0,0.7,0,1","1,0.7,0,1,0.7,0,0.7,0,1","1",""
"","html-keyboard-response","172","81518","0.0-256.0","3MB8LZR5BGFQODD1R10J6WW8JFQLKC","A2PWUACCQI97J8","3KTZHH2ONI1ODAVRRMZTRL6IHCUM80","","null","<img src=""img/food4.png"" style=""width:200px; border:14px solid green;"">","null","","","","","","","","","",""
"","image-keyboard-response","173","81573","0.0-258.0","3MB8LZR5BGFQODD1R10J6WW8JFQLKC","A2PWUACCQI97J8","3KTZHH2ONI1ODAVRRMZTRL6IHCUM80","","54.6000000089407","img/food2.png","74","55.20000000298023","1","1","false","1","2","1,0.7,0,1,0.7,0,0.7,0,1","1,0.7,0,1,0.7,0,0.7,0,1","1",""
"","html-keyboard-response","174","81874","0.0-259.0","3MB8LZR5BGFQODD1R10J6WW8JFQLKC","A2PWUACCQI97J8","3KTZHH2ONI1ODAVRRMZTRL6IHCUM80","","null","<img src=""img/food2.png"" style=""width:200px; border:14px solid green;"">","null","","","","","","","","","",""
"","image-keyboard-response","175","81925","0.0-261.0","3MB8LZR5BGFQODD1R10J6WW8JFQLKC","A2PWUACCQI97J8","3KTZHH2ONI1ODAVRRMZTRL6IHCUM80","","49.8999999910593","img/food2.png","74","50.6000000089407","1","1","false","1","2","1,0.7,0,1,0.7,0,0.7,0,1","1,0.7,0,1,0.7,0,0.7,0,1","1",""
"","html-keyboard-response","176","82227","0.0-262.0","3MB8LZR5BGFQODD1R10J6WW8JFQLKC","A2PWUACCQI97J8","3KTZHH2ONI1ODAVRRMZTRL6IHCUM80","","null","<img src=""img/food2.png"" style=""width:200px; border:14px solid green;"">","null","","","","","","","","","",""
"","image-keyboard-response","177","82264","0.0-264.0","3MB8LZR5BGFQODD1R10J6WW8JFQLKC","A2PWUACCQI97J8","3KTZHH2ONI1ODAVRRMZTRL6IHCUM80","","35.70000000298023","img/food6.png","74","36.70000000298023","1","1","false","2","2","1,0.7,0,1,0.7,0,0.7,0,1","1,0.7,0,1,0.7,0,0.7,0,1","1",""
"","html-keyboard-response","178","82566","0.0-265.0","3MB8LZR5BGFQODD1R10J6WW8JFQLKC","A2PWUACCQI97J8","3KTZHH2ONI1ODAVRRMZTRL6IHCUM80","","null","<img src=""img/food6.png"" style=""width:200px; border:14px solid green;"">","null","","","","","","","","","",""
"","image-keyboard-response","179","82620","0.0-267.0","3MB8LZR5BGFQODD1R10J6WW8JFQLKC","A2PWUACCQI97J8","3KTZHH2ONI1ODAVRRMZTRL6IHCUM80","","52","img/food2.png","74","53.20000000298023","1","1","false","1","2","1,0.7,0,1,0.7,0,0.7,0,1","1,0.7,0,1,0.7,0,0.7,0,1","1",""
"","html-keyboard-response","180","82923","0.0-268.0","3MB8LZR5BGFQODD1R10J6WW8JFQLKC","A2PWUACCQI97J8","3KTZHH2ONI1ODAVRRMZTRL6IHCUM80","","null","<img src=""img/food2.png"" style=""width:200px; border:14px solid green;"">","null","","","","","","","","","",""
"","image-keyboard-response","181","83013","0.0-270.0","3MB8LZR5BGFQODD1R10J6WW8JFQLKC","A2PWUACCQI97J8","3KTZHH2ONI1ODAVRRMZTRL6IHCUM80","","88.20000000298023","img/food2.png","74","89.40000000596046","1","1","false","1","2","1,0.7,0,1,0.7,0,0.7,0,1","1,0.7,0,1,0.7,0,0.7,0,1","1",""
"","html-keyboard-response","182","83316","0.0-271.0","3MB8LZR5BGFQODD1R10J6WW8JFQLKC","A2PWUACCQI97J8","3KTZHH2ONI1ODAVRRMZTRL6IHCUM80","","null","<img src=""img/food2.png"" style=""width:200px; border:14px solid green;"">","null","","","","","","","","","",""
"","instructions","183","90267","0.0-273.0","3MB8LZR5BGFQODD1R10J6WW8JFQLKC","A2PWUACCQI97J8","3KTZHH2ONI1ODAVRRMZTRL6IHCUM80","[{""page_index"":0,""viewing_time"":5232.5999999940395},{""page_index"":1,""viewing_time"":1718}]","6950.9000000059605","","","","","","","","","","","",""
"","image-keyboard-response","184","90819","0.0-274.0","3MB8LZR5BGFQODD1R10J6WW8JFQLKC","A2PWUACCQI97J8","3KTZHH2ONI1ODAVRRMZTRL6IHCUM80","","550.4000000059605","img/food3.png","74","551.2999999970198","1","1","","1","1","1,0.7,0,1,0.7,0,0.7,0,1","0.7,0,1,0.7,0,1,0,1,0.7","2",""
"","html-keyboard-response","185","91121","0.0-275.0","3MB8LZR5BGFQODD1R10J6WW8JFQLKC","A2PWUACCQI97J8","3KTZHH2ONI1ODAVRRMZTRL6IHCUM80","","null","<img src=""img/food3.png"" style=""width:200px; border:14px solid green;"">","null","","","","","","","","","",""
"","image-keyboard-response","186","91402","0.0-276.0","3MB8LZR5BGFQODD1R10J6WW8JFQLKC","A2PWUACCQI97J8","3KTZHH2ONI1ODAVRRMZTRL6IHCUM80","","279.40000000596046","img/food3.png","74","280.5","1","1","","1","1","1,0.7,0,1,0.7,0,0.7,0,1","0.7,0,1,0.7,0,1,0,1,0.7","2",""
"","html-keyboard-response","187","91704","0.0-277.0","3MB8LZR5BGFQODD1R10J6WW8JFQLKC","A2PWUACCQI97J8","3KTZHH2ONI1ODAVRRMZTRL6IHCUM80","","null","<img src=""img/food3.png"" style=""width:200px; border:14px solid green;"">","null","","","","","","","","","",""
"","image-keyboard-response","188","92001","0.0-278.0","3MB8LZR5BGFQODD1R10J6WW8JFQLKC","A2PWUACCQI97J8","3KTZHH2ONI1ODAVRRMZTRL6IHCUM80","","296","img/food3.png","74","297.20000000298023","1","1","","1","1","1,0.7,0,1,0.7,0,0.7,0,1","0.7,0,1,0.7,0,1,0,1,0.7","2",""
"","html-keyboard-response","189","92304","0.0-279.0","3MB8LZR5BGFQODD1R10J6WW8JFQLKC","A2PWUACCQI97J8","3KTZHH2ONI1ODAVRRMZTRL6IHCUM80","","null","<img src=""img/food3.png"" style=""width:200px; border:14px solid green;"">","null","","","","","","","","","",""
"","image-keyboard-response","190","92628","0.0-280.0","3MB8LZR5BGFQODD1R10J6WW8JFQLKC","A2PWUACCQI97J8","3KTZHH2ONI1ODAVRRMZTRL6IHCUM80","","322.5","img/food1.png","74","323.5","1","0","","3","1","1,0.7,0,1,0.7,0,0.7,0,1","0.7,0,1,0.7,0,1,0,1,0.7","2",""
"","html-keyboard-response","191","92931","0.0-281.0","3MB8LZR5BGFQODD1R10J6WW8JFQLKC","A2PWUACCQI97J8","3KTZHH2ONI1ODAVRRMZTRL6IHCUM80","","null","<img src=""img/food1.png"" style=""width:200px;border:14px solid red;"">","null","","","","","","","","","",""
"","image-keyboard-response","192","93248","0.0-282.0","3MB8LZR5BGFQODD1R10J6WW8JFQLKC","A2PWUACCQI97J8","3KTZHH2ONI1ODAVRRMZTRL6IHCUM80","","316.5","img/food5.png","74","317.29999999701977","1","0","","2","1","1,0.7,0,1,0.7,0,0.7,0,1","0.7,0,1,0.7,0,1,0,1,0.7","2",""
"","html-keyboard-response","193","93551","0.0-283.0","3MB8LZR5BGFQODD1R10J6WW8JFQLKC","A2PWUACCQI97J8","3KTZHH2ONI1ODAVRRMZTRL6IHCUM80","","null","<img src=""img/food5.png"" style=""width:200px;border:14px solid red;"">","null","","","","","","","","","",""
"","image-keyboard-response","194","93867","0.0-284.0","3MB8LZR5BGFQODD1R10J6WW8JFQLKC","A2PWUACCQI97J8","3KTZHH2ONI1ODAVRRMZTRL6IHCUM80","","315.09999999403954","img/food1.png","74","316.09999999403954","1","0","","3","1","1,0.7,0,1,0.7,0,0.7,0,1","0.7,0,1,0.7,0,1,0,1,0.7","2",""
"","html-keyboard-response","195","94169","0.0-285.0","3MB8LZR5BGFQODD1R10J6WW8JFQLKC","A2PWUACCQI97J8","3KTZHH2ONI1ODAVRRMZTRL6IHCUM80","","null","<img src=""img/food1.png"" style=""width:200px;border:14px solid red;"">","null","","","","","","","","","",""
"","image-keyboard-response","196","94520","0.0-286.0","3MB8LZR5BGFQODD1R10J6WW8JFQLKC","A2PWUACCQI97J8","3KTZHH2ONI1ODAVRRMZTRL6IHCUM80","","350.79999999701977","img/food5.png","75","351.3999999910593","2","0","","2","1","1,0.7,0,1,0.7,0,0.7,0,1","0.7,0,1,0.7,0,1,0,1,0.7","2",""
"","html-keyboard-response","197","94823","0.0-287.0","3MB8LZR5BGFQODD1R10J6WW8JFQLKC","A2PWUACCQI97J8","3KTZHH2ONI1ODAVRRMZTRL6IHCUM80","","null","<img src=""img/food5.png"" style=""width:200px;border:14px solid red;"">","null","","","","","","","","","",""
"","image-keyboard-response","198","95092","0.0-288.0","3MB8LZR5BGFQODD1R10J6WW8JFQLKC","A2PWUACCQI97J8","3KTZHH2ONI1ODAVRRMZTRL6IHCUM80","","268.29999999701977","img/food1.png","75","269.29999999701977","2","1","","3","1","1,0.7,0,1,0.7,0,0.7,0,1","0.7,0,1,0.7,0,1,0,1,0.7","2",""
"","html-keyboard-response","199","95395","0.0-289.0","3MB8LZR5BGFQODD1R10J6WW8JFQLKC","A2PWUACCQI97J8","3KTZHH2ONI1ODAVRRMZTRL6IHCUM80","","null","<img src=""img/food1.png"" style=""width:200px; border:14px solid green;"">","null","","","","","","","","","",""
"","image-keyboard-response","200","95840","0.0-290.0","3MB8LZR5BGFQODD1R10J6WW8JFQLKC","A2PWUACCQI97J8","3KTZHH2ONI1ODAVRRMZTRL6IHCUM80","","444.70000000298023","img/food3.png","74","445.29999999701977","1","1","","1","1","1,0.7,0,1,0.7,0,0.7,0,1","0.7,0,1,0.7,0,1,0,1,0.7","2",""
"","html-keyboard-response","201","96142","0.0-291.0","3MB8LZR5BGFQODD1R10J6WW8JFQLKC","A2PWUACCQI97J8","3KTZHH2ONI1ODAVRRMZTRL6IHCUM80","","null","<img src=""img/food3.png"" style=""width:200px; border:14px solid green;"">","null","","","","","","","","","",""
"","image-keyboard-response","202","96473","0.0-292.0","3MB8LZR5BGFQODD1R10J6WW8JFQLKC","A2PWUACCQI97J8","3KTZHH2ONI1ODAVRRMZTRL6IHCUM80","","330.09999999403954","img/food3.png","74","330.70000000298023","1","1","","1","1","1,0.7,0,1,0.7,0,0.7,0,1","0.7,0,1,0.7,0,1,0,1,0.7","2",""
"","html-keyboard-response","203","96776","0.0-293.0","3MB8LZR5BGFQODD1R10J6WW8JFQLKC","A2PWUACCQI97J8","3KTZHH2ONI1ODAVRRMZTRL6IHCUM80","","null","<img src=""img/food3.png"" style=""width:200px; border:14px solid green;"">","null","","","","","","","","","",""
"","image-keyboard-response","204","97193","0.0-294.0","3MB8LZR5BGFQODD1R10J6WW8JFQLKC","A2PWUACCQI97J8","3KTZHH2ONI1ODAVRRMZTRL6IHCUM80","","415.70000000298023","img/food1.png","75","416.69999998807907","2","1","","3","1","1,0.7,0,1,0.7,0,0.7,0,1","0.7,0,1,0.7,0,1,0,1,0.7","2",""
"","html-keyboard-response","205","97500","0.0-295.0","3MB8LZR5BGFQODD1R10J6WW8JFQLKC","A2PWUACCQI97J8","3KTZHH2ONI1ODAVRRMZTRL6IHCUM80","","null","<img src=""img/food1.png"" style=""width:200px; border:14px solid green;"">","null","","","","","","","","","",""
"","image-keyboard-response","206","97726","0.0-296.0","3MB8LZR5BGFQODD1R10J6WW8JFQLKC","A2PWUACCQI97J8","3KTZHH2ONI1ODAVRRMZTRL6IHCUM80","","225.40000000596046","img/food3.png","75","226.40000000596046","2","0","","1","1","1,0.7,0,1,0.7,0,0.7,0,1","0.7,0,1,0.7,0,1,0,1,0.7","2",""
"","html-keyboard-response","207","98028","0.0-297.0","3MB8LZR5BGFQODD1R10J6WW8JFQLKC","A2PWUACCQI97J8","3KTZHH2ONI1ODAVRRMZTRL6IHCUM80","","null","<img src=""img/food3.png"" style=""width:200px;border:14px solid red;"">","null","","","","","","","","","",""
"","image-keyboard-response","208","98467","0.0-298.0","3MB8LZR5BGFQODD1R10J6WW8JFQLKC","A2PWUACCQI97J8","3KTZHH2ONI1ODAVRRMZTRL6IHCUM80","","437.79999999701977","img/food3.png","75","438.40000000596046","2","0","","1","1","1,0.7,0,1,0.7,0,0.7,0,1","0.7,0,1,0.7,0,1,0,1,0.7","2",""
"","html-keyboard-response","209","98768","0.0-299.0","3MB8LZR5BGFQODD1R10J6WW8JFQLKC","A2PWUACCQI97J8","3KTZHH2ONI1ODAVRRMZTRL6IHCUM80","","null","<img src=""img/food3.png"" style=""width:200px;border:14px solid red;"">","null","","","","","","","","","",""
"","image-keyboard-response","210","99041","0.0-300.0","3MB8LZR5BGFQODD1R10J6WW8JFQLKC","A2PWUACCQI97J8","3KTZHH2ONI1ODAVRRMZTRL6IHCUM80","","271.70000000298023","img/food3.png","76","272.40000000596046","3","1","","1","1","1,0.7,0,1,0.7,0,0.7,0,1","0.7,0,1,0.7,0,1,0,1,0.7","2",""
"","html-keyboard-response","211","99343","0.0-301.0","3MB8LZR5BGFQODD1R10J6WW8JFQLKC","A2PWUACCQI97J8","3KTZHH2ONI1ODAVRRMZTRL6IHCUM80","","null","<img src=""img/food3.png"" style=""width:200px; border:14px solid green;"">","null","","","","","","","","","",""
"","image-keyboard-response","212","99555","0.0-302.0","3MB8LZR5BGFQODD1R10J6WW8JFQLKC","A2PWUACCQI97J8","3KTZHH2ONI1ODAVRRMZTRL6IHCUM80","","211.80000001192093","img/food5.png","76","212.3999999910593","3","1","","2","1","1,0.7,0,1,0.7,0,0.7,0,1","0.7,0,1,0.7,0,1,0,1,0.7","2",""
"","html-keyboard-response","213","99867","0.0-303.0","3MB8LZR5BGFQODD1R10J6WW8JFQLKC","A2PWUACCQI97J8","3KTZHH2ONI1ODAVRRMZTRL6IHCUM80","","null","<img src=""img/food5.png"" style=""width:200px; border:14px solid green;"">","null","","","","","","","","","",""
"","image-keyboard-response","214","100074","0.0-304.0","3MB8LZR5BGFQODD1R10J6WW8JFQLKC","A2PWUACCQI97J8","3KTZHH2ONI1ODAVRRMZTRL6IHCUM80","","206.79999999701977","img/food3.png","76","207.40000000596046","3","1","","1","1","1,0.7,0,1,0.7,0,0.7,0,1","0.7,0,1,0.7,0,1,0,1,0.7","2",""
"","html-keyboard-response","215","100377","0.0-305.0","3MB8LZR5BGFQODD1R10J6WW8JFQLKC","A2PWUACCQI97J8","3KTZHH2ONI1ODAVRRMZTRL6IHCUM80","","null","<img src=""img/food3.png"" style=""width:200px; border:14px solid green;"">","null","","","","","","","","","",""
"","image-keyboard-response","216","100587","0.0-306.0","3MB8LZR5BGFQODD1R10J6WW8JFQLKC","A2PWUACCQI97J8","3KTZHH2ONI1ODAVRRMZTRL6IHCUM80","","209.5","img/food5.png","76","210.1000000089407","3","1","","2","1","1,0.7,0,1,0.7,0,0.7,0,1","0.7,0,1,0.7,0,1,0,1,0.7","2",""
"","html-keyboard-response","217","100889","0.0-307.0","3MB8LZR5BGFQODD1R10J6WW8JFQLKC","A2PWUACCQI97J8","3KTZHH2ONI1ODAVRRMZTRL6IHCUM80","","null","<img src=""img/food5.png"" style=""width:200px; border:14px solid green;"">","null","","","","","","","","","",""
"","image-keyboard-response","218","101061","0.0-308.0","3MB8LZR5BGFQODD1R10J6WW8JFQLKC","A2PWUACCQI97J8","3KTZHH2ONI1ODAVRRMZTRL6IHCUM80","","170.6000000089407","img/food5.png","76","171.79999999701977","3","1","","2","1","1,0.7,0,1,0.7,0,0.7,0,1","0.7,0,1,0.7,0,1,0,1,0.7","2",""
"","html-keyboard-response","219","101364","0.0-309.0","3MB8LZR5BGFQODD1R10J6WW8JFQLKC","A2PWUACCQI97J8","3KTZHH2ONI1ODAVRRMZTRL6IHCUM80","","null","<img src=""img/food5.png"" style=""width:200px; border:14px solid green;"">","null","","","","","","","","","",""
"","image-keyboard-response","220","101575","0.0-310.0","3MB8LZR5BGFQODD1R10J6WW8JFQLKC","A2PWUACCQI97J8","3KTZHH2ONI1ODAVRRMZTRL6IHCUM80","","211.20000000298023","img/food3.png","76","211.70000000298023","3","1","","1","1","1,0.7,0,1,0.7,0,0.7,0,1","0.7,0,1,0.7,0,1,0,1,0.7","2",""
"","html-keyboard-response","221","101877","0.0-311.0","3MB8LZR5BGFQODD1R10J6WW8JFQLKC","A2PWUACCQI97J8","3KTZHH2ONI1ODAVRRMZTRL6IHCUM80","","null","<img src=""img/food3.png"" style=""width:200px; border:14px solid green;"">","null","","","","","","","","","",""
"","image-keyboard-response","222","102035","0.0-312.0","3MB8LZR5BGFQODD1R10J6WW8JFQLKC","A2PWUACCQI97J8","3KTZHH2ONI1ODAVRRMZTRL6IHCUM80","","157.8999999910593","img/food5.png","76","158.59999999403954","3","1","","2","1","1,0.7,0,1,0.7,0,0.7,0,1","0.7,0,1,0.7,0,1,0,1,0.7","2",""
"","html-keyboard-response","223","102337","0.0-313.0","3MB8LZR5BGFQODD1R10J6WW8JFQLKC","A2PWUACCQI97J8","3KTZHH2ONI1ODAVRRMZTRL6IHCUM80","","null","<img src=""img/food5.png"" style=""width:200px; border:14px solid green;"">","null","","","","","","","","","",""
"","image-keyboard-response","224","102461","0.0-314.0","3MB8LZR5BGFQODD1R10J6WW8JFQLKC","A2PWUACCQI97J8","3KTZHH2ONI1ODAVRRMZTRL6IHCUM80","","122.20000000298023","img/food3.png","76","123.59999999403954","3","1","","1","1","1,0.7,0,1,0.7,0,0.7,0,1","0.7,0,1,0.7,0,1,0,1,0.7","2",""
"","html-keyboard-response","225","102763","0.0-315.0","3MB8LZR5BGFQODD1R10J6WW8JFQLKC","A2PWUACCQI97J8","3KTZHH2ONI1ODAVRRMZTRL6IHCUM80","","null","<img src=""img/food3.png"" style=""width:200px; border:14px solid green;"">","null","","","","","","","","","",""
"","image-keyboard-response","226","102801","0.0-316.0","3MB8LZR5BGFQODD1R10J6WW8JFQLKC","A2PWUACCQI97J8","3KTZHH2ONI1ODAVRRMZTRL6IHCUM80","","36.5","img/food3.png","76","37.5","3","1","","1","1","1,0.7,0,1,0.7,0,0.7,0,1","0.7,0,1,0.7,0,1,0,1,0.7","2",""
"","html-keyboard-response","227","103103","0.0-317.0","3MB8LZR5BGFQODD1R10J6WW8JFQLKC","A2PWUACCQI97J8","3KTZHH2ONI1ODAVRRMZTRL6IHCUM80","","null","<img src=""img/food3.png"" style=""width:200px; border:14px solid green;"">","null","","","","","","","","","",""
"","image-keyboard-response","228","103185","0.0-318.0","3MB8LZR5BGFQODD1R10J6WW8JFQLKC","A2PWUACCQI97J8","3KTZHH2ONI1ODAVRRMZTRL6IHCUM80","","80.40000000596046","img/food1.png","76","81.29999999701977","3","1","","3","1","1,0.7,0,1,0.7,0,0.7,0,1","0.7,0,1,0.7,0,1,0,1,0.7","2",""
"","html-keyboard-response","229","103486","0.0-319.0","3MB8LZR5BGFQODD1R10J6WW8JFQLKC","A2PWUACCQI97J8","3KTZHH2ONI1ODAVRRMZTRL6IHCUM80","","null","<img src=""img/food1.png"" style=""width:200px; border:14px solid green;"">","null","","","","","","","","","",""
"","image-keyboard-response","230","103606","0.0-320.0","3MB8LZR5BGFQODD1R10J6WW8JFQLKC","A2PWUACCQI97J8","3KTZHH2ONI1ODAVRRMZTRL6IHCUM80","","119.29999999701977","img/food5.png","76","119.90000000596046","3","1","","2","1","1,0.7,0,1,0.7,0,0.7,0,1","0.7,0,1,0.7,0,1,0,1,0.7","2",""
"","html-keyboard-response","231","103908","0.0-321.0","3MB8LZR5BGFQODD1R10J6WW8JFQLKC","A2PWUACCQI97J8","3KTZHH2ONI1ODAVRRMZTRL6IHCUM80","","null","<img src=""img/food5.png"" style=""width:200px; border:14px solid green;"">","null","","","","","","","","","",""
"","image-keyboard-response","232","104001","0.0-322.0","3MB8LZR5BGFQODD1R10J6WW8JFQLKC","A2PWUACCQI97J8","3KTZHH2ONI1ODAVRRMZTRL6IHCUM80","","91.30000001192093","img/food3.png","76","92","3","1","","1","1","1,0.7,0,1,0.7,0,0.7,0,1","0.7,0,1,0.7,0,1,0,1,0.7","2",""
"","html-keyboard-response","233","104303","0.0-323.0","3MB8LZR5BGFQODD1R10J6WW8JFQLKC","A2PWUACCQI97J8","3KTZHH2ONI1ODAVRRMZTRL6IHCUM80","","null","<img src=""img/food3.png"" style=""width:200px; border:14px solid green;"">","null","","","","","","","","","",""
"","image-keyboard-response","234","104341","0.0-324.0","3MB8LZR5BGFQODD1R10J6WW8JFQLKC","A2PWUACCQI97J8","3KTZHH2ONI1ODAVRRMZTRL6IHCUM80","","36.69999998807907","img/food1.png","76","37.900000005960464","3","1","","3","1","1,0.7,0,1,0.7,0,0.7,0,1","0.7,0,1,0.7,0,1,0,1,0.7","2",""
"","html-keyboard-response","235","104643","0.0-325.0","3MB8LZR5BGFQODD1R10J6WW8JFQLKC","A2PWUACCQI97J8","3KTZHH2ONI1ODAVRRMZTRL6IHCUM80","","null","<img src=""img/food1.png"" style=""width:200px; border:14px solid green;"">","null","","","","","","","","","",""
"","image-keyboard-response","236","104764","0.0-326.0","3MB8LZR5BGFQODD1R10J6WW8JFQLKC","A2PWUACCQI97J8","3KTZHH2ONI1ODAVRRMZTRL6IHCUM80","","119.79999999701977","img/food5.png","76","120.59999999403954","3","1","","2","1","1,0.7,0,1,0.7,0,0.7,0,1","0.7,0,1,0.7,0,1,0,1,0.7","2",""
"","html-keyboard-response","237","105066","0.0-327.0","3MB8LZR5BGFQODD1R10J6WW8JFQLKC","A2PWUACCQI97J8","3KTZHH2ONI1ODAVRRMZTRL6IHCUM80","","null","<img src=""img/food5.png"" style=""width:200px; border:14px solid green;"">","null","","","","","","","","","",""
"","image-keyboard-response","238","105110","0.0-328.0","3MB8LZR5BGFQODD1R10J6WW8JFQLKC","A2PWUACCQI97J8","3KTZHH2ONI1ODAVRRMZTRL6IHCUM80","","43.70000000298023","img/food5.png","76","44.20000000298023","3","1","","2","1","1,0.7,0,1,0.7,0,0.7,0,1","0.7,0,1,0.7,0,1,0,1,0.7","2",""
"","html-keyboard-response","239","105412","0.0-329.0","3MB8LZR5BGFQODD1R10J6WW8JFQLKC","A2PWUACCQI97J8","3KTZHH2ONI1ODAVRRMZTRL6IHCUM80","","null","<img src=""img/food5.png"" style=""width:200px; border:14px solid green;"">","null","","","","","","","","","",""
"","image-keyboard-response","240","105455","0.0-330.0","3MB8LZR5BGFQODD1R10J6WW8JFQLKC","A2PWUACCQI97J8","3KTZHH2ONI1ODAVRRMZTRL6IHCUM80","","41.3999999910593","img/food5.png","76","42.79999999701977","3","1","","2","1","1,0.7,0,1,0.7,0,0.7,0,1","0.7,0,1,0.7,0,1,0,1,0.7","2",""
"","html-keyboard-response","241","105758","0.0-331.0","3MB8LZR5BGFQODD1R10J6WW8JFQLKC","A2PWUACCQI97J8","3KTZHH2ONI1ODAVRRMZTRL6IHCUM80","","null","<img src=""img/food5.png"" style=""width:200px; border:14px solid green;"">","null","","","","","","","","","",""
"","image-keyboard-response","242","106220","0.0-332.0","3MB8LZR5BGFQODD1R10J6WW8JFQLKC","A2PWUACCQI97J8","3KTZHH2ONI1ODAVRRMZTRL6IHCUM80","","461.70000000298023","img/food5.png","76","462.29999999701977","3","1","","2","1","1,0.7,0,1,0.7,0,0.7,0,1","0.7,0,1,0.7,0,1,0,1,0.7","2",""
"","html-keyboard-response","243","106523","0.0-333.0","3MB8LZR5BGFQODD1R10J6WW8JFQLKC","A2PWUACCQI97J8","3KTZHH2ONI1ODAVRRMZTRL6IHCUM80","","null","<img src=""img/food5.png"" style=""width:200px; border:14px solid green;"">","null","","","","","","","","","",""
"","image-keyboard-response","244","106554","0.0-334.0","3MB8LZR5BGFQODD1R10J6WW8JFQLKC","A2PWUACCQI97J8","3KTZHH2ONI1ODAVRRMZTRL6IHCUM80","","30.299999997019768","img/food3.png","76","31","3","1","","1","1","1,0.7,0,1,0.7,0,0.7,0,1","0.7,0,1,0.7,0,1,0,1,0.7","2",""
"","html-keyboard-response","245","106856","0.0-335.0","3MB8LZR5BGFQODD1R10J6WW8JFQLKC","A2PWUACCQI97J8","3KTZHH2ONI1ODAVRRMZTRL6IHCUM80","","null","<img src=""img/food3.png"" style=""width:200px; border:14px solid green;"">","null","","","","","","","","","",""
"","image-keyboard-response","246","107170","0.0-336.0","3MB8LZR5BGFQODD1R10J6WW8JFQLKC","A2PWUACCQI97J8","3KTZHH2ONI1ODAVRRMZTRL6IHCUM80","","313.59999999403954","img/food1.png","76","314.30000001192093","3","0","","3","1","1,0.7,0,1,0.7,0,0.7,0,1","0.7,0,1,0.7,0,1,0,1,0.7","2",""
"","html-keyboard-response","247","107472","0.0-337.0","3MB8LZR5BGFQODD1R10J6WW8JFQLKC","A2PWUACCQI97J8","3KTZHH2ONI1ODAVRRMZTRL6IHCUM80","","null","<img src=""img/food1.png"" style=""width:200px;border:14px solid red;"">","null","","","","","","","","","",""
"","image-keyboard-response","248","107519","0.0-338.0","3MB8LZR5BGFQODD1R10J6WW8JFQLKC","A2PWUACCQI97J8","3KTZHH2ONI1ODAVRRMZTRL6IHCUM80","","45.79999999701977","img/food1.png","76","47","3","0","","3","1","1,0.7,0,1,0.7,0,0.7,0,1","0.7,0,1,0.7,0,1,0,1,0.7","2",""
"","html-keyboard-response","249","107821","0.0-339.0","3MB8LZR5BGFQODD1R10J6WW8JFQLKC","A2PWUACCQI97J8","3KTZHH2ONI1ODAVRRMZTRL6IHCUM80","","null","<img src=""img/food1.png"" style=""width:200px;border:14px solid red;"">","null","","","","","","","","","",""
"","image-keyboard-response","250","108099","0.0-340.0","3MB8LZR5BGFQODD1R10J6WW8JFQLKC","A2PWUACCQI97J8","3KTZHH2ONI1ODAVRRMZTRL6IHCUM80","","277","img/food1.png","76","277.79999999701977","3","0","","3","1","1,0.7,0,1,0.7,0,0.7,0,1","0.7,0,1,0.7,0,1,0,1,0.7","2",""
"","html-keyboard-response","251","108401","0.0-341.0","3MB8LZR5BGFQODD1R10J6WW8JFQLKC","A2PWUACCQI97J8","3KTZHH2ONI1ODAVRRMZTRL6IHCUM80","","null","<img src=""img/food1.png"" style=""width:200px;border:14px solid red;"">","null","","","","","","","","","",""
"","image-keyboard-response","252","108561","0.0-342.0","3MB8LZR5BGFQODD1R10J6WW8JFQLKC","A2PWUACCQI97J8","3KTZHH2ONI1ODAVRRMZTRL6IHCUM80","","158.29999999701977","img/food1.png","75","159.5","2","1","","3","1","1,0.7,0,1,0.7,0,0.7,0,1","0.7,0,1,0.7,0,1,0,1,0.7","2",""
"","html-keyboard-response","253","108863","0.0-343.0","3MB8LZR5BGFQODD1R10J6WW8JFQLKC","A2PWUACCQI97J8","3KTZHH2ONI1ODAVRRMZTRL6IHCUM80","","null","<img src=""img/food1.png"" style=""width:200px; border:14px solid green;"">","null","","","","","","","","","",""
"","image-keyboard-response","254","109055","0.0-344.0","3MB8LZR5BGFQODD1R10J6WW8JFQLKC","A2PWUACCQI97J8","3KTZHH2ONI1ODAVRRMZTRL6IHCUM80","","190.79999999701977","img/food1.png","75","191.30000001192093","2","1","","3","1","1,0.7,0,1,0.7,0,0.7,0,1","0.7,0,1,0.7,0,1,0,1,0.7","2",""
"","html-keyboard-response","255","109357","0.0-345.0","3MB8LZR5BGFQODD1R10J6WW8JFQLKC","A2PWUACCQI97J8","3KTZHH2ONI1ODAVRRMZTRL6IHCUM80","","null","<img src=""img/food1.png"" style=""width:200px; border:14px solid green;"">","null","","","","","","","","","",""
"","image-keyboard-response","256","109514","0.0-346.0","3MB8LZR5BGFQODD1R10J6WW8JFQLKC","A2PWUACCQI97J8","3KTZHH2ONI1ODAVRRMZTRL6IHCUM80","","155.09999999403954","img/food5.png","75","156.5","2","0","","2","1","1,0.7,0,1,0.7,0,0.7,0,1","0.7,0,1,0.7,0,1,0,1,0.7","2",""
"","html-keyboard-response","257","109817","0.0-347.0","3MB8LZR5BGFQODD1R10J6WW8JFQLKC","A2PWUACCQI97J8","3KTZHH2ONI1ODAVRRMZTRL6IHCUM80","","null","<img src=""img/food5.png"" style=""width:200px;border:14px solid red;"">","null","","","","","","","","","",""
"","image-keyboard-response","258","110241","0.0-348.0","3MB8LZR5BGFQODD1R10J6WW8JFQLKC","A2PWUACCQI97J8","3KTZHH2ONI1ODAVRRMZTRL6IHCUM80","","423.5","img/food3.png","76","424.20000000298023","3","1","","1","1","1,0.7,0,1,0.7,0,0.7,0,1","0.7,0,1,0.7,0,1,0,1,0.7","2",""
"","html-keyboard-response","259","110543","0.0-349.0","3MB8LZR5BGFQODD1R10J6WW8JFQLKC","A2PWUACCQI97J8","3KTZHH2ONI1ODAVRRMZTRL6IHCUM80","","null","<img src=""img/food3.png"" style=""width:200px; border:14px solid green;"">","null","","","","","","","","","",""
"","image-keyboard-response","260","110717","0.0-350.0","3MB8LZR5BGFQODD1R10J6WW8JFQLKC","A2PWUACCQI97J8","3KTZHH2ONI1ODAVRRMZTRL6IHCUM80","","173.70000000298023","img/food5.png","76","174.29999999701977","3","1","","2","1","1,0.7,0,1,0.7,0,0.7,0,1","0.7,0,1,0.7,0,1,0,1,0.7","2",""
"","html-keyboard-response","261","111020","0.0-351.0","3MB8LZR5BGFQODD1R10J6WW8JFQLKC","A2PWUACCQI97J8","3KTZHH2ONI1ODAVRRMZTRL6IHCUM80","","null","<img src=""img/food5.png"" style=""width:200px; border:14px solid green;"">","null","","","","","","","","","",""
"","image-keyboard-response","262","111130","0.0-352.0","3MB8LZR5BGFQODD1R10J6WW8JFQLKC","A2PWUACCQI97J8","3KTZHH2ONI1ODAVRRMZTRL6IHCUM80","","109.59999999403954","img/food1.png","76","110.3999999910593","3","1","","3","1","1,0.7,0,1,0.7,0,0.7,0,1","0.7,0,1,0.7,0,1,0,1,0.7","2",""
"","html-keyboard-response","263","111432","0.0-353.0","3MB8LZR5BGFQODD1R10J6WW8JFQLKC","A2PWUACCQI97J8","3KTZHH2ONI1ODAVRRMZTRL6IHCUM80","","null","<img src=""img/food1.png"" style=""width:200px; border:14px solid green;"">","null","","","","","","","","","",""
"","image-keyboard-response","264","111715","0.0-354.0","3MB8LZR5BGFQODD1R10J6WW8JFQLKC","A2PWUACCQI97J8","3KTZHH2ONI1ODAVRRMZTRL6IHCUM80","","281.6000000089407","img/food5.png","76","282.70000000298023","3","1","","2","1","1,0.7,0,1,0.7,0,0.7,0,1","0.7,0,1,0.7,0,1,0,1,0.7","2",""
"","html-keyboard-response","265","112018","0.0-355.0","3MB8LZR5BGFQODD1R10J6WW8JFQLKC","A2PWUACCQI97J8","3KTZHH2ONI1ODAVRRMZTRL6IHCUM80","","null","<img src=""img/food5.png"" style=""width:200px; border:14px solid green;"">","null","","","","","","","","","",""
"","image-keyboard-response","266","112184","0.0-356.0","3MB8LZR5BGFQODD1R10J6WW8JFQLKC","A2PWUACCQI97J8","3KTZHH2ONI1ODAVRRMZTRL6IHCUM80","","164.40000000596046","img/food1.png","76","165.19999998807907","3","1","","3","1","1,0.7,0,1,0.7,0,0.7,0,1","0.7,0,1,0.7,0,1,0,1,0.7","2",""
"","html-keyboard-response","267","112485","0.0-357.0","3MB8LZR5BGFQODD1R10J6WW8JFQLKC","A2PWUACCQI97J8","3KTZHH2ONI1ODAVRRMZTRL6IHCUM80","","null","<img src=""img/food1.png"" style=""width:200px; border:14px solid green;"">","null","","","","","","","","","",""
"","image-keyboard-response","268","112642","0.0-358.0","3MB8LZR5BGFQODD1R10J6WW8JFQLKC","A2PWUACCQI97J8","3KTZHH2ONI1ODAVRRMZTRL6IHCUM80","","156.19999998807907","img/food3.png","76","157","3","1","","1","1","1,0.7,0,1,0.7,0,0.7,0,1","0.7,0,1,0.7,0,1,0,1,0.7","2",""
"","html-keyboard-response","269","112944","0.0-359.0","3MB8LZR5BGFQODD1R10J6WW8JFQLKC","A2PWUACCQI97J8","3KTZHH2ONI1ODAVRRMZTRL6IHCUM80","","null","<img src=""img/food3.png"" style=""width:200px; border:14px solid green;"">","null","","","","","","","","","",""
"","image-keyboard-response","270","113013","0.0-360.0","3MB8LZR5BGFQODD1R10J6WW8JFQLKC","A2PWUACCQI97J8","3KTZHH2ONI1ODAVRRMZTRL6IHCUM80","","67.3999999910593","img/food1.png","76","68.5","3","1","","3","1","1,0.7,0,1,0.7,0,0.7,0,1","0.7,0,1,0.7,0,1,0,1,0.7","2",""
"","html-keyboard-response","271","113315","0.0-361.0","3MB8LZR5BGFQODD1R10J6WW8JFQLKC","A2PWUACCQI97J8","3KTZHH2ONI1ODAVRRMZTRL6IHCUM80","","null","<img src=""img/food1.png"" style=""width:200px; border:14px solid green;"">","null","","","","","","","","","",""
"","image-keyboard-response","272","113414","0.0-362.0","3MB8LZR5BGFQODD1R10J6WW8JFQLKC","A2PWUACCQI97J8","3KTZHH2ONI1ODAVRRMZTRL6IHCUM80","","97.8999999910593","img/food3.png","76","98.6000000089407","3","1","","1","1","1,0.7,0,1,0.7,0,0.7,0,1","0.7,0,1,0.7,0,1,0,1,0.7","2",""
"","html-keyboard-response","273","113722","0.0-363.0","3MB8LZR5BGFQODD1R10J6WW8JFQLKC","A2PWUACCQI97J8","3KTZHH2ONI1ODAVRRMZTRL6IHCUM80","","null","<img src=""img/food3.png"" style=""width:200px; border:14px solid green;"">","null","","","","","","","","","",""
"","image-keyboard-response","274","113796","0.0-364.0","3MB8LZR5BGFQODD1R10J6WW8JFQLKC","A2PWUACCQI97J8","3KTZHH2ONI1ODAVRRMZTRL6IHCUM80","","72","img/food3.png","76","73.40000000596046","3","1","","1","1","1,0.7,0,1,0.7,0,0.7,0,1","0.7,0,1,0.7,0,1,0,1,0.7","2",""
"","html-keyboard-response","275","114097","0.0-365.0","3MB8LZR5BGFQODD1R10J6WW8JFQLKC","A2PWUACCQI97J8","3KTZHH2ONI1ODAVRRMZTRL6IHCUM80","","null","<img src=""img/food3.png"" style=""width:200px; border:14px solid green;"">","null","","","","","","","","","",""
"","image-keyboard-response","276","114212","0.0-366.0","3MB8LZR5BGFQODD1R10J6WW8JFQLKC","A2PWUACCQI97J8","3KTZHH2ONI1ODAVRRMZTRL6IHCUM80","","113.40000000596046","img/food1.png","76","114.09999999403954","3","1","","3","1","1,0.7,0,1,0.7,0,0.7,0,1","0.7,0,1,0.7,0,1,0,1,0.7","2",""
"","html-keyboard-response","277","114514","0.0-367.0","3MB8LZR5BGFQODD1R10J6WW8JFQLKC","A2PWUACCQI97J8","3KTZHH2ONI1ODAVRRMZTRL6IHCUM80","","null","<img src=""img/food1.png"" style=""width:200px; border:14px solid green;"">","null","","","","","","","","","",""
"","image-keyboard-response","278","114628","0.0-368.0","3MB8LZR5BGFQODD1R10J6WW8JFQLKC","A2PWUACCQI97J8","3KTZHH2ONI1ODAVRRMZTRL6IHCUM80","","112","img/food1.png","76","113.80000001192093","3","1","","3","1","1,0.7,0,1,0.7,0,0.7,0,1","0.7,0,1,0.7,0,1,0,1,0.7","2",""
"","html-keyboard-response","279","114930","0.0-369.0","3MB8LZR5BGFQODD1R10J6WW8JFQLKC","A2PWUACCQI97J8","3KTZHH2ONI1ODAVRRMZTRL6IHCUM80","","null","<img src=""img/food1.png"" style=""width:200px; border:14px solid green;"">","null","","","","","","","","","",""
"","image-keyboard-response","280","115028","0.0-370.0","3MB8LZR5BGFQODD1R10J6WW8JFQLKC","A2PWUACCQI97J8","3KTZHH2ONI1ODAVRRMZTRL6IHCUM80","","96.20000000298023","img/food3.png","76","96.90000000596046","3","1","","1","1","1,0.7,0,1,0.7,0,0.7,0,1","0.7,0,1,0.7,0,1,0,1,0.7","2",""
"","html-keyboard-response","281","115329","0.0-371.0","3MB8LZR5BGFQODD1R10J6WW8JFQLKC","A2PWUACCQI97J8","3KTZHH2ONI1ODAVRRMZTRL6IHCUM80","","null","<img src=""img/food3.png"" style=""width:200px; border:14px solid green;"">","null","","","","","","","","","",""
"","image-keyboard-response","282","115377","0.0-372.0","3MB8LZR5BGFQODD1R10J6WW8JFQLKC","A2PWUACCQI97J8","3KTZHH2ONI1ODAVRRMZTRL6IHCUM80","","47","img/food1.png","76","47.900000005960464","3","0","","3","1","1,0.7,0,1,0.7,0,0.7,0,1","0.7,0,1,0.7,0,1,0,1,0.7","2",""
"","html-keyboard-response","283","115680","0.0-373.0","3MB8LZR5BGFQODD1R10J6WW8JFQLKC","A2PWUACCQI97J8","3KTZHH2ONI1ODAVRRMZTRL6IHCUM80","","null","<img src=""img/food1.png"" style=""width:200px;border:14px solid red;"">","null","","","","","","","","","",""
"","image-keyboard-response","284","115844","0.0-374.0","3MB8LZR5BGFQODD1R10J6WW8JFQLKC","A2PWUACCQI97J8","3KTZHH2ONI1ODAVRRMZTRL6IHCUM80","","163.29999999701977","img/food5.png","76","164.09999999403954","3","1","","2","1","1,0.7,0,1,0.7,0,0.7,0,1","0.7,0,1,0.7,0,1,0,1,0.7","2",""
"","html-keyboard-response","285","116146","0.0-375.0","3MB8LZR5BGFQODD1R10J6WW8JFQLKC","A2PWUACCQI97J8","3KTZHH2ONI1ODAVRRMZTRL6IHCUM80","","null","<img src=""img/food5.png"" style=""width:200px; border:14px solid green;"">","null","","","","","","","","","",""
"","image-keyboard-response","286","116281","0.0-376.0","3MB8LZR5BGFQODD1R10J6WW8JFQLKC","A2PWUACCQI97J8","3KTZHH2ONI1ODAVRRMZTRL6IHCUM80","","134.29999999701977","img/food3.png","76","135","3","1","","1","1","1,0.7,0,1,0.7,0,0.7,0,1","0.7,0,1,0.7,0,1,0,1,0.7","2",""
"","html-keyboard-response","287","116582","0.0-377.0","3MB8LZR5BGFQODD1R10J6WW8JFQLKC","A2PWUACCQI97J8","3KTZHH2ONI1ODAVRRMZTRL6IHCUM80","","null","<img src=""img/food3.png"" style=""width:200px; border:14px solid green;"">","null","","","","","","","","","",""
"","image-keyboard-response","288","116630","0.0-378.0","3MB8LZR5BGFQODD1R10J6WW8JFQLKC","A2PWUACCQI97J8","3KTZHH2ONI1ODAVRRMZTRL6IHCUM80","","46.900000005960464","img/food1.png","76","47.70000000298023","3","1","","3","1","1,0.7,0,1,0.7,0,0.7,0,1","0.7,0,1,0.7,0,1,0,1,0.7","2",""
"","html-keyboard-response","289","116932","0.0-379.0","3MB8LZR5BGFQODD1R10J6WW8JFQLKC","A2PWUACCQI97J8","3KTZHH2ONI1ODAVRRMZTRL6IHCUM80","","null","<img src=""img/food1.png"" style=""width:200px; border:14px solid green;"">","null","","","","","","","","","",""
"","image-keyboard-response","290","117044","0.0-380.0","3MB8LZR5BGFQODD1R10J6WW8JFQLKC","A2PWUACCQI97J8","3KTZHH2ONI1ODAVRRMZTRL6IHCUM80","","110.20000000298023","img/food5.png","76","111.40000000596046","3","1","","2","1","1,0.7,0,1,0.7,0,0.7,0,1","0.7,0,1,0.7,0,1,0,1,0.7","2",""
"","html-keyboard-response","291","117346","0.0-381.0","3MB8LZR5BGFQODD1R10J6WW8JFQLKC","A2PWUACCQI97J8","3KTZHH2ONI1ODAVRRMZTRL6IHCUM80","","null","<img src=""img/food5.png"" style=""width:200px; border:14px solid green;"">","null","","","","","","","","","",""
"","image-keyboard-response","292","117445","0.0-382.0","3MB8LZR5BGFQODD1R10J6WW8JFQLKC","A2PWUACCQI97J8","3KTZHH2ONI1ODAVRRMZTRL6IHCUM80","","97.40000000596046","img/food1.png","76","98.5","3","0","","3","1","1,0.7,0,1,0.7,0,0.7,0,1","0.7,0,1,0.7,0,1,0,1,0.7","2",""
"","html-keyboard-response","293","117750","0.0-383.0","3MB8LZR5BGFQODD1R10J6WW8JFQLKC","A2PWUACCQI97J8","3KTZHH2ONI1ODAVRRMZTRL6IHCUM80","","null","<img src=""img/food1.png"" style=""width:200px;border:14px solid red;"">","null","","","","","","","","","",""
"","image-keyboard-response","294","117814","0.0-384.0","3MB8LZR5BGFQODD1R10J6WW8JFQLKC","A2PWUACCQI97J8","3KTZHH2ONI1ODAVRRMZTRL6IHCUM80","","62","img/food5.png","76","63.099999994039536","3","1","","2","1","1,0.7,0,1,0.7,0,0.7,0,1","0.7,0,1,0.7,0,1,0,1,0.7","2",""
"","html-keyboard-response","295","118115","0.0-385.0","3MB8LZR5BGFQODD1R10J6WW8JFQLKC","A2PWUACCQI97J8","3KTZHH2ONI1ODAVRRMZTRL6IHCUM80","","null","<img src=""img/food5.png"" style=""width:200px; border:14px solid green;"">","null","","","","","","","","","",""
"","image-keyboard-response","296","118203","0.0-386.0","3MB8LZR5BGFQODD1R10J6WW8JFQLKC","A2PWUACCQI97J8","3KTZHH2ONI1ODAVRRMZTRL6IHCUM80","","86.79999999701977","img/food5.png","76","87.59999999403954","3","1","","2","1","1,0.7,0,1,0.7,0,0.7,0,1","0.7,0,1,0.7,0,1,0,1,0.7","2",""
"","html-keyboard-response","297","118504","0.0-387.0","3MB8LZR5BGFQODD1R10J6WW8JFQLKC","A2PWUACCQI97J8","3KTZHH2ONI1ODAVRRMZTRL6IHCUM80","","null","<img src=""img/food5.png"" style=""width:200px; border:14px solid green;"">","null","","","","","","","","","",""
"","image-keyboard-response","298","118621","0.0-388.0","3MB8LZR5BGFQODD1R10J6WW8JFQLKC","A2PWUACCQI97J8","3KTZHH2ONI1ODAVRRMZTRL6IHCUM80","","116.29999999701977","img/food5.png","76","116.70000000298023","3","1","","2","1","1,0.7,0,1,0.7,0,0.7,0,1","0.7,0,1,0.7,0,1,0,1,0.7","2",""
"","html-keyboard-response","299","118923","0.0-389.0","3MB8LZR5BGFQODD1R10J6WW8JFQLKC","A2PWUACCQI97J8","3KTZHH2ONI1ODAVRRMZTRL6IHCUM80","","null","<img src=""img/food5.png"" style=""width:200px; border:14px solid green;"">","null","","","","","","","","","",""
"","image-keyboard-response","300","118984","0.0-390.0","3MB8LZR5BGFQODD1R10J6WW8JFQLKC","A2PWUACCQI97J8","3KTZHH2ONI1ODAVRRMZTRL6IHCUM80","","60.20000000298023","img/food5.png","76","61","3","1","","2","1","1,0.7,0,1,0.7,0,0.7,0,1","0.7,0,1,0.7,0,1,0,1,0.7","2",""
"","html-keyboard-response","301","119286","0.0-391.0","3MB8LZR5BGFQODD1R10J6WW8JFQLKC","A2PWUACCQI97J8","3KTZHH2ONI1ODAVRRMZTRL6IHCUM80","","null","<img src=""img/food5.png"" style=""width:200px; border:14px solid green;"">","null","","","","","","","","","",""
"","image-keyboard-response","302","119368","0.0-392.0","3MB8LZR5BGFQODD1R10J6WW8JFQLKC","A2PWUACCQI97J8","3KTZHH2ONI1ODAVRRMZTRL6IHCUM80","","81","img/food5.png","76","82.1000000089407","3","1","","2","1","1,0.7,0,1,0.7,0,0.7,0,1","0.7,0,1,0.7,0,1,0,1,0.7","2",""
"","html-keyboard-response","303","119670","0.0-393.0","3MB8LZR5BGFQODD1R10J6WW8JFQLKC","A2PWUACCQI97J8","3KTZHH2ONI1ODAVRRMZTRL6IHCUM80","","null","<img src=""img/food5.png"" style=""width:200px; border:14px solid green;"">","null","","","","","","","","","",""
"","image-keyboard-response","304","119711","0.0-394.0","3MB8LZR5BGFQODD1R10J6WW8JFQLKC","A2PWUACCQI97J8","3KTZHH2ONI1ODAVRRMZTRL6IHCUM80","","40.3999999910593","img/food1.png","76","40.8999999910593","3","0","","3","1","1,0.7,0,1,0.7,0,0.7,0,1","0.7,0,1,0.7,0,1,0,1,0.7","2",""
"","html-keyboard-response","305","120013","0.0-395.0","3MB8LZR5BGFQODD1R10J6WW8JFQLKC","A2PWUACCQI97J8","3KTZHH2ONI1ODAVRRMZTRL6IHCUM80","","null","<img src=""img/food1.png"" style=""width:200px;border:14px solid red;"">","null","","","","","","","","","",""
"","image-keyboard-response","306","120247","0.0-396.0","3MB8LZR5BGFQODD1R10J6WW8JFQLKC","A2PWUACCQI97J8","3KTZHH2ONI1ODAVRRMZTRL6IHCUM80","","232.5","img/food1.png","76","233.40000000596046","3","1","","3","1","1,0.7,0,1,0.7,0,0.7,0,1","0.7,0,1,0.7,0,1,0,1,0.7","2",""
"","html-keyboard-response","307","120549","0.0-397.0","3MB8LZR5BGFQODD1R10J6WW8JFQLKC","A2PWUACCQI97J8","3KTZHH2ONI1ODAVRRMZTRL6IHCUM80","","null","<img src=""img/food1.png"" style=""width:200px; border:14px solid green;"">","null","","","","","","","","","",""
"","image-keyboard-response","308","120693","0.0-398.0","3MB8LZR5BGFQODD1R10J6WW8JFQLKC","A2PWUACCQI97J8","3KTZHH2ONI1ODAVRRMZTRL6IHCUM80","","143.5","img/food3.png","76","144.1000000089407","3","1","","1","1","1,0.7,0,1,0.7,0,0.7,0,1","0.7,0,1,0.7,0,1,0,1,0.7","2",""
"","html-keyboard-response","309","120995","0.0-399.0","3MB8LZR5BGFQODD1R10J6WW8JFQLKC","A2PWUACCQI97J8","3KTZHH2ONI1ODAVRRMZTRL6IHCUM80","","null","<img src=""img/food3.png"" style=""width:200px; border:14px solid green;"">","null","","","","","","","","","",""
"","image-keyboard-response","310","121059","0.0-400.0","3MB8LZR5BGFQODD1R10J6WW8JFQLKC","A2PWUACCQI97J8","3KTZHH2ONI1ODAVRRMZTRL6IHCUM80","","62.6000000089407","img/food1.png","76","63.70000000298023","3","1","","3","1","1,0.7,0,1,0.7,0,0.7,0,1","0.7,0,1,0.7,0,1,0,1,0.7","2",""
"","html-keyboard-response","311","121361","0.0-401.0","3MB8LZR5BGFQODD1R10J6WW8JFQLKC","A2PWUACCQI97J8","3KTZHH2ONI1ODAVRRMZTRL6IHCUM80","","null","<img src=""img/food1.png"" style=""width:200px; border:14px solid green;"">","null","","","","","","","","","",""
"","image-keyboard-response","312","121465","0.0-402.0","3MB8LZR5BGFQODD1R10J6WW8JFQLKC","A2PWUACCQI97J8","3KTZHH2ONI1ODAVRRMZTRL6IHCUM80","","103.5","img/food3.png","76","104.20000000298023","3","1","","1","1","1,0.7,0,1,0.7,0,0.7,0,1","0.7,0,1,0.7,0,1,0,1,0.7","2",""
"","html-keyboard-response","313","121767","0.0-403.0","3MB8LZR5BGFQODD1R10J6WW8JFQLKC","A2PWUACCQI97J8","3KTZHH2ONI1ODAVRRMZTRL6IHCUM80","","null","<img src=""img/food3.png"" style=""width:200px; border:14px solid green;"">","null","","","","","","","","","",""
"","image-keyboard-response","314","121785","0.0-404.0","3MB8LZR5BGFQODD1R10J6WW8JFQLKC","A2PWUACCQI97J8","3KTZHH2ONI1ODAVRRMZTRL6IHCUM80","","17.400000005960464","img/food3.png","76","17.900000005960464","3","1","","1","1","1,0.7,0,1,0.7,0,0.7,0,1","0.7,0,1,0.7,0,1,0,1,0.7","2",""
"","html-keyboard-response","315","122087","0.0-405.0","3MB8LZR5BGFQODD1R10J6WW8JFQLKC","A2PWUACCQI97J8","3KTZHH2ONI1ODAVRRMZTRL6IHCUM80","","null","<img src=""img/food3.png"" style=""width:200px; border:14px solid green;"">","null","","","","","","","","","",""
"","image-keyboard-response","316","122231","0.0-406.0","3MB8LZR5BGFQODD1R10J6WW8JFQLKC","A2PWUACCQI97J8","3KTZHH2ONI1ODAVRRMZTRL6IHCUM80","","142.80000001192093","img/food5.png","76","143.40000000596046","3","1","","2","1","1,0.7,0,1,0.7,0,0.7,0,1","0.7,0,1,0.7,0,1,0,1,0.7","2",""
"","html-keyboard-response","317","122537","0.0-407.0","3MB8LZR5BGFQODD1R10J6WW8JFQLKC","A2PWUACCQI97J8","3KTZHH2ONI1ODAVRRMZTRL6IHCUM80","","null","<img src=""img/food5.png"" style=""width:200px; border:14px solid green;"">","null","","","","","","","","","",""
"","image-keyboard-response","318","122653","0.0-408.0","3MB8LZR5BGFQODD1R10J6WW8JFQLKC","A2PWUACCQI97J8","3KTZHH2ONI1ODAVRRMZTRL6IHCUM80","","115.5","img/food1.png","76","116.29999999701977","3","0","","3","1","1,0.7,0,1,0.7,0,0.7,0,1","0.7,0,1,0.7,0,1,0,1,0.7","2",""
"","html-keyboard-response","319","122957","0.0-409.0","3MB8LZR5BGFQODD1R10J6WW8JFQLKC","A2PWUACCQI97J8","3KTZHH2ONI1ODAVRRMZTRL6IHCUM80","","null","<img src=""img/food1.png"" style=""width:200px;border:14px solid red;"">","null","","","","","","","","","",""
"","image-keyboard-response","320","122979","0.0-410.0","3MB8LZR5BGFQODD1R10J6WW8JFQLKC","A2PWUACCQI97J8","3KTZHH2ONI1ODAVRRMZTRL6IHCUM80","","19.30000001192093","img/food3.png","76","21.099999994039536","3","1","","1","1","1,0.7,0,1,0.7,0,0.7,0,1","0.7,0,1,0.7,0,1,0,1,0.7","2",""
"","html-keyboard-response","321","123282","0.0-411.0","3MB8LZR5BGFQODD1R10J6WW8JFQLKC","A2PWUACCQI97J8","3KTZHH2ONI1ODAVRRMZTRL6IHCUM80","","null","<img src=""img/food3.png"" style=""width:200px; border:14px solid green;"">","null","","","","","","","","","",""
"","image-keyboard-response","322","123366","0.0-412.0","3MB8LZR5BGFQODD1R10J6WW8JFQLKC","A2PWUACCQI97J8","3KTZHH2ONI1ODAVRRMZTRL6IHCUM80","","82","img/food5.png","76","83.09999999403954","3","1","","2","1","1,0.7,0,1,0.7,0,0.7,0,1","0.7,0,1,0.7,0,1,0,1,0.7","2",""
"","html-keyboard-response","323","123668","0.0-413.0","3MB8LZR5BGFQODD1R10J6WW8JFQLKC","A2PWUACCQI97J8","3KTZHH2ONI1ODAVRRMZTRL6IHCUM80","","null","<img src=""img/food5.png"" style=""width:200px; border:14px solid green;"">","null","","","","","","","","","",""
"","image-keyboard-response","324","123738","0.0-414.0","3MB8LZR5BGFQODD1R10J6WW8JFQLKC","A2PWUACCQI97J8","3KTZHH2ONI1ODAVRRMZTRL6IHCUM80","","67","img/food5.png","76","68","3","1","","2","1","1,0.7,0,1,0.7,0,0.7,0,1","0.7,0,1,0.7,0,1,0,1,0.7","2",""
"","html-keyboard-response","325","124039","0.0-415.0","3MB8LZR5BGFQODD1R10J6WW8JFQLKC","A2PWUACCQI97J8","3KTZHH2ONI1ODAVRRMZTRL6IHCUM80","","null","<img src=""img/food5.png"" style=""width:200px; border:14px solid green;"">","null","","","","","","","","","",""
"","image-keyboard-response","326","124154","0.0-416.0","3MB8LZR5BGFQODD1R10J6WW8JFQLKC","A2PWUACCQI97J8","3KTZHH2ONI1ODAVRRMZTRL6IHCUM80","","113.70000000298023","img/food1.png","76","114.5","3","0","","3","1","1,0.7,0,1,0.7,0,0.7,0,1","0.7,0,1,0.7,0,1,0,1,0.7","2",""
"","html-keyboard-response","327","124457","0.0-417.0","3MB8LZR5BGFQODD1R10J6WW8JFQLKC","A2PWUACCQI97J8","3KTZHH2ONI1ODAVRRMZTRL6IHCUM80","","null","<img src=""img/food1.png"" style=""width:200px;border:14px solid red;"">","null","","","","","","","","","",""
"","image-keyboard-response","328","124683","0.0-418.0","3MB8LZR5BGFQODD1R10J6WW8JFQLKC","A2PWUACCQI97J8","3KTZHH2ONI1ODAVRRMZTRL6IHCUM80","","224.09999999403954","img/food1.png","76","225.20000000298023","3","0","","3","1","1,0.7,0,1,0.7,0,0.7,0,1","0.7,0,1,0.7,0,1,0,1,0.7","2",""
"","html-keyboard-response","329","124985","0.0-419.0","3MB8LZR5BGFQODD1R10J6WW8JFQLKC","A2PWUACCQI97J8","3KTZHH2ONI1ODAVRRMZTRL6IHCUM80","","null","<img src=""img/food1.png"" style=""width:200px;border:14px solid red;"">","null","","","","","","","","","",""
"","image-keyboard-response","330","125241","0.0-420.0","3MB8LZR5BGFQODD1R10J6WW8JFQLKC","A2PWUACCQI97J8","3KTZHH2ONI1ODAVRRMZTRL6IHCUM80","","254.59999999403954","img/food5.png","76","255.09999999403954","3","1","","2","1","1,0.7,0,1,0.7,0,0.7,0,1","0.7,0,1,0.7,0,1,0,1,0.7","2",""
"","html-keyboard-response","331","125552","0.0-421.0","3MB8LZR5BGFQODD1R10J6WW8JFQLKC","A2PWUACCQI97J8","3KTZHH2ONI1ODAVRRMZTRL6IHCUM80","","null","<img src=""img/food5.png"" style=""width:200px; border:14px solid green;"">","null","","","","","","","","","",""
"","image-keyboard-response","332","125658","0.0-422.0","3MB8LZR5BGFQODD1R10J6WW8JFQLKC","A2PWUACCQI97J8","3KTZHH2ONI1ODAVRRMZTRL6IHCUM80","","104.29999999701977","img/food1.png","76","105.1000000089407","3","0","","3","1","1,0.7,0,1,0.7,0,0.7,0,1","0.7,0,1,0.7,0,1,0,1,0.7","2",""
"","html-keyboard-response","333","125960","0.0-423.0","3MB8LZR5BGFQODD1R10J6WW8JFQLKC","A2PWUACCQI97J8","3KTZHH2ONI1ODAVRRMZTRL6IHCUM80","","null","<img src=""img/food1.png"" style=""width:200px;border:14px solid red;"">","null","","","","","","","","","",""
"","image-keyboard-response","334","126057","0.0-424.0","3MB8LZR5BGFQODD1R10J6WW8JFQLKC","A2PWUACCQI97J8","3KTZHH2ONI1ODAVRRMZTRL6IHCUM80","","96.09999999403954","img/food1.png","76","96.70000000298023","3","1","","3","1","1,0.7,0,1,0.7,0,0.7,0,1","0.7,0,1,0.7,0,1,0,1,0.7","2",""
"","html-keyboard-response","335","126359","0.0-425.0","3MB8LZR5BGFQODD1R10J6WW8JFQLKC","A2PWUACCQI97J8","3KTZHH2ONI1ODAVRRMZTRL6IHCUM80","","null","<img src=""img/food1.png"" style=""width:200px; border:14px solid green;"">","null","","","","","","","","","",""
"","image-keyboard-response","336","126608","0.0-426.0","3MB8LZR5BGFQODD1R10J6WW8JFQLKC","A2PWUACCQI97J8","3KTZHH2ONI1ODAVRRMZTRL6IHCUM80","","247.20000000298023","img/food1.png","76","247.90000000596046","3","1","","3","1","1,0.7,0,1,0.7,0,0.7,0,1","0.7,0,1,0.7,0,1,0,1,0.7","2",""
"","html-keyboard-response","337","126910","0.0-427.0","3MB8LZR5BGFQODD1R10J6WW8JFQLKC","A2PWUACCQI97J8","3KTZHH2ONI1ODAVRRMZTRL6IHCUM80","","null","<img src=""img/food1.png"" style=""width:200px; border:14px solid green;"">","null","","","","","","","","","",""
"","image-keyboard-response","338","126975","0.0-428.0","3MB8LZR5BGFQODD1R10J6WW8JFQLKC","A2PWUACCQI97J8","3KTZHH2ONI1ODAVRRMZTRL6IHCUM80","","64.8999999910593","img/food3.png","76","65.6000000089407","3","1","","1","1","1,0.7,0,1,0.7,0,0.7,0,1","0.7,0,1,0.7,0,1,0,1,0.7","2",""
"","html-keyboard-response","339","127278","0.0-429.0","3MB8LZR5BGFQODD1R10J6WW8JFQLKC","A2PWUACCQI97J8","3KTZHH2ONI1ODAVRRMZTRL6IHCUM80","","null","<img src=""img/food3.png"" style=""width:200px; border:14px solid green;"">","null","","","","","","","","","",""
"","image-keyboard-response","340","127366","0.0-430.0","3MB8LZR5BGFQODD1R10J6WW8JFQLKC","A2PWUACCQI97J8","3KTZHH2ONI1ODAVRRMZTRL6IHCUM80","","87.09999999403954","img/food3.png","76","87.90000000596046","3","1","","1","1","1,0.7,0,1,0.7,0,0.7,0,1","0.7,0,1,0.7,0,1,0,1,0.7","2",""
"","html-keyboard-response","341","127668","0.0-431.0","3MB8LZR5BGFQODD1R10J6WW8JFQLKC","A2PWUACCQI97J8","3KTZHH2ONI1ODAVRRMZTRL6IHCUM80","","null","<img src=""img/food3.png"" style=""width:200px; border:14px solid green;"">","null","","","","","","","","","",""
"","image-keyboard-response","342","127788","0.0-432.0","3MB8LZR5BGFQODD1R10J6WW8JFQLKC","A2PWUACCQI97J8","3KTZHH2ONI1ODAVRRMZTRL6IHCUM80","","119.6000000089407","img/food3.png","76","120.3999999910593","3","1","","1","1","1,0.7,0,1,0.7,0,0.7,0,1","0.7,0,1,0.7,0,1,0,1,0.7","2",""
"","html-keyboard-response","343","128091","0.0-433.0","3MB8LZR5BGFQODD1R10J6WW8JFQLKC","A2PWUACCQI97J8","3KTZHH2ONI1ODAVRRMZTRL6IHCUM80","","null","<img src=""img/food3.png"" style=""width:200px; border:14px solid green;"">","null","","","","","","","","","",""
"","image-keyboard-response","344","128195","0.0-434.0","3MB8LZR5BGFQODD1R10J6WW8JFQLKC","A2PWUACCQI97J8","3KTZHH2ONI1ODAVRRMZTRL6IHCUM80","","103.09999999403954","img/food5.png","76","103.59999999403954","3","1","","2","1","1,0.7,0,1,0.7,0,0.7,0,1","0.7,0,1,0.7,0,1,0,1,0.7","2",""
"","html-keyboard-response","345","128496","0.0-435.0","3MB8LZR5BGFQODD1R10J6WW8JFQLKC","A2PWUACCQI97J8","3KTZHH2ONI1ODAVRRMZTRL6IHCUM80","","null","<img src=""img/food5.png"" style=""width:200px; border:14px solid green;"">","null","","","","","","","","","",""
"","image-keyboard-response","346","128562","0.0-436.0","3MB8LZR5BGFQODD1R10J6WW8JFQLKC","A2PWUACCQI97J8","3KTZHH2ONI1ODAVRRMZTRL6IHCUM80","","65.09999999403954","img/food3.png","76","65.70000000298023","3","1","","1","1","1,0.7,0,1,0.7,0,0.7,0,1","0.7,0,1,0.7,0,1,0,1,0.7","2",""
"","html-keyboard-response","347","128864","0.0-437.0","3MB8LZR5BGFQODD1R10J6WW8JFQLKC","A2PWUACCQI97J8","3KTZHH2ONI1ODAVRRMZTRL6IHCUM80","","null","<img src=""img/food3.png"" style=""width:200px; border:14px solid green;"">","null","","","","","","","","","",""
"","image-keyboard-response","348","128947","0.0-438.0","3MB8LZR5BGFQODD1R10J6WW8JFQLKC","A2PWUACCQI97J8","3KTZHH2ONI1ODAVRRMZTRL6IHCUM80","","81.90000000596046","img/food3.png","76","82.59999999403954","3","1","","1","1","1,0.7,0,1,0.7,0,0.7,0,1","0.7,0,1,0.7,0,1,0,1,0.7","2",""
"","html-keyboard-response","349","129248","0.0-439.0","3MB8LZR5BGFQODD1R10J6WW8JFQLKC","A2PWUACCQI97J8","3KTZHH2ONI1ODAVRRMZTRL6IHCUM80","","null","<img src=""img/food3.png"" style=""width:200px; border:14px solid green;"">","null","","","","","","","","","",""
"","image-keyboard-response","350","129358","0.0-440.0","3MB8LZR5BGFQODD1R10J6WW8JFQLKC","A2PWUACCQI97J8","3KTZHH2ONI1ODAVRRMZTRL6IHCUM80","","108.8999999910593","img/food5.png","76","109.70000000298023","3","1","","2","1","1,0.7,0,1,0.7,0,0.7,0,1","0.7,0,1,0.7,0,1,0,1,0.7","2",""
"","html-keyboard-response","351","129660","0.0-441.0","3MB8LZR5BGFQODD1R10J6WW8JFQLKC","A2PWUACCQI97J8","3KTZHH2ONI1ODAVRRMZTRL6IHCUM80","","null","<img src=""img/food5.png"" style=""width:200px; border:14px solid green;"">","null","","","","","","","","","",""
"","image-keyboard-response","352","129759","0.0-442.0","3MB8LZR5BGFQODD1R10J6WW8JFQLKC","A2PWUACCQI97J8","3KTZHH2ONI1ODAVRRMZTRL6IHCUM80","","97.09999999403954","img/food1.png","76","98.3999999910593","3","1","","3","1","1,0.7,0,1,0.7,0,0.7,0,1","0.7,0,1,0.7,0,1,0,1,0.7","2",""
"","html-keyboard-response","353","130061","0.0-443.0","3MB8LZR5BGFQODD1R10J6WW8JFQLKC","A2PWUACCQI97J8","3KTZHH2ONI1ODAVRRMZTRL6IHCUM80","","null","<img src=""img/food1.png"" style=""width:200px; border:14px solid green;"">","null","","","","","","","","","",""
"","image-keyboard-response","354","130224","0.0-444.0","3MB8LZR5BGFQODD1R10J6WW8JFQLKC","A2PWUACCQI97J8","3KTZHH2ONI1ODAVRRMZTRL6IHCUM80","","161.3999999910593","img/food5.png","76","162.5","3","1","","2","1","1,0.7,0,1,0.7,0,0.7,0,1","0.7,0,1,0.7,0,1,0,1,0.7","2",""
"","html-keyboard-response","355","130526","0.0-445.0","3MB8LZR5BGFQODD1R10J6WW8JFQLKC","A2PWUACCQI97J8","3KTZHH2ONI1ODAVRRMZTRL6IHCUM80","","null","<img src=""img/food5.png"" style=""width:200px; border:14px solid green;"">","null","","","","","","","","","",""
"","image-keyboard-response","356","130592","0.0-446.0","3MB8LZR5BGFQODD1R10J6WW8JFQLKC","A2PWUACCQI97J8","3KTZHH2ONI1ODAVRRMZTRL6IHCUM80","","65.09999999403954","img/food5.png","76","65.79999999701977","3","1","","2","1","1,0.7,0,1,0.7,0,0.7,0,1","0.7,0,1,0.7,0,1,0,1,0.7","2",""
"","html-keyboard-response","357","130894","0.0-447.0","3MB8LZR5BGFQODD1R10J6WW8JFQLKC","A2PWUACCQI97J8","3KTZHH2ONI1ODAVRRMZTRL6IHCUM80","","null","<img src=""img/food5.png"" style=""width:200px; border:14px solid green;"">","null","","","","","","","","","",""
"","image-keyboard-response","358","130972","0.0-448.0","3MB8LZR5BGFQODD1R10J6WW8JFQLKC","A2PWUACCQI97J8","3KTZHH2ONI1ODAVRRMZTRL6IHCUM80","","76.90000000596046","img/food5.png","76","78.3999999910593","3","1","","2","1","1,0.7,0,1,0.7,0,0.7,0,1","0.7,0,1,0.7,0,1,0,1,0.7","2",""
"","html-keyboard-response","359","131275","0.0-449.0","3MB8LZR5BGFQODD1R10J6WW8JFQLKC","A2PWUACCQI97J8","3KTZHH2ONI1ODAVRRMZTRL6IHCUM80","","null","<img src=""img/food5.png"" style=""width:200px; border:14px solid green;"">","null","","","","","","","","","",""
"","image-keyboard-response","360","131332","0.0-450.0","3MB8LZR5BGFQODD1R10J6WW8JFQLKC","A2PWUACCQI97J8","3KTZHH2ONI1ODAVRRMZTRL6IHCUM80","","56.69999998807907","img/food3.png","76","57.5","3","1","","1","1","1,0.7,0,1,0.7,0,0.7,0,1","0.7,0,1,0.7,0,1,0,1,0.7","2",""
"","html-keyboard-response","361","131634","0.0-451.0","3MB8LZR5BGFQODD1R10J6WW8JFQLKC","A2PWUACCQI97J8","3KTZHH2ONI1ODAVRRMZTRL6IHCUM80","","null","<img src=""img/food3.png"" style=""width:200px; border:14px solid green;"">","null","","","","","","","","","",""
"","image-keyboard-response","362","131697","0.0-452.0","3MB8LZR5BGFQODD1R10J6WW8JFQLKC","A2PWUACCQI97J8","3KTZHH2ONI1ODAVRRMZTRL6IHCUM80","","61.70000000298023","img/food1.png","76","62.70000000298023","3","0","","3","1","1,0.7,0,1,0.7,0,0.7,0,1","0.7,0,1,0.7,0,1,0,1,0.7","2",""
"","html-keyboard-response","363","131999","0.0-453.0","3MB8LZR5BGFQODD1R10J6WW8JFQLKC","A2PWUACCQI97J8","3KTZHH2ONI1ODAVRRMZTRL6IHCUM80","","null","<img src=""img/food1.png"" style=""width:200px;border:14px solid red;"">","null","","","","","","","","","",""
"","html-keyboard-response","364","136409","0.0-454.0","3MB8LZR5BGFQODD1R10J6WW8JFQLKC","A2PWUACCQI97J8","3KTZHH2ONI1ODAVRRMZTRL6IHCUM80","","","","","","","","","","","","","",""
"","instructions","365","140071","0.0-455.0","3MB8LZR5BGFQODD1R10J6WW8JFQLKC","A2PWUACCQI97J8","3KTZHH2ONI1ODAVRRMZTRL6IHCUM80","[{""page_index"":0,""viewing_time"":3661.2000000029802}]","3661.4000000059605","","","","","","","","","","","",""
"","survey-text","366","145008","0.0-456.0","3MB8LZR5BGFQODD1R10J6WW8JFQLKC","A2PWUACCQI97J8","3KTZHH2ONI1ODAVRRMZTRL6IHCUM80","","4933.100000008941","","","","","","","","","","","","{""Q0"":""A2PWUACCQI97J8""}"
