"success","trial_type","trial_index","time_elapsed","internal_node_id","assignmentID","mturkID","hitID","view_history","rt","stimulus","key_press","reactionTime","a","r","warning","s","cond","reward_cond","reward_cond_actual","reward_matrix_idx","responses"
"true","fullscreen","0","2407","0.0-0.0","3DQQ64TANH77AYMG87CTBOZNC6IWPK","A2QFZ2524HID2B","3I7KR83SNAZT1REYB2SRC49PCEEK9H","","","","","","","","","","","","","",""
"","instructions","1","33973","0.0-1.0","3DQQ64TANH77AYMG87CTBOZNC6IWPK","A2QFZ2524HID2B","3I7KR83SNAZT1REYB2SRC49PCEEK9H","[{""page_index"":0,""viewing_time"":2075.0999999046326},{""page_index"":1,""viewing_time"":1869.8000000715256},{""page_index"":2,""viewing_time"":7947},{""page_index"":3,""viewing_time"":5216.299999952316},{""page_index"":4,""viewing_time"":2914.2000000476837},{""page_index"":5,""viewing_time"":9086.699999928474},{""page_index"":6,""viewing_time"":2452.4000000953674}]","31562.699999928474","","","","","","","","","","","",""
"","instructions","2","50719","0.0-2.0","3DQQ64TANH77AYMG87CTBOZNC6IWPK","A2QFZ2524HID2B","3I7KR83SNAZT1REYB2SRC49PCEEK9H","[{""page_index"":0,""viewing_time"":15709.100000023842},{""page_index"":1,""viewing_time"":1035.7999999523163}]","16745.200000047684","","","","","","","","","","","",""
"","image-keyboard-response","3","51193","0.0-3.0","3DQQ64TANH77AYMG87CTBOZNC6IWPK","A2QFZ2524HID2B","3I7KR83SNAZT1REYB2SRC49PCEEK9H","","470.89999997615814","img/food2.png","74","473.7000000476837","1","1","false","2","2","1,0.5,0,1,0.5,0,0.5,0,1","1,0.5,0,1,0.5,0,0.5,0,1","1",""
"","html-keyboard-response","4","51501","0.0-4.0","3DQQ64TANH77AYMG87CTBOZNC6IWPK","A2QFZ2524HID2B","3I7KR83SNAZT1REYB2SRC49PCEEK9H","","null","<img src=""img/food2.png"" style=""width:200px; border:14px solid green;"">","null","","","","","","","","","",""
"","image-keyboard-response","5","51664","0.0-6.0","3DQQ64TANH77AYMG87CTBOZNC6IWPK","A2QFZ2524HID2B","3I7KR83SNAZT1REYB2SRC49PCEEK9H","","160.20000004768372","img/food2.png","75","162.09999990463257","2","1","false","2","2","1,0.5,0,1,0.5,0,0.5,0,1","1,0.5,0,1,0.5,0,0.5,0,1","1",""
"","html-keyboard-response","6","51972","0.0-7.0","3DQQ64TANH77AYMG87CTBOZNC6IWPK","A2QFZ2524HID2B","3I7KR83SNAZT1REYB2SRC49PCEEK9H","","null","<img src=""img/food2.png"" style=""width:200px; border:14px solid green;"">","null","","","","","","","","","",""
"","image-keyboard-response","7","52017","0.0-9.0","3DQQ64TANH77AYMG87CTBOZNC6IWPK","A2QFZ2524HID2B","3I7KR83SNAZT1REYB2SRC49PCEEK9H","","42.299999952316284","img/food2.png","75","44.10000002384186","2","1","false","2","2","1,0.5,0,1,0.5,0,0.5,0,1","1,0.5,0,1,0.5,0,0.5,0,1","1",""
"","html-keyboard-response","8","52325","0.0-10.0","3DQQ64TANH77AYMG87CTBOZNC6IWPK","A2QFZ2524HID2B","3I7KR83SNAZT1REYB2SRC49PCEEK9H","","null","<img src=""img/food2.png"" style=""width:200px; border:14px solid green;"">","null","","","","","","","","","",""
"","image-keyboard-response","9","52376","0.0-12.0","3DQQ64TANH77AYMG87CTBOZNC6IWPK","A2QFZ2524HID2B","3I7KR83SNAZT1REYB2SRC49PCEEK9H","","47.89999997615814","img/food5.png","75","49.800000071525574","2","0","false","3","2","1,0.5,0,1,0.5,0,0.5,0,1","1,0.5,0,1,0.5,0,0.5,0,1","1",""
"","html-keyboard-response","10","52684","0.0-13.0","3DQQ64TANH77AYMG87CTBOZNC6IWPK","A2QFZ2524HID2B","3I7KR83SNAZT1REYB2SRC49PCEEK9H","","null","<img src=""img/food5.png"" style=""width:200px;border:14px solid red;"">","null","","","","","","","","","",""
"","image-keyboard-response","11","52787","0.0-15.0","3DQQ64TANH77AYMG87CTBOZNC6IWPK","A2QFZ2524HID2B","3I7KR83SNAZT1REYB2SRC49PCEEK9H","","101.20000004768372","img/food2.png","75","103","2","0","false","2","2","1,0.5,0,1,0.5,0,0.5,0,1","1,0.5,0,1,0.5,0,0.5,0,1","1",""
"","html-keyboard-response","12","53092","0.0-16.0","3DQQ64TANH77AYMG87CTBOZNC6IWPK","A2QFZ2524HID2B","3I7KR83SNAZT1REYB2SRC49PCEEK9H","","null","<img src=""img/food2.png"" style=""width:200px;border:14px solid red;"">","null","","","","","","","","","",""
"","image-keyboard-response","13","53121","0.0-18.0","3DQQ64TANH77AYMG87CTBOZNC6IWPK","A2QFZ2524HID2B","3I7KR83SNAZT1REYB2SRC49PCEEK9H","","26.200000047683716","img/food4.png","74","27.899999976158142","1","1","false","1","2","1,0.5,0,1,0.5,0,0.5,0,1","1,0.5,0,1,0.5,0,0.5,0,1","1",""
"","html-keyboard-response","14","53426","0.0-19.0","3DQQ64TANH77AYMG87CTBOZNC6IWPK","A2QFZ2524HID2B","3I7KR83SNAZT1REYB2SRC49PCEEK9H","","null","<img src=""img/food4.png"" style=""width:200px; border:14px solid green;"">","null","","","","","","","","","",""
"","image-keyboard-response","15","53590","0.0-21.0","3DQQ64TANH77AYMG87CTBOZNC6IWPK","A2QFZ2524HID2B","3I7KR83SNAZT1REYB2SRC49PCEEK9H","","161.79999995231628","img/food5.png","75","163.80000007152557","2","0","false","3","2","1,0.5,0,1,0.5,0,0.5,0,1","1,0.5,0,1,0.5,0,0.5,0,1","1",""
"","html-keyboard-response","16","53901","0.0-22.0","3DQQ64TANH77AYMG87CTBOZNC6IWPK","A2QFZ2524HID2B","3I7KR83SNAZT1REYB2SRC49PCEEK9H","","null","<img src=""img/food5.png"" style=""width:200px;border:14px solid red;"">","null","","","","","","","","","",""
"","image-keyboard-response","17","53920","0.0-24.0","3DQQ64TANH77AYMG87CTBOZNC6IWPK","A2QFZ2524HID2B","3I7KR83SNAZT1REYB2SRC49PCEEK9H","","16.899999976158142","img/food5.png","76","18.799999952316284","3","1","false","3","2","1,0.5,0,1,0.5,0,0.5,0,1","1,0.5,0,1,0.5,0,0.5,0,1","1",""
"","html-keyboard-response","18","54228","0.0-25.0","3DQQ64TANH77AYMG87CTBOZNC6IWPK","A2QFZ2524HID2B","3I7KR83SNAZT1REYB2SRC49PCEEK9H","","null","<img src=""img/food5.png"" style=""width:200px; border:14px solid green;"">","null","","","","","","","","","",""
"","image-keyboard-response","19","54341","0.0-27.0","3DQQ64TANH77AYMG87CTBOZNC6IWPK","A2QFZ2524HID2B","3I7KR83SNAZT1REYB2SRC49PCEEK9H","","110.10000002384186","img/food4.png","74","112.10000002384186","1","1","false","1","2","1,0.5,0,1,0.5,0,0.5,0,1","1,0.5,0,1,0.5,0,0.5,0,1","1",""
"","html-keyboard-response","20","54644","0.0-28.0","3DQQ64TANH77AYMG87CTBOZNC6IWPK","A2QFZ2524HID2B","3I7KR83SNAZT1REYB2SRC49PCEEK9H","","null","<img src=""img/food4.png"" style=""width:200px; border:14px solid green;"">","null","","","","","","","","","",""
"","image-keyboard-response","21","54658","0.0-30.0","3DQQ64TANH77AYMG87CTBOZNC6IWPK","A2QFZ2524HID2B","3I7KR83SNAZT1REYB2SRC49PCEEK9H","","11.399999976158142","img/food2.png","74","13.200000047683716","1","1","false","2","2","1,0.5,0,1,0.5,0,0.5,0,1","1,0.5,0,1,0.5,0,0.5,0,1","1",""
"","html-keyboard-response","22","54964","0.0-31.0","3DQQ64TANH77AYMG87CTBOZNC6IWPK","A2QFZ2524HID2B","3I7KR83SNAZT1REYB2SRC49PCEEK9H","","null","<img src=""img/food2.png"" style=""width:200px; border:14px solid green;"">","null","","","","","","","","","",""
"","image-keyboard-response","23","54988","0.0-33.0","3DQQ64TANH77AYMG87CTBOZNC6IWPK","A2QFZ2524HID2B","3I7KR83SNAZT1REYB2SRC49PCEEK9H","","22.100000023841858","img/food5.png","74","23.90000009536743","1","1","false","3","2","1,0.5,0,1,0.5,0,0.5,0,1","1,0.5,0,1,0.5,0,0.5,0,1","1",""
"","html-keyboard-response","24","55292","0.0-34.0","3DQQ64TANH77AYMG87CTBOZNC6IWPK","A2QFZ2524HID2B","3I7KR83SNAZT1REYB2SRC49PCEEK9H","","null","<img src=""img/food5.png"" style=""width:200px; border:14px solid green;"">","null","","","","","","","","","",""
"","image-keyboard-response","25","55456","0.0-36.0","3DQQ64TANH77AYMG87CTBOZNC6IWPK","A2QFZ2524HID2B","3I7KR83SNAZT1REYB2SRC49PCEEK9H","","161.20000004768372","img/food4.png","75","163.20000004768372","2","1","false","1","2","1,0.5,0,1,0.5,0,0.5,0,1","1,0.5,0,1,0.5,0,0.5,0,1","1",""
"","html-keyboard-response","26","55764","0.0-37.0","3DQQ64TANH77AYMG87CTBOZNC6IWPK","A2QFZ2524HID2B","3I7KR83SNAZT1REYB2SRC49PCEEK9H","","null","<img src=""img/food4.png"" style=""width:200px; border:14px solid green;"">","null","","","","","","","","","",""
"","image-keyboard-response","27","55823","0.0-39.0","3DQQ64TANH77AYMG87CTBOZNC6IWPK","A2QFZ2524HID2B","3I7KR83SNAZT1REYB2SRC49PCEEK9H","","56.39999997615814","img/food2.png","74","58.200000047683716","1","1","false","2","2","1,0.5,0,1,0.5,0,0.5,0,1","1,0.5,0,1,0.5,0,0.5,0,1","1",""
"","html-keyboard-response","28","56132","0.0-40.0","3DQQ64TANH77AYMG87CTBOZNC6IWPK","A2QFZ2524HID2B","3I7KR83SNAZT1REYB2SRC49PCEEK9H","","null","<img src=""img/food2.png"" style=""width:200px; border:14px solid green;"">","null","","","","","","","","","",""
"","image-keyboard-response","29","56224","0.0-42.0","3DQQ64TANH77AYMG87CTBOZNC6IWPK","A2QFZ2524HID2B","3I7KR83SNAZT1REYB2SRC49PCEEK9H","","89.5","img/food5.png","75","91.20000004768372","2","0","false","3","2","1,0.5,0,1,0.5,0,0.5,0,1","1,0.5,0,1,0.5,0,0.5,0,1","1",""
"","html-keyboard-response","30","56532","0.0-43.0","3DQQ64TANH77AYMG87CTBOZNC6IWPK","A2QFZ2524HID2B","3I7KR83SNAZT1REYB2SRC49PCEEK9H","","null","<img src=""img/food5.png"" style=""width:200px;border:14px solid red;"">","null","","","","","","","","","",""
"","image-keyboard-response","31","56569","0.0-45.0","3DQQ64TANH77AYMG87CTBOZNC6IWPK","A2QFZ2524HID2B","3I7KR83SNAZT1REYB2SRC49PCEEK9H","","34.699999928474426","img/food4.png","74","36.299999952316284","1","1","false","1","2","1,0.5,0,1,0.5,0,0.5,0,1","1,0.5,0,1,0.5,0,0.5,0,1","1",""
"","html-keyboard-response","32","56876","0.0-46.0","3DQQ64TANH77AYMG87CTBOZNC6IWPK","A2QFZ2524HID2B","3I7KR83SNAZT1REYB2SRC49PCEEK9H","","null","<img src=""img/food4.png"" style=""width:200px; border:14px solid green;"">","null","","","","","","","","","",""
"","image-keyboard-response","33","57105","0.0-48.0","3DQQ64TANH77AYMG87CTBOZNC6IWPK","A2QFZ2524HID2B","3I7KR83SNAZT1REYB2SRC49PCEEK9H","","226.60000002384186","img/food4.png","76","228.5","3","0","false","1","2","1,0.5,0,1,0.5,0,0.5,0,1","1,0.5,0,1,0.5,0,0.5,0,1","1",""
"","html-keyboard-response","34","57412","0.0-49.0","3DQQ64TANH77AYMG87CTBOZNC6IWPK","A2QFZ2524HID2B","3I7KR83SNAZT1REYB2SRC49PCEEK9H","","null","<img src=""img/food4.png"" style=""width:200px;border:14px solid red;"">","null","","","","","","","","","",""
"","image-keyboard-response","35","57418","0.0-51.0","3DQQ64TANH77AYMG87CTBOZNC6IWPK","A2QFZ2524HID2B","3I7KR83SNAZT1REYB2SRC49PCEEK9H","","3.299999952316284","img/food2.png","76","5.100000023841858","3","0","false","2","2","1,0.5,0,1,0.5,0,0.5,0,1","1,0.5,0,1,0.5,0,0.5,0,1","1",""
"","html-keyboard-response","36","57724","0.0-52.0","3DQQ64TANH77AYMG87CTBOZNC6IWPK","A2QFZ2524HID2B","3I7KR83SNAZT1REYB2SRC49PCEEK9H","","null","<img src=""img/food2.png"" style=""width:200px;border:14px solid red;"">","null","","","","","","","","","",""
"","image-keyboard-response","37","57735","0.0-54.0","3DQQ64TANH77AYMG87CTBOZNC6IWPK","A2QFZ2524HID2B","3I7KR83SNAZT1REYB2SRC49PCEEK9H","","8.199999928474426","img/food2.png","76","9.899999976158142","3","0","false","2","2","1,0.5,0,1,0.5,0,0.5,0,1","1,0.5,0,1,0.5,0,0.5,0,1","1",""
"","html-keyboard-response","38","58044","0.0-55.0","3DQQ64TANH77AYMG87CTBOZNC6IWPK","A2QFZ2524HID2B","3I7KR83SNAZT1REYB2SRC49PCEEK9H","","null","<img src=""img/food2.png"" style=""width:200px;border:14px solid red;"">","null","","","","","","","","","",""
"","image-keyboard-response","39","58084","0.0-57.0","3DQQ64TANH77AYMG87CTBOZNC6IWPK","A2QFZ2524HID2B","3I7KR83SNAZT1REYB2SRC49PCEEK9H","","38.09999990463257","img/food4.png","76","39.799999952316284","3","0","false","1","2","1,0.5,0,1,0.5,0,0.5,0,1","1,0.5,0,1,0.5,0,0.5,0,1","1",""
"","html-keyboard-response","40","58388","0.0-58.0","3DQQ64TANH77AYMG87CTBOZNC6IWPK","A2QFZ2524HID2B","3I7KR83SNAZT1REYB2SRC49PCEEK9H","","null","<img src=""img/food4.png"" style=""width:200px;border:14px solid red;"">","null","","","","","","","","","",""
"","image-keyboard-response","41","58476","0.0-60.0","3DQQ64TANH77AYMG87CTBOZNC6IWPK","A2QFZ2524HID2B","3I7KR83SNAZT1REYB2SRC49PCEEK9H","","85.5","img/food5.png","76","87.5","3","1","false","3","2","1,0.5,0,1,0.5,0,0.5,0,1","1,0.5,0,1,0.5,0,0.5,0,1","1",""
"","html-keyboard-response","42","58780","0.0-61.0","3DQQ64TANH77AYMG87CTBOZNC6IWPK","A2QFZ2524HID2B","3I7KR83SNAZT1REYB2SRC49PCEEK9H","","null","<img src=""img/food5.png"" style=""width:200px; border:14px solid green;"">","null","","","","","","","","","",""
"","image-keyboard-response","43","58918","0.0-63.0","3DQQ64TANH77AYMG87CTBOZNC6IWPK","A2QFZ2524HID2B","3I7KR83SNAZT1REYB2SRC49PCEEK9H","","134.89999997615814","img/food2.png","76","136.89999997615814","3","0","false","2","2","1,0.5,0,1,0.5,0,0.5,0,1","1,0.5,0,1,0.5,0,0.5,0,1","1",""
"","html-keyboard-response","44","59228","0.0-64.0","3DQQ64TANH77AYMG87CTBOZNC6IWPK","A2QFZ2524HID2B","3I7KR83SNAZT1REYB2SRC49PCEEK9H","","null","<img src=""img/food2.png"" style=""width:200px;border:14px solid red;"">","null","","","","","","","","","",""
"","image-keyboard-response","45","59517","0.0-66.0","3DQQ64TANH77AYMG87CTBOZNC6IWPK","A2QFZ2524HID2B","3I7KR83SNAZT1REYB2SRC49PCEEK9H","","287","img/food2.png","76","288.39999997615814","3","0","false","2","2","1,0.5,0,1,0.5,0,0.5,0,1","1,0.5,0,1,0.5,0,0.5,0,1","1",""
"","html-keyboard-response","46","59822","0.0-67.0","3DQQ64TANH77AYMG87CTBOZNC6IWPK","A2QFZ2524HID2B","3I7KR83SNAZT1REYB2SRC49PCEEK9H","","null","<img src=""img/food2.png"" style=""width:200px;border:14px solid red;"">","null","","","","","","","","","",""
"","image-keyboard-response","47","59857","0.0-69.0","3DQQ64TANH77AYMG87CTBOZNC6IWPK","A2QFZ2524HID2B","3I7KR83SNAZT1REYB2SRC49PCEEK9H","","32.699999928474426","img/food4.png","74","34.39999997615814","1","1","false","1","2","1,0.5,0,1,0.5,0,0.5,0,1","1,0.5,0,1,0.5,0,0.5,0,1","1",""
"","html-keyboard-response","48","60165","0.0-70.0","3DQQ64TANH77AYMG87CTBOZNC6IWPK","A2QFZ2524HID2B","3I7KR83SNAZT1REYB2SRC49PCEEK9H","","null","<img src=""img/food4.png"" style=""width:200px; border:14px solid green;"">","null","","","","","","","","","",""
"","image-keyboard-response","49","60376","0.0-72.0","3DQQ64TANH77AYMG87CTBOZNC6IWPK","A2QFZ2524HID2B","3I7KR83SNAZT1REYB2SRC49PCEEK9H","","208.5","img/food5.png","74","210.70000004768372","1","0","false","3","2","1,0.5,0,1,0.5,0,0.5,0,1","1,0.5,0,1,0.5,0,0.5,0,1","1",""
"","html-keyboard-response","50","60684","0.0-73.0","3DQQ64TANH77AYMG87CTBOZNC6IWPK","A2QFZ2524HID2B","3I7KR83SNAZT1REYB2SRC49PCEEK9H","","null","<img src=""img/food5.png"" style=""width:200px;border:14px solid red;"">","null","","","","","","","","","",""
"","image-keyboard-response","51","61126","0.0-75.0","3DQQ64TANH77AYMG87CTBOZNC6IWPK","A2QFZ2524HID2B","3I7KR83SNAZT1REYB2SRC49PCEEK9H","","439.5","img/food4.png","74","441.3000000715256","1","1","false","1","2","1,0.5,0,1,0.5,0,0.5,0,1","1,0.5,0,1,0.5,0,0.5,0,1","1",""
"","html-keyboard-response","52","61435","0.0-76.0","3DQQ64TANH77AYMG87CTBOZNC6IWPK","A2QFZ2524HID2B","3I7KR83SNAZT1REYB2SRC49PCEEK9H","","null","<img src=""img/food4.png"" style=""width:200px; border:14px solid green;"">","null","","","","","","","","","",""
"","image-keyboard-response","53","61457","0.0-78.0","3DQQ64TANH77AYMG87CTBOZNC6IWPK","A2QFZ2524HID2B","3I7KR83SNAZT1REYB2SRC49PCEEK9H","","19.299999952316284","img/food2.png","76","21","3","0","false","2","2","1,0.5,0,1,0.5,0,0.5,0,1","1,0.5,0,1,0.5,0,0.5,0,1","1",""
"","html-keyboard-response","54","61764","0.0-79.0","3DQQ64TANH77AYMG87CTBOZNC6IWPK","A2QFZ2524HID2B","3I7KR83SNAZT1REYB2SRC49PCEEK9H","","null","<img src=""img/food2.png"" style=""width:200px;border:14px solid red;"">","null","","","","","","","","","",""
"","image-keyboard-response","55","61810","0.0-81.0","3DQQ64TANH77AYMG87CTBOZNC6IWPK","A2QFZ2524HID2B","3I7KR83SNAZT1REYB2SRC49PCEEK9H","","43.200000047683716","img/food5.png","76","45.10000002384186","3","1","false","3","2","1,0.5,0,1,0.5,0,0.5,0,1","1,0.5,0,1,0.5,0,0.5,0,1","1",""
"","html-keyboard-response","56","62116","0.0-82.0","3DQQ64TANH77AYMG87CTBOZNC6IWPK","A2QFZ2524HID2B","3I7KR83SNAZT1REYB2SRC49PCEEK9H","","null","<img src=""img/food5.png"" style=""width:200px; border:14px solid green;"">","null","","","","","","","","","",""
"","image-keyboard-response","57","62128","0.0-84.0","3DQQ64TANH77AYMG87CTBOZNC6IWPK","A2QFZ2524HID2B","3I7KR83SNAZT1REYB2SRC49PCEEK9H","","8.899999976158142","img/food4.png","74","11.5","1","1","false","1","2","1,0.5,0,1,0.5,0,0.5,0,1","1,0.5,0,1,0.5,0,0.5,0,1","1",""
"","html-keyboard-response","58","62436","0.0-85.0","3DQQ64TANH77AYMG87CTBOZNC6IWPK","A2QFZ2524HID2B","3I7KR83SNAZT1REYB2SRC49PCEEK9H","","null","<img src=""img/food4.png"" style=""width:200px; border:14px solid green;"">","null","","","","","","","","","",""
"","image-keyboard-response","59","62445","0.0-87.0","3DQQ64TANH77AYMG87CTBOZNC6IWPK","A2QFZ2524HID2B","3I7KR83SNAZT1REYB2SRC49PCEEK9H","","6.800000071525574","img/food4.png","75","8.599999904632568","2","1","false","1","2","1,0.5,0,1,0.5,0,0.5,0,1","1,0.5,0,1,0.5,0,0.5,0,1","1",""
"","html-keyboard-response","60","62748","0.0-88.0","3DQQ64TANH77AYMG87CTBOZNC6IWPK","A2QFZ2524HID2B","3I7KR83SNAZT1REYB2SRC49PCEEK9H","","null","<img src=""img/food4.png"" style=""width:200px; border:14px solid green;"">","null","","","","","","","","","",""
"","image-keyboard-response","61","62761","0.0-90.0","3DQQ64TANH77AYMG87CTBOZNC6IWPK","A2QFZ2524HID2B","3I7KR83SNAZT1REYB2SRC49PCEEK9H","","10.600000023841858","img/food5.png","75","13","2","0","false","3","2","1,0.5,0,1,0.5,0,0.5,0,1","1,0.5,0,1,0.5,0,0.5,0,1","1",""
"","html-keyboard-response","62","63067","0.0-91.0","3DQQ64TANH77AYMG87CTBOZNC6IWPK","A2QFZ2524HID2B","3I7KR83SNAZT1REYB2SRC49PCEEK9H","","null","<img src=""img/food5.png"" style=""width:200px;border:14px solid red;"">","null","","","","","","","","","",""
"","image-keyboard-response","63","63206","0.0-93.0","3DQQ64TANH77AYMG87CTBOZNC6IWPK","A2QFZ2524HID2B","3I7KR83SNAZT1REYB2SRC49PCEEK9H","","137.29999995231628","img/food2.png","75","138.70000004768372","2","0","false","2","2","1,0.5,0,1,0.5,0,0.5,0,1","1,0.5,0,1,0.5,0,0.5,0,1","1",""
"","html-keyboard-response","64","63516","0.0-94.0","3DQQ64TANH77AYMG87CTBOZNC6IWPK","A2QFZ2524HID2B","3I7KR83SNAZT1REYB2SRC49PCEEK9H","","null","<img src=""img/food2.png"" style=""width:200px;border:14px solid red;"">","null","","","","","","","","","",""
"","image-keyboard-response","65","63519","0.0-96.0","3DQQ64TANH77AYMG87CTBOZNC6IWPK","A2QFZ2524HID2B","3I7KR83SNAZT1REYB2SRC49PCEEK9H","","0.8999999761581421","img/food5.png","75","2.600000023841858","2","0","false","3","2","1,0.5,0,1,0.5,0,0.5,0,1","1,0.5,0,1,0.5,0,0.5,0,1","1",""
"","html-keyboard-response","66","63827","0.0-97.0","3DQQ64TANH77AYMG87CTBOZNC6IWPK","A2QFZ2524HID2B","3I7KR83SNAZT1REYB2SRC49PCEEK9H","","null","<img src=""img/food5.png"" style=""width:200px;border:14px solid red;"">","null","","","","","","","","","",""
"","image-keyboard-response","67","63869","0.0-99.0","3DQQ64TANH77AYMG87CTBOZNC6IWPK","A2QFZ2524HID2B","3I7KR83SNAZT1REYB2SRC49PCEEK9H","","39.199999928474426","img/food5.png","74","41","1","0","false","3","2","1,0.5,0,1,0.5,0,0.5,0,1","1,0.5,0,1,0.5,0,0.5,0,1","1",""
"","html-keyboard-response","68","64172","0.0-100.0","3DQQ64TANH77AYMG87CTBOZNC6IWPK","A2QFZ2524HID2B","3I7KR83SNAZT1REYB2SRC49PCEEK9H","","null","<img src=""img/food5.png"" style=""width:200px;border:14px solid red;"">","null","","","","","","","","","",""
"","image-keyboard-response","69","64213","0.0-102.0","3DQQ64TANH77AYMG87CTBOZNC6IWPK","A2QFZ2524HID2B","3I7KR83SNAZT1REYB2SRC49PCEEK9H","","38.199999928474426","img/food5.png","74","40.10000002384186","1","0","false","3","2","1,0.5,0,1,0.5,0,0.5,0,1","1,0.5,0,1,0.5,0,0.5,0,1","1",""
"","html-keyboard-response","70","64516","0.0-103.0","3DQQ64TANH77AYMG87CTBOZNC6IWPK","A2QFZ2524HID2B","3I7KR83SNAZT1REYB2SRC49PCEEK9H","","null","<img src=""img/food5.png"" style=""width:200px;border:14px solid red;"">","null","","","","","","","","","",""
"","image-keyboard-response","71","64576","0.0-105.0","3DQQ64TANH77AYMG87CTBOZNC6IWPK","A2QFZ2524HID2B","3I7KR83SNAZT1REYB2SRC49PCEEK9H","","57.5","img/food5.png","76","59.5","3","1","false","3","2","1,0.5,0,1,0.5,0,0.5,0,1","1,0.5,0,1,0.5,0,0.5,0,1","1",""
"","html-keyboard-response","72","64884","0.0-106.0","3DQQ64TANH77AYMG87CTBOZNC6IWPK","A2QFZ2524HID2B","3I7KR83SNAZT1REYB2SRC49PCEEK9H","","null","<img src=""img/food5.png"" style=""width:200px; border:14px solid green;"">","null","","","","","","","","","",""
"","image-keyboard-response","73","65077","0.0-108.0","3DQQ64TANH77AYMG87CTBOZNC6IWPK","A2QFZ2524HID2B","3I7KR83SNAZT1REYB2SRC49PCEEK9H","","190.19999992847443","img/food5.png","75","192","2","0","false","3","2","1,0.5,0,1,0.5,0,0.5,0,1","1,0.5,0,1,0.5,0,0.5,0,1","1",""
"","html-keyboard-response","74","65380","0.0-109.0","3DQQ64TANH77AYMG87CTBOZNC6IWPK","A2QFZ2524HID2B","3I7KR83SNAZT1REYB2SRC49PCEEK9H","","null","<img src=""img/food5.png"" style=""width:200px;border:14px solid red;"">","null","","","","","","","","","",""
"","image-keyboard-response","75","65467","0.0-111.0","3DQQ64TANH77AYMG87CTBOZNC6IWPK","A2QFZ2524HID2B","3I7KR83SNAZT1REYB2SRC49PCEEK9H","","84.39999997615814","img/food5.png","75","86.30000007152557","2","0","false","3","2","1,0.5,0,1,0.5,0,0.5,0,1","1,0.5,0,1,0.5,0,0.5,0,1","1",""
"","html-keyboard-response","76","65771","0.0-112.0","3DQQ64TANH77AYMG87CTBOZNC6IWPK","A2QFZ2524HID2B","3I7KR83SNAZT1REYB2SRC49PCEEK9H","","null","<img src=""img/food5.png"" style=""width:200px;border:14px solid red;"">","null","","","","","","","","","",""
"","image-keyboard-response","77","65808","0.0-114.0","3DQQ64TANH77AYMG87CTBOZNC6IWPK","A2QFZ2524HID2B","3I7KR83SNAZT1REYB2SRC49PCEEK9H","","33.699999928474426","img/food2.png","76","35.60000002384186","3","0","false","2","2","1,0.5,0,1,0.5,0,0.5,0,1","1,0.5,0,1,0.5,0,0.5,0,1","1",""
"","html-keyboard-response","78","66116","0.0-115.0","3DQQ64TANH77AYMG87CTBOZNC6IWPK","A2QFZ2524HID2B","3I7KR83SNAZT1REYB2SRC49PCEEK9H","","null","<img src=""img/food2.png"" style=""width:200px;border:14px solid red;"">","null","","","","","","","","","",""
"","image-keyboard-response","79","66249","0.0-117.0","3DQQ64TANH77AYMG87CTBOZNC6IWPK","A2QFZ2524HID2B","3I7KR83SNAZT1REYB2SRC49PCEEK9H","","130.39999997615814","img/food4.png","75","132.30000007152557","2","1","false","1","2","1,0.5,0,1,0.5,0,0.5,0,1","1,0.5,0,1,0.5,0,0.5,0,1","1",""
"","html-keyboard-response","80","66556","0.0-118.0","3DQQ64TANH77AYMG87CTBOZNC6IWPK","A2QFZ2524HID2B","3I7KR83SNAZT1REYB2SRC49PCEEK9H","","null","<img src=""img/food4.png"" style=""width:200px; border:14px solid green;"">","null","","","","","","","","","",""
"","image-keyboard-response","81","66604","0.0-120.0","3DQQ64TANH77AYMG87CTBOZNC6IWPK","A2QFZ2524HID2B","3I7KR83SNAZT1REYB2SRC49PCEEK9H","","45.299999952316284","img/food2.png","76","47.10000002384186","3","0","false","2","2","1,0.5,0,1,0.5,0,0.5,0,1","1,0.5,0,1,0.5,0,0.5,0,1","1",""
"","html-keyboard-response","82","66908","0.0-121.0","3DQQ64TANH77AYMG87CTBOZNC6IWPK","A2QFZ2524HID2B","3I7KR83SNAZT1REYB2SRC49PCEEK9H","","null","<img src=""img/food2.png"" style=""width:200px;border:14px solid red;"">","null","","","","","","","","","",""
"","image-keyboard-response","83","66990","0.0-123.0","3DQQ64TANH77AYMG87CTBOZNC6IWPK","A2QFZ2524HID2B","3I7KR83SNAZT1REYB2SRC49PCEEK9H","","79.80000007152557","img/food2.png","75","81.89999997615814","2","1","false","2","2","1,0.5,0,1,0.5,0,0.5,0,1","1,0.5,0,1,0.5,0,0.5,0,1","1",""
"","html-keyboard-response","84","67301","0.0-124.0","3DQQ64TANH77AYMG87CTBOZNC6IWPK","A2QFZ2524HID2B","3I7KR83SNAZT1REYB2SRC49PCEEK9H","","null","<img src=""img/food2.png"" style=""width:200px; border:14px solid green;"">","null","","","","","","","","","",""
"","image-keyboard-response","85","67327","0.0-126.0","3DQQ64TANH77AYMG87CTBOZNC6IWPK","A2QFZ2524HID2B","3I7KR83SNAZT1REYB2SRC49PCEEK9H","","24","img/food4.png","76","25.799999952316284","3","0","false","1","2","1,0.5,0,1,0.5,0,0.5,0,1","1,0.5,0,1,0.5,0,0.5,0,1","1",""
"","html-keyboard-response","86","67636","0.0-127.0","3DQQ64TANH77AYMG87CTBOZNC6IWPK","A2QFZ2524HID2B","3I7KR83SNAZT1REYB2SRC49PCEEK9H","","null","<img src=""img/food4.png"" style=""width:200px;border:14px solid red;"">","null","","","","","","","","","",""
"","image-keyboard-response","87","67685","0.0-129.0","3DQQ64TANH77AYMG87CTBOZNC6IWPK","A2QFZ2524HID2B","3I7KR83SNAZT1REYB2SRC49PCEEK9H","","47.299999952316284","img/food2.png","74","49.299999952316284","1","1","false","2","2","1,0.5,0,1,0.5,0,0.5,0,1","1,0.5,0,1,0.5,0,0.5,0,1","1",""
"","html-keyboard-response","88","67995","0.0-130.0","3DQQ64TANH77AYMG87CTBOZNC6IWPK","A2QFZ2524HID2B","3I7KR83SNAZT1REYB2SRC49PCEEK9H","","null","<img src=""img/food2.png"" style=""width:200px; border:14px solid green;"">","null","","","","","","","","","",""
"","image-keyboard-response","89","68118","0.0-132.0","3DQQ64TANH77AYMG87CTBOZNC6IWPK","A2QFZ2524HID2B","3I7KR83SNAZT1REYB2SRC49PCEEK9H","","120.40000009536743","img/food5.png","74","122.19999992847443","1","0","false","3","2","1,0.5,0,1,0.5,0,0.5,0,1","1,0.5,0,1,0.5,0,0.5,0,1","1",""
"","html-keyboard-response","90","68428","0.0-133.0","3DQQ64TANH77AYMG87CTBOZNC6IWPK","A2QFZ2524HID2B","3I7KR83SNAZT1REYB2SRC49PCEEK9H","","null","<img src=""img/food5.png"" style=""width:200px;border:14px solid red;"">","null","","","","","","","","","",""
"","image-keyboard-response","91","68491","0.0-135.0","3DQQ64TANH77AYMG87CTBOZNC6IWPK","A2QFZ2524HID2B","3I7KR83SNAZT1REYB2SRC49PCEEK9H","","61.39999997615814","img/food4.png","76","63.299999952316284","3","0","false","1","2","1,0.5,0,1,0.5,0,0.5,0,1","1,0.5,0,1,0.5,0,0.5,0,1","1",""
"","html-keyboard-response","92","68796","0.0-136.0","3DQQ64TANH77AYMG87CTBOZNC6IWPK","A2QFZ2524HID2B","3I7KR83SNAZT1REYB2SRC49PCEEK9H","","null","<img src=""img/food4.png"" style=""width:200px;border:14px solid red;"">","null","","","","","","","","","",""
"","image-keyboard-response","93","68816","0.0-138.0","3DQQ64TANH77AYMG87CTBOZNC6IWPK","A2QFZ2524HID2B","3I7KR83SNAZT1REYB2SRC49PCEEK9H","","17.299999952316284","img/food2.png","75","19.100000023841858","2","0","false","2","2","1,0.5,0,1,0.5,0,0.5,0,1","1,0.5,0,1,0.5,0,0.5,0,1","1",""
"","html-keyboard-response","94","69119","0.0-139.0","3DQQ64TANH77AYMG87CTBOZNC6IWPK","A2QFZ2524HID2B","3I7KR83SNAZT1REYB2SRC49PCEEK9H","","null","<img src=""img/food2.png"" style=""width:200px;border:14px solid red;"">","null","","","","","","","","","",""
"","image-keyboard-response","95","69292","0.0-141.0","3DQQ64TANH77AYMG87CTBOZNC6IWPK","A2QFZ2524HID2B","3I7KR83SNAZT1REYB2SRC49PCEEK9H","","171.70000004768372","img/food5.png","76","173.5","3","1","false","3","2","1,0.5,0,1,0.5,0,0.5,0,1","1,0.5,0,1,0.5,0,0.5,0,1","1",""
"","html-keyboard-response","96","69597","0.0-142.0","3DQQ64TANH77AYMG87CTBOZNC6IWPK","A2QFZ2524HID2B","3I7KR83SNAZT1REYB2SRC49PCEEK9H","","null","<img src=""img/food5.png"" style=""width:200px; border:14px solid green;"">","null","","","","","","","","","",""
"","image-keyboard-response","97","69797","0.0-144.0","3DQQ64TANH77AYMG87CTBOZNC6IWPK","A2QFZ2524HID2B","3I7KR83SNAZT1REYB2SRC49PCEEK9H","","197.60000002384186","img/food2.png","74","199.40000009536743","1","1","false","2","2","1,0.5,0,1,0.5,0,0.5,0,1","1,0.5,0,1,0.5,0,0.5,0,1","1",""
"","html-keyboard-response","98","70107","0.0-145.0","3DQQ64TANH77AYMG87CTBOZNC6IWPK","A2QFZ2524HID2B","3I7KR83SNAZT1REYB2SRC49PCEEK9H","","null","<img src=""img/food2.png"" style=""width:200px; border:14px solid green;"">","null","","","","","","","","","",""
"","image-keyboard-response","99","70266","0.0-147.0","3DQQ64TANH77AYMG87CTBOZNC6IWPK","A2QFZ2524HID2B","3I7KR83SNAZT1REYB2SRC49PCEEK9H","","155.79999995231628","img/food5.png","75","157.60000002384186","2","0","false","3","2","1,0.5,0,1,0.5,0,0.5,0,1","1,0.5,0,1,0.5,0,0.5,0,1","1",""
"","html-keyboard-response","100","70572","0.0-148.0","3DQQ64TANH77AYMG87CTBOZNC6IWPK","A2QFZ2524HID2B","3I7KR83SNAZT1REYB2SRC49PCEEK9H","","null","<img src=""img/food5.png"" style=""width:200px;border:14px solid red;"">","null","","","","","","","","","",""
"","image-keyboard-response","101","70642","0.0-150.0","3DQQ64TANH77AYMG87CTBOZNC6IWPK","A2QFZ2524HID2B","3I7KR83SNAZT1REYB2SRC49PCEEK9H","","67.10000002384186","img/food4.png","75","69","2","1","false","1","2","1,0.5,0,1,0.5,0,0.5,0,1","1,0.5,0,1,0.5,0,0.5,0,1","1",""
"","html-keyboard-response","102","70948","0.0-151.0","3DQQ64TANH77AYMG87CTBOZNC6IWPK","A2QFZ2524HID2B","3I7KR83SNAZT1REYB2SRC49PCEEK9H","","null","<img src=""img/food4.png"" style=""width:200px; border:14px solid green;"">","null","","","","","","","","","",""
"","image-keyboard-response","103","71022","0.0-153.0","3DQQ64TANH77AYMG87CTBOZNC6IWPK","A2QFZ2524HID2B","3I7KR83SNAZT1REYB2SRC49PCEEK9H","","72.30000007152557","img/food2.png","76","74.10000002384186","3","0","false","2","2","1,0.5,0,1,0.5,0,0.5,0,1","1,0.5,0,1,0.5,0,0.5,0,1","1",""
"","html-keyboard-response","104","71332","0.0-154.0","3DQQ64TANH77AYMG87CTBOZNC6IWPK","A2QFZ2524HID2B","3I7KR83SNAZT1REYB2SRC49PCEEK9H","","null","<img src=""img/food2.png"" style=""width:200px;border:14px solid red;"">","null","","","","","","","","","",""
"","image-keyboard-response","105","71474","0.0-156.0","3DQQ64TANH77AYMG87CTBOZNC6IWPK","A2QFZ2524HID2B","3I7KR83SNAZT1REYB2SRC49PCEEK9H","","139.70000004768372","img/food4.png","74","141.5","1","1","false","1","2","1,0.5,0,1,0.5,0,0.5,0,1","1,0.5,0,1,0.5,0,0.5,0,1","1",""
"","html-keyboard-response","106","71780","0.0-157.0","3DQQ64TANH77AYMG87CTBOZNC6IWPK","A2QFZ2524HID2B","3I7KR83SNAZT1REYB2SRC49PCEEK9H","","null","<img src=""img/food4.png"" style=""width:200px; border:14px solid green;"">","null","","","","","","","","","",""
"","image-keyboard-response","107","71788","0.0-159.0","3DQQ64TANH77AYMG87CTBOZNC6IWPK","A2QFZ2524HID2B","3I7KR83SNAZT1REYB2SRC49PCEEK9H","","5.399999976158142","img/food4.png","76","7.900000095367432","3","0","false","1","2","1,0.5,0,1,0.5,0,0.5,0,1","1,0.5,0,1,0.5,0,0.5,0,1","1",""
"","html-keyboard-response","108","72092","0.0-160.0","3DQQ64TANH77AYMG87CTBOZNC6IWPK","A2QFZ2524HID2B","3I7KR83SNAZT1REYB2SRC49PCEEK9H","","null","<img src=""img/food4.png"" style=""width:200px;border:14px solid red;"">","null","","","","","","","","","",""
"","image-keyboard-response","109","72230","0.0-162.0","3DQQ64TANH77AYMG87CTBOZNC6IWPK","A2QFZ2524HID2B","3I7KR83SNAZT1REYB2SRC49PCEEK9H","","135.59999990463257","img/food5.png","75","137.39999997615814","2","0","false","3","2","1,0.5,0,1,0.5,0,0.5,0,1","1,0.5,0,1,0.5,0,0.5,0,1","1",""
"","html-keyboard-response","110","72538","0.0-163.0","3DQQ64TANH77AYMG87CTBOZNC6IWPK","A2QFZ2524HID2B","3I7KR83SNAZT1REYB2SRC49PCEEK9H","","null","<img src=""img/food5.png"" style=""width:200px;border:14px solid red;"">","null","","","","","","","","","",""
"","image-keyboard-response","111","72547","0.0-165.0","3DQQ64TANH77AYMG87CTBOZNC6IWPK","A2QFZ2524HID2B","3I7KR83SNAZT1REYB2SRC49PCEEK9H","","6.700000047683716","img/food5.png","74","8.5","1","0","false","3","2","1,0.5,0,1,0.5,0,0.5,0,1","1,0.5,0,1,0.5,0,0.5,0,1","1",""
"","html-keyboard-response","112","72852","0.0-166.0","3DQQ64TANH77AYMG87CTBOZNC6IWPK","A2QFZ2524HID2B","3I7KR83SNAZT1REYB2SRC49PCEEK9H","","null","<img src=""img/food5.png"" style=""width:200px;border:14px solid red;"">","null","","","","","","","","","",""
"","image-keyboard-response","113","72896","0.0-168.0","3DQQ64TANH77AYMG87CTBOZNC6IWPK","A2QFZ2524HID2B","3I7KR83SNAZT1REYB2SRC49PCEEK9H","","42.10000002384186","img/food5.png","75","44.199999928474426","2","0","false","3","2","1,0.5,0,1,0.5,0,0.5,0,1","1,0.5,0,1,0.5,0,0.5,0,1","1",""
"","html-keyboard-response","114","73203","0.0-169.0","3DQQ64TANH77AYMG87CTBOZNC6IWPK","A2QFZ2524HID2B","3I7KR83SNAZT1REYB2SRC49PCEEK9H","","null","<img src=""img/food5.png"" style=""width:200px;border:14px solid red;"">","null","","","","","","","","","",""
"","image-keyboard-response","115","73229","0.0-171.0","3DQQ64TANH77AYMG87CTBOZNC6IWPK","A2QFZ2524HID2B","3I7KR83SNAZT1REYB2SRC49PCEEK9H","","22.399999976158142","img/food5.png","76","24.600000023841858","3","1","false","3","2","1,0.5,0,1,0.5,0,0.5,0,1","1,0.5,0,1,0.5,0,0.5,0,1","1",""
"","html-keyboard-response","116","73532","0.0-172.0","3DQQ64TANH77AYMG87CTBOZNC6IWPK","A2QFZ2524HID2B","3I7KR83SNAZT1REYB2SRC49PCEEK9H","","null","<img src=""img/food5.png"" style=""width:200px; border:14px solid green;"">","null","","","","","","","","","",""
"","image-keyboard-response","117","73545","0.0-174.0","3DQQ64TANH77AYMG87CTBOZNC6IWPK","A2QFZ2524HID2B","3I7KR83SNAZT1REYB2SRC49PCEEK9H","","10.700000047683716","img/food5.png","74","12.400000095367432","1","0","false","3","2","1,0.5,0,1,0.5,0,0.5,0,1","1,0.5,0,1,0.5,0,0.5,0,1","1",""
"","html-keyboard-response","118","73852","0.0-175.0","3DQQ64TANH77AYMG87CTBOZNC6IWPK","A2QFZ2524HID2B","3I7KR83SNAZT1REYB2SRC49PCEEK9H","","null","<img src=""img/food5.png"" style=""width:200px;border:14px solid red;"">","null","","","","","","","","","",""
"","image-keyboard-response","119","73994","0.0-177.0","3DQQ64TANH77AYMG87CTBOZNC6IWPK","A2QFZ2524HID2B","3I7KR83SNAZT1REYB2SRC49PCEEK9H","","139.60000002384186","img/food4.png","76","141.5","3","0","false","1","2","1,0.5,0,1,0.5,0,0.5,0,1","1,0.5,0,1,0.5,0,0.5,0,1","1",""
"","html-keyboard-response","120","74301","0.0-178.0","3DQQ64TANH77AYMG87CTBOZNC6IWPK","A2QFZ2524HID2B","3I7KR83SNAZT1REYB2SRC49PCEEK9H","","null","<img src=""img/food4.png"" style=""width:200px;border:14px solid red;"">","null","","","","","","","","","",""
"","image-keyboard-response","121","74541","0.0-180.0","3DQQ64TANH77AYMG87CTBOZNC6IWPK","A2QFZ2524HID2B","3I7KR83SNAZT1REYB2SRC49PCEEK9H","","237.69999992847443","img/food2.png","75","239.5","2","0","false","2","2","1,0.5,0,1,0.5,0,0.5,0,1","1,0.5,0,1,0.5,0,0.5,0,1","1",""
"","html-keyboard-response","122","74852","0.0-181.0","3DQQ64TANH77AYMG87CTBOZNC6IWPK","A2QFZ2524HID2B","3I7KR83SNAZT1REYB2SRC49PCEEK9H","","null","<img src=""img/food2.png"" style=""width:200px;border:14px solid red;"">","null","","","","","","","","","",""
"","image-keyboard-response","123","74887","0.0-183.0","3DQQ64TANH77AYMG87CTBOZNC6IWPK","A2QFZ2524HID2B","3I7KR83SNAZT1REYB2SRC49PCEEK9H","","32.60000002384186","img/food4.png","75","34.39999997615814","2","1","false","1","2","1,0.5,0,1,0.5,0,0.5,0,1","1,0.5,0,1,0.5,0,0.5,0,1","1",""
"","html-keyboard-response","124","75196","0.0-184.0","3DQQ64TANH77AYMG87CTBOZNC6IWPK","A2QFZ2524HID2B","3I7KR83SNAZT1REYB2SRC49PCEEK9H","","null","<img src=""img/food4.png"" style=""width:200px; border:14px solid green;"">","null","","","","","","","","","",""
"","image-keyboard-response","125","75200","0.0-186.0","3DQQ64TANH77AYMG87CTBOZNC6IWPK","A2QFZ2524HID2B","3I7KR83SNAZT1REYB2SRC49PCEEK9H","","1.399999976158142","img/food4.png","75","2.899999976158142","2","0","false","1","2","1,0.5,0,1,0.5,0,0.5,0,1","1,0.5,0,1,0.5,0,0.5,0,1","1",""
"","html-keyboard-response","126","75507","0.0-187.0","3DQQ64TANH77AYMG87CTBOZNC6IWPK","A2QFZ2524HID2B","3I7KR83SNAZT1REYB2SRC49PCEEK9H","","null","<img src=""img/food4.png"" style=""width:200px;border:14px solid red;"">","null","","","","","","","","","",""
"","image-keyboard-response","127","75530","0.0-189.0","3DQQ64TANH77AYMG87CTBOZNC6IWPK","A2QFZ2524HID2B","3I7KR83SNAZT1REYB2SRC49PCEEK9H","","20.600000023841858","img/food5.png","74","22.399999976158142","1","0","false","3","2","1,0.5,0,1,0.5,0,0.5,0,1","1,0.5,0,1,0.5,0,0.5,0,1","1",""
"","html-keyboard-response","128","75835","0.0-190.0","3DQQ64TANH77AYMG87CTBOZNC6IWPK","A2QFZ2524HID2B","3I7KR83SNAZT1REYB2SRC49PCEEK9H","","null","<img src=""img/food5.png"" style=""width:200px;border:14px solid red;"">","null","","","","","","","","","",""
"","image-keyboard-response","129","75899","0.0-192.0","3DQQ64TANH77AYMG87CTBOZNC6IWPK","A2QFZ2524HID2B","3I7KR83SNAZT1REYB2SRC49PCEEK9H","","60.60000002384186","img/food2.png","74","62.60000002384186","1","1","false","2","2","1,0.5,0,1,0.5,0,0.5,0,1","1,0.5,0,1,0.5,0,0.5,0,1","1",""
"","html-keyboard-response","130","76204","0.0-193.0","3DQQ64TANH77AYMG87CTBOZNC6IWPK","A2QFZ2524HID2B","3I7KR83SNAZT1REYB2SRC49PCEEK9H","","null","<img src=""img/food2.png"" style=""width:200px; border:14px solid green;"">","null","","","","","","","","","",""
"","image-keyboard-response","131","76210","0.0-195.0","3DQQ64TANH77AYMG87CTBOZNC6IWPK","A2QFZ2524HID2B","3I7KR83SNAZT1REYB2SRC49PCEEK9H","","3.600000023841858","img/food4.png","75","5.599999904632568","2","1","false","1","2","1,0.5,0,1,0.5,0,0.5,0,1","1,0.5,0,1,0.5,0,0.5,0,1","1",""
"","html-keyboard-response","132","76516","0.0-196.0","3DQQ64TANH77AYMG87CTBOZNC6IWPK","A2QFZ2524HID2B","3I7KR83SNAZT1REYB2SRC49PCEEK9H","","null","<img src=""img/food4.png"" style=""width:200px; border:14px solid green;"">","null","","","","","","","","","",""
"","image-keyboard-response","133","76541","0.0-198.0","3DQQ64TANH77AYMG87CTBOZNC6IWPK","A2QFZ2524HID2B","3I7KR83SNAZT1REYB2SRC49PCEEK9H","","22.100000023841858","img/food4.png","74","23.899999976158142","1","1","false","1","2","1,0.5,0,1,0.5,0,0.5,0,1","1,0.5,0,1,0.5,0,0.5,0,1","1",""
"","html-keyboard-response","134","76843","0.0-199.0","3DQQ64TANH77AYMG87CTBOZNC6IWPK","A2QFZ2524HID2B","3I7KR83SNAZT1REYB2SRC49PCEEK9H","","null","<img src=""img/food4.png"" style=""width:200px; border:14px solid green;"">","null","","","","","","","","","",""
"","image-keyboard-response","135","77119","0.0-201.0","3DQQ64TANH77AYMG87CTBOZNC6IWPK","A2QFZ2524HID2B","3I7KR83SNAZT1REYB2SRC49PCEEK9H","","273.39999997615814","img/food4.png","74","275.2999999523163","1","1","false","1","2","1,0.5,0,1,0.5,0,0.5,0,1","1,0.5,0,1,0.5,0,0.5,0,1","1",""
"","html-keyboard-response","136","77428","0.0-202.0","3DQQ64TANH77AYMG87CTBOZNC6IWPK","A2QFZ2524HID2B","3I7KR83SNAZT1REYB2SRC49PCEEK9H","","null","<img src=""img/food4.png"" style=""width:200px; border:14px solid green;"">","null","","","","","","","","","",""
"","image-keyboard-response","137","77484","0.0-204.0","3DQQ64TANH77AYMG87CTBOZNC6IWPK","A2QFZ2524HID2B","3I7KR83SNAZT1REYB2SRC49PCEEK9H","","53","img/food2.png","74","55.200000047683716","1","1","false","2","2","1,0.5,0,1,0.5,0,0.5,0,1","1,0.5,0,1,0.5,0,0.5,0,1","1",""
"","html-keyboard-response","138","77787","0.0-205.0","3DQQ64TANH77AYMG87CTBOZNC6IWPK","A2QFZ2524HID2B","3I7KR83SNAZT1REYB2SRC49PCEEK9H","","null","<img src=""img/food2.png"" style=""width:200px; border:14px solid green;"">","null","","","","","","","","","",""
"","image-keyboard-response","139","77818","0.0-207.0","3DQQ64TANH77AYMG87CTBOZNC6IWPK","A2QFZ2524HID2B","3I7KR83SNAZT1REYB2SRC49PCEEK9H","","28.299999952316284","img/food5.png","74","30.100000023841858","1","1","false","3","2","1,0.5,0,1,0.5,0,0.5,0,1","1,0.5,0,1,0.5,0,0.5,0,1","1",""
"","html-keyboard-response","140","78124","0.0-208.0","3DQQ64TANH77AYMG87CTBOZNC6IWPK","A2QFZ2524HID2B","3I7KR83SNAZT1REYB2SRC49PCEEK9H","","null","<img src=""img/food5.png"" style=""width:200px; border:14px solid green;"">","null","","","","","","","","","",""
"","image-keyboard-response","141","78219","0.0-210.0","3DQQ64TANH77AYMG87CTBOZNC6IWPK","A2QFZ2524HID2B","3I7KR83SNAZT1REYB2SRC49PCEEK9H","","92.60000002384186","img/food2.png","75","94.5","2","1","false","2","2","1,0.5,0,1,0.5,0,0.5,0,1","1,0.5,0,1,0.5,0,0.5,0,1","1",""
"","html-keyboard-response","142","78522","0.0-211.0","3DQQ64TANH77AYMG87CTBOZNC6IWPK","A2QFZ2524HID2B","3I7KR83SNAZT1REYB2SRC49PCEEK9H","","null","<img src=""img/food2.png"" style=""width:200px; border:14px solid green;"">","null","","","","","","","","","",""
"","image-keyboard-response","143","78638","0.0-213.0","3DQQ64TANH77AYMG87CTBOZNC6IWPK","A2QFZ2524HID2B","3I7KR83SNAZT1REYB2SRC49PCEEK9H","","113.70000004768372","img/food5.png","74","115.60000002384186","1","1","false","3","2","1,0.5,0,1,0.5,0,0.5,0,1","1,0.5,0,1,0.5,0,0.5,0,1","1",""
"","html-keyboard-response","144","78948","0.0-214.0","3DQQ64TANH77AYMG87CTBOZNC6IWPK","A2QFZ2524HID2B","3I7KR83SNAZT1REYB2SRC49PCEEK9H","","null","<img src=""img/food5.png"" style=""width:200px; border:14px solid green;"">","null","","","","","","","","","",""
"","image-keyboard-response","145","78987","0.0-216.0","3DQQ64TANH77AYMG87CTBOZNC6IWPK","A2QFZ2524HID2B","3I7KR83SNAZT1REYB2SRC49PCEEK9H","","36.5","img/food2.png","74","38.39999997615814","1","1","false","2","2","1,0.5,0,1,0.5,0,0.5,0,1","1,0.5,0,1,0.5,0,0.5,0,1","1",""
"","html-keyboard-response","146","79292","0.0-217.0","3DQQ64TANH77AYMG87CTBOZNC6IWPK","A2QFZ2524HID2B","3I7KR83SNAZT1REYB2SRC49PCEEK9H","","null","<img src=""img/food2.png"" style=""width:200px; border:14px solid green;"">","null","","","","","","","","","",""
"","image-keyboard-response","147","79296","0.0-219.0","3DQQ64TANH77AYMG87CTBOZNC6IWPK","A2QFZ2524HID2B","3I7KR83SNAZT1REYB2SRC49PCEEK9H","","2","img/food4.png","76","3.299999952316284","3","0","false","1","2","1,0.5,0,1,0.5,0,0.5,0,1","1,0.5,0,1,0.5,0,0.5,0,1","1",""
"","html-keyboard-response","148","79608","0.0-220.0","3DQQ64TANH77AYMG87CTBOZNC6IWPK","A2QFZ2524HID2B","3I7KR83SNAZT1REYB2SRC49PCEEK9H","","null","<img src=""img/food4.png"" style=""width:200px;border:14px solid red;"">","null","","","","","","","","","",""
"","image-keyboard-response","149","79680","0.0-222.0","3DQQ64TANH77AYMG87CTBOZNC6IWPK","A2QFZ2524HID2B","3I7KR83SNAZT1REYB2SRC49PCEEK9H","","69.39999997615814","img/food2.png","76","71.20000004768372","3","0","false","2","2","1,0.5,0,1,0.5,0,0.5,0,1","1,0.5,0,1,0.5,0,0.5,0,1","1",""
"","html-keyboard-response","150","79989","0.0-223.0","3DQQ64TANH77AYMG87CTBOZNC6IWPK","A2QFZ2524HID2B","3I7KR83SNAZT1REYB2SRC49PCEEK9H","","null","<img src=""img/food2.png"" style=""width:200px;border:14px solid red;"">","null","","","","","","","","","",""
"","image-keyboard-response","151","80170","0.0-225.0","3DQQ64TANH77AYMG87CTBOZNC6IWPK","A2QFZ2524HID2B","3I7KR83SNAZT1REYB2SRC49PCEEK9H","","178.5","img/food4.png","75","180.39999997615814","2","1","false","1","2","1,0.5,0,1,0.5,0,0.5,0,1","1,0.5,0,1,0.5,0,0.5,0,1","1",""
"","html-keyboard-response","152","80494","0.0-226.0","3DQQ64TANH77AYMG87CTBOZNC6IWPK","A2QFZ2524HID2B","3I7KR83SNAZT1REYB2SRC49PCEEK9H","","null","<img src=""img/food4.png"" style=""width:200px; border:14px solid green;"">","null","","","","","","","","","",""
"","image-keyboard-response","153","80657","0.0-228.0","3DQQ64TANH77AYMG87CTBOZNC6IWPK","A2QFZ2524HID2B","3I7KR83SNAZT1REYB2SRC49PCEEK9H","","159.70000004768372","img/food5.png","74","162","1","1","false","3","2","1,0.5,0,1,0.5,0,0.5,0,1","1,0.5,0,1,0.5,0,0.5,0,1","1",""
"","html-keyboard-response","154","80963","0.0-229.0","3DQQ64TANH77AYMG87CTBOZNC6IWPK","A2QFZ2524HID2B","3I7KR83SNAZT1REYB2SRC49PCEEK9H","","null","<img src=""img/food5.png"" style=""width:200px; border:14px solid green;"">","null","","","","","","","","","",""
"","image-keyboard-response","155","81162","0.0-231.0","3DQQ64TANH77AYMG87CTBOZNC6IWPK","A2QFZ2524HID2B","3I7KR83SNAZT1REYB2SRC49PCEEK9H","","196.19999992847443","img/food2.png","74","198.39999997615814","1","1","false","2","2","1,0.5,0,1,0.5,0,0.5,0,1","1,0.5,0,1,0.5,0,0.5,0,1","1",""
"","html-keyboard-response","156","81470","0.0-232.0","3DQQ64TANH77AYMG87CTBOZNC6IWPK","A2QFZ2524HID2B","3I7KR83SNAZT1REYB2SRC49PCEEK9H","","null","<img src=""img/food2.png"" style=""width:200px; border:14px solid green;"">","null","","","","","","","","","",""
"","image-keyboard-response","157","81479","0.0-234.0","3DQQ64TANH77AYMG87CTBOZNC6IWPK","A2QFZ2524HID2B","3I7KR83SNAZT1REYB2SRC49PCEEK9H","","6.699999928474426","img/food2.png","74","8.800000071525574","1","1","false","2","2","1,0.5,0,1,0.5,0,0.5,0,1","1,0.5,0,1,0.5,0,0.5,0,1","1",""
"","html-keyboard-response","158","81788","0.0-235.0","3DQQ64TANH77AYMG87CTBOZNC6IWPK","A2QFZ2524HID2B","3I7KR83SNAZT1REYB2SRC49PCEEK9H","","null","<img src=""img/food2.png"" style=""width:200px; border:14px solid green;"">","null","","","","","","","","","",""
"","image-keyboard-response","159","81806","0.0-237.0","3DQQ64TANH77AYMG87CTBOZNC6IWPK","A2QFZ2524HID2B","3I7KR83SNAZT1REYB2SRC49PCEEK9H","","15.600000023841858","img/food4.png","75","17","2","0","false","1","2","1,0.5,0,1,0.5,0,0.5,0,1","1,0.5,0,1,0.5,0,0.5,0,1","1",""
"","html-keyboard-response","160","82115","0.0-238.0","3DQQ64TANH77AYMG87CTBOZNC6IWPK","A2QFZ2524HID2B","3I7KR83SNAZT1REYB2SRC49PCEEK9H","","null","<img src=""img/food4.png"" style=""width:200px;border:14px solid red;"">","null","","","","","","","","","",""
"","image-keyboard-response","161","82274","0.0-240.0","3DQQ64TANH77AYMG87CTBOZNC6IWPK","A2QFZ2524HID2B","3I7KR83SNAZT1REYB2SRC49PCEEK9H","","156.29999995231628","img/food4.png","76","158","3","0","false","1","2","1,0.5,0,1,0.5,0,0.5,0,1","1,0.5,0,1,0.5,0,0.5,0,1","1",""
"","html-keyboard-response","162","82580","0.0-241.0","3DQQ64TANH77AYMG87CTBOZNC6IWPK","A2QFZ2524HID2B","3I7KR83SNAZT1REYB2SRC49PCEEK9H","","null","<img src=""img/food4.png"" style=""width:200px;border:14px solid red;"">","null","","","","","","","","","",""
"","image-keyboard-response","163","82659","0.0-243.0","3DQQ64TANH77AYMG87CTBOZNC6IWPK","A2QFZ2524HID2B","3I7KR83SNAZT1REYB2SRC49PCEEK9H","","77.10000002384186","img/food2.png","76","79.19999992847443","3","0","false","2","2","1,0.5,0,1,0.5,0,0.5,0,1","1,0.5,0,1,0.5,0,0.5,0,1","1",""
"","html-keyboard-response","164","82976","0.0-244.0","3DQQ64TANH77AYMG87CTBOZNC6IWPK","A2QFZ2524HID2B","3I7KR83SNAZT1REYB2SRC49PCEEK9H","","null","<img src=""img/food2.png"" style=""width:200px;border:14px solid red;"">","null","","","","","","","","","",""
"","image-keyboard-response","165","83017","0.0-246.0","3DQQ64TANH77AYMG87CTBOZNC6IWPK","A2QFZ2524HID2B","3I7KR83SNAZT1REYB2SRC49PCEEK9H","","37.800000071525574","img/food4.png","75","40.40000009536743","2","1","false","1","2","1,0.5,0,1,0.5,0,0.5,0,1","1,0.5,0,1,0.5,0,0.5,0,1","1",""
"","html-keyboard-response","166","83325","0.0-247.0","3DQQ64TANH77AYMG87CTBOZNC6IWPK","A2QFZ2524HID2B","3I7KR83SNAZT1REYB2SRC49PCEEK9H","","null","<img src=""img/food4.png"" style=""width:200px; border:14px solid green;"">","null","","","","","","","","","",""
"","image-keyboard-response","167","83334","0.0-249.0","3DQQ64TANH77AYMG87CTBOZNC6IWPK","A2QFZ2524HID2B","3I7KR83SNAZT1REYB2SRC49PCEEK9H","","5.5","img/food5.png","74","7.899999976158142","1","1","false","3","2","1,0.5,0,1,0.5,0,0.5,0,1","1,0.5,0,1,0.5,0,0.5,0,1","1",""
"","html-keyboard-response","168","83644","0.0-250.0","3DQQ64TANH77AYMG87CTBOZNC6IWPK","A2QFZ2524HID2B","3I7KR83SNAZT1REYB2SRC49PCEEK9H","","null","<img src=""img/food5.png"" style=""width:200px; border:14px solid green;"">","null","","","","","","","","","",""
"","image-keyboard-response","169","83674","0.0-252.0","3DQQ64TANH77AYMG87CTBOZNC6IWPK","A2QFZ2524HID2B","3I7KR83SNAZT1REYB2SRC49PCEEK9H","","27.90000009536743","img/food4.png","75","29.700000047683716","2","0","false","1","2","1,0.5,0,1,0.5,0,0.5,0,1","1,0.5,0,1,0.5,0,0.5,0,1","1",""
"","html-keyboard-response","170","83984","0.0-253.0","3DQQ64TANH77AYMG87CTBOZNC6IWPK","A2QFZ2524HID2B","3I7KR83SNAZT1REYB2SRC49PCEEK9H","","null","<img src=""img/food4.png"" style=""width:200px;border:14px solid red;"">","null","","","","","","","","","",""
"","image-keyboard-response","171","84063","0.0-255.0","3DQQ64TANH77AYMG87CTBOZNC6IWPK","A2QFZ2524HID2B","3I7KR83SNAZT1REYB2SRC49PCEEK9H","","76.60000002384186","img/food2.png","76","78","3","0","false","2","2","1,0.5,0,1,0.5,0,0.5,0,1","1,0.5,0,1,0.5,0,0.5,0,1","1",""
"","html-keyboard-response","172","84372","0.0-256.0","3DQQ64TANH77AYMG87CTBOZNC6IWPK","A2QFZ2524HID2B","3I7KR83SNAZT1REYB2SRC49PCEEK9H","","null","<img src=""img/food2.png"" style=""width:200px;border:14px solid red;"">","null","","","","","","","","","",""
"","image-keyboard-response","173","84474","0.0-258.0","3DQQ64TANH77AYMG87CTBOZNC6IWPK","A2QFZ2524HID2B","3I7KR83SNAZT1REYB2SRC49PCEEK9H","","100.80000007152557","img/food2.png","75","102.20000004768372","2","1","false","2","2","1,0.5,0,1,0.5,0,0.5,0,1","1,0.5,0,1,0.5,0,0.5,0,1","1",""
"","html-keyboard-response","174","84780","0.0-259.0","3DQQ64TANH77AYMG87CTBOZNC6IWPK","A2QFZ2524HID2B","3I7KR83SNAZT1REYB2SRC49PCEEK9H","","null","<img src=""img/food2.png"" style=""width:200px; border:14px solid green;"">","null","","","","","","","","","",""
"","image-keyboard-response","175","85013","0.0-261.0","3DQQ64TANH77AYMG87CTBOZNC6IWPK","A2QFZ2524HID2B","3I7KR83SNAZT1REYB2SRC49PCEEK9H","","231.60000002384186","img/food5.png","74","233","1","1","false","3","2","1,0.5,0,1,0.5,0,0.5,0,1","1,0.5,0,1,0.5,0,0.5,0,1","1",""
"","html-keyboard-response","176","85316","0.0-262.0","3DQQ64TANH77AYMG87CTBOZNC6IWPK","A2QFZ2524HID2B","3I7KR83SNAZT1REYB2SRC49PCEEK9H","","null","<img src=""img/food5.png"" style=""width:200px; border:14px solid green;"">","null","","","","","","","","","",""
"","image-keyboard-response","177","85407","0.0-264.0","3DQQ64TANH77AYMG87CTBOZNC6IWPK","A2QFZ2524HID2B","3I7KR83SNAZT1REYB2SRC49PCEEK9H","","89.70000004768372","img/food4.png","76","91","3","0","false","1","2","1,0.5,0,1,0.5,0,0.5,0,1","1,0.5,0,1,0.5,0,0.5,0,1","1",""
"","html-keyboard-response","178","85716","0.0-265.0","3DQQ64TANH77AYMG87CTBOZNC6IWPK","A2QFZ2524HID2B","3I7KR83SNAZT1REYB2SRC49PCEEK9H","","null","<img src=""img/food4.png"" style=""width:200px;border:14px solid red;"">","null","","","","","","","","","",""
"","image-keyboard-response","179","85911","0.0-267.0","3DQQ64TANH77AYMG87CTBOZNC6IWPK","A2QFZ2524HID2B","3I7KR83SNAZT1REYB2SRC49PCEEK9H","","192.80000007152557","img/food5.png","75","194.39999997615814","2","0","false","3","2","1,0.5,0,1,0.5,0,0.5,0,1","1,0.5,0,1,0.5,0,0.5,0,1","1",""
"","html-keyboard-response","180","86220","0.0-268.0","3DQQ64TANH77AYMG87CTBOZNC6IWPK","A2QFZ2524HID2B","3I7KR83SNAZT1REYB2SRC49PCEEK9H","","null","<img src=""img/food5.png"" style=""width:200px;border:14px solid red;"">","null","","","","","","","","","",""
"","image-keyboard-response","181","86257","0.0-270.0","3DQQ64TANH77AYMG87CTBOZNC6IWPK","A2QFZ2524HID2B","3I7KR83SNAZT1REYB2SRC49PCEEK9H","","35.300000071525574","img/food4.png","75","36.800000071525574","2","0","false","1","2","1,0.5,0,1,0.5,0,0.5,0,1","1,0.5,0,1,0.5,0,0.5,0,1","1",""
"","html-keyboard-response","182","86564","0.0-271.0","3DQQ64TANH77AYMG87CTBOZNC6IWPK","A2QFZ2524HID2B","3I7KR83SNAZT1REYB2SRC49PCEEK9H","","null","<img src=""img/food4.png"" style=""width:200px;border:14px solid red;"">","null","","","","","","","","","",""
"","instructions","183","94281","0.0-273.0","3DQQ64TANH77AYMG87CTBOZNC6IWPK","A2QFZ2524HID2B","3I7KR83SNAZT1REYB2SRC49PCEEK9H","[{""page_index"":0,""viewing_time"":6733},{""page_index"":1,""viewing_time"":982.5999999046326}]","7716.099999904633","","","","","","","","","","","",""
"","image-keyboard-response","184","94874","0.0-274.0","3DQQ64TANH77AYMG87CTBOZNC6IWPK","A2QFZ2524HID2B","3I7KR83SNAZT1REYB2SRC49PCEEK9H","","591.5","img/food6.png","75","593.2000000476837","2","1","","2","1","1,0.5,0,1,0.5,0,0.5,0,1","0,1,0.5,0,1,0.5,1,0.5,0","3",""
"","html-keyboard-response","185","95181","0.0-275.0","3DQQ64TANH77AYMG87CTBOZNC6IWPK","A2QFZ2524HID2B","3I7KR83SNAZT1REYB2SRC49PCEEK9H","","null","<img src=""img/food6.png"" style=""width:200px; border:14px solid green;"">","null","","","","","","","","","",""
"","image-keyboard-response","186","95502","0.0-276.0","3DQQ64TANH77AYMG87CTBOZNC6IWPK","A2QFZ2524HID2B","3I7KR83SNAZT1REYB2SRC49PCEEK9H","","316.89999997615814","img/food1.png","75","319.7000000476837","2","1","","1","1","1,0.5,0,1,0.5,0,0.5,0,1","0,1,0.5,0,1,0.5,1,0.5,0","3",""
"","html-keyboard-response","187","95812","0.0-277.0","3DQQ64TANH77AYMG87CTBOZNC6IWPK","A2QFZ2524HID2B","3I7KR83SNAZT1REYB2SRC49PCEEK9H","","null","<img src=""img/food1.png"" style=""width:200px; border:14px solid green;"">","null","","","","","","","","","",""
"","image-keyboard-response","188","96447","0.0-278.0","3DQQ64TANH77AYMG87CTBOZNC6IWPK","A2QFZ2524HID2B","3I7KR83SNAZT1REYB2SRC49PCEEK9H","","632.7999999523163","img/food1.png","75","634.8999999761581","2","1","","1","1","1,0.5,0,1,0.5,0,0.5,0,1","0,1,0.5,0,1,0.5,1,0.5,0","3",""
"","html-keyboard-response","189","96756","0.0-279.0","3DQQ64TANH77AYMG87CTBOZNC6IWPK","A2QFZ2524HID2B","3I7KR83SNAZT1REYB2SRC49PCEEK9H","","null","<img src=""img/food1.png"" style=""width:200px; border:14px solid green;"">","null","","","","","","","","","",""
"","image-keyboard-response","190","97071","0.0-280.0","3DQQ64TANH77AYMG87CTBOZNC6IWPK","A2QFZ2524HID2B","3I7KR83SNAZT1REYB2SRC49PCEEK9H","","312.7999999523163","img/food1.png","75","314.90000009536743","2","1","","1","1","1,0.5,0,1,0.5,0,0.5,0,1","0,1,0.5,0,1,0.5,1,0.5,0","3",""
"","html-keyboard-response","191","97380","0.0-281.0","3DQQ64TANH77AYMG87CTBOZNC6IWPK","A2QFZ2524HID2B","3I7KR83SNAZT1REYB2SRC49PCEEK9H","","null","<img src=""img/food1.png"" style=""width:200px; border:14px solid green;"">","null","","","","","","","","","",""
"","image-keyboard-response","192","97622","0.0-282.0","3DQQ64TANH77AYMG87CTBOZNC6IWPK","A2QFZ2524HID2B","3I7KR83SNAZT1REYB2SRC49PCEEK9H","","240.10000002384186","img/food1.png","75","242.10000002384186","2","1","","1","1","1,0.5,0,1,0.5,0,0.5,0,1","0,1,0.5,0,1,0.5,1,0.5,0","3",""
"","html-keyboard-response","193","97932","0.0-283.0","3DQQ64TANH77AYMG87CTBOZNC6IWPK","A2QFZ2524HID2B","3I7KR83SNAZT1REYB2SRC49PCEEK9H","","null","<img src=""img/food1.png"" style=""width:200px; border:14px solid green;"">","null","","","","","","","","","",""
"","image-keyboard-response","194","98004","0.0-284.0","3DQQ64TANH77AYMG87CTBOZNC6IWPK","A2QFZ2524HID2B","3I7KR83SNAZT1REYB2SRC49PCEEK9H","","70.5","img/food1.png","75","72.5","2","1","","1","1","1,0.5,0,1,0.5,0,0.5,0,1","0,1,0.5,0,1,0.5,1,0.5,0","3",""
"","html-keyboard-response","195","98315","0.0-285.0","3DQQ64TANH77AYMG87CTBOZNC6IWPK","A2QFZ2524HID2B","3I7KR83SNAZT1REYB2SRC49PCEEK9H","","null","<img src=""img/food1.png"" style=""width:200px; border:14px solid green;"">","null","","","","","","","","","",""
"","image-keyboard-response","196","98513","0.0-286.0","3DQQ64TANH77AYMG87CTBOZNC6IWPK","A2QFZ2524HID2B","3I7KR83SNAZT1REYB2SRC49PCEEK9H","","195.20000004768372","img/food1.png","75","196.80000007152557","2","1","","1","1","1,0.5,0,1,0.5,0,0.5,0,1","0,1,0.5,0,1,0.5,1,0.5,0","3",""
"","html-keyboard-response","197","98820","0.0-287.0","3DQQ64TANH77AYMG87CTBOZNC6IWPK","A2QFZ2524HID2B","3I7KR83SNAZT1REYB2SRC49PCEEK9H","","null","<img src=""img/food1.png"" style=""width:200px; border:14px solid green;"">","null","","","","","","","","","",""
"","image-keyboard-response","198","98969","0.0-288.0","3DQQ64TANH77AYMG87CTBOZNC6IWPK","A2QFZ2524HID2B","3I7KR83SNAZT1REYB2SRC49PCEEK9H","","146.29999995231628","img/food3.png","75","148.10000002384186","2","1","","3","1","1,0.5,0,1,0.5,0,0.5,0,1","0,1,0.5,0,1,0.5,1,0.5,0","3",""
"","html-keyboard-response","199","99276","0.0-289.0","3DQQ64TANH77AYMG87CTBOZNC6IWPK","A2QFZ2524HID2B","3I7KR83SNAZT1REYB2SRC49PCEEK9H","","null","<img src=""img/food3.png"" style=""width:200px; border:14px solid green;"">","null","","","","","","","","","",""
"","image-keyboard-response","200","99428","0.0-290.0","3DQQ64TANH77AYMG87CTBOZNC6IWPK","A2QFZ2524HID2B","3I7KR83SNAZT1REYB2SRC49PCEEK9H","","150","img/food1.png","75","151.69999992847443","2","1","","1","1","1,0.5,0,1,0.5,0,0.5,0,1","0,1,0.5,0,1,0.5,1,0.5,0","3",""
"","html-keyboard-response","201","99731","0.0-291.0","3DQQ64TANH77AYMG87CTBOZNC6IWPK","A2QFZ2524HID2B","3I7KR83SNAZT1REYB2SRC49PCEEK9H","","null","<img src=""img/food1.png"" style=""width:200px; border:14px solid green;"">","null","","","","","","","","","",""
"","image-keyboard-response","202","99905","0.0-292.0","3DQQ64TANH77AYMG87CTBOZNC6IWPK","A2QFZ2524HID2B","3I7KR83SNAZT1REYB2SRC49PCEEK9H","","170.89999997615814","img/food6.png","75","172.70000004768372","2","1","","2","1","1,0.5,0,1,0.5,0,0.5,0,1","0,1,0.5,0,1,0.5,1,0.5,0","3",""
"","html-keyboard-response","203","100213","0.0-293.0","3DQQ64TANH77AYMG87CTBOZNC6IWPK","A2QFZ2524HID2B","3I7KR83SNAZT1REYB2SRC49PCEEK9H","","null","<img src=""img/food6.png"" style=""width:200px; border:14px solid green;"">","null","","","","","","","","","",""
"","image-keyboard-response","204","100331","0.0-294.0","3DQQ64TANH77AYMG87CTBOZNC6IWPK","A2QFZ2524HID2B","3I7KR83SNAZT1REYB2SRC49PCEEK9H","","115.5","img/food3.png","75","117.5","2","0","","3","1","1,0.5,0,1,0.5,0,0.5,0,1","0,1,0.5,0,1,0.5,1,0.5,0","3",""
"","html-keyboard-response","205","100637","0.0-295.0","3DQQ64TANH77AYMG87CTBOZNC6IWPK","A2QFZ2524HID2B","3I7KR83SNAZT1REYB2SRC49PCEEK9H","","null","<img src=""img/food3.png"" style=""width:200px;border:14px solid red;"">","null","","","","","","","","","",""
"","image-keyboard-response","206","100709","0.0-296.0","3DQQ64TANH77AYMG87CTBOZNC6IWPK","A2QFZ2524HID2B","3I7KR83SNAZT1REYB2SRC49PCEEK9H","","69.60000002384186","img/food6.png","75","71.29999995231628","2","1","","2","1","1,0.5,0,1,0.5,0,0.5,0,1","0,1,0.5,0,1,0.5,1,0.5,0","3",""
"","html-keyboard-response","207","101012","0.0-297.0","3DQQ64TANH77AYMG87CTBOZNC6IWPK","A2QFZ2524HID2B","3I7KR83SNAZT1REYB2SRC49PCEEK9H","","null","<img src=""img/food6.png"" style=""width:200px; border:14px solid green;"">","null","","","","","","","","","",""
"","image-keyboard-response","208","101103","0.0-298.0","3DQQ64TANH77AYMG87CTBOZNC6IWPK","A2QFZ2524HID2B","3I7KR83SNAZT1REYB2SRC49PCEEK9H","","87.90000009536743","img/food6.png","76","89.60000002384186","3","1","","2","1","1,0.5,0,1,0.5,0,0.5,0,1","0,1,0.5,0,1,0.5,1,0.5,0","3",""
"","html-keyboard-response","209","101408","0.0-299.0","3DQQ64TANH77AYMG87CTBOZNC6IWPK","A2QFZ2524HID2B","3I7KR83SNAZT1REYB2SRC49PCEEK9H","","null","<img src=""img/food6.png"" style=""width:200px; border:14px solid green;"">","null","","","","","","","","","",""
"","image-keyboard-response","210","101724","0.0-300.0","3DQQ64TANH77AYMG87CTBOZNC6IWPK","A2QFZ2524HID2B","3I7KR83SNAZT1REYB2SRC49PCEEK9H","","314.59999990463257","img/food3.png","76","316.39999997615814","3","0","","3","1","1,0.5,0,1,0.5,0,0.5,0,1","0,1,0.5,0,1,0.5,1,0.5,0","3",""
"","html-keyboard-response","211","102028","0.0-301.0","3DQQ64TANH77AYMG87CTBOZNC6IWPK","A2QFZ2524HID2B","3I7KR83SNAZT1REYB2SRC49PCEEK9H","","null","<img src=""img/food3.png"" style=""width:200px;border:14px solid red;"">","null","","","","","","","","","",""
"","image-keyboard-response","212","102043","0.0-302.0","3DQQ64TANH77AYMG87CTBOZNC6IWPK","A2QFZ2524HID2B","3I7KR83SNAZT1REYB2SRC49PCEEK9H","","12.600000023841858","img/food1.png","75","14.199999928474426","2","1","","1","1","1,0.5,0,1,0.5,0,0.5,0,1","0,1,0.5,0,1,0.5,1,0.5,0","3",""
"","html-keyboard-response","213","102348","0.0-303.0","3DQQ64TANH77AYMG87CTBOZNC6IWPK","A2QFZ2524HID2B","3I7KR83SNAZT1REYB2SRC49PCEEK9H","","null","<img src=""img/food1.png"" style=""width:200px; border:14px solid green;"">","null","","","","","","","","","",""
"","image-keyboard-response","214","102459","0.0-304.0","3DQQ64TANH77AYMG87CTBOZNC6IWPK","A2QFZ2524HID2B","3I7KR83SNAZT1REYB2SRC49PCEEK9H","","109.10000002384186","img/food6.png","75","110.90000009536743","2","1","","2","1","1,0.5,0,1,0.5,0,0.5,0,1","0,1,0.5,0,1,0.5,1,0.5,0","3",""
"","html-keyboard-response","215","102764","0.0-305.0","3DQQ64TANH77AYMG87CTBOZNC6IWPK","A2QFZ2524HID2B","3I7KR83SNAZT1REYB2SRC49PCEEK9H","","null","<img src=""img/food6.png"" style=""width:200px; border:14px solid green;"">","null","","","","","","","","","",""
"","image-keyboard-response","216","102781","0.0-306.0","3DQQ64TANH77AYMG87CTBOZNC6IWPK","A2QFZ2524HID2B","3I7KR83SNAZT1REYB2SRC49PCEEK9H","","14.5","img/food1.png","76","16.100000023841858","3","1","","1","1","1,0.5,0,1,0.5,0,0.5,0,1","0,1,0.5,0,1,0.5,1,0.5,0","3",""
"","html-keyboard-response","217","103084","0.0-307.0","3DQQ64TANH77AYMG87CTBOZNC6IWPK","A2QFZ2524HID2B","3I7KR83SNAZT1REYB2SRC49PCEEK9H","","null","<img src=""img/food1.png"" style=""width:200px; border:14px solid green;"">","null","","","","","","","","","",""
"","image-keyboard-response","218","103189","0.0-308.0","3DQQ64TANH77AYMG87CTBOZNC6IWPK","A2QFZ2524HID2B","3I7KR83SNAZT1REYB2SRC49PCEEK9H","","102.70000004768372","img/food6.png","76","104.59999990463257","3","1","","2","1","1,0.5,0,1,0.5,0,0.5,0,1","0,1,0.5,0,1,0.5,1,0.5,0","3",""
"","html-keyboard-response","219","103501","0.0-309.0","3DQQ64TANH77AYMG87CTBOZNC6IWPK","A2QFZ2524HID2B","3I7KR83SNAZT1REYB2SRC49PCEEK9H","","null","<img src=""img/food6.png"" style=""width:200px; border:14px solid green;"">","null","","","","","","","","","",""
"","image-keyboard-response","220","103554","0.0-310.0","3DQQ64TANH77AYMG87CTBOZNC6IWPK","A2QFZ2524HID2B","3I7KR83SNAZT1REYB2SRC49PCEEK9H","","50.799999952316284","img/food1.png","74","52.700000047683716","1","0","","1","1","1,0.5,0,1,0.5,0,0.5,0,1","0,1,0.5,0,1,0.5,1,0.5,0","3",""
"","html-keyboard-response","221","103859","0.0-311.0","3DQQ64TANH77AYMG87CTBOZNC6IWPK","A2QFZ2524HID2B","3I7KR83SNAZT1REYB2SRC49PCEEK9H","","null","<img src=""img/food1.png"" style=""width:200px;border:14px solid red;"">","null","","","","","","","","","",""
"","image-keyboard-response","222","103912","0.0-312.0","3DQQ64TANH77AYMG87CTBOZNC6IWPK","A2QFZ2524HID2B","3I7KR83SNAZT1REYB2SRC49PCEEK9H","","50.60000002384186","img/food1.png","75","52.700000047683716","2","1","","1","1","1,0.5,0,1,0.5,0,0.5,0,1","0,1,0.5,0,1,0.5,1,0.5,0","3",""
"","html-keyboard-response","223","104220","0.0-313.0","3DQQ64TANH77AYMG87CTBOZNC6IWPK","A2QFZ2524HID2B","3I7KR83SNAZT1REYB2SRC49PCEEK9H","","null","<img src=""img/food1.png"" style=""width:200px; border:14px solid green;"">","null","","","","","","","","","",""
"","image-keyboard-response","224","104265","0.0-314.0","3DQQ64TANH77AYMG87CTBOZNC6IWPK","A2QFZ2524HID2B","3I7KR83SNAZT1REYB2SRC49PCEEK9H","","43.299999952316284","img/food3.png","76","45","3","0","","3","1","1,0.5,0,1,0.5,0,0.5,0,1","0,1,0.5,0,1,0.5,1,0.5,0","3",""
"","html-keyboard-response","225","104572","0.0-315.0","3DQQ64TANH77AYMG87CTBOZNC6IWPK","A2QFZ2524HID2B","3I7KR83SNAZT1REYB2SRC49PCEEK9H","","null","<img src=""img/food3.png"" style=""width:200px;border:14px solid red;"">","null","","","","","","","","","",""
"","image-keyboard-response","226","104667","0.0-316.0","3DQQ64TANH77AYMG87CTBOZNC6IWPK","A2QFZ2524HID2B","3I7KR83SNAZT1REYB2SRC49PCEEK9H","","93.19999992847443","img/food3.png","74","94.89999997615814","1","1","","3","1","1,0.5,0,1,0.5,0,0.5,0,1","0,1,0.5,0,1,0.5,1,0.5,0","3",""
"","html-keyboard-response","227","104972","0.0-317.0","3DQQ64TANH77AYMG87CTBOZNC6IWPK","A2QFZ2524HID2B","3I7KR83SNAZT1REYB2SRC49PCEEK9H","","null","<img src=""img/food3.png"" style=""width:200px; border:14px solid green;"">","null","","","","","","","","","",""
"","image-keyboard-response","228","105038","0.0-318.0","3DQQ64TANH77AYMG87CTBOZNC6IWPK","A2QFZ2524HID2B","3I7KR83SNAZT1REYB2SRC49PCEEK9H","","64.20000004768372","img/food3.png","75","66.10000002384186","2","1","","3","1","1,0.5,0,1,0.5,0,0.5,0,1","0,1,0.5,0,1,0.5,1,0.5,0","3",""
"","html-keyboard-response","229","105347","0.0-319.0","3DQQ64TANH77AYMG87CTBOZNC6IWPK","A2QFZ2524HID2B","3I7KR83SNAZT1REYB2SRC49PCEEK9H","","null","<img src=""img/food3.png"" style=""width:200px; border:14px solid green;"">","null","","","","","","","","","",""
"","image-keyboard-response","230","105373","0.0-320.0","3DQQ64TANH77AYMG87CTBOZNC6IWPK","A2QFZ2524HID2B","3I7KR83SNAZT1REYB2SRC49PCEEK9H","","23.899999976158142","img/food3.png","75","25.5","2","1","","3","1","1,0.5,0,1,0.5,0,0.5,0,1","0,1,0.5,0,1,0.5,1,0.5,0","3",""
"","html-keyboard-response","231","105682","0.0-321.0","3DQQ64TANH77AYMG87CTBOZNC6IWPK","A2QFZ2524HID2B","3I7KR83SNAZT1REYB2SRC49PCEEK9H","","null","<img src=""img/food3.png"" style=""width:200px; border:14px solid green;"">","null","","","","","","","","","",""
"","image-keyboard-response","232","105753","0.0-322.0","3DQQ64TANH77AYMG87CTBOZNC6IWPK","A2QFZ2524HID2B","3I7KR83SNAZT1REYB2SRC49PCEEK9H","","69.10000002384186","img/food1.png","76","70.89999997615814","3","0","","1","1","1,0.5,0,1,0.5,0,0.5,0,1","0,1,0.5,0,1,0.5,1,0.5,0","3",""
"","html-keyboard-response","233","106060","0.0-323.0","3DQQ64TANH77AYMG87CTBOZNC6IWPK","A2QFZ2524HID2B","3I7KR83SNAZT1REYB2SRC49PCEEK9H","","null","<img src=""img/food1.png"" style=""width:200px;border:14px solid red;"">","null","","","","","","","","","",""
"","image-keyboard-response","234","106063","0.0-324.0","3DQQ64TANH77AYMG87CTBOZNC6IWPK","A2QFZ2524HID2B","3I7KR83SNAZT1REYB2SRC49PCEEK9H","","0.6999999284744263","img/food3.png","76","2.4000000953674316","3","0","","3","1","1,0.5,0,1,0.5,0,0.5,0,1","0,1,0.5,0,1,0.5,1,0.5,0","3",""
"","html-keyboard-response","235","106371","0.0-325.0","3DQQ64TANH77AYMG87CTBOZNC6IWPK","A2QFZ2524HID2B","3I7KR83SNAZT1REYB2SRC49PCEEK9H","","null","<img src=""img/food3.png"" style=""width:200px;border:14px solid red;"">","null","","","","","","","","","",""
"","image-keyboard-response","236","106465","0.0-326.0","3DQQ64TANH77AYMG87CTBOZNC6IWPK","A2QFZ2524HID2B","3I7KR83SNAZT1REYB2SRC49PCEEK9H","","90.79999995231628","img/food6.png","75","92.70000004768372","2","1","","2","1","1,0.5,0,1,0.5,0,0.5,0,1","0,1,0.5,0,1,0.5,1,0.5,0","3",""
"","html-keyboard-response","237","106772","0.0-327.0","3DQQ64TANH77AYMG87CTBOZNC6IWPK","A2QFZ2524HID2B","3I7KR83SNAZT1REYB2SRC49PCEEK9H","","null","<img src=""img/food6.png"" style=""width:200px; border:14px solid green;"">","null","","","","","","","","","",""
"","image-keyboard-response","238","107019","0.0-328.0","3DQQ64TANH77AYMG87CTBOZNC6IWPK","A2QFZ2524HID2B","3I7KR83SNAZT1REYB2SRC49PCEEK9H","","244.5","img/food3.png","75","246.20000004768372","2","1","","3","1","1,0.5,0,1,0.5,0,0.5,0,1","0,1,0.5,0,1,0.5,1,0.5,0","3",""
"","html-keyboard-response","239","107324","0.0-329.0","3DQQ64TANH77AYMG87CTBOZNC6IWPK","A2QFZ2524HID2B","3I7KR83SNAZT1REYB2SRC49PCEEK9H","","null","<img src=""img/food3.png"" style=""width:200px; border:14px solid green;"">","null","","","","","","","","","",""
"","image-keyboard-response","240","107410","0.0-330.0","3DQQ64TANH77AYMG87CTBOZNC6IWPK","A2QFZ2524HID2B","3I7KR83SNAZT1REYB2SRC49PCEEK9H","","84.29999995231628","img/food6.png","75","85.89999997615814","2","1","","2","1","1,0.5,0,1,0.5,0,0.5,0,1","0,1,0.5,0,1,0.5,1,0.5,0","3",""
"","html-keyboard-response","241","107715","0.0-331.0","3DQQ64TANH77AYMG87CTBOZNC6IWPK","A2QFZ2524HID2B","3I7KR83SNAZT1REYB2SRC49PCEEK9H","","null","<img src=""img/food6.png"" style=""width:200px; border:14px solid green;"">","null","","","","","","","","","",""
"","image-keyboard-response","242","108043","0.0-332.0","3DQQ64TANH77AYMG87CTBOZNC6IWPK","A2QFZ2524HID2B","3I7KR83SNAZT1REYB2SRC49PCEEK9H","","325.60000002384186","img/food3.png","75","327.2999999523163","2","0","","3","1","1,0.5,0,1,0.5,0,0.5,0,1","0,1,0.5,0,1,0.5,1,0.5,0","3",""
"","html-keyboard-response","243","108348","0.0-333.0","3DQQ64TANH77AYMG87CTBOZNC6IWPK","A2QFZ2524HID2B","3I7KR83SNAZT1REYB2SRC49PCEEK9H","","null","<img src=""img/food3.png"" style=""width:200px;border:14px solid red;"">","null","","","","","","","","","",""
"","image-keyboard-response","244","108370","0.0-334.0","3DQQ64TANH77AYMG87CTBOZNC6IWPK","A2QFZ2524HID2B","3I7KR83SNAZT1REYB2SRC49PCEEK9H","","19.700000047683716","img/food3.png","74","21.200000047683716","1","1","","3","1","1,0.5,0,1,0.5,0,0.5,0,1","0,1,0.5,0,1,0.5,1,0.5,0","3",""
"","html-keyboard-response","245","108676","0.0-335.0","3DQQ64TANH77AYMG87CTBOZNC6IWPK","A2QFZ2524HID2B","3I7KR83SNAZT1REYB2SRC49PCEEK9H","","null","<img src=""img/food3.png"" style=""width:200px; border:14px solid green;"">","null","","","","","","","","","",""
"","image-keyboard-response","246","108808","0.0-336.0","3DQQ64TANH77AYMG87CTBOZNC6IWPK","A2QFZ2524HID2B","3I7KR83SNAZT1REYB2SRC49PCEEK9H","","129.59999990463257","img/food3.png","76","131.60000002384186","3","0","","3","1","1,0.5,0,1,0.5,0,0.5,0,1","0,1,0.5,0,1,0.5,1,0.5,0","3",""
"","html-keyboard-response","247","109115","0.0-337.0","3DQQ64TANH77AYMG87CTBOZNC6IWPK","A2QFZ2524HID2B","3I7KR83SNAZT1REYB2SRC49PCEEK9H","","null","<img src=""img/food3.png"" style=""width:200px;border:14px solid red;"">","null","","","","","","","","","",""
"","image-keyboard-response","248","109240","0.0-338.0","3DQQ64TANH77AYMG87CTBOZNC6IWPK","A2QFZ2524HID2B","3I7KR83SNAZT1REYB2SRC49PCEEK9H","","122.60000002384186","img/food1.png","74","124.39999997615814","1","0","","1","1","1,0.5,0,1,0.5,0,0.5,0,1","0,1,0.5,0,1,0.5,1,0.5,0","3",""
"","html-keyboard-response","249","109547","0.0-339.0","3DQQ64TANH77AYMG87CTBOZNC6IWPK","A2QFZ2524HID2B","3I7KR83SNAZT1REYB2SRC49PCEEK9H","","null","<img src=""img/food1.png"" style=""width:200px;border:14px solid red;"">","null","","","","","","","","","",""
"","image-keyboard-response","250","109550","0.0-340.0","3DQQ64TANH77AYMG87CTBOZNC6IWPK","A2QFZ2524HID2B","3I7KR83SNAZT1REYB2SRC49PCEEK9H","","0.8999999761581421","img/food6.png","75","2.5999999046325684","2","1","","2","1","1,0.5,0,1,0.5,0,0.5,0,1","0,1,0.5,0,1,0.5,1,0.5,0","3",""
"","html-keyboard-response","251","109860","0.0-341.0","3DQQ64TANH77AYMG87CTBOZNC6IWPK","A2QFZ2524HID2B","3I7KR83SNAZT1REYB2SRC49PCEEK9H","","null","<img src=""img/food6.png"" style=""width:200px; border:14px solid green;"">","null","","","","","","","","","",""
"","image-keyboard-response","252","109922","0.0-342.0","3DQQ64TANH77AYMG87CTBOZNC6IWPK","A2QFZ2524HID2B","3I7KR83SNAZT1REYB2SRC49PCEEK9H","","59.89999997615814","img/food3.png","76","61.799999952316284","3","0","","3","1","1,0.5,0,1,0.5,0,0.5,0,1","0,1,0.5,0,1,0.5,1,0.5,0","3",""
"","html-keyboard-response","253","110228","0.0-343.0","3DQQ64TANH77AYMG87CTBOZNC6IWPK","A2QFZ2524HID2B","3I7KR83SNAZT1REYB2SRC49PCEEK9H","","null","<img src=""img/food3.png"" style=""width:200px;border:14px solid red;"">","null","","","","","","","","","",""
"","image-keyboard-response","254","110392","0.0-344.0","3DQQ64TANH77AYMG87CTBOZNC6IWPK","A2QFZ2524HID2B","3I7KR83SNAZT1REYB2SRC49PCEEK9H","","161.90000009536743","img/food1.png","74","163.69999992847443","1","0","","1","1","1,0.5,0,1,0.5,0,0.5,0,1","0,1,0.5,0,1,0.5,1,0.5,0","3",""
"","html-keyboard-response","255","110700","0.0-345.0","3DQQ64TANH77AYMG87CTBOZNC6IWPK","A2QFZ2524HID2B","3I7KR83SNAZT1REYB2SRC49PCEEK9H","","null","<img src=""img/food1.png"" style=""width:200px;border:14px solid red;"">","null","","","","","","","","","",""
"","image-keyboard-response","256","110746","0.0-346.0","3DQQ64TANH77AYMG87CTBOZNC6IWPK","A2QFZ2524HID2B","3I7KR83SNAZT1REYB2SRC49PCEEK9H","","43.39999997615814","img/food6.png","75","45.5","2","1","","2","1","1,0.5,0,1,0.5,0,0.5,0,1","0,1,0.5,0,1,0.5,1,0.5,0","3",""
"","html-keyboard-response","257","111052","0.0-347.0","3DQQ64TANH77AYMG87CTBOZNC6IWPK","A2QFZ2524HID2B","3I7KR83SNAZT1REYB2SRC49PCEEK9H","","null","<img src=""img/food6.png"" style=""width:200px; border:14px solid green;"">","null","","","","","","","","","",""
"","image-keyboard-response","258","111109","0.0-348.0","3DQQ64TANH77AYMG87CTBOZNC6IWPK","A2QFZ2524HID2B","3I7KR83SNAZT1REYB2SRC49PCEEK9H","","54.800000071525574","img/food6.png","76","56.40000009536743","3","1","","2","1","1,0.5,0,1,0.5,0,0.5,0,1","0,1,0.5,0,1,0.5,1,0.5,0","3",""
"","html-keyboard-response","259","111421","0.0-349.0","3DQQ64TANH77AYMG87CTBOZNC6IWPK","A2QFZ2524HID2B","3I7KR83SNAZT1REYB2SRC49PCEEK9H","","null","<img src=""img/food6.png"" style=""width:200px; border:14px solid green;"">","null","","","","","","","","","",""
"","image-keyboard-response","260","111430","0.0-350.0","3DQQ64TANH77AYMG87CTBOZNC6IWPK","A2QFZ2524HID2B","3I7KR83SNAZT1REYB2SRC49PCEEK9H","","7.699999928474426","img/food6.png","76","9.399999976158142","3","1","","2","1","1,0.5,0,1,0.5,0,0.5,0,1","0,1,0.5,0,1,0.5,1,0.5,0","3",""
"","html-keyboard-response","261","111740","0.0-351.0","3DQQ64TANH77AYMG87CTBOZNC6IWPK","A2QFZ2524HID2B","3I7KR83SNAZT1REYB2SRC49PCEEK9H","","null","<img src=""img/food6.png"" style=""width:200px; border:14px solid green;"">","null","","","","","","","","","",""
"","image-keyboard-response","262","111843","0.0-352.0","3DQQ64TANH77AYMG87CTBOZNC6IWPK","A2QFZ2524HID2B","3I7KR83SNAZT1REYB2SRC49PCEEK9H","","100.60000002384186","img/food6.png","74","102.20000004768372","1","0","","2","1","1,0.5,0,1,0.5,0,0.5,0,1","0,1,0.5,0,1,0.5,1,0.5,0","3",""
"","html-keyboard-response","263","112148","0.0-353.0","3DQQ64TANH77AYMG87CTBOZNC6IWPK","A2QFZ2524HID2B","3I7KR83SNAZT1REYB2SRC49PCEEK9H","","null","<img src=""img/food6.png"" style=""width:200px;border:14px solid red;"">","null","","","","","","","","","",""
"","image-keyboard-response","264","112194","0.0-354.0","3DQQ64TANH77AYMG87CTBOZNC6IWPK","A2QFZ2524HID2B","3I7KR83SNAZT1REYB2SRC49PCEEK9H","","43.299999952316284","img/food3.png","76","45.200000047683716","3","0","","3","1","1,0.5,0,1,0.5,0,0.5,0,1","0,1,0.5,0,1,0.5,1,0.5,0","3",""
"","html-keyboard-response","265","112500","0.0-355.0","3DQQ64TANH77AYMG87CTBOZNC6IWPK","A2QFZ2524HID2B","3I7KR83SNAZT1REYB2SRC49PCEEK9H","","null","<img src=""img/food3.png"" style=""width:200px;border:14px solid red;"">","null","","","","","","","","","",""
"","image-keyboard-response","266","112570","0.0-356.0","3DQQ64TANH77AYMG87CTBOZNC6IWPK","A2QFZ2524HID2B","3I7KR83SNAZT1REYB2SRC49PCEEK9H","","67.89999997615814","img/food1.png","74","69.79999995231628","1","0","","1","1","1,0.5,0,1,0.5,0,0.5,0,1","0,1,0.5,0,1,0.5,1,0.5,0","3",""
"","html-keyboard-response","267","112872","0.0-357.0","3DQQ64TANH77AYMG87CTBOZNC6IWPK","A2QFZ2524HID2B","3I7KR83SNAZT1REYB2SRC49PCEEK9H","","null","<img src=""img/food1.png"" style=""width:200px;border:14px solid red;"">","null","","","","","","","","","",""
"","image-keyboard-response","268","112913","0.0-358.0","3DQQ64TANH77AYMG87CTBOZNC6IWPK","A2QFZ2524HID2B","3I7KR83SNAZT1REYB2SRC49PCEEK9H","","38.800000071525574","img/food3.png","76","40.699999928474426","3","0","","3","1","1,0.5,0,1,0.5,0,0.5,0,1","0,1,0.5,0,1,0.5,1,0.5,0","3",""
"","html-keyboard-response","269","113219","0.0-359.0","3DQQ64TANH77AYMG87CTBOZNC6IWPK","A2QFZ2524HID2B","3I7KR83SNAZT1REYB2SRC49PCEEK9H","","null","<img src=""img/food3.png"" style=""width:200px;border:14px solid red;"">","null","","","","","","","","","",""
"","image-keyboard-response","270","113291","0.0-360.0","3DQQ64TANH77AYMG87CTBOZNC6IWPK","A2QFZ2524HID2B","3I7KR83SNAZT1REYB2SRC49PCEEK9H","","69.5","img/food6.png","74","71.10000002384186","1","0","","2","1","1,0.5,0,1,0.5,0,0.5,0,1","0,1,0.5,0,1,0.5,1,0.5,0","3",""
"","html-keyboard-response","271","113596","0.0-361.0","3DQQ64TANH77AYMG87CTBOZNC6IWPK","A2QFZ2524HID2B","3I7KR83SNAZT1REYB2SRC49PCEEK9H","","null","<img src=""img/food6.png"" style=""width:200px;border:14px solid red;"">","null","","","","","","","","","",""
"","image-keyboard-response","272","113648","0.0-362.0","3DQQ64TANH77AYMG87CTBOZNC6IWPK","A2QFZ2524HID2B","3I7KR83SNAZT1REYB2SRC49PCEEK9H","","50","img/food6.png","74","51.800000071525574","1","0","","2","1","1,0.5,0,1,0.5,0,0.5,0,1","0,1,0.5,0,1,0.5,1,0.5,0","3",""
"","html-keyboard-response","273","113956","0.0-363.0","3DQQ64TANH77AYMG87CTBOZNC6IWPK","A2QFZ2524HID2B","3I7KR83SNAZT1REYB2SRC49PCEEK9H","","null","<img src=""img/food6.png"" style=""width:200px;border:14px solid red;"">","null","","","","","","","","","",""
"","image-keyboard-response","274","114051","0.0-364.0","3DQQ64TANH77AYMG87CTBOZNC6IWPK","A2QFZ2524HID2B","3I7KR83SNAZT1REYB2SRC49PCEEK9H","","92.60000002384186","img/food6.png","75","94.29999995231628","2","1","","2","1","1,0.5,0,1,0.5,0,0.5,0,1","0,1,0.5,0,1,0.5,1,0.5,0","3",""
"","html-keyboard-response","275","114356","0.0-365.0","3DQQ64TANH77AYMG87CTBOZNC6IWPK","A2QFZ2524HID2B","3I7KR83SNAZT1REYB2SRC49PCEEK9H","","null","<img src=""img/food6.png"" style=""width:200px; border:14px solid green;"">","null","","","","","","","","","",""
"","image-keyboard-response","276","114363","0.0-366.0","3DQQ64TANH77AYMG87CTBOZNC6IWPK","A2QFZ2524HID2B","3I7KR83SNAZT1REYB2SRC49PCEEK9H","","4.700000047683716","img/food6.png","75","6.600000023841858","2","1","","2","1","1,0.5,0,1,0.5,0,0.5,0,1","0,1,0.5,0,1,0.5,1,0.5,0","3",""
"","html-keyboard-response","277","114668","0.0-367.0","3DQQ64TANH77AYMG87CTBOZNC6IWPK","A2QFZ2524HID2B","3I7KR83SNAZT1REYB2SRC49PCEEK9H","","null","<img src=""img/food6.png"" style=""width:200px; border:14px solid green;"">","null","","","","","","","","","",""
"","image-keyboard-response","278","114703","0.0-368.0","3DQQ64TANH77AYMG87CTBOZNC6IWPK","A2QFZ2524HID2B","3I7KR83SNAZT1REYB2SRC49PCEEK9H","","32.700000047683716","img/food3.png","75","34.300000071525574","2","0","","3","1","1,0.5,0,1,0.5,0,0.5,0,1","0,1,0.5,0,1,0.5,1,0.5,0","3",""
"","html-keyboard-response","279","115012","0.0-369.0","3DQQ64TANH77AYMG87CTBOZNC6IWPK","A2QFZ2524HID2B","3I7KR83SNAZT1REYB2SRC49PCEEK9H","","null","<img src=""img/food3.png"" style=""width:200px;border:14px solid red;"">","null","","","","","","","","","",""
"","image-keyboard-response","280","115207","0.0-370.0","3DQQ64TANH77AYMG87CTBOZNC6IWPK","A2QFZ2524HID2B","3I7KR83SNAZT1REYB2SRC49PCEEK9H","","193.69999992847443","img/food3.png","74","195.19999992847443","1","1","","3","1","1,0.5,0,1,0.5,0,0.5,0,1","0,1,0.5,0,1,0.5,1,0.5,0","3",""
"","html-keyboard-response","281","115513","0.0-371.0","3DQQ64TANH77AYMG87CTBOZNC6IWPK","A2QFZ2524HID2B","3I7KR83SNAZT1REYB2SRC49PCEEK9H","","null","<img src=""img/food3.png"" style=""width:200px; border:14px solid green;"">","null","","","","","","","","","",""
"","image-keyboard-response","282","115615","0.0-372.0","3DQQ64TANH77AYMG87CTBOZNC6IWPK","A2QFZ2524HID2B","3I7KR83SNAZT1REYB2SRC49PCEEK9H","","99.89999997615814","img/food3.png","74","101.70000004768372","1","1","","3","1","1,0.5,0,1,0.5,0,0.5,0,1","0,1,0.5,0,1,0.5,1,0.5,0","3",""
"","html-keyboard-response","283","115925","0.0-373.0","3DQQ64TANH77AYMG87CTBOZNC6IWPK","A2QFZ2524HID2B","3I7KR83SNAZT1REYB2SRC49PCEEK9H","","null","<img src=""img/food3.png"" style=""width:200px; border:14px solid green;"">","null","","","","","","","","","",""
"","image-keyboard-response","284","115982","0.0-374.0","3DQQ64TANH77AYMG87CTBOZNC6IWPK","A2QFZ2524HID2B","3I7KR83SNAZT1REYB2SRC49PCEEK9H","","54.699999928474426","img/food1.png","74","56.60000002384186","1","0","","1","1","1,0.5,0,1,0.5,0,0.5,0,1","0,1,0.5,0,1,0.5,1,0.5,0","3",""
"","html-keyboard-response","285","116292","0.0-375.0","3DQQ64TANH77AYMG87CTBOZNC6IWPK","A2QFZ2524HID2B","3I7KR83SNAZT1REYB2SRC49PCEEK9H","","null","<img src=""img/food1.png"" style=""width:200px;border:14px solid red;"">","null","","","","","","","","","",""
"","image-keyboard-response","286","116322","0.0-376.0","3DQQ64TANH77AYMG87CTBOZNC6IWPK","A2QFZ2524HID2B","3I7KR83SNAZT1REYB2SRC49PCEEK9H","","27.100000023841858","img/food6.png","74","28.700000047683716","1","0","","2","1","1,0.5,0,1,0.5,0,0.5,0,1","0,1,0.5,0,1,0.5,1,0.5,0","3",""
"","html-keyboard-response","287","116628","0.0-377.0","3DQQ64TANH77AYMG87CTBOZNC6IWPK","A2QFZ2524HID2B","3I7KR83SNAZT1REYB2SRC49PCEEK9H","","null","<img src=""img/food6.png"" style=""width:200px;border:14px solid red;"">","null","","","","","","","","","",""
"","image-keyboard-response","288","116656","0.0-378.0","3DQQ64TANH77AYMG87CTBOZNC6IWPK","A2QFZ2524HID2B","3I7KR83SNAZT1REYB2SRC49PCEEK9H","","26.399999976158142","img/food3.png","74","28.100000023841858","1","1","","3","1","1,0.5,0,1,0.5,0,0.5,0,1","0,1,0.5,0,1,0.5,1,0.5,0","3",""
"","html-keyboard-response","289","116964","0.0-379.0","3DQQ64TANH77AYMG87CTBOZNC6IWPK","A2QFZ2524HID2B","3I7KR83SNAZT1REYB2SRC49PCEEK9H","","null","<img src=""img/food3.png"" style=""width:200px; border:14px solid green;"">","null","","","","","","","","","",""
"","image-keyboard-response","290","116993","0.0-380.0","3DQQ64TANH77AYMG87CTBOZNC6IWPK","A2QFZ2524HID2B","3I7KR83SNAZT1REYB2SRC49PCEEK9H","","26.299999952316284","img/food6.png","74","28.100000023841858","1","0","","2","1","1,0.5,0,1,0.5,0,0.5,0,1","0,1,0.5,0,1,0.5,1,0.5,0","3",""
"","html-keyboard-response","291","117299","0.0-381.0","3DQQ64TANH77AYMG87CTBOZNC6IWPK","A2QFZ2524HID2B","3I7KR83SNAZT1REYB2SRC49PCEEK9H","","null","<img src=""img/food6.png"" style=""width:200px;border:14px solid red;"">","null","","","","","","","","","",""
"","image-keyboard-response","292","117327","0.0-382.0","3DQQ64TANH77AYMG87CTBOZNC6IWPK","A2QFZ2524HID2B","3I7KR83SNAZT1REYB2SRC49PCEEK9H","","25.299999952316284","img/food6.png","74","27.100000023841858","1","0","","2","1","1,0.5,0,1,0.5,0,0.5,0,1","0,1,0.5,0,1,0.5,1,0.5,0","3",""
"","html-keyboard-response","293","117636","0.0-383.0","3DQQ64TANH77AYMG87CTBOZNC6IWPK","A2QFZ2524HID2B","3I7KR83SNAZT1REYB2SRC49PCEEK9H","","null","<img src=""img/food6.png"" style=""width:200px;border:14px solid red;"">","null","","","","","","","","","",""
"","image-keyboard-response","294","117727","0.0-384.0","3DQQ64TANH77AYMG87CTBOZNC6IWPK","A2QFZ2524HID2B","3I7KR83SNAZT1REYB2SRC49PCEEK9H","","88.69999992847443","img/food1.png","74","90.60000002384186","1","0","","1","1","1,0.5,0,1,0.5,0,0.5,0,1","0,1,0.5,0,1,0.5,1,0.5,0","3",""
"","html-keyboard-response","295","118036","0.0-385.0","3DQQ64TANH77AYMG87CTBOZNC6IWPK","A2QFZ2524HID2B","3I7KR83SNAZT1REYB2SRC49PCEEK9H","","null","<img src=""img/food1.png"" style=""width:200px;border:14px solid red;"">","null","","","","","","","","","",""
"","image-keyboard-response","296","118087","0.0-386.0","3DQQ64TANH77AYMG87CTBOZNC6IWPK","A2QFZ2524HID2B","3I7KR83SNAZT1REYB2SRC49PCEEK9H","","48.5","img/food6.png","74","50.199999928474426","1","0","","2","1","1,0.5,0,1,0.5,0,0.5,0,1","0,1,0.5,0,1,0.5,1,0.5,0","3",""
"","html-keyboard-response","297","118396","0.0-387.0","3DQQ64TANH77AYMG87CTBOZNC6IWPK","A2QFZ2524HID2B","3I7KR83SNAZT1REYB2SRC49PCEEK9H","","null","<img src=""img/food6.png"" style=""width:200px;border:14px solid red;"">","null","","","","","","","","","",""
"","image-keyboard-response","298","118667","0.0-388.0","3DQQ64TANH77AYMG87CTBOZNC6IWPK","A2QFZ2524HID2B","3I7KR83SNAZT1REYB2SRC49PCEEK9H","","268.7999999523163","img/food1.png","76","270.60000002384186","3","1","","1","1","1,0.5,0,1,0.5,0,0.5,0,1","0,1,0.5,0,1,0.5,1,0.5,0","3",""
"","html-keyboard-response","299","118972","0.0-389.0","3DQQ64TANH77AYMG87CTBOZNC6IWPK","A2QFZ2524HID2B","3I7KR83SNAZT1REYB2SRC49PCEEK9H","","null","<img src=""img/food1.png"" style=""width:200px; border:14px solid green;"">","null","","","","","","","","","",""
"","image-keyboard-response","300","119077","0.0-390.0","3DQQ64TANH77AYMG87CTBOZNC6IWPK","A2QFZ2524HID2B","3I7KR83SNAZT1REYB2SRC49PCEEK9H","","102.80000007152557","img/food6.png","75","104.60000002384186","2","1","","2","1","1,0.5,0,1,0.5,0,0.5,0,1","0,1,0.5,0,1,0.5,1,0.5,0","3",""
"","html-keyboard-response","301","119380","0.0-391.0","3DQQ64TANH77AYMG87CTBOZNC6IWPK","A2QFZ2524HID2B","3I7KR83SNAZT1REYB2SRC49PCEEK9H","","null","<img src=""img/food6.png"" style=""width:200px; border:14px solid green;"">","null","","","","","","","","","",""
"","image-keyboard-response","302","119519","0.0-392.0","3DQQ64TANH77AYMG87CTBOZNC6IWPK","A2QFZ2524HID2B","3I7KR83SNAZT1REYB2SRC49PCEEK9H","","137","img/food1.png","76","139","3","0","","1","1","1,0.5,0,1,0.5,0,0.5,0,1","0,1,0.5,0,1,0.5,1,0.5,0","3",""
"","html-keyboard-response","303","119828","0.0-393.0","3DQQ64TANH77AYMG87CTBOZNC6IWPK","A2QFZ2524HID2B","3I7KR83SNAZT1REYB2SRC49PCEEK9H","","null","<img src=""img/food1.png"" style=""width:200px;border:14px solid red;"">","null","","","","","","","","","",""
"","image-keyboard-response","304","119940","0.0-394.0","3DQQ64TANH77AYMG87CTBOZNC6IWPK","A2QFZ2524HID2B","3I7KR83SNAZT1REYB2SRC49PCEEK9H","","109.69999992847443","img/food1.png","74","111.70000004768372","1","0","","1","1","1,0.5,0,1,0.5,0,0.5,0,1","0,1,0.5,0,1,0.5,1,0.5,0","3",""
"","html-keyboard-response","305","120244","0.0-395.0","3DQQ64TANH77AYMG87CTBOZNC6IWPK","A2QFZ2524HID2B","3I7KR83SNAZT1REYB2SRC49PCEEK9H","","null","<img src=""img/food1.png"" style=""width:200px;border:14px solid red;"">","null","","","","","","","","","",""
"","image-keyboard-response","306","120267","0.0-396.0","3DQQ64TANH77AYMG87CTBOZNC6IWPK","A2QFZ2524HID2B","3I7KR83SNAZT1REYB2SRC49PCEEK9H","","20.300000071525574","img/food3.png","74","22","1","1","","3","1","1,0.5,0,1,0.5,0,0.5,0,1","0,1,0.5,0,1,0.5,1,0.5,0","3",""
"","html-keyboard-response","307","120572","0.0-397.0","3DQQ64TANH77AYMG87CTBOZNC6IWPK","A2QFZ2524HID2B","3I7KR83SNAZT1REYB2SRC49PCEEK9H","","null","<img src=""img/food3.png"" style=""width:200px; border:14px solid green;"">","null","","","","","","","","","",""
"","image-keyboard-response","308","120647","0.0-398.0","3DQQ64TANH77AYMG87CTBOZNC6IWPK","A2QFZ2524HID2B","3I7KR83SNAZT1REYB2SRC49PCEEK9H","","73.19999992847443","img/food3.png","74","75.10000002384186","1","1","","3","1","1,0.5,0,1,0.5,0,0.5,0,1","0,1,0.5,0,1,0.5,1,0.5,0","3",""
"","html-keyboard-response","309","120956","0.0-399.0","3DQQ64TANH77AYMG87CTBOZNC6IWPK","A2QFZ2524HID2B","3I7KR83SNAZT1REYB2SRC49PCEEK9H","","null","<img src=""img/food3.png"" style=""width:200px; border:14px solid green;"">","null","","","","","","","","","",""
"","image-keyboard-response","310","121004","0.0-400.0","3DQQ64TANH77AYMG87CTBOZNC6IWPK","A2QFZ2524HID2B","3I7KR83SNAZT1REYB2SRC49PCEEK9H","","45.39999997615814","img/food1.png","76","47.299999952316284","3","0","","1","1","1,0.5,0,1,0.5,0,0.5,0,1","0,1,0.5,0,1,0.5,1,0.5,0","3",""
"","html-keyboard-response","311","121308","0.0-401.0","3DQQ64TANH77AYMG87CTBOZNC6IWPK","A2QFZ2524HID2B","3I7KR83SNAZT1REYB2SRC49PCEEK9H","","null","<img src=""img/food1.png"" style=""width:200px;border:14px solid red;"">","null","","","","","","","","","",""
"","image-keyboard-response","312","121310","0.0-402.0","3DQQ64TANH77AYMG87CTBOZNC6IWPK","A2QFZ2524HID2B","3I7KR83SNAZT1REYB2SRC49PCEEK9H","","0.8999999761581421","img/food3.png","76","2.5","3","0","","3","1","1,0.5,0,1,0.5,0,0.5,0,1","0,1,0.5,0,1,0.5,1,0.5,0","3",""
"","html-keyboard-response","313","121619","0.0-403.0","3DQQ64TANH77AYMG87CTBOZNC6IWPK","A2QFZ2524HID2B","3I7KR83SNAZT1REYB2SRC49PCEEK9H","","null","<img src=""img/food3.png"" style=""width:200px;border:14px solid red;"">","null","","","","","","","","","",""
"","image-keyboard-response","314","121696","0.0-404.0","3DQQ64TANH77AYMG87CTBOZNC6IWPK","A2QFZ2524HID2B","3I7KR83SNAZT1REYB2SRC49PCEEK9H","","74.5","img/food6.png","75","76.60000002384186","2","1","","2","1","1,0.5,0,1,0.5,0,0.5,0,1","0,1,0.5,0,1,0.5,1,0.5,0","3",""
"","html-keyboard-response","315","122005","0.0-405.0","3DQQ64TANH77AYMG87CTBOZNC6IWPK","A2QFZ2524HID2B","3I7KR83SNAZT1REYB2SRC49PCEEK9H","","null","<img src=""img/food6.png"" style=""width:200px; border:14px solid green;"">","null","","","","","","","","","",""
"","image-keyboard-response","316","122086","0.0-406.0","3DQQ64TANH77AYMG87CTBOZNC6IWPK","A2QFZ2524HID2B","3I7KR83SNAZT1REYB2SRC49PCEEK9H","","79","img/food1.png","75","80.79999995231628","2","1","","1","1","1,0.5,0,1,0.5,0,0.5,0,1","0,1,0.5,0,1,0.5,1,0.5,0","3",""
"","html-keyboard-response","317","122396","0.0-407.0","3DQQ64TANH77AYMG87CTBOZNC6IWPK","A2QFZ2524HID2B","3I7KR83SNAZT1REYB2SRC49PCEEK9H","","null","<img src=""img/food1.png"" style=""width:200px; border:14px solid green;"">","null","","","","","","","","","",""
"","image-keyboard-response","318","122488","0.0-408.0","3DQQ64TANH77AYMG87CTBOZNC6IWPK","A2QFZ2524HID2B","3I7KR83SNAZT1REYB2SRC49PCEEK9H","","89.70000004768372","img/food3.png","76","91.59999990463257","3","0","","3","1","1,0.5,0,1,0.5,0,0.5,0,1","0,1,0.5,0,1,0.5,1,0.5,0","3",""
"","html-keyboard-response","319","122796","0.0-409.0","3DQQ64TANH77AYMG87CTBOZNC6IWPK","A2QFZ2524HID2B","3I7KR83SNAZT1REYB2SRC49PCEEK9H","","null","<img src=""img/food3.png"" style=""width:200px;border:14px solid red;"">","null","","","","","","","","","",""
"","image-keyboard-response","320","122815","0.0-410.0","3DQQ64TANH77AYMG87CTBOZNC6IWPK","A2QFZ2524HID2B","3I7KR83SNAZT1REYB2SRC49PCEEK9H","","17.299999952316284","img/food3.png","76","19.300000071525574","3","0","","3","1","1,0.5,0,1,0.5,0,0.5,0,1","0,1,0.5,0,1,0.5,1,0.5,0","3",""
"","html-keyboard-response","321","123124","0.0-411.0","3DQQ64TANH77AYMG87CTBOZNC6IWPK","A2QFZ2524HID2B","3I7KR83SNAZT1REYB2SRC49PCEEK9H","","null","<img src=""img/food3.png"" style=""width:200px;border:14px solid red;"">","null","","","","","","","","","",""
"","image-keyboard-response","322","123150","0.0-412.0","3DQQ64TANH77AYMG87CTBOZNC6IWPK","A2QFZ2524HID2B","3I7KR83SNAZT1REYB2SRC49PCEEK9H","","23.799999952316284","img/food3.png","75","25.5","2","0","","3","1","1,0.5,0,1,0.5,0,0.5,0,1","0,1,0.5,0,1,0.5,1,0.5,0","3",""
"","html-keyboard-response","323","123452","0.0-413.0","3DQQ64TANH77AYMG87CTBOZNC6IWPK","A2QFZ2524HID2B","3I7KR83SNAZT1REYB2SRC49PCEEK9H","","null","<img src=""img/food3.png"" style=""width:200px;border:14px solid red;"">","null","","","","","","","","","",""
"","image-keyboard-response","324","123630","0.0-414.0","3DQQ64TANH77AYMG87CTBOZNC6IWPK","A2QFZ2524HID2B","3I7KR83SNAZT1REYB2SRC49PCEEK9H","","175.30000007152557","img/food3.png","75","177","2","0","","3","1","1,0.5,0,1,0.5,0,0.5,0,1","0,1,0.5,0,1,0.5,1,0.5,0","3",""
"","html-keyboard-response","325","123940","0.0-415.0","3DQQ64TANH77AYMG87CTBOZNC6IWPK","A2QFZ2524HID2B","3I7KR83SNAZT1REYB2SRC49PCEEK9H","","null","<img src=""img/food3.png"" style=""width:200px;border:14px solid red;"">","null","","","","","","","","","",""
"","image-keyboard-response","326","124087","0.0-416.0","3DQQ64TANH77AYMG87CTBOZNC6IWPK","A2QFZ2524HID2B","3I7KR83SNAZT1REYB2SRC49PCEEK9H","","144.89999997615814","img/food6.png","75","146.89999997615814","2","1","","2","1","1,0.5,0,1,0.5,0,0.5,0,1","0,1,0.5,0,1,0.5,1,0.5,0","3",""
"","html-keyboard-response","327","124396","0.0-417.0","3DQQ64TANH77AYMG87CTBOZNC6IWPK","A2QFZ2524HID2B","3I7KR83SNAZT1REYB2SRC49PCEEK9H","","null","<img src=""img/food6.png"" style=""width:200px; border:14px solid green;"">","null","","","","","","","","","",""
"","image-keyboard-response","328","124485","0.0-418.0","3DQQ64TANH77AYMG87CTBOZNC6IWPK","A2QFZ2524HID2B","3I7KR83SNAZT1REYB2SRC49PCEEK9H","","86.39999997615814","img/food1.png","75","88.29999995231628","2","1","","1","1","1,0.5,0,1,0.5,0,0.5,0,1","0,1,0.5,0,1,0.5,1,0.5,0","3",""
"","html-keyboard-response","329","124796","0.0-419.0","3DQQ64TANH77AYMG87CTBOZNC6IWPK","A2QFZ2524HID2B","3I7KR83SNAZT1REYB2SRC49PCEEK9H","","null","<img src=""img/food1.png"" style=""width:200px; border:14px solid green;"">","null","","","","","","","","","",""
"","image-keyboard-response","330","124977","0.0-420.0","3DQQ64TANH77AYMG87CTBOZNC6IWPK","A2QFZ2524HID2B","3I7KR83SNAZT1REYB2SRC49PCEEK9H","","178.60000002384186","img/food1.png","74","180.40000009536743","1","0","","1","1","1,0.5,0,1,0.5,0,0.5,0,1","0,1,0.5,0,1,0.5,1,0.5,0","3",""
"","html-keyboard-response","331","125284","0.0-421.0","3DQQ64TANH77AYMG87CTBOZNC6IWPK","A2QFZ2524HID2B","3I7KR83SNAZT1REYB2SRC49PCEEK9H","","null","<img src=""img/food1.png"" style=""width:200px;border:14px solid red;"">","null","","","","","","","","","",""
"","image-keyboard-response","332","125374","0.0-422.0","3DQQ64TANH77AYMG87CTBOZNC6IWPK","A2QFZ2524HID2B","3I7KR83SNAZT1REYB2SRC49PCEEK9H","","86.5","img/food1.png","75","89.59999990463257","2","1","","1","1","1,0.5,0,1,0.5,0,0.5,0,1","0,1,0.5,0,1,0.5,1,0.5,0","3",""
"","html-keyboard-response","333","125684","0.0-423.0","3DQQ64TANH77AYMG87CTBOZNC6IWPK","A2QFZ2524HID2B","3I7KR83SNAZT1REYB2SRC49PCEEK9H","","null","<img src=""img/food1.png"" style=""width:200px; border:14px solid green;"">","null","","","","","","","","","",""
"","image-keyboard-response","334","125831","0.0-424.0","3DQQ64TANH77AYMG87CTBOZNC6IWPK","A2QFZ2524HID2B","3I7KR83SNAZT1REYB2SRC49PCEEK9H","","145.10000002384186","img/food6.png","76","146.80000007152557","3","0","","2","1","1,0.5,0,1,0.5,0,0.5,0,1","0,1,0.5,0,1,0.5,1,0.5,0","3",""
"","html-keyboard-response","335","126140","0.0-425.0","3DQQ64TANH77AYMG87CTBOZNC6IWPK","A2QFZ2524HID2B","3I7KR83SNAZT1REYB2SRC49PCEEK9H","","null","<img src=""img/food6.png"" style=""width:200px;border:14px solid red;"">","null","","","","","","","","","",""
"","image-keyboard-response","336","126357","0.0-426.0","3DQQ64TANH77AYMG87CTBOZNC6IWPK","A2QFZ2524HID2B","3I7KR83SNAZT1REYB2SRC49PCEEK9H","","215.40000009536743","img/food3.png","75","217.29999995231628","2","1","","3","1","1,0.5,0,1,0.5,0,0.5,0,1","0,1,0.5,0,1,0.5,1,0.5,0","3",""
"","html-keyboard-response","337","126668","0.0-427.0","3DQQ64TANH77AYMG87CTBOZNC6IWPK","A2QFZ2524HID2B","3I7KR83SNAZT1REYB2SRC49PCEEK9H","","null","<img src=""img/food3.png"" style=""width:200px; border:14px solid green;"">","null","","","","","","","","","",""
"","image-keyboard-response","338","126683","0.0-428.0","3DQQ64TANH77AYMG87CTBOZNC6IWPK","A2QFZ2524HID2B","3I7KR83SNAZT1REYB2SRC49PCEEK9H","","13.5","img/food6.png","75","15.099999904632568","2","1","","2","1","1,0.5,0,1,0.5,0,0.5,0,1","0,1,0.5,0,1,0.5,1,0.5,0","3",""
"","html-keyboard-response","339","126988","0.0-429.0","3DQQ64TANH77AYMG87CTBOZNC6IWPK","A2QFZ2524HID2B","3I7KR83SNAZT1REYB2SRC49PCEEK9H","","null","<img src=""img/food6.png"" style=""width:200px; border:14px solid green;"">","null","","","","","","","","","",""
"","image-keyboard-response","340","127039","0.0-430.0","3DQQ64TANH77AYMG87CTBOZNC6IWPK","A2QFZ2524HID2B","3I7KR83SNAZT1REYB2SRC49PCEEK9H","","49.09999990463257","img/food3.png","75","50.799999952316284","2","0","","3","1","1,0.5,0,1,0.5,0,0.5,0,1","0,1,0.5,0,1,0.5,1,0.5,0","3",""
"","html-keyboard-response","341","127348","0.0-431.0","3DQQ64TANH77AYMG87CTBOZNC6IWPK","A2QFZ2524HID2B","3I7KR83SNAZT1REYB2SRC49PCEEK9H","","null","<img src=""img/food3.png"" style=""width:200px;border:14px solid red;"">","null","","","","","","","","","",""
"","image-keyboard-response","342","127411","0.0-432.0","3DQQ64TANH77AYMG87CTBOZNC6IWPK","A2QFZ2524HID2B","3I7KR83SNAZT1REYB2SRC49PCEEK9H","","61.299999952316284","img/food6.png","75","63.200000047683716","2","1","","2","1","1,0.5,0,1,0.5,0,0.5,0,1","0,1,0.5,0,1,0.5,1,0.5,0","3",""
"","html-keyboard-response","343","127716","0.0-433.0","3DQQ64TANH77AYMG87CTBOZNC6IWPK","A2QFZ2524HID2B","3I7KR83SNAZT1REYB2SRC49PCEEK9H","","null","<img src=""img/food6.png"" style=""width:200px; border:14px solid green;"">","null","","","","","","","","","",""
"","image-keyboard-response","344","127845","0.0-434.0","3DQQ64TANH77AYMG87CTBOZNC6IWPK","A2QFZ2524HID2B","3I7KR83SNAZT1REYB2SRC49PCEEK9H","","126","img/food1.png","74","128","1","0","","1","1","1,0.5,0,1,0.5,0,0.5,0,1","0,1,0.5,0,1,0.5,1,0.5,0","3",""
"","html-keyboard-response","345","128147","0.0-435.0","3DQQ64TANH77AYMG87CTBOZNC6IWPK","A2QFZ2524HID2B","3I7KR83SNAZT1REYB2SRC49PCEEK9H","","null","<img src=""img/food1.png"" style=""width:200px;border:14px solid red;"">","null","","","","","","","","","",""
"","image-keyboard-response","346","128278","0.0-436.0","3DQQ64TANH77AYMG87CTBOZNC6IWPK","A2QFZ2524HID2B","3I7KR83SNAZT1REYB2SRC49PCEEK9H","","127.89999997615814","img/food1.png","76","129.70000004768372","3","0","","1","1","1,0.5,0,1,0.5,0,0.5,0,1","0,1,0.5,0,1,0.5,1,0.5,0","3",""
"","html-keyboard-response","347","128587","0.0-437.0","3DQQ64TANH77AYMG87CTBOZNC6IWPK","A2QFZ2524HID2B","3I7KR83SNAZT1REYB2SRC49PCEEK9H","","null","<img src=""img/food1.png"" style=""width:200px;border:14px solid red;"">","null","","","","","","","","","",""
"","image-keyboard-response","348","128734","0.0-438.0","3DQQ64TANH77AYMG87CTBOZNC6IWPK","A2QFZ2524HID2B","3I7KR83SNAZT1REYB2SRC49PCEEK9H","","144.5","img/food1.png","75","146.5","2","1","","1","1","1,0.5,0,1,0.5,0,0.5,0,1","0,1,0.5,0,1,0.5,1,0.5,0","3",""
"","html-keyboard-response","349","129044","0.0-439.0","3DQQ64TANH77AYMG87CTBOZNC6IWPK","A2QFZ2524HID2B","3I7KR83SNAZT1REYB2SRC49PCEEK9H","","null","<img src=""img/food1.png"" style=""width:200px; border:14px solid green;"">","null","","","","","","","","","",""
"","image-keyboard-response","350","129206","0.0-440.0","3DQQ64TANH77AYMG87CTBOZNC6IWPK","A2QFZ2524HID2B","3I7KR83SNAZT1REYB2SRC49PCEEK9H","","160.5","img/food3.png","74","162.20000004768372","1","1","","3","1","1,0.5,0,1,0.5,0,0.5,0,1","0,1,0.5,0,1,0.5,1,0.5,0","3",""
"","html-keyboard-response","351","129516","0.0-441.0","3DQQ64TANH77AYMG87CTBOZNC6IWPK","A2QFZ2524HID2B","3I7KR83SNAZT1REYB2SRC49PCEEK9H","","null","<img src=""img/food3.png"" style=""width:200px; border:14px solid green;"">","null","","","","","","","","","",""
"","image-keyboard-response","352","129568","0.0-442.0","3DQQ64TANH77AYMG87CTBOZNC6IWPK","A2QFZ2524HID2B","3I7KR83SNAZT1REYB2SRC49PCEEK9H","","49.39999997615814","img/food1.png","76","51.39999997615814","3","0","","1","1","1,0.5,0,1,0.5,0,0.5,0,1","0,1,0.5,0,1,0.5,1,0.5,0","3",""
"","html-keyboard-response","353","129875","0.0-443.0","3DQQ64TANH77AYMG87CTBOZNC6IWPK","A2QFZ2524HID2B","3I7KR83SNAZT1REYB2SRC49PCEEK9H","","null","<img src=""img/food1.png"" style=""width:200px;border:14px solid red;"">","null","","","","","","","","","",""
"","image-keyboard-response","354","129965","0.0-444.0","3DQQ64TANH77AYMG87CTBOZNC6IWPK","A2QFZ2524HID2B","3I7KR83SNAZT1REYB2SRC49PCEEK9H","","87.5","img/food1.png","74","89.19999992847443","1","0","","1","1","1,0.5,0,1,0.5,0,0.5,0,1","0,1,0.5,0,1,0.5,1,0.5,0","3",""
"","html-keyboard-response","355","130267","0.0-445.0","3DQQ64TANH77AYMG87CTBOZNC6IWPK","A2QFZ2524HID2B","3I7KR83SNAZT1REYB2SRC49PCEEK9H","","null","<img src=""img/food1.png"" style=""width:200px;border:14px solid red;"">","null","","","","","","","","","",""
"","image-keyboard-response","356","130354","0.0-446.0","3DQQ64TANH77AYMG87CTBOZNC6IWPK","A2QFZ2524HID2B","3I7KR83SNAZT1REYB2SRC49PCEEK9H","","84.60000002384186","img/food6.png","74","86.40000009536743","1","0","","2","1","1,0.5,0,1,0.5,0,0.5,0,1","0,1,0.5,0,1,0.5,1,0.5,0","3",""
"","html-keyboard-response","357","130659","0.0-447.0","3DQQ64TANH77AYMG87CTBOZNC6IWPK","A2QFZ2524HID2B","3I7KR83SNAZT1REYB2SRC49PCEEK9H","","null","<img src=""img/food6.png"" style=""width:200px;border:14px solid red;"">","null","","","","","","","","","",""
"","image-keyboard-response","358","130692","0.0-448.0","3DQQ64TANH77AYMG87CTBOZNC6IWPK","A2QFZ2524HID2B","3I7KR83SNAZT1REYB2SRC49PCEEK9H","","30.5","img/food6.png","75","32.200000047683716","2","1","","2","1","1,0.5,0,1,0.5,0,0.5,0,1","0,1,0.5,0,1,0.5,1,0.5,0","3",""
"","html-keyboard-response","359","130996","0.0-449.0","3DQQ64TANH77AYMG87CTBOZNC6IWPK","A2QFZ2524HID2B","3I7KR83SNAZT1REYB2SRC49PCEEK9H","","null","<img src=""img/food6.png"" style=""width:200px; border:14px solid green;"">","null","","","","","","","","","",""
"","image-keyboard-response","360","131051","0.0-450.0","3DQQ64TANH77AYMG87CTBOZNC6IWPK","A2QFZ2524HID2B","3I7KR83SNAZT1REYB2SRC49PCEEK9H","","52.60000002384186","img/food3.png","75","54.60000002384186","2","0","","3","1","1,0.5,0,1,0.5,0,0.5,0,1","0,1,0.5,0,1,0.5,1,0.5,0","3",""
"","html-keyboard-response","361","131356","0.0-451.0","3DQQ64TANH77AYMG87CTBOZNC6IWPK","A2QFZ2524HID2B","3I7KR83SNAZT1REYB2SRC49PCEEK9H","","null","<img src=""img/food3.png"" style=""width:200px;border:14px solid red;"">","null","","","","","","","","","",""
"","image-keyboard-response","362","131405","0.0-452.0","3DQQ64TANH77AYMG87CTBOZNC6IWPK","A2QFZ2524HID2B","3I7KR83SNAZT1REYB2SRC49PCEEK9H","","46.799999952316284","img/food6.png","74","48.90000009536743","1","0","","2","1","1,0.5,0,1,0.5,0,0.5,0,1","0,1,0.5,0,1,0.5,1,0.5,0","3",""
"","html-keyboard-response","363","131717","0.0-453.0","3DQQ64TANH77AYMG87CTBOZNC6IWPK","A2QFZ2524HID2B","3I7KR83SNAZT1REYB2SRC49PCEEK9H","","null","<img src=""img/food6.png"" style=""width:200px;border:14px solid red;"">","null","","","","","","","","","",""
"","html-keyboard-response","364","135210","0.0-454.0","3DQQ64TANH77AYMG87CTBOZNC6IWPK","A2QFZ2524HID2B","3I7KR83SNAZT1REYB2SRC49PCEEK9H","","","","","","","","","","","","","",""
"","instructions","365","138392","0.0-455.0","3DQQ64TANH77AYMG87CTBOZNC6IWPK","A2QFZ2524HID2B","3I7KR83SNAZT1REYB2SRC49PCEEK9H","[{""page_index"":0,""viewing_time"":3180.8000000715256}]","3181.3000000715256","","","","","","","","","","","",""
"","survey-text","366","148277","0.0-456.0","3DQQ64TANH77AYMG87CTBOZNC6IWPK","A2QFZ2524HID2B","3I7KR83SNAZT1REYB2SRC49PCEEK9H","","9881.100000023842","","","","","","","","","","","","{""Q0"":""A2QFZ2524HID2B""}"
