"success","trial_type","trial_index","time_elapsed","internal_node_id","assignmentID","mturkID","hitID","view_history","rt","stimulus","key_press","reactionTime","a","r","s","cond","reward_cond","reward_cond_actual","reward_matrix_idx","warning","responses"
"true","fullscreen","0","2847","0.0-0.0","3OLQQLKKNTBH7NXRSUD3SM6BW8WJEQ","A2QTL039A5VV3I","3HUR21WDDUBEMSLDIXZW1FAIHWSYXN","","","","","","","","","","","","","",""
"","instructions","1","290411","0.0-1.0","3OLQQLKKNTBH7NXRSUD3SM6BW8WJEQ","A2QTL039A5VV3I","3HUR21WDDUBEMSLDIXZW1FAIHWSYXN","[{""page_index"":0,""viewing_time"":1917},{""page_index"":1,""viewing_time"":93.90000009536743},{""page_index"":2,""viewing_time"":1601.5999999046326},{""page_index"":3,""viewing_time"":278337.2000000477},{""page_index"":4,""viewing_time"":1399.2000000476837},{""page_index"":5,""viewing_time"":1399.1999999284744},{""page_index"":6,""viewing_time"":2814.100000023842}]","287562.8000000715","","","","","","","","","","","",""
"","image-keyboard-response","2","291314","0.0-2.0","3OLQQLKKNTBH7NXRSUD3SM6BW8WJEQ","A2QTL039A5VV3I","3HUR21WDDUBEMSLDIXZW1FAIHWSYXN","","900.9000000953674","img/food3.png","76","901.8999999761581","3","1","2","1","1,0.5,0,1,0.5,0,0.5,0,1","0.5,0,1,0.5,0,1,0,1,0.5","2","",""
"","html-keyboard-response","3","291616","0.0-3.0","3OLQQLKKNTBH7NXRSUD3SM6BW8WJEQ","A2QTL039A5VV3I","3HUR21WDDUBEMSLDIXZW1FAIHWSYXN","","null","<img src=""img/food3.png"" style=""width:200px; border:14px solid green;"">","null","","","","","","","","","",""
"","image-keyboard-response","4","292203","0.0-4.0","3OLQQLKKNTBH7NXRSUD3SM6BW8WJEQ","A2QTL039A5VV3I","3HUR21WDDUBEMSLDIXZW1FAIHWSYXN","","586.3999999761581","img/food1.png","76","587.2999999523163","3","1","1","1","1,0.5,0,1,0.5,0,0.5,0,1","0.5,0,1,0.5,0,1,0,1,0.5","2","",""
"","html-keyboard-response","5","292505","0.0-5.0","3OLQQLKKNTBH7NXRSUD3SM6BW8WJEQ","A2QTL039A5VV3I","3HUR21WDDUBEMSLDIXZW1FAIHWSYXN","","null","<img src=""img/food1.png"" style=""width:200px; border:14px solid green;"">","null","","","","","","","","","",""
"","image-keyboard-response","6","292937","0.0-6.0","3OLQQLKKNTBH7NXRSUD3SM6BW8WJEQ","A2QTL039A5VV3I","3HUR21WDDUBEMSLDIXZW1FAIHWSYXN","","431.1999999284744","img/food1.png","76","432","3","1","1","1","1,0.5,0,1,0.5,0,0.5,0,1","0.5,0,1,0.5,0,1,0,1,0.5","2","",""
"","html-keyboard-response","7","293239","0.0-7.0","3OLQQLKKNTBH7NXRSUD3SM6BW8WJEQ","A2QTL039A5VV3I","3HUR21WDDUBEMSLDIXZW1FAIHWSYXN","","null","<img src=""img/food1.png"" style=""width:200px; border:14px solid green;"">","null","","","","","","","","","",""
"","image-keyboard-response","8","293499","0.0-8.0","3OLQQLKKNTBH7NXRSUD3SM6BW8WJEQ","A2QTL039A5VV3I","3HUR21WDDUBEMSLDIXZW1FAIHWSYXN","","259.3000000715256","img/food3.png","76","259.7999999523163","3","1","2","1","1,0.5,0,1,0.5,0,0.5,0,1","0.5,0,1,0.5,0,1,0,1,0.5","2","",""
"","html-keyboard-response","9","293801","0.0-9.0","3OLQQLKKNTBH7NXRSUD3SM6BW8WJEQ","A2QTL039A5VV3I","3HUR21WDDUBEMSLDIXZW1FAIHWSYXN","","null","<img src=""img/food3.png"" style=""width:200px; border:14px solid green;"">","null","","","","","","","","","",""
"","image-keyboard-response","10","294078","0.0-10.0","3OLQQLKKNTBH7NXRSUD3SM6BW8WJEQ","A2QTL039A5VV3I","3HUR21WDDUBEMSLDIXZW1FAIHWSYXN","","275.3000000715256","img/food3.png","76","276.3000000715256","3","1","2","1","1,0.5,0,1,0.5,0,0.5,0,1","0.5,0,1,0.5,0,1,0,1,0.5","2","",""
"","html-keyboard-response","11","294379","0.0-11.0","3OLQQLKKNTBH7NXRSUD3SM6BW8WJEQ","A2QTL039A5VV3I","3HUR21WDDUBEMSLDIXZW1FAIHWSYXN","","null","<img src=""img/food3.png"" style=""width:200px; border:14px solid green;"">","null","","","","","","","","","",""
"","image-keyboard-response","12","294653","0.0-12.0","3OLQQLKKNTBH7NXRSUD3SM6BW8WJEQ","A2QTL039A5VV3I","3HUR21WDDUBEMSLDIXZW1FAIHWSYXN","","273.6999999284744","img/food3.png","76","274.10000002384186","3","1","2","1","1,0.5,0,1,0.5,0,0.5,0,1","0.5,0,1,0.5,0,1,0,1,0.5","2","",""
"","html-keyboard-response","13","294955","0.0-13.0","3OLQQLKKNTBH7NXRSUD3SM6BW8WJEQ","A2QTL039A5VV3I","3HUR21WDDUBEMSLDIXZW1FAIHWSYXN","","null","<img src=""img/food3.png"" style=""width:200px; border:14px solid green;"">","null","","","","","","","","","",""
"","image-keyboard-response","14","295324","0.0-14.0","3OLQQLKKNTBH7NXRSUD3SM6BW8WJEQ","A2QTL039A5VV3I","3HUR21WDDUBEMSLDIXZW1FAIHWSYXN","","367.89999997615814","img/food1.png","76","368.89999997615814","3","1","1","1","1,0.5,0,1,0.5,0,0.5,0,1","0.5,0,1,0.5,0,1,0,1,0.5","2","",""
"","html-keyboard-response","15","295626","0.0-15.0","3OLQQLKKNTBH7NXRSUD3SM6BW8WJEQ","A2QTL039A5VV3I","3HUR21WDDUBEMSLDIXZW1FAIHWSYXN","","null","<img src=""img/food1.png"" style=""width:200px; border:14px solid green;"">","null","","","","","","","","","",""
"","image-keyboard-response","16","295934","0.0-16.0","3OLQQLKKNTBH7NXRSUD3SM6BW8WJEQ","A2QTL039A5VV3I","3HUR21WDDUBEMSLDIXZW1FAIHWSYXN","","307.10000002384186","img/food3.png","76","307.8000000715256","3","1","2","1","1,0.5,0,1,0.5,0,0.5,0,1","0.5,0,1,0.5,0,1,0,1,0.5","2","",""
"","html-keyboard-response","17","296235","0.0-17.0","3OLQQLKKNTBH7NXRSUD3SM6BW8WJEQ","A2QTL039A5VV3I","3HUR21WDDUBEMSLDIXZW1FAIHWSYXN","","null","<img src=""img/food3.png"" style=""width:200px; border:14px solid green;"">","null","","","","","","","","","",""
"","image-keyboard-response","18","296504","0.0-18.0","3OLQQLKKNTBH7NXRSUD3SM6BW8WJEQ","A2QTL039A5VV3I","3HUR21WDDUBEMSLDIXZW1FAIHWSYXN","","268.2000000476837","img/food2.png","76","268.7999999523163","3","0","3","1","1,0.5,0,1,0.5,0,0.5,0,1","0.5,0,1,0.5,0,1,0,1,0.5","2","",""
"","html-keyboard-response","19","296806","0.0-19.0","3OLQQLKKNTBH7NXRSUD3SM6BW8WJEQ","A2QTL039A5VV3I","3HUR21WDDUBEMSLDIXZW1FAIHWSYXN","","null","<img src=""img/food2.png"" style=""width:200px;border:14px solid red;"">","null","","","","","","","","","",""
"","image-keyboard-response","20","297450","0.0-20.0","3OLQQLKKNTBH7NXRSUD3SM6BW8WJEQ","A2QTL039A5VV3I","3HUR21WDDUBEMSLDIXZW1FAIHWSYXN","","643.9000000953674","img/food2.png","75","644.5","2","1","3","1","1,0.5,0,1,0.5,0,0.5,0,1","0.5,0,1,0.5,0,1,0,1,0.5","2","",""
"","html-keyboard-response","21","297756","0.0-21.0","3OLQQLKKNTBH7NXRSUD3SM6BW8WJEQ","A2QTL039A5VV3I","3HUR21WDDUBEMSLDIXZW1FAIHWSYXN","","null","<img src=""img/food2.png"" style=""width:200px; border:14px solid green;"">","null","","","","","","","","","",""
"","image-keyboard-response","22","298183","0.0-22.0","3OLQQLKKNTBH7NXRSUD3SM6BW8WJEQ","A2QTL039A5VV3I","3HUR21WDDUBEMSLDIXZW1FAIHWSYXN","","425.39999997615814","img/food2.png","75","426.3000000715256","2","1","3","1","1,0.5,0,1,0.5,0,0.5,0,1","0.5,0,1,0.5,0,1,0,1,0.5","2","",""
"","html-keyboard-response","23","298485","0.0-23.0","3OLQQLKKNTBH7NXRSUD3SM6BW8WJEQ","A2QTL039A5VV3I","3HUR21WDDUBEMSLDIXZW1FAIHWSYXN","","null","<img src=""img/food2.png"" style=""width:200px; border:14px solid green;"">","null","","","","","","","","","",""
"","image-keyboard-response","24","298791","0.0-24.0","3OLQQLKKNTBH7NXRSUD3SM6BW8WJEQ","A2QTL039A5VV3I","3HUR21WDDUBEMSLDIXZW1FAIHWSYXN","","305.10000002384186","img/food2.png","75","305.8000000715256","2","1","3","1","1,0.5,0,1,0.5,0,0.5,0,1","0.5,0,1,0.5,0,1,0,1,0.5","2","",""
"","html-keyboard-response","25","299104","0.0-25.0","3OLQQLKKNTBH7NXRSUD3SM6BW8WJEQ","A2QTL039A5VV3I","3HUR21WDDUBEMSLDIXZW1FAIHWSYXN","","null","<img src=""img/food2.png"" style=""width:200px; border:14px solid green;"">","null","","","","","","","","","",""
"","image-keyboard-response","26","299606","0.0-26.0","3OLQQLKKNTBH7NXRSUD3SM6BW8WJEQ","A2QTL039A5VV3I","3HUR21WDDUBEMSLDIXZW1FAIHWSYXN","","500.89999997615814","img/food3.png","76","501.60000002384186","3","1","2","1","1,0.5,0,1,0.5,0,0.5,0,1","0.5,0,1,0.5,0,1,0,1,0.5","2","",""
"","html-keyboard-response","27","299908","0.0-27.0","3OLQQLKKNTBH7NXRSUD3SM6BW8WJEQ","A2QTL039A5VV3I","3HUR21WDDUBEMSLDIXZW1FAIHWSYXN","","null","<img src=""img/food3.png"" style=""width:200px; border:14px solid green;"">","null","","","","","","","","","",""
"","image-keyboard-response","28","300334","0.0-28.0","3OLQQLKKNTBH7NXRSUD3SM6BW8WJEQ","A2QTL039A5VV3I","3HUR21WDDUBEMSLDIXZW1FAIHWSYXN","","425.2000000476837","img/food1.png","76","425.89999997615814","3","1","1","1","1,0.5,0,1,0.5,0,0.5,0,1","0.5,0,1,0.5,0,1,0,1,0.5","2","",""
"","html-keyboard-response","29","300637","0.0-29.0","3OLQQLKKNTBH7NXRSUD3SM6BW8WJEQ","A2QTL039A5VV3I","3HUR21WDDUBEMSLDIXZW1FAIHWSYXN","","null","<img src=""img/food1.png"" style=""width:200px; border:14px solid green;"">","null","","","","","","","","","",""
"","image-keyboard-response","30","300949","0.0-30.0","3OLQQLKKNTBH7NXRSUD3SM6BW8WJEQ","A2QTL039A5VV3I","3HUR21WDDUBEMSLDIXZW1FAIHWSYXN","","311.2999999523163","img/food1.png","76","312.10000002384186","3","1","1","1","1,0.5,0,1,0.5,0,0.5,0,1","0.5,0,1,0.5,0,1,0,1,0.5","2","",""
"","html-keyboard-response","31","301250","0.0-31.0","3OLQQLKKNTBH7NXRSUD3SM6BW8WJEQ","A2QTL039A5VV3I","3HUR21WDDUBEMSLDIXZW1FAIHWSYXN","","null","<img src=""img/food1.png"" style=""width:200px; border:14px solid green;"">","null","","","","","","","","","",""
"","image-keyboard-response","32","301746","0.0-32.0","3OLQQLKKNTBH7NXRSUD3SM6BW8WJEQ","A2QTL039A5VV3I","3HUR21WDDUBEMSLDIXZW1FAIHWSYXN","","494.59999990463257","img/food3.png","75","495.39999997615814","2","0","2","1","1,0.5,0,1,0.5,0,0.5,0,1","0.5,0,1,0.5,0,1,0,1,0.5","2","",""
"","html-keyboard-response","33","302049","0.0-33.0","3OLQQLKKNTBH7NXRSUD3SM6BW8WJEQ","A2QTL039A5VV3I","3HUR21WDDUBEMSLDIXZW1FAIHWSYXN","","null","<img src=""img/food3.png"" style=""width:200px;border:14px solid red;"">","null","","","","","","","","","",""
"","image-keyboard-response","34","302290","0.0-34.0","3OLQQLKKNTBH7NXRSUD3SM6BW8WJEQ","A2QTL039A5VV3I","3HUR21WDDUBEMSLDIXZW1FAIHWSYXN","","241.10000002384186","img/food1.png","76","241.60000002384186","3","1","1","1","1,0.5,0,1,0.5,0,0.5,0,1","0.5,0,1,0.5,0,1,0,1,0.5","2","",""
"","html-keyboard-response","35","302591","0.0-35.0","3OLQQLKKNTBH7NXRSUD3SM6BW8WJEQ","A2QTL039A5VV3I","3HUR21WDDUBEMSLDIXZW1FAIHWSYXN","","null","<img src=""img/food1.png"" style=""width:200px; border:14px solid green;"">","null","","","","","","","","","",""
"","image-keyboard-response","36","302900","0.0-36.0","3OLQQLKKNTBH7NXRSUD3SM6BW8WJEQ","A2QTL039A5VV3I","3HUR21WDDUBEMSLDIXZW1FAIHWSYXN","","308","img/food1.png","76","308.7000000476837","3","1","1","1","1,0.5,0,1,0.5,0,0.5,0,1","0.5,0,1,0.5,0,1,0,1,0.5","2","",""
"","html-keyboard-response","37","303201","0.0-37.0","3OLQQLKKNTBH7NXRSUD3SM6BW8WJEQ","A2QTL039A5VV3I","3HUR21WDDUBEMSLDIXZW1FAIHWSYXN","","null","<img src=""img/food1.png"" style=""width:200px; border:14px solid green;"">","null","","","","","","","","","",""
"","image-keyboard-response","38","303523","0.0-38.0","3OLQQLKKNTBH7NXRSUD3SM6BW8WJEQ","A2QTL039A5VV3I","3HUR21WDDUBEMSLDIXZW1FAIHWSYXN","","320.8000000715256","img/food1.png","76","321.39999997615814","3","1","1","1","1,0.5,0,1,0.5,0,0.5,0,1","0.5,0,1,0.5,0,1,0,1,0.5","2","",""
"","html-keyboard-response","39","303825","0.0-39.0","3OLQQLKKNTBH7NXRSUD3SM6BW8WJEQ","A2QTL039A5VV3I","3HUR21WDDUBEMSLDIXZW1FAIHWSYXN","","null","<img src=""img/food1.png"" style=""width:200px; border:14px solid green;"">","null","","","","","","","","","",""
"","image-keyboard-response","40","304546","0.0-40.0","3OLQQLKKNTBH7NXRSUD3SM6BW8WJEQ","A2QTL039A5VV3I","3HUR21WDDUBEMSLDIXZW1FAIHWSYXN","","720.3000000715256","img/food2.png","75","721","2","1","3","1","1,0.5,0,1,0.5,0,0.5,0,1","0.5,0,1,0.5,0,1,0,1,0.5","2","",""
"","html-keyboard-response","41","304848","0.0-41.0","3OLQQLKKNTBH7NXRSUD3SM6BW8WJEQ","A2QTL039A5VV3I","3HUR21WDDUBEMSLDIXZW1FAIHWSYXN","","null","<img src=""img/food2.png"" style=""width:200px; border:14px solid green;"">","null","","","","","","","","","",""
"","image-keyboard-response","42","305210","0.0-42.0","3OLQQLKKNTBH7NXRSUD3SM6BW8WJEQ","A2QTL039A5VV3I","3HUR21WDDUBEMSLDIXZW1FAIHWSYXN","","360.6999999284744","img/food2.png","75","361.1999999284744","2","1","3","1","1,0.5,0,1,0.5,0,0.5,0,1","0.5,0,1,0.5,0,1,0,1,0.5","2","",""
"","html-keyboard-response","43","305511","0.0-43.0","3OLQQLKKNTBH7NXRSUD3SM6BW8WJEQ","A2QTL039A5VV3I","3HUR21WDDUBEMSLDIXZW1FAIHWSYXN","","null","<img src=""img/food2.png"" style=""width:200px; border:14px solid green;"">","null","","","","","","","","","",""
"","image-keyboard-response","44","306079","0.0-44.0","3OLQQLKKNTBH7NXRSUD3SM6BW8WJEQ","A2QTL039A5VV3I","3HUR21WDDUBEMSLDIXZW1FAIHWSYXN","","567.1999999284744","img/food3.png","76","567.8000000715256","3","1","2","1","1,0.5,0,1,0.5,0,0.5,0,1","0.5,0,1,0.5,0,1,0,1,0.5","2","",""
"","html-keyboard-response","45","306381","0.0-45.0","3OLQQLKKNTBH7NXRSUD3SM6BW8WJEQ","A2QTL039A5VV3I","3HUR21WDDUBEMSLDIXZW1FAIHWSYXN","","null","<img src=""img/food3.png"" style=""width:200px; border:14px solid green;"">","null","","","","","","","","","",""
"","image-keyboard-response","46","306710","0.0-46.0","3OLQQLKKNTBH7NXRSUD3SM6BW8WJEQ","A2QTL039A5VV3I","3HUR21WDDUBEMSLDIXZW1FAIHWSYXN","","328.10000002384186","img/food3.png","76","329.10000002384186","3","1","2","1","1,0.5,0,1,0.5,0,0.5,0,1","0.5,0,1,0.5,0,1,0,1,0.5","2","",""
"","html-keyboard-response","47","307013","0.0-47.0","3OLQQLKKNTBH7NXRSUD3SM6BW8WJEQ","A2QTL039A5VV3I","3HUR21WDDUBEMSLDIXZW1FAIHWSYXN","","null","<img src=""img/food3.png"" style=""width:200px; border:14px solid green;"">","null","","","","","","","","","",""
"","image-keyboard-response","48","307492","0.0-48.0","3OLQQLKKNTBH7NXRSUD3SM6BW8WJEQ","A2QTL039A5VV3I","3HUR21WDDUBEMSLDIXZW1FAIHWSYXN","","477.59999990463257","img/food1.png","76","478.59999990463257","3","1","1","1","1,0.5,0,1,0.5,0,0.5,0,1","0.5,0,1,0.5,0,1,0,1,0.5","2","",""
"","html-keyboard-response","49","307799","0.0-49.0","3OLQQLKKNTBH7NXRSUD3SM6BW8WJEQ","A2QTL039A5VV3I","3HUR21WDDUBEMSLDIXZW1FAIHWSYXN","","null","<img src=""img/food1.png"" style=""width:200px; border:14px solid green;"">","null","","","","","","","","","",""
"","image-keyboard-response","50","308504","0.0-50.0","3OLQQLKKNTBH7NXRSUD3SM6BW8WJEQ","A2QTL039A5VV3I","3HUR21WDDUBEMSLDIXZW1FAIHWSYXN","","704.8999999761581","img/food2.png","75","705.2999999523163","2","1","3","1","1,0.5,0,1,0.5,0,0.5,0,1","0.5,0,1,0.5,0,1,0,1,0.5","2","",""
"","html-keyboard-response","51","308806","0.0-51.0","3OLQQLKKNTBH7NXRSUD3SM6BW8WJEQ","A2QTL039A5VV3I","3HUR21WDDUBEMSLDIXZW1FAIHWSYXN","","null","<img src=""img/food2.png"" style=""width:200px; border:14px solid green;"">","null","","","","","","","","","",""
"","image-keyboard-response","52","309126","0.0-52.0","3OLQQLKKNTBH7NXRSUD3SM6BW8WJEQ","A2QTL039A5VV3I","3HUR21WDDUBEMSLDIXZW1FAIHWSYXN","","319.2999999523163","img/food2.png","75","319.7000000476837","2","1","3","1","1,0.5,0,1,0.5,0,0.5,0,1","0.5,0,1,0.5,0,1,0,1,0.5","2","",""
"","html-keyboard-response","53","309427","0.0-53.0","3OLQQLKKNTBH7NXRSUD3SM6BW8WJEQ","A2QTL039A5VV3I","3HUR21WDDUBEMSLDIXZW1FAIHWSYXN","","null","<img src=""img/food2.png"" style=""width:200px; border:14px solid green;"">","null","","","","","","","","","",""
"","image-keyboard-response","54","309761","0.0-54.0","3OLQQLKKNTBH7NXRSUD3SM6BW8WJEQ","A2QTL039A5VV3I","3HUR21WDDUBEMSLDIXZW1FAIHWSYXN","","332.7999999523163","img/food2.png","75","333.2000000476837","2","1","3","1","1,0.5,0,1,0.5,0,0.5,0,1","0.5,0,1,0.5,0,1,0,1,0.5","2","",""
"","html-keyboard-response","55","310062","0.0-55.0","3OLQQLKKNTBH7NXRSUD3SM6BW8WJEQ","A2QTL039A5VV3I","3HUR21WDDUBEMSLDIXZW1FAIHWSYXN","","null","<img src=""img/food2.png"" style=""width:200px; border:14px solid green;"">","null","","","","","","","","","",""
"","image-keyboard-response","56","310593","0.0-56.0","3OLQQLKKNTBH7NXRSUD3SM6BW8WJEQ","A2QTL039A5VV3I","3HUR21WDDUBEMSLDIXZW1FAIHWSYXN","","530.6000000238419","img/food3.png","76","531.3000000715256","3","1","2","1","1,0.5,0,1,0.5,0,0.5,0,1","0.5,0,1,0.5,0,1,0,1,0.5","2","",""
"","html-keyboard-response","57","310896","0.0-57.0","3OLQQLKKNTBH7NXRSUD3SM6BW8WJEQ","A2QTL039A5VV3I","3HUR21WDDUBEMSLDIXZW1FAIHWSYXN","","null","<img src=""img/food3.png"" style=""width:200px; border:14px solid green;"">","null","","","","","","","","","",""
"","image-keyboard-response","58","311283","0.0-58.0","3OLQQLKKNTBH7NXRSUD3SM6BW8WJEQ","A2QTL039A5VV3I","3HUR21WDDUBEMSLDIXZW1FAIHWSYXN","","386.6999999284744","img/food1.png","76","387.10000002384186","3","1","1","1","1,0.5,0,1,0.5,0,0.5,0,1","0.5,0,1,0.5,0,1,0,1,0.5","2","",""
"","html-keyboard-response","59","311586","0.0-59.0","3OLQQLKKNTBH7NXRSUD3SM6BW8WJEQ","A2QTL039A5VV3I","3HUR21WDDUBEMSLDIXZW1FAIHWSYXN","","null","<img src=""img/food1.png"" style=""width:200px; border:14px solid green;"">","null","","","","","","","","","",""
"","image-keyboard-response","60","313145","0.0-60.0","3OLQQLKKNTBH7NXRSUD3SM6BW8WJEQ","A2QTL039A5VV3I","3HUR21WDDUBEMSLDIXZW1FAIHWSYXN","","1558.3999999761581","img/food2.png","75","1558.6999999284744","2","1","3","1","1,0.5,0,1,0.5,0,0.5,0,1","0.5,0,1,0.5,0,1,0,1,0.5","2","",""
"","html-keyboard-response","61","313459","0.0-61.0","3OLQQLKKNTBH7NXRSUD3SM6BW8WJEQ","A2QTL039A5VV3I","3HUR21WDDUBEMSLDIXZW1FAIHWSYXN","","null","<img src=""img/food2.png"" style=""width:200px; border:14px solid green;"">","null","","","","","","","","","",""
"","image-keyboard-response","62","313781","0.0-62.0","3OLQQLKKNTBH7NXRSUD3SM6BW8WJEQ","A2QTL039A5VV3I","3HUR21WDDUBEMSLDIXZW1FAIHWSYXN","","321.2000000476837","img/food2.png","75","322","2","1","3","1","1,0.5,0,1,0.5,0,0.5,0,1","0.5,0,1,0.5,0,1,0,1,0.5","2","",""
"","html-keyboard-response","63","314083","0.0-63.0","3OLQQLKKNTBH7NXRSUD3SM6BW8WJEQ","A2QTL039A5VV3I","3HUR21WDDUBEMSLDIXZW1FAIHWSYXN","","null","<img src=""img/food2.png"" style=""width:200px; border:14px solid green;"">","null","","","","","","","","","",""
"","image-keyboard-response","64","315138","0.0-64.0","3OLQQLKKNTBH7NXRSUD3SM6BW8WJEQ","A2QTL039A5VV3I","3HUR21WDDUBEMSLDIXZW1FAIHWSYXN","","1053.7000000476837","img/food3.png","76","1054.6000000238419","3","1","2","1","1,0.5,0,1,0.5,0,0.5,0,1","0.5,0,1,0.5,0,1,0,1,0.5","2","",""
"","html-keyboard-response","65","315439","0.0-65.0","3OLQQLKKNTBH7NXRSUD3SM6BW8WJEQ","A2QTL039A5VV3I","3HUR21WDDUBEMSLDIXZW1FAIHWSYXN","","null","<img src=""img/food3.png"" style=""width:200px; border:14px solid green;"">","null","","","","","","","","","",""
"","image-keyboard-response","66","315855","0.0-66.0","3OLQQLKKNTBH7NXRSUD3SM6BW8WJEQ","A2QTL039A5VV3I","3HUR21WDDUBEMSLDIXZW1FAIHWSYXN","","414.60000002384186","img/food1.png","76","415.39999997615814","3","1","1","1","1,0.5,0,1,0.5,0,0.5,0,1","0.5,0,1,0.5,0,1,0,1,0.5","2","",""
"","html-keyboard-response","67","316156","0.0-67.0","3OLQQLKKNTBH7NXRSUD3SM6BW8WJEQ","A2QTL039A5VV3I","3HUR21WDDUBEMSLDIXZW1FAIHWSYXN","","null","<img src=""img/food1.png"" style=""width:200px; border:14px solid green;"">","null","","","","","","","","","",""
"","image-keyboard-response","68","316540","0.0-68.0","3OLQQLKKNTBH7NXRSUD3SM6BW8WJEQ","A2QTL039A5VV3I","3HUR21WDDUBEMSLDIXZW1FAIHWSYXN","","383","img/food3.png","76","383.7000000476837","3","1","2","1","1,0.5,0,1,0.5,0,0.5,0,1","0.5,0,1,0.5,0,1,0,1,0.5","2","",""
"","html-keyboard-response","69","316841","0.0-69.0","3OLQQLKKNTBH7NXRSUD3SM6BW8WJEQ","A2QTL039A5VV3I","3HUR21WDDUBEMSLDIXZW1FAIHWSYXN","","null","<img src=""img/food3.png"" style=""width:200px; border:14px solid green;"">","null","","","","","","","","","",""
"","image-keyboard-response","70","317510","0.0-70.0","3OLQQLKKNTBH7NXRSUD3SM6BW8WJEQ","A2QTL039A5VV3I","3HUR21WDDUBEMSLDIXZW1FAIHWSYXN","","667.6000000238419","img/food3.png","76","668.2000000476837","3","1","2","1","1,0.5,0,1,0.5,0,0.5,0,1","0.5,0,1,0.5,0,1,0,1,0.5","2","",""
"","html-keyboard-response","71","317811","0.0-71.0","3OLQQLKKNTBH7NXRSUD3SM6BW8WJEQ","A2QTL039A5VV3I","3HUR21WDDUBEMSLDIXZW1FAIHWSYXN","","null","<img src=""img/food3.png"" style=""width:200px; border:14px solid green;"">","null","","","","","","","","","",""
"","image-keyboard-response","72","318580","0.0-72.0","3OLQQLKKNTBH7NXRSUD3SM6BW8WJEQ","A2QTL039A5VV3I","3HUR21WDDUBEMSLDIXZW1FAIHWSYXN","","768.2999999523163","img/food2.png","75","768.7000000476837","2","1","3","1","1,0.5,0,1,0.5,0,0.5,0,1","0.5,0,1,0.5,0,1,0,1,0.5","2","",""
"","html-keyboard-response","73","318882","0.0-73.0","3OLQQLKKNTBH7NXRSUD3SM6BW8WJEQ","A2QTL039A5VV3I","3HUR21WDDUBEMSLDIXZW1FAIHWSYXN","","null","<img src=""img/food2.png"" style=""width:200px; border:14px solid green;"">","null","","","","","","","","","",""
"","image-keyboard-response","74","319420","0.0-74.0","3OLQQLKKNTBH7NXRSUD3SM6BW8WJEQ","A2QTL039A5VV3I","3HUR21WDDUBEMSLDIXZW1FAIHWSYXN","","536.3999999761581","img/food2.png","75","537.5999999046326","2","1","3","1","1,0.5,0,1,0.5,0,0.5,0,1","0.5,0,1,0.5,0,1,0,1,0.5","2","",""
"","html-keyboard-response","75","319725","0.0-75.0","3OLQQLKKNTBH7NXRSUD3SM6BW8WJEQ","A2QTL039A5VV3I","3HUR21WDDUBEMSLDIXZW1FAIHWSYXN","","null","<img src=""img/food2.png"" style=""width:200px; border:14px solid green;"">","null","","","","","","","","","",""
"","image-keyboard-response","76","320486","0.0-76.0","3OLQQLKKNTBH7NXRSUD3SM6BW8WJEQ","A2QTL039A5VV3I","3HUR21WDDUBEMSLDIXZW1FAIHWSYXN","","760.2000000476837","img/food3.png","76","760.8999999761581","3","1","2","1","1,0.5,0,1,0.5,0,0.5,0,1","0.5,0,1,0.5,0,1,0,1,0.5","2","",""
"","html-keyboard-response","77","320787","0.0-77.0","3OLQQLKKNTBH7NXRSUD3SM6BW8WJEQ","A2QTL039A5VV3I","3HUR21WDDUBEMSLDIXZW1FAIHWSYXN","","null","<img src=""img/food3.png"" style=""width:200px; border:14px solid green;"">","null","","","","","","","","","",""
"","image-keyboard-response","78","321252","0.0-78.0","3OLQQLKKNTBH7NXRSUD3SM6BW8WJEQ","A2QTL039A5VV3I","3HUR21WDDUBEMSLDIXZW1FAIHWSYXN","","464.2000000476837","img/food3.png","76","464.7000000476837","3","1","2","1","1,0.5,0,1,0.5,0,0.5,0,1","0.5,0,1,0.5,0,1,0,1,0.5","2","",""
"","html-keyboard-response","79","321554","0.0-79.0","3OLQQLKKNTBH7NXRSUD3SM6BW8WJEQ","A2QTL039A5VV3I","3HUR21WDDUBEMSLDIXZW1FAIHWSYXN","","null","<img src=""img/food3.png"" style=""width:200px; border:14px solid green;"">","null","","","","","","","","","",""
"","image-keyboard-response","80","322073","0.0-80.0","3OLQQLKKNTBH7NXRSUD3SM6BW8WJEQ","A2QTL039A5VV3I","3HUR21WDDUBEMSLDIXZW1FAIHWSYXN","","519","img/food2.png","75","519.6000000238419","2","1","3","1","1,0.5,0,1,0.5,0,0.5,0,1","0.5,0,1,0.5,0,1,0,1,0.5","2","",""
"","html-keyboard-response","81","322377","0.0-81.0","3OLQQLKKNTBH7NXRSUD3SM6BW8WJEQ","A2QTL039A5VV3I","3HUR21WDDUBEMSLDIXZW1FAIHWSYXN","","null","<img src=""img/food2.png"" style=""width:200px; border:14px solid green;"">","null","","","","","","","","","",""
"","image-keyboard-response","82","322972","0.0-82.0","3OLQQLKKNTBH7NXRSUD3SM6BW8WJEQ","A2QTL039A5VV3I","3HUR21WDDUBEMSLDIXZW1FAIHWSYXN","","593.8999999761581","img/food1.png","76","594.2999999523163","3","1","1","1","1,0.5,0,1,0.5,0,0.5,0,1","0.5,0,1,0.5,0,1,0,1,0.5","2","",""
"","html-keyboard-response","83","323274","0.0-83.0","3OLQQLKKNTBH7NXRSUD3SM6BW8WJEQ","A2QTL039A5VV3I","3HUR21WDDUBEMSLDIXZW1FAIHWSYXN","","null","<img src=""img/food1.png"" style=""width:200px; border:14px solid green;"">","null","","","","","","","","","",""
"","image-keyboard-response","84","323680","0.0-84.0","3OLQQLKKNTBH7NXRSUD3SM6BW8WJEQ","A2QTL039A5VV3I","3HUR21WDDUBEMSLDIXZW1FAIHWSYXN","","405.7000000476837","img/food1.png","76","406.2999999523163","3","1","1","1","1,0.5,0,1,0.5,0,0.5,0,1","0.5,0,1,0.5,0,1,0,1,0.5","2","",""
"","html-keyboard-response","85","323981","0.0-85.0","3OLQQLKKNTBH7NXRSUD3SM6BW8WJEQ","A2QTL039A5VV3I","3HUR21WDDUBEMSLDIXZW1FAIHWSYXN","","null","<img src=""img/food1.png"" style=""width:200px; border:14px solid green;"">","null","","","","","","","","","",""
"","image-keyboard-response","86","324293","0.0-86.0","3OLQQLKKNTBH7NXRSUD3SM6BW8WJEQ","A2QTL039A5VV3I","3HUR21WDDUBEMSLDIXZW1FAIHWSYXN","","311.2999999523163","img/food1.png","76","311.8000000715256","3","1","1","1","1,0.5,0,1,0.5,0,0.5,0,1","0.5,0,1,0.5,0,1,0,1,0.5","2","",""
"","html-keyboard-response","87","324595","0.0-87.0","3OLQQLKKNTBH7NXRSUD3SM6BW8WJEQ","A2QTL039A5VV3I","3HUR21WDDUBEMSLDIXZW1FAIHWSYXN","","null","<img src=""img/food1.png"" style=""width:200px; border:14px solid green;"">","null","","","","","","","","","",""
"","image-keyboard-response","88","325188","0.0-88.0","3OLQQLKKNTBH7NXRSUD3SM6BW8WJEQ","A2QTL039A5VV3I","3HUR21WDDUBEMSLDIXZW1FAIHWSYXN","","592.1000000238419","img/food2.png","75","593.1000000238419","2","1","3","1","1,0.5,0,1,0.5,0,0.5,0,1","0.5,0,1,0.5,0,1,0,1,0.5","2","",""
"","html-keyboard-response","89","325490","0.0-89.0","3OLQQLKKNTBH7NXRSUD3SM6BW8WJEQ","A2QTL039A5VV3I","3HUR21WDDUBEMSLDIXZW1FAIHWSYXN","","null","<img src=""img/food2.png"" style=""width:200px; border:14px solid green;"">","null","","","","","","","","","",""
"","image-keyboard-response","90","326013","0.0-90.0","3OLQQLKKNTBH7NXRSUD3SM6BW8WJEQ","A2QTL039A5VV3I","3HUR21WDDUBEMSLDIXZW1FAIHWSYXN","","522.6000000238419","img/food1.png","76","523.0999999046326","3","1","1","1","1,0.5,0,1,0.5,0,0.5,0,1","0.5,0,1,0.5,0,1,0,1,0.5","2","",""
"","html-keyboard-response","91","326315","0.0-91.0","3OLQQLKKNTBH7NXRSUD3SM6BW8WJEQ","A2QTL039A5VV3I","3HUR21WDDUBEMSLDIXZW1FAIHWSYXN","","null","<img src=""img/food1.png"" style=""width:200px; border:14px solid green;"">","null","","","","","","","","","",""
"","image-keyboard-response","92","326979","0.0-92.0","3OLQQLKKNTBH7NXRSUD3SM6BW8WJEQ","A2QTL039A5VV3I","3HUR21WDDUBEMSLDIXZW1FAIHWSYXN","","664","img/food3.png","75","664.5","2","0","2","1","1,0.5,0,1,0.5,0,0.5,0,1","0.5,0,1,0.5,0,1,0,1,0.5","2","",""
"","html-keyboard-response","93","327281","0.0-93.0","3OLQQLKKNTBH7NXRSUD3SM6BW8WJEQ","A2QTL039A5VV3I","3HUR21WDDUBEMSLDIXZW1FAIHWSYXN","","null","<img src=""img/food3.png"" style=""width:200px;border:14px solid red;"">","null","","","","","","","","","",""
"","image-keyboard-response","94","327604","0.0-94.0","3OLQQLKKNTBH7NXRSUD3SM6BW8WJEQ","A2QTL039A5VV3I","3HUR21WDDUBEMSLDIXZW1FAIHWSYXN","","321.60000002384186","img/food2.png","76","322.59999990463257","3","1","3","1","1,0.5,0,1,0.5,0,0.5,0,1","0.5,0,1,0.5,0,1,0,1,0.5","2","",""
"","html-keyboard-response","95","327906","0.0-95.0","3OLQQLKKNTBH7NXRSUD3SM6BW8WJEQ","A2QTL039A5VV3I","3HUR21WDDUBEMSLDIXZW1FAIHWSYXN","","null","<img src=""img/food2.png"" style=""width:200px; border:14px solid green;"">","null","","","","","","","","","",""
"","image-keyboard-response","96","328249","0.0-96.0","3OLQQLKKNTBH7NXRSUD3SM6BW8WJEQ","A2QTL039A5VV3I","3HUR21WDDUBEMSLDIXZW1FAIHWSYXN","","341.5","img/food2.png","76","342.2000000476837","3","0","3","1","1,0.5,0,1,0.5,0,0.5,0,1","0.5,0,1,0.5,0,1,0,1,0.5","2","",""
"","html-keyboard-response","97","328551","0.0-97.0","3OLQQLKKNTBH7NXRSUD3SM6BW8WJEQ","A2QTL039A5VV3I","3HUR21WDDUBEMSLDIXZW1FAIHWSYXN","","null","<img src=""img/food2.png"" style=""width:200px;border:14px solid red;"">","null","","","","","","","","","",""
"","image-keyboard-response","98","329015","0.0-98.0","3OLQQLKKNTBH7NXRSUD3SM6BW8WJEQ","A2QTL039A5VV3I","3HUR21WDDUBEMSLDIXZW1FAIHWSYXN","","463.1999999284744","img/food1.png","75","464","2","0","1","1","1,0.5,0,1,0.5,0,0.5,0,1","0.5,0,1,0.5,0,1,0,1,0.5","2","",""
"","html-keyboard-response","99","329316","0.0-99.0","3OLQQLKKNTBH7NXRSUD3SM6BW8WJEQ","A2QTL039A5VV3I","3HUR21WDDUBEMSLDIXZW1FAIHWSYXN","","null","<img src=""img/food1.png"" style=""width:200px;border:14px solid red;"">","null","","","","","","","","","",""
"","image-keyboard-response","100","329782","0.0-100.0","3OLQQLKKNTBH7NXRSUD3SM6BW8WJEQ","A2QTL039A5VV3I","3HUR21WDDUBEMSLDIXZW1FAIHWSYXN","","465.10000002384186","img/food1.png","76","465.6999999284744","3","1","1","1","1,0.5,0,1,0.5,0,0.5,0,1","0.5,0,1,0.5,0,1,0,1,0.5","2","",""
"","html-keyboard-response","101","330085","0.0-101.0","3OLQQLKKNTBH7NXRSUD3SM6BW8WJEQ","A2QTL039A5VV3I","3HUR21WDDUBEMSLDIXZW1FAIHWSYXN","","null","<img src=""img/food1.png"" style=""width:200px; border:14px solid green;"">","null","","","","","","","","","",""
"","image-keyboard-response","102","330636","0.0-102.0","3OLQQLKKNTBH7NXRSUD3SM6BW8WJEQ","A2QTL039A5VV3I","3HUR21WDDUBEMSLDIXZW1FAIHWSYXN","","550.1000000238419","img/food2.png","76","550.7000000476837","3","0","3","1","1,0.5,0,1,0.5,0,0.5,0,1","0.5,0,1,0.5,0,1,0,1,0.5","2","",""
"","html-keyboard-response","103","330937","0.0-103.0","3OLQQLKKNTBH7NXRSUD3SM6BW8WJEQ","A2QTL039A5VV3I","3HUR21WDDUBEMSLDIXZW1FAIHWSYXN","","null","<img src=""img/food2.png"" style=""width:200px;border:14px solid red;"">","null","","","","","","","","","",""
"","image-keyboard-response","104","331140","0.0-104.0","3OLQQLKKNTBH7NXRSUD3SM6BW8WJEQ","A2QTL039A5VV3I","3HUR21WDDUBEMSLDIXZW1FAIHWSYXN","","201.89999997615814","img/food1.png","75","202.89999997615814","2","0","1","1","1,0.5,0,1,0.5,0,0.5,0,1","0.5,0,1,0.5,0,1,0,1,0.5","2","",""
"","html-keyboard-response","105","331442","0.0-105.0","3OLQQLKKNTBH7NXRSUD3SM6BW8WJEQ","A2QTL039A5VV3I","3HUR21WDDUBEMSLDIXZW1FAIHWSYXN","","null","<img src=""img/food1.png"" style=""width:200px;border:14px solid red;"">","null","","","","","","","","","",""
"","image-keyboard-response","106","331639","0.0-106.0","3OLQQLKKNTBH7NXRSUD3SM6BW8WJEQ","A2QTL039A5VV3I","3HUR21WDDUBEMSLDIXZW1FAIHWSYXN","","195.5","img/food1.png","76","196.19999992847443","3","1","1","1","1,0.5,0,1,0.5,0,0.5,0,1","0.5,0,1,0.5,0,1,0,1,0.5","2","",""
"","html-keyboard-response","107","331941","0.0-107.0","3OLQQLKKNTBH7NXRSUD3SM6BW8WJEQ","A2QTL039A5VV3I","3HUR21WDDUBEMSLDIXZW1FAIHWSYXN","","null","<img src=""img/food1.png"" style=""width:200px; border:14px solid green;"">","null","","","","","","","","","",""
"","image-keyboard-response","108","332430","0.0-108.0","3OLQQLKKNTBH7NXRSUD3SM6BW8WJEQ","A2QTL039A5VV3I","3HUR21WDDUBEMSLDIXZW1FAIHWSYXN","","488.7999999523163","img/food2.png","75","490.39999997615814","2","1","3","1","1,0.5,0,1,0.5,0,0.5,0,1","0.5,0,1,0.5,0,1,0,1,0.5","2","",""
"","html-keyboard-response","109","332734","0.0-109.0","3OLQQLKKNTBH7NXRSUD3SM6BW8WJEQ","A2QTL039A5VV3I","3HUR21WDDUBEMSLDIXZW1FAIHWSYXN","","null","<img src=""img/food2.png"" style=""width:200px; border:14px solid green;"">","null","","","","","","","","","",""
"","image-keyboard-response","110","333373","0.0-110.0","3OLQQLKKNTBH7NXRSUD3SM6BW8WJEQ","A2QTL039A5VV3I","3HUR21WDDUBEMSLDIXZW1FAIHWSYXN","","638.3999999761581","img/food3.png","76","639.1999999284744","3","1","2","1","1,0.5,0,1,0.5,0,0.5,0,1","0.5,0,1,0.5,0,1,0,1,0.5","2","",""
"","html-keyboard-response","111","333675","0.0-111.0","3OLQQLKKNTBH7NXRSUD3SM6BW8WJEQ","A2QTL039A5VV3I","3HUR21WDDUBEMSLDIXZW1FAIHWSYXN","","null","<img src=""img/food3.png"" style=""width:200px; border:14px solid green;"">","null","","","","","","","","","",""
"","image-keyboard-response","112","334292","0.0-112.0","3OLQQLKKNTBH7NXRSUD3SM6BW8WJEQ","A2QTL039A5VV3I","3HUR21WDDUBEMSLDIXZW1FAIHWSYXN","","616.1000000238419","img/food2.png","75","616.5","2","1","3","1","1,0.5,0,1,0.5,0,0.5,0,1","0.5,0,1,0.5,0,1,0,1,0.5","2","",""
"","html-keyboard-response","113","334594","0.0-113.0","3OLQQLKKNTBH7NXRSUD3SM6BW8WJEQ","A2QTL039A5VV3I","3HUR21WDDUBEMSLDIXZW1FAIHWSYXN","","null","<img src=""img/food2.png"" style=""width:200px; border:14px solid green;"">","null","","","","","","","","","",""
"","image-keyboard-response","114","335094","0.0-114.0","3OLQQLKKNTBH7NXRSUD3SM6BW8WJEQ","A2QTL039A5VV3I","3HUR21WDDUBEMSLDIXZW1FAIHWSYXN","","499","img/food2.png","75","499.6999999284744","2","1","3","1","1,0.5,0,1,0.5,0,0.5,0,1","0.5,0,1,0.5,0,1,0,1,0.5","2","",""
"","html-keyboard-response","115","335395","0.0-115.0","3OLQQLKKNTBH7NXRSUD3SM6BW8WJEQ","A2QTL039A5VV3I","3HUR21WDDUBEMSLDIXZW1FAIHWSYXN","","null","<img src=""img/food2.png"" style=""width:200px; border:14px solid green;"">","null","","","","","","","","","",""
"","image-keyboard-response","116","335926","0.0-116.0","3OLQQLKKNTBH7NXRSUD3SM6BW8WJEQ","A2QTL039A5VV3I","3HUR21WDDUBEMSLDIXZW1FAIHWSYXN","","530.8999999761581","img/food2.png","75","531.5","2","1","3","1","1,0.5,0,1,0.5,0,0.5,0,1","0.5,0,1,0.5,0,1,0,1,0.5","2","",""
"","html-keyboard-response","117","336228","0.0-117.0","3OLQQLKKNTBH7NXRSUD3SM6BW8WJEQ","A2QTL039A5VV3I","3HUR21WDDUBEMSLDIXZW1FAIHWSYXN","","null","<img src=""img/food2.png"" style=""width:200px; border:14px solid green;"">","null","","","","","","","","","",""
"","image-keyboard-response","118","337146","0.0-118.0","3OLQQLKKNTBH7NXRSUD3SM6BW8WJEQ","A2QTL039A5VV3I","3HUR21WDDUBEMSLDIXZW1FAIHWSYXN","","917.7000000476837","img/food1.png","76","918.5","3","1","1","1","1,0.5,0,1,0.5,0,0.5,0,1","0.5,0,1,0.5,0,1,0,1,0.5","2","",""
"","html-keyboard-response","119","337447","0.0-119.0","3OLQQLKKNTBH7NXRSUD3SM6BW8WJEQ","A2QTL039A5VV3I","3HUR21WDDUBEMSLDIXZW1FAIHWSYXN","","null","<img src=""img/food1.png"" style=""width:200px; border:14px solid green;"">","null","","","","","","","","","",""
"","image-keyboard-response","120","338206","0.0-120.0","3OLQQLKKNTBH7NXRSUD3SM6BW8WJEQ","A2QTL039A5VV3I","3HUR21WDDUBEMSLDIXZW1FAIHWSYXN","","758.5","img/food3.png","75","759.2000000476837","2","0","2","1","1,0.5,0,1,0.5,0,0.5,0,1","0.5,0,1,0.5,0,1,0,1,0.5","2","",""
"","html-keyboard-response","121","338508","0.0-121.0","3OLQQLKKNTBH7NXRSUD3SM6BW8WJEQ","A2QTL039A5VV3I","3HUR21WDDUBEMSLDIXZW1FAIHWSYXN","","null","<img src=""img/food3.png"" style=""width:200px;border:14px solid red;"">","null","","","","","","","","","",""
"","image-keyboard-response","122","339059","0.0-122.0","3OLQQLKKNTBH7NXRSUD3SM6BW8WJEQ","A2QTL039A5VV3I","3HUR21WDDUBEMSLDIXZW1FAIHWSYXN","","549.6000000238419","img/food2.png","76","550.2999999523163","3","1","3","1","1,0.5,0,1,0.5,0,0.5,0,1","0.5,0,1,0.5,0,1,0,1,0.5","2","",""
"","html-keyboard-response","123","339361","0.0-123.0","3OLQQLKKNTBH7NXRSUD3SM6BW8WJEQ","A2QTL039A5VV3I","3HUR21WDDUBEMSLDIXZW1FAIHWSYXN","","null","<img src=""img/food2.png"" style=""width:200px; border:14px solid green;"">","null","","","","","","","","","",""
"","image-keyboard-response","124","341263","0.0-124.0","3OLQQLKKNTBH7NXRSUD3SM6BW8WJEQ","A2QTL039A5VV3I","3HUR21WDDUBEMSLDIXZW1FAIHWSYXN","","1901.7999999523163","img/food1.png","76","1902.6000000238419","3","1","1","1","1,0.5,0,1,0.5,0,0.5,0,1","0.5,0,1,0.5,0,1,0,1,0.5","2","",""
"","html-keyboard-response","125","341566","0.0-125.0","3OLQQLKKNTBH7NXRSUD3SM6BW8WJEQ","A2QTL039A5VV3I","3HUR21WDDUBEMSLDIXZW1FAIHWSYXN","","null","<img src=""img/food1.png"" style=""width:200px; border:14px solid green;"">","null","","","","","","","","","",""
"","image-keyboard-response","126","342211","0.0-126.0","3OLQQLKKNTBH7NXRSUD3SM6BW8WJEQ","A2QTL039A5VV3I","3HUR21WDDUBEMSLDIXZW1FAIHWSYXN","","644.1000000238419","img/food3.png","76","644.6999999284744","3","1","2","1","1,0.5,0,1,0.5,0,0.5,0,1","0.5,0,1,0.5,0,1,0,1,0.5","2","",""
"","html-keyboard-response","127","342512","0.0-127.0","3OLQQLKKNTBH7NXRSUD3SM6BW8WJEQ","A2QTL039A5VV3I","3HUR21WDDUBEMSLDIXZW1FAIHWSYXN","","null","<img src=""img/food3.png"" style=""width:200px; border:14px solid green;"">","null","","","","","","","","","",""
"","image-keyboard-response","128","343639","0.0-128.0","3OLQQLKKNTBH7NXRSUD3SM6BW8WJEQ","A2QTL039A5VV3I","3HUR21WDDUBEMSLDIXZW1FAIHWSYXN","","1126","img/food1.png","76","1126.6999999284744","3","1","1","1","1,0.5,0,1,0.5,0,0.5,0,1","0.5,0,1,0.5,0,1,0,1,0.5","2","",""
"","html-keyboard-response","129","343941","0.0-129.0","3OLQQLKKNTBH7NXRSUD3SM6BW8WJEQ","A2QTL039A5VV3I","3HUR21WDDUBEMSLDIXZW1FAIHWSYXN","","null","<img src=""img/food1.png"" style=""width:200px; border:14px solid green;"">","null","","","","","","","","","",""
"","image-keyboard-response","130","345198","0.0-130.0","3OLQQLKKNTBH7NXRSUD3SM6BW8WJEQ","A2QTL039A5VV3I","3HUR21WDDUBEMSLDIXZW1FAIHWSYXN","","1255.8000000715256","img/food3.png","76","1256.5","3","1","2","1","1,0.5,0,1,0.5,0,0.5,0,1","0.5,0,1,0.5,0,1,0,1,0.5","2","",""
"","html-keyboard-response","131","345499","0.0-131.0","3OLQQLKKNTBH7NXRSUD3SM6BW8WJEQ","A2QTL039A5VV3I","3HUR21WDDUBEMSLDIXZW1FAIHWSYXN","","null","<img src=""img/food3.png"" style=""width:200px; border:14px solid green;"">","null","","","","","","","","","",""
"","image-keyboard-response","132","345964","0.0-132.0","3OLQQLKKNTBH7NXRSUD3SM6BW8WJEQ","A2QTL039A5VV3I","3HUR21WDDUBEMSLDIXZW1FAIHWSYXN","","464.7999999523163","img/food3.png","76","465.2000000476837","3","1","2","1","1,0.5,0,1,0.5,0,0.5,0,1","0.5,0,1,0.5,0,1,0,1,0.5","2","",""
"","html-keyboard-response","133","346266","0.0-133.0","3OLQQLKKNTBH7NXRSUD3SM6BW8WJEQ","A2QTL039A5VV3I","3HUR21WDDUBEMSLDIXZW1FAIHWSYXN","","null","<img src=""img/food3.png"" style=""width:200px; border:14px solid green;"">","null","","","","","","","","","",""
"","image-keyboard-response","134","346932","0.0-134.0","3OLQQLKKNTBH7NXRSUD3SM6BW8WJEQ","A2QTL039A5VV3I","3HUR21WDDUBEMSLDIXZW1FAIHWSYXN","","664.7000000476837","img/food1.png","76","665.6000000238419","3","1","1","1","1,0.5,0,1,0.5,0,0.5,0,1","0.5,0,1,0.5,0,1,0,1,0.5","2","",""
"","html-keyboard-response","135","347234","0.0-135.0","3OLQQLKKNTBH7NXRSUD3SM6BW8WJEQ","A2QTL039A5VV3I","3HUR21WDDUBEMSLDIXZW1FAIHWSYXN","","null","<img src=""img/food1.png"" style=""width:200px; border:14px solid green;"">","null","","","","","","","","","",""
"","image-keyboard-response","136","348487","0.0-136.0","3OLQQLKKNTBH7NXRSUD3SM6BW8WJEQ","A2QTL039A5VV3I","3HUR21WDDUBEMSLDIXZW1FAIHWSYXN","","1252","img/food1.png","76","1252.6000000238419","3","1","1","1","1,0.5,0,1,0.5,0,0.5,0,1","0.5,0,1,0.5,0,1,0,1,0.5","2","",""
"","html-keyboard-response","137","348788","0.0-137.0","3OLQQLKKNTBH7NXRSUD3SM6BW8WJEQ","A2QTL039A5VV3I","3HUR21WDDUBEMSLDIXZW1FAIHWSYXN","","null","<img src=""img/food1.png"" style=""width:200px; border:14px solid green;"">","null","","","","","","","","","",""
"","image-keyboard-response","138","350590","0.0-138.0","3OLQQLKKNTBH7NXRSUD3SM6BW8WJEQ","A2QTL039A5VV3I","3HUR21WDDUBEMSLDIXZW1FAIHWSYXN","","1801.2999999523163","img/food2.png","76","1801.7000000476837","3","1","3","1","1,0.5,0,1,0.5,0,0.5,0,1","0.5,0,1,0.5,0,1,0,1,0.5","2","",""
"","html-keyboard-response","139","350891","0.0-139.0","3OLQQLKKNTBH7NXRSUD3SM6BW8WJEQ","A2QTL039A5VV3I","3HUR21WDDUBEMSLDIXZW1FAIHWSYXN","","null","<img src=""img/food2.png"" style=""width:200px; border:14px solid green;"">","null","","","","","","","","","",""
"","image-keyboard-response","140","351651","0.0-140.0","3OLQQLKKNTBH7NXRSUD3SM6BW8WJEQ","A2QTL039A5VV3I","3HUR21WDDUBEMSLDIXZW1FAIHWSYXN","","758.9000000953674","img/food2.png","76","759.5","3","1","3","1","1,0.5,0,1,0.5,0,0.5,0,1","0.5,0,1,0.5,0,1,0,1,0.5","2","",""
"","html-keyboard-response","141","351953","0.0-141.0","3OLQQLKKNTBH7NXRSUD3SM6BW8WJEQ","A2QTL039A5VV3I","3HUR21WDDUBEMSLDIXZW1FAIHWSYXN","","null","<img src=""img/food2.png"" style=""width:200px; border:14px solid green;"">","null","","","","","","","","","",""
"","image-keyboard-response","142","352644","0.0-142.0","3OLQQLKKNTBH7NXRSUD3SM6BW8WJEQ","A2QTL039A5VV3I","3HUR21WDDUBEMSLDIXZW1FAIHWSYXN","","689.5","img/food3.png","76","690.5","3","1","2","1","1,0.5,0,1,0.5,0,0.5,0,1","0.5,0,1,0.5,0,1,0,1,0.5","2","",""
"","html-keyboard-response","143","352945","0.0-143.0","3OLQQLKKNTBH7NXRSUD3SM6BW8WJEQ","A2QTL039A5VV3I","3HUR21WDDUBEMSLDIXZW1FAIHWSYXN","","null","<img src=""img/food3.png"" style=""width:200px; border:14px solid green;"">","null","","","","","","","","","",""
"","image-keyboard-response","144","353677","0.0-144.0","3OLQQLKKNTBH7NXRSUD3SM6BW8WJEQ","A2QTL039A5VV3I","3HUR21WDDUBEMSLDIXZW1FAIHWSYXN","","730.2000000476837","img/food2.png","76","731.6000000238419","3","0","3","1","1,0.5,0,1,0.5,0,0.5,0,1","0.5,0,1,0.5,0,1,0,1,0.5","2","",""
"","html-keyboard-response","145","353978","0.0-145.0","3OLQQLKKNTBH7NXRSUD3SM6BW8WJEQ","A2QTL039A5VV3I","3HUR21WDDUBEMSLDIXZW1FAIHWSYXN","","null","<img src=""img/food2.png"" style=""width:200px;border:14px solid red;"">","null","","","","","","","","","",""
"","image-keyboard-response","146","354287","0.0-146.0","3OLQQLKKNTBH7NXRSUD3SM6BW8WJEQ","A2QTL039A5VV3I","3HUR21WDDUBEMSLDIXZW1FAIHWSYXN","","308","img/food2.png","75","308.7000000476837","2","1","3","1","1,0.5,0,1,0.5,0,0.5,0,1","0.5,0,1,0.5,0,1,0,1,0.5","2","",""
"","html-keyboard-response","147","354589","0.0-147.0","3OLQQLKKNTBH7NXRSUD3SM6BW8WJEQ","A2QTL039A5VV3I","3HUR21WDDUBEMSLDIXZW1FAIHWSYXN","","null","<img src=""img/food2.png"" style=""width:200px; border:14px solid green;"">","null","","","","","","","","","",""
"","image-keyboard-response","148","355115","0.0-148.0","3OLQQLKKNTBH7NXRSUD3SM6BW8WJEQ","A2QTL039A5VV3I","3HUR21WDDUBEMSLDIXZW1FAIHWSYXN","","525.6000000238419","img/food3.png","76","526.1999999284744","3","1","2","1","1,0.5,0,1,0.5,0,0.5,0,1","0.5,0,1,0.5,0,1,0,1,0.5","2","",""
"","html-keyboard-response","149","355417","0.0-149.0","3OLQQLKKNTBH7NXRSUD3SM6BW8WJEQ","A2QTL039A5VV3I","3HUR21WDDUBEMSLDIXZW1FAIHWSYXN","","null","<img src=""img/food3.png"" style=""width:200px; border:14px solid green;"">","null","","","","","","","","","",""
"","image-keyboard-response","150","355857","0.0-150.0","3OLQQLKKNTBH7NXRSUD3SM6BW8WJEQ","A2QTL039A5VV3I","3HUR21WDDUBEMSLDIXZW1FAIHWSYXN","","439.60000002384186","img/food3.png","76","440.10000002384186","3","1","2","1","1,0.5,0,1,0.5,0,0.5,0,1","0.5,0,1,0.5,0,1,0,1,0.5","2","",""
"","html-keyboard-response","151","356158","0.0-151.0","3OLQQLKKNTBH7NXRSUD3SM6BW8WJEQ","A2QTL039A5VV3I","3HUR21WDDUBEMSLDIXZW1FAIHWSYXN","","null","<img src=""img/food3.png"" style=""width:200px; border:14px solid green;"">","null","","","","","","","","","",""
"","image-keyboard-response","152","357029","0.0-152.0","3OLQQLKKNTBH7NXRSUD3SM6BW8WJEQ","A2QTL039A5VV3I","3HUR21WDDUBEMSLDIXZW1FAIHWSYXN","","870","img/food3.png","76","870.5","3","1","2","1","1,0.5,0,1,0.5,0,0.5,0,1","0.5,0,1,0.5,0,1,0,1,0.5","2","",""
"","html-keyboard-response","153","357330","0.0-153.0","3OLQQLKKNTBH7NXRSUD3SM6BW8WJEQ","A2QTL039A5VV3I","3HUR21WDDUBEMSLDIXZW1FAIHWSYXN","","null","<img src=""img/food3.png"" style=""width:200px; border:14px solid green;"">","null","","","","","","","","","",""
"","image-keyboard-response","154","358249","0.0-154.0","3OLQQLKKNTBH7NXRSUD3SM6BW8WJEQ","A2QTL039A5VV3I","3HUR21WDDUBEMSLDIXZW1FAIHWSYXN","","918.3999999761581","img/food2.png","75","919","2","1","3","1","1,0.5,0,1,0.5,0,0.5,0,1","0.5,0,1,0.5,0,1,0,1,0.5","2","",""
"","html-keyboard-response","155","358551","0.0-155.0","3OLQQLKKNTBH7NXRSUD3SM6BW8WJEQ","A2QTL039A5VV3I","3HUR21WDDUBEMSLDIXZW1FAIHWSYXN","","null","<img src=""img/food2.png"" style=""width:200px; border:14px solid green;"">","null","","","","","","","","","",""
"","image-keyboard-response","156","359205","0.0-156.0","3OLQQLKKNTBH7NXRSUD3SM6BW8WJEQ","A2QTL039A5VV3I","3HUR21WDDUBEMSLDIXZW1FAIHWSYXN","","653.3000000715256","img/food1.png","76","653.8999999761581","3","1","1","1","1,0.5,0,1,0.5,0,0.5,0,1","0.5,0,1,0.5,0,1,0,1,0.5","2","",""
"","html-keyboard-response","157","359507","0.0-157.0","3OLQQLKKNTBH7NXRSUD3SM6BW8WJEQ","A2QTL039A5VV3I","3HUR21WDDUBEMSLDIXZW1FAIHWSYXN","","null","<img src=""img/food1.png"" style=""width:200px; border:14px solid green;"">","null","","","","","","","","","",""
"","image-keyboard-response","158","360195","0.0-158.0","3OLQQLKKNTBH7NXRSUD3SM6BW8WJEQ","A2QTL039A5VV3I","3HUR21WDDUBEMSLDIXZW1FAIHWSYXN","","687.6000000238419","img/food3.png","76","688.3000000715256","3","1","2","1","1,0.5,0,1,0.5,0,0.5,0,1","0.5,0,1,0.5,0,1,0,1,0.5","2","",""
"","html-keyboard-response","159","360497","0.0-159.0","3OLQQLKKNTBH7NXRSUD3SM6BW8WJEQ","A2QTL039A5VV3I","3HUR21WDDUBEMSLDIXZW1FAIHWSYXN","","null","<img src=""img/food3.png"" style=""width:200px; border:14px solid green;"">","null","","","","","","","","","",""
"","image-keyboard-response","160","361733","0.0-160.0","3OLQQLKKNTBH7NXRSUD3SM6BW8WJEQ","A2QTL039A5VV3I","3HUR21WDDUBEMSLDIXZW1FAIHWSYXN","","1236","img/food2.png","75","1236.6000000238419","2","1","3","1","1,0.5,0,1,0.5,0,0.5,0,1","0.5,0,1,0.5,0,1,0,1,0.5","2","",""
"","html-keyboard-response","161","362035","0.0-161.0","3OLQQLKKNTBH7NXRSUD3SM6BW8WJEQ","A2QTL039A5VV3I","3HUR21WDDUBEMSLDIXZW1FAIHWSYXN","","null","<img src=""img/food2.png"" style=""width:200px; border:14px solid green;"">","null","","","","","","","","","",""
"","image-keyboard-response","162","362676","0.0-162.0","3OLQQLKKNTBH7NXRSUD3SM6BW8WJEQ","A2QTL039A5VV3I","3HUR21WDDUBEMSLDIXZW1FAIHWSYXN","","640.5","img/food1.png","76","641.2999999523163","3","1","1","1","1,0.5,0,1,0.5,0,0.5,0,1","0.5,0,1,0.5,0,1,0,1,0.5","2","",""
"","html-keyboard-response","163","362978","0.0-163.0","3OLQQLKKNTBH7NXRSUD3SM6BW8WJEQ","A2QTL039A5VV3I","3HUR21WDDUBEMSLDIXZW1FAIHWSYXN","","null","<img src=""img/food1.png"" style=""width:200px; border:14px solid green;"">","null","","","","","","","","","",""
"","image-keyboard-response","164","363355","0.0-164.0","3OLQQLKKNTBH7NXRSUD3SM6BW8WJEQ","A2QTL039A5VV3I","3HUR21WDDUBEMSLDIXZW1FAIHWSYXN","","376.10000002384186","img/food1.png","76","376.7000000476837","3","1","1","1","1,0.5,0,1,0.5,0,0.5,0,1","0.5,0,1,0.5,0,1,0,1,0.5","2","",""
"","html-keyboard-response","165","363656","0.0-165.0","3OLQQLKKNTBH7NXRSUD3SM6BW8WJEQ","A2QTL039A5VV3I","3HUR21WDDUBEMSLDIXZW1FAIHWSYXN","","null","<img src=""img/food1.png"" style=""width:200px; border:14px solid green;"">","null","","","","","","","","","",""
"","image-keyboard-response","166","364157","0.0-166.0","3OLQQLKKNTBH7NXRSUD3SM6BW8WJEQ","A2QTL039A5VV3I","3HUR21WDDUBEMSLDIXZW1FAIHWSYXN","","499.60000002384186","img/food1.png","76","501","3","1","1","1","1,0.5,0,1,0.5,0,0.5,0,1","0.5,0,1,0.5,0,1,0,1,0.5","2","",""
"","html-keyboard-response","167","364459","0.0-167.0","3OLQQLKKNTBH7NXRSUD3SM6BW8WJEQ","A2QTL039A5VV3I","3HUR21WDDUBEMSLDIXZW1FAIHWSYXN","","null","<img src=""img/food1.png"" style=""width:200px; border:14px solid green;"">","null","","","","","","","","","",""
"","image-keyboard-response","168","365223","0.0-168.0","3OLQQLKKNTBH7NXRSUD3SM6BW8WJEQ","A2QTL039A5VV3I","3HUR21WDDUBEMSLDIXZW1FAIHWSYXN","","763.3999999761581","img/food3.png","76","763.8999999761581","3","1","2","1","1,0.5,0,1,0.5,0,0.5,0,1","0.5,0,1,0.5,0,1,0,1,0.5","2","",""
"","html-keyboard-response","169","365525","0.0-169.0","3OLQQLKKNTBH7NXRSUD3SM6BW8WJEQ","A2QTL039A5VV3I","3HUR21WDDUBEMSLDIXZW1FAIHWSYXN","","null","<img src=""img/food3.png"" style=""width:200px; border:14px solid green;"">","null","","","","","","","","","",""
"","image-keyboard-response","170","365966","0.0-170.0","3OLQQLKKNTBH7NXRSUD3SM6BW8WJEQ","A2QTL039A5VV3I","3HUR21WDDUBEMSLDIXZW1FAIHWSYXN","","439.89999997615814","img/food3.png","76","440.7000000476837","3","1","2","1","1,0.5,0,1,0.5,0,0.5,0,1","0.5,0,1,0.5,0,1,0,1,0.5","2","",""
"","html-keyboard-response","171","366268","0.0-171.0","3OLQQLKKNTBH7NXRSUD3SM6BW8WJEQ","A2QTL039A5VV3I","3HUR21WDDUBEMSLDIXZW1FAIHWSYXN","","null","<img src=""img/food3.png"" style=""width:200px; border:14px solid green;"">","null","","","","","","","","","",""
"","image-keyboard-response","172","366933","0.0-172.0","3OLQQLKKNTBH7NXRSUD3SM6BW8WJEQ","A2QTL039A5VV3I","3HUR21WDDUBEMSLDIXZW1FAIHWSYXN","","664.5","img/food2.png","75","665.2000000476837","2","1","3","1","1,0.5,0,1,0.5,0,0.5,0,1","0.5,0,1,0.5,0,1,0,1,0.5","2","",""
"","html-keyboard-response","173","367235","0.0-173.0","3OLQQLKKNTBH7NXRSUD3SM6BW8WJEQ","A2QTL039A5VV3I","3HUR21WDDUBEMSLDIXZW1FAIHWSYXN","","null","<img src=""img/food2.png"" style=""width:200px; border:14px solid green;"">","null","","","","","","","","","",""
"","image-keyboard-response","174","367867","0.0-174.0","3OLQQLKKNTBH7NXRSUD3SM6BW8WJEQ","A2QTL039A5VV3I","3HUR21WDDUBEMSLDIXZW1FAIHWSYXN","","631.3000000715256","img/food1.png","76","632.1000000238419","3","1","1","1","1,0.5,0,1,0.5,0,0.5,0,1","0.5,0,1,0.5,0,1,0,1,0.5","2","",""
"","html-keyboard-response","175","368169","0.0-175.0","3OLQQLKKNTBH7NXRSUD3SM6BW8WJEQ","A2QTL039A5VV3I","3HUR21WDDUBEMSLDIXZW1FAIHWSYXN","","null","<img src=""img/food1.png"" style=""width:200px; border:14px solid green;"">","null","","","","","","","","","",""
"","image-keyboard-response","176","369658","0.0-176.0","3OLQQLKKNTBH7NXRSUD3SM6BW8WJEQ","A2QTL039A5VV3I","3HUR21WDDUBEMSLDIXZW1FAIHWSYXN","","1487.8999999761581","img/food3.png","76","1488.6000000238419","3","1","2","1","1,0.5,0,1,0.5,0,0.5,0,1","0.5,0,1,0.5,0,1,0,1,0.5","2","",""
"","html-keyboard-response","177","369959","0.0-177.0","3OLQQLKKNTBH7NXRSUD3SM6BW8WJEQ","A2QTL039A5VV3I","3HUR21WDDUBEMSLDIXZW1FAIHWSYXN","","null","<img src=""img/food3.png"" style=""width:200px; border:14px solid green;"">","null","","","","","","","","","",""
"","image-keyboard-response","178","370318","0.0-178.0","3OLQQLKKNTBH7NXRSUD3SM6BW8WJEQ","A2QTL039A5VV3I","3HUR21WDDUBEMSLDIXZW1FAIHWSYXN","","358.2999999523163","img/food3.png","76","358.59999990463257","3","1","2","1","1,0.5,0,1,0.5,0,0.5,0,1","0.5,0,1,0.5,0,1,0,1,0.5","2","",""
"","html-keyboard-response","179","370619","0.0-179.0","3OLQQLKKNTBH7NXRSUD3SM6BW8WJEQ","A2QTL039A5VV3I","3HUR21WDDUBEMSLDIXZW1FAIHWSYXN","","null","<img src=""img/food3.png"" style=""width:200px; border:14px solid green;"">","null","","","","","","","","","",""
"","image-keyboard-response","180","372513","0.0-180.0","3OLQQLKKNTBH7NXRSUD3SM6BW8WJEQ","A2QTL039A5VV3I","3HUR21WDDUBEMSLDIXZW1FAIHWSYXN","","1892.8999999761581","img/food1.png","76","1893.5","3","1","1","1","1,0.5,0,1,0.5,0,0.5,0,1","0.5,0,1,0.5,0,1,0,1,0.5","2","",""
"","html-keyboard-response","181","372816","0.0-181.0","3OLQQLKKNTBH7NXRSUD3SM6BW8WJEQ","A2QTL039A5VV3I","3HUR21WDDUBEMSLDIXZW1FAIHWSYXN","","null","<img src=""img/food1.png"" style=""width:200px; border:14px solid green;"">","null","","","","","","","","","",""
"","html-keyboard-response","182","376158","0.0-182.0","3OLQQLKKNTBH7NXRSUD3SM6BW8WJEQ","A2QTL039A5VV3I","3HUR21WDDUBEMSLDIXZW1FAIHWSYXN","","","","","","","","","","","","","",""
"","instructions","183","384784","0.0-183.0","3OLQQLKKNTBH7NXRSUD3SM6BW8WJEQ","A2QTL039A5VV3I","3HUR21WDDUBEMSLDIXZW1FAIHWSYXN","[{""page_index"":0,""viewing_time"":7616.200000047684},{""page_index"":1,""viewing_time"":1008.2999999523163}]","8624.700000047684","","","","","","","","","","","",""
"","image-keyboard-response","184","385341","0.0-184.0","3OLQQLKKNTBH7NXRSUD3SM6BW8WJEQ","A2QTL039A5VV3I","3HUR21WDDUBEMSLDIXZW1FAIHWSYXN","","556.6999999284744","img/food4.png","75","557.5","2","1","2","2","1,0.5,0,1,0.5,0,0.5,0,1","0,1,0.5,0,1,0.5,1,0.5,0","3","false",""
"","html-keyboard-response","185","385643","0.0-185.0","3OLQQLKKNTBH7NXRSUD3SM6BW8WJEQ","A2QTL039A5VV3I","3HUR21WDDUBEMSLDIXZW1FAIHWSYXN","","null","<img src=""img/food4.png"" style=""width:200px; border:14px solid green;"">","null","","","","","","","","","",""
"","image-keyboard-response","186","386061","0.0-187.0","3OLQQLKKNTBH7NXRSUD3SM6BW8WJEQ","A2QTL039A5VV3I","3HUR21WDDUBEMSLDIXZW1FAIHWSYXN","","417.2000000476837","img/food6.png","75","417.6999999284744","2","1","3","2","1,0.5,0,1,0.5,0,0.5,0,1","0,1,0.5,0,1,0.5,1,0.5,0","3","false",""
"","html-keyboard-response","187","386363","0.0-188.0","3OLQQLKKNTBH7NXRSUD3SM6BW8WJEQ","A2QTL039A5VV3I","3HUR21WDDUBEMSLDIXZW1FAIHWSYXN","","null","<img src=""img/food6.png"" style=""width:200px; border:14px solid green;"">","null","","","","","","","","","",""
"","image-keyboard-response","188","386676","0.0-190.0","3OLQQLKKNTBH7NXRSUD3SM6BW8WJEQ","A2QTL039A5VV3I","3HUR21WDDUBEMSLDIXZW1FAIHWSYXN","","311.39999997615814","img/food6.png","75","312","2","0","3","2","1,0.5,0,1,0.5,0,0.5,0,1","0,1,0.5,0,1,0.5,1,0.5,0","3","false",""
"","html-keyboard-response","189","386977","0.0-191.0","3OLQQLKKNTBH7NXRSUD3SM6BW8WJEQ","A2QTL039A5VV3I","3HUR21WDDUBEMSLDIXZW1FAIHWSYXN","","null","<img src=""img/food6.png"" style=""width:200px;border:14px solid red;"">","null","","","","","","","","","",""
"","image-keyboard-response","190","387439","0.0-193.0","3OLQQLKKNTBH7NXRSUD3SM6BW8WJEQ","A2QTL039A5VV3I","3HUR21WDDUBEMSLDIXZW1FAIHWSYXN","","461.39999997615814","img/food5.png","75","462","2","1","1","2","1,0.5,0,1,0.5,0,0.5,0,1","0,1,0.5,0,1,0.5,1,0.5,0","3","false",""
"","html-keyboard-response","191","387741","0.0-194.0","3OLQQLKKNTBH7NXRSUD3SM6BW8WJEQ","A2QTL039A5VV3I","3HUR21WDDUBEMSLDIXZW1FAIHWSYXN","","null","<img src=""img/food5.png"" style=""width:200px; border:14px solid green;"">","null","","","","","","","","","",""
"","image-keyboard-response","192","388155","0.0-196.0","3OLQQLKKNTBH7NXRSUD3SM6BW8WJEQ","A2QTL039A5VV3I","3HUR21WDDUBEMSLDIXZW1FAIHWSYXN","","413.3000000715256","img/food6.png","75","414","2","1","3","2","1,0.5,0,1,0.5,0,0.5,0,1","0,1,0.5,0,1,0.5,1,0.5,0","3","false",""
"","html-keyboard-response","193","388457","0.0-197.0","3OLQQLKKNTBH7NXRSUD3SM6BW8WJEQ","A2QTL039A5VV3I","3HUR21WDDUBEMSLDIXZW1FAIHWSYXN","","null","<img src=""img/food6.png"" style=""width:200px; border:14px solid green;"">","null","","","","","","","","","",""
"","image-keyboard-response","194","388821","0.0-199.0","3OLQQLKKNTBH7NXRSUD3SM6BW8WJEQ","A2QTL039A5VV3I","3HUR21WDDUBEMSLDIXZW1FAIHWSYXN","","363.39999997615814","img/food4.png","75","364.10000002384186","2","1","2","2","1,0.5,0,1,0.5,0,0.5,0,1","0,1,0.5,0,1,0.5,1,0.5,0","3","false",""
"","html-keyboard-response","195","389123","0.0-200.0","3OLQQLKKNTBH7NXRSUD3SM6BW8WJEQ","A2QTL039A5VV3I","3HUR21WDDUBEMSLDIXZW1FAIHWSYXN","","null","<img src=""img/food4.png"" style=""width:200px; border:14px solid green;"">","null","","","","","","","","","",""
"","image-keyboard-response","196","389410","0.0-202.0","3OLQQLKKNTBH7NXRSUD3SM6BW8WJEQ","A2QTL039A5VV3I","3HUR21WDDUBEMSLDIXZW1FAIHWSYXN","","285.5","img/food5.png","75","286.5","2","1","1","2","1,0.5,0,1,0.5,0,0.5,0,1","0,1,0.5,0,1,0.5,1,0.5,0","3","false",""
"","html-keyboard-response","197","389713","0.0-203.0","3OLQQLKKNTBH7NXRSUD3SM6BW8WJEQ","A2QTL039A5VV3I","3HUR21WDDUBEMSLDIXZW1FAIHWSYXN","","null","<img src=""img/food5.png"" style=""width:200px; border:14px solid green;"">","null","","","","","","","","","",""
"","image-keyboard-response","198","389980","0.0-205.0","3OLQQLKKNTBH7NXRSUD3SM6BW8WJEQ","A2QTL039A5VV3I","3HUR21WDDUBEMSLDIXZW1FAIHWSYXN","","267.2000000476837","img/food5.png","75","267.8000000715256","2","1","1","2","1,0.5,0,1,0.5,0,0.5,0,1","0,1,0.5,0,1,0.5,1,0.5,0","3","false",""
"","html-keyboard-response","199","390283","0.0-206.0","3OLQQLKKNTBH7NXRSUD3SM6BW8WJEQ","A2QTL039A5VV3I","3HUR21WDDUBEMSLDIXZW1FAIHWSYXN","","null","<img src=""img/food5.png"" style=""width:200px; border:14px solid green;"">","null","","","","","","","","","",""
"","image-keyboard-response","200","390813","0.0-208.0","3OLQQLKKNTBH7NXRSUD3SM6BW8WJEQ","A2QTL039A5VV3I","3HUR21WDDUBEMSLDIXZW1FAIHWSYXN","","529","img/food6.png","75","530","2","1","3","2","1,0.5,0,1,0.5,0,0.5,0,1","0,1,0.5,0,1,0.5,1,0.5,0","3","false",""
"","html-keyboard-response","201","391117","0.0-209.0","3OLQQLKKNTBH7NXRSUD3SM6BW8WJEQ","A2QTL039A5VV3I","3HUR21WDDUBEMSLDIXZW1FAIHWSYXN","","null","<img src=""img/food6.png"" style=""width:200px; border:14px solid green;"">","null","","","","","","","","","",""
"","image-keyboard-response","202","391448","0.0-211.0","3OLQQLKKNTBH7NXRSUD3SM6BW8WJEQ","A2QTL039A5VV3I","3HUR21WDDUBEMSLDIXZW1FAIHWSYXN","","329.5","img/food4.png","75","330.2000000476837","2","1","2","2","1,0.5,0,1,0.5,0,0.5,0,1","0,1,0.5,0,1,0.5,1,0.5,0","3","false",""
"","html-keyboard-response","203","391750","0.0-212.0","3OLQQLKKNTBH7NXRSUD3SM6BW8WJEQ","A2QTL039A5VV3I","3HUR21WDDUBEMSLDIXZW1FAIHWSYXN","","null","<img src=""img/food4.png"" style=""width:200px; border:14px solid green;"">","null","","","","","","","","","",""
"","image-keyboard-response","204","392023","0.0-214.0","3OLQQLKKNTBH7NXRSUD3SM6BW8WJEQ","A2QTL039A5VV3I","3HUR21WDDUBEMSLDIXZW1FAIHWSYXN","","271","img/food4.png","75","272","2","1","2","2","1,0.5,0,1,0.5,0,0.5,0,1","0,1,0.5,0,1,0.5,1,0.5,0","3","false",""
"","html-keyboard-response","205","392325","0.0-215.0","3OLQQLKKNTBH7NXRSUD3SM6BW8WJEQ","A2QTL039A5VV3I","3HUR21WDDUBEMSLDIXZW1FAIHWSYXN","","null","<img src=""img/food4.png"" style=""width:200px; border:14px solid green;"">","null","","","","","","","","","",""
"","image-keyboard-response","206","392553","0.0-217.0","3OLQQLKKNTBH7NXRSUD3SM6BW8WJEQ","A2QTL039A5VV3I","3HUR21WDDUBEMSLDIXZW1FAIHWSYXN","","227.20000004768372","img/food4.png","75","227.89999997615814","2","1","2","2","1,0.5,0,1,0.5,0,0.5,0,1","0,1,0.5,0,1,0.5,1,0.5,0","3","false",""
"","html-keyboard-response","207","392855","0.0-218.0","3OLQQLKKNTBH7NXRSUD3SM6BW8WJEQ","A2QTL039A5VV3I","3HUR21WDDUBEMSLDIXZW1FAIHWSYXN","","null","<img src=""img/food4.png"" style=""width:200px; border:14px solid green;"">","null","","","","","","","","","",""
"","image-keyboard-response","208","393277","0.0-220.0","3OLQQLKKNTBH7NXRSUD3SM6BW8WJEQ","A2QTL039A5VV3I","3HUR21WDDUBEMSLDIXZW1FAIHWSYXN","","421.3000000715256","img/food6.png","75","421.89999997615814","2","1","3","2","1,0.5,0,1,0.5,0,0.5,0,1","0,1,0.5,0,1,0.5,1,0.5,0","3","false",""
"","html-keyboard-response","209","393579","0.0-221.0","3OLQQLKKNTBH7NXRSUD3SM6BW8WJEQ","A2QTL039A5VV3I","3HUR21WDDUBEMSLDIXZW1FAIHWSYXN","","null","<img src=""img/food6.png"" style=""width:200px; border:14px solid green;"">","null","","","","","","","","","",""
"","image-keyboard-response","210","393819","0.0-223.0","3OLQQLKKNTBH7NXRSUD3SM6BW8WJEQ","A2QTL039A5VV3I","3HUR21WDDUBEMSLDIXZW1FAIHWSYXN","","238.90000009536743","img/food4.png","75","239.39999997615814","2","1","2","2","1,0.5,0,1,0.5,0,0.5,0,1","0,1,0.5,0,1,0.5,1,0.5,0","3","false",""
"","html-keyboard-response","211","394120","0.0-224.0","3OLQQLKKNTBH7NXRSUD3SM6BW8WJEQ","A2QTL039A5VV3I","3HUR21WDDUBEMSLDIXZW1FAIHWSYXN","","null","<img src=""img/food4.png"" style=""width:200px; border:14px solid green;"">","null","","","","","","","","","",""
"","image-keyboard-response","212","394353","0.0-226.0","3OLQQLKKNTBH7NXRSUD3SM6BW8WJEQ","A2QTL039A5VV3I","3HUR21WDDUBEMSLDIXZW1FAIHWSYXN","","231.29999995231628","img/food6.png","75","232","2","1","3","2","1,0.5,0,1,0.5,0,0.5,0,1","0,1,0.5,0,1,0.5,1,0.5,0","3","false",""
"","html-keyboard-response","213","394654","0.0-227.0","3OLQQLKKNTBH7NXRSUD3SM6BW8WJEQ","A2QTL039A5VV3I","3HUR21WDDUBEMSLDIXZW1FAIHWSYXN","","null","<img src=""img/food6.png"" style=""width:200px; border:14px solid green;"">","null","","","","","","","","","",""
"","image-keyboard-response","214","394921","0.0-229.0","3OLQQLKKNTBH7NXRSUD3SM6BW8WJEQ","A2QTL039A5VV3I","3HUR21WDDUBEMSLDIXZW1FAIHWSYXN","","265.60000002384186","img/food6.png","75","266.40000009536743","2","1","3","2","1,0.5,0,1,0.5,0,0.5,0,1","0,1,0.5,0,1,0.5,1,0.5,0","3","false",""
"","html-keyboard-response","215","395226","0.0-230.0","3OLQQLKKNTBH7NXRSUD3SM6BW8WJEQ","A2QTL039A5VV3I","3HUR21WDDUBEMSLDIXZW1FAIHWSYXN","","null","<img src=""img/food6.png"" style=""width:200px; border:14px solid green;"">","null","","","","","","","","","",""
"","image-keyboard-response","216","395468","0.0-232.0","3OLQQLKKNTBH7NXRSUD3SM6BW8WJEQ","A2QTL039A5VV3I","3HUR21WDDUBEMSLDIXZW1FAIHWSYXN","","241.30000007152557","img/food5.png","75","241.89999997615814","2","1","1","2","1,0.5,0,1,0.5,0,0.5,0,1","0,1,0.5,0,1,0.5,1,0.5,0","3","false",""
"","html-keyboard-response","217","395769","0.0-233.0","3OLQQLKKNTBH7NXRSUD3SM6BW8WJEQ","A2QTL039A5VV3I","3HUR21WDDUBEMSLDIXZW1FAIHWSYXN","","null","<img src=""img/food5.png"" style=""width:200px; border:14px solid green;"">","null","","","","","","","","","",""
"","image-keyboard-response","218","396028","0.0-235.0","3OLQQLKKNTBH7NXRSUD3SM6BW8WJEQ","A2QTL039A5VV3I","3HUR21WDDUBEMSLDIXZW1FAIHWSYXN","","258.60000002384186","img/food5.png","75","259.10000002384186","2","1","1","2","1,0.5,0,1,0.5,0,0.5,0,1","0,1,0.5,0,1,0.5,1,0.5,0","3","false",""
"","html-keyboard-response","219","396330","0.0-236.0","3OLQQLKKNTBH7NXRSUD3SM6BW8WJEQ","A2QTL039A5VV3I","3HUR21WDDUBEMSLDIXZW1FAIHWSYXN","","null","<img src=""img/food5.png"" style=""width:200px; border:14px solid green;"">","null","","","","","","","","","",""
"","image-keyboard-response","220","396635","0.0-238.0","3OLQQLKKNTBH7NXRSUD3SM6BW8WJEQ","A2QTL039A5VV3I","3HUR21WDDUBEMSLDIXZW1FAIHWSYXN","","303.39999997615814","img/food4.png","75","304.10000002384186","2","1","2","2","1,0.5,0,1,0.5,0,0.5,0,1","0,1,0.5,0,1,0.5,1,0.5,0","3","false",""
"","html-keyboard-response","221","396937","0.0-239.0","3OLQQLKKNTBH7NXRSUD3SM6BW8WJEQ","A2QTL039A5VV3I","3HUR21WDDUBEMSLDIXZW1FAIHWSYXN","","null","<img src=""img/food4.png"" style=""width:200px; border:14px solid green;"">","null","","","","","","","","","",""
"","image-keyboard-response","222","397159","0.0-241.0","3OLQQLKKNTBH7NXRSUD3SM6BW8WJEQ","A2QTL039A5VV3I","3HUR21WDDUBEMSLDIXZW1FAIHWSYXN","","221","img/food5.png","75","221.89999997615814","2","1","1","2","1,0.5,0,1,0.5,0,0.5,0,1","0,1,0.5,0,1,0.5,1,0.5,0","3","false",""
"","html-keyboard-response","223","397461","0.0-242.0","3OLQQLKKNTBH7NXRSUD3SM6BW8WJEQ","A2QTL039A5VV3I","3HUR21WDDUBEMSLDIXZW1FAIHWSYXN","","null","<img src=""img/food5.png"" style=""width:200px; border:14px solid green;"">","null","","","","","","","","","",""
"","image-keyboard-response","224","397714","0.0-244.0","3OLQQLKKNTBH7NXRSUD3SM6BW8WJEQ","A2QTL039A5VV3I","3HUR21WDDUBEMSLDIXZW1FAIHWSYXN","","252","img/food6.png","75","252.79999995231628","2","0","3","2","1,0.5,0,1,0.5,0,0.5,0,1","0,1,0.5,0,1,0.5,1,0.5,0","3","false",""
"","html-keyboard-response","225","398016","0.0-245.0","3OLQQLKKNTBH7NXRSUD3SM6BW8WJEQ","A2QTL039A5VV3I","3HUR21WDDUBEMSLDIXZW1FAIHWSYXN","","null","<img src=""img/food6.png"" style=""width:200px;border:14px solid red;"">","null","","","","","","","","","",""
"","image-keyboard-response","226","398218","0.0-247.0","3OLQQLKKNTBH7NXRSUD3SM6BW8WJEQ","A2QTL039A5VV3I","3HUR21WDDUBEMSLDIXZW1FAIHWSYXN","","200.10000002384186","img/food4.png","75","201.10000002384186","2","1","2","2","1,0.5,0,1,0.5,0,0.5,0,1","0,1,0.5,0,1,0.5,1,0.5,0","3","false",""
"","html-keyboard-response","227","398521","0.0-248.0","3OLQQLKKNTBH7NXRSUD3SM6BW8WJEQ","A2QTL039A5VV3I","3HUR21WDDUBEMSLDIXZW1FAIHWSYXN","","null","<img src=""img/food4.png"" style=""width:200px; border:14px solid green;"">","null","","","","","","","","","",""
"","image-keyboard-response","228","398622","0.0-250.0","3OLQQLKKNTBH7NXRSUD3SM6BW8WJEQ","A2QTL039A5VV3I","3HUR21WDDUBEMSLDIXZW1FAIHWSYXN","","100.79999995231628","img/food5.png","75","101.39999997615814","2","1","1","2","1,0.5,0,1,0.5,0,0.5,0,1","0,1,0.5,0,1,0.5,1,0.5,0","3","false",""
"","html-keyboard-response","229","398929","0.0-251.0","3OLQQLKKNTBH7NXRSUD3SM6BW8WJEQ","A2QTL039A5VV3I","3HUR21WDDUBEMSLDIXZW1FAIHWSYXN","","null","<img src=""img/food5.png"" style=""width:200px; border:14px solid green;"">","null","","","","","","","","","",""
"","image-keyboard-response","230","399312","0.0-253.0","3OLQQLKKNTBH7NXRSUD3SM6BW8WJEQ","A2QTL039A5VV3I","3HUR21WDDUBEMSLDIXZW1FAIHWSYXN","","382.2999999523163","img/food6.png","75","383.10000002384186","2","0","3","2","1,0.5,0,1,0.5,0,0.5,0,1","0,1,0.5,0,1,0.5,1,0.5,0","3","false",""
"","html-keyboard-response","231","399614","0.0-254.0","3OLQQLKKNTBH7NXRSUD3SM6BW8WJEQ","A2QTL039A5VV3I","3HUR21WDDUBEMSLDIXZW1FAIHWSYXN","","null","<img src=""img/food6.png"" style=""width:200px;border:14px solid red;"">","null","","","","","","","","","",""
"","image-keyboard-response","232","399809","0.0-256.0","3OLQQLKKNTBH7NXRSUD3SM6BW8WJEQ","A2QTL039A5VV3I","3HUR21WDDUBEMSLDIXZW1FAIHWSYXN","","193.60000002384186","img/food6.png","75","194.39999997615814","2","1","3","2","1,0.5,0,1,0.5,0,0.5,0,1","0,1,0.5,0,1,0.5,1,0.5,0","3","false",""
"","html-keyboard-response","233","400110","0.0-257.0","3OLQQLKKNTBH7NXRSUD3SM6BW8WJEQ","A2QTL039A5VV3I","3HUR21WDDUBEMSLDIXZW1FAIHWSYXN","","null","<img src=""img/food6.png"" style=""width:200px; border:14px solid green;"">","null","","","","","","","","","",""
"","image-keyboard-response","234","400255","0.0-259.0","3OLQQLKKNTBH7NXRSUD3SM6BW8WJEQ","A2QTL039A5VV3I","3HUR21WDDUBEMSLDIXZW1FAIHWSYXN","","144","img/food5.png","75","144.5","2","1","1","2","1,0.5,0,1,0.5,0,0.5,0,1","0,1,0.5,0,1,0.5,1,0.5,0","3","false",""
"","html-keyboard-response","235","400566","0.0-260.0","3OLQQLKKNTBH7NXRSUD3SM6BW8WJEQ","A2QTL039A5VV3I","3HUR21WDDUBEMSLDIXZW1FAIHWSYXN","","null","<img src=""img/food5.png"" style=""width:200px; border:14px solid green;"">","null","","","","","","","","","",""
"","image-keyboard-response","236","400764","0.0-262.0","3OLQQLKKNTBH7NXRSUD3SM6BW8WJEQ","A2QTL039A5VV3I","3HUR21WDDUBEMSLDIXZW1FAIHWSYXN","","197.10000002384186","img/food6.png","75","197.79999995231628","2","1","3","2","1,0.5,0,1,0.5,0,0.5,0,1","0,1,0.5,0,1,0.5,1,0.5,0","3","false",""
"","html-keyboard-response","237","401066","0.0-263.0","3OLQQLKKNTBH7NXRSUD3SM6BW8WJEQ","A2QTL039A5VV3I","3HUR21WDDUBEMSLDIXZW1FAIHWSYXN","","null","<img src=""img/food6.png"" style=""width:200px; border:14px solid green;"">","null","","","","","","","","","",""
"","image-keyboard-response","238","401321","0.0-265.0","3OLQQLKKNTBH7NXRSUD3SM6BW8WJEQ","A2QTL039A5VV3I","3HUR21WDDUBEMSLDIXZW1FAIHWSYXN","","254.09999990463257","img/food5.png","75","255","2","1","1","2","1,0.5,0,1,0.5,0,0.5,0,1","0,1,0.5,0,1,0.5,1,0.5,0","3","false",""
"","html-keyboard-response","239","401622","0.0-266.0","3OLQQLKKNTBH7NXRSUD3SM6BW8WJEQ","A2QTL039A5VV3I","3HUR21WDDUBEMSLDIXZW1FAIHWSYXN","","null","<img src=""img/food5.png"" style=""width:200px; border:14px solid green;"">","null","","","","","","","","","",""
"","image-keyboard-response","240","401879","0.0-268.0","3OLQQLKKNTBH7NXRSUD3SM6BW8WJEQ","A2QTL039A5VV3I","3HUR21WDDUBEMSLDIXZW1FAIHWSYXN","","255.60000002384186","img/food4.png","75","256.2999999523163","2","1","2","2","1,0.5,0,1,0.5,0,0.5,0,1","0,1,0.5,0,1,0.5,1,0.5,0","3","false",""
"","html-keyboard-response","241","402181","0.0-269.0","3OLQQLKKNTBH7NXRSUD3SM6BW8WJEQ","A2QTL039A5VV3I","3HUR21WDDUBEMSLDIXZW1FAIHWSYXN","","null","<img src=""img/food4.png"" style=""width:200px; border:14px solid green;"">","null","","","","","","","","","",""
"","image-keyboard-response","242","402464","0.0-271.0","3OLQQLKKNTBH7NXRSUD3SM6BW8WJEQ","A2QTL039A5VV3I","3HUR21WDDUBEMSLDIXZW1FAIHWSYXN","","282.89999997615814","img/food4.png","75","283.7000000476837","2","1","2","2","1,0.5,0,1,0.5,0,0.5,0,1","0,1,0.5,0,1,0.5,1,0.5,0","3","false",""
"","html-keyboard-response","243","402768","0.0-272.0","3OLQQLKKNTBH7NXRSUD3SM6BW8WJEQ","A2QTL039A5VV3I","3HUR21WDDUBEMSLDIXZW1FAIHWSYXN","","null","<img src=""img/food4.png"" style=""width:200px; border:14px solid green;"">","null","","","","","","","","","",""
"","image-keyboard-response","244","403062","0.0-274.0","3OLQQLKKNTBH7NXRSUD3SM6BW8WJEQ","A2QTL039A5VV3I","3HUR21WDDUBEMSLDIXZW1FAIHWSYXN","","292.90000009536743","img/food4.png","75","293.7000000476837","2","1","2","2","1,0.5,0,1,0.5,0,0.5,0,1","0,1,0.5,0,1,0.5,1,0.5,0","3","false",""
"","html-keyboard-response","245","403364","0.0-275.0","3OLQQLKKNTBH7NXRSUD3SM6BW8WJEQ","A2QTL039A5VV3I","3HUR21WDDUBEMSLDIXZW1FAIHWSYXN","","null","<img src=""img/food4.png"" style=""width:200px; border:14px solid green;"">","null","","","","","","","","","",""
"","image-keyboard-response","246","403561","0.0-277.0","3OLQQLKKNTBH7NXRSUD3SM6BW8WJEQ","A2QTL039A5VV3I","3HUR21WDDUBEMSLDIXZW1FAIHWSYXN","","196.19999992847443","img/food4.png","75","196.79999995231628","2","1","2","2","1,0.5,0,1,0.5,0,0.5,0,1","0,1,0.5,0,1,0.5,1,0.5,0","3","false",""
"","html-keyboard-response","247","403862","0.0-278.0","3OLQQLKKNTBH7NXRSUD3SM6BW8WJEQ","A2QTL039A5VV3I","3HUR21WDDUBEMSLDIXZW1FAIHWSYXN","","null","<img src=""img/food4.png"" style=""width:200px; border:14px solid green;"">","null","","","","","","","","","",""
"","image-keyboard-response","248","404080","0.0-280.0","3OLQQLKKNTBH7NXRSUD3SM6BW8WJEQ","A2QTL039A5VV3I","3HUR21WDDUBEMSLDIXZW1FAIHWSYXN","","216","img/food4.png","75","217.20000004768372","2","1","2","2","1,0.5,0,1,0.5,0,0.5,0,1","0,1,0.5,0,1,0.5,1,0.5,0","3","false",""
"","html-keyboard-response","249","404387","0.0-281.0","3OLQQLKKNTBH7NXRSUD3SM6BW8WJEQ","A2QTL039A5VV3I","3HUR21WDDUBEMSLDIXZW1FAIHWSYXN","","null","<img src=""img/food4.png"" style=""width:200px; border:14px solid green;"">","null","","","","","","","","","",""
"","image-keyboard-response","250","404660","0.0-283.0","3OLQQLKKNTBH7NXRSUD3SM6BW8WJEQ","A2QTL039A5VV3I","3HUR21WDDUBEMSLDIXZW1FAIHWSYXN","","272.2999999523163","img/food5.png","75","272.90000009536743","2","1","1","2","1,0.5,0,1,0.5,0,0.5,0,1","0,1,0.5,0,1,0.5,1,0.5,0","3","false",""
"","html-keyboard-response","251","404961","0.0-284.0","3OLQQLKKNTBH7NXRSUD3SM6BW8WJEQ","A2QTL039A5VV3I","3HUR21WDDUBEMSLDIXZW1FAIHWSYXN","","null","<img src=""img/food5.png"" style=""width:200px; border:14px solid green;"">","null","","","","","","","","","",""
"","image-keyboard-response","252","405138","0.0-286.0","3OLQQLKKNTBH7NXRSUD3SM6BW8WJEQ","A2QTL039A5VV3I","3HUR21WDDUBEMSLDIXZW1FAIHWSYXN","","176.19999992847443","img/food4.png","75","176.90000009536743","2","1","2","2","1,0.5,0,1,0.5,0,0.5,0,1","0,1,0.5,0,1,0.5,1,0.5,0","3","false",""
"","html-keyboard-response","253","405448","0.0-287.0","3OLQQLKKNTBH7NXRSUD3SM6BW8WJEQ","A2QTL039A5VV3I","3HUR21WDDUBEMSLDIXZW1FAIHWSYXN","","null","<img src=""img/food4.png"" style=""width:200px; border:14px solid green;"">","null","","","","","","","","","",""
"","image-keyboard-response","254","405713","0.0-289.0","3OLQQLKKNTBH7NXRSUD3SM6BW8WJEQ","A2QTL039A5VV3I","3HUR21WDDUBEMSLDIXZW1FAIHWSYXN","","264.5","img/food6.png","75","265.09999990463257","2","0","3","2","1,0.5,0,1,0.5,0,0.5,0,1","0,1,0.5,0,1,0.5,1,0.5,0","3","false",""
"","html-keyboard-response","255","406016","0.0-290.0","3OLQQLKKNTBH7NXRSUD3SM6BW8WJEQ","A2QTL039A5VV3I","3HUR21WDDUBEMSLDIXZW1FAIHWSYXN","","null","<img src=""img/food6.png"" style=""width:200px;border:14px solid red;"">","null","","","","","","","","","",""
"","image-keyboard-response","256","406138","0.0-292.0","3OLQQLKKNTBH7NXRSUD3SM6BW8WJEQ","A2QTL039A5VV3I","3HUR21WDDUBEMSLDIXZW1FAIHWSYXN","","120.20000004768372","img/food5.png","75","121.89999997615814","2","1","1","2","1,0.5,0,1,0.5,0,0.5,0,1","0,1,0.5,0,1,0.5,1,0.5,0","3","false",""
"","html-keyboard-response","257","406439","0.0-293.0","3OLQQLKKNTBH7NXRSUD3SM6BW8WJEQ","A2QTL039A5VV3I","3HUR21WDDUBEMSLDIXZW1FAIHWSYXN","","null","<img src=""img/food5.png"" style=""width:200px; border:14px solid green;"">","null","","","","","","","","","",""
"","image-keyboard-response","258","406697","0.0-295.0","3OLQQLKKNTBH7NXRSUD3SM6BW8WJEQ","A2QTL039A5VV3I","3HUR21WDDUBEMSLDIXZW1FAIHWSYXN","","257.1999999284744","img/food5.png","75","257.7999999523163","2","1","1","2","1,0.5,0,1,0.5,0,0.5,0,1","0,1,0.5,0,1,0.5,1,0.5,0","3","false",""
"","html-keyboard-response","259","406999","0.0-296.0","3OLQQLKKNTBH7NXRSUD3SM6BW8WJEQ","A2QTL039A5VV3I","3HUR21WDDUBEMSLDIXZW1FAIHWSYXN","","null","<img src=""img/food5.png"" style=""width:200px; border:14px solid green;"">","null","","","","","","","","","",""
"","image-keyboard-response","260","407145","0.0-298.0","3OLQQLKKNTBH7NXRSUD3SM6BW8WJEQ","A2QTL039A5VV3I","3HUR21WDDUBEMSLDIXZW1FAIHWSYXN","","144.29999995231628","img/food5.png","75","145.30000007152557","2","1","1","2","1,0.5,0,1,0.5,0,0.5,0,1","0,1,0.5,0,1,0.5,1,0.5,0","3","false",""
"","html-keyboard-response","261","407461","0.0-299.0","3OLQQLKKNTBH7NXRSUD3SM6BW8WJEQ","A2QTL039A5VV3I","3HUR21WDDUBEMSLDIXZW1FAIHWSYXN","","null","<img src=""img/food5.png"" style=""width:200px; border:14px solid green;"">","null","","","","","","","","","",""
"","image-keyboard-response","262","407645","0.0-301.0","3OLQQLKKNTBH7NXRSUD3SM6BW8WJEQ","A2QTL039A5VV3I","3HUR21WDDUBEMSLDIXZW1FAIHWSYXN","","182.29999995231628","img/food4.png","75","183.30000007152557","2","1","2","2","1,0.5,0,1,0.5,0,0.5,0,1","0,1,0.5,0,1,0.5,1,0.5,0","3","false",""
"","html-keyboard-response","263","407947","0.0-302.0","3OLQQLKKNTBH7NXRSUD3SM6BW8WJEQ","A2QTL039A5VV3I","3HUR21WDDUBEMSLDIXZW1FAIHWSYXN","","null","<img src=""img/food4.png"" style=""width:200px; border:14px solid green;"">","null","","","","","","","","","",""
"","image-keyboard-response","264","408150","0.0-304.0","3OLQQLKKNTBH7NXRSUD3SM6BW8WJEQ","A2QTL039A5VV3I","3HUR21WDDUBEMSLDIXZW1FAIHWSYXN","","202","img/food4.png","75","203","2","1","2","2","1,0.5,0,1,0.5,0,0.5,0,1","0,1,0.5,0,1,0.5,1,0.5,0","3","false",""
"","html-keyboard-response","265","408451","0.0-305.0","3OLQQLKKNTBH7NXRSUD3SM6BW8WJEQ","A2QTL039A5VV3I","3HUR21WDDUBEMSLDIXZW1FAIHWSYXN","","null","<img src=""img/food4.png"" style=""width:200px; border:14px solid green;"">","null","","","","","","","","","",""
"","image-keyboard-response","266","408610","0.0-307.0","3OLQQLKKNTBH7NXRSUD3SM6BW8WJEQ","A2QTL039A5VV3I","3HUR21WDDUBEMSLDIXZW1FAIHWSYXN","","157.39999997615814","img/food5.png","75","158.09999990463257","2","1","1","2","1,0.5,0,1,0.5,0,0.5,0,1","0,1,0.5,0,1,0.5,1,0.5,0","3","false",""
"","html-keyboard-response","267","408911","0.0-308.0","3OLQQLKKNTBH7NXRSUD3SM6BW8WJEQ","A2QTL039A5VV3I","3HUR21WDDUBEMSLDIXZW1FAIHWSYXN","","null","<img src=""img/food5.png"" style=""width:200px; border:14px solid green;"">","null","","","","","","","","","",""
"","image-keyboard-response","268","409229","0.0-310.0","3OLQQLKKNTBH7NXRSUD3SM6BW8WJEQ","A2QTL039A5VV3I","3HUR21WDDUBEMSLDIXZW1FAIHWSYXN","","316.7999999523163","img/food5.png","75","317.5","2","1","1","2","1,0.5,0,1,0.5,0,0.5,0,1","0,1,0.5,0,1,0.5,1,0.5,0","3","false",""
"","html-keyboard-response","269","409530","0.0-311.0","3OLQQLKKNTBH7NXRSUD3SM6BW8WJEQ","A2QTL039A5VV3I","3HUR21WDDUBEMSLDIXZW1FAIHWSYXN","","null","<img src=""img/food5.png"" style=""width:200px; border:14px solid green;"">","null","","","","","","","","","",""
"","image-keyboard-response","270","409844","0.0-313.0","3OLQQLKKNTBH7NXRSUD3SM6BW8WJEQ","A2QTL039A5VV3I","3HUR21WDDUBEMSLDIXZW1FAIHWSYXN","","312.5","img/food4.png","75","313.2999999523163","2","1","2","2","1,0.5,0,1,0.5,0,0.5,0,1","0,1,0.5,0,1,0.5,1,0.5,0","3","false",""
"","html-keyboard-response","271","410146","0.0-314.0","3OLQQLKKNTBH7NXRSUD3SM6BW8WJEQ","A2QTL039A5VV3I","3HUR21WDDUBEMSLDIXZW1FAIHWSYXN","","null","<img src=""img/food4.png"" style=""width:200px; border:14px solid green;"">","null","","","","","","","","","",""
"","image-keyboard-response","272","410423","0.0-316.0","3OLQQLKKNTBH7NXRSUD3SM6BW8WJEQ","A2QTL039A5VV3I","3HUR21WDDUBEMSLDIXZW1FAIHWSYXN","","275.89999997615814","img/food5.png","75","276.60000002384186","2","1","1","2","1,0.5,0,1,0.5,0,0.5,0,1","0,1,0.5,0,1,0.5,1,0.5,0","3","false",""
"","html-keyboard-response","273","410725","0.0-317.0","3OLQQLKKNTBH7NXRSUD3SM6BW8WJEQ","A2QTL039A5VV3I","3HUR21WDDUBEMSLDIXZW1FAIHWSYXN","","null","<img src=""img/food5.png"" style=""width:200px; border:14px solid green;"">","null","","","","","","","","","",""
"","image-keyboard-response","274","411098","0.0-319.0","3OLQQLKKNTBH7NXRSUD3SM6BW8WJEQ","A2QTL039A5VV3I","3HUR21WDDUBEMSLDIXZW1FAIHWSYXN","","372.39999997615814","img/food6.png","75","373.1999999284744","2","0","3","2","1,0.5,0,1,0.5,0,0.5,0,1","0,1,0.5,0,1,0.5,1,0.5,0","3","false",""
"","html-keyboard-response","275","411400","0.0-320.0","3OLQQLKKNTBH7NXRSUD3SM6BW8WJEQ","A2QTL039A5VV3I","3HUR21WDDUBEMSLDIXZW1FAIHWSYXN","","null","<img src=""img/food6.png"" style=""width:200px;border:14px solid red;"">","null","","","","","","","","","",""
"","image-keyboard-response","276","411635","0.0-322.0","3OLQQLKKNTBH7NXRSUD3SM6BW8WJEQ","A2QTL039A5VV3I","3HUR21WDDUBEMSLDIXZW1FAIHWSYXN","","234","img/food4.png","75","234.59999990463257","2","1","2","2","1,0.5,0,1,0.5,0,0.5,0,1","0,1,0.5,0,1,0.5,1,0.5,0","3","false",""
"","html-keyboard-response","277","411936","0.0-323.0","3OLQQLKKNTBH7NXRSUD3SM6BW8WJEQ","A2QTL039A5VV3I","3HUR21WDDUBEMSLDIXZW1FAIHWSYXN","","null","<img src=""img/food4.png"" style=""width:200px; border:14px solid green;"">","null","","","","","","","","","",""
"","image-keyboard-response","278","412219","0.0-325.0","3OLQQLKKNTBH7NXRSUD3SM6BW8WJEQ","A2QTL039A5VV3I","3HUR21WDDUBEMSLDIXZW1FAIHWSYXN","","282.60000002384186","img/food6.png","75","283.10000002384186","2","1","3","2","1,0.5,0,1,0.5,0,0.5,0,1","0,1,0.5,0,1,0.5,1,0.5,0","3","false",""
"","html-keyboard-response","279","412522","0.0-326.0","3OLQQLKKNTBH7NXRSUD3SM6BW8WJEQ","A2QTL039A5VV3I","3HUR21WDDUBEMSLDIXZW1FAIHWSYXN","","null","<img src=""img/food6.png"" style=""width:200px; border:14px solid green;"">","null","","","","","","","","","",""
"","image-keyboard-response","280","412800","0.0-328.0","3OLQQLKKNTBH7NXRSUD3SM6BW8WJEQ","A2QTL039A5VV3I","3HUR21WDDUBEMSLDIXZW1FAIHWSYXN","","276.10000002384186","img/food5.png","75","277","2","1","1","2","1,0.5,0,1,0.5,0,0.5,0,1","0,1,0.5,0,1,0.5,1,0.5,0","3","false",""
"","html-keyboard-response","281","413101","0.0-329.0","3OLQQLKKNTBH7NXRSUD3SM6BW8WJEQ","A2QTL039A5VV3I","3HUR21WDDUBEMSLDIXZW1FAIHWSYXN","","null","<img src=""img/food5.png"" style=""width:200px; border:14px solid green;"">","null","","","","","","","","","",""
"","image-keyboard-response","282","413497","0.0-331.0","3OLQQLKKNTBH7NXRSUD3SM6BW8WJEQ","A2QTL039A5VV3I","3HUR21WDDUBEMSLDIXZW1FAIHWSYXN","","394.5","img/food6.png","75","395.39999997615814","2","1","3","2","1,0.5,0,1,0.5,0,0.5,0,1","0,1,0.5,0,1,0.5,1,0.5,0","3","false",""
"","html-keyboard-response","283","413798","0.0-332.0","3OLQQLKKNTBH7NXRSUD3SM6BW8WJEQ","A2QTL039A5VV3I","3HUR21WDDUBEMSLDIXZW1FAIHWSYXN","","null","<img src=""img/food6.png"" style=""width:200px; border:14px solid green;"">","null","","","","","","","","","",""
"","image-keyboard-response","284","414153","0.0-334.0","3OLQQLKKNTBH7NXRSUD3SM6BW8WJEQ","A2QTL039A5VV3I","3HUR21WDDUBEMSLDIXZW1FAIHWSYXN","","354.1999999284744","img/food6.png","75","354.89999997615814","2","1","3","2","1,0.5,0,1,0.5,0,0.5,0,1","0,1,0.5,0,1,0.5,1,0.5,0","3","false",""
"","html-keyboard-response","285","414460","0.0-335.0","3OLQQLKKNTBH7NXRSUD3SM6BW8WJEQ","A2QTL039A5VV3I","3HUR21WDDUBEMSLDIXZW1FAIHWSYXN","","null","<img src=""img/food6.png"" style=""width:200px; border:14px solid green;"">","null","","","","","","","","","",""
"","image-keyboard-response","286","414786","0.0-337.0","3OLQQLKKNTBH7NXRSUD3SM6BW8WJEQ","A2QTL039A5VV3I","3HUR21WDDUBEMSLDIXZW1FAIHWSYXN","","326.1999999284744","img/food4.png","75","326.7000000476837","2","1","2","2","1,0.5,0,1,0.5,0,0.5,0,1","0,1,0.5,0,1,0.5,1,0.5,0","3","false",""
"","html-keyboard-response","287","415087","0.0-338.0","3OLQQLKKNTBH7NXRSUD3SM6BW8WJEQ","A2QTL039A5VV3I","3HUR21WDDUBEMSLDIXZW1FAIHWSYXN","","null","<img src=""img/food4.png"" style=""width:200px; border:14px solid green;"">","null","","","","","","","","","",""
"","image-keyboard-response","288","415351","0.0-340.0","3OLQQLKKNTBH7NXRSUD3SM6BW8WJEQ","A2QTL039A5VV3I","3HUR21WDDUBEMSLDIXZW1FAIHWSYXN","","263.39999997615814","img/food6.png","75","263.89999997615814","2","1","3","2","1,0.5,0,1,0.5,0,0.5,0,1","0,1,0.5,0,1,0.5,1,0.5,0","3","false",""
"","html-keyboard-response","289","415653","0.0-341.0","3OLQQLKKNTBH7NXRSUD3SM6BW8WJEQ","A2QTL039A5VV3I","3HUR21WDDUBEMSLDIXZW1FAIHWSYXN","","null","<img src=""img/food6.png"" style=""width:200px; border:14px solid green;"">","null","","","","","","","","","",""
"","image-keyboard-response","290","415897","0.0-343.0","3OLQQLKKNTBH7NXRSUD3SM6BW8WJEQ","A2QTL039A5VV3I","3HUR21WDDUBEMSLDIXZW1FAIHWSYXN","","242.70000004768372","img/food4.png","75","243.5","2","1","2","2","1,0.5,0,1,0.5,0,0.5,0,1","0,1,0.5,0,1,0.5,1,0.5,0","3","false",""
"","html-keyboard-response","291","416198","0.0-344.0","3OLQQLKKNTBH7NXRSUD3SM6BW8WJEQ","A2QTL039A5VV3I","3HUR21WDDUBEMSLDIXZW1FAIHWSYXN","","null","<img src=""img/food4.png"" style=""width:200px; border:14px solid green;"">","null","","","","","","","","","",""
"","image-keyboard-response","292","416719","0.0-346.0","3OLQQLKKNTBH7NXRSUD3SM6BW8WJEQ","A2QTL039A5VV3I","3HUR21WDDUBEMSLDIXZW1FAIHWSYXN","","519.8000000715256","img/food6.png","75","520.7000000476837","2","1","3","2","1,0.5,0,1,0.5,0,0.5,0,1","0,1,0.5,0,1,0.5,1,0.5,0","3","false",""
"","html-keyboard-response","293","417021","0.0-347.0","3OLQQLKKNTBH7NXRSUD3SM6BW8WJEQ","A2QTL039A5VV3I","3HUR21WDDUBEMSLDIXZW1FAIHWSYXN","","null","<img src=""img/food6.png"" style=""width:200px; border:14px solid green;"">","null","","","","","","","","","",""
"","image-keyboard-response","294","417375","0.0-349.0","3OLQQLKKNTBH7NXRSUD3SM6BW8WJEQ","A2QTL039A5VV3I","3HUR21WDDUBEMSLDIXZW1FAIHWSYXN","","353.7999999523163","img/food4.png","75","354.3000000715256","2","1","2","2","1,0.5,0,1,0.5,0,0.5,0,1","0,1,0.5,0,1,0.5,1,0.5,0","3","false",""
"","html-keyboard-response","295","417689","0.0-350.0","3OLQQLKKNTBH7NXRSUD3SM6BW8WJEQ","A2QTL039A5VV3I","3HUR21WDDUBEMSLDIXZW1FAIHWSYXN","","null","<img src=""img/food4.png"" style=""width:200px; border:14px solid green;"">","null","","","","","","","","","",""
"","image-keyboard-response","296","417920","0.0-352.0","3OLQQLKKNTBH7NXRSUD3SM6BW8WJEQ","A2QTL039A5VV3I","3HUR21WDDUBEMSLDIXZW1FAIHWSYXN","","230.20000004768372","img/food6.png","75","230.89999997615814","2","0","3","2","1,0.5,0,1,0.5,0,0.5,0,1","0,1,0.5,0,1,0.5,1,0.5,0","3","false",""
"","html-keyboard-response","297","418221","0.0-353.0","3OLQQLKKNTBH7NXRSUD3SM6BW8WJEQ","A2QTL039A5VV3I","3HUR21WDDUBEMSLDIXZW1FAIHWSYXN","","null","<img src=""img/food6.png"" style=""width:200px;border:14px solid red;"">","null","","","","","","","","","",""
"","image-keyboard-response","298","418500","0.0-355.0","3OLQQLKKNTBH7NXRSUD3SM6BW8WJEQ","A2QTL039A5VV3I","3HUR21WDDUBEMSLDIXZW1FAIHWSYXN","","277.90000009536743","img/food4.png","75","278.5","2","1","2","2","1,0.5,0,1,0.5,0,0.5,0,1","0,1,0.5,0,1,0.5,1,0.5,0","3","false",""
"","html-keyboard-response","299","418801","0.0-356.0","3OLQQLKKNTBH7NXRSUD3SM6BW8WJEQ","A2QTL039A5VV3I","3HUR21WDDUBEMSLDIXZW1FAIHWSYXN","","null","<img src=""img/food4.png"" style=""width:200px; border:14px solid green;"">","null","","","","","","","","","",""
"","image-keyboard-response","300","419086","0.0-358.0","3OLQQLKKNTBH7NXRSUD3SM6BW8WJEQ","A2QTL039A5VV3I","3HUR21WDDUBEMSLDIXZW1FAIHWSYXN","","283.7999999523163","img/food5.png","75","284.5","2","1","1","2","1,0.5,0,1,0.5,0,0.5,0,1","0,1,0.5,0,1,0.5,1,0.5,0","3","false",""
"","html-keyboard-response","301","419387","0.0-359.0","3OLQQLKKNTBH7NXRSUD3SM6BW8WJEQ","A2QTL039A5VV3I","3HUR21WDDUBEMSLDIXZW1FAIHWSYXN","","null","<img src=""img/food5.png"" style=""width:200px; border:14px solid green;"">","null","","","","","","","","","",""
"","image-keyboard-response","302","419684","0.0-361.0","3OLQQLKKNTBH7NXRSUD3SM6BW8WJEQ","A2QTL039A5VV3I","3HUR21WDDUBEMSLDIXZW1FAIHWSYXN","","295.60000002384186","img/food5.png","75","296.2999999523163","2","1","1","2","1,0.5,0,1,0.5,0,0.5,0,1","0,1,0.5,0,1,0.5,1,0.5,0","3","false",""
"","html-keyboard-response","303","419986","0.0-362.0","3OLQQLKKNTBH7NXRSUD3SM6BW8WJEQ","A2QTL039A5VV3I","3HUR21WDDUBEMSLDIXZW1FAIHWSYXN","","null","<img src=""img/food5.png"" style=""width:200px; border:14px solid green;"">","null","","","","","","","","","",""
"","image-keyboard-response","304","420429","0.0-364.0","3OLQQLKKNTBH7NXRSUD3SM6BW8WJEQ","A2QTL039A5VV3I","3HUR21WDDUBEMSLDIXZW1FAIHWSYXN","","441.5","img/food6.png","75","442.2999999523163","2","1","3","2","1,0.5,0,1,0.5,0,0.5,0,1","0,1,0.5,0,1,0.5,1,0.5,0","3","false",""
"","html-keyboard-response","305","420731","0.0-365.0","3OLQQLKKNTBH7NXRSUD3SM6BW8WJEQ","A2QTL039A5VV3I","3HUR21WDDUBEMSLDIXZW1FAIHWSYXN","","null","<img src=""img/food6.png"" style=""width:200px; border:14px solid green;"">","null","","","","","","","","","",""
"","image-keyboard-response","306","421085","0.0-367.0","3OLQQLKKNTBH7NXRSUD3SM6BW8WJEQ","A2QTL039A5VV3I","3HUR21WDDUBEMSLDIXZW1FAIHWSYXN","","352.60000002384186","img/food5.png","75","353.5","2","1","1","2","1,0.5,0,1,0.5,0,0.5,0,1","0,1,0.5,0,1,0.5,1,0.5,0","3","false",""
"","html-keyboard-response","307","421387","0.0-368.0","3OLQQLKKNTBH7NXRSUD3SM6BW8WJEQ","A2QTL039A5VV3I","3HUR21WDDUBEMSLDIXZW1FAIHWSYXN","","null","<img src=""img/food5.png"" style=""width:200px; border:14px solid green;"">","null","","","","","","","","","",""
"","image-keyboard-response","308","421631","0.0-370.0","3OLQQLKKNTBH7NXRSUD3SM6BW8WJEQ","A2QTL039A5VV3I","3HUR21WDDUBEMSLDIXZW1FAIHWSYXN","","244.10000002384186","img/food4.png","75","244.60000002384186","2","1","2","2","1,0.5,0,1,0.5,0,0.5,0,1","0,1,0.5,0,1,0.5,1,0.5,0","3","false",""
"","html-keyboard-response","309","421934","0.0-371.0","3OLQQLKKNTBH7NXRSUD3SM6BW8WJEQ","A2QTL039A5VV3I","3HUR21WDDUBEMSLDIXZW1FAIHWSYXN","","null","<img src=""img/food4.png"" style=""width:200px; border:14px solid green;"">","null","","","","","","","","","",""
"","image-keyboard-response","310","422162","0.0-373.0","3OLQQLKKNTBH7NXRSUD3SM6BW8WJEQ","A2QTL039A5VV3I","3HUR21WDDUBEMSLDIXZW1FAIHWSYXN","","226.10000002384186","img/food6.png","75","226.79999995231628","2","0","3","2","1,0.5,0,1,0.5,0,0.5,0,1","0,1,0.5,0,1,0.5,1,0.5,0","3","false",""
"","html-keyboard-response","311","422463","0.0-374.0","3OLQQLKKNTBH7NXRSUD3SM6BW8WJEQ","A2QTL039A5VV3I","3HUR21WDDUBEMSLDIXZW1FAIHWSYXN","","null","<img src=""img/food6.png"" style=""width:200px;border:14px solid red;"">","null","","","","","","","","","",""
"","image-keyboard-response","312","422697","0.0-376.0","3OLQQLKKNTBH7NXRSUD3SM6BW8WJEQ","A2QTL039A5VV3I","3HUR21WDDUBEMSLDIXZW1FAIHWSYXN","","232.40000009536743","img/food6.png","75","233.10000002384186","2","0","3","2","1,0.5,0,1,0.5,0,0.5,0,1","0,1,0.5,0,1,0.5,1,0.5,0","3","false",""
"","html-keyboard-response","313","422997","0.0-377.0","3OLQQLKKNTBH7NXRSUD3SM6BW8WJEQ","A2QTL039A5VV3I","3HUR21WDDUBEMSLDIXZW1FAIHWSYXN","","null","<img src=""img/food6.png"" style=""width:200px;border:14px solid red;"">","null","","","","","","","","","",""
"","image-keyboard-response","314","423109","0.0-379.0","3OLQQLKKNTBH7NXRSUD3SM6BW8WJEQ","A2QTL039A5VV3I","3HUR21WDDUBEMSLDIXZW1FAIHWSYXN","","110.39999997615814","img/food6.png","75","111.29999995231628","2","0","3","2","1,0.5,0,1,0.5,0,0.5,0,1","0,1,0.5,0,1,0.5,1,0.5,0","3","false",""
"","html-keyboard-response","315","423411","0.0-380.0","3OLQQLKKNTBH7NXRSUD3SM6BW8WJEQ","A2QTL039A5VV3I","3HUR21WDDUBEMSLDIXZW1FAIHWSYXN","","null","<img src=""img/food6.png"" style=""width:200px;border:14px solid red;"">","null","","","","","","","","","",""
"","image-keyboard-response","316","423689","0.0-382.0","3OLQQLKKNTBH7NXRSUD3SM6BW8WJEQ","A2QTL039A5VV3I","3HUR21WDDUBEMSLDIXZW1FAIHWSYXN","","276.89999997615814","img/food6.png","75","277.40000009536743","2","1","3","2","1,0.5,0,1,0.5,0,0.5,0,1","0,1,0.5,0,1,0.5,1,0.5,0","3","false",""
"","html-keyboard-response","317","423991","0.0-383.0","3OLQQLKKNTBH7NXRSUD3SM6BW8WJEQ","A2QTL039A5VV3I","3HUR21WDDUBEMSLDIXZW1FAIHWSYXN","","null","<img src=""img/food6.png"" style=""width:200px; border:14px solid green;"">","null","","","","","","","","","",""
"","image-keyboard-response","318","424146","0.0-385.0","3OLQQLKKNTBH7NXRSUD3SM6BW8WJEQ","A2QTL039A5VV3I","3HUR21WDDUBEMSLDIXZW1FAIHWSYXN","","154","img/food4.png","75","154.70000004768372","2","1","2","2","1,0.5,0,1,0.5,0,0.5,0,1","0,1,0.5,0,1,0.5,1,0.5,0","3","false",""
"","html-keyboard-response","319","424448","0.0-386.0","3OLQQLKKNTBH7NXRSUD3SM6BW8WJEQ","A2QTL039A5VV3I","3HUR21WDDUBEMSLDIXZW1FAIHWSYXN","","null","<img src=""img/food4.png"" style=""width:200px; border:14px solid green;"">","null","","","","","","","","","",""
"","image-keyboard-response","320","424793","0.0-388.0","3OLQQLKKNTBH7NXRSUD3SM6BW8WJEQ","A2QTL039A5VV3I","3HUR21WDDUBEMSLDIXZW1FAIHWSYXN","","344.6999999284744","img/food6.png","75","345.2000000476837","2","1","3","2","1,0.5,0,1,0.5,0,0.5,0,1","0,1,0.5,0,1,0.5,1,0.5,0","3","false",""
"","html-keyboard-response","321","425101","0.0-389.0","3OLQQLKKNTBH7NXRSUD3SM6BW8WJEQ","A2QTL039A5VV3I","3HUR21WDDUBEMSLDIXZW1FAIHWSYXN","","null","<img src=""img/food6.png"" style=""width:200px; border:14px solid green;"">","null","","","","","","","","","",""
"","image-keyboard-response","322","425411","0.0-391.0","3OLQQLKKNTBH7NXRSUD3SM6BW8WJEQ","A2QTL039A5VV3I","3HUR21WDDUBEMSLDIXZW1FAIHWSYXN","","308.90000009536743","img/food6.png","75","309.2999999523163","2","1","3","2","1,0.5,0,1,0.5,0,0.5,0,1","0,1,0.5,0,1,0.5,1,0.5,0","3","false",""
"","html-keyboard-response","323","425712","0.0-392.0","3OLQQLKKNTBH7NXRSUD3SM6BW8WJEQ","A2QTL039A5VV3I","3HUR21WDDUBEMSLDIXZW1FAIHWSYXN","","null","<img src=""img/food6.png"" style=""width:200px; border:14px solid green;"">","null","","","","","","","","","",""
"","image-keyboard-response","324","425959","0.0-394.0","3OLQQLKKNTBH7NXRSUD3SM6BW8WJEQ","A2QTL039A5VV3I","3HUR21WDDUBEMSLDIXZW1FAIHWSYXN","","245.5","img/food5.png","75","246.10000002384186","2","1","1","2","1,0.5,0,1,0.5,0,0.5,0,1","0,1,0.5,0,1,0.5,1,0.5,0","3","false",""
"","html-keyboard-response","325","426261","0.0-395.0","3OLQQLKKNTBH7NXRSUD3SM6BW8WJEQ","A2QTL039A5VV3I","3HUR21WDDUBEMSLDIXZW1FAIHWSYXN","","null","<img src=""img/food5.png"" style=""width:200px; border:14px solid green;"">","null","","","","","","","","","",""
"","image-keyboard-response","326","426532","0.0-397.0","3OLQQLKKNTBH7NXRSUD3SM6BW8WJEQ","A2QTL039A5VV3I","3HUR21WDDUBEMSLDIXZW1FAIHWSYXN","","270.60000002384186","img/food5.png","75","271.60000002384186","2","1","1","2","1,0.5,0,1,0.5,0,0.5,0,1","0,1,0.5,0,1,0.5,1,0.5,0","3","false",""
"","html-keyboard-response","327","426834","0.0-398.0","3OLQQLKKNTBH7NXRSUD3SM6BW8WJEQ","A2QTL039A5VV3I","3HUR21WDDUBEMSLDIXZW1FAIHWSYXN","","null","<img src=""img/food5.png"" style=""width:200px; border:14px solid green;"">","null","","","","","","","","","",""
"","image-keyboard-response","328","427064","0.0-400.0","3OLQQLKKNTBH7NXRSUD3SM6BW8WJEQ","A2QTL039A5VV3I","3HUR21WDDUBEMSLDIXZW1FAIHWSYXN","","229.19999992847443","img/food5.png","75","229.80000007152557","2","1","1","2","1,0.5,0,1,0.5,0,0.5,0,1","0,1,0.5,0,1,0.5,1,0.5,0","3","false",""
"","html-keyboard-response","329","427366","0.0-401.0","3OLQQLKKNTBH7NXRSUD3SM6BW8WJEQ","A2QTL039A5VV3I","3HUR21WDDUBEMSLDIXZW1FAIHWSYXN","","null","<img src=""img/food5.png"" style=""width:200px; border:14px solid green;"">","null","","","","","","","","","",""
"","image-keyboard-response","330","427664","0.0-403.0","3OLQQLKKNTBH7NXRSUD3SM6BW8WJEQ","A2QTL039A5VV3I","3HUR21WDDUBEMSLDIXZW1FAIHWSYXN","","297.10000002384186","img/food5.png","75","297.7000000476837","2","1","1","2","1,0.5,0,1,0.5,0,0.5,0,1","0,1,0.5,0,1,0.5,1,0.5,0","3","false",""
"","html-keyboard-response","331","427978","0.0-404.0","3OLQQLKKNTBH7NXRSUD3SM6BW8WJEQ","A2QTL039A5VV3I","3HUR21WDDUBEMSLDIXZW1FAIHWSYXN","","null","<img src=""img/food5.png"" style=""width:200px; border:14px solid green;"">","null","","","","","","","","","",""
"","image-keyboard-response","332","428196","0.0-406.0","3OLQQLKKNTBH7NXRSUD3SM6BW8WJEQ","A2QTL039A5VV3I","3HUR21WDDUBEMSLDIXZW1FAIHWSYXN","","217.80000007152557","img/food4.png","75","218.29999995231628","2","1","2","2","1,0.5,0,1,0.5,0,0.5,0,1","0,1,0.5,0,1,0.5,1,0.5,0","3","false",""
"","html-keyboard-response","333","428504","0.0-407.0","3OLQQLKKNTBH7NXRSUD3SM6BW8WJEQ","A2QTL039A5VV3I","3HUR21WDDUBEMSLDIXZW1FAIHWSYXN","","null","<img src=""img/food4.png"" style=""width:200px; border:14px solid green;"">","null","","","","","","","","","",""
"","image-keyboard-response","334","428711","0.0-409.0","3OLQQLKKNTBH7NXRSUD3SM6BW8WJEQ","A2QTL039A5VV3I","3HUR21WDDUBEMSLDIXZW1FAIHWSYXN","","205.39999997615814","img/food4.png","75","206.10000002384186","2","1","2","2","1,0.5,0,1,0.5,0,0.5,0,1","0,1,0.5,0,1,0.5,1,0.5,0","3","false",""
"","html-keyboard-response","335","429012","0.0-410.0","3OLQQLKKNTBH7NXRSUD3SM6BW8WJEQ","A2QTL039A5VV3I","3HUR21WDDUBEMSLDIXZW1FAIHWSYXN","","null","<img src=""img/food4.png"" style=""width:200px; border:14px solid green;"">","null","","","","","","","","","",""
"","image-keyboard-response","336","429259","0.0-412.0","3OLQQLKKNTBH7NXRSUD3SM6BW8WJEQ","A2QTL039A5VV3I","3HUR21WDDUBEMSLDIXZW1FAIHWSYXN","","246","img/food4.png","75","246.60000002384186","2","1","2","2","1,0.5,0,1,0.5,0,0.5,0,1","0,1,0.5,0,1,0.5,1,0.5,0","3","false",""
"","html-keyboard-response","337","429570","0.0-413.0","3OLQQLKKNTBH7NXRSUD3SM6BW8WJEQ","A2QTL039A5VV3I","3HUR21WDDUBEMSLDIXZW1FAIHWSYXN","","null","<img src=""img/food4.png"" style=""width:200px; border:14px solid green;"">","null","","","","","","","","","",""
"","image-keyboard-response","338","429718","0.0-415.0","3OLQQLKKNTBH7NXRSUD3SM6BW8WJEQ","A2QTL039A5VV3I","3HUR21WDDUBEMSLDIXZW1FAIHWSYXN","","147.60000002384186","img/food6.png","75","148.20000004768372","2","1","3","2","1,0.5,0,1,0.5,0,0.5,0,1","0,1,0.5,0,1,0.5,1,0.5,0","3","false",""
"","html-keyboard-response","339","430020","0.0-416.0","3OLQQLKKNTBH7NXRSUD3SM6BW8WJEQ","A2QTL039A5VV3I","3HUR21WDDUBEMSLDIXZW1FAIHWSYXN","","null","<img src=""img/food6.png"" style=""width:200px; border:14px solid green;"">","null","","","","","","","","","",""
"","image-keyboard-response","340","430253","0.0-418.0","3OLQQLKKNTBH7NXRSUD3SM6BW8WJEQ","A2QTL039A5VV3I","3HUR21WDDUBEMSLDIXZW1FAIHWSYXN","","231.69999992847443","img/food5.png","75","232.5","2","1","1","2","1,0.5,0,1,0.5,0,0.5,0,1","0,1,0.5,0,1,0.5,1,0.5,0","3","false",""
"","html-keyboard-response","341","430554","0.0-419.0","3OLQQLKKNTBH7NXRSUD3SM6BW8WJEQ","A2QTL039A5VV3I","3HUR21WDDUBEMSLDIXZW1FAIHWSYXN","","null","<img src=""img/food5.png"" style=""width:200px; border:14px solid green;"">","null","","","","","","","","","",""
"","image-keyboard-response","342","430826","0.0-421.0","3OLQQLKKNTBH7NXRSUD3SM6BW8WJEQ","A2QTL039A5VV3I","3HUR21WDDUBEMSLDIXZW1FAIHWSYXN","","270.89999997615814","img/food4.png","75","271.3000000715256","2","1","2","2","1,0.5,0,1,0.5,0,0.5,0,1","0,1,0.5,0,1,0.5,1,0.5,0","3","false",""
"","html-keyboard-response","343","431128","0.0-422.0","3OLQQLKKNTBH7NXRSUD3SM6BW8WJEQ","A2QTL039A5VV3I","3HUR21WDDUBEMSLDIXZW1FAIHWSYXN","","null","<img src=""img/food4.png"" style=""width:200px; border:14px solid green;"">","null","","","","","","","","","",""
"","image-keyboard-response","344","431393","0.0-424.0","3OLQQLKKNTBH7NXRSUD3SM6BW8WJEQ","A2QTL039A5VV3I","3HUR21WDDUBEMSLDIXZW1FAIHWSYXN","","264.39999997615814","img/food5.png","75","265","2","1","1","2","1,0.5,0,1,0.5,0,0.5,0,1","0,1,0.5,0,1,0.5,1,0.5,0","3","false",""
"","html-keyboard-response","345","431695","0.0-425.0","3OLQQLKKNTBH7NXRSUD3SM6BW8WJEQ","A2QTL039A5VV3I","3HUR21WDDUBEMSLDIXZW1FAIHWSYXN","","null","<img src=""img/food5.png"" style=""width:200px; border:14px solid green;"">","null","","","","","","","","","",""
"","image-keyboard-response","346","431887","0.0-427.0","3OLQQLKKNTBH7NXRSUD3SM6BW8WJEQ","A2QTL039A5VV3I","3HUR21WDDUBEMSLDIXZW1FAIHWSYXN","","191.39999997615814","img/food4.png","75","192.10000002384186","2","1","2","2","1,0.5,0,1,0.5,0,0.5,0,1","0,1,0.5,0,1,0.5,1,0.5,0","3","false",""
"","html-keyboard-response","347","432188","0.0-428.0","3OLQQLKKNTBH7NXRSUD3SM6BW8WJEQ","A2QTL039A5VV3I","3HUR21WDDUBEMSLDIXZW1FAIHWSYXN","","null","<img src=""img/food4.png"" style=""width:200px; border:14px solid green;"">","null","","","","","","","","","",""
"","image-keyboard-response","348","432501","0.0-430.0","3OLQQLKKNTBH7NXRSUD3SM6BW8WJEQ","A2QTL039A5VV3I","3HUR21WDDUBEMSLDIXZW1FAIHWSYXN","","311.89999997615814","img/food6.png","75","312.39999997615814","2","1","3","2","1,0.5,0,1,0.5,0,0.5,0,1","0,1,0.5,0,1,0.5,1,0.5,0","3","false",""
"","html-keyboard-response","349","432801","0.0-431.0","3OLQQLKKNTBH7NXRSUD3SM6BW8WJEQ","A2QTL039A5VV3I","3HUR21WDDUBEMSLDIXZW1FAIHWSYXN","","null","<img src=""img/food6.png"" style=""width:200px; border:14px solid green;"">","null","","","","","","","","","",""
"","image-keyboard-response","350","433184","0.0-433.0","3OLQQLKKNTBH7NXRSUD3SM6BW8WJEQ","A2QTL039A5VV3I","3HUR21WDDUBEMSLDIXZW1FAIHWSYXN","","381.3000000715256","img/food5.png","75","381.89999997615814","2","1","1","2","1,0.5,0,1,0.5,0,0.5,0,1","0,1,0.5,0,1,0.5,1,0.5,0","3","false",""
"","html-keyboard-response","351","433485","0.0-434.0","3OLQQLKKNTBH7NXRSUD3SM6BW8WJEQ","A2QTL039A5VV3I","3HUR21WDDUBEMSLDIXZW1FAIHWSYXN","","null","<img src=""img/food5.png"" style=""width:200px; border:14px solid green;"">","null","","","","","","","","","",""
"","image-keyboard-response","352","433864","0.0-436.0","3OLQQLKKNTBH7NXRSUD3SM6BW8WJEQ","A2QTL039A5VV3I","3HUR21WDDUBEMSLDIXZW1FAIHWSYXN","","378","img/food6.png","75","378.6999999284744","2","0","3","2","1,0.5,0,1,0.5,0,0.5,0,1","0,1,0.5,0,1,0.5,1,0.5,0","3","false",""
"","html-keyboard-response","353","434169","0.0-437.0","3OLQQLKKNTBH7NXRSUD3SM6BW8WJEQ","A2QTL039A5VV3I","3HUR21WDDUBEMSLDIXZW1FAIHWSYXN","","null","<img src=""img/food6.png"" style=""width:200px;border:14px solid red;"">","null","","","","","","","","","",""
"","image-keyboard-response","354","434318","0.0-439.0","3OLQQLKKNTBH7NXRSUD3SM6BW8WJEQ","A2QTL039A5VV3I","3HUR21WDDUBEMSLDIXZW1FAIHWSYXN","","148.19999992847443","img/food6.png","75","148.70000004768372","2","0","3","2","1,0.5,0,1,0.5,0,0.5,0,1","0,1,0.5,0,1,0.5,1,0.5,0","3","false",""
"","html-keyboard-response","355","434620","0.0-440.0","3OLQQLKKNTBH7NXRSUD3SM6BW8WJEQ","A2QTL039A5VV3I","3HUR21WDDUBEMSLDIXZW1FAIHWSYXN","","null","<img src=""img/food6.png"" style=""width:200px;border:14px solid red;"">","null","","","","","","","","","",""
"","image-keyboard-response","356","434670","0.0-442.0","3OLQQLKKNTBH7NXRSUD3SM6BW8WJEQ","A2QTL039A5VV3I","3HUR21WDDUBEMSLDIXZW1FAIHWSYXN","","49.799999952316284","img/food5.png","75","50.5","2","1","1","2","1,0.5,0,1,0.5,0,0.5,0,1","0,1,0.5,0,1,0.5,1,0.5,0","3","false",""
"","html-keyboard-response","357","434973","0.0-443.0","3OLQQLKKNTBH7NXRSUD3SM6BW8WJEQ","A2QTL039A5VV3I","3HUR21WDDUBEMSLDIXZW1FAIHWSYXN","","null","<img src=""img/food5.png"" style=""width:200px; border:14px solid green;"">","null","","","","","","","","","",""
"","image-keyboard-response","358","434990","0.0-445.0","3OLQQLKKNTBH7NXRSUD3SM6BW8WJEQ","A2QTL039A5VV3I","3HUR21WDDUBEMSLDIXZW1FAIHWSYXN","","16.100000023841858","img/food4.png","75","16.5","2","1","2","2","1,0.5,0,1,0.5,0,0.5,0,1","0,1,0.5,0,1,0.5,1,0.5,0","3","false",""
"","html-keyboard-response","359","435291","0.0-446.0","3OLQQLKKNTBH7NXRSUD3SM6BW8WJEQ","A2QTL039A5VV3I","3HUR21WDDUBEMSLDIXZW1FAIHWSYXN","","null","<img src=""img/food4.png"" style=""width:200px; border:14px solid green;"">","null","","","","","","","","","",""
"","image-keyboard-response","360","435628","0.0-448.0","3OLQQLKKNTBH7NXRSUD3SM6BW8WJEQ","A2QTL039A5VV3I","3HUR21WDDUBEMSLDIXZW1FAIHWSYXN","","336.10000002384186","img/food5.png","75","336.60000002384186","2","1","1","2","1,0.5,0,1,0.5,0,0.5,0,1","0,1,0.5,0,1,0.5,1,0.5,0","3","false",""
"","html-keyboard-response","361","435929","0.0-449.0","3OLQQLKKNTBH7NXRSUD3SM6BW8WJEQ","A2QTL039A5VV3I","3HUR21WDDUBEMSLDIXZW1FAIHWSYXN","","null","<img src=""img/food5.png"" style=""width:200px; border:14px solid green;"">","null","","","","","","","","","",""
"","image-keyboard-response","362","436010","0.0-451.0","3OLQQLKKNTBH7NXRSUD3SM6BW8WJEQ","A2QTL039A5VV3I","3HUR21WDDUBEMSLDIXZW1FAIHWSYXN","","79.40000009536743","img/food5.png","75","80.20000004768372","2","1","1","2","1,0.5,0,1,0.5,0,0.5,0,1","0,1,0.5,0,1,0.5,1,0.5,0","3","false",""
"","html-keyboard-response","363","436311","0.0-452.0","3OLQQLKKNTBH7NXRSUD3SM6BW8WJEQ","A2QTL039A5VV3I","3HUR21WDDUBEMSLDIXZW1FAIHWSYXN","","null","<img src=""img/food5.png"" style=""width:200px; border:14px solid green;"">","null","","","","","","","","","",""
"","instructions","364","438493","0.0-454.0","3OLQQLKKNTBH7NXRSUD3SM6BW8WJEQ","A2QTL039A5VV3I","3HUR21WDDUBEMSLDIXZW1FAIHWSYXN","[{""page_index"":0,""viewing_time"":2181.1999999284744}]","2181.399999976158","","","","","","","","","","","",""
"","survey-text","365","443025","0.0-455.0","3OLQQLKKNTBH7NXRSUD3SM6BW8WJEQ","A2QTL039A5VV3I","3HUR21WDDUBEMSLDIXZW1FAIHWSYXN","","4529.100000023842","","","","","","","","","","","","{""Q0"":""A2QTL039A5VV3I""}"
