"success","trial_type","trial_index","time_elapsed","internal_node_id","assignmentID","mturkID","hitID","view_history","rt","stimulus","key_press","reactionTime","a","r","s","cond","reward_cond","reward_cond_actual","reward_matrix_idx","warning","responses"
"true","fullscreen","0","2918","0.0-0.0","3HHRAGRYX9RED2X70WPM84MM45RO95","A2R75YFKVALBXE","3XT3KXP24ZKFDDMCDS43FE3AU9W6IW","","","","","","","","","","","","","",""
"","instructions","1","70588","0.0-1.0","3HHRAGRYX9RED2X70WPM84MM45RO95","A2R75YFKVALBXE","3XT3KXP24ZKFDDMCDS43FE3AU9W6IW","[{""page_index"":0,""viewing_time"":5229.79999999702},{""page_index"":1,""viewing_time"":12847.09999999404},{""page_index"":2,""viewing_time"":3488.6000000089407},{""page_index"":3,""viewing_time"":11081.59999999404},{""page_index"":4,""viewing_time"":5377.79999999702},{""page_index"":5,""viewing_time"":22871.90000000596},{""page_index"":6,""viewing_time"":6772.5}]","67670.19999998808","","","","","","","","","","","",""
"","image-keyboard-response","2","71572","0.0-2.0","3HHRAGRYX9RED2X70WPM84MM45RO95","A2R75YFKVALBXE","3XT3KXP24ZKFDDMCDS43FE3AU9W6IW","","982.5","img/food5.png","74","983.7999999970198","1","1","1","1","1,0.5,0,1,0.5,0,0.5,0,1","0.5,0,1,0.5,0,1,0,1,0.5","2","",""
"","html-keyboard-response","3","71875","0.0-3.0","3HHRAGRYX9RED2X70WPM84MM45RO95","A2R75YFKVALBXE","3XT3KXP24ZKFDDMCDS43FE3AU9W6IW","","null","<img src=""img/food5.png"" style=""width:200px; border:14px solid green;"">","null","","","","","","","","","",""
"","image-keyboard-response","4","72571","0.0-4.0","3HHRAGRYX9RED2X70WPM84MM45RO95","A2R75YFKVALBXE","3XT3KXP24ZKFDDMCDS43FE3AU9W6IW","","694.5999999940395","img/food6.png","74","695.6999999880791","1","0","3","1","1,0.5,0,1,0.5,0,0.5,0,1","0.5,0,1,0.5,0,1,0,1,0.5","2","",""
"","html-keyboard-response","5","72873","0.0-5.0","3HHRAGRYX9RED2X70WPM84MM45RO95","A2R75YFKVALBXE","3XT3KXP24ZKFDDMCDS43FE3AU9W6IW","","null","<img src=""img/food6.png"" style=""width:200px;border:14px solid red;"">","null","","","","","","","","","",""
"","image-keyboard-response","6","73316","0.0-6.0","3HHRAGRYX9RED2X70WPM84MM45RO95","A2R75YFKVALBXE","3XT3KXP24ZKFDDMCDS43FE3AU9W6IW","","441.79999999701977","img/food6.png","75","442.79999999701977","2","1","3","1","1,0.5,0,1,0.5,0,0.5,0,1","0.5,0,1,0.5,0,1,0,1,0.5","2","",""
"","html-keyboard-response","7","73619","0.0-7.0","3HHRAGRYX9RED2X70WPM84MM45RO95","A2R75YFKVALBXE","3XT3KXP24ZKFDDMCDS43FE3AU9W6IW","","null","<img src=""img/food6.png"" style=""width:200px; border:14px solid green;"">","null","","","","","","","","","",""
"","image-keyboard-response","8","74493","0.0-8.0","3HHRAGRYX9RED2X70WPM84MM45RO95","A2R75YFKVALBXE","3XT3KXP24ZKFDDMCDS43FE3AU9W6IW","","872.1000000089407","img/food6.png","75","873","2","1","3","1","1,0.5,0,1,0.5,0,0.5,0,1","0.5,0,1,0.5,0,1,0,1,0.5","2","",""
"","html-keyboard-response","9","74797","0.0-9.0","3HHRAGRYX9RED2X70WPM84MM45RO95","A2R75YFKVALBXE","3XT3KXP24ZKFDDMCDS43FE3AU9W6IW","","null","<img src=""img/food6.png"" style=""width:200px; border:14px solid green;"">","null","","","","","","","","","",""
"","image-keyboard-response","10","75482","0.0-10.0","3HHRAGRYX9RED2X70WPM84MM45RO95","A2R75YFKVALBXE","3XT3KXP24ZKFDDMCDS43FE3AU9W6IW","","683.7999999970198","img/food5.png","74","684.7999999970198","1","0","1","1","1,0.5,0,1,0.5,0,0.5,0,1","0.5,0,1,0.5,0,1,0,1,0.5","2","",""
"","html-keyboard-response","11","75784","0.0-11.0","3HHRAGRYX9RED2X70WPM84MM45RO95","A2R75YFKVALBXE","3XT3KXP24ZKFDDMCDS43FE3AU9W6IW","","null","<img src=""img/food5.png"" style=""width:200px;border:14px solid red;"">","null","","","","","","","","","",""
"","image-keyboard-response","12","76452","0.0-12.0","3HHRAGRYX9RED2X70WPM84MM45RO95","A2R75YFKVALBXE","3XT3KXP24ZKFDDMCDS43FE3AU9W6IW","","666.7999999970198","img/food2.png","75","667.7000000029802","2","0","2","1","1,0.5,0,1,0.5,0,0.5,0,1","0.5,0,1,0.5,0,1,0,1,0.5","2","",""
"","html-keyboard-response","13","76757","0.0-13.0","3HHRAGRYX9RED2X70WPM84MM45RO95","A2R75YFKVALBXE","3XT3KXP24ZKFDDMCDS43FE3AU9W6IW","","null","<img src=""img/food2.png"" style=""width:200px;border:14px solid red;"">","null","","","","","","","","","",""
"","image-keyboard-response","14","77572","0.0-14.0","3HHRAGRYX9RED2X70WPM84MM45RO95","A2R75YFKVALBXE","3XT3KXP24ZKFDDMCDS43FE3AU9W6IW","","814.0999999940395","img/food2.png","76","814.7999999970198","3","1","2","1","1,0.5,0,1,0.5,0,0.5,0,1","0.5,0,1,0.5,0,1,0,1,0.5","2","",""
"","html-keyboard-response","15","77875","0.0-15.0","3HHRAGRYX9RED2X70WPM84MM45RO95","A2R75YFKVALBXE","3XT3KXP24ZKFDDMCDS43FE3AU9W6IW","","null","<img src=""img/food2.png"" style=""width:200px; border:14px solid green;"">","null","","","","","","","","","",""
"","image-keyboard-response","16","79036","0.0-16.0","3HHRAGRYX9RED2X70WPM84MM45RO95","A2R75YFKVALBXE","3XT3KXP24ZKFDDMCDS43FE3AU9W6IW","","1159.5","img/food5.png","75","1160.2999999970198","2","0","1","1","1,0.5,0,1,0.5,0,0.5,0,1","0.5,0,1,0.5,0,1,0,1,0.5","2","",""
"","html-keyboard-response","17","79342","0.0-17.0","3HHRAGRYX9RED2X70WPM84MM45RO95","A2R75YFKVALBXE","3XT3KXP24ZKFDDMCDS43FE3AU9W6IW","","null","<img src=""img/food5.png"" style=""width:200px;border:14px solid red;"">","null","","","","","","","","","",""
"","image-keyboard-response","18","80036","0.0-18.0","3HHRAGRYX9RED2X70WPM84MM45RO95","A2R75YFKVALBXE","3XT3KXP24ZKFDDMCDS43FE3AU9W6IW","","692.5999999940395","img/food5.png","76","693.5999999940395","3","1","1","1","1,0.5,0,1,0.5,0,0.5,0,1","0.5,0,1,0.5,0,1,0,1,0.5","2","",""
"","html-keyboard-response","19","80340","0.0-19.0","3HHRAGRYX9RED2X70WPM84MM45RO95","A2R75YFKVALBXE","3XT3KXP24ZKFDDMCDS43FE3AU9W6IW","","null","<img src=""img/food5.png"" style=""width:200px; border:14px solid green;"">","null","","","","","","","","","",""
"","image-keyboard-response","20","81180","0.0-20.0","3HHRAGRYX9RED2X70WPM84MM45RO95","A2R75YFKVALBXE","3XT3KXP24ZKFDDMCDS43FE3AU9W6IW","","838.7000000029802","img/food2.png","76","839.6000000089407","3","1","2","1","1,0.5,0,1,0.5,0,0.5,0,1","0.5,0,1,0.5,0,1,0,1,0.5","2","",""
"","html-keyboard-response","21","81485","0.0-21.0","3HHRAGRYX9RED2X70WPM84MM45RO95","A2R75YFKVALBXE","3XT3KXP24ZKFDDMCDS43FE3AU9W6IW","","null","<img src=""img/food2.png"" style=""width:200px; border:14px solid green;"">","null","","","","","","","","","",""
"","image-keyboard-response","22","82003","0.0-22.0","3HHRAGRYX9RED2X70WPM84MM45RO95","A2R75YFKVALBXE","3XT3KXP24ZKFDDMCDS43FE3AU9W6IW","","517.2999999970198","img/food2.png","76","518.3000000119209","3","1","2","1","1,0.5,0,1,0.5,0,0.5,0,1","0.5,0,1,0.5,0,1,0,1,0.5","2","",""
"","html-keyboard-response","23","82307","0.0-23.0","3HHRAGRYX9RED2X70WPM84MM45RO95","A2R75YFKVALBXE","3XT3KXP24ZKFDDMCDS43FE3AU9W6IW","","null","<img src=""img/food2.png"" style=""width:200px; border:14px solid green;"">","null","","","","","","","","","",""
"","image-keyboard-response","24","83251","0.0-24.0","3HHRAGRYX9RED2X70WPM84MM45RO95","A2R75YFKVALBXE","3XT3KXP24ZKFDDMCDS43FE3AU9W6IW","","942.7999999970198","img/food6.png","75","943.6999999880791","2","1","3","1","1,0.5,0,1,0.5,0,0.5,0,1","0.5,0,1,0.5,0,1,0,1,0.5","2","",""
"","html-keyboard-response","25","83555","0.0-25.0","3HHRAGRYX9RED2X70WPM84MM45RO95","A2R75YFKVALBXE","3XT3KXP24ZKFDDMCDS43FE3AU9W6IW","","null","<img src=""img/food6.png"" style=""width:200px; border:14px solid green;"">","null","","","","","","","","","",""
"","image-keyboard-response","26","84364","0.0-26.0","3HHRAGRYX9RED2X70WPM84MM45RO95","A2R75YFKVALBXE","3XT3KXP24ZKFDDMCDS43FE3AU9W6IW","","807.7999999970198","img/food5.png","76","808.5","3","1","1","1","1,0.5,0,1,0.5,0,0.5,0,1","0.5,0,1,0.5,0,1,0,1,0.5","2","",""
"","html-keyboard-response","27","84665","0.0-27.0","3HHRAGRYX9RED2X70WPM84MM45RO95","A2R75YFKVALBXE","3XT3KXP24ZKFDDMCDS43FE3AU9W6IW","","null","<img src=""img/food5.png"" style=""width:200px; border:14px solid green;"">","null","","","","","","","","","",""
"","image-keyboard-response","28","85380","0.0-28.0","3HHRAGRYX9RED2X70WPM84MM45RO95","A2R75YFKVALBXE","3XT3KXP24ZKFDDMCDS43FE3AU9W6IW","","714.0999999940395","img/food6.png","76","715","3","0","3","1","1,0.5,0,1,0.5,0,0.5,0,1","0.5,0,1,0.5,0,1,0,1,0.5","2","",""
"","html-keyboard-response","29","85685","0.0-29.0","3HHRAGRYX9RED2X70WPM84MM45RO95","A2R75YFKVALBXE","3XT3KXP24ZKFDDMCDS43FE3AU9W6IW","","null","<img src=""img/food6.png"" style=""width:200px;border:14px solid red;"">","null","","","","","","","","","",""
"","image-keyboard-response","30","86195","0.0-30.0","3HHRAGRYX9RED2X70WPM84MM45RO95","A2R75YFKVALBXE","3XT3KXP24ZKFDDMCDS43FE3AU9W6IW","","509.20000000298023","img/food5.png","75","510","2","0","1","1","1,0.5,0,1,0.5,0,0.5,0,1","0.5,0,1,0.5,0,1,0,1,0.5","2","",""
"","html-keyboard-response","31","86502","0.0-31.0","3HHRAGRYX9RED2X70WPM84MM45RO95","A2R75YFKVALBXE","3XT3KXP24ZKFDDMCDS43FE3AU9W6IW","","null","<img src=""img/food5.png"" style=""width:200px;border:14px solid red;"">","null","","","","","","","","","",""
"","image-keyboard-response","32","87508","0.0-32.0","3HHRAGRYX9RED2X70WPM84MM45RO95","A2R75YFKVALBXE","3XT3KXP24ZKFDDMCDS43FE3AU9W6IW","","1004.9000000059605","img/food2.png","74","1005.7000000029802","1","1","2","1","1,0.5,0,1,0.5,0,0.5,0,1","0.5,0,1,0.5,0,1,0,1,0.5","2","",""
"","html-keyboard-response","33","87810","0.0-33.0","3HHRAGRYX9RED2X70WPM84MM45RO95","A2R75YFKVALBXE","3XT3KXP24ZKFDDMCDS43FE3AU9W6IW","","null","<img src=""img/food2.png"" style=""width:200px; border:14px solid green;"">","null","","","","","","","","","",""
"","image-keyboard-response","34","88348","0.0-34.0","3HHRAGRYX9RED2X70WPM84MM45RO95","A2R75YFKVALBXE","3XT3KXP24ZKFDDMCDS43FE3AU9W6IW","","536.6999999880791","img/food2.png","74","537.5999999940395","1","1","2","1","1,0.5,0,1,0.5,0,0.5,0,1","0.5,0,1,0.5,0,1,0,1,0.5","2","",""
"","html-keyboard-response","35","88653","0.0-35.0","3HHRAGRYX9RED2X70WPM84MM45RO95","A2R75YFKVALBXE","3XT3KXP24ZKFDDMCDS43FE3AU9W6IW","","null","<img src=""img/food2.png"" style=""width:200px; border:14px solid green;"">","null","","","","","","","","","",""
"","image-keyboard-response","36","89188","0.0-36.0","3HHRAGRYX9RED2X70WPM84MM45RO95","A2R75YFKVALBXE","3XT3KXP24ZKFDDMCDS43FE3AU9W6IW","","534.0999999940395","img/food2.png","74","534.8999999910593","1","1","2","1","1,0.5,0,1,0.5,0,0.5,0,1","0.5,0,1,0.5,0,1,0,1,0.5","2","",""
"","html-keyboard-response","37","89490","0.0-37.0","3HHRAGRYX9RED2X70WPM84MM45RO95","A2R75YFKVALBXE","3XT3KXP24ZKFDDMCDS43FE3AU9W6IW","","null","<img src=""img/food2.png"" style=""width:200px; border:14px solid green;"">","null","","","","","","","","","",""
"","image-keyboard-response","38","91172","0.0-38.0","3HHRAGRYX9RED2X70WPM84MM45RO95","A2R75YFKVALBXE","3XT3KXP24ZKFDDMCDS43FE3AU9W6IW","","1680.9000000059605","img/food6.png","76","1681.7999999970198","3","0","3","1","1,0.5,0,1,0.5,0,0.5,0,1","0.5,0,1,0.5,0,1,0,1,0.5","2","",""
"","html-keyboard-response","39","91474","0.0-39.0","3HHRAGRYX9RED2X70WPM84MM45RO95","A2R75YFKVALBXE","3XT3KXP24ZKFDDMCDS43FE3AU9W6IW","","null","<img src=""img/food6.png"" style=""width:200px;border:14px solid red;"">","null","","","","","","","","","",""
"","image-keyboard-response","40","91884","0.0-40.0","3HHRAGRYX9RED2X70WPM84MM45RO95","A2R75YFKVALBXE","3XT3KXP24ZKFDDMCDS43FE3AU9W6IW","","409.3999999910593","img/food2.png","75","410.09999999403954","2","0","2","1","1,0.5,0,1,0.5,0,0.5,0,1","0.5,0,1,0.5,0,1,0,1,0.5","2","",""
"","html-keyboard-response","41","92186","0.0-41.0","3HHRAGRYX9RED2X70WPM84MM45RO95","A2R75YFKVALBXE","3XT3KXP24ZKFDDMCDS43FE3AU9W6IW","","null","<img src=""img/food2.png"" style=""width:200px;border:14px solid red;"">","null","","","","","","","","","",""
"","image-keyboard-response","42","92691","0.0-42.0","3HHRAGRYX9RED2X70WPM84MM45RO95","A2R75YFKVALBXE","3XT3KXP24ZKFDDMCDS43FE3AU9W6IW","","504.29999999701977","img/food5.png","74","505.09999999403954","1","0","1","1","1,0.5,0,1,0.5,0,0.5,0,1","0.5,0,1,0.5,0,1,0,1,0.5","2","",""
"","html-keyboard-response","43","92998","0.0-43.0","3HHRAGRYX9RED2X70WPM84MM45RO95","A2R75YFKVALBXE","3XT3KXP24ZKFDDMCDS43FE3AU9W6IW","","null","<img src=""img/food5.png"" style=""width:200px;border:14px solid red;"">","null","","","","","","","","","",""
"","image-keyboard-response","44","93699","0.0-44.0","3HHRAGRYX9RED2X70WPM84MM45RO95","A2R75YFKVALBXE","3XT3KXP24ZKFDDMCDS43FE3AU9W6IW","","700.0999999940395","img/food5.png","75","700.9000000059605","2","0","1","1","1,0.5,0,1,0.5,0,0.5,0,1","0.5,0,1,0.5,0,1,0,1,0.5","2","",""
"","html-keyboard-response","45","94003","0.0-45.0","3HHRAGRYX9RED2X70WPM84MM45RO95","A2R75YFKVALBXE","3XT3KXP24ZKFDDMCDS43FE3AU9W6IW","","null","<img src=""img/food5.png"" style=""width:200px;border:14px solid red;"">","null","","","","","","","","","",""
"","image-keyboard-response","46","94740","0.0-46.0","3HHRAGRYX9RED2X70WPM84MM45RO95","A2R75YFKVALBXE","3XT3KXP24ZKFDDMCDS43FE3AU9W6IW","","736.0999999940395","img/food2.png","76","736.7999999970198","3","1","2","1","1,0.5,0,1,0.5,0,0.5,0,1","0.5,0,1,0.5,0,1,0,1,0.5","2","",""
"","html-keyboard-response","47","95043","0.0-47.0","3HHRAGRYX9RED2X70WPM84MM45RO95","A2R75YFKVALBXE","3XT3KXP24ZKFDDMCDS43FE3AU9W6IW","","null","<img src=""img/food2.png"" style=""width:200px; border:14px solid green;"">","null","","","","","","","","","",""
"","image-keyboard-response","48","96452","0.0-48.0","3HHRAGRYX9RED2X70WPM84MM45RO95","A2R75YFKVALBXE","3XT3KXP24ZKFDDMCDS43FE3AU9W6IW","","1407.9000000059605","img/food6.png","76","1408.5999999940395","3","0","3","1","1,0.5,0,1,0.5,0,0.5,0,1","0.5,0,1,0.5,0,1,0,1,0.5","2","",""
"","html-keyboard-response","49","96754","0.0-49.0","3HHRAGRYX9RED2X70WPM84MM45RO95","A2R75YFKVALBXE","3XT3KXP24ZKFDDMCDS43FE3AU9W6IW","","null","<img src=""img/food6.png"" style=""width:200px;border:14px solid red;"">","null","","","","","","","","","",""
"","image-keyboard-response","50","97843","0.0-50.0","3HHRAGRYX9RED2X70WPM84MM45RO95","A2R75YFKVALBXE","3XT3KXP24ZKFDDMCDS43FE3AU9W6IW","","1088.5999999940395","img/food5.png","74","1089.2999999970198","1","1","1","1","1,0.5,0,1,0.5,0,0.5,0,1","0.5,0,1,0.5,0,1,0,1,0.5","2","",""
"","html-keyboard-response","51","98146","0.0-51.0","3HHRAGRYX9RED2X70WPM84MM45RO95","A2R75YFKVALBXE","3XT3KXP24ZKFDDMCDS43FE3AU9W6IW","","null","<img src=""img/food5.png"" style=""width:200px; border:14px solid green;"">","null","","","","","","","","","",""
"","image-keyboard-response","52","98851","0.0-52.0","3HHRAGRYX9RED2X70WPM84MM45RO95","A2R75YFKVALBXE","3XT3KXP24ZKFDDMCDS43FE3AU9W6IW","","704.5","img/food2.png","74","705.2999999970198","1","0","2","1","1,0.5,0,1,0.5,0,0.5,0,1","0.5,0,1,0.5,0,1,0,1,0.5","2","",""
"","html-keyboard-response","53","99154","0.0-53.0","3HHRAGRYX9RED2X70WPM84MM45RO95","A2R75YFKVALBXE","3XT3KXP24ZKFDDMCDS43FE3AU9W6IW","","null","<img src=""img/food2.png"" style=""width:200px;border:14px solid red;"">","null","","","","","","","","","",""
"","image-keyboard-response","54","100002","0.0-54.0","3HHRAGRYX9RED2X70WPM84MM45RO95","A2R75YFKVALBXE","3XT3KXP24ZKFDDMCDS43FE3AU9W6IW","","847.5999999940395","img/food5.png","76","848.5","3","1","1","1","1,0.5,0,1,0.5,0,0.5,0,1","0.5,0,1,0.5,0,1,0,1,0.5","2","",""
"","html-keyboard-response","55","100306","0.0-55.0","3HHRAGRYX9RED2X70WPM84MM45RO95","A2R75YFKVALBXE","3XT3KXP24ZKFDDMCDS43FE3AU9W6IW","","null","<img src=""img/food5.png"" style=""width:200px; border:14px solid green;"">","null","","","","","","","","","",""
"","image-keyboard-response","56","101163","0.0-56.0","3HHRAGRYX9RED2X70WPM84MM45RO95","A2R75YFKVALBXE","3XT3KXP24ZKFDDMCDS43FE3AU9W6IW","","856.4000000059605","img/food2.png","74","857.2999999970198","1","1","2","1","1,0.5,0,1,0.5,0,0.5,0,1","0.5,0,1,0.5,0,1,0,1,0.5","2","",""
"","html-keyboard-response","57","101465","0.0-57.0","3HHRAGRYX9RED2X70WPM84MM45RO95","A2R75YFKVALBXE","3XT3KXP24ZKFDDMCDS43FE3AU9W6IW","","null","<img src=""img/food2.png"" style=""width:200px; border:14px solid green;"">","null","","","","","","","","","",""
"","image-keyboard-response","58","101987","0.0-58.0","3HHRAGRYX9RED2X70WPM84MM45RO95","A2R75YFKVALBXE","3XT3KXP24ZKFDDMCDS43FE3AU9W6IW","","521.5","img/food2.png","74","522.2999999970198","1","1","2","1","1,0.5,0,1,0.5,0,0.5,0,1","0.5,0,1,0.5,0,1,0,1,0.5","2","",""
"","html-keyboard-response","59","102290","0.0-59.0","3HHRAGRYX9RED2X70WPM84MM45RO95","A2R75YFKVALBXE","3XT3KXP24ZKFDDMCDS43FE3AU9W6IW","","null","<img src=""img/food2.png"" style=""width:200px; border:14px solid green;"">","null","","","","","","","","","",""
"","image-keyboard-response","60","103379","0.0-60.0","3HHRAGRYX9RED2X70WPM84MM45RO95","A2R75YFKVALBXE","3XT3KXP24ZKFDDMCDS43FE3AU9W6IW","","1087.7999999970198","img/food6.png","75","1088.7000000029802","2","1","3","1","1,0.5,0,1,0.5,0,0.5,0,1","0.5,0,1,0.5,0,1,0,1,0.5","2","",""
"","html-keyboard-response","61","103681","0.0-61.0","3HHRAGRYX9RED2X70WPM84MM45RO95","A2R75YFKVALBXE","3XT3KXP24ZKFDDMCDS43FE3AU9W6IW","","null","<img src=""img/food6.png"" style=""width:200px; border:14px solid green;"">","null","","","","","","","","","",""
"","image-keyboard-response","62","104435","0.0-62.0","3HHRAGRYX9RED2X70WPM84MM45RO95","A2R75YFKVALBXE","3XT3KXP24ZKFDDMCDS43FE3AU9W6IW","","753","img/food2.png","74","753.5999999940395","1","0","2","1","1,0.5,0,1,0.5,0,0.5,0,1","0.5,0,1,0.5,0,1,0,1,0.5","2","",""
"","html-keyboard-response","63","104738","0.0-63.0","3HHRAGRYX9RED2X70WPM84MM45RO95","A2R75YFKVALBXE","3XT3KXP24ZKFDDMCDS43FE3AU9W6IW","","null","<img src=""img/food2.png"" style=""width:200px;border:14px solid red;"">","null","","","","","","","","","",""
"","image-keyboard-response","64","105499","0.0-64.0","3HHRAGRYX9RED2X70WPM84MM45RO95","A2R75YFKVALBXE","3XT3KXP24ZKFDDMCDS43FE3AU9W6IW","","760.5","img/food2.png","74","761.2999999970198","1","0","2","1","1,0.5,0,1,0.5,0,0.5,0,1","0.5,0,1,0.5,0,1,0,1,0.5","2","",""
"","html-keyboard-response","65","105805","0.0-65.0","3HHRAGRYX9RED2X70WPM84MM45RO95","A2R75YFKVALBXE","3XT3KXP24ZKFDDMCDS43FE3AU9W6IW","","null","<img src=""img/food2.png"" style=""width:200px;border:14px solid red;"">","null","","","","","","","","","",""
"","image-keyboard-response","66","106395","0.0-66.0","3HHRAGRYX9RED2X70WPM84MM45RO95","A2R75YFKVALBXE","3XT3KXP24ZKFDDMCDS43FE3AU9W6IW","","589.5","img/food5.png","76","590.2999999970198","3","1","1","1","1,0.5,0,1,0.5,0,0.5,0,1","0.5,0,1,0.5,0,1,0,1,0.5","2","",""
"","html-keyboard-response","67","106701","0.0-67.0","3HHRAGRYX9RED2X70WPM84MM45RO95","A2R75YFKVALBXE","3XT3KXP24ZKFDDMCDS43FE3AU9W6IW","","null","<img src=""img/food5.png"" style=""width:200px; border:14px solid green;"">","null","","","","","","","","","",""
"","image-keyboard-response","68","107204","0.0-68.0","3HHRAGRYX9RED2X70WPM84MM45RO95","A2R75YFKVALBXE","3XT3KXP24ZKFDDMCDS43FE3AU9W6IW","","501.90000000596046","img/food6.png","76","502.70000000298023","3","1","3","1","1,0.5,0,1,0.5,0,0.5,0,1","0.5,0,1,0.5,0,1,0,1,0.5","2","",""
"","html-keyboard-response","69","107506","0.0-69.0","3HHRAGRYX9RED2X70WPM84MM45RO95","A2R75YFKVALBXE","3XT3KXP24ZKFDDMCDS43FE3AU9W6IW","","null","<img src=""img/food6.png"" style=""width:200px; border:14px solid green;"">","null","","","","","","","","","",""
"","image-keyboard-response","70","108155","0.0-70.0","3HHRAGRYX9RED2X70WPM84MM45RO95","A2R75YFKVALBXE","3XT3KXP24ZKFDDMCDS43FE3AU9W6IW","","648","img/food2.png","76","648.8000000119209","3","1","2","1","1,0.5,0,1,0.5,0,0.5,0,1","0.5,0,1,0.5,0,1,0,1,0.5","2","",""
"","html-keyboard-response","71","108461","0.0-71.0","3HHRAGRYX9RED2X70WPM84MM45RO95","A2R75YFKVALBXE","3XT3KXP24ZKFDDMCDS43FE3AU9W6IW","","null","<img src=""img/food2.png"" style=""width:200px; border:14px solid green;"">","null","","","","","","","","","",""
"","image-keyboard-response","72","109043","0.0-72.0","3HHRAGRYX9RED2X70WPM84MM45RO95","A2R75YFKVALBXE","3XT3KXP24ZKFDDMCDS43FE3AU9W6IW","","580.5999999940395","img/food5.png","76","581.5","3","1","1","1","1,0.5,0,1,0.5,0,0.5,0,1","0.5,0,1,0.5,0,1,0,1,0.5","2","",""
"","html-keyboard-response","73","109346","0.0-73.0","3HHRAGRYX9RED2X70WPM84MM45RO95","A2R75YFKVALBXE","3XT3KXP24ZKFDDMCDS43FE3AU9W6IW","","null","<img src=""img/food5.png"" style=""width:200px; border:14px solid green;"">","null","","","","","","","","","",""
"","image-keyboard-response","74","109819","0.0-74.0","3HHRAGRYX9RED2X70WPM84MM45RO95","A2R75YFKVALBXE","3XT3KXP24ZKFDDMCDS43FE3AU9W6IW","","471.90000000596046","img/food5.png","76","472.6000000089407","3","1","1","1","1,0.5,0,1,0.5,0,0.5,0,1","0.5,0,1,0.5,0,1,0,1,0.5","2","",""
"","html-keyboard-response","75","110125","0.0-75.0","3HHRAGRYX9RED2X70WPM84MM45RO95","A2R75YFKVALBXE","3XT3KXP24ZKFDDMCDS43FE3AU9W6IW","","null","<img src=""img/food5.png"" style=""width:200px; border:14px solid green;"">","null","","","","","","","","","",""
"","image-keyboard-response","76","110515","0.0-76.0","3HHRAGRYX9RED2X70WPM84MM45RO95","A2R75YFKVALBXE","3XT3KXP24ZKFDDMCDS43FE3AU9W6IW","","388.5","img/food5.png","76","389.5","3","1","1","1","1,0.5,0,1,0.5,0,0.5,0,1","0.5,0,1,0.5,0,1,0,1,0.5","2","",""
"","html-keyboard-response","77","110820","0.0-77.0","3HHRAGRYX9RED2X70WPM84MM45RO95","A2R75YFKVALBXE","3XT3KXP24ZKFDDMCDS43FE3AU9W6IW","","null","<img src=""img/food5.png"" style=""width:200px; border:14px solid green;"">","null","","","","","","","","","",""
"","image-keyboard-response","78","111714","0.0-78.0","3HHRAGRYX9RED2X70WPM84MM45RO95","A2R75YFKVALBXE","3XT3KXP24ZKFDDMCDS43FE3AU9W6IW","","892.7999999970198","img/food2.png","75","893.5","2","0","2","1","1,0.5,0,1,0.5,0,0.5,0,1","0.5,0,1,0.5,0,1,0,1,0.5","2","",""
"","html-keyboard-response","79","112019","0.0-79.0","3HHRAGRYX9RED2X70WPM84MM45RO95","A2R75YFKVALBXE","3XT3KXP24ZKFDDMCDS43FE3AU9W6IW","","null","<img src=""img/food2.png"" style=""width:200px;border:14px solid red;"">","null","","","","","","","","","",""
"","image-keyboard-response","80","112458","0.0-80.0","3HHRAGRYX9RED2X70WPM84MM45RO95","A2R75YFKVALBXE","3XT3KXP24ZKFDDMCDS43FE3AU9W6IW","","438.1000000089407","img/food6.png","76","439","3","0","3","1","1,0.5,0,1,0.5,0,0.5,0,1","0.5,0,1,0.5,0,1,0,1,0.5","2","",""
"","html-keyboard-response","81","112765","0.0-81.0","3HHRAGRYX9RED2X70WPM84MM45RO95","A2R75YFKVALBXE","3XT3KXP24ZKFDDMCDS43FE3AU9W6IW","","null","<img src=""img/food6.png"" style=""width:200px;border:14px solid red;"">","null","","","","","","","","","",""
"","image-keyboard-response","82","113283","0.0-82.0","3HHRAGRYX9RED2X70WPM84MM45RO95","A2R75YFKVALBXE","3XT3KXP24ZKFDDMCDS43FE3AU9W6IW","","516.9000000059605","img/food2.png","74","517.7999999970198","1","0","2","1","1,0.5,0,1,0.5,0,0.5,0,1","0.5,0,1,0.5,0,1,0,1,0.5","2","",""
"","html-keyboard-response","83","113586","0.0-83.0","3HHRAGRYX9RED2X70WPM84MM45RO95","A2R75YFKVALBXE","3XT3KXP24ZKFDDMCDS43FE3AU9W6IW","","null","<img src=""img/food2.png"" style=""width:200px;border:14px solid red;"">","null","","","","","","","","","",""
"","image-keyboard-response","84","114139","0.0-84.0","3HHRAGRYX9RED2X70WPM84MM45RO95","A2R75YFKVALBXE","3XT3KXP24ZKFDDMCDS43FE3AU9W6IW","","551.7999999970198","img/food6.png","75","552.7000000029802","2","1","3","1","1,0.5,0,1,0.5,0,0.5,0,1","0.5,0,1,0.5,0,1,0,1,0.5","2","",""
"","html-keyboard-response","85","114444","0.0-85.0","3HHRAGRYX9RED2X70WPM84MM45RO95","A2R75YFKVALBXE","3XT3KXP24ZKFDDMCDS43FE3AU9W6IW","","null","<img src=""img/food6.png"" style=""width:200px; border:14px solid green;"">","null","","","","","","","","","",""
"","image-keyboard-response","86","114947","0.0-86.0","3HHRAGRYX9RED2X70WPM84MM45RO95","A2R75YFKVALBXE","3XT3KXP24ZKFDDMCDS43FE3AU9W6IW","","501.59999999403954","img/food6.png","75","502.59999999403954","2","1","3","1","1,0.5,0,1,0.5,0,0.5,0,1","0.5,0,1,0.5,0,1,0,1,0.5","2","",""
"","html-keyboard-response","87","115252","0.0-87.0","3HHRAGRYX9RED2X70WPM84MM45RO95","A2R75YFKVALBXE","3XT3KXP24ZKFDDMCDS43FE3AU9W6IW","","null","<img src=""img/food6.png"" style=""width:200px; border:14px solid green;"">","null","","","","","","","","","",""
"","image-keyboard-response","88","115667","0.0-88.0","3HHRAGRYX9RED2X70WPM84MM45RO95","A2R75YFKVALBXE","3XT3KXP24ZKFDDMCDS43FE3AU9W6IW","","413.29999999701977","img/food6.png","75","414.3999999910593","2","1","3","1","1,0.5,0,1,0.5,0,0.5,0,1","0.5,0,1,0.5,0,1,0,1,0.5","2","",""
"","html-keyboard-response","89","115969","0.0-89.0","3HHRAGRYX9RED2X70WPM84MM45RO95","A2R75YFKVALBXE","3XT3KXP24ZKFDDMCDS43FE3AU9W6IW","","null","<img src=""img/food6.png"" style=""width:200px; border:14px solid green;"">","null","","","","","","","","","",""
"","image-keyboard-response","90","116955","0.0-90.0","3HHRAGRYX9RED2X70WPM84MM45RO95","A2R75YFKVALBXE","3XT3KXP24ZKFDDMCDS43FE3AU9W6IW","","984.7999999970198","img/food5.png","76","985.7000000029802","3","1","1","1","1,0.5,0,1,0.5,0,0.5,0,1","0.5,0,1,0.5,0,1,0,1,0.5","2","",""
"","html-keyboard-response","91","117261","0.0-91.0","3HHRAGRYX9RED2X70WPM84MM45RO95","A2R75YFKVALBXE","3XT3KXP24ZKFDDMCDS43FE3AU9W6IW","","null","<img src=""img/food5.png"" style=""width:200px; border:14px solid green;"">","null","","","","","","","","","",""
"","image-keyboard-response","92","117675","0.0-92.0","3HHRAGRYX9RED2X70WPM84MM45RO95","A2R75YFKVALBXE","3XT3KXP24ZKFDDMCDS43FE3AU9W6IW","","413.3999999910593","img/food5.png","76","414.20000000298023","3","1","1","1","1,0.5,0,1,0.5,0,0.5,0,1","0.5,0,1,0.5,0,1,0,1,0.5","2","",""
"","html-keyboard-response","93","117979","0.0-93.0","3HHRAGRYX9RED2X70WPM84MM45RO95","A2R75YFKVALBXE","3XT3KXP24ZKFDDMCDS43FE3AU9W6IW","","null","<img src=""img/food5.png"" style=""width:200px; border:14px solid green;"">","null","","","","","","","","","",""
"","image-keyboard-response","94","118355","0.0-94.0","3HHRAGRYX9RED2X70WPM84MM45RO95","A2R75YFKVALBXE","3XT3KXP24ZKFDDMCDS43FE3AU9W6IW","","374.90000000596046","img/food5.png","76","375.79999999701977","3","1","1","1","1,0.5,0,1,0.5,0,0.5,0,1","0.5,0,1,0.5,0,1,0,1,0.5","2","",""
"","html-keyboard-response","95","118658","0.0-95.0","3HHRAGRYX9RED2X70WPM84MM45RO95","A2R75YFKVALBXE","3XT3KXP24ZKFDDMCDS43FE3AU9W6IW","","null","<img src=""img/food5.png"" style=""width:200px; border:14px solid green;"">","null","","","","","","","","","",""
"","image-keyboard-response","96","119459","0.0-96.0","3HHRAGRYX9RED2X70WPM84MM45RO95","A2R75YFKVALBXE","3XT3KXP24ZKFDDMCDS43FE3AU9W6IW","","799.5","img/food6.png","75","800.2999999970198","2","1","3","1","1,0.5,0,1,0.5,0,0.5,0,1","0.5,0,1,0.5,0,1,0,1,0.5","2","",""
"","html-keyboard-response","97","119762","0.0-97.0","3HHRAGRYX9RED2X70WPM84MM45RO95","A2R75YFKVALBXE","3XT3KXP24ZKFDDMCDS43FE3AU9W6IW","","null","<img src=""img/food6.png"" style=""width:200px; border:14px solid green;"">","null","","","","","","","","","",""
"","image-keyboard-response","98","120187","0.0-98.0","3HHRAGRYX9RED2X70WPM84MM45RO95","A2R75YFKVALBXE","3XT3KXP24ZKFDDMCDS43FE3AU9W6IW","","423.6000000089407","img/food6.png","75","424.5","2","1","3","1","1,0.5,0,1,0.5,0,0.5,0,1","0.5,0,1,0.5,0,1,0,1,0.5","2","",""
"","html-keyboard-response","99","120490","0.0-99.0","3HHRAGRYX9RED2X70WPM84MM45RO95","A2R75YFKVALBXE","3XT3KXP24ZKFDDMCDS43FE3AU9W6IW","","null","<img src=""img/food6.png"" style=""width:200px; border:14px solid green;"">","null","","","","","","","","","",""
"","image-keyboard-response","100","121355","0.0-100.0","3HHRAGRYX9RED2X70WPM84MM45RO95","A2R75YFKVALBXE","3XT3KXP24ZKFDDMCDS43FE3AU9W6IW","","863.8999999910593","img/food2.png","76","864.6999999880791","3","1","2","1","1,0.5,0,1,0.5,0,0.5,0,1","0.5,0,1,0.5,0,1,0,1,0.5","2","",""
"","html-keyboard-response","101","121661","0.0-101.0","3HHRAGRYX9RED2X70WPM84MM45RO95","A2R75YFKVALBXE","3XT3KXP24ZKFDDMCDS43FE3AU9W6IW","","null","<img src=""img/food2.png"" style=""width:200px; border:14px solid green;"">","null","","","","","","","","","",""
"","image-keyboard-response","102","122139","0.0-102.0","3HHRAGRYX9RED2X70WPM84MM45RO95","A2R75YFKVALBXE","3XT3KXP24ZKFDDMCDS43FE3AU9W6IW","","477.20000000298023","img/food6.png","76","478","3","0","3","1","1,0.5,0,1,0.5,0,0.5,0,1","0.5,0,1,0.5,0,1,0,1,0.5","2","",""
"","html-keyboard-response","103","122443","0.0-103.0","3HHRAGRYX9RED2X70WPM84MM45RO95","A2R75YFKVALBXE","3XT3KXP24ZKFDDMCDS43FE3AU9W6IW","","null","<img src=""img/food6.png"" style=""width:200px;border:14px solid red;"">","null","","","","","","","","","",""
"","image-keyboard-response","104","122810","0.0-104.0","3HHRAGRYX9RED2X70WPM84MM45RO95","A2R75YFKVALBXE","3XT3KXP24ZKFDDMCDS43FE3AU9W6IW","","366","img/food2.png","75","366.80000001192093","2","0","2","1","1,0.5,0,1,0.5,0,0.5,0,1","0.5,0,1,0.5,0,1,0,1,0.5","2","",""
"","html-keyboard-response","105","123117","0.0-105.0","3HHRAGRYX9RED2X70WPM84MM45RO95","A2R75YFKVALBXE","3XT3KXP24ZKFDDMCDS43FE3AU9W6IW","","null","<img src=""img/food2.png"" style=""width:200px;border:14px solid red;"">","null","","","","","","","","","",""
"","image-keyboard-response","106","124163","0.0-106.0","3HHRAGRYX9RED2X70WPM84MM45RO95","A2R75YFKVALBXE","3XT3KXP24ZKFDDMCDS43FE3AU9W6IW","","1044.7000000029802","img/food2.png","76","1045.5","3","1","2","1","1,0.5,0,1,0.5,0,0.5,0,1","0.5,0,1,0.5,0,1,0,1,0.5","2","",""
"","html-keyboard-response","107","124466","0.0-107.0","3HHRAGRYX9RED2X70WPM84MM45RO95","A2R75YFKVALBXE","3XT3KXP24ZKFDDMCDS43FE3AU9W6IW","","null","<img src=""img/food2.png"" style=""width:200px; border:14px solid green;"">","null","","","","","","","","","",""
"","image-keyboard-response","108","125408","0.0-108.0","3HHRAGRYX9RED2X70WPM84MM45RO95","A2R75YFKVALBXE","3XT3KXP24ZKFDDMCDS43FE3AU9W6IW","","941.2999999970198","img/food6.png","75","942","2","1","3","1","1,0.5,0,1,0.5,0,0.5,0,1","0.5,0,1,0.5,0,1,0,1,0.5","2","",""
"","html-keyboard-response","109","125714","0.0-109.0","3HHRAGRYX9RED2X70WPM84MM45RO95","A2R75YFKVALBXE","3XT3KXP24ZKFDDMCDS43FE3AU9W6IW","","null","<img src=""img/food6.png"" style=""width:200px; border:14px solid green;"">","null","","","","","","","","","",""
"","image-keyboard-response","110","126187","0.0-110.0","3HHRAGRYX9RED2X70WPM84MM45RO95","A2R75YFKVALBXE","3XT3KXP24ZKFDDMCDS43FE3AU9W6IW","","471.59999999403954","img/food6.png","75","472.3999999910593","2","1","3","1","1,0.5,0,1,0.5,0,0.5,0,1","0.5,0,1,0.5,0,1,0,1,0.5","2","",""
"","html-keyboard-response","111","126493","0.0-111.0","3HHRAGRYX9RED2X70WPM84MM45RO95","A2R75YFKVALBXE","3XT3KXP24ZKFDDMCDS43FE3AU9W6IW","","null","<img src=""img/food6.png"" style=""width:200px; border:14px solid green;"">","null","","","","","","","","","",""
"","image-keyboard-response","112","127891","0.0-112.0","3HHRAGRYX9RED2X70WPM84MM45RO95","A2R75YFKVALBXE","3XT3KXP24ZKFDDMCDS43FE3AU9W6IW","","1397.2000000029802","img/food5.png","76","1398","3","1","1","1","1,0.5,0,1,0.5,0,0.5,0,1","0.5,0,1,0.5,0,1,0,1,0.5","2","",""
"","html-keyboard-response","113","128196","0.0-113.0","3HHRAGRYX9RED2X70WPM84MM45RO95","A2R75YFKVALBXE","3XT3KXP24ZKFDDMCDS43FE3AU9W6IW","","null","<img src=""img/food5.png"" style=""width:200px; border:14px solid green;"">","null","","","","","","","","","",""
"","image-keyboard-response","114","128578","0.0-114.0","3HHRAGRYX9RED2X70WPM84MM45RO95","A2R75YFKVALBXE","3XT3KXP24ZKFDDMCDS43FE3AU9W6IW","","380.59999999403954","img/food5.png","76","381.3999999910593","3","1","1","1","1,0.5,0,1,0.5,0,0.5,0,1","0.5,0,1,0.5,0,1,0,1,0.5","2","",""
"","html-keyboard-response","115","128882","0.0-115.0","3HHRAGRYX9RED2X70WPM84MM45RO95","A2R75YFKVALBXE","3XT3KXP24ZKFDDMCDS43FE3AU9W6IW","","null","<img src=""img/food5.png"" style=""width:200px; border:14px solid green;"">","null","","","","","","","","","",""
"","image-keyboard-response","116","129699","0.0-116.0","3HHRAGRYX9RED2X70WPM84MM45RO95","A2R75YFKVALBXE","3XT3KXP24ZKFDDMCDS43FE3AU9W6IW","","815.7000000029802","img/food6.png","75","816.5","2","1","3","1","1,0.5,0,1,0.5,0,0.5,0,1","0.5,0,1,0.5,0,1,0,1,0.5","2","",""
"","html-keyboard-response","117","130002","0.0-117.0","3HHRAGRYX9RED2X70WPM84MM45RO95","A2R75YFKVALBXE","3XT3KXP24ZKFDDMCDS43FE3AU9W6IW","","null","<img src=""img/food6.png"" style=""width:200px; border:14px solid green;"">","null","","","","","","","","","",""
"","image-keyboard-response","118","130466","0.0-118.0","3HHRAGRYX9RED2X70WPM84MM45RO95","A2R75YFKVALBXE","3XT3KXP24ZKFDDMCDS43FE3AU9W6IW","","462.6000000089407","img/food6.png","75","463.3999999910593","2","1","3","1","1,0.5,0,1,0.5,0,0.5,0,1","0.5,0,1,0.5,0,1,0,1,0.5","2","",""
"","html-keyboard-response","119","130768","0.0-119.0","3HHRAGRYX9RED2X70WPM84MM45RO95","A2R75YFKVALBXE","3XT3KXP24ZKFDDMCDS43FE3AU9W6IW","","null","<img src=""img/food6.png"" style=""width:200px; border:14px solid green;"">","null","","","","","","","","","",""
"","image-keyboard-response","120","131227","0.0-120.0","3HHRAGRYX9RED2X70WPM84MM45RO95","A2R75YFKVALBXE","3XT3KXP24ZKFDDMCDS43FE3AU9W6IW","","457.29999999701977","img/food6.png","75","458.09999999403954","2","1","3","1","1,0.5,0,1,0.5,0,0.5,0,1","0.5,0,1,0.5,0,1,0,1,0.5","2","",""
"","html-keyboard-response","121","131533","0.0-121.0","3HHRAGRYX9RED2X70WPM84MM45RO95","A2R75YFKVALBXE","3XT3KXP24ZKFDDMCDS43FE3AU9W6IW","","null","<img src=""img/food6.png"" style=""width:200px; border:14px solid green;"">","null","","","","","","","","","",""
"","image-keyboard-response","122","132003","0.0-122.0","3HHRAGRYX9RED2X70WPM84MM45RO95","A2R75YFKVALBXE","3XT3KXP24ZKFDDMCDS43FE3AU9W6IW","","468.90000000596046","img/food6.png","75","469.79999999701977","2","1","3","1","1,0.5,0,1,0.5,0,0.5,0,1","0.5,0,1,0.5,0,1,0,1,0.5","2","",""
"","html-keyboard-response","123","132306","0.0-123.0","3HHRAGRYX9RED2X70WPM84MM45RO95","A2R75YFKVALBXE","3XT3KXP24ZKFDDMCDS43FE3AU9W6IW","","null","<img src=""img/food6.png"" style=""width:200px; border:14px solid green;"">","null","","","","","","","","","",""
"","image-keyboard-response","124","132947","0.0-124.0","3HHRAGRYX9RED2X70WPM84MM45RO95","A2R75YFKVALBXE","3XT3KXP24ZKFDDMCDS43FE3AU9W6IW","","639.7000000029802","img/food2.png","76","640.4000000059605","3","1","2","1","1,0.5,0,1,0.5,0,0.5,0,1","0.5,0,1,0.5,0,1,0,1,0.5","2","",""
"","html-keyboard-response","125","133250","0.0-125.0","3HHRAGRYX9RED2X70WPM84MM45RO95","A2R75YFKVALBXE","3XT3KXP24ZKFDDMCDS43FE3AU9W6IW","","null","<img src=""img/food2.png"" style=""width:200px; border:14px solid green;"">","null","","","","","","","","","",""
"","image-keyboard-response","126","133699","0.0-126.0","3HHRAGRYX9RED2X70WPM84MM45RO95","A2R75YFKVALBXE","3XT3KXP24ZKFDDMCDS43FE3AU9W6IW","","447.5","img/food5.png","76","448.40000000596046","3","1","1","1","1,0.5,0,1,0.5,0,0.5,0,1","0.5,0,1,0.5,0,1,0,1,0.5","2","",""
"","html-keyboard-response","127","134002","0.0-127.0","3HHRAGRYX9RED2X70WPM84MM45RO95","A2R75YFKVALBXE","3XT3KXP24ZKFDDMCDS43FE3AU9W6IW","","null","<img src=""img/food5.png"" style=""width:200px; border:14px solid green;"">","null","","","","","","","","","",""
"","image-keyboard-response","128","134562","0.0-128.0","3HHRAGRYX9RED2X70WPM84MM45RO95","A2R75YFKVALBXE","3XT3KXP24ZKFDDMCDS43FE3AU9W6IW","","559.5999999940395","img/food2.png","75","560.3999999910593","2","0","2","1","1,0.5,0,1,0.5,0,0.5,0,1","0.5,0,1,0.5,0,1,0,1,0.5","2","",""
"","html-keyboard-response","129","134865","0.0-129.0","3HHRAGRYX9RED2X70WPM84MM45RO95","A2R75YFKVALBXE","3XT3KXP24ZKFDDMCDS43FE3AU9W6IW","","null","<img src=""img/food2.png"" style=""width:200px;border:14px solid red;"">","null","","","","","","","","","",""
"","image-keyboard-response","130","135522","0.0-130.0","3HHRAGRYX9RED2X70WPM84MM45RO95","A2R75YFKVALBXE","3XT3KXP24ZKFDDMCDS43FE3AU9W6IW","","656.5","img/food6.png","74","657.3999999910593","1","0","3","1","1,0.5,0,1,0.5,0,0.5,0,1","0.5,0,1,0.5,0,1,0,1,0.5","2","",""
"","html-keyboard-response","131","135829","0.0-131.0","3HHRAGRYX9RED2X70WPM84MM45RO95","A2R75YFKVALBXE","3XT3KXP24ZKFDDMCDS43FE3AU9W6IW","","null","<img src=""img/food6.png"" style=""width:200px;border:14px solid red;"">","null","","","","","","","","","",""
"","image-keyboard-response","132","136578","0.0-132.0","3HHRAGRYX9RED2X70WPM84MM45RO95","A2R75YFKVALBXE","3XT3KXP24ZKFDDMCDS43FE3AU9W6IW","","748.2999999970198","img/food6.png","75","749.1999999880791","2","1","3","1","1,0.5,0,1,0.5,0,0.5,0,1","0.5,0,1,0.5,0,1,0,1,0.5","2","",""
"","html-keyboard-response","133","136881","0.0-133.0","3HHRAGRYX9RED2X70WPM84MM45RO95","A2R75YFKVALBXE","3XT3KXP24ZKFDDMCDS43FE3AU9W6IW","","null","<img src=""img/food6.png"" style=""width:200px; border:14px solid green;"">","null","","","","","","","","","",""
"","image-keyboard-response","134","137874","0.0-134.0","3HHRAGRYX9RED2X70WPM84MM45RO95","A2R75YFKVALBXE","3XT3KXP24ZKFDDMCDS43FE3AU9W6IW","","993","img/food2.png","76","993.5999999940395","3","1","2","1","1,0.5,0,1,0.5,0,0.5,0,1","0.5,0,1,0.5,0,1,0,1,0.5","2","",""
"","html-keyboard-response","135","138177","0.0-135.0","3HHRAGRYX9RED2X70WPM84MM45RO95","A2R75YFKVALBXE","3XT3KXP24ZKFDDMCDS43FE3AU9W6IW","","null","<img src=""img/food2.png"" style=""width:200px; border:14px solid green;"">","null","","","","","","","","","",""
"","image-keyboard-response","136","138898","0.0-136.0","3HHRAGRYX9RED2X70WPM84MM45RO95","A2R75YFKVALBXE","3XT3KXP24ZKFDDMCDS43FE3AU9W6IW","","719.4000000059605","img/food6.png","75","720","2","1","3","1","1,0.5,0,1,0.5,0,0.5,0,1","0.5,0,1,0.5,0,1,0,1,0.5","2","",""
"","html-keyboard-response","137","139199","0.0-137.0","3HHRAGRYX9RED2X70WPM84MM45RO95","A2R75YFKVALBXE","3XT3KXP24ZKFDDMCDS43FE3AU9W6IW","","null","<img src=""img/food6.png"" style=""width:200px; border:14px solid green;"">","null","","","","","","","","","",""
"","image-keyboard-response","138","139762","0.0-138.0","3HHRAGRYX9RED2X70WPM84MM45RO95","A2R75YFKVALBXE","3XT3KXP24ZKFDDMCDS43FE3AU9W6IW","","562.1000000089407","img/food2.png","76","562.9000000059605","3","1","2","1","1,0.5,0,1,0.5,0,0.5,0,1","0.5,0,1,0.5,0,1,0,1,0.5","2","",""
"","html-keyboard-response","139","140066","0.0-139.0","3HHRAGRYX9RED2X70WPM84MM45RO95","A2R75YFKVALBXE","3XT3KXP24ZKFDDMCDS43FE3AU9W6IW","","null","<img src=""img/food2.png"" style=""width:200px; border:14px solid green;"">","null","","","","","","","","","",""
"","image-keyboard-response","140","140698","0.0-140.0","3HHRAGRYX9RED2X70WPM84MM45RO95","A2R75YFKVALBXE","3XT3KXP24ZKFDDMCDS43FE3AU9W6IW","","631.3000000119209","img/food6.png","75","632.1000000089407","2","1","3","1","1,0.5,0,1,0.5,0,0.5,0,1","0.5,0,1,0.5,0,1,0,1,0.5","2","",""
"","html-keyboard-response","141","141004","0.0-141.0","3HHRAGRYX9RED2X70WPM84MM45RO95","A2R75YFKVALBXE","3XT3KXP24ZKFDDMCDS43FE3AU9W6IW","","null","<img src=""img/food6.png"" style=""width:200px; border:14px solid green;"">","null","","","","","","","","","",""
"","image-keyboard-response","142","141905","0.0-142.0","3HHRAGRYX9RED2X70WPM84MM45RO95","A2R75YFKVALBXE","3XT3KXP24ZKFDDMCDS43FE3AU9W6IW","","899.8999999910593","img/food5.png","74","900.7000000029802","1","1","1","1","1,0.5,0,1,0.5,0,0.5,0,1","0.5,0,1,0.5,0,1,0,1,0.5","2","",""
"","html-keyboard-response","143","142207","0.0-143.0","3HHRAGRYX9RED2X70WPM84MM45RO95","A2R75YFKVALBXE","3XT3KXP24ZKFDDMCDS43FE3AU9W6IW","","null","<img src=""img/food5.png"" style=""width:200px; border:14px solid green;"">","null","","","","","","","","","",""
"","image-keyboard-response","144","142898","0.0-144.0","3HHRAGRYX9RED2X70WPM84MM45RO95","A2R75YFKVALBXE","3XT3KXP24ZKFDDMCDS43FE3AU9W6IW","","690.0999999940395","img/food5.png","74","690.9000000059605","1","1","1","1","1,0.5,0,1,0.5,0,0.5,0,1","0.5,0,1,0.5,0,1,0,1,0.5","2","",""
"","html-keyboard-response","145","143204","0.0-145.0","3HHRAGRYX9RED2X70WPM84MM45RO95","A2R75YFKVALBXE","3XT3KXP24ZKFDDMCDS43FE3AU9W6IW","","null","<img src=""img/food5.png"" style=""width:200px; border:14px solid green;"">","null","","","","","","","","","",""
"","image-keyboard-response","146","143682","0.0-146.0","3HHRAGRYX9RED2X70WPM84MM45RO95","A2R75YFKVALBXE","3XT3KXP24ZKFDDMCDS43FE3AU9W6IW","","476.70000000298023","img/food5.png","74","477.3999999910593","1","0","1","1","1,0.5,0,1,0.5,0,0.5,0,1","0.5,0,1,0.5,0,1,0,1,0.5","2","",""
"","html-keyboard-response","147","143983","0.0-147.0","3HHRAGRYX9RED2X70WPM84MM45RO95","A2R75YFKVALBXE","3XT3KXP24ZKFDDMCDS43FE3AU9W6IW","","null","<img src=""img/food5.png"" style=""width:200px;border:14px solid red;"">","null","","","","","","","","","",""
"","image-keyboard-response","148","145314","0.0-148.0","3HHRAGRYX9RED2X70WPM84MM45RO95","A2R75YFKVALBXE","3XT3KXP24ZKFDDMCDS43FE3AU9W6IW","","1329.9000000059605","img/food2.png","76","1330.7000000029802","3","1","2","1","1,0.5,0,1,0.5,0,0.5,0,1","0.5,0,1,0.5,0,1,0,1,0.5","2","",""
"","html-keyboard-response","149","145620","0.0-149.0","3HHRAGRYX9RED2X70WPM84MM45RO95","A2R75YFKVALBXE","3XT3KXP24ZKFDDMCDS43FE3AU9W6IW","","null","<img src=""img/food2.png"" style=""width:200px; border:14px solid green;"">","null","","","","","","","","","",""
"","image-keyboard-response","150","146729","0.0-150.0","3HHRAGRYX9RED2X70WPM84MM45RO95","A2R75YFKVALBXE","3XT3KXP24ZKFDDMCDS43FE3AU9W6IW","","1108.7999999970198","img/food5.png","74","1109.5999999940395","1","1","1","1","1,0.5,0,1,0.5,0,0.5,0,1","0.5,0,1,0.5,0,1,0,1,0.5","2","",""
"","html-keyboard-response","151","147032","0.0-151.0","3HHRAGRYX9RED2X70WPM84MM45RO95","A2R75YFKVALBXE","3XT3KXP24ZKFDDMCDS43FE3AU9W6IW","","null","<img src=""img/food5.png"" style=""width:200px; border:14px solid green;"">","null","","","","","","","","","",""
"","image-keyboard-response","152","147845","0.0-152.0","3HHRAGRYX9RED2X70WPM84MM45RO95","A2R75YFKVALBXE","3XT3KXP24ZKFDDMCDS43FE3AU9W6IW","","811.4000000059605","img/food2.png","76","812.2000000029802","3","1","2","1","1,0.5,0,1,0.5,0,0.5,0,1","0.5,0,1,0.5,0,1,0,1,0.5","2","",""
"","html-keyboard-response","153","148150","0.0-153.0","3HHRAGRYX9RED2X70WPM84MM45RO95","A2R75YFKVALBXE","3XT3KXP24ZKFDDMCDS43FE3AU9W6IW","","null","<img src=""img/food2.png"" style=""width:200px; border:14px solid green;"">","null","","","","","","","","","",""
"","image-keyboard-response","154","148746","0.0-154.0","3HHRAGRYX9RED2X70WPM84MM45RO95","A2R75YFKVALBXE","3XT3KXP24ZKFDDMCDS43FE3AU9W6IW","","595.2999999970198","img/food2.png","76","596.2000000029802","3","1","2","1","1,0.5,0,1,0.5,0,0.5,0,1","0.5,0,1,0.5,0,1,0,1,0.5","2","",""
"","html-keyboard-response","155","149052","0.0-155.0","3HHRAGRYX9RED2X70WPM84MM45RO95","A2R75YFKVALBXE","3XT3KXP24ZKFDDMCDS43FE3AU9W6IW","","null","<img src=""img/food2.png"" style=""width:200px; border:14px solid green;"">","null","","","","","","","","","",""
"","image-keyboard-response","156","149946","0.0-156.0","3HHRAGRYX9RED2X70WPM84MM45RO95","A2R75YFKVALBXE","3XT3KXP24ZKFDDMCDS43FE3AU9W6IW","","892.2999999970198","img/food6.png","75","893.1999999880791","2","1","3","1","1,0.5,0,1,0.5,0,0.5,0,1","0.5,0,1,0.5,0,1,0,1,0.5","2","",""
"","html-keyboard-response","157","150248","0.0-157.0","3HHRAGRYX9RED2X70WPM84MM45RO95","A2R75YFKVALBXE","3XT3KXP24ZKFDDMCDS43FE3AU9W6IW","","null","<img src=""img/food6.png"" style=""width:200px; border:14px solid green;"">","null","","","","","","","","","",""
"","image-keyboard-response","158","150898","0.0-158.0","3HHRAGRYX9RED2X70WPM84MM45RO95","A2R75YFKVALBXE","3XT3KXP24ZKFDDMCDS43FE3AU9W6IW","","648.5","img/food2.png","76","649.5","3","1","2","1","1,0.5,0,1,0.5,0,0.5,0,1","0.5,0,1,0.5,0,1,0,1,0.5","2","",""
"","html-keyboard-response","159","151200","0.0-159.0","3HHRAGRYX9RED2X70WPM84MM45RO95","A2R75YFKVALBXE","3XT3KXP24ZKFDDMCDS43FE3AU9W6IW","","null","<img src=""img/food2.png"" style=""width:200px; border:14px solid green;"">","null","","","","","","","","","",""
"","image-keyboard-response","160","151970","0.0-160.0","3HHRAGRYX9RED2X70WPM84MM45RO95","A2R75YFKVALBXE","3XT3KXP24ZKFDDMCDS43FE3AU9W6IW","","769.2999999970198","img/food5.png","74","770.0999999940395","1","1","1","1","1,0.5,0,1,0.5,0,0.5,0,1","0.5,0,1,0.5,0,1,0,1,0.5","2","",""
"","html-keyboard-response","161","152273","0.0-161.0","3HHRAGRYX9RED2X70WPM84MM45RO95","A2R75YFKVALBXE","3XT3KXP24ZKFDDMCDS43FE3AU9W6IW","","null","<img src=""img/food5.png"" style=""width:200px; border:14px solid green;"">","null","","","","","","","","","",""
"","image-keyboard-response","162","152785","0.0-162.0","3HHRAGRYX9RED2X70WPM84MM45RO95","A2R75YFKVALBXE","3XT3KXP24ZKFDDMCDS43FE3AU9W6IW","","511","img/food5.png","74","511.80000001192093","1","1","1","1","1,0.5,0,1,0.5,0,0.5,0,1","0.5,0,1,0.5,0,1,0,1,0.5","2","",""
"","html-keyboard-response","163","153088","0.0-163.0","3HHRAGRYX9RED2X70WPM84MM45RO95","A2R75YFKVALBXE","3XT3KXP24ZKFDDMCDS43FE3AU9W6IW","","null","<img src=""img/food5.png"" style=""width:200px; border:14px solid green;"">","null","","","","","","","","","",""
"","image-keyboard-response","164","153994","0.0-164.0","3HHRAGRYX9RED2X70WPM84MM45RO95","A2R75YFKVALBXE","3XT3KXP24ZKFDDMCDS43FE3AU9W6IW","","904.5","img/food6.png","75","905.5","2","1","3","1","1,0.5,0,1,0.5,0,0.5,0,1","0.5,0,1,0.5,0,1,0,1,0.5","2","",""
"","html-keyboard-response","165","154300","0.0-165.0","3HHRAGRYX9RED2X70WPM84MM45RO95","A2R75YFKVALBXE","3XT3KXP24ZKFDDMCDS43FE3AU9W6IW","","null","<img src=""img/food6.png"" style=""width:200px; border:14px solid green;"">","null","","","","","","","","","",""
"","image-keyboard-response","166","154986","0.0-166.0","3HHRAGRYX9RED2X70WPM84MM45RO95","A2R75YFKVALBXE","3XT3KXP24ZKFDDMCDS43FE3AU9W6IW","","684.7000000029802","img/food5.png","74","685.5","1","0","1","1","1,0.5,0,1,0.5,0,0.5,0,1","0.5,0,1,0.5,0,1,0,1,0.5","2","",""
"","html-keyboard-response","167","155292","0.0-167.0","3HHRAGRYX9RED2X70WPM84MM45RO95","A2R75YFKVALBXE","3XT3KXP24ZKFDDMCDS43FE3AU9W6IW","","null","<img src=""img/food5.png"" style=""width:200px;border:14px solid red;"">","null","","","","","","","","","",""
"","image-keyboard-response","168","155978","0.0-168.0","3HHRAGRYX9RED2X70WPM84MM45RO95","A2R75YFKVALBXE","3XT3KXP24ZKFDDMCDS43FE3AU9W6IW","","684.7999999970198","img/food6.png","74","685.7000000029802","1","0","3","1","1,0.5,0,1,0.5,0,0.5,0,1","0.5,0,1,0.5,0,1,0,1,0.5","2","",""
"","html-keyboard-response","169","156284","0.0-169.0","3HHRAGRYX9RED2X70WPM84MM45RO95","A2R75YFKVALBXE","3XT3KXP24ZKFDDMCDS43FE3AU9W6IW","","null","<img src=""img/food6.png"" style=""width:200px;border:14px solid red;"">","null","","","","","","","","","",""
"","image-keyboard-response","170","157770","0.0-170.0","3HHRAGRYX9RED2X70WPM84MM45RO95","A2R75YFKVALBXE","3XT3KXP24ZKFDDMCDS43FE3AU9W6IW","","1484.9000000059605","img/food5.png","76","1485.9000000059605","3","1","1","1","1,0.5,0,1,0.5,0,0.5,0,1","0.5,0,1,0.5,0,1,0,1,0.5","2","",""
"","html-keyboard-response","171","158073","0.0-171.0","3HHRAGRYX9RED2X70WPM84MM45RO95","A2R75YFKVALBXE","3XT3KXP24ZKFDDMCDS43FE3AU9W6IW","","null","<img src=""img/food5.png"" style=""width:200px; border:14px solid green;"">","null","","","","","","","","","",""
"","image-keyboard-response","172","159058","0.0-172.0","3HHRAGRYX9RED2X70WPM84MM45RO95","A2R75YFKVALBXE","3XT3KXP24ZKFDDMCDS43FE3AU9W6IW","","984.4000000059605","img/food2.png","76","985.2000000029802","3","1","2","1","1,0.5,0,1,0.5,0,0.5,0,1","0.5,0,1,0.5,0,1,0,1,0.5","2","",""
"","html-keyboard-response","173","159362","0.0-173.0","3HHRAGRYX9RED2X70WPM84MM45RO95","A2R75YFKVALBXE","3XT3KXP24ZKFDDMCDS43FE3AU9W6IW","","null","<img src=""img/food2.png"" style=""width:200px; border:14px solid green;"">","null","","","","","","","","","",""
"","image-keyboard-response","174","160507","0.0-174.0","3HHRAGRYX9RED2X70WPM84MM45RO95","A2R75YFKVALBXE","3XT3KXP24ZKFDDMCDS43FE3AU9W6IW","","1143.5999999940395","img/food6.png","75","1144.300000011921","2","1","3","1","1,0.5,0,1,0.5,0,0.5,0,1","0.5,0,1,0.5,0,1,0,1,0.5","2","",""
"","html-keyboard-response","175","160812","0.0-175.0","3HHRAGRYX9RED2X70WPM84MM45RO95","A2R75YFKVALBXE","3XT3KXP24ZKFDDMCDS43FE3AU9W6IW","","null","<img src=""img/food6.png"" style=""width:200px; border:14px solid green;"">","null","","","","","","","","","",""
"","image-keyboard-response","176","161713","0.0-176.0","3HHRAGRYX9RED2X70WPM84MM45RO95","A2R75YFKVALBXE","3XT3KXP24ZKFDDMCDS43FE3AU9W6IW","","899.9000000059605","img/food5.png","76","900.7999999970198","3","1","1","1","1,0.5,0,1,0.5,0,0.5,0,1","0.5,0,1,0.5,0,1,0,1,0.5","2","",""
"","html-keyboard-response","177","162017","0.0-177.0","3HHRAGRYX9RED2X70WPM84MM45RO95","A2R75YFKVALBXE","3XT3KXP24ZKFDDMCDS43FE3AU9W6IW","","null","<img src=""img/food5.png"" style=""width:200px; border:14px solid green;"">","null","","","","","","","","","",""
"","image-keyboard-response","178","162786","0.0-178.0","3HHRAGRYX9RED2X70WPM84MM45RO95","A2R75YFKVALBXE","3XT3KXP24ZKFDDMCDS43FE3AU9W6IW","","767.7999999970198","img/food2.png","75","768.5","2","0","2","1","1,0.5,0,1,0.5,0,0.5,0,1","0.5,0,1,0.5,0,1,0,1,0.5","2","",""
"","html-keyboard-response","179","163089","0.0-179.0","3HHRAGRYX9RED2X70WPM84MM45RO95","A2R75YFKVALBXE","3XT3KXP24ZKFDDMCDS43FE3AU9W6IW","","null","<img src=""img/food2.png"" style=""width:200px;border:14px solid red;"">","null","","","","","","","","","",""
"","image-keyboard-response","180","163681","0.0-180.0","3HHRAGRYX9RED2X70WPM84MM45RO95","A2R75YFKVALBXE","3XT3KXP24ZKFDDMCDS43FE3AU9W6IW","","591.7000000029802","img/food5.png","75","592.3999999910593","2","0","1","1","1,0.5,0,1,0.5,0,0.5,0,1","0.5,0,1,0.5,0,1,0,1,0.5","2","",""
"","html-keyboard-response","181","163984","0.0-181.0","3HHRAGRYX9RED2X70WPM84MM45RO95","A2R75YFKVALBXE","3XT3KXP24ZKFDDMCDS43FE3AU9W6IW","","null","<img src=""img/food5.png"" style=""width:200px;border:14px solid red;"">","null","","","","","","","","","",""
"","html-keyboard-response","182","169050","0.0-182.0","3HHRAGRYX9RED2X70WPM84MM45RO95","A2R75YFKVALBXE","3XT3KXP24ZKFDDMCDS43FE3AU9W6IW","","","","","","","","","","","","","",""
"","instructions","183","185351","0.0-183.0","3HHRAGRYX9RED2X70WPM84MM45RO95","A2R75YFKVALBXE","3XT3KXP24ZKFDDMCDS43FE3AU9W6IW","[{""page_index"":0,""viewing_time"":13105.5},{""page_index"":1,""viewing_time"":3195.0999999940395}]","16300.79999999702","","","","","","","","","","","",""
"","image-keyboard-response","184","186042","0.0-184.0","3HHRAGRYX9RED2X70WPM84MM45RO95","A2R75YFKVALBXE","3XT3KXP24ZKFDDMCDS43FE3AU9W6IW","","689.5999999940395","img/food3.png","74","690.5999999940395","1","0","2","2","1,0.5,0,1,0.5,0,0.5,0,1","0,1,0.5,0,1,0.5,1,0.5,0","3","false",""
"","html-keyboard-response","185","186348","0.0-185.0","3HHRAGRYX9RED2X70WPM84MM45RO95","A2R75YFKVALBXE","3XT3KXP24ZKFDDMCDS43FE3AU9W6IW","","null","<img src=""img/food3.png"" style=""width:200px;border:14px solid red;"">","null","","","","","","","","","",""
"","image-keyboard-response","186","186553","0.0-187.0","3HHRAGRYX9RED2X70WPM84MM45RO95","A2R75YFKVALBXE","3XT3KXP24ZKFDDMCDS43FE3AU9W6IW","","203.29999999701977","img/food3.png","75","204.19999998807907","2","1","2","2","1,0.5,0,1,0.5,0,0.5,0,1","0,1,0.5,0,1,0.5,1,0.5,0","3","false",""
"","html-keyboard-response","187","186857","0.0-188.0","3HHRAGRYX9RED2X70WPM84MM45RO95","A2R75YFKVALBXE","3XT3KXP24ZKFDDMCDS43FE3AU9W6IW","","null","<img src=""img/food3.png"" style=""width:200px; border:14px solid green;"">","null","","","","","","","","","",""
"","image-keyboard-response","188","187145","0.0-190.0","3HHRAGRYX9RED2X70WPM84MM45RO95","A2R75YFKVALBXE","3XT3KXP24ZKFDDMCDS43FE3AU9W6IW","","287.20000000298023","img/food1.png","75","289.3999999910593","2","1","3","2","1,0.5,0,1,0.5,0,0.5,0,1","0,1,0.5,0,1,0.5,1,0.5,0","3","false",""
"","html-keyboard-response","189","187451","0.0-191.0","3HHRAGRYX9RED2X70WPM84MM45RO95","A2R75YFKVALBXE","3XT3KXP24ZKFDDMCDS43FE3AU9W6IW","","null","<img src=""img/food1.png"" style=""width:200px; border:14px solid green;"">","null","","","","","","","","","",""
"","image-keyboard-response","190","187760","0.0-193.0","3HHRAGRYX9RED2X70WPM84MM45RO95","A2R75YFKVALBXE","3XT3KXP24ZKFDDMCDS43FE3AU9W6IW","","307.70000000298023","img/food4.png","75","308.59999999403954","2","1","1","2","1,0.5,0,1,0.5,0,0.5,0,1","0,1,0.5,0,1,0.5,1,0.5,0","3","false",""
"","html-keyboard-response","191","188061","0.0-194.0","3HHRAGRYX9RED2X70WPM84MM45RO95","A2R75YFKVALBXE","3XT3KXP24ZKFDDMCDS43FE3AU9W6IW","","null","<img src=""img/food4.png"" style=""width:200px; border:14px solid green;"">","null","","","","","","","","","",""
"","image-keyboard-response","192","188281","0.0-196.0","3HHRAGRYX9RED2X70WPM84MM45RO95","A2R75YFKVALBXE","3XT3KXP24ZKFDDMCDS43FE3AU9W6IW","","219.1000000089407","img/food3.png","75","219.8999999910593","2","1","2","2","1,0.5,0,1,0.5,0,0.5,0,1","0,1,0.5,0,1,0.5,1,0.5,0","3","false",""
"","html-keyboard-response","193","188586","0.0-197.0","3HHRAGRYX9RED2X70WPM84MM45RO95","A2R75YFKVALBXE","3XT3KXP24ZKFDDMCDS43FE3AU9W6IW","","null","<img src=""img/food3.png"" style=""width:200px; border:14px solid green;"">","null","","","","","","","","","",""
"","image-keyboard-response","194","188776","0.0-199.0","3HHRAGRYX9RED2X70WPM84MM45RO95","A2R75YFKVALBXE","3XT3KXP24ZKFDDMCDS43FE3AU9W6IW","","188.69999998807907","img/food3.png","75","189.29999999701977","2","1","2","2","1,0.5,0,1,0.5,0,0.5,0,1","0,1,0.5,0,1,0.5,1,0.5,0","3","false",""
"","html-keyboard-response","195","189078","0.0-200.0","3HHRAGRYX9RED2X70WPM84MM45RO95","A2R75YFKVALBXE","3XT3KXP24ZKFDDMCDS43FE3AU9W6IW","","null","<img src=""img/food3.png"" style=""width:200px; border:14px solid green;"">","null","","","","","","","","","",""
"","image-keyboard-response","196","189256","0.0-202.0","3HHRAGRYX9RED2X70WPM84MM45RO95","A2R75YFKVALBXE","3XT3KXP24ZKFDDMCDS43FE3AU9W6IW","","177.09999999403954","img/food1.png","75","177.8999999910593","2","1","3","2","1,0.5,0,1,0.5,0,0.5,0,1","0,1,0.5,0,1,0.5,1,0.5,0","3","false",""
"","html-keyboard-response","197","189558","0.0-203.0","3HHRAGRYX9RED2X70WPM84MM45RO95","A2R75YFKVALBXE","3XT3KXP24ZKFDDMCDS43FE3AU9W6IW","","null","<img src=""img/food1.png"" style=""width:200px; border:14px solid green;"">","null","","","","","","","","","",""
"","image-keyboard-response","198","189760","0.0-205.0","3HHRAGRYX9RED2X70WPM84MM45RO95","A2R75YFKVALBXE","3XT3KXP24ZKFDDMCDS43FE3AU9W6IW","","200.6000000089407","img/food1.png","75","201.3999999910593","2","1","3","2","1,0.5,0,1,0.5,0,0.5,0,1","0,1,0.5,0,1,0.5,1,0.5,0","3","false",""
"","html-keyboard-response","199","190063","0.0-206.0","3HHRAGRYX9RED2X70WPM84MM45RO95","A2R75YFKVALBXE","3XT3KXP24ZKFDDMCDS43FE3AU9W6IW","","null","<img src=""img/food1.png"" style=""width:200px; border:14px solid green;"">","null","","","","","","","","","",""
"","image-keyboard-response","200","190224","0.0-208.0","3HHRAGRYX9RED2X70WPM84MM45RO95","A2R75YFKVALBXE","3XT3KXP24ZKFDDMCDS43FE3AU9W6IW","","160","img/food3.png","75","160.8999999910593","2","1","2","2","1,0.5,0,1,0.5,0,0.5,0,1","0,1,0.5,0,1,0.5,1,0.5,0","3","false",""
"","html-keyboard-response","201","190529","0.0-209.0","3HHRAGRYX9RED2X70WPM84MM45RO95","A2R75YFKVALBXE","3XT3KXP24ZKFDDMCDS43FE3AU9W6IW","","null","<img src=""img/food3.png"" style=""width:200px; border:14px solid green;"">","null","","","","","","","","","",""
"","image-keyboard-response","202","190712","0.0-211.0","3HHRAGRYX9RED2X70WPM84MM45RO95","A2R75YFKVALBXE","3XT3KXP24ZKFDDMCDS43FE3AU9W6IW","","181.79999999701977","img/food4.png","75","182.79999999701977","2","1","1","2","1,0.5,0,1,0.5,0,0.5,0,1","0,1,0.5,0,1,0.5,1,0.5,0","3","false",""
"","html-keyboard-response","203","191014","0.0-212.0","3HHRAGRYX9RED2X70WPM84MM45RO95","A2R75YFKVALBXE","3XT3KXP24ZKFDDMCDS43FE3AU9W6IW","","null","<img src=""img/food4.png"" style=""width:200px; border:14px solid green;"">","null","","","","","","","","","",""
"","image-keyboard-response","204","191225","0.0-214.0","3HHRAGRYX9RED2X70WPM84MM45RO95","A2R75YFKVALBXE","3XT3KXP24ZKFDDMCDS43FE3AU9W6IW","","210.3999999910593","img/food3.png","75","211.29999999701977","2","1","2","2","1,0.5,0,1,0.5,0,0.5,0,1","0,1,0.5,0,1,0.5,1,0.5,0","3","false",""
"","html-keyboard-response","205","191531","0.0-215.0","3HHRAGRYX9RED2X70WPM84MM45RO95","A2R75YFKVALBXE","3XT3KXP24ZKFDDMCDS43FE3AU9W6IW","","null","<img src=""img/food3.png"" style=""width:200px; border:14px solid green;"">","null","","","","","","","","","",""
"","image-keyboard-response","206","191689","0.0-217.0","3HHRAGRYX9RED2X70WPM84MM45RO95","A2R75YFKVALBXE","3XT3KXP24ZKFDDMCDS43FE3AU9W6IW","","156.90000000596046","img/food1.png","75","157.79999999701977","2","0","3","2","1,0.5,0,1,0.5,0,0.5,0,1","0,1,0.5,0,1,0.5,1,0.5,0","3","false",""
"","html-keyboard-response","207","191995","0.0-218.0","3HHRAGRYX9RED2X70WPM84MM45RO95","A2R75YFKVALBXE","3XT3KXP24ZKFDDMCDS43FE3AU9W6IW","","null","<img src=""img/food1.png"" style=""width:200px;border:14px solid red;"">","null","","","","","","","","","",""
"","image-keyboard-response","208","192392","0.0-220.0","3HHRAGRYX9RED2X70WPM84MM45RO95","A2R75YFKVALBXE","3XT3KXP24ZKFDDMCDS43FE3AU9W6IW","","395.5","img/food4.png","76","396.40000000596046","3","0","1","2","1,0.5,0,1,0.5,0,0.5,0,1","0,1,0.5,0,1,0.5,1,0.5,0","3","false",""
"","html-keyboard-response","209","192699","0.0-221.0","3HHRAGRYX9RED2X70WPM84MM45RO95","A2R75YFKVALBXE","3XT3KXP24ZKFDDMCDS43FE3AU9W6IW","","null","<img src=""img/food4.png"" style=""width:200px;border:14px solid red;"">","null","","","","","","","","","",""
"","image-keyboard-response","210","192849","0.0-223.0","3HHRAGRYX9RED2X70WPM84MM45RO95","A2R75YFKVALBXE","3XT3KXP24ZKFDDMCDS43FE3AU9W6IW","","149","img/food1.png","75","149.90000000596046","2","1","3","2","1,0.5,0,1,0.5,0,0.5,0,1","0,1,0.5,0,1,0.5,1,0.5,0","3","false",""
"","html-keyboard-response","211","193154","0.0-224.0","3HHRAGRYX9RED2X70WPM84MM45RO95","A2R75YFKVALBXE","3XT3KXP24ZKFDDMCDS43FE3AU9W6IW","","null","<img src=""img/food1.png"" style=""width:200px; border:14px solid green;"">","null","","","","","","","","","",""
"","image-keyboard-response","212","193313","0.0-226.0","3HHRAGRYX9RED2X70WPM84MM45RO95","A2R75YFKVALBXE","3XT3KXP24ZKFDDMCDS43FE3AU9W6IW","","157.8999999910593","img/food1.png","75","158.90000000596046","2","0","3","2","1,0.5,0,1,0.5,0,0.5,0,1","0,1,0.5,0,1,0.5,1,0.5,0","3","false",""
"","html-keyboard-response","213","193616","0.0-227.0","3HHRAGRYX9RED2X70WPM84MM45RO95","A2R75YFKVALBXE","3XT3KXP24ZKFDDMCDS43FE3AU9W6IW","","null","<img src=""img/food1.png"" style=""width:200px;border:14px solid red;"">","null","","","","","","","","","",""
"","image-keyboard-response","214","193801","0.0-229.0","3HHRAGRYX9RED2X70WPM84MM45RO95","A2R75YFKVALBXE","3XT3KXP24ZKFDDMCDS43FE3AU9W6IW","","183.70000000298023","img/food1.png","75","184.5","2","0","3","2","1,0.5,0,1,0.5,0,0.5,0,1","0,1,0.5,0,1,0.5,1,0.5,0","3","false",""
"","html-keyboard-response","215","194104","0.0-230.0","3HHRAGRYX9RED2X70WPM84MM45RO95","A2R75YFKVALBXE","3XT3KXP24ZKFDDMCDS43FE3AU9W6IW","","null","<img src=""img/food1.png"" style=""width:200px;border:14px solid red;"">","null","","","","","","","","","",""
"","image-keyboard-response","216","194240","0.0-232.0","3HHRAGRYX9RED2X70WPM84MM45RO95","A2R75YFKVALBXE","3XT3KXP24ZKFDDMCDS43FE3AU9W6IW","","134.5","img/food3.png","75","135.29999999701977","2","1","2","2","1,0.5,0,1,0.5,0,0.5,0,1","0,1,0.5,0,1,0.5,1,0.5,0","3","false",""
"","html-keyboard-response","217","194544","0.0-233.0","3HHRAGRYX9RED2X70WPM84MM45RO95","A2R75YFKVALBXE","3XT3KXP24ZKFDDMCDS43FE3AU9W6IW","","null","<img src=""img/food3.png"" style=""width:200px; border:14px solid green;"">","null","","","","","","","","","",""
"","image-keyboard-response","218","194689","0.0-235.0","3HHRAGRYX9RED2X70WPM84MM45RO95","A2R75YFKVALBXE","3XT3KXP24ZKFDDMCDS43FE3AU9W6IW","","143.40000000596046","img/food4.png","75","144.29999999701977","2","1","1","2","1,0.5,0,1,0.5,0,0.5,0,1","0,1,0.5,0,1,0.5,1,0.5,0","3","false",""
"","html-keyboard-response","219","194992","0.0-236.0","3HHRAGRYX9RED2X70WPM84MM45RO95","A2R75YFKVALBXE","3XT3KXP24ZKFDDMCDS43FE3AU9W6IW","","null","<img src=""img/food4.png"" style=""width:200px; border:14px solid green;"">","null","","","","","","","","","",""
"","image-keyboard-response","220","195210","0.0-238.0","3HHRAGRYX9RED2X70WPM84MM45RO95","A2R75YFKVALBXE","3XT3KXP24ZKFDDMCDS43FE3AU9W6IW","","216","img/food4.png","75","216.70000000298023","2","1","1","2","1,0.5,0,1,0.5,0,0.5,0,1","0,1,0.5,0,1,0.5,1,0.5,0","3","false",""
"","html-keyboard-response","221","195515","0.0-239.0","3HHRAGRYX9RED2X70WPM84MM45RO95","A2R75YFKVALBXE","3XT3KXP24ZKFDDMCDS43FE3AU9W6IW","","null","<img src=""img/food4.png"" style=""width:200px; border:14px solid green;"">","null","","","","","","","","","",""
"","image-keyboard-response","222","195697","0.0-241.0","3HHRAGRYX9RED2X70WPM84MM45RO95","A2R75YFKVALBXE","3XT3KXP24ZKFDDMCDS43FE3AU9W6IW","","180.70000000298023","img/food4.png","75","181.69999998807907","2","1","1","2","1,0.5,0,1,0.5,0,0.5,0,1","0,1,0.5,0,1,0.5,1,0.5,0","3","false",""
"","html-keyboard-response","223","196000","0.0-242.0","3HHRAGRYX9RED2X70WPM84MM45RO95","A2R75YFKVALBXE","3XT3KXP24ZKFDDMCDS43FE3AU9W6IW","","null","<img src=""img/food4.png"" style=""width:200px; border:14px solid green;"">","null","","","","","","","","","",""
"","image-keyboard-response","224","196137","0.0-244.0","3HHRAGRYX9RED2X70WPM84MM45RO95","A2R75YFKVALBXE","3XT3KXP24ZKFDDMCDS43FE3AU9W6IW","","135.3999999910593","img/food4.png","75","136.40000000596046","2","1","1","2","1,0.5,0,1,0.5,0,0.5,0,1","0,1,0.5,0,1,0.5,1,0.5,0","3","false",""
"","html-keyboard-response","225","196440","0.0-245.0","3HHRAGRYX9RED2X70WPM84MM45RO95","A2R75YFKVALBXE","3XT3KXP24ZKFDDMCDS43FE3AU9W6IW","","null","<img src=""img/food4.png"" style=""width:200px; border:14px solid green;"">","null","","","","","","","","","",""
"","image-keyboard-response","226","196649","0.0-247.0","3HHRAGRYX9RED2X70WPM84MM45RO95","A2R75YFKVALBXE","3XT3KXP24ZKFDDMCDS43FE3AU9W6IW","","207.3999999910593","img/food1.png","75","208.29999999701977","2","1","3","2","1,0.5,0,1,0.5,0,0.5,0,1","0,1,0.5,0,1,0.5,1,0.5,0","3","false",""
"","html-keyboard-response","227","196950","0.0-248.0","3HHRAGRYX9RED2X70WPM84MM45RO95","A2R75YFKVALBXE","3XT3KXP24ZKFDDMCDS43FE3AU9W6IW","","null","<img src=""img/food1.png"" style=""width:200px; border:14px solid green;"">","null","","","","","","","","","",""
"","image-keyboard-response","228","197081","0.0-250.0","3HHRAGRYX9RED2X70WPM84MM45RO95","A2R75YFKVALBXE","3XT3KXP24ZKFDDMCDS43FE3AU9W6IW","","129.70000000298023","img/food3.png","75","130.5","2","1","2","2","1,0.5,0,1,0.5,0,0.5,0,1","0,1,0.5,0,1,0.5,1,0.5,0","3","false",""
"","html-keyboard-response","229","197385","0.0-251.0","3HHRAGRYX9RED2X70WPM84MM45RO95","A2R75YFKVALBXE","3XT3KXP24ZKFDDMCDS43FE3AU9W6IW","","null","<img src=""img/food3.png"" style=""width:200px; border:14px solid green;"">","null","","","","","","","","","",""
"","image-keyboard-response","230","197513","0.0-253.0","3HHRAGRYX9RED2X70WPM84MM45RO95","A2R75YFKVALBXE","3XT3KXP24ZKFDDMCDS43FE3AU9W6IW","","127.20000000298023","img/food1.png","75","128.09999999403954","2","1","3","2","1,0.5,0,1,0.5,0,0.5,0,1","0,1,0.5,0,1,0.5,1,0.5,0","3","false",""
"","html-keyboard-response","231","197819","0.0-254.0","3HHRAGRYX9RED2X70WPM84MM45RO95","A2R75YFKVALBXE","3XT3KXP24ZKFDDMCDS43FE3AU9W6IW","","null","<img src=""img/food1.png"" style=""width:200px; border:14px solid green;"">","null","","","","","","","","","",""
"","image-keyboard-response","232","198025","0.0-256.0","3HHRAGRYX9RED2X70WPM84MM45RO95","A2R75YFKVALBXE","3XT3KXP24ZKFDDMCDS43FE3AU9W6IW","","205","img/food4.png","75","205.79999999701977","2","1","1","2","1,0.5,0,1,0.5,0,0.5,0,1","0,1,0.5,0,1,0.5,1,0.5,0","3","false",""
"","html-keyboard-response","233","198331","0.0-257.0","3HHRAGRYX9RED2X70WPM84MM45RO95","A2R75YFKVALBXE","3XT3KXP24ZKFDDMCDS43FE3AU9W6IW","","null","<img src=""img/food4.png"" style=""width:200px; border:14px solid green;"">","null","","","","","","","","","",""
"","image-keyboard-response","234","198513","0.0-259.0","3HHRAGRYX9RED2X70WPM84MM45RO95","A2R75YFKVALBXE","3XT3KXP24ZKFDDMCDS43FE3AU9W6IW","","180.70000000298023","img/food1.png","75","181.70000000298023","2","1","3","2","1,0.5,0,1,0.5,0,0.5,0,1","0,1,0.5,0,1,0.5,1,0.5,0","3","false",""
"","html-keyboard-response","235","198817","0.0-260.0","3HHRAGRYX9RED2X70WPM84MM45RO95","A2R75YFKVALBXE","3XT3KXP24ZKFDDMCDS43FE3AU9W6IW","","null","<img src=""img/food1.png"" style=""width:200px; border:14px solid green;"">","null","","","","","","","","","",""
"","image-keyboard-response","236","198927","0.0-262.0","3HHRAGRYX9RED2X70WPM84MM45RO95","A2R75YFKVALBXE","3XT3KXP24ZKFDDMCDS43FE3AU9W6IW","","108.8999999910593","img/food4.png","75","109.79999999701977","2","1","1","2","1,0.5,0,1,0.5,0,0.5,0,1","0,1,0.5,0,1,0.5,1,0.5,0","3","false",""
"","html-keyboard-response","237","199234","0.0-263.0","3HHRAGRYX9RED2X70WPM84MM45RO95","A2R75YFKVALBXE","3XT3KXP24ZKFDDMCDS43FE3AU9W6IW","","null","<img src=""img/food4.png"" style=""width:200px; border:14px solid green;"">","null","","","","","","","","","",""
"","image-keyboard-response","238","199417","0.0-265.0","3HHRAGRYX9RED2X70WPM84MM45RO95","A2R75YFKVALBXE","3XT3KXP24ZKFDDMCDS43FE3AU9W6IW","","182.5","img/food3.png","75","183.5","2","1","2","2","1,0.5,0,1,0.5,0,0.5,0,1","0,1,0.5,0,1,0.5,1,0.5,0","3","false",""
"","html-keyboard-response","239","199723","0.0-266.0","3HHRAGRYX9RED2X70WPM84MM45RO95","A2R75YFKVALBXE","3XT3KXP24ZKFDDMCDS43FE3AU9W6IW","","null","<img src=""img/food3.png"" style=""width:200px; border:14px solid green;"">","null","","","","","","","","","",""
"","image-keyboard-response","240","199881","0.0-268.0","3HHRAGRYX9RED2X70WPM84MM45RO95","A2R75YFKVALBXE","3XT3KXP24ZKFDDMCDS43FE3AU9W6IW","","156.90000000596046","img/food4.png","75","157.79999999701977","2","1","1","2","1,0.5,0,1,0.5,0,0.5,0,1","0,1,0.5,0,1,0.5,1,0.5,0","3","false",""
"","html-keyboard-response","241","200187","0.0-269.0","3HHRAGRYX9RED2X70WPM84MM45RO95","A2R75YFKVALBXE","3XT3KXP24ZKFDDMCDS43FE3AU9W6IW","","null","<img src=""img/food4.png"" style=""width:200px; border:14px solid green;"">","null","","","","","","","","","",""
"","image-keyboard-response","242","200313","0.0-271.0","3HHRAGRYX9RED2X70WPM84MM45RO95","A2R75YFKVALBXE","3XT3KXP24ZKFDDMCDS43FE3AU9W6IW","","124.90000000596046","img/food3.png","75","125.70000000298023","2","1","2","2","1,0.5,0,1,0.5,0,0.5,0,1","0,1,0.5,0,1,0.5,1,0.5,0","3","false",""
"","html-keyboard-response","243","200618","0.0-272.0","3HHRAGRYX9RED2X70WPM84MM45RO95","A2R75YFKVALBXE","3XT3KXP24ZKFDDMCDS43FE3AU9W6IW","","null","<img src=""img/food3.png"" style=""width:200px; border:14px solid green;"">","null","","","","","","","","","",""
"","image-keyboard-response","244","200793","0.0-274.0","3HHRAGRYX9RED2X70WPM84MM45RO95","A2R75YFKVALBXE","3XT3KXP24ZKFDDMCDS43FE3AU9W6IW","","173.80000001192093","img/food4.png","75","174.6000000089407","2","1","1","2","1,0.5,0,1,0.5,0,0.5,0,1","0,1,0.5,0,1,0.5,1,0.5,0","3","false",""
"","html-keyboard-response","245","201099","0.0-275.0","3HHRAGRYX9RED2X70WPM84MM45RO95","A2R75YFKVALBXE","3XT3KXP24ZKFDDMCDS43FE3AU9W6IW","","null","<img src=""img/food4.png"" style=""width:200px; border:14px solid green;"">","null","","","","","","","","","",""
"","image-keyboard-response","246","201216","0.0-277.0","3HHRAGRYX9RED2X70WPM84MM45RO95","A2R75YFKVALBXE","3XT3KXP24ZKFDDMCDS43FE3AU9W6IW","","115.79999999701977","img/food4.png","75","116.70000000298023","2","1","1","2","1,0.5,0,1,0.5,0,0.5,0,1","0,1,0.5,0,1,0.5,1,0.5,0","3","false",""
"","html-keyboard-response","247","201519","0.0-278.0","3HHRAGRYX9RED2X70WPM84MM45RO95","A2R75YFKVALBXE","3XT3KXP24ZKFDDMCDS43FE3AU9W6IW","","null","<img src=""img/food4.png"" style=""width:200px; border:14px solid green;"">","null","","","","","","","","","",""
"","image-keyboard-response","248","201673","0.0-280.0","3HHRAGRYX9RED2X70WPM84MM45RO95","A2R75YFKVALBXE","3XT3KXP24ZKFDDMCDS43FE3AU9W6IW","","152.6000000089407","img/food3.png","75","153.59999999403954","2","1","2","2","1,0.5,0,1,0.5,0,0.5,0,1","0,1,0.5,0,1,0.5,1,0.5,0","3","false",""
"","html-keyboard-response","249","201976","0.0-281.0","3HHRAGRYX9RED2X70WPM84MM45RO95","A2R75YFKVALBXE","3XT3KXP24ZKFDDMCDS43FE3AU9W6IW","","null","<img src=""img/food3.png"" style=""width:200px; border:14px solid green;"">","null","","","","","","","","","",""
"","image-keyboard-response","250","202137","0.0-283.0","3HHRAGRYX9RED2X70WPM84MM45RO95","A2R75YFKVALBXE","3XT3KXP24ZKFDDMCDS43FE3AU9W6IW","","159.29999999701977","img/food4.png","75","160.20000000298023","2","1","1","2","1,0.5,0,1,0.5,0,0.5,0,1","0,1,0.5,0,1,0.5,1,0.5,0","3","false",""
"","html-keyboard-response","251","202439","0.0-284.0","3HHRAGRYX9RED2X70WPM84MM45RO95","A2R75YFKVALBXE","3XT3KXP24ZKFDDMCDS43FE3AU9W6IW","","null","<img src=""img/food4.png"" style=""width:200px; border:14px solid green;"">","null","","","","","","","","","",""
"","image-keyboard-response","252","202593","0.0-286.0","3HHRAGRYX9RED2X70WPM84MM45RO95","A2R75YFKVALBXE","3XT3KXP24ZKFDDMCDS43FE3AU9W6IW","","153.20000000298023","img/food4.png","75","153.8999999910593","2","1","1","2","1,0.5,0,1,0.5,0,0.5,0,1","0,1,0.5,0,1,0.5,1,0.5,0","3","false",""
"","html-keyboard-response","253","202896","0.0-287.0","3HHRAGRYX9RED2X70WPM84MM45RO95","A2R75YFKVALBXE","3XT3KXP24ZKFDDMCDS43FE3AU9W6IW","","null","<img src=""img/food4.png"" style=""width:200px; border:14px solid green;"">","null","","","","","","","","","",""
"","image-keyboard-response","254","203025","0.0-289.0","3HHRAGRYX9RED2X70WPM84MM45RO95","A2R75YFKVALBXE","3XT3KXP24ZKFDDMCDS43FE3AU9W6IW","","127.3999999910593","img/food3.png","75","128.29999999701977","2","1","2","2","1,0.5,0,1,0.5,0,0.5,0,1","0,1,0.5,0,1,0.5,1,0.5,0","3","false",""
"","html-keyboard-response","255","203328","0.0-290.0","3HHRAGRYX9RED2X70WPM84MM45RO95","A2R75YFKVALBXE","3XT3KXP24ZKFDDMCDS43FE3AU9W6IW","","null","<img src=""img/food3.png"" style=""width:200px; border:14px solid green;"">","null","","","","","","","","","",""
"","image-keyboard-response","256","203449","0.0-292.0","3HHRAGRYX9RED2X70WPM84MM45RO95","A2R75YFKVALBXE","3XT3KXP24ZKFDDMCDS43FE3AU9W6IW","","119.59999999403954","img/food4.png","75","120.5","2","1","1","2","1,0.5,0,1,0.5,0,0.5,0,1","0,1,0.5,0,1,0.5,1,0.5,0","3","false",""
"","html-keyboard-response","257","203751","0.0-293.0","3HHRAGRYX9RED2X70WPM84MM45RO95","A2R75YFKVALBXE","3XT3KXP24ZKFDDMCDS43FE3AU9W6IW","","null","<img src=""img/food4.png"" style=""width:200px; border:14px solid green;"">","null","","","","","","","","","",""
"","image-keyboard-response","258","203913","0.0-295.0","3HHRAGRYX9RED2X70WPM84MM45RO95","A2R75YFKVALBXE","3XT3KXP24ZKFDDMCDS43FE3AU9W6IW","","160.5","img/food1.png","75","161.40000000596046","2","0","3","2","1,0.5,0,1,0.5,0,0.5,0,1","0,1,0.5,0,1,0.5,1,0.5,0","3","false",""
"","html-keyboard-response","259","204216","0.0-296.0","3HHRAGRYX9RED2X70WPM84MM45RO95","A2R75YFKVALBXE","3XT3KXP24ZKFDDMCDS43FE3AU9W6IW","","null","<img src=""img/food1.png"" style=""width:200px;border:14px solid red;"">","null","","","","","","","","","",""
"","image-keyboard-response","260","204649","0.0-298.0","3HHRAGRYX9RED2X70WPM84MM45RO95","A2R75YFKVALBXE","3XT3KXP24ZKFDDMCDS43FE3AU9W6IW","","431.5","img/food4.png","75","432.40000000596046","2","1","1","2","1,0.5,0,1,0.5,0,0.5,0,1","0,1,0.5,0,1,0.5,1,0.5,0","3","false",""
"","html-keyboard-response","261","204952","0.0-299.0","3HHRAGRYX9RED2X70WPM84MM45RO95","A2R75YFKVALBXE","3XT3KXP24ZKFDDMCDS43FE3AU9W6IW","","null","<img src=""img/food4.png"" style=""width:200px; border:14px solid green;"">","null","","","","","","","","","",""
"","image-keyboard-response","262","205105","0.0-301.0","3HHRAGRYX9RED2X70WPM84MM45RO95","A2R75YFKVALBXE","3XT3KXP24ZKFDDMCDS43FE3AU9W6IW","","152.09999999403954","img/food1.png","75","152.90000000596046","2","0","3","2","1,0.5,0,1,0.5,0,0.5,0,1","0,1,0.5,0,1,0.5,1,0.5,0","3","false",""
"","html-keyboard-response","263","205411","0.0-302.0","3HHRAGRYX9RED2X70WPM84MM45RO95","A2R75YFKVALBXE","3XT3KXP24ZKFDDMCDS43FE3AU9W6IW","","null","<img src=""img/food1.png"" style=""width:200px;border:14px solid red;"">","null","","","","","","","","","",""
"","image-keyboard-response","264","205545","0.0-304.0","3HHRAGRYX9RED2X70WPM84MM45RO95","A2R75YFKVALBXE","3XT3KXP24ZKFDDMCDS43FE3AU9W6IW","","132.5","img/food4.png","75","133.29999999701977","2","1","1","2","1,0.5,0,1,0.5,0,0.5,0,1","0,1,0.5,0,1,0.5,1,0.5,0","3","false",""
"","html-keyboard-response","265","205851","0.0-305.0","3HHRAGRYX9RED2X70WPM84MM45RO95","A2R75YFKVALBXE","3XT3KXP24ZKFDDMCDS43FE3AU9W6IW","","null","<img src=""img/food4.png"" style=""width:200px; border:14px solid green;"">","null","","","","","","","","","",""
"","image-keyboard-response","266","205961","0.0-307.0","3HHRAGRYX9RED2X70WPM84MM45RO95","A2R75YFKVALBXE","3XT3KXP24ZKFDDMCDS43FE3AU9W6IW","","109","img/food1.png","75","109.80000001192093","2","1","3","2","1,0.5,0,1,0.5,0,0.5,0,1","0,1,0.5,0,1,0.5,1,0.5,0","3","false",""
"","html-keyboard-response","267","206263","0.0-308.0","3HHRAGRYX9RED2X70WPM84MM45RO95","A2R75YFKVALBXE","3XT3KXP24ZKFDDMCDS43FE3AU9W6IW","","null","<img src=""img/food1.png"" style=""width:200px; border:14px solid green;"">","null","","","","","","","","","",""
"","image-keyboard-response","268","206417","0.0-310.0","3HHRAGRYX9RED2X70WPM84MM45RO95","A2R75YFKVALBXE","3XT3KXP24ZKFDDMCDS43FE3AU9W6IW","","152.80000001192093","img/food3.png","75","153.59999999403954","2","1","2","2","1,0.5,0,1,0.5,0,0.5,0,1","0,1,0.5,0,1,0.5,1,0.5,0","3","false",""
"","html-keyboard-response","269","206720","0.0-311.0","3HHRAGRYX9RED2X70WPM84MM45RO95","A2R75YFKVALBXE","3XT3KXP24ZKFDDMCDS43FE3AU9W6IW","","null","<img src=""img/food3.png"" style=""width:200px; border:14px solid green;"">","null","","","","","","","","","",""
"","image-keyboard-response","270","206833","0.0-313.0","3HHRAGRYX9RED2X70WPM84MM45RO95","A2R75YFKVALBXE","3XT3KXP24ZKFDDMCDS43FE3AU9W6IW","","111.40000000596046","img/food3.png","75","112.29999999701977","2","1","2","2","1,0.5,0,1,0.5,0,0.5,0,1","0,1,0.5,0,1,0.5,1,0.5,0","3","false",""
"","html-keyboard-response","271","207134","0.0-314.0","3HHRAGRYX9RED2X70WPM84MM45RO95","A2R75YFKVALBXE","3XT3KXP24ZKFDDMCDS43FE3AU9W6IW","","null","<img src=""img/food3.png"" style=""width:200px; border:14px solid green;"">","null","","","","","","","","","",""
"","image-keyboard-response","272","207257","0.0-316.0","3HHRAGRYX9RED2X70WPM84MM45RO95","A2R75YFKVALBXE","3XT3KXP24ZKFDDMCDS43FE3AU9W6IW","","121.5","img/food4.png","75","122.29999999701977","2","1","1","2","1,0.5,0,1,0.5,0,0.5,0,1","0,1,0.5,0,1,0.5,1,0.5,0","3","false",""
"","html-keyboard-response","273","207560","0.0-317.0","3HHRAGRYX9RED2X70WPM84MM45RO95","A2R75YFKVALBXE","3XT3KXP24ZKFDDMCDS43FE3AU9W6IW","","null","<img src=""img/food4.png"" style=""width:200px; border:14px solid green;"">","null","","","","","","","","","",""
"","image-keyboard-response","274","207679","0.0-319.0","3HHRAGRYX9RED2X70WPM84MM45RO95","A2R75YFKVALBXE","3XT3KXP24ZKFDDMCDS43FE3AU9W6IW","","118.19999998807907","img/food3.png","75","119","2","1","2","2","1,0.5,0,1,0.5,0,0.5,0,1","0,1,0.5,0,1,0.5,1,0.5,0","3","false",""
"","html-keyboard-response","275","207984","0.0-320.0","3HHRAGRYX9RED2X70WPM84MM45RO95","A2R75YFKVALBXE","3XT3KXP24ZKFDDMCDS43FE3AU9W6IW","","null","<img src=""img/food3.png"" style=""width:200px; border:14px solid green;"">","null","","","","","","","","","",""
"","image-keyboard-response","276","208039","0.0-322.0","3HHRAGRYX9RED2X70WPM84MM45RO95","A2R75YFKVALBXE","3XT3KXP24ZKFDDMCDS43FE3AU9W6IW","","54.29999999701977","img/food1.png","74","54.900000005960464","1","1","3","2","1,0.5,0,1,0.5,0,0.5,0,1","0,1,0.5,0,1,0.5,1,0.5,0","3","false",""
"","html-keyboard-response","277","208343","0.0-323.0","3HHRAGRYX9RED2X70WPM84MM45RO95","A2R75YFKVALBXE","3XT3KXP24ZKFDDMCDS43FE3AU9W6IW","","null","<img src=""img/food1.png"" style=""width:200px; border:14px solid green;"">","null","","","","","","","","","",""
"","image-keyboard-response","278","208631","0.0-325.0","3HHRAGRYX9RED2X70WPM84MM45RO95","A2R75YFKVALBXE","3XT3KXP24ZKFDDMCDS43FE3AU9W6IW","","287.09999999403954","img/food1.png","74","288","1","1","3","2","1,0.5,0,1,0.5,0,0.5,0,1","0,1,0.5,0,1,0.5,1,0.5,0","3","false",""
"","html-keyboard-response","279","208933","0.0-326.0","3HHRAGRYX9RED2X70WPM84MM45RO95","A2R75YFKVALBXE","3XT3KXP24ZKFDDMCDS43FE3AU9W6IW","","null","<img src=""img/food1.png"" style=""width:200px; border:14px solid green;"">","null","","","","","","","","","",""
"","image-keyboard-response","280","209095","0.0-328.0","3HHRAGRYX9RED2X70WPM84MM45RO95","A2R75YFKVALBXE","3XT3KXP24ZKFDDMCDS43FE3AU9W6IW","","160.59999999403954","img/food4.png","74","161.5","1","0","1","2","1,0.5,0,1,0.5,0,0.5,0,1","0,1,0.5,0,1,0.5,1,0.5,0","3","false",""
"","html-keyboard-response","281","209398","0.0-329.0","3HHRAGRYX9RED2X70WPM84MM45RO95","A2R75YFKVALBXE","3XT3KXP24ZKFDDMCDS43FE3AU9W6IW","","null","<img src=""img/food4.png"" style=""width:200px;border:14px solid red;"">","null","","","","","","","","","",""
"","image-keyboard-response","282","209647","0.0-331.0","3HHRAGRYX9RED2X70WPM84MM45RO95","A2R75YFKVALBXE","3XT3KXP24ZKFDDMCDS43FE3AU9W6IW","","248.40000000596046","img/food3.png","75","249.20000000298023","2","1","2","2","1,0.5,0,1,0.5,0,0.5,0,1","0,1,0.5,0,1,0.5,1,0.5,0","3","false",""
"","html-keyboard-response","283","209950","0.0-332.0","3HHRAGRYX9RED2X70WPM84MM45RO95","A2R75YFKVALBXE","3XT3KXP24ZKFDDMCDS43FE3AU9W6IW","","null","<img src=""img/food3.png"" style=""width:200px; border:14px solid green;"">","null","","","","","","","","","",""
"","image-keyboard-response","284","210047","0.0-334.0","3HHRAGRYX9RED2X70WPM84MM45RO95","A2R75YFKVALBXE","3XT3KXP24ZKFDDMCDS43FE3AU9W6IW","","95.5","img/food1.png","75","96.40000000596046","2","0","3","2","1,0.5,0,1,0.5,0,0.5,0,1","0,1,0.5,0,1,0.5,1,0.5,0","3","false",""
"","html-keyboard-response","285","210352","0.0-335.0","3HHRAGRYX9RED2X70WPM84MM45RO95","A2R75YFKVALBXE","3XT3KXP24ZKFDDMCDS43FE3AU9W6IW","","null","<img src=""img/food1.png"" style=""width:200px;border:14px solid red;"">","null","","","","","","","","","",""
"","image-keyboard-response","286","210623","0.0-337.0","3HHRAGRYX9RED2X70WPM84MM45RO95","A2R75YFKVALBXE","3XT3KXP24ZKFDDMCDS43FE3AU9W6IW","","269.79999999701977","img/food4.png","74","270.40000000596046","1","0","1","2","1,0.5,0,1,0.5,0,0.5,0,1","0,1,0.5,0,1,0.5,1,0.5,0","3","false",""
"","html-keyboard-response","287","210924","0.0-338.0","3HHRAGRYX9RED2X70WPM84MM45RO95","A2R75YFKVALBXE","3XT3KXP24ZKFDDMCDS43FE3AU9W6IW","","null","<img src=""img/food4.png"" style=""width:200px;border:14px solid red;"">","null","","","","","","","","","",""
"","image-keyboard-response","288","210991","0.0-340.0","3HHRAGRYX9RED2X70WPM84MM45RO95","A2R75YFKVALBXE","3XT3KXP24ZKFDDMCDS43FE3AU9W6IW","","65.90000000596046","img/food4.png","75","66.59999999403954","2","1","1","2","1,0.5,0,1,0.5,0,0.5,0,1","0,1,0.5,0,1,0.5,1,0.5,0","3","false",""
"","html-keyboard-response","289","211296","0.0-341.0","3HHRAGRYX9RED2X70WPM84MM45RO95","A2R75YFKVALBXE","3XT3KXP24ZKFDDMCDS43FE3AU9W6IW","","null","<img src=""img/food4.png"" style=""width:200px; border:14px solid green;"">","null","","","","","","","","","",""
"","image-keyboard-response","290","211391","0.0-343.0","3HHRAGRYX9RED2X70WPM84MM45RO95","A2R75YFKVALBXE","3XT3KXP24ZKFDDMCDS43FE3AU9W6IW","","94.70000000298023","img/food3.png","75","95.29999999701977","2","1","2","2","1,0.5,0,1,0.5,0,0.5,0,1","0,1,0.5,0,1,0.5,1,0.5,0","3","false",""
"","html-keyboard-response","291","211693","0.0-344.0","3HHRAGRYX9RED2X70WPM84MM45RO95","A2R75YFKVALBXE","3XT3KXP24ZKFDDMCDS43FE3AU9W6IW","","null","<img src=""img/food3.png"" style=""width:200px; border:14px solid green;"">","null","","","","","","","","","",""
"","image-keyboard-response","292","211799","0.0-346.0","3HHRAGRYX9RED2X70WPM84MM45RO95","A2R75YFKVALBXE","3XT3KXP24ZKFDDMCDS43FE3AU9W6IW","","104.8999999910593","img/food3.png","75","105.5","2","1","2","2","1,0.5,0,1,0.5,0,0.5,0,1","0,1,0.5,0,1,0.5,1,0.5,0","3","false",""
"","html-keyboard-response","293","212102","0.0-347.0","3HHRAGRYX9RED2X70WPM84MM45RO95","A2R75YFKVALBXE","3XT3KXP24ZKFDDMCDS43FE3AU9W6IW","","null","<img src=""img/food3.png"" style=""width:200px; border:14px solid green;"">","null","","","","","","","","","",""
"","image-keyboard-response","294","212191","0.0-349.0","3HHRAGRYX9RED2X70WPM84MM45RO95","A2R75YFKVALBXE","3XT3KXP24ZKFDDMCDS43FE3AU9W6IW","","88.09999999403954","img/food1.png","75","88.80000001192093","2","0","3","2","1,0.5,0,1,0.5,0,0.5,0,1","0,1,0.5,0,1,0.5,1,0.5,0","3","false",""
"","html-keyboard-response","295","212493","0.0-350.0","3HHRAGRYX9RED2X70WPM84MM45RO95","A2R75YFKVALBXE","3XT3KXP24ZKFDDMCDS43FE3AU9W6IW","","null","<img src=""img/food1.png"" style=""width:200px;border:14px solid red;"">","null","","","","","","","","","",""
"","image-keyboard-response","296","212808","0.0-352.0","3HHRAGRYX9RED2X70WPM84MM45RO95","A2R75YFKVALBXE","3XT3KXP24ZKFDDMCDS43FE3AU9W6IW","","314.20000000298023","img/food1.png","75","314.90000000596046","2","0","3","2","1,0.5,0,1,0.5,0,0.5,0,1","0,1,0.5,0,1,0.5,1,0.5,0","3","false",""
"","html-keyboard-response","297","213109","0.0-353.0","3HHRAGRYX9RED2X70WPM84MM45RO95","A2R75YFKVALBXE","3XT3KXP24ZKFDDMCDS43FE3AU9W6IW","","null","<img src=""img/food1.png"" style=""width:200px;border:14px solid red;"">","null","","","","","","","","","",""
"","image-keyboard-response","298","213279","0.0-355.0","3HHRAGRYX9RED2X70WPM84MM45RO95","A2R75YFKVALBXE","3XT3KXP24ZKFDDMCDS43FE3AU9W6IW","","169","img/food1.png","74","169.80000001192093","1","1","3","2","1,0.5,0,1,0.5,0,0.5,0,1","0,1,0.5,0,1,0.5,1,0.5,0","3","false",""
"","html-keyboard-response","299","213583","0.0-356.0","3HHRAGRYX9RED2X70WPM84MM45RO95","A2R75YFKVALBXE","3XT3KXP24ZKFDDMCDS43FE3AU9W6IW","","null","<img src=""img/food1.png"" style=""width:200px; border:14px solid green;"">","null","","","","","","","","","",""
"","image-keyboard-response","300","213696","0.0-358.0","3HHRAGRYX9RED2X70WPM84MM45RO95","A2R75YFKVALBXE","3XT3KXP24ZKFDDMCDS43FE3AU9W6IW","","112.29999999701977","img/food3.png","74","113.09999999403954","1","0","2","2","1,0.5,0,1,0.5,0,0.5,0,1","0,1,0.5,0,1,0.5,1,0.5,0","3","false",""
"","html-keyboard-response","301","213998","0.0-359.0","3HHRAGRYX9RED2X70WPM84MM45RO95","A2R75YFKVALBXE","3XT3KXP24ZKFDDMCDS43FE3AU9W6IW","","null","<img src=""img/food3.png"" style=""width:200px;border:14px solid red;"">","null","","","","","","","","","",""
"","image-keyboard-response","302","214119","0.0-361.0","3HHRAGRYX9RED2X70WPM84MM45RO95","A2R75YFKVALBXE","3XT3KXP24ZKFDDMCDS43FE3AU9W6IW","","119.79999999701977","img/food4.png","74","121.20000000298023","1","0","1","2","1,0.5,0,1,0.5,0,0.5,0,1","0,1,0.5,0,1,0.5,1,0.5,0","3","false",""
"","html-keyboard-response","303","214422","0.0-362.0","3HHRAGRYX9RED2X70WPM84MM45RO95","A2R75YFKVALBXE","3XT3KXP24ZKFDDMCDS43FE3AU9W6IW","","null","<img src=""img/food4.png"" style=""width:200px;border:14px solid red;"">","null","","","","","","","","","",""
"","image-keyboard-response","304","214777","0.0-364.0","3HHRAGRYX9RED2X70WPM84MM45RO95","A2R75YFKVALBXE","3XT3KXP24ZKFDDMCDS43FE3AU9W6IW","","353.79999999701977","img/food3.png","75","354.6000000089407","2","1","2","2","1,0.5,0,1,0.5,0,0.5,0,1","0,1,0.5,0,1,0.5,1,0.5,0","3","false",""
"","html-keyboard-response","305","215081","0.0-365.0","3HHRAGRYX9RED2X70WPM84MM45RO95","A2R75YFKVALBXE","3XT3KXP24ZKFDDMCDS43FE3AU9W6IW","","null","<img src=""img/food3.png"" style=""width:200px; border:14px solid green;"">","null","","","","","","","","","",""
"","image-keyboard-response","306","215321","0.0-367.0","3HHRAGRYX9RED2X70WPM84MM45RO95","A2R75YFKVALBXE","3XT3KXP24ZKFDDMCDS43FE3AU9W6IW","","238.30000001192093","img/food1.png","75","239.20000000298023","2","0","3","2","1,0.5,0,1,0.5,0,0.5,0,1","0,1,0.5,0,1,0.5,1,0.5,0","3","false",""
"","html-keyboard-response","307","215624","0.0-368.0","3HHRAGRYX9RED2X70WPM84MM45RO95","A2R75YFKVALBXE","3XT3KXP24ZKFDDMCDS43FE3AU9W6IW","","null","<img src=""img/food1.png"" style=""width:200px;border:14px solid red;"">","null","","","","","","","","","",""
"","image-keyboard-response","308","216017","0.0-370.0","3HHRAGRYX9RED2X70WPM84MM45RO95","A2R75YFKVALBXE","3XT3KXP24ZKFDDMCDS43FE3AU9W6IW","","391.80000001192093","img/food4.png","74","392.70000000298023","1","0","1","2","1,0.5,0,1,0.5,0,0.5,0,1","0,1,0.5,0,1,0.5,1,0.5,0","3","false",""
"","html-keyboard-response","309","216321","0.0-371.0","3HHRAGRYX9RED2X70WPM84MM45RO95","A2R75YFKVALBXE","3XT3KXP24ZKFDDMCDS43FE3AU9W6IW","","null","<img src=""img/food4.png"" style=""width:200px;border:14px solid red;"">","null","","","","","","","","","",""
"","image-keyboard-response","310","216528","0.0-373.0","3HHRAGRYX9RED2X70WPM84MM45RO95","A2R75YFKVALBXE","3XT3KXP24ZKFDDMCDS43FE3AU9W6IW","","205.59999999403954","img/food3.png","75","206.5","2","1","2","2","1,0.5,0,1,0.5,0,0.5,0,1","0,1,0.5,0,1,0.5,1,0.5,0","3","false",""
"","html-keyboard-response","311","216834","0.0-374.0","3HHRAGRYX9RED2X70WPM84MM45RO95","A2R75YFKVALBXE","3XT3KXP24ZKFDDMCDS43FE3AU9W6IW","","null","<img src=""img/food3.png"" style=""width:200px; border:14px solid green;"">","null","","","","","","","","","",""
"","image-keyboard-response","312","216953","0.0-376.0","3HHRAGRYX9RED2X70WPM84MM45RO95","A2R75YFKVALBXE","3XT3KXP24ZKFDDMCDS43FE3AU9W6IW","","117.3999999910593","img/food3.png","75","118.29999999701977","2","1","2","2","1,0.5,0,1,0.5,0,0.5,0,1","0,1,0.5,0,1,0.5,1,0.5,0","3","false",""
"","html-keyboard-response","313","217259","0.0-377.0","3HHRAGRYX9RED2X70WPM84MM45RO95","A2R75YFKVALBXE","3XT3KXP24ZKFDDMCDS43FE3AU9W6IW","","null","<img src=""img/food3.png"" style=""width:200px; border:14px solid green;"">","null","","","","","","","","","",""
"","image-keyboard-response","314","217369","0.0-379.0","3HHRAGRYX9RED2X70WPM84MM45RO95","A2R75YFKVALBXE","3XT3KXP24ZKFDDMCDS43FE3AU9W6IW","","108.6000000089407","img/food1.png","75","109.5","2","0","3","2","1,0.5,0,1,0.5,0,0.5,0,1","0,1,0.5,0,1,0.5,1,0.5,0","3","false",""
"","html-keyboard-response","315","217670","0.0-380.0","3HHRAGRYX9RED2X70WPM84MM45RO95","A2R75YFKVALBXE","3XT3KXP24ZKFDDMCDS43FE3AU9W6IW","","null","<img src=""img/food1.png"" style=""width:200px;border:14px solid red;"">","null","","","","","","","","","",""
"","image-keyboard-response","316","217967","0.0-382.0","3HHRAGRYX9RED2X70WPM84MM45RO95","A2R75YFKVALBXE","3XT3KXP24ZKFDDMCDS43FE3AU9W6IW","","295.6000000089407","img/food3.png","74","296.5","1","0","2","2","1,0.5,0,1,0.5,0,0.5,0,1","0,1,0.5,0,1,0.5,1,0.5,0","3","false",""
"","html-keyboard-response","317","218270","0.0-383.0","3HHRAGRYX9RED2X70WPM84MM45RO95","A2R75YFKVALBXE","3XT3KXP24ZKFDDMCDS43FE3AU9W6IW","","null","<img src=""img/food3.png"" style=""width:200px;border:14px solid red;"">","null","","","","","","","","","",""
"","image-keyboard-response","318","218513","0.0-385.0","3HHRAGRYX9RED2X70WPM84MM45RO95","A2R75YFKVALBXE","3XT3KXP24ZKFDDMCDS43FE3AU9W6IW","","241.5","img/food4.png","75","242.30000001192093","2","1","1","2","1,0.5,0,1,0.5,0,0.5,0,1","0,1,0.5,0,1,0.5,1,0.5,0","3","false",""
"","html-keyboard-response","319","218816","0.0-386.0","3HHRAGRYX9RED2X70WPM84MM45RO95","A2R75YFKVALBXE","3XT3KXP24ZKFDDMCDS43FE3AU9W6IW","","null","<img src=""img/food4.png"" style=""width:200px; border:14px solid green;"">","null","","","","","","","","","",""
"","image-keyboard-response","320","218936","0.0-388.0","3HHRAGRYX9RED2X70WPM84MM45RO95","A2R75YFKVALBXE","3XT3KXP24ZKFDDMCDS43FE3AU9W6IW","","119.1000000089407","img/food1.png","75","119.90000000596046","2","1","3","2","1,0.5,0,1,0.5,0,0.5,0,1","0,1,0.5,0,1,0.5,1,0.5,0","3","false",""
"","html-keyboard-response","321","219241","0.0-389.0","3HHRAGRYX9RED2X70WPM84MM45RO95","A2R75YFKVALBXE","3XT3KXP24ZKFDDMCDS43FE3AU9W6IW","","null","<img src=""img/food1.png"" style=""width:200px; border:14px solid green;"">","null","","","","","","","","","",""
"","image-keyboard-response","322","219344","0.0-391.0","3HHRAGRYX9RED2X70WPM84MM45RO95","A2R75YFKVALBXE","3XT3KXP24ZKFDDMCDS43FE3AU9W6IW","","101.09999999403954","img/food3.png","75","101.90000000596046","2","1","2","2","1,0.5,0,1,0.5,0,0.5,0,1","0,1,0.5,0,1,0.5,1,0.5,0","3","false",""
"","html-keyboard-response","323","219648","0.0-392.0","3HHRAGRYX9RED2X70WPM84MM45RO95","A2R75YFKVALBXE","3XT3KXP24ZKFDDMCDS43FE3AU9W6IW","","null","<img src=""img/food3.png"" style=""width:200px; border:14px solid green;"">","null","","","","","","","","","",""
"","image-keyboard-response","324","219785","0.0-394.0","3HHRAGRYX9RED2X70WPM84MM45RO95","A2R75YFKVALBXE","3XT3KXP24ZKFDDMCDS43FE3AU9W6IW","","135.69999998807907","img/food3.png","75","136.70000000298023","2","1","2","2","1,0.5,0,1,0.5,0,0.5,0,1","0,1,0.5,0,1,0.5,1,0.5,0","3","false",""
"","html-keyboard-response","325","220087","0.0-395.0","3HHRAGRYX9RED2X70WPM84MM45RO95","A2R75YFKVALBXE","3XT3KXP24ZKFDDMCDS43FE3AU9W6IW","","null","<img src=""img/food3.png"" style=""width:200px; border:14px solid green;"">","null","","","","","","","","","",""
"","image-keyboard-response","326","220224","0.0-397.0","3HHRAGRYX9RED2X70WPM84MM45RO95","A2R75YFKVALBXE","3XT3KXP24ZKFDDMCDS43FE3AU9W6IW","","135.79999999701977","img/food4.png","75","136.6000000089407","2","1","1","2","1,0.5,0,1,0.5,0,0.5,0,1","0,1,0.5,0,1,0.5,1,0.5,0","3","false",""
"","html-keyboard-response","327","220528","0.0-398.0","3HHRAGRYX9RED2X70WPM84MM45RO95","A2R75YFKVALBXE","3XT3KXP24ZKFDDMCDS43FE3AU9W6IW","","null","<img src=""img/food4.png"" style=""width:200px; border:14px solid green;"">","null","","","","","","","","","",""
"","image-keyboard-response","328","220769","0.0-400.0","3HHRAGRYX9RED2X70WPM84MM45RO95","A2R75YFKVALBXE","3XT3KXP24ZKFDDMCDS43FE3AU9W6IW","","239.70000000298023","img/food3.png","75","240.5","2","1","2","2","1,0.5,0,1,0.5,0,0.5,0,1","0,1,0.5,0,1,0.5,1,0.5,0","3","false",""
"","html-keyboard-response","329","221070","0.0-401.0","3HHRAGRYX9RED2X70WPM84MM45RO95","A2R75YFKVALBXE","3XT3KXP24ZKFDDMCDS43FE3AU9W6IW","","null","<img src=""img/food3.png"" style=""width:200px; border:14px solid green;"">","null","","","","","","","","","",""
"","image-keyboard-response","330","221184","0.0-403.0","3HHRAGRYX9RED2X70WPM84MM45RO95","A2R75YFKVALBXE","3XT3KXP24ZKFDDMCDS43FE3AU9W6IW","","112.5","img/food1.png","75","113.40000000596046","2","0","3","2","1,0.5,0,1,0.5,0,0.5,0,1","0,1,0.5,0,1,0.5,1,0.5,0","3","false",""
"","html-keyboard-response","331","221487","0.0-404.0","3HHRAGRYX9RED2X70WPM84MM45RO95","A2R75YFKVALBXE","3XT3KXP24ZKFDDMCDS43FE3AU9W6IW","","null","<img src=""img/food1.png"" style=""width:200px;border:14px solid red;"">","null","","","","","","","","","",""
"","image-keyboard-response","332","221840","0.0-406.0","3HHRAGRYX9RED2X70WPM84MM45RO95","A2R75YFKVALBXE","3XT3KXP24ZKFDDMCDS43FE3AU9W6IW","","352","img/food4.png","74","352.90000000596046","1","0","1","2","1,0.5,0,1,0.5,0,0.5,0,1","0,1,0.5,0,1,0.5,1,0.5,0","3","false",""
"","html-keyboard-response","333","222144","0.0-407.0","3HHRAGRYX9RED2X70WPM84MM45RO95","A2R75YFKVALBXE","3XT3KXP24ZKFDDMCDS43FE3AU9W6IW","","null","<img src=""img/food4.png"" style=""width:200px;border:14px solid red;"">","null","","","","","","","","","",""
"","image-keyboard-response","334","222800","0.0-409.0","3HHRAGRYX9RED2X70WPM84MM45RO95","A2R75YFKVALBXE","3XT3KXP24ZKFDDMCDS43FE3AU9W6IW","","654.7999999970198","img/food1.png","76","655.7000000029802","3","0","3","2","1,0.5,0,1,0.5,0,0.5,0,1","0,1,0.5,0,1,0.5,1,0.5,0","3","false",""
"","html-keyboard-response","335","223104","0.0-410.0","3HHRAGRYX9RED2X70WPM84MM45RO95","A2R75YFKVALBXE","3XT3KXP24ZKFDDMCDS43FE3AU9W6IW","","null","<img src=""img/food1.png"" style=""width:200px;border:14px solid red;"">","null","","","","","","","","","",""
"","image-keyboard-response","336","223288","0.0-412.0","3HHRAGRYX9RED2X70WPM84MM45RO95","A2R75YFKVALBXE","3XT3KXP24ZKFDDMCDS43FE3AU9W6IW","","182.40000000596046","img/food3.png","76","183.20000000298023","3","1","2","2","1,0.5,0,1,0.5,0,0.5,0,1","0,1,0.5,0,1,0.5,1,0.5,0","3","false",""
"","html-keyboard-response","337","223593","0.0-413.0","3HHRAGRYX9RED2X70WPM84MM45RO95","A2R75YFKVALBXE","3XT3KXP24ZKFDDMCDS43FE3AU9W6IW","","null","<img src=""img/food3.png"" style=""width:200px; border:14px solid green;"">","null","","","","","","","","","",""
"","image-keyboard-response","338","223888","0.0-415.0","3HHRAGRYX9RED2X70WPM84MM45RO95","A2R75YFKVALBXE","3XT3KXP24ZKFDDMCDS43FE3AU9W6IW","","293.70000000298023","img/food4.png","76","294.3999999910593","3","1","1","2","1,0.5,0,1,0.5,0,0.5,0,1","0,1,0.5,0,1,0.5,1,0.5,0","3","false",""
"","html-keyboard-response","339","224192","0.0-416.0","3HHRAGRYX9RED2X70WPM84MM45RO95","A2R75YFKVALBXE","3XT3KXP24ZKFDDMCDS43FE3AU9W6IW","","null","<img src=""img/food4.png"" style=""width:200px; border:14px solid green;"">","null","","","","","","","","","",""
"","image-keyboard-response","340","224256","0.0-418.0","3HHRAGRYX9RED2X70WPM84MM45RO95","A2R75YFKVALBXE","3XT3KXP24ZKFDDMCDS43FE3AU9W6IW","","63.70000000298023","img/food1.png","76","64.5","3","0","3","2","1,0.5,0,1,0.5,0,0.5,0,1","0,1,0.5,0,1,0.5,1,0.5,0","3","false",""
"","html-keyboard-response","341","224560","0.0-419.0","3HHRAGRYX9RED2X70WPM84MM45RO95","A2R75YFKVALBXE","3XT3KXP24ZKFDDMCDS43FE3AU9W6IW","","null","<img src=""img/food1.png"" style=""width:200px;border:14px solid red;"">","null","","","","","","","","","",""
"","image-keyboard-response","342","224632","0.0-421.0","3HHRAGRYX9RED2X70WPM84MM45RO95","A2R75YFKVALBXE","3XT3KXP24ZKFDDMCDS43FE3AU9W6IW","","71.5","img/food1.png","76","72.20000000298023","3","0","3","2","1,0.5,0,1,0.5,0,0.5,0,1","0,1,0.5,0,1,0.5,1,0.5,0","3","false",""
"","html-keyboard-response","343","224934","0.0-422.0","3HHRAGRYX9RED2X70WPM84MM45RO95","A2R75YFKVALBXE","3XT3KXP24ZKFDDMCDS43FE3AU9W6IW","","null","<img src=""img/food1.png"" style=""width:200px;border:14px solid red;"">","null","","","","","","","","","",""
"","image-keyboard-response","344","224976","0.0-424.0","3HHRAGRYX9RED2X70WPM84MM45RO95","A2R75YFKVALBXE","3XT3KXP24ZKFDDMCDS43FE3AU9W6IW","","40.79999999701977","img/food1.png","75","41.69999998807907","2","0","3","2","1,0.5,0,1,0.5,0,0.5,0,1","0,1,0.5,0,1,0.5,1,0.5,0","3","false",""
"","html-keyboard-response","345","225278","0.0-425.0","3HHRAGRYX9RED2X70WPM84MM45RO95","A2R75YFKVALBXE","3XT3KXP24ZKFDDMCDS43FE3AU9W6IW","","null","<img src=""img/food1.png"" style=""width:200px;border:14px solid red;"">","null","","","","","","","","","",""
"","image-keyboard-response","346","225392","0.0-427.0","3HHRAGRYX9RED2X70WPM84MM45RO95","A2R75YFKVALBXE","3XT3KXP24ZKFDDMCDS43FE3AU9W6IW","","112.59999999403954","img/food4.png","75","113.3999999910593","2","1","1","2","1,0.5,0,1,0.5,0,0.5,0,1","0,1,0.5,0,1,0.5,1,0.5,0","3","false",""
"","html-keyboard-response","347","225696","0.0-428.0","3HHRAGRYX9RED2X70WPM84MM45RO95","A2R75YFKVALBXE","3XT3KXP24ZKFDDMCDS43FE3AU9W6IW","","null","<img src=""img/food4.png"" style=""width:200px; border:14px solid green;"">","null","","","","","","","","","",""
"","image-keyboard-response","348","225808","0.0-430.0","3HHRAGRYX9RED2X70WPM84MM45RO95","A2R75YFKVALBXE","3XT3KXP24ZKFDDMCDS43FE3AU9W6IW","","111.29999999701977","img/food3.png","75","112.19999998807907","2","1","2","2","1,0.5,0,1,0.5,0,0.5,0,1","0,1,0.5,0,1,0.5,1,0.5,0","3","false",""
"","html-keyboard-response","349","226114","0.0-431.0","3HHRAGRYX9RED2X70WPM84MM45RO95","A2R75YFKVALBXE","3XT3KXP24ZKFDDMCDS43FE3AU9W6IW","","null","<img src=""img/food3.png"" style=""width:200px; border:14px solid green;"">","null","","","","","","","","","",""
"","image-keyboard-response","350","226224","0.0-433.0","3HHRAGRYX9RED2X70WPM84MM45RO95","A2R75YFKVALBXE","3XT3KXP24ZKFDDMCDS43FE3AU9W6IW","","108.70000000298023","img/food3.png","75","109.6000000089407","2","1","2","2","1,0.5,0,1,0.5,0,0.5,0,1","0,1,0.5,0,1,0.5,1,0.5,0","3","false",""
"","html-keyboard-response","351","226528","0.0-434.0","3HHRAGRYX9RED2X70WPM84MM45RO95","A2R75YFKVALBXE","3XT3KXP24ZKFDDMCDS43FE3AU9W6IW","","null","<img src=""img/food3.png"" style=""width:200px; border:14px solid green;"">","null","","","","","","","","","",""
"","image-keyboard-response","352","226607","0.0-436.0","3HHRAGRYX9RED2X70WPM84MM45RO95","A2R75YFKVALBXE","3XT3KXP24ZKFDDMCDS43FE3AU9W6IW","","78.29999999701977","img/food1.png","75","79.20000000298023","2","0","3","2","1,0.5,0,1,0.5,0,0.5,0,1","0,1,0.5,0,1,0.5,1,0.5,0","3","false",""
"","html-keyboard-response","353","226913","0.0-437.0","3HHRAGRYX9RED2X70WPM84MM45RO95","A2R75YFKVALBXE","3XT3KXP24ZKFDDMCDS43FE3AU9W6IW","","null","<img src=""img/food1.png"" style=""width:200px;border:14px solid red;"">","null","","","","","","","","","",""
"","image-keyboard-response","354","227048","0.0-439.0","3HHRAGRYX9RED2X70WPM84MM45RO95","A2R75YFKVALBXE","3XT3KXP24ZKFDDMCDS43FE3AU9W6IW","","133.90000000596046","img/food1.png","75","134.79999999701977","2","1","3","2","1,0.5,0,1,0.5,0,0.5,0,1","0,1,0.5,0,1,0.5,1,0.5,0","3","false",""
"","html-keyboard-response","355","227350","0.0-440.0","3HHRAGRYX9RED2X70WPM84MM45RO95","A2R75YFKVALBXE","3XT3KXP24ZKFDDMCDS43FE3AU9W6IW","","null","<img src=""img/food1.png"" style=""width:200px; border:14px solid green;"">","null","","","","","","","","","",""
"","image-keyboard-response","356","227520","0.0-442.0","3HHRAGRYX9RED2X70WPM84MM45RO95","A2R75YFKVALBXE","3XT3KXP24ZKFDDMCDS43FE3AU9W6IW","","167.59999999403954","img/food4.png","75","168.3999999910593","2","1","1","2","1,0.5,0,1,0.5,0,0.5,0,1","0,1,0.5,0,1,0.5,1,0.5,0","3","false",""
"","html-keyboard-response","357","227824","0.0-443.0","3HHRAGRYX9RED2X70WPM84MM45RO95","A2R75YFKVALBXE","3XT3KXP24ZKFDDMCDS43FE3AU9W6IW","","null","<img src=""img/food4.png"" style=""width:200px; border:14px solid green;"">","null","","","","","","","","","",""
"","image-keyboard-response","358","227919","0.0-445.0","3HHRAGRYX9RED2X70WPM84MM45RO95","A2R75YFKVALBXE","3XT3KXP24ZKFDDMCDS43FE3AU9W6IW","","94.1000000089407","img/food4.png","75","94.90000000596046","2","1","1","2","1,0.5,0,1,0.5,0,0.5,0,1","0,1,0.5,0,1,0.5,1,0.5,0","3","false",""
"","html-keyboard-response","359","228223","0.0-446.0","3HHRAGRYX9RED2X70WPM84MM45RO95","A2R75YFKVALBXE","3XT3KXP24ZKFDDMCDS43FE3AU9W6IW","","null","<img src=""img/food4.png"" style=""width:200px; border:14px solid green;"">","null","","","","","","","","","",""
"","image-keyboard-response","360","228328","0.0-448.0","3HHRAGRYX9RED2X70WPM84MM45RO95","A2R75YFKVALBXE","3XT3KXP24ZKFDDMCDS43FE3AU9W6IW","","103.5","img/food1.png","75","104.5","2","1","3","2","1,0.5,0,1,0.5,0,0.5,0,1","0,1,0.5,0,1,0.5,1,0.5,0","3","false",""
"","html-keyboard-response","361","228634","0.0-449.0","3HHRAGRYX9RED2X70WPM84MM45RO95","A2R75YFKVALBXE","3XT3KXP24ZKFDDMCDS43FE3AU9W6IW","","null","<img src=""img/food1.png"" style=""width:200px; border:14px solid green;"">","null","","","","","","","","","",""
"","image-keyboard-response","362","228712","0.0-451.0","3HHRAGRYX9RED2X70WPM84MM45RO95","A2R75YFKVALBXE","3XT3KXP24ZKFDDMCDS43FE3AU9W6IW","","77","img/food3.png","75","77.70000000298023","2","1","2","2","1,0.5,0,1,0.5,0,0.5,0,1","0,1,0.5,0,1,0.5,1,0.5,0","3","false",""
"","html-keyboard-response","363","229017","0.0-452.0","3HHRAGRYX9RED2X70WPM84MM45RO95","A2R75YFKVALBXE","3XT3KXP24ZKFDDMCDS43FE3AU9W6IW","","null","<img src=""img/food3.png"" style=""width:200px; border:14px solid green;"">","null","","","","","","","","","",""
"","instructions","364","233007","0.0-454.0","3HHRAGRYX9RED2X70WPM84MM45RO95","A2R75YFKVALBXE","3XT3KXP24ZKFDDMCDS43FE3AU9W6IW","[{""page_index"":0,""viewing_time"":3989.2999999970198}]","3989.5999999940395","","","","","","","","","","","",""
"","survey-text","365","237598","0.0-455.0","3HHRAGRYX9RED2X70WPM84MM45RO95","A2R75YFKVALBXE","3XT3KXP24ZKFDDMCDS43FE3AU9W6IW","","4586.9000000059605","","","","","","","","","","","","{""Q0"":""A2R75YFKVALBXE""}"
