"success","trial_type","trial_index","time_elapsed","internal_node_id","assignmentID","mturkID","hitID","view_history","rt","stimulus","key_press","reactionTime","a","r","warning","s","cond","reward_cond","reward_cond_actual","reward_matrix_idx","responses"
"true","fullscreen","0","3278","0.0-0.0","39LNWE0K4VI218A70C78K3DE5H1UI6","A2RJSGTY72PMVW","3THR0FZ95PF7SK0MYRNAOUHTWDJOLG","","","","","","","","","","","","","",""
"","instructions","1","62158","0.0-1.0","39LNWE0K4VI218A70C78K3DE5H1UI6","A2RJSGTY72PMVW","3THR0FZ95PF7SK0MYRNAOUHTWDJOLG","[{""page_index"":0,""viewing_time"":8730},{""page_index"":1,""viewing_time"":7108.699999999255},{""page_index"":2,""viewing_time"":13595.300000000745},{""page_index"":3,""viewing_time"":6595.699999999255},{""page_index"":4,""viewing_time"":2962.400000002235},{""page_index"":5,""viewing_time"":13290.199999999255},{""page_index"":6,""viewing_time"":6594.89999999851}]","58877.800000000745","","","","","","","","","","","",""
"","instructions","2","79329","0.0-2.0","39LNWE0K4VI218A70C78K3DE5H1UI6","A2RJSGTY72PMVW","3THR0FZ95PF7SK0MYRNAOUHTWDJOLG","[{""page_index"":0,""viewing_time"":15081.20000000298},{""page_index"":1,""viewing_time"":2089.099999997765}]","17170.5","","","","","","","","","","","",""
"","image-keyboard-response","3","80176","0.0-3.0","39LNWE0K4VI218A70C78K3DE5H1UI6","A2RJSGTY72PMVW","3THR0FZ95PF7SK0MYRNAOUHTWDJOLG","","846.1999999992549","img/food4.png","75","847.1999999992549","2","1","false","3","2","1,0.5,0,1,0.5,0,0.5,0,1","0,1,0.5,0,1,0.5,1,0.5,0","3",""
"","html-keyboard-response","4","80479","0.0-4.0","39LNWE0K4VI218A70C78K3DE5H1UI6","A2RJSGTY72PMVW","3THR0FZ95PF7SK0MYRNAOUHTWDJOLG","","null","<img src=""img/food4.png"" style=""width:200px; border:14px solid green;"">","null","","","","","","","","","",""
"","image-keyboard-response","5","80596","0.0-6.0","39LNWE0K4VI218A70C78K3DE5H1UI6","A2RJSGTY72PMVW","3THR0FZ95PF7SK0MYRNAOUHTWDJOLG","","114.5","img/food4.png","75","115.69999999925494","2","0","false","3","2","1,0.5,0,1,0.5,0,0.5,0,1","0,1,0.5,0,1,0.5,1,0.5,0","3",""
"","html-keyboard-response","6","80898","0.0-7.0","39LNWE0K4VI218A70C78K3DE5H1UI6","A2RJSGTY72PMVW","3THR0FZ95PF7SK0MYRNAOUHTWDJOLG","","null","<img src=""img/food4.png"" style=""width:200px;border:14px solid red;"">","null","","","","","","","","","",""
"","image-keyboard-response","7","81049","0.0-9.0","39LNWE0K4VI218A70C78K3DE5H1UI6","A2RJSGTY72PMVW","3THR0FZ95PF7SK0MYRNAOUHTWDJOLG","","149.80000000074506","img/food4.png","75","150.89999999850988","2","1","false","3","2","1,0.5,0,1,0.5,0,0.5,0,1","0,1,0.5,0,1,0.5,1,0.5,0","3",""
"","html-keyboard-response","8","81352","0.0-10.0","39LNWE0K4VI218A70C78K3DE5H1UI6","A2RJSGTY72PMVW","3THR0FZ95PF7SK0MYRNAOUHTWDJOLG","","null","<img src=""img/food4.png"" style=""width:200px; border:14px solid green;"">","null","","","","","","","","","",""
"","image-keyboard-response","9","81532","0.0-12.0","39LNWE0K4VI218A70C78K3DE5H1UI6","A2RJSGTY72PMVW","3THR0FZ95PF7SK0MYRNAOUHTWDJOLG","","177.89999999850988","img/food6.png","75","179.10000000149012","2","1","false","1","2","1,0.5,0,1,0.5,0,0.5,0,1","0,1,0.5,0,1,0.5,1,0.5,0","3",""
"","html-keyboard-response","10","81834","0.0-13.0","39LNWE0K4VI218A70C78K3DE5H1UI6","A2RJSGTY72PMVW","3THR0FZ95PF7SK0MYRNAOUHTWDJOLG","","null","<img src=""img/food6.png"" style=""width:200px; border:14px solid green;"">","null","","","","","","","","","",""
"","image-keyboard-response","11","81960","0.0-15.0","39LNWE0K4VI218A70C78K3DE5H1UI6","A2RJSGTY72PMVW","3THR0FZ95PF7SK0MYRNAOUHTWDJOLG","","125.10000000149012","img/food4.png","74","126.19999999925494","1","1","false","3","2","1,0.5,0,1,0.5,0,0.5,0,1","0,1,0.5,0,1,0.5,1,0.5,0","3",""
"","html-keyboard-response","12","82262","0.0-16.0","39LNWE0K4VI218A70C78K3DE5H1UI6","A2RJSGTY72PMVW","3THR0FZ95PF7SK0MYRNAOUHTWDJOLG","","null","<img src=""img/food4.png"" style=""width:200px; border:14px solid green;"">","null","","","","","","","","","",""
"","image-keyboard-response","13","82422","0.0-18.0","39LNWE0K4VI218A70C78K3DE5H1UI6","A2RJSGTY72PMVW","3THR0FZ95PF7SK0MYRNAOUHTWDJOLG","","158.30000000074506","img/food4.png","76","159.29999999701977","3","0","false","3","2","1,0.5,0,1,0.5,0,0.5,0,1","0,1,0.5,0,1,0.5,1,0.5,0","3",""
"","html-keyboard-response","14","82724","0.0-19.0","39LNWE0K4VI218A70C78K3DE5H1UI6","A2RJSGTY72PMVW","3THR0FZ95PF7SK0MYRNAOUHTWDJOLG","","null","<img src=""img/food4.png"" style=""width:200px;border:14px solid red;"">","null","","","","","","","","","",""
"","image-keyboard-response","15","82856","0.0-21.0","39LNWE0K4VI218A70C78K3DE5H1UI6","A2RJSGTY72PMVW","3THR0FZ95PF7SK0MYRNAOUHTWDJOLG","","130.89999999850988","img/food6.png","75","131.60000000149012","2","1","false","1","2","1,0.5,0,1,0.5,0,0.5,0,1","0,1,0.5,0,1,0.5,1,0.5,0","3",""
"","html-keyboard-response","16","83157","0.0-22.0","39LNWE0K4VI218A70C78K3DE5H1UI6","A2RJSGTY72PMVW","3THR0FZ95PF7SK0MYRNAOUHTWDJOLG","","null","<img src=""img/food6.png"" style=""width:200px; border:14px solid green;"">","null","","","","","","","","","",""
"","image-keyboard-response","17","83275","0.0-24.0","39LNWE0K4VI218A70C78K3DE5H1UI6","A2RJSGTY72PMVW","3THR0FZ95PF7SK0MYRNAOUHTWDJOLG","","116.30000000074506","img/food5.png","74","117.29999999701977","1","0","false","2","2","1,0.5,0,1,0.5,0,0.5,0,1","0,1,0.5,0,1,0.5,1,0.5,0","3",""
"","html-keyboard-response","18","83577","0.0-25.0","39LNWE0K4VI218A70C78K3DE5H1UI6","A2RJSGTY72PMVW","3THR0FZ95PF7SK0MYRNAOUHTWDJOLG","","null","<img src=""img/food5.png"" style=""width:200px;border:14px solid red;"">","null","","","","","","","","","",""
"","image-keyboard-response","19","83684","0.0-27.0","39LNWE0K4VI218A70C78K3DE5H1UI6","A2RJSGTY72PMVW","3THR0FZ95PF7SK0MYRNAOUHTWDJOLG","","105.90000000223517","img/food4.png","75","106.89999999850988","2","1","false","3","2","1,0.5,0,1,0.5,0,0.5,0,1","0,1,0.5,0,1,0.5,1,0.5,0","3",""
"","html-keyboard-response","20","83986","0.0-28.0","39LNWE0K4VI218A70C78K3DE5H1UI6","A2RJSGTY72PMVW","3THR0FZ95PF7SK0MYRNAOUHTWDJOLG","","null","<img src=""img/food4.png"" style=""width:200px; border:14px solid green;"">","null","","","","","","","","","",""
"","image-keyboard-response","21","84098","0.0-30.0","39LNWE0K4VI218A70C78K3DE5H1UI6","A2RJSGTY72PMVW","3THR0FZ95PF7SK0MYRNAOUHTWDJOLG","","109.19999999925494","img/food5.png","75","111.69999999925494","2","1","false","2","2","1,0.5,0,1,0.5,0,0.5,0,1","0,1,0.5,0,1,0.5,1,0.5,0","3",""
"","html-keyboard-response","22","84400","0.0-31.0","39LNWE0K4VI218A70C78K3DE5H1UI6","A2RJSGTY72PMVW","3THR0FZ95PF7SK0MYRNAOUHTWDJOLG","","null","<img src=""img/food5.png"" style=""width:200px; border:14px solid green;"">","null","","","","","","","","","",""
"","image-keyboard-response","23","84455","0.0-33.0","39LNWE0K4VI218A70C78K3DE5H1UI6","A2RJSGTY72PMVW","3THR0FZ95PF7SK0MYRNAOUHTWDJOLG","","53.69999999925494","img/food5.png","74","54.599999997764826","1","0","false","2","2","1,0.5,0,1,0.5,0,0.5,0,1","0,1,0.5,0,1,0.5,1,0.5,0","3",""
"","html-keyboard-response","24","84761","0.0-34.0","39LNWE0K4VI218A70C78K3DE5H1UI6","A2RJSGTY72PMVW","3THR0FZ95PF7SK0MYRNAOUHTWDJOLG","","null","<img src=""img/food5.png"" style=""width:200px;border:14px solid red;"">","null","","","","","","","","","",""
"","image-keyboard-response","25","84821","0.0-36.0","39LNWE0K4VI218A70C78K3DE5H1UI6","A2RJSGTY72PMVW","3THR0FZ95PF7SK0MYRNAOUHTWDJOLG","","58.69999999925494","img/food5.png","75","59.80000000074506","2","1","false","2","2","1,0.5,0,1,0.5,0,0.5,0,1","0,1,0.5,0,1,0.5,1,0.5,0","3",""
"","html-keyboard-response","26","85123","0.0-37.0","39LNWE0K4VI218A70C78K3DE5H1UI6","A2RJSGTY72PMVW","3THR0FZ95PF7SK0MYRNAOUHTWDJOLG","","null","<img src=""img/food5.png"" style=""width:200px; border:14px solid green;"">","null","","","","","","","","","",""
"","image-keyboard-response","27","85200","0.0-39.0","39LNWE0K4VI218A70C78K3DE5H1UI6","A2RJSGTY72PMVW","3THR0FZ95PF7SK0MYRNAOUHTWDJOLG","","75.69999999925494","img/food6.png","76","76.30000000074506","3","0","false","1","2","1,0.5,0,1,0.5,0,0.5,0,1","0,1,0.5,0,1,0.5,1,0.5,0","3",""
"","html-keyboard-response","28","85502","0.0-40.0","39LNWE0K4VI218A70C78K3DE5H1UI6","A2RJSGTY72PMVW","3THR0FZ95PF7SK0MYRNAOUHTWDJOLG","","null","<img src=""img/food6.png"" style=""width:200px;border:14px solid red;"">","null","","","","","","","","","",""
"","image-keyboard-response","29","85678","0.0-42.0","39LNWE0K4VI218A70C78K3DE5H1UI6","A2RJSGTY72PMVW","3THR0FZ95PF7SK0MYRNAOUHTWDJOLG","","175.39999999850988","img/food6.png","75","176.09999999776483","2","1","false","1","2","1,0.5,0,1,0.5,0,0.5,0,1","0,1,0.5,0,1,0.5,1,0.5,0","3",""
"","html-keyboard-response","30","85980","0.0-43.0","39LNWE0K4VI218A70C78K3DE5H1UI6","A2RJSGTY72PMVW","3THR0FZ95PF7SK0MYRNAOUHTWDJOLG","","null","<img src=""img/food6.png"" style=""width:200px; border:14px solid green;"">","null","","","","","","","","","",""
"","image-keyboard-response","31","86089","0.0-45.0","39LNWE0K4VI218A70C78K3DE5H1UI6","A2RJSGTY72PMVW","3THR0FZ95PF7SK0MYRNAOUHTWDJOLG","","108","img/food5.png","75","108.89999999850988","2","1","false","2","2","1,0.5,0,1,0.5,0,0.5,0,1","0,1,0.5,0,1,0.5,1,0.5,0","3",""
"","html-keyboard-response","32","86392","0.0-46.0","39LNWE0K4VI218A70C78K3DE5H1UI6","A2RJSGTY72PMVW","3THR0FZ95PF7SK0MYRNAOUHTWDJOLG","","null","<img src=""img/food5.png"" style=""width:200px; border:14px solid green;"">","null","","","","","","","","","",""
"","image-keyboard-response","33","86498","0.0-48.0","39LNWE0K4VI218A70C78K3DE5H1UI6","A2RJSGTY72PMVW","3THR0FZ95PF7SK0MYRNAOUHTWDJOLG","","105.19999999925494","img/food5.png","75","106.19999999925494","2","1","false","2","2","1,0.5,0,1,0.5,0,0.5,0,1","0,1,0.5,0,1,0.5,1,0.5,0","3",""
"","html-keyboard-response","34","86801","0.0-49.0","39LNWE0K4VI218A70C78K3DE5H1UI6","A2RJSGTY72PMVW","3THR0FZ95PF7SK0MYRNAOUHTWDJOLG","","null","<img src=""img/food5.png"" style=""width:200px; border:14px solid green;"">","null","","","","","","","","","",""
"","image-keyboard-response","35","86892","0.0-51.0","39LNWE0K4VI218A70C78K3DE5H1UI6","A2RJSGTY72PMVW","3THR0FZ95PF7SK0MYRNAOUHTWDJOLG","","90.19999999925494","img/food4.png","74","91.19999999925494","1","1","false","3","2","1,0.5,0,1,0.5,0,0.5,0,1","0,1,0.5,0,1,0.5,1,0.5,0","3",""
"","html-keyboard-response","36","87195","0.0-52.0","39LNWE0K4VI218A70C78K3DE5H1UI6","A2RJSGTY72PMVW","3THR0FZ95PF7SK0MYRNAOUHTWDJOLG","","null","<img src=""img/food4.png"" style=""width:200px; border:14px solid green;"">","null","","","","","","","","","",""
"","image-keyboard-response","37","87305","0.0-54.0","39LNWE0K4VI218A70C78K3DE5H1UI6","A2RJSGTY72PMVW","3THR0FZ95PF7SK0MYRNAOUHTWDJOLG","","108.69999999925494","img/food6.png","76","109.80000000074506","3","0","false","1","2","1,0.5,0,1,0.5,0,0.5,0,1","0,1,0.5,0,1,0.5,1,0.5,0","3",""
"","html-keyboard-response","38","87607","0.0-55.0","39LNWE0K4VI218A70C78K3DE5H1UI6","A2RJSGTY72PMVW","3THR0FZ95PF7SK0MYRNAOUHTWDJOLG","","null","<img src=""img/food6.png"" style=""width:200px;border:14px solid red;"">","null","","","","","","","","","",""
"","image-keyboard-response","39","87755","0.0-57.0","39LNWE0K4VI218A70C78K3DE5H1UI6","A2RJSGTY72PMVW","3THR0FZ95PF7SK0MYRNAOUHTWDJOLG","","145.89999999850988","img/food6.png","74","146.89999999850988","1","0","false","1","2","1,0.5,0,1,0.5,0,0.5,0,1","0,1,0.5,0,1,0.5,1,0.5,0","3",""
"","html-keyboard-response","40","88057","0.0-58.0","39LNWE0K4VI218A70C78K3DE5H1UI6","A2RJSGTY72PMVW","3THR0FZ95PF7SK0MYRNAOUHTWDJOLG","","null","<img src=""img/food6.png"" style=""width:200px;border:14px solid red;"">","null","","","","","","","","","",""
"","image-keyboard-response","41","88297","0.0-60.0","39LNWE0K4VI218A70C78K3DE5H1UI6","A2RJSGTY72PMVW","3THR0FZ95PF7SK0MYRNAOUHTWDJOLG","","238.80000000074506","img/food6.png","75","240","2","1","false","1","2","1,0.5,0,1,0.5,0,0.5,0,1","0,1,0.5,0,1,0.5,1,0.5,0","3",""
"","html-keyboard-response","42","88599","0.0-61.0","39LNWE0K4VI218A70C78K3DE5H1UI6","A2RJSGTY72PMVW","3THR0FZ95PF7SK0MYRNAOUHTWDJOLG","","null","<img src=""img/food6.png"" style=""width:200px; border:14px solid green;"">","null","","","","","","","","","",""
"","image-keyboard-response","43","88629","0.0-63.0","39LNWE0K4VI218A70C78K3DE5H1UI6","A2RJSGTY72PMVW","3THR0FZ95PF7SK0MYRNAOUHTWDJOLG","","28.800000000745058","img/food5.png","76","29.700000002980232","3","0","false","2","2","1,0.5,0,1,0.5,0,0.5,0,1","0,1,0.5,0,1,0.5,1,0.5,0","3",""
"","html-keyboard-response","44","88931","0.0-64.0","39LNWE0K4VI218A70C78K3DE5H1UI6","A2RJSGTY72PMVW","3THR0FZ95PF7SK0MYRNAOUHTWDJOLG","","null","<img src=""img/food5.png"" style=""width:200px;border:14px solid red;"">","null","","","","","","","","","",""
"","image-keyboard-response","45","89074","0.0-66.0","39LNWE0K4VI218A70C78K3DE5H1UI6","A2RJSGTY72PMVW","3THR0FZ95PF7SK0MYRNAOUHTWDJOLG","","141.5","img/food4.png","74","142.30000000074506","1","1","false","3","2","1,0.5,0,1,0.5,0,0.5,0,1","0,1,0.5,0,1,0.5,1,0.5,0","3",""
"","html-keyboard-response","46","89376","0.0-67.0","39LNWE0K4VI218A70C78K3DE5H1UI6","A2RJSGTY72PMVW","3THR0FZ95PF7SK0MYRNAOUHTWDJOLG","","null","<img src=""img/food4.png"" style=""width:200px; border:14px solid green;"">","null","","","","","","","","","",""
"","image-keyboard-response","47","89513","0.0-69.0","39LNWE0K4VI218A70C78K3DE5H1UI6","A2RJSGTY72PMVW","3THR0FZ95PF7SK0MYRNAOUHTWDJOLG","","136.19999999925494","img/food4.png","76","137.30000000074506","3","0","false","3","2","1,0.5,0,1,0.5,0,0.5,0,1","0,1,0.5,0,1,0.5,1,0.5,0","3",""
"","html-keyboard-response","48","89815","0.0-70.0","39LNWE0K4VI218A70C78K3DE5H1UI6","A2RJSGTY72PMVW","3THR0FZ95PF7SK0MYRNAOUHTWDJOLG","","null","<img src=""img/food4.png"" style=""width:200px;border:14px solid red;"">","null","","","","","","","","","",""
"","image-keyboard-response","49","89970","0.0-72.0","39LNWE0K4VI218A70C78K3DE5H1UI6","A2RJSGTY72PMVW","3THR0FZ95PF7SK0MYRNAOUHTWDJOLG","","153.39999999850988","img/food4.png","74","154.69999999925494","1","1","false","3","2","1,0.5,0,1,0.5,0,0.5,0,1","0,1,0.5,0,1,0.5,1,0.5,0","3",""
"","html-keyboard-response","50","90273","0.0-73.0","39LNWE0K4VI218A70C78K3DE5H1UI6","A2RJSGTY72PMVW","3THR0FZ95PF7SK0MYRNAOUHTWDJOLG","","null","<img src=""img/food4.png"" style=""width:200px; border:14px solid green;"">","null","","","","","","","","","",""
"","image-keyboard-response","51","90438","0.0-75.0","39LNWE0K4VI218A70C78K3DE5H1UI6","A2RJSGTY72PMVW","3THR0FZ95PF7SK0MYRNAOUHTWDJOLG","","163.39999999850988","img/food4.png","75","164.39999999850988","2","1","false","3","2","1,0.5,0,1,0.5,0,0.5,0,1","0,1,0.5,0,1,0.5,1,0.5,0","3",""
"","html-keyboard-response","52","90740","0.0-76.0","39LNWE0K4VI218A70C78K3DE5H1UI6","A2RJSGTY72PMVW","3THR0FZ95PF7SK0MYRNAOUHTWDJOLG","","null","<img src=""img/food4.png"" style=""width:200px; border:14px solid green;"">","null","","","","","","","","","",""
"","image-keyboard-response","53","90939","0.0-78.0","39LNWE0K4VI218A70C78K3DE5H1UI6","A2RJSGTY72PMVW","3THR0FZ95PF7SK0MYRNAOUHTWDJOLG","","197.39999999850988","img/food4.png","75","198.5","2","1","false","3","2","1,0.5,0,1,0.5,0,0.5,0,1","0,1,0.5,0,1,0.5,1,0.5,0","3",""
"","html-keyboard-response","54","91242","0.0-79.0","39LNWE0K4VI218A70C78K3DE5H1UI6","A2RJSGTY72PMVW","3THR0FZ95PF7SK0MYRNAOUHTWDJOLG","","null","<img src=""img/food4.png"" style=""width:200px; border:14px solid green;"">","null","","","","","","","","","",""
"","image-keyboard-response","55","91398","0.0-81.0","39LNWE0K4VI218A70C78K3DE5H1UI6","A2RJSGTY72PMVW","3THR0FZ95PF7SK0MYRNAOUHTWDJOLG","","154","img/food6.png","75","155.5","2","1","false","1","2","1,0.5,0,1,0.5,0,0.5,0,1","0,1,0.5,0,1,0.5,1,0.5,0","3",""
"","html-keyboard-response","56","91700","0.0-82.0","39LNWE0K4VI218A70C78K3DE5H1UI6","A2RJSGTY72PMVW","3THR0FZ95PF7SK0MYRNAOUHTWDJOLG","","null","<img src=""img/food6.png"" style=""width:200px; border:14px solid green;"">","null","","","","","","","","","",""
"","image-keyboard-response","57","92264","0.0-84.0","39LNWE0K4VI218A70C78K3DE5H1UI6","A2RJSGTY72PMVW","3THR0FZ95PF7SK0MYRNAOUHTWDJOLG","","563","img/food5.png","76","564.1999999992549","3","0","false","2","2","1,0.5,0,1,0.5,0,0.5,0,1","0,1,0.5,0,1,0.5,1,0.5,0","3",""
"","html-keyboard-response","58","92567","0.0-85.0","39LNWE0K4VI218A70C78K3DE5H1UI6","A2RJSGTY72PMVW","3THR0FZ95PF7SK0MYRNAOUHTWDJOLG","","null","<img src=""img/food5.png"" style=""width:200px;border:14px solid red;"">","null","","","","","","","","","",""
"","image-keyboard-response","59","92674","0.0-87.0","39LNWE0K4VI218A70C78K3DE5H1UI6","A2RJSGTY72PMVW","3THR0FZ95PF7SK0MYRNAOUHTWDJOLG","","105.59999999776483","img/food5.png","74","106.80000000074506","1","0","false","2","2","1,0.5,0,1,0.5,0,0.5,0,1","0,1,0.5,0,1,0.5,1,0.5,0","3",""
"","html-keyboard-response","60","92975","0.0-88.0","39LNWE0K4VI218A70C78K3DE5H1UI6","A2RJSGTY72PMVW","3THR0FZ95PF7SK0MYRNAOUHTWDJOLG","","null","<img src=""img/food5.png"" style=""width:200px;border:14px solid red;"">","null","","","","","","","","","",""
"","image-keyboard-response","61","93114","0.0-90.0","39LNWE0K4VI218A70C78K3DE5H1UI6","A2RJSGTY72PMVW","3THR0FZ95PF7SK0MYRNAOUHTWDJOLG","","137.19999999925494","img/food5.png","76","138.09999999776483","3","1","false","2","2","1,0.5,0,1,0.5,0,0.5,0,1","0,1,0.5,0,1,0.5,1,0.5,0","3",""
"","html-keyboard-response","62","93415","0.0-91.0","39LNWE0K4VI218A70C78K3DE5H1UI6","A2RJSGTY72PMVW","3THR0FZ95PF7SK0MYRNAOUHTWDJOLG","","null","<img src=""img/food5.png"" style=""width:200px; border:14px solid green;"">","null","","","","","","","","","",""
"","image-keyboard-response","63","93569","0.0-93.0","39LNWE0K4VI218A70C78K3DE5H1UI6","A2RJSGTY72PMVW","3THR0FZ95PF7SK0MYRNAOUHTWDJOLG","","152.19999999925494","img/food5.png","74","153.29999999701977","1","0","false","2","2","1,0.5,0,1,0.5,0,0.5,0,1","0,1,0.5,0,1,0.5,1,0.5,0","3",""
"","html-keyboard-response","64","93871","0.0-94.0","39LNWE0K4VI218A70C78K3DE5H1UI6","A2RJSGTY72PMVW","3THR0FZ95PF7SK0MYRNAOUHTWDJOLG","","null","<img src=""img/food5.png"" style=""width:200px;border:14px solid red;"">","null","","","","","","","","","",""
"","image-keyboard-response","65","93962","0.0-96.0","39LNWE0K4VI218A70C78K3DE5H1UI6","A2RJSGTY72PMVW","3THR0FZ95PF7SK0MYRNAOUHTWDJOLG","","89.5","img/food5.png","75","90.39999999850988","2","1","false","2","2","1,0.5,0,1,0.5,0,0.5,0,1","0,1,0.5,0,1,0.5,1,0.5,0","3",""
"","html-keyboard-response","66","94263","0.0-97.0","39LNWE0K4VI218A70C78K3DE5H1UI6","A2RJSGTY72PMVW","3THR0FZ95PF7SK0MYRNAOUHTWDJOLG","","null","<img src=""img/food5.png"" style=""width:200px; border:14px solid green;"">","null","","","","","","","","","",""
"","image-keyboard-response","67","94342","0.0-99.0","39LNWE0K4VI218A70C78K3DE5H1UI6","A2RJSGTY72PMVW","3THR0FZ95PF7SK0MYRNAOUHTWDJOLG","","77.19999999925494","img/food4.png","76","78.40000000223517","3","0","false","3","2","1,0.5,0,1,0.5,0,0.5,0,1","0,1,0.5,0,1,0.5,1,0.5,0","3",""
"","html-keyboard-response","68","94645","0.0-100.0","39LNWE0K4VI218A70C78K3DE5H1UI6","A2RJSGTY72PMVW","3THR0FZ95PF7SK0MYRNAOUHTWDJOLG","","null","<img src=""img/food4.png"" style=""width:200px;border:14px solid red;"">","null","","","","","","","","","",""
"","image-keyboard-response","69","94737","0.0-102.0","39LNWE0K4VI218A70C78K3DE5H1UI6","A2RJSGTY72PMVW","3THR0FZ95PF7SK0MYRNAOUHTWDJOLG","","90.19999999925494","img/food6.png","74","91.39999999850988","1","0","false","1","2","1,0.5,0,1,0.5,0,0.5,0,1","0,1,0.5,0,1,0.5,1,0.5,0","3",""
"","html-keyboard-response","70","95038","0.0-103.0","39LNWE0K4VI218A70C78K3DE5H1UI6","A2RJSGTY72PMVW","3THR0FZ95PF7SK0MYRNAOUHTWDJOLG","","null","<img src=""img/food6.png"" style=""width:200px;border:14px solid red;"">","null","","","","","","","","","",""
"","image-keyboard-response","71","95113","0.0-105.0","39LNWE0K4VI218A70C78K3DE5H1UI6","A2RJSGTY72PMVW","3THR0FZ95PF7SK0MYRNAOUHTWDJOLG","","73.19999999925494","img/food4.png","75","74.29999999701977","2","0","false","3","2","1,0.5,0,1,0.5,0,0.5,0,1","0,1,0.5,0,1,0.5,1,0.5,0","3",""
"","html-keyboard-response","72","95416","0.0-106.0","39LNWE0K4VI218A70C78K3DE5H1UI6","A2RJSGTY72PMVW","3THR0FZ95PF7SK0MYRNAOUHTWDJOLG","","null","<img src=""img/food4.png"" style=""width:200px;border:14px solid red;"">","null","","","","","","","","","",""
"","image-keyboard-response","73","95514","0.0-108.0","39LNWE0K4VI218A70C78K3DE5H1UI6","A2RJSGTY72PMVW","3THR0FZ95PF7SK0MYRNAOUHTWDJOLG","","96.80000000074506","img/food4.png","76","97.60000000149012","3","0","false","3","2","1,0.5,0,1,0.5,0,0.5,0,1","0,1,0.5,0,1,0.5,1,0.5,0","3",""
"","html-keyboard-response","74","95816","0.0-109.0","39LNWE0K4VI218A70C78K3DE5H1UI6","A2RJSGTY72PMVW","3THR0FZ95PF7SK0MYRNAOUHTWDJOLG","","null","<img src=""img/food4.png"" style=""width:200px;border:14px solid red;"">","null","","","","","","","","","",""
"","image-keyboard-response","75","95920","0.0-111.0","39LNWE0K4VI218A70C78K3DE5H1UI6","A2RJSGTY72PMVW","3THR0FZ95PF7SK0MYRNAOUHTWDJOLG","","101.40000000223517","img/food4.png","75","102.69999999925494","2","0","false","3","2","1,0.5,0,1,0.5,0,0.5,0,1","0,1,0.5,0,1,0.5,1,0.5,0","3",""
"","html-keyboard-response","76","96221","0.0-112.0","39LNWE0K4VI218A70C78K3DE5H1UI6","A2RJSGTY72PMVW","3THR0FZ95PF7SK0MYRNAOUHTWDJOLG","","null","<img src=""img/food4.png"" style=""width:200px;border:14px solid red;"">","null","","","","","","","","","",""
"","image-keyboard-response","77","96328","0.0-114.0","39LNWE0K4VI218A70C78K3DE5H1UI6","A2RJSGTY72PMVW","3THR0FZ95PF7SK0MYRNAOUHTWDJOLG","","105.29999999701977","img/food4.png","75","106.39999999850988","2","0","false","3","2","1,0.5,0,1,0.5,0,0.5,0,1","0,1,0.5,0,1,0.5,1,0.5,0","3",""
"","html-keyboard-response","78","96630","0.0-115.0","39LNWE0K4VI218A70C78K3DE5H1UI6","A2RJSGTY72PMVW","3THR0FZ95PF7SK0MYRNAOUHTWDJOLG","","null","<img src=""img/food4.png"" style=""width:200px;border:14px solid red;"">","null","","","","","","","","","",""
"","image-keyboard-response","79","96709","0.0-117.0","39LNWE0K4VI218A70C78K3DE5H1UI6","A2RJSGTY72PMVW","3THR0FZ95PF7SK0MYRNAOUHTWDJOLG","","77.89999999850988","img/food5.png","76","79.10000000149012","3","1","false","2","2","1,0.5,0,1,0.5,0,0.5,0,1","0,1,0.5,0,1,0.5,1,0.5,0","3",""
"","html-keyboard-response","80","97011","0.0-118.0","39LNWE0K4VI218A70C78K3DE5H1UI6","A2RJSGTY72PMVW","3THR0FZ95PF7SK0MYRNAOUHTWDJOLG","","null","<img src=""img/food5.png"" style=""width:200px; border:14px solid green;"">","null","","","","","","","","","",""
"","image-keyboard-response","81","97111","0.0-120.0","39LNWE0K4VI218A70C78K3DE5H1UI6","A2RJSGTY72PMVW","3THR0FZ95PF7SK0MYRNAOUHTWDJOLG","","98.80000000074506","img/food5.png","75","100","2","1","false","2","2","1,0.5,0,1,0.5,0,0.5,0,1","0,1,0.5,0,1,0.5,1,0.5,0","3",""
"","html-keyboard-response","82","97413","0.0-121.0","39LNWE0K4VI218A70C78K3DE5H1UI6","A2RJSGTY72PMVW","3THR0FZ95PF7SK0MYRNAOUHTWDJOLG","","null","<img src=""img/food5.png"" style=""width:200px; border:14px solid green;"">","null","","","","","","","","","",""
"","image-keyboard-response","83","97512","0.0-123.0","39LNWE0K4VI218A70C78K3DE5H1UI6","A2RJSGTY72PMVW","3THR0FZ95PF7SK0MYRNAOUHTWDJOLG","","97","img/food6.png","74","98","1","0","false","1","2","1,0.5,0,1,0.5,0,0.5,0,1","0,1,0.5,0,1,0.5,1,0.5,0","3",""
"","html-keyboard-response","84","97813","0.0-124.0","39LNWE0K4VI218A70C78K3DE5H1UI6","A2RJSGTY72PMVW","3THR0FZ95PF7SK0MYRNAOUHTWDJOLG","","null","<img src=""img/food6.png"" style=""width:200px;border:14px solid red;"">","null","","","","","","","","","",""
"","image-keyboard-response","85","97873","0.0-126.0","39LNWE0K4VI218A70C78K3DE5H1UI6","A2RJSGTY72PMVW","3THR0FZ95PF7SK0MYRNAOUHTWDJOLG","","57.900000002235174","img/food5.png","75","59.100000001490116","2","1","false","2","2","1,0.5,0,1,0.5,0,0.5,0,1","0,1,0.5,0,1,0.5,1,0.5,0","3",""
"","html-keyboard-response","86","98174","0.0-127.0","39LNWE0K4VI218A70C78K3DE5H1UI6","A2RJSGTY72PMVW","3THR0FZ95PF7SK0MYRNAOUHTWDJOLG","","null","<img src=""img/food5.png"" style=""width:200px; border:14px solid green;"">","null","","","","","","","","","",""
"","image-keyboard-response","87","98269","0.0-129.0","39LNWE0K4VI218A70C78K3DE5H1UI6","A2RJSGTY72PMVW","3THR0FZ95PF7SK0MYRNAOUHTWDJOLG","","93.39999999850988","img/food5.png","76","94.60000000149012","3","0","false","2","2","1,0.5,0,1,0.5,0,0.5,0,1","0,1,0.5,0,1,0.5,1,0.5,0","3",""
"","html-keyboard-response","88","98571","0.0-130.0","39LNWE0K4VI218A70C78K3DE5H1UI6","A2RJSGTY72PMVW","3THR0FZ95PF7SK0MYRNAOUHTWDJOLG","","null","<img src=""img/food5.png"" style=""width:200px;border:14px solid red;"">","null","","","","","","","","","",""
"","image-keyboard-response","89","98619","0.0-132.0","39LNWE0K4VI218A70C78K3DE5H1UI6","A2RJSGTY72PMVW","3THR0FZ95PF7SK0MYRNAOUHTWDJOLG","","45.69999999925494","img/food4.png","75","46.69999999925494","2","0","false","3","2","1,0.5,0,1,0.5,0,0.5,0,1","0,1,0.5,0,1,0.5,1,0.5,0","3",""
"","html-keyboard-response","90","98926","0.0-133.0","39LNWE0K4VI218A70C78K3DE5H1UI6","A2RJSGTY72PMVW","3THR0FZ95PF7SK0MYRNAOUHTWDJOLG","","null","<img src=""img/food4.png"" style=""width:200px;border:14px solid red;"">","null","","","","","","","","","",""
"","image-keyboard-response","91","98950","0.0-135.0","39LNWE0K4VI218A70C78K3DE5H1UI6","A2RJSGTY72PMVW","3THR0FZ95PF7SK0MYRNAOUHTWDJOLG","","22.5","img/food6.png","74","23.699999999254942","1","0","false","1","2","1,0.5,0,1,0.5,0,0.5,0,1","0,1,0.5,0,1,0.5,1,0.5,0","3",""
"","html-keyboard-response","92","99252","0.0-136.0","39LNWE0K4VI218A70C78K3DE5H1UI6","A2RJSGTY72PMVW","3THR0FZ95PF7SK0MYRNAOUHTWDJOLG","","null","<img src=""img/food6.png"" style=""width:200px;border:14px solid red;"">","null","","","","","","","","","",""
"","image-keyboard-response","93","99320","0.0-138.0","39LNWE0K4VI218A70C78K3DE5H1UI6","A2RJSGTY72PMVW","3THR0FZ95PF7SK0MYRNAOUHTWDJOLG","","66","img/food5.png","75","67.10000000149012","2","1","false","2","2","1,0.5,0,1,0.5,0,0.5,0,1","0,1,0.5,0,1,0.5,1,0.5,0","3",""
"","html-keyboard-response","94","99621","0.0-139.0","39LNWE0K4VI218A70C78K3DE5H1UI6","A2RJSGTY72PMVW","3THR0FZ95PF7SK0MYRNAOUHTWDJOLG","","null","<img src=""img/food5.png"" style=""width:200px; border:14px solid green;"">","null","","","","","","","","","",""
"","image-keyboard-response","95","99757","0.0-141.0","39LNWE0K4VI218A70C78K3DE5H1UI6","A2RJSGTY72PMVW","3THR0FZ95PF7SK0MYRNAOUHTWDJOLG","","134.5","img/food5.png","75","135.60000000149012","2","1","false","2","2","1,0.5,0,1,0.5,0,0.5,0,1","0,1,0.5,0,1,0.5,1,0.5,0","3",""
"","html-keyboard-response","96","100059","0.0-142.0","39LNWE0K4VI218A70C78K3DE5H1UI6","A2RJSGTY72PMVW","3THR0FZ95PF7SK0MYRNAOUHTWDJOLG","","null","<img src=""img/food5.png"" style=""width:200px; border:14px solid green;"">","null","","","","","","","","","",""
"","image-keyboard-response","97","100146","0.0-144.0","39LNWE0K4VI218A70C78K3DE5H1UI6","A2RJSGTY72PMVW","3THR0FZ95PF7SK0MYRNAOUHTWDJOLG","","85.29999999701977","img/food6.png","74","86.5","1","0","false","1","2","1,0.5,0,1,0.5,0,0.5,0,1","0,1,0.5,0,1,0.5,1,0.5,0","3",""
"","html-keyboard-response","98","100449","0.0-145.0","39LNWE0K4VI218A70C78K3DE5H1UI6","A2RJSGTY72PMVW","3THR0FZ95PF7SK0MYRNAOUHTWDJOLG","","null","<img src=""img/food6.png"" style=""width:200px;border:14px solid red;"">","null","","","","","","","","","",""
"","image-keyboard-response","99","100555","0.0-147.0","39LNWE0K4VI218A70C78K3DE5H1UI6","A2RJSGTY72PMVW","3THR0FZ95PF7SK0MYRNAOUHTWDJOLG","","104.60000000149012","img/food5.png","75","105.80000000074506","2","1","false","2","2","1,0.5,0,1,0.5,0,0.5,0,1","0,1,0.5,0,1,0.5,1,0.5,0","3",""
"","html-keyboard-response","100","100858","0.0-148.0","39LNWE0K4VI218A70C78K3DE5H1UI6","A2RJSGTY72PMVW","3THR0FZ95PF7SK0MYRNAOUHTWDJOLG","","null","<img src=""img/food5.png"" style=""width:200px; border:14px solid green;"">","null","","","","","","","","","",""
"","image-keyboard-response","101","100964","0.0-150.0","39LNWE0K4VI218A70C78K3DE5H1UI6","A2RJSGTY72PMVW","3THR0FZ95PF7SK0MYRNAOUHTWDJOLG","","104.69999999925494","img/food4.png","75","105.60000000149012","2","0","false","3","2","1,0.5,0,1,0.5,0,0.5,0,1","0,1,0.5,0,1,0.5,1,0.5,0","3",""
"","html-keyboard-response","102","101265","0.0-151.0","39LNWE0K4VI218A70C78K3DE5H1UI6","A2RJSGTY72PMVW","3THR0FZ95PF7SK0MYRNAOUHTWDJOLG","","null","<img src=""img/food4.png"" style=""width:200px;border:14px solid red;"">","null","","","","","","","","","",""
"","image-keyboard-response","103","101370","0.0-153.0","39LNWE0K4VI218A70C78K3DE5H1UI6","A2RJSGTY72PMVW","3THR0FZ95PF7SK0MYRNAOUHTWDJOLG","","103.80000000074506","img/food5.png","74","104.90000000223517","1","0","false","2","2","1,0.5,0,1,0.5,0,0.5,0,1","0,1,0.5,0,1,0.5,1,0.5,0","3",""
"","html-keyboard-response","104","101672","0.0-154.0","39LNWE0K4VI218A70C78K3DE5H1UI6","A2RJSGTY72PMVW","3THR0FZ95PF7SK0MYRNAOUHTWDJOLG","","null","<img src=""img/food5.png"" style=""width:200px;border:14px solid red;"">","null","","","","","","","","","",""
"","image-keyboard-response","105","101763","0.0-156.0","39LNWE0K4VI218A70C78K3DE5H1UI6","A2RJSGTY72PMVW","3THR0FZ95PF7SK0MYRNAOUHTWDJOLG","","89.80000000074506","img/food6.png","75","90.80000000074506","2","1","false","1","2","1,0.5,0,1,0.5,0,0.5,0,1","0,1,0.5,0,1,0.5,1,0.5,0","3",""
"","html-keyboard-response","106","102065","0.0-157.0","39LNWE0K4VI218A70C78K3DE5H1UI6","A2RJSGTY72PMVW","3THR0FZ95PF7SK0MYRNAOUHTWDJOLG","","null","<img src=""img/food6.png"" style=""width:200px; border:14px solid green;"">","null","","","","","","","","","",""
"","image-keyboard-response","107","102189","0.0-159.0","39LNWE0K4VI218A70C78K3DE5H1UI6","A2RJSGTY72PMVW","3THR0FZ95PF7SK0MYRNAOUHTWDJOLG","","122","img/food4.png","75","123","2","1","false","3","2","1,0.5,0,1,0.5,0,0.5,0,1","0,1,0.5,0,1,0.5,1,0.5,0","3",""
"","html-keyboard-response","108","102491","0.0-160.0","39LNWE0K4VI218A70C78K3DE5H1UI6","A2RJSGTY72PMVW","3THR0FZ95PF7SK0MYRNAOUHTWDJOLG","","null","<img src=""img/food4.png"" style=""width:200px; border:14px solid green;"">","null","","","","","","","","","",""
"","image-keyboard-response","109","102558","0.0-162.0","39LNWE0K4VI218A70C78K3DE5H1UI6","A2RJSGTY72PMVW","3THR0FZ95PF7SK0MYRNAOUHTWDJOLG","","64.69999999925494","img/food5.png","74","65.79999999701977","1","0","false","2","2","1,0.5,0,1,0.5,0,0.5,0,1","0,1,0.5,0,1,0.5,1,0.5,0","3",""
"","html-keyboard-response","110","102860","0.0-163.0","39LNWE0K4VI218A70C78K3DE5H1UI6","A2RJSGTY72PMVW","3THR0FZ95PF7SK0MYRNAOUHTWDJOLG","","null","<img src=""img/food5.png"" style=""width:200px;border:14px solid red;"">","null","","","","","","","","","",""
"","image-keyboard-response","111","102956","0.0-165.0","39LNWE0K4VI218A70C78K3DE5H1UI6","A2RJSGTY72PMVW","3THR0FZ95PF7SK0MYRNAOUHTWDJOLG","","94.39999999850988","img/food4.png","75","95.5","2","1","false","3","2","1,0.5,0,1,0.5,0,0.5,0,1","0,1,0.5,0,1,0.5,1,0.5,0","3",""
"","html-keyboard-response","112","103258","0.0-166.0","39LNWE0K4VI218A70C78K3DE5H1UI6","A2RJSGTY72PMVW","3THR0FZ95PF7SK0MYRNAOUHTWDJOLG","","null","<img src=""img/food4.png"" style=""width:200px; border:14px solid green;"">","null","","","","","","","","","",""
"","image-keyboard-response","113","103376","0.0-168.0","39LNWE0K4VI218A70C78K3DE5H1UI6","A2RJSGTY72PMVW","3THR0FZ95PF7SK0MYRNAOUHTWDJOLG","","116.10000000149012","img/food4.png","75","117.19999999925494","2","1","false","3","2","1,0.5,0,1,0.5,0,0.5,0,1","0,1,0.5,0,1,0.5,1,0.5,0","3",""
"","html-keyboard-response","114","103679","0.0-169.0","39LNWE0K4VI218A70C78K3DE5H1UI6","A2RJSGTY72PMVW","3THR0FZ95PF7SK0MYRNAOUHTWDJOLG","","null","<img src=""img/food4.png"" style=""width:200px; border:14px solid green;"">","null","","","","","","","","","",""
"","image-keyboard-response","115","103749","0.0-171.0","39LNWE0K4VI218A70C78K3DE5H1UI6","A2RJSGTY72PMVW","3THR0FZ95PF7SK0MYRNAOUHTWDJOLG","","68.59999999776483","img/food4.png","74","69.79999999701977","1","1","false","3","2","1,0.5,0,1,0.5,0,0.5,0,1","0,1,0.5,0,1,0.5,1,0.5,0","3",""
"","html-keyboard-response","116","104052","0.0-172.0","39LNWE0K4VI218A70C78K3DE5H1UI6","A2RJSGTY72PMVW","3THR0FZ95PF7SK0MYRNAOUHTWDJOLG","","null","<img src=""img/food4.png"" style=""width:200px; border:14px solid green;"">","null","","","","","","","","","",""
"","image-keyboard-response","117","104149","0.0-174.0","39LNWE0K4VI218A70C78K3DE5H1UI6","A2RJSGTY72PMVW","3THR0FZ95PF7SK0MYRNAOUHTWDJOLG","","95.59999999776483","img/food6.png","75","96.5","2","1","false","1","2","1,0.5,0,1,0.5,0,0.5,0,1","0,1,0.5,0,1,0.5,1,0.5,0","3",""
"","html-keyboard-response","118","104450","0.0-175.0","39LNWE0K4VI218A70C78K3DE5H1UI6","A2RJSGTY72PMVW","3THR0FZ95PF7SK0MYRNAOUHTWDJOLG","","null","<img src=""img/food6.png"" style=""width:200px; border:14px solid green;"">","null","","","","","","","","","",""
"","image-keyboard-response","119","104531","0.0-177.0","39LNWE0K4VI218A70C78K3DE5H1UI6","A2RJSGTY72PMVW","3THR0FZ95PF7SK0MYRNAOUHTWDJOLG","","79.19999999925494","img/food5.png","75","81.39999999850988","2","1","false","2","2","1,0.5,0,1,0.5,0,0.5,0,1","0,1,0.5,0,1,0.5,1,0.5,0","3",""
"","html-keyboard-response","120","104833","0.0-178.0","39LNWE0K4VI218A70C78K3DE5H1UI6","A2RJSGTY72PMVW","3THR0FZ95PF7SK0MYRNAOUHTWDJOLG","","null","<img src=""img/food5.png"" style=""width:200px; border:14px solid green;"">","null","","","","","","","","","",""
"","image-keyboard-response","121","104872","0.0-180.0","39LNWE0K4VI218A70C78K3DE5H1UI6","A2RJSGTY72PMVW","3THR0FZ95PF7SK0MYRNAOUHTWDJOLG","","36.80000000074506","img/food6.png","74","37.899999998509884","1","0","false","1","2","1,0.5,0,1,0.5,0,0.5,0,1","0,1,0.5,0,1,0.5,1,0.5,0","3",""
"","html-keyboard-response","122","105174","0.0-181.0","39LNWE0K4VI218A70C78K3DE5H1UI6","A2RJSGTY72PMVW","3THR0FZ95PF7SK0MYRNAOUHTWDJOLG","","null","<img src=""img/food6.png"" style=""width:200px;border:14px solid red;"">","null","","","","","","","","","",""
"","image-keyboard-response","123","105199","0.0-183.0","39LNWE0K4VI218A70C78K3DE5H1UI6","A2RJSGTY72PMVW","3THR0FZ95PF7SK0MYRNAOUHTWDJOLG","","24","img/food6.png","74","24.899999998509884","1","0","false","1","2","1,0.5,0,1,0.5,0,0.5,0,1","0,1,0.5,0,1,0.5,1,0.5,0","3",""
"","html-keyboard-response","124","105501","0.0-184.0","39LNWE0K4VI218A70C78K3DE5H1UI6","A2RJSGTY72PMVW","3THR0FZ95PF7SK0MYRNAOUHTWDJOLG","","null","<img src=""img/food6.png"" style=""width:200px;border:14px solid red;"">","null","","","","","","","","","",""
"","image-keyboard-response","125","105526","0.0-186.0","39LNWE0K4VI218A70C78K3DE5H1UI6","A2RJSGTY72PMVW","3THR0FZ95PF7SK0MYRNAOUHTWDJOLG","","23.199999999254942","img/food4.png","75","24.100000001490116","2","0","false","3","2","1,0.5,0,1,0.5,0,0.5,0,1","0,1,0.5,0,1,0.5,1,0.5,0","3",""
"","html-keyboard-response","126","105828","0.0-187.0","39LNWE0K4VI218A70C78K3DE5H1UI6","A2RJSGTY72PMVW","3THR0FZ95PF7SK0MYRNAOUHTWDJOLG","","null","<img src=""img/food4.png"" style=""width:200px;border:14px solid red;"">","null","","","","","","","","","",""
"","image-keyboard-response","127","105859","0.0-189.0","39LNWE0K4VI218A70C78K3DE5H1UI6","A2RJSGTY72PMVW","3THR0FZ95PF7SK0MYRNAOUHTWDJOLG","","29.699999999254942","img/food4.png","76","30.599999997764826","3","0","false","3","2","1,0.5,0,1,0.5,0,0.5,0,1","0,1,0.5,0,1,0.5,1,0.5,0","3",""
"","html-keyboard-response","128","106161","0.0-190.0","39LNWE0K4VI218A70C78K3DE5H1UI6","A2RJSGTY72PMVW","3THR0FZ95PF7SK0MYRNAOUHTWDJOLG","","null","<img src=""img/food4.png"" style=""width:200px;border:14px solid red;"">","null","","","","","","","","","",""
"","image-keyboard-response","129","106167","0.0-192.0","39LNWE0K4VI218A70C78K3DE5H1UI6","A2RJSGTY72PMVW","3THR0FZ95PF7SK0MYRNAOUHTWDJOLG","","3.5","img/food6.png","76","5.199999999254942","3","1","false","1","2","1,0.5,0,1,0.5,0,0.5,0,1","0,1,0.5,0,1,0.5,1,0.5,0","3",""
"","html-keyboard-response","130","106472","0.0-193.0","39LNWE0K4VI218A70C78K3DE5H1UI6","A2RJSGTY72PMVW","3THR0FZ95PF7SK0MYRNAOUHTWDJOLG","","null","<img src=""img/food6.png"" style=""width:200px; border:14px solid green;"">","null","","","","","","","","","",""
"","image-keyboard-response","131","106596","0.0-195.0","39LNWE0K4VI218A70C78K3DE5H1UI6","A2RJSGTY72PMVW","3THR0FZ95PF7SK0MYRNAOUHTWDJOLG","","122.40000000223517","img/food6.png","76","123.39999999850988","3","1","false","1","2","1,0.5,0,1,0.5,0,0.5,0,1","0,1,0.5,0,1,0.5,1,0.5,0","3",""
"","html-keyboard-response","132","106898","0.0-196.0","39LNWE0K4VI218A70C78K3DE5H1UI6","A2RJSGTY72PMVW","3THR0FZ95PF7SK0MYRNAOUHTWDJOLG","","null","<img src=""img/food6.png"" style=""width:200px; border:14px solid green;"">","null","","","","","","","","","",""
"","image-keyboard-response","133","107002","0.0-198.0","39LNWE0K4VI218A70C78K3DE5H1UI6","A2RJSGTY72PMVW","3THR0FZ95PF7SK0MYRNAOUHTWDJOLG","","102.5","img/food5.png","76","103.60000000149012","3","1","false","2","2","1,0.5,0,1,0.5,0,0.5,0,1","0,1,0.5,0,1,0.5,1,0.5,0","3",""
"","html-keyboard-response","134","107304","0.0-199.0","39LNWE0K4VI218A70C78K3DE5H1UI6","A2RJSGTY72PMVW","3THR0FZ95PF7SK0MYRNAOUHTWDJOLG","","null","<img src=""img/food5.png"" style=""width:200px; border:14px solid green;"">","null","","","","","","","","","",""
"","image-keyboard-response","135","107440","0.0-201.0","39LNWE0K4VI218A70C78K3DE5H1UI6","A2RJSGTY72PMVW","3THR0FZ95PF7SK0MYRNAOUHTWDJOLG","","134.40000000223517","img/food6.png","76","135.60000000149012","3","0","false","1","2","1,0.5,0,1,0.5,0,0.5,0,1","0,1,0.5,0,1,0.5,1,0.5,0","3",""
"","html-keyboard-response","136","107741","0.0-202.0","39LNWE0K4VI218A70C78K3DE5H1UI6","A2RJSGTY72PMVW","3THR0FZ95PF7SK0MYRNAOUHTWDJOLG","","null","<img src=""img/food6.png"" style=""width:200px;border:14px solid red;"">","null","","","","","","","","","",""
"","image-keyboard-response","137","107837","0.0-204.0","39LNWE0K4VI218A70C78K3DE5H1UI6","A2RJSGTY72PMVW","3THR0FZ95PF7SK0MYRNAOUHTWDJOLG","","93.89999999850988","img/food6.png","76","94.90000000223517","3","1","false","1","2","1,0.5,0,1,0.5,0,0.5,0,1","0,1,0.5,0,1,0.5,1,0.5,0","3",""
"","html-keyboard-response","138","108139","0.0-205.0","39LNWE0K4VI218A70C78K3DE5H1UI6","A2RJSGTY72PMVW","3THR0FZ95PF7SK0MYRNAOUHTWDJOLG","","null","<img src=""img/food6.png"" style=""width:200px; border:14px solid green;"">","null","","","","","","","","","",""
"","image-keyboard-response","139","108855","0.0-207.0","39LNWE0K4VI218A70C78K3DE5H1UI6","A2RJSGTY72PMVW","3THR0FZ95PF7SK0MYRNAOUHTWDJOLG","","714.2999999970198","img/food4.png","75","715.3999999985099","2","1","false","3","2","1,0.5,0,1,0.5,0,0.5,0,1","0,1,0.5,0,1,0.5,1,0.5,0","3",""
"","html-keyboard-response","140","109156","0.0-208.0","39LNWE0K4VI218A70C78K3DE5H1UI6","A2RJSGTY72PMVW","3THR0FZ95PF7SK0MYRNAOUHTWDJOLG","","null","<img src=""img/food4.png"" style=""width:200px; border:14px solid green;"">","null","","","","","","","","","",""
"","image-keyboard-response","141","109304","0.0-210.0","39LNWE0K4VI218A70C78K3DE5H1UI6","A2RJSGTY72PMVW","3THR0FZ95PF7SK0MYRNAOUHTWDJOLG","","146.80000000074506","img/food5.png","75","147.70000000298023","2","1","false","2","2","1,0.5,0,1,0.5,0,0.5,0,1","0,1,0.5,0,1,0.5,1,0.5,0","3",""
"","html-keyboard-response","142","109606","0.0-211.0","39LNWE0K4VI218A70C78K3DE5H1UI6","A2RJSGTY72PMVW","3THR0FZ95PF7SK0MYRNAOUHTWDJOLG","","null","<img src=""img/food5.png"" style=""width:200px; border:14px solid green;"">","null","","","","","","","","","",""
"","image-keyboard-response","143","109619","0.0-213.0","39LNWE0K4VI218A70C78K3DE5H1UI6","A2RJSGTY72PMVW","3THR0FZ95PF7SK0MYRNAOUHTWDJOLG","","11.199999999254942","img/food5.png","74","11.899999998509884","1","0","false","2","2","1,0.5,0,1,0.5,0,0.5,0,1","0,1,0.5,0,1,0.5,1,0.5,0","3",""
"","html-keyboard-response","144","109920","0.0-214.0","39LNWE0K4VI218A70C78K3DE5H1UI6","A2RJSGTY72PMVW","3THR0FZ95PF7SK0MYRNAOUHTWDJOLG","","null","<img src=""img/food5.png"" style=""width:200px;border:14px solid red;"">","null","","","","","","","","","",""
"","image-keyboard-response","145","110161","0.0-216.0","39LNWE0K4VI218A70C78K3DE5H1UI6","A2RJSGTY72PMVW","3THR0FZ95PF7SK0MYRNAOUHTWDJOLG","","239.80000000074506","img/food6.png","75","240.89999999850988","2","1","false","1","2","1,0.5,0,1,0.5,0,0.5,0,1","0,1,0.5,0,1,0.5,1,0.5,0","3",""
"","html-keyboard-response","146","110463","0.0-217.0","39LNWE0K4VI218A70C78K3DE5H1UI6","A2RJSGTY72PMVW","3THR0FZ95PF7SK0MYRNAOUHTWDJOLG","","null","<img src=""img/food6.png"" style=""width:200px; border:14px solid green;"">","null","","","","","","","","","",""
"","image-keyboard-response","147","110473","0.0-219.0","39LNWE0K4VI218A70C78K3DE5H1UI6","A2RJSGTY72PMVW","3THR0FZ95PF7SK0MYRNAOUHTWDJOLG","","7.600000001490116","img/food4.png","75","9","2","0","false","3","2","1,0.5,0,1,0.5,0,0.5,0,1","0,1,0.5,0,1,0.5,1,0.5,0","3",""
"","html-keyboard-response","148","110774","0.0-220.0","39LNWE0K4VI218A70C78K3DE5H1UI6","A2RJSGTY72PMVW","3THR0FZ95PF7SK0MYRNAOUHTWDJOLG","","null","<img src=""img/food4.png"" style=""width:200px;border:14px solid red;"">","null","","","","","","","","","",""
"","image-keyboard-response","149","110846","0.0-222.0","39LNWE0K4VI218A70C78K3DE5H1UI6","A2RJSGTY72PMVW","3THR0FZ95PF7SK0MYRNAOUHTWDJOLG","","71.19999999925494","img/food6.png","76","72.40000000223517","3","1","false","1","2","1,0.5,0,1,0.5,0,0.5,0,1","0,1,0.5,0,1,0.5,1,0.5,0","3",""
"","html-keyboard-response","150","111149","0.0-223.0","39LNWE0K4VI218A70C78K3DE5H1UI6","A2RJSGTY72PMVW","3THR0FZ95PF7SK0MYRNAOUHTWDJOLG","","null","<img src=""img/food6.png"" style=""width:200px; border:14px solid green;"">","null","","","","","","","","","",""
"","image-keyboard-response","151","111183","0.0-225.0","39LNWE0K4VI218A70C78K3DE5H1UI6","A2RJSGTY72PMVW","3THR0FZ95PF7SK0MYRNAOUHTWDJOLG","","32.400000002235174","img/food5.png","75","33.400000002235174","2","1","false","2","2","1,0.5,0,1,0.5,0,0.5,0,1","0,1,0.5,0,1,0.5,1,0.5,0","3",""
"","html-keyboard-response","152","111485","0.0-226.0","39LNWE0K4VI218A70C78K3DE5H1UI6","A2RJSGTY72PMVW","3THR0FZ95PF7SK0MYRNAOUHTWDJOLG","","null","<img src=""img/food5.png"" style=""width:200px; border:14px solid green;"">","null","","","","","","","","","",""
"","image-keyboard-response","153","111516","0.0-228.0","39LNWE0K4VI218A70C78K3DE5H1UI6","A2RJSGTY72PMVW","3THR0FZ95PF7SK0MYRNAOUHTWDJOLG","","29.299999997019768","img/food4.png","74","30.300000000745058","1","1","false","3","2","1,0.5,0,1,0.5,0,0.5,0,1","0,1,0.5,0,1,0.5,1,0.5,0","3",""
"","html-keyboard-response","154","111818","0.0-229.0","39LNWE0K4VI218A70C78K3DE5H1UI6","A2RJSGTY72PMVW","3THR0FZ95PF7SK0MYRNAOUHTWDJOLG","","null","<img src=""img/food4.png"" style=""width:200px; border:14px solid green;"">","null","","","","","","","","","",""
"","image-keyboard-response","155","111892","0.0-231.0","39LNWE0K4VI218A70C78K3DE5H1UI6","A2RJSGTY72PMVW","3THR0FZ95PF7SK0MYRNAOUHTWDJOLG","","72.80000000074506","img/food6.png","75","73.69999999925494","2","1","false","1","2","1,0.5,0,1,0.5,0,0.5,0,1","0,1,0.5,0,1,0.5,1,0.5,0","3",""
"","html-keyboard-response","156","112194","0.0-232.0","39LNWE0K4VI218A70C78K3DE5H1UI6","A2RJSGTY72PMVW","3THR0FZ95PF7SK0MYRNAOUHTWDJOLG","","null","<img src=""img/food6.png"" style=""width:200px; border:14px solid green;"">","null","","","","","","","","","",""
"","image-keyboard-response","157","112262","0.0-234.0","39LNWE0K4VI218A70C78K3DE5H1UI6","A2RJSGTY72PMVW","3THR0FZ95PF7SK0MYRNAOUHTWDJOLG","","66.69999999925494","img/food5.png","76","67.80000000074506","3","1","false","2","2","1,0.5,0,1,0.5,0,0.5,0,1","0,1,0.5,0,1,0.5,1,0.5,0","3",""
"","html-keyboard-response","158","112564","0.0-235.0","39LNWE0K4VI218A70C78K3DE5H1UI6","A2RJSGTY72PMVW","3THR0FZ95PF7SK0MYRNAOUHTWDJOLG","","null","<img src=""img/food5.png"" style=""width:200px; border:14px solid green;"">","null","","","","","","","","","",""
"","image-keyboard-response","159","112587","0.0-237.0","39LNWE0K4VI218A70C78K3DE5H1UI6","A2RJSGTY72PMVW","3THR0FZ95PF7SK0MYRNAOUHTWDJOLG","","20.899999998509884","img/food6.png","76","22","3","1","false","1","2","1,0.5,0,1,0.5,0,0.5,0,1","0,1,0.5,0,1,0.5,1,0.5,0","3",""
"","html-keyboard-response","160","112898","0.0-238.0","39LNWE0K4VI218A70C78K3DE5H1UI6","A2RJSGTY72PMVW","3THR0FZ95PF7SK0MYRNAOUHTWDJOLG","","null","<img src=""img/food6.png"" style=""width:200px; border:14px solid green;"">","null","","","","","","","","","",""
"","image-keyboard-response","161","112926","0.0-240.0","39LNWE0K4VI218A70C78K3DE5H1UI6","A2RJSGTY72PMVW","3THR0FZ95PF7SK0MYRNAOUHTWDJOLG","","27","img/food5.png","75","27.899999998509884","2","1","false","2","2","1,0.5,0,1,0.5,0,0.5,0,1","0,1,0.5,0,1,0.5,1,0.5,0","3",""
"","html-keyboard-response","162","113229","0.0-241.0","39LNWE0K4VI218A70C78K3DE5H1UI6","A2RJSGTY72PMVW","3THR0FZ95PF7SK0MYRNAOUHTWDJOLG","","null","<img src=""img/food5.png"" style=""width:200px; border:14px solid green;"">","null","","","","","","","","","",""
"","image-keyboard-response","163","113267","0.0-243.0","39LNWE0K4VI218A70C78K3DE5H1UI6","A2RJSGTY72PMVW","3THR0FZ95PF7SK0MYRNAOUHTWDJOLG","","37.099999997764826","img/food6.png","74","38.100000001490116","1","0","false","1","2","1,0.5,0,1,0.5,0,0.5,0,1","0,1,0.5,0,1,0.5,1,0.5,0","3",""
"","html-keyboard-response","164","113569","0.0-244.0","39LNWE0K4VI218A70C78K3DE5H1UI6","A2RJSGTY72PMVW","3THR0FZ95PF7SK0MYRNAOUHTWDJOLG","","null","<img src=""img/food6.png"" style=""width:200px;border:14px solid red;"">","null","","","","","","","","","",""
"","image-keyboard-response","165","113623","0.0-246.0","39LNWE0K4VI218A70C78K3DE5H1UI6","A2RJSGTY72PMVW","3THR0FZ95PF7SK0MYRNAOUHTWDJOLG","","52","img/food5.png","75","52.899999998509884","2","1","false","2","2","1,0.5,0,1,0.5,0,0.5,0,1","0,1,0.5,0,1,0.5,1,0.5,0","3",""
"","html-keyboard-response","166","113925","0.0-247.0","39LNWE0K4VI218A70C78K3DE5H1UI6","A2RJSGTY72PMVW","3THR0FZ95PF7SK0MYRNAOUHTWDJOLG","","null","<img src=""img/food5.png"" style=""width:200px; border:14px solid green;"">","null","","","","","","","","","",""
"","image-keyboard-response","167","113988","0.0-249.0","39LNWE0K4VI218A70C78K3DE5H1UI6","A2RJSGTY72PMVW","3THR0FZ95PF7SK0MYRNAOUHTWDJOLG","","61.399999998509884","img/food6.png","76","62.399999998509884","3","0","false","1","2","1,0.5,0,1,0.5,0,0.5,0,1","0,1,0.5,0,1,0.5,1,0.5,0","3",""
"","html-keyboard-response","168","114291","0.0-250.0","39LNWE0K4VI218A70C78K3DE5H1UI6","A2RJSGTY72PMVW","3THR0FZ95PF7SK0MYRNAOUHTWDJOLG","","null","<img src=""img/food6.png"" style=""width:200px;border:14px solid red;"">","null","","","","","","","","","",""
"","image-keyboard-response","169","114317","0.0-252.0","39LNWE0K4VI218A70C78K3DE5H1UI6","A2RJSGTY72PMVW","3THR0FZ95PF7SK0MYRNAOUHTWDJOLG","","24","img/food6.png","76","25.400000002235174","3","1","false","1","2","1,0.5,0,1,0.5,0,0.5,0,1","0,1,0.5,0,1,0.5,1,0.5,0","3",""
"","html-keyboard-response","170","114618","0.0-253.0","39LNWE0K4VI218A70C78K3DE5H1UI6","A2RJSGTY72PMVW","3THR0FZ95PF7SK0MYRNAOUHTWDJOLG","","null","<img src=""img/food6.png"" style=""width:200px; border:14px solid green;"">","null","","","","","","","","","",""
"","image-keyboard-response","171","114644","0.0-255.0","39LNWE0K4VI218A70C78K3DE5H1UI6","A2RJSGTY72PMVW","3THR0FZ95PF7SK0MYRNAOUHTWDJOLG","","24.400000002235174","img/food4.png","75","25.5","2","0","false","3","2","1,0.5,0,1,0.5,0,0.5,0,1","0,1,0.5,0,1,0.5,1,0.5,0","3",""
"","html-keyboard-response","172","114947","0.0-256.0","39LNWE0K4VI218A70C78K3DE5H1UI6","A2RJSGTY72PMVW","3THR0FZ95PF7SK0MYRNAOUHTWDJOLG","","null","<img src=""img/food4.png"" style=""width:200px;border:14px solid red;"">","null","","","","","","","","","",""
"","image-keyboard-response","173","115009","0.0-258.0","39LNWE0K4VI218A70C78K3DE5H1UI6","A2RJSGTY72PMVW","3THR0FZ95PF7SK0MYRNAOUHTWDJOLG","","60.30000000074506","img/food5.png","74","61.399999998509884","1","0","false","2","2","1,0.5,0,1,0.5,0,0.5,0,1","0,1,0.5,0,1,0.5,1,0.5,0","3",""
"","html-keyboard-response","174","115311","0.0-259.0","39LNWE0K4VI218A70C78K3DE5H1UI6","A2RJSGTY72PMVW","3THR0FZ95PF7SK0MYRNAOUHTWDJOLG","","null","<img src=""img/food5.png"" style=""width:200px;border:14px solid red;"">","null","","","","","","","","","",""
"","image-keyboard-response","175","115366","0.0-261.0","39LNWE0K4VI218A70C78K3DE5H1UI6","A2RJSGTY72PMVW","3THR0FZ95PF7SK0MYRNAOUHTWDJOLG","","53.900000002235174","img/food4.png","74","54.899999998509884","1","1","false","3","2","1,0.5,0,1,0.5,0,0.5,0,1","0,1,0.5,0,1,0.5,1,0.5,0","3",""
"","html-keyboard-response","176","115670","0.0-262.0","39LNWE0K4VI218A70C78K3DE5H1UI6","A2RJSGTY72PMVW","3THR0FZ95PF7SK0MYRNAOUHTWDJOLG","","null","<img src=""img/food4.png"" style=""width:200px; border:14px solid green;"">","null","","","","","","","","","",""
"","image-keyboard-response","177","115715","0.0-264.0","39LNWE0K4VI218A70C78K3DE5H1UI6","A2RJSGTY72PMVW","3THR0FZ95PF7SK0MYRNAOUHTWDJOLG","","44.30000000074506","img/food6.png","75","45.30000000074506","2","1","false","1","2","1,0.5,0,1,0.5,0,0.5,0,1","0,1,0.5,0,1,0.5,1,0.5,0","3",""
"","html-keyboard-response","178","116017","0.0-265.0","39LNWE0K4VI218A70C78K3DE5H1UI6","A2RJSGTY72PMVW","3THR0FZ95PF7SK0MYRNAOUHTWDJOLG","","null","<img src=""img/food6.png"" style=""width:200px; border:14px solid green;"">","null","","","","","","","","","",""
"","image-keyboard-response","179","116060","0.0-267.0","39LNWE0K4VI218A70C78K3DE5H1UI6","A2RJSGTY72PMVW","3THR0FZ95PF7SK0MYRNAOUHTWDJOLG","","40.69999999925494","img/food6.png","76","41.600000001490116","3","1","false","1","2","1,0.5,0,1,0.5,0,0.5,0,1","0,1,0.5,0,1,0.5,1,0.5,0","3",""
"","html-keyboard-response","180","116363","0.0-268.0","39LNWE0K4VI218A70C78K3DE5H1UI6","A2RJSGTY72PMVW","3THR0FZ95PF7SK0MYRNAOUHTWDJOLG","","null","<img src=""img/food6.png"" style=""width:200px; border:14px solid green;"">","null","","","","","","","","","",""
"","image-keyboard-response","181","116383","0.0-270.0","39LNWE0K4VI218A70C78K3DE5H1UI6","A2RJSGTY72PMVW","3THR0FZ95PF7SK0MYRNAOUHTWDJOLG","","19.099999997764826","img/food6.png","76","19.900000002235174","3","1","false","1","2","1,0.5,0,1,0.5,0,0.5,0,1","0,1,0.5,0,1,0.5,1,0.5,0","3",""
"","html-keyboard-response","182","116685","0.0-271.0","39LNWE0K4VI218A70C78K3DE5H1UI6","A2RJSGTY72PMVW","3THR0FZ95PF7SK0MYRNAOUHTWDJOLG","","null","<img src=""img/food6.png"" style=""width:200px; border:14px solid green;"">","null","","","","","","","","","",""
"","instructions","183","268109","0.0-273.0","39LNWE0K4VI218A70C78K3DE5H1UI6","A2RJSGTY72PMVW","3THR0FZ95PF7SK0MYRNAOUHTWDJOLG","[{""page_index"":0,""viewing_time"":150097.20000000298},{""page_index"":1,""viewing_time"":1325.5}]","151423","","","","","","","","","","","",""
"","image-keyboard-response","184","269467","0.0-274.0","39LNWE0K4VI218A70C78K3DE5H1UI6","A2RJSGTY72PMVW","3THR0FZ95PF7SK0MYRNAOUHTWDJOLG","","1356.800000000745","img/food1.png","76","1358.1000000014901","3","0","","2","1","1,0.5,0,1,0.5,0,0.5,0,1","1,0.5,0,1,0.5,0,0.5,0,1","1",""
"","html-keyboard-response","185","269771","0.0-275.0","39LNWE0K4VI218A70C78K3DE5H1UI6","A2RJSGTY72PMVW","3THR0FZ95PF7SK0MYRNAOUHTWDJOLG","","null","<img src=""img/food1.png"" style=""width:200px;border:14px solid red;"">","null","","","","","","","","","",""
"","image-keyboard-response","186","269978","0.0-276.0","39LNWE0K4VI218A70C78K3DE5H1UI6","A2RJSGTY72PMVW","3THR0FZ95PF7SK0MYRNAOUHTWDJOLG","","205.79999999701977","img/food3.png","75","206.80000000074506","2","1","","1","1","1,0.5,0,1,0.5,0,0.5,0,1","1,0.5,0,1,0.5,0,0.5,0,1","1",""
"","html-keyboard-response","187","270280","0.0-277.0","39LNWE0K4VI218A70C78K3DE5H1UI6","A2RJSGTY72PMVW","3THR0FZ95PF7SK0MYRNAOUHTWDJOLG","","null","<img src=""img/food3.png"" style=""width:200px; border:14px solid green;"">","null","","","","","","","","","",""
"","image-keyboard-response","188","270603","0.0-278.0","39LNWE0K4VI218A70C78K3DE5H1UI6","A2RJSGTY72PMVW","3THR0FZ95PF7SK0MYRNAOUHTWDJOLG","","321.5","img/food1.png","75","322.80000000074506","2","1","","2","1","1,0.5,0,1,0.5,0,0.5,0,1","1,0.5,0,1,0.5,0,0.5,0,1","1",""
"","html-keyboard-response","189","270906","0.0-279.0","39LNWE0K4VI218A70C78K3DE5H1UI6","A2RJSGTY72PMVW","3THR0FZ95PF7SK0MYRNAOUHTWDJOLG","","null","<img src=""img/food1.png"" style=""width:200px; border:14px solid green;"">","null","","","","","","","","","",""
"","image-keyboard-response","190","271243","0.0-280.0","39LNWE0K4VI218A70C78K3DE5H1UI6","A2RJSGTY72PMVW","3THR0FZ95PF7SK0MYRNAOUHTWDJOLG","","336.0999999977648","img/food1.png","75","337.30000000074506","2","0","","2","1","1,0.5,0,1,0.5,0,0.5,0,1","1,0.5,0,1,0.5,0,0.5,0,1","1",""
"","html-keyboard-response","191","271545","0.0-281.0","39LNWE0K4VI218A70C78K3DE5H1UI6","A2RJSGTY72PMVW","3THR0FZ95PF7SK0MYRNAOUHTWDJOLG","","null","<img src=""img/food1.png"" style=""width:200px;border:14px solid red;"">","null","","","","","","","","","",""
"","image-keyboard-response","192","272364","0.0-282.0","39LNWE0K4VI218A70C78K3DE5H1UI6","A2RJSGTY72PMVW","3THR0FZ95PF7SK0MYRNAOUHTWDJOLG","","817.9000000022352","img/food3.png","76","818.6999999992549","3","0","","1","1","1,0.5,0,1,0.5,0,0.5,0,1","1,0.5,0,1,0.5,0,0.5,0,1","1",""
"","html-keyboard-response","193","272667","0.0-283.0","39LNWE0K4VI218A70C78K3DE5H1UI6","A2RJSGTY72PMVW","3THR0FZ95PF7SK0MYRNAOUHTWDJOLG","","null","<img src=""img/food3.png"" style=""width:200px;border:14px solid red;"">","null","","","","","","","","","",""
"","image-keyboard-response","194","272937","0.0-284.0","39LNWE0K4VI218A70C78K3DE5H1UI6","A2RJSGTY72PMVW","3THR0FZ95PF7SK0MYRNAOUHTWDJOLG","","268.69999999925494","img/food3.png","74","269.5999999977648","1","1","","1","1","1,0.5,0,1,0.5,0,0.5,0,1","1,0.5,0,1,0.5,0,0.5,0,1","1",""
"","html-keyboard-response","195","273239","0.0-285.0","39LNWE0K4VI218A70C78K3DE5H1UI6","A2RJSGTY72PMVW","3THR0FZ95PF7SK0MYRNAOUHTWDJOLG","","null","<img src=""img/food3.png"" style=""width:200px; border:14px solid green;"">","null","","","","","","","","","",""
"","image-keyboard-response","196","273501","0.0-286.0","39LNWE0K4VI218A70C78K3DE5H1UI6","A2RJSGTY72PMVW","3THR0FZ95PF7SK0MYRNAOUHTWDJOLG","","260.8999999985099","img/food1.png","76","261.8999999985099","3","0","","2","1","1,0.5,0,1,0.5,0,0.5,0,1","1,0.5,0,1,0.5,0,0.5,0,1","1",""
"","html-keyboard-response","197","273804","0.0-287.0","39LNWE0K4VI218A70C78K3DE5H1UI6","A2RJSGTY72PMVW","3THR0FZ95PF7SK0MYRNAOUHTWDJOLG","","null","<img src=""img/food1.png"" style=""width:200px;border:14px solid red;"">","null","","","","","","","","","",""
"","image-keyboard-response","198","273832","0.0-288.0","39LNWE0K4VI218A70C78K3DE5H1UI6","A2RJSGTY72PMVW","3THR0FZ95PF7SK0MYRNAOUHTWDJOLG","","28","img/food2.png","75","28.5","2","0","","3","1","1,0.5,0,1,0.5,0,0.5,0,1","1,0.5,0,1,0.5,0,0.5,0,1","1",""
"","html-keyboard-response","199","274133","0.0-289.0","39LNWE0K4VI218A70C78K3DE5H1UI6","A2RJSGTY72PMVW","3THR0FZ95PF7SK0MYRNAOUHTWDJOLG","","null","<img src=""img/food2.png"" style=""width:200px;border:14px solid red;"">","null","","","","","","","","","",""
"","image-keyboard-response","200","274527","0.0-290.0","39LNWE0K4VI218A70C78K3DE5H1UI6","A2RJSGTY72PMVW","3THR0FZ95PF7SK0MYRNAOUHTWDJOLG","","392.8999999985099","img/food1.png","74","393.8999999985099","1","1","","2","1","1,0.5,0,1,0.5,0,0.5,0,1","1,0.5,0,1,0.5,0,0.5,0,1","1",""
"","html-keyboard-response","201","274829","0.0-291.0","39LNWE0K4VI218A70C78K3DE5H1UI6","A2RJSGTY72PMVW","3THR0FZ95PF7SK0MYRNAOUHTWDJOLG","","null","<img src=""img/food1.png"" style=""width:200px; border:14px solid green;"">","null","","","","","","","","","",""
"","image-keyboard-response","202","274936","0.0-292.0","39LNWE0K4VI218A70C78K3DE5H1UI6","A2RJSGTY72PMVW","3THR0FZ95PF7SK0MYRNAOUHTWDJOLG","","105.39999999850988","img/food2.png","74","106.30000000074506","1","1","","3","1","1,0.5,0,1,0.5,0,0.5,0,1","1,0.5,0,1,0.5,0,0.5,0,1","1",""
"","html-keyboard-response","203","275239","0.0-293.0","39LNWE0K4VI218A70C78K3DE5H1UI6","A2RJSGTY72PMVW","3THR0FZ95PF7SK0MYRNAOUHTWDJOLG","","null","<img src=""img/food2.png"" style=""width:200px; border:14px solid green;"">","null","","","","","","","","","",""
"","image-keyboard-response","204","275292","0.0-294.0","39LNWE0K4VI218A70C78K3DE5H1UI6","A2RJSGTY72PMVW","3THR0FZ95PF7SK0MYRNAOUHTWDJOLG","","51.899999998509884","img/food3.png","74","52.899999998509884","1","1","","1","1","1,0.5,0,1,0.5,0,0.5,0,1","1,0.5,0,1,0.5,0,0.5,0,1","1",""
"","html-keyboard-response","205","275594","0.0-295.0","39LNWE0K4VI218A70C78K3DE5H1UI6","A2RJSGTY72PMVW","3THR0FZ95PF7SK0MYRNAOUHTWDJOLG","","null","<img src=""img/food3.png"" style=""width:200px; border:14px solid green;"">","null","","","","","","","","","",""
"","image-keyboard-response","206","275628","0.0-296.0","39LNWE0K4VI218A70C78K3DE5H1UI6","A2RJSGTY72PMVW","3THR0FZ95PF7SK0MYRNAOUHTWDJOLG","","32.80000000074506","img/food2.png","74","34.099999997764826","1","1","","3","1","1,0.5,0,1,0.5,0,0.5,0,1","1,0.5,0,1,0.5,0,0.5,0,1","1",""
"","html-keyboard-response","207","275931","0.0-297.0","39LNWE0K4VI218A70C78K3DE5H1UI6","A2RJSGTY72PMVW","3THR0FZ95PF7SK0MYRNAOUHTWDJOLG","","null","<img src=""img/food2.png"" style=""width:200px; border:14px solid green;"">","null","","","","","","","","","",""
"","image-keyboard-response","208","276049","0.0-298.0","39LNWE0K4VI218A70C78K3DE5H1UI6","A2RJSGTY72PMVW","3THR0FZ95PF7SK0MYRNAOUHTWDJOLG","","117.09999999776483","img/food1.png","74","118.19999999925494","1","1","","2","1","1,0.5,0,1,0.5,0,0.5,0,1","1,0.5,0,1,0.5,0,0.5,0,1","1",""
"","html-keyboard-response","209","276352","0.0-299.0","39LNWE0K4VI218A70C78K3DE5H1UI6","A2RJSGTY72PMVW","3THR0FZ95PF7SK0MYRNAOUHTWDJOLG","","null","<img src=""img/food1.png"" style=""width:200px; border:14px solid green;"">","null","","","","","","","","","",""
"","image-keyboard-response","210","276447","0.0-300.0","39LNWE0K4VI218A70C78K3DE5H1UI6","A2RJSGTY72PMVW","3THR0FZ95PF7SK0MYRNAOUHTWDJOLG","","93.80000000074506","img/food2.png","74","95.09999999776483","1","1","","3","1","1,0.5,0,1,0.5,0,0.5,0,1","1,0.5,0,1,0.5,0,0.5,0,1","1",""
"","html-keyboard-response","211","276750","0.0-301.0","39LNWE0K4VI218A70C78K3DE5H1UI6","A2RJSGTY72PMVW","3THR0FZ95PF7SK0MYRNAOUHTWDJOLG","","null","<img src=""img/food2.png"" style=""width:200px; border:14px solid green;"">","null","","","","","","","","","",""
"","image-keyboard-response","212","276829","0.0-302.0","39LNWE0K4VI218A70C78K3DE5H1UI6","A2RJSGTY72PMVW","3THR0FZ95PF7SK0MYRNAOUHTWDJOLG","","77.60000000149012","img/food1.png","74","78.80000000074506","1","1","","2","1","1,0.5,0,1,0.5,0,0.5,0,1","1,0.5,0,1,0.5,0,0.5,0,1","1",""
"","html-keyboard-response","213","277131","0.0-303.0","39LNWE0K4VI218A70C78K3DE5H1UI6","A2RJSGTY72PMVW","3THR0FZ95PF7SK0MYRNAOUHTWDJOLG","","null","<img src=""img/food1.png"" style=""width:200px; border:14px solid green;"">","null","","","","","","","","","",""
"","image-keyboard-response","214","277307","0.0-304.0","39LNWE0K4VI218A70C78K3DE5H1UI6","A2RJSGTY72PMVW","3THR0FZ95PF7SK0MYRNAOUHTWDJOLG","","174.60000000149012","img/food1.png","74","175.60000000149012","1","1","","2","1","1,0.5,0,1,0.5,0,0.5,0,1","1,0.5,0,1,0.5,0,0.5,0,1","1",""
"","html-keyboard-response","215","277609","0.0-305.0","39LNWE0K4VI218A70C78K3DE5H1UI6","A2RJSGTY72PMVW","3THR0FZ95PF7SK0MYRNAOUHTWDJOLG","","null","<img src=""img/food1.png"" style=""width:200px; border:14px solid green;"">","null","","","","","","","","","",""
"","image-keyboard-response","216","277757","0.0-306.0","39LNWE0K4VI218A70C78K3DE5H1UI6","A2RJSGTY72PMVW","3THR0FZ95PF7SK0MYRNAOUHTWDJOLG","","147","img/food1.png","74","148.19999999925494","1","1","","2","1","1,0.5,0,1,0.5,0,0.5,0,1","1,0.5,0,1,0.5,0,0.5,0,1","1",""
"","html-keyboard-response","217","278060","0.0-307.0","39LNWE0K4VI218A70C78K3DE5H1UI6","A2RJSGTY72PMVW","3THR0FZ95PF7SK0MYRNAOUHTWDJOLG","","null","<img src=""img/food1.png"" style=""width:200px; border:14px solid green;"">","null","","","","","","","","","",""
"","image-keyboard-response","218","278192","0.0-308.0","39LNWE0K4VI218A70C78K3DE5H1UI6","A2RJSGTY72PMVW","3THR0FZ95PF7SK0MYRNAOUHTWDJOLG","","131.09999999776483","img/food2.png","74","132.19999999925494","1","0","","3","1","1,0.5,0,1,0.5,0,0.5,0,1","1,0.5,0,1,0.5,0,0.5,0,1","1",""
"","html-keyboard-response","219","278494","0.0-309.0","39LNWE0K4VI218A70C78K3DE5H1UI6","A2RJSGTY72PMVW","3THR0FZ95PF7SK0MYRNAOUHTWDJOLG","","null","<img src=""img/food2.png"" style=""width:200px;border:14px solid red;"">","null","","","","","","","","","",""
"","image-keyboard-response","220","278621","0.0-310.0","39LNWE0K4VI218A70C78K3DE5H1UI6","A2RJSGTY72PMVW","3THR0FZ95PF7SK0MYRNAOUHTWDJOLG","","125.5","img/food3.png","74","126.59999999776483","1","1","","1","1","1,0.5,0,1,0.5,0,0.5,0,1","1,0.5,0,1,0.5,0,0.5,0,1","1",""
"","html-keyboard-response","221","278924","0.0-311.0","39LNWE0K4VI218A70C78K3DE5H1UI6","A2RJSGTY72PMVW","3THR0FZ95PF7SK0MYRNAOUHTWDJOLG","","null","<img src=""img/food3.png"" style=""width:200px; border:14px solid green;"">","null","","","","","","","","","",""
"","image-keyboard-response","222","279107","0.0-312.0","39LNWE0K4VI218A70C78K3DE5H1UI6","A2RJSGTY72PMVW","3THR0FZ95PF7SK0MYRNAOUHTWDJOLG","","182.5","img/food2.png","74","183.5","1","1","","3","1","1,0.5,0,1,0.5,0,0.5,0,1","1,0.5,0,1,0.5,0,0.5,0,1","1",""
"","html-keyboard-response","223","279410","0.0-313.0","39LNWE0K4VI218A70C78K3DE5H1UI6","A2RJSGTY72PMVW","3THR0FZ95PF7SK0MYRNAOUHTWDJOLG","","null","<img src=""img/food2.png"" style=""width:200px; border:14px solid green;"">","null","","","","","","","","","",""
"","image-keyboard-response","224","279505","0.0-314.0","39LNWE0K4VI218A70C78K3DE5H1UI6","A2RJSGTY72PMVW","3THR0FZ95PF7SK0MYRNAOUHTWDJOLG","","93.5","img/food2.png","74","94.69999999925494","1","0","","3","1","1,0.5,0,1,0.5,0,0.5,0,1","1,0.5,0,1,0.5,0,0.5,0,1","1",""
"","html-keyboard-response","225","279807","0.0-315.0","39LNWE0K4VI218A70C78K3DE5H1UI6","A2RJSGTY72PMVW","3THR0FZ95PF7SK0MYRNAOUHTWDJOLG","","null","<img src=""img/food2.png"" style=""width:200px;border:14px solid red;"">","null","","","","","","","","","",""
"","image-keyboard-response","226","279892","0.0-316.0","39LNWE0K4VI218A70C78K3DE5H1UI6","A2RJSGTY72PMVW","3THR0FZ95PF7SK0MYRNAOUHTWDJOLG","","84.30000000074506","img/food1.png","74","85.30000000074506","1","1","","2","1","1,0.5,0,1,0.5,0,0.5,0,1","1,0.5,0,1,0.5,0,0.5,0,1","1",""
"","html-keyboard-response","227","280194","0.0-317.0","39LNWE0K4VI218A70C78K3DE5H1UI6","A2RJSGTY72PMVW","3THR0FZ95PF7SK0MYRNAOUHTWDJOLG","","null","<img src=""img/food1.png"" style=""width:200px; border:14px solid green;"">","null","","","","","","","","","",""
"","image-keyboard-response","228","280281","0.0-318.0","39LNWE0K4VI218A70C78K3DE5H1UI6","A2RJSGTY72PMVW","3THR0FZ95PF7SK0MYRNAOUHTWDJOLG","","86.5","img/food2.png","74","87.5","1","0","","3","1","1,0.5,0,1,0.5,0,0.5,0,1","1,0.5,0,1,0.5,0,0.5,0,1","1",""
"","html-keyboard-response","229","280583","0.0-319.0","39LNWE0K4VI218A70C78K3DE5H1UI6","A2RJSGTY72PMVW","3THR0FZ95PF7SK0MYRNAOUHTWDJOLG","","null","<img src=""img/food2.png"" style=""width:200px;border:14px solid red;"">","null","","","","","","","","","",""
"","image-keyboard-response","230","280727","0.0-320.0","39LNWE0K4VI218A70C78K3DE5H1UI6","A2RJSGTY72PMVW","3THR0FZ95PF7SK0MYRNAOUHTWDJOLG","","142.10000000149012","img/food1.png","74","143.90000000223517","1","1","","2","1","1,0.5,0,1,0.5,0,0.5,0,1","1,0.5,0,1,0.5,0,0.5,0,1","1",""
"","html-keyboard-response","231","281029","0.0-321.0","39LNWE0K4VI218A70C78K3DE5H1UI6","A2RJSGTY72PMVW","3THR0FZ95PF7SK0MYRNAOUHTWDJOLG","","null","<img src=""img/food1.png"" style=""width:200px; border:14px solid green;"">","null","","","","","","","","","",""
"","image-keyboard-response","232","281111","0.0-322.0","39LNWE0K4VI218A70C78K3DE5H1UI6","A2RJSGTY72PMVW","3THR0FZ95PF7SK0MYRNAOUHTWDJOLG","","80.30000000074506","img/food3.png","74","81.69999999925494","1","1","","1","1","1,0.5,0,1,0.5,0,0.5,0,1","1,0.5,0,1,0.5,0,0.5,0,1","1",""
"","html-keyboard-response","233","281413","0.0-323.0","39LNWE0K4VI218A70C78K3DE5H1UI6","A2RJSGTY72PMVW","3THR0FZ95PF7SK0MYRNAOUHTWDJOLG","","null","<img src=""img/food3.png"" style=""width:200px; border:14px solid green;"">","null","","","","","","","","","",""
"","image-keyboard-response","234","281457","0.0-324.0","39LNWE0K4VI218A70C78K3DE5H1UI6","A2RJSGTY72PMVW","3THR0FZ95PF7SK0MYRNAOUHTWDJOLG","","41.80000000074506","img/food1.png","74","42.900000002235174","1","1","","2","1","1,0.5,0,1,0.5,0,0.5,0,1","1,0.5,0,1,0.5,0,0.5,0,1","1",""
"","html-keyboard-response","235","281759","0.0-325.0","39LNWE0K4VI218A70C78K3DE5H1UI6","A2RJSGTY72PMVW","3THR0FZ95PF7SK0MYRNAOUHTWDJOLG","","null","<img src=""img/food1.png"" style=""width:200px; border:14px solid green;"">","null","","","","","","","","","",""
"","image-keyboard-response","236","281816","0.0-326.0","39LNWE0K4VI218A70C78K3DE5H1UI6","A2RJSGTY72PMVW","3THR0FZ95PF7SK0MYRNAOUHTWDJOLG","","55.600000001490116","img/food2.png","74","56.80000000074506","1","1","","3","1","1,0.5,0,1,0.5,0,0.5,0,1","1,0.5,0,1,0.5,0,0.5,0,1","1",""
"","html-keyboard-response","237","282119","0.0-327.0","39LNWE0K4VI218A70C78K3DE5H1UI6","A2RJSGTY72PMVW","3THR0FZ95PF7SK0MYRNAOUHTWDJOLG","","null","<img src=""img/food2.png"" style=""width:200px; border:14px solid green;"">","null","","","","","","","","","",""
"","image-keyboard-response","238","282167","0.0-328.0","39LNWE0K4VI218A70C78K3DE5H1UI6","A2RJSGTY72PMVW","3THR0FZ95PF7SK0MYRNAOUHTWDJOLG","","47.600000001490116","img/food3.png","74","48.19999999925494","1","1","","1","1","1,0.5,0,1,0.5,0,0.5,0,1","1,0.5,0,1,0.5,0,0.5,0,1","1",""
"","html-keyboard-response","239","282468","0.0-329.0","39LNWE0K4VI218A70C78K3DE5H1UI6","A2RJSGTY72PMVW","3THR0FZ95PF7SK0MYRNAOUHTWDJOLG","","null","<img src=""img/food3.png"" style=""width:200px; border:14px solid green;"">","null","","","","","","","","","",""
"","image-keyboard-response","240","282614","0.0-330.0","39LNWE0K4VI218A70C78K3DE5H1UI6","A2RJSGTY72PMVW","3THR0FZ95PF7SK0MYRNAOUHTWDJOLG","","144.40000000223517","img/food3.png","74","145.69999999925494","1","1","","1","1","1,0.5,0,1,0.5,0,0.5,0,1","1,0.5,0,1,0.5,0,0.5,0,1","1",""
"","html-keyboard-response","241","282916","0.0-331.0","39LNWE0K4VI218A70C78K3DE5H1UI6","A2RJSGTY72PMVW","3THR0FZ95PF7SK0MYRNAOUHTWDJOLG","","null","<img src=""img/food3.png"" style=""width:200px; border:14px solid green;"">","null","","","","","","","","","",""
"","image-keyboard-response","242","282930","0.0-332.0","39LNWE0K4VI218A70C78K3DE5H1UI6","A2RJSGTY72PMVW","3THR0FZ95PF7SK0MYRNAOUHTWDJOLG","","12.900000002235174","img/food2.png","74","13.799999997019768","1","0","","3","1","1,0.5,0,1,0.5,0,0.5,0,1","1,0.5,0,1,0.5,0,0.5,0,1","1",""
"","html-keyboard-response","243","283232","0.0-333.0","39LNWE0K4VI218A70C78K3DE5H1UI6","A2RJSGTY72PMVW","3THR0FZ95PF7SK0MYRNAOUHTWDJOLG","","null","<img src=""img/food2.png"" style=""width:200px;border:14px solid red;"">","null","","","","","","","","","",""
"","image-keyboard-response","244","283282","0.0-334.0","39LNWE0K4VI218A70C78K3DE5H1UI6","A2RJSGTY72PMVW","3THR0FZ95PF7SK0MYRNAOUHTWDJOLG","","49.19999999925494","img/food1.png","74","50.30000000074506","1","1","","2","1","1,0.5,0,1,0.5,0,0.5,0,1","1,0.5,0,1,0.5,0,0.5,0,1","1",""
"","html-keyboard-response","245","283584","0.0-335.0","39LNWE0K4VI218A70C78K3DE5H1UI6","A2RJSGTY72PMVW","3THR0FZ95PF7SK0MYRNAOUHTWDJOLG","","null","<img src=""img/food1.png"" style=""width:200px; border:14px solid green;"">","null","","","","","","","","","",""
"","image-keyboard-response","246","283680","0.0-336.0","39LNWE0K4VI218A70C78K3DE5H1UI6","A2RJSGTY72PMVW","3THR0FZ95PF7SK0MYRNAOUHTWDJOLG","","94.09999999776483","img/food2.png","74","95.5","1","0","","3","1","1,0.5,0,1,0.5,0,0.5,0,1","1,0.5,0,1,0.5,0,0.5,0,1","1",""
"","html-keyboard-response","247","283982","0.0-337.0","39LNWE0K4VI218A70C78K3DE5H1UI6","A2RJSGTY72PMVW","3THR0FZ95PF7SK0MYRNAOUHTWDJOLG","","null","<img src=""img/food2.png"" style=""width:200px;border:14px solid red;"">","null","","","","","","","","","",""
"","image-keyboard-response","248","284043","0.0-338.0","39LNWE0K4VI218A70C78K3DE5H1UI6","A2RJSGTY72PMVW","3THR0FZ95PF7SK0MYRNAOUHTWDJOLG","","59.5","img/food2.png","74","60.600000001490116","1","0","","3","1","1,0.5,0,1,0.5,0,0.5,0,1","1,0.5,0,1,0.5,0,0.5,0,1","1",""
"","html-keyboard-response","249","284345","0.0-339.0","39LNWE0K4VI218A70C78K3DE5H1UI6","A2RJSGTY72PMVW","3THR0FZ95PF7SK0MYRNAOUHTWDJOLG","","null","<img src=""img/food2.png"" style=""width:200px;border:14px solid red;"">","null","","","","","","","","","",""
"","image-keyboard-response","250","284400","0.0-340.0","39LNWE0K4VI218A70C78K3DE5H1UI6","A2RJSGTY72PMVW","3THR0FZ95PF7SK0MYRNAOUHTWDJOLG","","52.899999998509884","img/food2.png","74","54","1","1","","3","1","1,0.5,0,1,0.5,0,0.5,0,1","1,0.5,0,1,0.5,0,0.5,0,1","1",""
"","html-keyboard-response","251","284702","0.0-341.0","39LNWE0K4VI218A70C78K3DE5H1UI6","A2RJSGTY72PMVW","3THR0FZ95PF7SK0MYRNAOUHTWDJOLG","","null","<img src=""img/food2.png"" style=""width:200px; border:14px solid green;"">","null","","","","","","","","","",""
"","image-keyboard-response","252","284750","0.0-342.0","39LNWE0K4VI218A70C78K3DE5H1UI6","A2RJSGTY72PMVW","3THR0FZ95PF7SK0MYRNAOUHTWDJOLG","","46.5","img/food1.png","74","47.400000002235174","1","1","","2","1","1,0.5,0,1,0.5,0,0.5,0,1","1,0.5,0,1,0.5,0,0.5,0,1","1",""
"","html-keyboard-response","253","285053","0.0-343.0","39LNWE0K4VI218A70C78K3DE5H1UI6","A2RJSGTY72PMVW","3THR0FZ95PF7SK0MYRNAOUHTWDJOLG","","null","<img src=""img/food1.png"" style=""width:200px; border:14px solid green;"">","null","","","","","","","","","",""
"","image-keyboard-response","254","285138","0.0-344.0","39LNWE0K4VI218A70C78K3DE5H1UI6","A2RJSGTY72PMVW","3THR0FZ95PF7SK0MYRNAOUHTWDJOLG","","83.30000000074506","img/food2.png","74","84.39999999850988","1","1","","3","1","1,0.5,0,1,0.5,0,0.5,0,1","1,0.5,0,1,0.5,0,0.5,0,1","1",""
"","html-keyboard-response","255","285441","0.0-345.0","39LNWE0K4VI218A70C78K3DE5H1UI6","A2RJSGTY72PMVW","3THR0FZ95PF7SK0MYRNAOUHTWDJOLG","","null","<img src=""img/food2.png"" style=""width:200px; border:14px solid green;"">","null","","","","","","","","","",""
"","image-keyboard-response","256","286501","0.0-346.0","39LNWE0K4VI218A70C78K3DE5H1UI6","A2RJSGTY72PMVW","3THR0FZ95PF7SK0MYRNAOUHTWDJOLG","","1058.2000000029802","img/food1.png","74","1059.6000000014901","1","1","","2","1","1,0.5,0,1,0.5,0,0.5,0,1","1,0.5,0,1,0.5,0,0.5,0,1","1",""
"","html-keyboard-response","257","286802","0.0-347.0","39LNWE0K4VI218A70C78K3DE5H1UI6","A2RJSGTY72PMVW","3THR0FZ95PF7SK0MYRNAOUHTWDJOLG","","null","<img src=""img/food1.png"" style=""width:200px; border:14px solid green;"">","null","","","","","","","","","",""
"","image-keyboard-response","258","286832","0.0-348.0","39LNWE0K4VI218A70C78K3DE5H1UI6","A2RJSGTY72PMVW","3THR0FZ95PF7SK0MYRNAOUHTWDJOLG","","28.399999998509884","img/food2.png","74","29.5","1","1","","3","1","1,0.5,0,1,0.5,0,0.5,0,1","1,0.5,0,1,0.5,0,0.5,0,1","1",""
"","html-keyboard-response","259","287134","0.0-349.0","39LNWE0K4VI218A70C78K3DE5H1UI6","A2RJSGTY72PMVW","3THR0FZ95PF7SK0MYRNAOUHTWDJOLG","","null","<img src=""img/food2.png"" style=""width:200px; border:14px solid green;"">","null","","","","","","","","","",""
"","image-keyboard-response","260","287274","0.0-350.0","39LNWE0K4VI218A70C78K3DE5H1UI6","A2RJSGTY72PMVW","3THR0FZ95PF7SK0MYRNAOUHTWDJOLG","","138.59999999776483","img/food1.png","74","139.69999999925494","1","1","","2","1","1,0.5,0,1,0.5,0,0.5,0,1","1,0.5,0,1,0.5,0,0.5,0,1","1",""
"","html-keyboard-response","261","287576","0.0-351.0","39LNWE0K4VI218A70C78K3DE5H1UI6","A2RJSGTY72PMVW","3THR0FZ95PF7SK0MYRNAOUHTWDJOLG","","null","<img src=""img/food1.png"" style=""width:200px; border:14px solid green;"">","null","","","","","","","","","",""
"","image-keyboard-response","262","287690","0.0-352.0","39LNWE0K4VI218A70C78K3DE5H1UI6","A2RJSGTY72PMVW","3THR0FZ95PF7SK0MYRNAOUHTWDJOLG","","111.70000000298023","img/food3.png","74","112.89999999850988","1","1","","1","1","1,0.5,0,1,0.5,0,0.5,0,1","1,0.5,0,1,0.5,0,0.5,0,1","1",""
"","html-keyboard-response","263","287991","0.0-353.0","39LNWE0K4VI218A70C78K3DE5H1UI6","A2RJSGTY72PMVW","3THR0FZ95PF7SK0MYRNAOUHTWDJOLG","","null","<img src=""img/food3.png"" style=""width:200px; border:14px solid green;"">","null","","","","","","","","","",""
"","image-keyboard-response","264","288111","0.0-354.0","39LNWE0K4VI218A70C78K3DE5H1UI6","A2RJSGTY72PMVW","3THR0FZ95PF7SK0MYRNAOUHTWDJOLG","","118.30000000074506","img/food1.png","74","119.30000000074506","1","1","","2","1","1,0.5,0,1,0.5,0,0.5,0,1","1,0.5,0,1,0.5,0,0.5,0,1","1",""
"","html-keyboard-response","265","288413","0.0-355.0","39LNWE0K4VI218A70C78K3DE5H1UI6","A2RJSGTY72PMVW","3THR0FZ95PF7SK0MYRNAOUHTWDJOLG","","null","<img src=""img/food1.png"" style=""width:200px; border:14px solid green;"">","null","","","","","","","","","",""
"","image-keyboard-response","266","289929","0.0-356.0","39LNWE0K4VI218A70C78K3DE5H1UI6","A2RJSGTY72PMVW","3THR0FZ95PF7SK0MYRNAOUHTWDJOLG","","1514.300000000745","img/food3.png","74","1515.5","1","1","","1","1","1,0.5,0,1,0.5,0,0.5,0,1","1,0.5,0,1,0.5,0,0.5,0,1","1",""
"","html-keyboard-response","267","290231","0.0-357.0","39LNWE0K4VI218A70C78K3DE5H1UI6","A2RJSGTY72PMVW","3THR0FZ95PF7SK0MYRNAOUHTWDJOLG","","null","<img src=""img/food3.png"" style=""width:200px; border:14px solid green;"">","null","","","","","","","","","",""
"","image-keyboard-response","268","290325","0.0-358.0","39LNWE0K4VI218A70C78K3DE5H1UI6","A2RJSGTY72PMVW","3THR0FZ95PF7SK0MYRNAOUHTWDJOLG","","91","img/food1.png","74","92.70000000298023","1","1","","2","1","1,0.5,0,1,0.5,0,0.5,0,1","1,0.5,0,1,0.5,0,0.5,0,1","1",""
"","html-keyboard-response","269","290627","0.0-359.0","39LNWE0K4VI218A70C78K3DE5H1UI6","A2RJSGTY72PMVW","3THR0FZ95PF7SK0MYRNAOUHTWDJOLG","","null","<img src=""img/food1.png"" style=""width:200px; border:14px solid green;"">","null","","","","","","","","","",""
"","image-keyboard-response","270","290697","0.0-360.0","39LNWE0K4VI218A70C78K3DE5H1UI6","A2RJSGTY72PMVW","3THR0FZ95PF7SK0MYRNAOUHTWDJOLG","","69.19999999925494","img/food1.png","74","70.39999999850988","1","1","","2","1","1,0.5,0,1,0.5,0,0.5,0,1","1,0.5,0,1,0.5,0,0.5,0,1","1",""
"","html-keyboard-response","271","291000","0.0-361.0","39LNWE0K4VI218A70C78K3DE5H1UI6","A2RJSGTY72PMVW","3THR0FZ95PF7SK0MYRNAOUHTWDJOLG","","null","<img src=""img/food1.png"" style=""width:200px; border:14px solid green;"">","null","","","","","","","","","",""
"","image-keyboard-response","272","291033","0.0-362.0","39LNWE0K4VI218A70C78K3DE5H1UI6","A2RJSGTY72PMVW","3THR0FZ95PF7SK0MYRNAOUHTWDJOLG","","31.800000000745058","img/food2.png","74","32.80000000074506","1","1","","3","1","1,0.5,0,1,0.5,0,0.5,0,1","1,0.5,0,1,0.5,0,0.5,0,1","1",""
"","html-keyboard-response","273","291335","0.0-363.0","39LNWE0K4VI218A70C78K3DE5H1UI6","A2RJSGTY72PMVW","3THR0FZ95PF7SK0MYRNAOUHTWDJOLG","","null","<img src=""img/food2.png"" style=""width:200px; border:14px solid green;"">","null","","","","","","","","","",""
"","image-keyboard-response","274","291346","0.0-364.0","39LNWE0K4VI218A70C78K3DE5H1UI6","A2RJSGTY72PMVW","3THR0FZ95PF7SK0MYRNAOUHTWDJOLG","","9","img/food3.png","74","10.600000001490116","1","1","","1","1","1,0.5,0,1,0.5,0,0.5,0,1","1,0.5,0,1,0.5,0,0.5,0,1","1",""
"","html-keyboard-response","275","291647","0.0-365.0","39LNWE0K4VI218A70C78K3DE5H1UI6","A2RJSGTY72PMVW","3THR0FZ95PF7SK0MYRNAOUHTWDJOLG","","null","<img src=""img/food3.png"" style=""width:200px; border:14px solid green;"">","null","","","","","","","","","",""
"","image-keyboard-response","276","291887","0.0-366.0","39LNWE0K4VI218A70C78K3DE5H1UI6","A2RJSGTY72PMVW","3THR0FZ95PF7SK0MYRNAOUHTWDJOLG","","238.89999999850988","img/food3.png","75","240.10000000149012","2","1","","1","1","1,0.5,0,1,0.5,0,0.5,0,1","1,0.5,0,1,0.5,0,0.5,0,1","1",""
"","html-keyboard-response","277","292189","0.0-367.0","39LNWE0K4VI218A70C78K3DE5H1UI6","A2RJSGTY72PMVW","3THR0FZ95PF7SK0MYRNAOUHTWDJOLG","","null","<img src=""img/food3.png"" style=""width:200px; border:14px solid green;"">","null","","","","","","","","","",""
"","image-keyboard-response","278","292333","0.0-368.0","39LNWE0K4VI218A70C78K3DE5H1UI6","A2RJSGTY72PMVW","3THR0FZ95PF7SK0MYRNAOUHTWDJOLG","","142.09999999776483","img/food2.png","75","143.09999999776483","2","0","","3","1","1,0.5,0,1,0.5,0,0.5,0,1","1,0.5,0,1,0.5,0,0.5,0,1","1",""
"","html-keyboard-response","279","292635","0.0-369.0","39LNWE0K4VI218A70C78K3DE5H1UI6","A2RJSGTY72PMVW","3THR0FZ95PF7SK0MYRNAOUHTWDJOLG","","null","<img src=""img/food2.png"" style=""width:200px;border:14px solid red;"">","null","","","","","","","","","",""
"","image-keyboard-response","280","292804","0.0-370.0","39LNWE0K4VI218A70C78K3DE5H1UI6","A2RJSGTY72PMVW","3THR0FZ95PF7SK0MYRNAOUHTWDJOLG","","167.60000000149012","img/food3.png","75","168.69999999925494","2","1","","1","1","1,0.5,0,1,0.5,0,0.5,0,1","1,0.5,0,1,0.5,0,0.5,0,1","1",""
"","html-keyboard-response","281","293106","0.0-371.0","39LNWE0K4VI218A70C78K3DE5H1UI6","A2RJSGTY72PMVW","3THR0FZ95PF7SK0MYRNAOUHTWDJOLG","","null","<img src=""img/food3.png"" style=""width:200px; border:14px solid green;"">","null","","","","","","","","","",""
"","image-keyboard-response","282","293208","0.0-372.0","39LNWE0K4VI218A70C78K3DE5H1UI6","A2RJSGTY72PMVW","3THR0FZ95PF7SK0MYRNAOUHTWDJOLG","","100.30000000074506","img/food2.png","74","101.29999999701977","1","0","","3","1","1,0.5,0,1,0.5,0,0.5,0,1","1,0.5,0,1,0.5,0,0.5,0,1","1",""
"","html-keyboard-response","283","293510","0.0-373.0","39LNWE0K4VI218A70C78K3DE5H1UI6","A2RJSGTY72PMVW","3THR0FZ95PF7SK0MYRNAOUHTWDJOLG","","null","<img src=""img/food2.png"" style=""width:200px;border:14px solid red;"">","null","","","","","","","","","",""
"","image-keyboard-response","284","293564","0.0-374.0","39LNWE0K4VI218A70C78K3DE5H1UI6","A2RJSGTY72PMVW","3THR0FZ95PF7SK0MYRNAOUHTWDJOLG","","53.30000000074506","img/food3.png","74","54.30000000074506","1","1","","1","1","1,0.5,0,1,0.5,0,0.5,0,1","1,0.5,0,1,0.5,0,0.5,0,1","1",""
"","html-keyboard-response","285","293866","0.0-375.0","39LNWE0K4VI218A70C78K3DE5H1UI6","A2RJSGTY72PMVW","3THR0FZ95PF7SK0MYRNAOUHTWDJOLG","","null","<img src=""img/food3.png"" style=""width:200px; border:14px solid green;"">","null","","","","","","","","","",""
"","image-keyboard-response","286","293888","0.0-376.0","39LNWE0K4VI218A70C78K3DE5H1UI6","A2RJSGTY72PMVW","3THR0FZ95PF7SK0MYRNAOUHTWDJOLG","","20.599999997764826","img/food3.png","75","21.5","2","0","","1","1","1,0.5,0,1,0.5,0,0.5,0,1","1,0.5,0,1,0.5,0,0.5,0,1","1",""
"","html-keyboard-response","287","294190","0.0-377.0","39LNWE0K4VI218A70C78K3DE5H1UI6","A2RJSGTY72PMVW","3THR0FZ95PF7SK0MYRNAOUHTWDJOLG","","null","<img src=""img/food3.png"" style=""width:200px;border:14px solid red;"">","null","","","","","","","","","",""
"","image-keyboard-response","288","294253","0.0-378.0","39LNWE0K4VI218A70C78K3DE5H1UI6","A2RJSGTY72PMVW","3THR0FZ95PF7SK0MYRNAOUHTWDJOLG","","61.399999998509884","img/food3.png","75","62.70000000298023","2","0","","1","1","1,0.5,0,1,0.5,0,0.5,0,1","1,0.5,0,1,0.5,0,0.5,0,1","1",""
"","html-keyboard-response","289","294555","0.0-379.0","39LNWE0K4VI218A70C78K3DE5H1UI6","A2RJSGTY72PMVW","3THR0FZ95PF7SK0MYRNAOUHTWDJOLG","","null","<img src=""img/food3.png"" style=""width:200px;border:14px solid red;"">","null","","","","","","","","","",""
"","image-keyboard-response","290","294730","0.0-380.0","39LNWE0K4VI218A70C78K3DE5H1UI6","A2RJSGTY72PMVW","3THR0FZ95PF7SK0MYRNAOUHTWDJOLG","","174.09999999776483","img/food3.png","76","175.19999999925494","3","0","","1","1","1,0.5,0,1,0.5,0,0.5,0,1","1,0.5,0,1,0.5,0,0.5,0,1","1",""
"","html-keyboard-response","291","295032","0.0-381.0","39LNWE0K4VI218A70C78K3DE5H1UI6","A2RJSGTY72PMVW","3THR0FZ95PF7SK0MYRNAOUHTWDJOLG","","null","<img src=""img/food3.png"" style=""width:200px;border:14px solid red;"">","null","","","","","","","","","",""
"","image-keyboard-response","292","295083","0.0-382.0","39LNWE0K4VI218A70C78K3DE5H1UI6","A2RJSGTY72PMVW","3THR0FZ95PF7SK0MYRNAOUHTWDJOLG","","49.599999997764826","img/food3.png","76","50.599999997764826","3","0","","1","1","1,0.5,0,1,0.5,0,0.5,0,1","1,0.5,0,1,0.5,0,0.5,0,1","1",""
"","html-keyboard-response","293","295385","0.0-383.0","39LNWE0K4VI218A70C78K3DE5H1UI6","A2RJSGTY72PMVW","3THR0FZ95PF7SK0MYRNAOUHTWDJOLG","","null","<img src=""img/food3.png"" style=""width:200px;border:14px solid red;"">","null","","","","","","","","","",""
"","image-keyboard-response","294","295398","0.0-384.0","39LNWE0K4VI218A70C78K3DE5H1UI6","A2RJSGTY72PMVW","3THR0FZ95PF7SK0MYRNAOUHTWDJOLG","","11.400000002235174","img/food1.png","76","12.5","3","0","","2","1","1,0.5,0,1,0.5,0,0.5,0,1","1,0.5,0,1,0.5,0,0.5,0,1","1",""
"","html-keyboard-response","295","295700","0.0-385.0","39LNWE0K4VI218A70C78K3DE5H1UI6","A2RJSGTY72PMVW","3THR0FZ95PF7SK0MYRNAOUHTWDJOLG","","null","<img src=""img/food1.png"" style=""width:200px;border:14px solid red;"">","null","","","","","","","","","",""
"","image-keyboard-response","296","295911","0.0-386.0","39LNWE0K4VI218A70C78K3DE5H1UI6","A2RJSGTY72PMVW","3THR0FZ95PF7SK0MYRNAOUHTWDJOLG","","209.40000000223517","img/food1.png","74","210.5","1","1","","2","1","1,0.5,0,1,0.5,0,0.5,0,1","1,0.5,0,1,0.5,0,0.5,0,1","1",""
"","html-keyboard-response","297","296213","0.0-387.0","39LNWE0K4VI218A70C78K3DE5H1UI6","A2RJSGTY72PMVW","3THR0FZ95PF7SK0MYRNAOUHTWDJOLG","","null","<img src=""img/food1.png"" style=""width:200px; border:14px solid green;"">","null","","","","","","","","","",""
"","image-keyboard-response","298","296230","0.0-388.0","39LNWE0K4VI218A70C78K3DE5H1UI6","A2RJSGTY72PMVW","3THR0FZ95PF7SK0MYRNAOUHTWDJOLG","","16.100000001490116","img/food3.png","74","17","1","1","","1","1","1,0.5,0,1,0.5,0,0.5,0,1","1,0.5,0,1,0.5,0,0.5,0,1","1",""
"","html-keyboard-response","299","296533","0.0-389.0","39LNWE0K4VI218A70C78K3DE5H1UI6","A2RJSGTY72PMVW","3THR0FZ95PF7SK0MYRNAOUHTWDJOLG","","null","<img src=""img/food3.png"" style=""width:200px; border:14px solid green;"">","null","","","","","","","","","",""
"","image-keyboard-response","300","296590","0.0-390.0","39LNWE0K4VI218A70C78K3DE5H1UI6","A2RJSGTY72PMVW","3THR0FZ95PF7SK0MYRNAOUHTWDJOLG","","56.5","img/food2.png","74","57.600000001490116","1","1","","3","1","1,0.5,0,1,0.5,0,0.5,0,1","1,0.5,0,1,0.5,0,0.5,0,1","1",""
"","html-keyboard-response","301","296893","0.0-391.0","39LNWE0K4VI218A70C78K3DE5H1UI6","A2RJSGTY72PMVW","3THR0FZ95PF7SK0MYRNAOUHTWDJOLG","","null","<img src=""img/food2.png"" style=""width:200px; border:14px solid green;"">","null","","","","","","","","","",""
"","image-keyboard-response","302","296934","0.0-392.0","39LNWE0K4VI218A70C78K3DE5H1UI6","A2RJSGTY72PMVW","3THR0FZ95PF7SK0MYRNAOUHTWDJOLG","","40.100000001490116","img/food3.png","74","41","1","1","","1","1","1,0.5,0,1,0.5,0,0.5,0,1","1,0.5,0,1,0.5,0,0.5,0,1","1",""
"","html-keyboard-response","303","297236","0.0-393.0","39LNWE0K4VI218A70C78K3DE5H1UI6","A2RJSGTY72PMVW","3THR0FZ95PF7SK0MYRNAOUHTWDJOLG","","null","<img src=""img/food3.png"" style=""width:200px; border:14px solid green;"">","null","","","","","","","","","",""
"","image-keyboard-response","304","297253","0.0-394.0","39LNWE0K4VI218A70C78K3DE5H1UI6","A2RJSGTY72PMVW","3THR0FZ95PF7SK0MYRNAOUHTWDJOLG","","15.399999998509884","img/food2.png","74","16.300000000745058","1","1","","3","1","1,0.5,0,1,0.5,0,0.5,0,1","1,0.5,0,1,0.5,0,0.5,0,1","1",""
"","html-keyboard-response","305","297554","0.0-395.0","39LNWE0K4VI218A70C78K3DE5H1UI6","A2RJSGTY72PMVW","3THR0FZ95PF7SK0MYRNAOUHTWDJOLG","","null","<img src=""img/food2.png"" style=""width:200px; border:14px solid green;"">","null","","","","","","","","","",""
"","image-keyboard-response","306","297569","0.0-396.0","39LNWE0K4VI218A70C78K3DE5H1UI6","A2RJSGTY72PMVW","3THR0FZ95PF7SK0MYRNAOUHTWDJOLG","","13.599999997764826","img/food1.png","74","14.5","1","1","","2","1","1,0.5,0,1,0.5,0,0.5,0,1","1,0.5,0,1,0.5,0,0.5,0,1","1",""
"","html-keyboard-response","307","297872","0.0-397.0","39LNWE0K4VI218A70C78K3DE5H1UI6","A2RJSGTY72PMVW","3THR0FZ95PF7SK0MYRNAOUHTWDJOLG","","null","<img src=""img/food1.png"" style=""width:200px; border:14px solid green;"">","null","","","","","","","","","",""
"","image-keyboard-response","308","297960","0.0-398.0","39LNWE0K4VI218A70C78K3DE5H1UI6","A2RJSGTY72PMVW","3THR0FZ95PF7SK0MYRNAOUHTWDJOLG","","85.79999999701977","img/food2.png","74","87","1","1","","3","1","1,0.5,0,1,0.5,0,0.5,0,1","1,0.5,0,1,0.5,0,0.5,0,1","1",""
"","html-keyboard-response","309","298261","0.0-399.0","39LNWE0K4VI218A70C78K3DE5H1UI6","A2RJSGTY72PMVW","3THR0FZ95PF7SK0MYRNAOUHTWDJOLG","","null","<img src=""img/food2.png"" style=""width:200px; border:14px solid green;"">","null","","","","","","","","","",""
"","image-keyboard-response","310","298316","0.0-400.0","39LNWE0K4VI218A70C78K3DE5H1UI6","A2RJSGTY72PMVW","3THR0FZ95PF7SK0MYRNAOUHTWDJOLG","","53.19999999925494","img/food2.png","74","54.30000000074506","1","1","","3","1","1,0.5,0,1,0.5,0,0.5,0,1","1,0.5,0,1,0.5,0,0.5,0,1","1",""
"","html-keyboard-response","311","298618","0.0-401.0","39LNWE0K4VI218A70C78K3DE5H1UI6","A2RJSGTY72PMVW","3THR0FZ95PF7SK0MYRNAOUHTWDJOLG","","null","<img src=""img/food2.png"" style=""width:200px; border:14px solid green;"">","null","","","","","","","","","",""
"","image-keyboard-response","312","298643","0.0-402.0","39LNWE0K4VI218A70C78K3DE5H1UI6","A2RJSGTY72PMVW","3THR0FZ95PF7SK0MYRNAOUHTWDJOLG","","23.600000001490116","img/food2.png","74","24.599999997764826","1","0","","3","1","1,0.5,0,1,0.5,0,0.5,0,1","1,0.5,0,1,0.5,0,0.5,0,1","1",""
"","html-keyboard-response","313","298945","0.0-403.0","39LNWE0K4VI218A70C78K3DE5H1UI6","A2RJSGTY72PMVW","3THR0FZ95PF7SK0MYRNAOUHTWDJOLG","","null","<img src=""img/food2.png"" style=""width:200px;border:14px solid red;"">","null","","","","","","","","","",""
"","image-keyboard-response","314","298959","0.0-404.0","39LNWE0K4VI218A70C78K3DE5H1UI6","A2RJSGTY72PMVW","3THR0FZ95PF7SK0MYRNAOUHTWDJOLG","","13","img/food2.png","74","14","1","0","","3","1","1,0.5,0,1,0.5,0,0.5,0,1","1,0.5,0,1,0.5,0,0.5,0,1","1",""
"","html-keyboard-response","315","299261","0.0-405.0","39LNWE0K4VI218A70C78K3DE5H1UI6","A2RJSGTY72PMVW","3THR0FZ95PF7SK0MYRNAOUHTWDJOLG","","null","<img src=""img/food2.png"" style=""width:200px;border:14px solid red;"">","null","","","","","","","","","",""
"","image-keyboard-response","316","299287","0.0-406.0","39LNWE0K4VI218A70C78K3DE5H1UI6","A2RJSGTY72PMVW","3THR0FZ95PF7SK0MYRNAOUHTWDJOLG","","24.5","img/food1.png","74","25.599999997764826","1","1","","2","1","1,0.5,0,1,0.5,0,0.5,0,1","1,0.5,0,1,0.5,0,0.5,0,1","1",""
"","html-keyboard-response","317","299590","0.0-407.0","39LNWE0K4VI218A70C78K3DE5H1UI6","A2RJSGTY72PMVW","3THR0FZ95PF7SK0MYRNAOUHTWDJOLG","","null","<img src=""img/food1.png"" style=""width:200px; border:14px solid green;"">","null","","","","","","","","","",""
"","image-keyboard-response","318","299724","0.0-408.0","39LNWE0K4VI218A70C78K3DE5H1UI6","A2RJSGTY72PMVW","3THR0FZ95PF7SK0MYRNAOUHTWDJOLG","","133.5","img/food3.png","74","134.19999999925494","1","1","","1","1","1,0.5,0,1,0.5,0,0.5,0,1","1,0.5,0,1,0.5,0,0.5,0,1","1",""
"","html-keyboard-response","319","300026","0.0-409.0","39LNWE0K4VI218A70C78K3DE5H1UI6","A2RJSGTY72PMVW","3THR0FZ95PF7SK0MYRNAOUHTWDJOLG","","null","<img src=""img/food3.png"" style=""width:200px; border:14px solid green;"">","null","","","","","","","","","",""
"","image-keyboard-response","320","300130","0.0-410.0","39LNWE0K4VI218A70C78K3DE5H1UI6","A2RJSGTY72PMVW","3THR0FZ95PF7SK0MYRNAOUHTWDJOLG","","102.40000000223517","img/food3.png","74","105.5","1","1","","1","1","1,0.5,0,1,0.5,0,0.5,0,1","1,0.5,0,1,0.5,0,0.5,0,1","1",""
"","html-keyboard-response","321","300434","0.0-411.0","39LNWE0K4VI218A70C78K3DE5H1UI6","A2RJSGTY72PMVW","3THR0FZ95PF7SK0MYRNAOUHTWDJOLG","","null","<img src=""img/food3.png"" style=""width:200px; border:14px solid green;"">","null","","","","","","","","","",""
"","image-keyboard-response","322","300516","0.0-412.0","39LNWE0K4VI218A70C78K3DE5H1UI6","A2RJSGTY72PMVW","3THR0FZ95PF7SK0MYRNAOUHTWDJOLG","","79.80000000074506","img/food1.png","74","80.89999999850988","1","1","","2","1","1,0.5,0,1,0.5,0,0.5,0,1","1,0.5,0,1,0.5,0,0.5,0,1","1",""
"","html-keyboard-response","323","300818","0.0-413.0","39LNWE0K4VI218A70C78K3DE5H1UI6","A2RJSGTY72PMVW","3THR0FZ95PF7SK0MYRNAOUHTWDJOLG","","null","<img src=""img/food1.png"" style=""width:200px; border:14px solid green;"">","null","","","","","","","","","",""
"","image-keyboard-response","324","300831","0.0-414.0","39LNWE0K4VI218A70C78K3DE5H1UI6","A2RJSGTY72PMVW","3THR0FZ95PF7SK0MYRNAOUHTWDJOLG","","11.899999998509884","img/food2.png","74","12.900000002235174","1","1","","3","1","1,0.5,0,1,0.5,0,0.5,0,1","1,0.5,0,1,0.5,0,0.5,0,1","1",""
"","html-keyboard-response","325","301134","0.0-415.0","39LNWE0K4VI218A70C78K3DE5H1UI6","A2RJSGTY72PMVW","3THR0FZ95PF7SK0MYRNAOUHTWDJOLG","","null","<img src=""img/food2.png"" style=""width:200px; border:14px solid green;"">","null","","","","","","","","","",""
"","image-keyboard-response","326","301168","0.0-416.0","39LNWE0K4VI218A70C78K3DE5H1UI6","A2RJSGTY72PMVW","3THR0FZ95PF7SK0MYRNAOUHTWDJOLG","","32.599999997764826","img/food1.png","74","33.69999999925494","1","1","","2","1","1,0.5,0,1,0.5,0,0.5,0,1","1,0.5,0,1,0.5,0,0.5,0,1","1",""
"","html-keyboard-response","327","301470","0.0-417.0","39LNWE0K4VI218A70C78K3DE5H1UI6","A2RJSGTY72PMVW","3THR0FZ95PF7SK0MYRNAOUHTWDJOLG","","null","<img src=""img/food1.png"" style=""width:200px; border:14px solid green;"">","null","","","","","","","","","",""
"","image-keyboard-response","328","301527","0.0-418.0","39LNWE0K4VI218A70C78K3DE5H1UI6","A2RJSGTY72PMVW","3THR0FZ95PF7SK0MYRNAOUHTWDJOLG","","55.30000000074506","img/food1.png","74","56.5","1","1","","2","1","1,0.5,0,1,0.5,0,0.5,0,1","1,0.5,0,1,0.5,0,0.5,0,1","1",""
"","html-keyboard-response","329","301829","0.0-419.0","39LNWE0K4VI218A70C78K3DE5H1UI6","A2RJSGTY72PMVW","3THR0FZ95PF7SK0MYRNAOUHTWDJOLG","","null","<img src=""img/food1.png"" style=""width:200px; border:14px solid green;"">","null","","","","","","","","","",""
"","image-keyboard-response","330","301874","0.0-420.0","39LNWE0K4VI218A70C78K3DE5H1UI6","A2RJSGTY72PMVW","3THR0FZ95PF7SK0MYRNAOUHTWDJOLG","","43.19999999925494","img/food3.png","74","44.30000000074506","1","1","","1","1","1,0.5,0,1,0.5,0,0.5,0,1","1,0.5,0,1,0.5,0,0.5,0,1","1",""
"","html-keyboard-response","331","302177","0.0-421.0","39LNWE0K4VI218A70C78K3DE5H1UI6","A2RJSGTY72PMVW","3THR0FZ95PF7SK0MYRNAOUHTWDJOLG","","null","<img src=""img/food3.png"" style=""width:200px; border:14px solid green;"">","null","","","","","","","","","",""
"","image-keyboard-response","332","302186","0.0-422.0","39LNWE0K4VI218A70C78K3DE5H1UI6","A2RJSGTY72PMVW","3THR0FZ95PF7SK0MYRNAOUHTWDJOLG","","8.199999999254942","img/food2.png","74","8.900000002235174","1","0","","3","1","1,0.5,0,1,0.5,0,0.5,0,1","1,0.5,0,1,0.5,0,0.5,0,1","1",""
"","html-keyboard-response","333","302487","0.0-423.0","39LNWE0K4VI218A70C78K3DE5H1UI6","A2RJSGTY72PMVW","3THR0FZ95PF7SK0MYRNAOUHTWDJOLG","","null","<img src=""img/food2.png"" style=""width:200px;border:14px solid red;"">","null","","","","","","","","","",""
"","image-keyboard-response","334","302501","0.0-424.0","39LNWE0K4VI218A70C78K3DE5H1UI6","A2RJSGTY72PMVW","3THR0FZ95PF7SK0MYRNAOUHTWDJOLG","","12.200000002980232","img/food3.png","74","13.199999999254942","1","1","","1","1","1,0.5,0,1,0.5,0,0.5,0,1","1,0.5,0,1,0.5,0,0.5,0,1","1",""
"","html-keyboard-response","335","302802","0.0-425.0","39LNWE0K4VI218A70C78K3DE5H1UI6","A2RJSGTY72PMVW","3THR0FZ95PF7SK0MYRNAOUHTWDJOLG","","null","<img src=""img/food3.png"" style=""width:200px; border:14px solid green;"">","null","","","","","","","","","",""
"","image-keyboard-response","336","302824","0.0-426.0","39LNWE0K4VI218A70C78K3DE5H1UI6","A2RJSGTY72PMVW","3THR0FZ95PF7SK0MYRNAOUHTWDJOLG","","20.300000000745058","img/food2.png","74","21.199999999254942","1","0","","3","1","1,0.5,0,1,0.5,0,0.5,0,1","1,0.5,0,1,0.5,0,0.5,0,1","1",""
"","html-keyboard-response","337","303125","0.0-427.0","39LNWE0K4VI218A70C78K3DE5H1UI6","A2RJSGTY72PMVW","3THR0FZ95PF7SK0MYRNAOUHTWDJOLG","","null","<img src=""img/food2.png"" style=""width:200px;border:14px solid red;"">","null","","","","","","","","","",""
"","image-keyboard-response","338","303145","0.0-428.0","39LNWE0K4VI218A70C78K3DE5H1UI6","A2RJSGTY72PMVW","3THR0FZ95PF7SK0MYRNAOUHTWDJOLG","","18.300000000745058","img/food1.png","74","19.200000002980232","1","1","","2","1","1,0.5,0,1,0.5,0,0.5,0,1","1,0.5,0,1,0.5,0,0.5,0,1","1",""
"","html-keyboard-response","339","303447","0.0-429.0","39LNWE0K4VI218A70C78K3DE5H1UI6","A2RJSGTY72PMVW","3THR0FZ95PF7SK0MYRNAOUHTWDJOLG","","null","<img src=""img/food1.png"" style=""width:200px; border:14px solid green;"">","null","","","","","","","","","",""
"","image-keyboard-response","340","303456","0.0-430.0","39LNWE0K4VI218A70C78K3DE5H1UI6","A2RJSGTY72PMVW","3THR0FZ95PF7SK0MYRNAOUHTWDJOLG","","8.400000002235174","img/food3.png","74","9.399999998509884","1","1","","1","1","1,0.5,0,1,0.5,0,0.5,0,1","1,0.5,0,1,0.5,0,0.5,0,1","1",""
"","html-keyboard-response","341","303759","0.0-431.0","39LNWE0K4VI218A70C78K3DE5H1UI6","A2RJSGTY72PMVW","3THR0FZ95PF7SK0MYRNAOUHTWDJOLG","","null","<img src=""img/food3.png"" style=""width:200px; border:14px solid green;"">","null","","","","","","","","","",""
"","image-keyboard-response","342","303882","0.0-432.0","39LNWE0K4VI218A70C78K3DE5H1UI6","A2RJSGTY72PMVW","3THR0FZ95PF7SK0MYRNAOUHTWDJOLG","","121.30000000074506","img/food2.png","74","122.5","1","0","","3","1","1,0.5,0,1,0.5,0,0.5,0,1","1,0.5,0,1,0.5,0,0.5,0,1","1",""
"","html-keyboard-response","343","304184","0.0-433.0","39LNWE0K4VI218A70C78K3DE5H1UI6","A2RJSGTY72PMVW","3THR0FZ95PF7SK0MYRNAOUHTWDJOLG","","null","<img src=""img/food2.png"" style=""width:200px;border:14px solid red;"">","null","","","","","","","","","",""
"","image-keyboard-response","344","304344","0.0-434.0","39LNWE0K4VI218A70C78K3DE5H1UI6","A2RJSGTY72PMVW","3THR0FZ95PF7SK0MYRNAOUHTWDJOLG","","158.20000000298023","img/food3.png","74","159.59999999776483","1","1","","1","1","1,0.5,0,1,0.5,0,0.5,0,1","1,0.5,0,1,0.5,0,0.5,0,1","1",""
"","html-keyboard-response","345","304646","0.0-435.0","39LNWE0K4VI218A70C78K3DE5H1UI6","A2RJSGTY72PMVW","3THR0FZ95PF7SK0MYRNAOUHTWDJOLG","","null","<img src=""img/food3.png"" style=""width:200px; border:14px solid green;"">","null","","","","","","","","","",""
"","image-keyboard-response","346","304691","0.0-436.0","39LNWE0K4VI218A70C78K3DE5H1UI6","A2RJSGTY72PMVW","3THR0FZ95PF7SK0MYRNAOUHTWDJOLG","","43.5","img/food2.png","74","44.69999999925494","1","0","","3","1","1,0.5,0,1,0.5,0,0.5,0,1","1,0.5,0,1,0.5,0,0.5,0,1","1",""
"","html-keyboard-response","347","304994","0.0-437.0","39LNWE0K4VI218A70C78K3DE5H1UI6","A2RJSGTY72PMVW","3THR0FZ95PF7SK0MYRNAOUHTWDJOLG","","null","<img src=""img/food2.png"" style=""width:200px;border:14px solid red;"">","null","","","","","","","","","",""
"","image-keyboard-response","348","305047","0.0-438.0","39LNWE0K4VI218A70C78K3DE5H1UI6","A2RJSGTY72PMVW","3THR0FZ95PF7SK0MYRNAOUHTWDJOLG","","52","img/food3.png","74","53.30000000074506","1","1","","1","1","1,0.5,0,1,0.5,0,0.5,0,1","1,0.5,0,1,0.5,0,0.5,0,1","1",""
"","html-keyboard-response","349","305349","0.0-439.0","39LNWE0K4VI218A70C78K3DE5H1UI6","A2RJSGTY72PMVW","3THR0FZ95PF7SK0MYRNAOUHTWDJOLG","","null","<img src=""img/food3.png"" style=""width:200px; border:14px solid green;"">","null","","","","","","","","","",""
"","image-keyboard-response","350","305399","0.0-440.0","39LNWE0K4VI218A70C78K3DE5H1UI6","A2RJSGTY72PMVW","3THR0FZ95PF7SK0MYRNAOUHTWDJOLG","","48.30000000074506","img/food1.png","74","49.5","1","1","","2","1","1,0.5,0,1,0.5,0,0.5,0,1","1,0.5,0,1,0.5,0,0.5,0,1","1",""
"","html-keyboard-response","351","305703","0.0-441.0","39LNWE0K4VI218A70C78K3DE5H1UI6","A2RJSGTY72PMVW","3THR0FZ95PF7SK0MYRNAOUHTWDJOLG","","null","<img src=""img/food1.png"" style=""width:200px; border:14px solid green;"">","null","","","","","","","","","",""
"","image-keyboard-response","352","305909","0.0-442.0","39LNWE0K4VI218A70C78K3DE5H1UI6","A2RJSGTY72PMVW","3THR0FZ95PF7SK0MYRNAOUHTWDJOLG","","204.90000000223517","img/food3.png","74","206.19999999925494","1","1","","1","1","1,0.5,0,1,0.5,0,0.5,0,1","1,0.5,0,1,0.5,0,0.5,0,1","1",""
"","html-keyboard-response","353","306213","0.0-443.0","39LNWE0K4VI218A70C78K3DE5H1UI6","A2RJSGTY72PMVW","3THR0FZ95PF7SK0MYRNAOUHTWDJOLG","","null","<img src=""img/food3.png"" style=""width:200px; border:14px solid green;"">","null","","","","","","","","","",""
"","image-keyboard-response","354","306248","0.0-444.0","39LNWE0K4VI218A70C78K3DE5H1UI6","A2RJSGTY72PMVW","3THR0FZ95PF7SK0MYRNAOUHTWDJOLG","","33.400000002235174","img/food3.png","74","34.399999998509884","1","1","","1","1","1,0.5,0,1,0.5,0,0.5,0,1","1,0.5,0,1,0.5,0,0.5,0,1","1",""
"","html-keyboard-response","355","306549","0.0-445.0","39LNWE0K4VI218A70C78K3DE5H1UI6","A2RJSGTY72PMVW","3THR0FZ95PF7SK0MYRNAOUHTWDJOLG","","null","<img src=""img/food3.png"" style=""width:200px; border:14px solid green;"">","null","","","","","","","","","",""
"","image-keyboard-response","356","306586","0.0-446.0","39LNWE0K4VI218A70C78K3DE5H1UI6","A2RJSGTY72PMVW","3THR0FZ95PF7SK0MYRNAOUHTWDJOLG","","35.80000000074506","img/food1.png","74","36.80000000074506","1","1","","2","1","1,0.5,0,1,0.5,0,0.5,0,1","1,0.5,0,1,0.5,0,0.5,0,1","1",""
"","html-keyboard-response","357","306889","0.0-447.0","39LNWE0K4VI218A70C78K3DE5H1UI6","A2RJSGTY72PMVW","3THR0FZ95PF7SK0MYRNAOUHTWDJOLG","","null","<img src=""img/food1.png"" style=""width:200px; border:14px solid green;"">","null","","","","","","","","","",""
"","image-keyboard-response","358","306938","0.0-448.0","39LNWE0K4VI218A70C78K3DE5H1UI6","A2RJSGTY72PMVW","3THR0FZ95PF7SK0MYRNAOUHTWDJOLG","","47.80000000074506","img/food2.png","74","48.69999999925494","1","1","","3","1","1,0.5,0,1,0.5,0,0.5,0,1","1,0.5,0,1,0.5,0,0.5,0,1","1",""
"","html-keyboard-response","359","307240","0.0-449.0","39LNWE0K4VI218A70C78K3DE5H1UI6","A2RJSGTY72PMVW","3THR0FZ95PF7SK0MYRNAOUHTWDJOLG","","null","<img src=""img/food2.png"" style=""width:200px; border:14px solid green;"">","null","","","","","","","","","",""
"","image-keyboard-response","360","307280","0.0-450.0","39LNWE0K4VI218A70C78K3DE5H1UI6","A2RJSGTY72PMVW","3THR0FZ95PF7SK0MYRNAOUHTWDJOLG","","39.100000001490116","img/food1.png","74","40.20000000298023","1","1","","2","1","1,0.5,0,1,0.5,0,0.5,0,1","1,0.5,0,1,0.5,0,0.5,0,1","1",""
"","html-keyboard-response","361","307582","0.0-451.0","39LNWE0K4VI218A70C78K3DE5H1UI6","A2RJSGTY72PMVW","3THR0FZ95PF7SK0MYRNAOUHTWDJOLG","","null","<img src=""img/food1.png"" style=""width:200px; border:14px solid green;"">","null","","","","","","","","","",""
"","image-keyboard-response","362","307600","0.0-452.0","39LNWE0K4VI218A70C78K3DE5H1UI6","A2RJSGTY72PMVW","3THR0FZ95PF7SK0MYRNAOUHTWDJOLG","","16.199999999254942","img/food3.png","74","17.199999999254942","1","1","","1","1","1,0.5,0,1,0.5,0,0.5,0,1","1,0.5,0,1,0.5,0,0.5,0,1","1",""
"","html-keyboard-response","363","307903","0.0-453.0","39LNWE0K4VI218A70C78K3DE5H1UI6","A2RJSGTY72PMVW","3THR0FZ95PF7SK0MYRNAOUHTWDJOLG","","null","<img src=""img/food3.png"" style=""width:200px; border:14px solid green;"">","null","","","","","","","","","",""
"","html-keyboard-response","364","322473","0.0-454.0","39LNWE0K4VI218A70C78K3DE5H1UI6","A2RJSGTY72PMVW","3THR0FZ95PF7SK0MYRNAOUHTWDJOLG","","","","","","","","","","","","","",""
"","instructions","365","325681","0.0-455.0","39LNWE0K4VI218A70C78K3DE5H1UI6","A2RJSGTY72PMVW","3THR0FZ95PF7SK0MYRNAOUHTWDJOLG","[{""page_index"":0,""viewing_time"":3206.199999999255}]","3206.400000002235","","","","","","","","","","","",""
"","survey-text","366","330033","0.0-456.0","39LNWE0K4VI218A70C78K3DE5H1UI6","A2RJSGTY72PMVW","3THR0FZ95PF7SK0MYRNAOUHTWDJOLG","","4349","","","","","","","","","","","","{""Q0"":""A2RJSGTY72PMVW""}"
