"success","trial_type","trial_index","time_elapsed","internal_node_id","assignmentID","mturkID","hitID","view_history","rt","stimulus","key_press","reactionTime","a","r","s","cond","reward_cond","reward_cond_actual","reward_matrix_idx","warning","responses"
"true","fullscreen","0","7366","0.0-0.0","","","","","","","","","","","","","","","","",""
"","instructions","1","15569","0.0-1.0","","","","[{""page_index"":0,""viewing_time"":1210.6999999997206},{""page_index"":1,""viewing_time"":1071.5},{""page_index"":2,""viewing_time"":760.4000000003725},{""page_index"":3,""viewing_time"":1431.3999999999069},{""page_index"":4,""viewing_time"":1411.1000000000931},{""page_index"":5,""viewing_time"":1458.7999999998137},{""page_index"":6,""viewing_time"":857.7999999998137}]","8201.899999999907","","","","","","","","","","","",""
"","image-keyboard-response","2","16761","0.0-2.0","","","","","1190.7999999998137","img/food3.png","74","1191.3999999999069","1","1","1","1","1,0.7,0,1,0.7,0,0.7,0,1","0.7,0,1,0.7,0,1,0,1,0.7","2","",""
"","html-keyboard-response","3","17065","0.0-3.0","","","","","null","<img src=""img/food3.png"" style=""width:200px; border:14px solid green;"">","null","","","","","","","","","",""
"","image-keyboard-response","4","17470","0.0-4.0","","","","","404.5","img/food6.png","74","404.89999999990687","1","1","2","1","1,0.7,0,1,0.7,0,0.7,0,1","0.7,0,1,0.7,0,1,0,1,0.7","2","",""
"","html-keyboard-response","5","17785","0.0-5.0","","","","","null","<img src=""img/food6.png"" style=""width:200px; border:14px solid green;"">","null","","","","","","","","","",""
"","image-keyboard-response","6","18094","0.0-6.0","","","","","308.29999999981374","img/food4.png","75","308.89999999990687","2","1","3","1","1,0.7,0,1,0.7,0,0.7,0,1","0.7,0,1,0.7,0,1,0,1,0.7","2","",""
"","html-keyboard-response","7","18398","0.0-7.0","","","","","null","<img src=""img/food4.png"" style=""width:200px; border:14px solid green;"">","null","","","","","","","","","",""
"","image-keyboard-response","8","18782","0.0-8.0","","","","","384.10000000009313","img/food3.png","76","384.60000000009313","3","1","1","1","1,0.7,0,1,0.7,0,0.7,0,1","0.7,0,1,0.7,0,1,0,1,0.7","2","",""
"","html-keyboard-response","9","19098","0.0-9.0","","","","","null","<img src=""img/food3.png"" style=""width:200px; border:14px solid green;"">","null","","","","","","","","","",""
"","image-keyboard-response","10","19501","0.0-10.0","","","","","402","img/food4.png","76","402.39999999990687","3","0","3","1","1,0.7,0,1,0.7,0,0.7,0,1","0.7,0,1,0.7,0,1,0,1,0.7","2","",""
"","html-keyboard-response","11","19814","0.0-11.0","","","","","null","<img src=""img/food4.png"" style=""width:200px;border:14px solid red;"">","null","","","","","","","","","",""
"","image-keyboard-response","12","19976","0.0-12.0","","","","","160.89999999990687","img/food4.png","75","161.5","2","1","3","1","1,0.7,0,1,0.7,0,0.7,0,1","0.7,0,1,0.7,0,1,0,1,0.7","2","",""
"","html-keyboard-response","13","20285","0.0-13.0","","","","","null","<img src=""img/food4.png"" style=""width:200px; border:14px solid green;"">","null","","","","","","","","","",""
"","image-keyboard-response","14","20479","0.0-14.0","","","","","193.79999999981374","img/food3.png","74","194.39999999990687","1","0","1","1","1,0.7,0,1,0.7,0,0.7,0,1","0.7,0,1,0.7,0,1,0,1,0.7","2","",""
"","html-keyboard-response","15","20783","0.0-15.0","","","","","null","<img src=""img/food3.png"" style=""width:200px;border:14px solid red;"">","null","","","","","","","","","",""
"","image-keyboard-response","16","20928","0.0-16.0","","","","","143.8000000002794","img/food3.png","75","144.60000000009313","2","0","1","1","1,0.7,0,1,0.7,0,0.7,0,1","0.7,0,1,0.7,0,1,0,1,0.7","2","",""
"","html-keyboard-response","17","21236","0.0-17.0","","","","","null","<img src=""img/food3.png"" style=""width:200px;border:14px solid red;"">","null","","","","","","","","","",""
"","image-keyboard-response","18","21382","0.0-18.0","","","","","145.89999999990687","img/food6.png","76","146.40000000037253","3","1","2","1","1,0.7,0,1,0.7,0,0.7,0,1","0.7,0,1,0.7,0,1,0,1,0.7","2","",""
"","html-keyboard-response","19","21684","0.0-19.0","","","","","null","<img src=""img/food6.png"" style=""width:200px; border:14px solid green;"">","null","","","","","","","","","",""
"","image-keyboard-response","20","21837","0.0-20.0","","","","","153","img/food6.png","75","153.60000000009313","2","0","2","1","1,0.7,0,1,0.7,0,0.7,0,1","0.7,0,1,0.7,0,1,0,1,0.7","2","",""
"","html-keyboard-response","21","22153","0.0-21.0","","","","","null","<img src=""img/food6.png"" style=""width:200px;border:14px solid red;"">","null","","","","","","","","","",""
"","image-keyboard-response","22","22292","0.0-22.0","","","","","139.10000000009313","img/food3.png","74","139.5","1","0","1","1","1,0.7,0,1,0.7,0,0.7,0,1","0.7,0,1,0.7,0,1,0,1,0.7","2","",""
"","html-keyboard-response","23","22605","0.0-23.0","","","","","null","<img src=""img/food3.png"" style=""width:200px;border:14px solid red;"">","null","","","","","","","","","",""
"","image-keyboard-response","24","22749","0.0-24.0","","","","","143.10000000009313","img/food4.png","75","143.5","2","1","3","1","1,0.7,0,1,0.7,0,0.7,0,1","0.7,0,1,0.7,0,1,0,1,0.7","2","",""
"","html-keyboard-response","25","23057","0.0-25.0","","","","","null","<img src=""img/food4.png"" style=""width:200px; border:14px solid green;"">","null","","","","","","","","","",""
"","image-keyboard-response","26","23197","0.0-26.0","","","","","139.10000000009313","img/food6.png","76","139.60000000009313","3","1","2","1","1,0.7,0,1,0.7,0,0.7,0,1","0.7,0,1,0.7,0,1,0,1,0.7","2","",""
"","html-keyboard-response","27","23510","0.0-27.0","","","","","null","<img src=""img/food6.png"" style=""width:200px; border:14px solid green;"">","null","","","","","","","","","",""
"","image-keyboard-response","28","23633","0.0-28.0","","","","","122.3000000002794","img/food4.png","75","122.6999999997206","2","1","3","1","1,0.7,0,1,0.7,0,0.7,0,1","0.7,0,1,0.7,0,1,0,1,0.7","2","",""
"","html-keyboard-response","29","23947","0.0-29.0","","","","","null","<img src=""img/food4.png"" style=""width:200px; border:14px solid green;"">","null","","","","","","","","","",""
"","image-keyboard-response","30","24132","0.0-30.0","","","","","184.89999999990687","img/food3.png","76","185.3000000002794","3","1","1","1","1,0.7,0,1,0.7,0,0.7,0,1","0.7,0,1,0.7,0,1,0,1,0.7","2","",""
"","html-keyboard-response","31","24445","0.0-31.0","","","","","null","<img src=""img/food3.png"" style=""width:200px; border:14px solid green;"">","null","","","","","","","","","",""
"","image-keyboard-response","32","24537","0.0-32.0","","","","","91","img/food3.png","75","91.5","2","0","1","1","1,0.7,0,1,0.7,0,0.7,0,1","0.7,0,1,0.7,0,1,0,1,0.7","2","",""
"","html-keyboard-response","33","24850","0.0-33.0","","","","","null","<img src=""img/food3.png"" style=""width:200px;border:14px solid red;"">","null","","","","","","","","","",""
"","image-keyboard-response","34","25011","0.0-34.0","","","","","160.29999999981374","img/food4.png","76","160.8000000002794","3","1","3","1","1,0.7,0,1,0.7,0,0.7,0,1","0.7,0,1,0.7,0,1,0,1,0.7","2","",""
"","html-keyboard-response","35","25315","0.0-35.0","","","","","null","<img src=""img/food4.png"" style=""width:200px; border:14px solid green;"">","null","","","","","","","","","",""
"","image-keyboard-response","36","25419","0.0-36.0","","","","","103","img/food4.png","75","103.5","2","1","3","1","1,0.7,0,1,0.7,0,0.7,0,1","0.7,0,1,0.7,0,1,0,1,0.7","2","",""
"","html-keyboard-response","37","25721","0.0-37.0","","","","","null","<img src=""img/food4.png"" style=""width:200px; border:14px solid green;"">","null","","","","","","","","","",""
"","image-keyboard-response","38","25867","0.0-38.0","","","","","144.90000000037253","img/food6.png","74","145.5","1","0","2","1","1,0.7,0,1,0.7,0,0.7,0,1","0.7,0,1,0.7,0,1,0,1,0.7","2","",""
"","html-keyboard-response","39","26172","0.0-39.0","","","","","null","<img src=""img/food6.png"" style=""width:200px;border:14px solid red;"">","null","","","","","","","","","",""
"","image-keyboard-response","40","26328","0.0-40.0","","","","","155.70000000018626","img/food4.png","75","156.5","2","1","3","1","1,0.7,0,1,0.7,0,0.7,0,1","0.7,0,1,0.7,0,1,0,1,0.7","2","",""
"","html-keyboard-response","41","26641","0.0-41.0","","","","","null","<img src=""img/food4.png"" style=""width:200px; border:14px solid green;"">","null","","","","","","","","","",""
"","image-keyboard-response","42","26754","0.0-42.0","","","","","112.5","img/food3.png","76","113","3","1","1","1","1,0.7,0,1,0.7,0,0.7,0,1","0.7,0,1,0.7,0,1,0,1,0.7","2","",""
"","html-keyboard-response","43","27065","0.0-43.0","","","","","null","<img src=""img/food3.png"" style=""width:200px; border:14px solid green;"">","null","","","","","","","","","",""
"","image-keyboard-response","44","27175","0.0-44.0","","","","","109.5","img/food4.png","75","110","2","1","3","1","1,0.7,0,1,0.7,0,0.7,0,1","0.7,0,1,0.7,0,1,0,1,0.7","2","",""
"","html-keyboard-response","45","27489","0.0-45.0","","","","","null","<img src=""img/food4.png"" style=""width:200px; border:14px solid green;"">","null","","","","","","","","","",""
"","image-keyboard-response","46","27661","0.0-46.0","","","","","170.89999999990687","img/food3.png","74","171.5","1","0","1","1","1,0.7,0,1,0.7,0,0.7,0,1","0.7,0,1,0.7,0,1,0,1,0.7","2","",""
"","html-keyboard-response","47","27973","0.0-47.0","","","","","null","<img src=""img/food3.png"" style=""width:200px;border:14px solid red;"">","null","","","","","","","","","",""
"","image-keyboard-response","48","28066","0.0-48.0","","","","","92","img/food3.png","75","92.5","2","0","1","1","1,0.7,0,1,0.7,0,0.7,0,1","0.7,0,1,0.7,0,1,0,1,0.7","2","",""
"","html-keyboard-response","49","28377","0.0-49.0","","","","","null","<img src=""img/food3.png"" style=""width:200px;border:14px solid red;"">","null","","","","","","","","","",""
"","image-keyboard-response","50","28562","0.0-50.0","","","","","184.70000000018626","img/food6.png","75","185.10000000009313","2","0","2","1","1,0.7,0,1,0.7,0,0.7,0,1","0.7,0,1,0.7,0,1,0,1,0.7","2","",""
"","html-keyboard-response","51","28864","0.0-51.0","","","","","null","<img src=""img/food6.png"" style=""width:200px;border:14px solid red;"">","null","","","","","","","","","",""
"","image-keyboard-response","52","29081","0.0-52.0","","","","","215.89999999990687","img/food3.png","75","216.40000000037253","2","0","1","1","1,0.7,0,1,0.7,0,0.7,0,1","0.7,0,1,0.7,0,1,0,1,0.7","2","",""
"","html-keyboard-response","53","29387","0.0-53.0","","","","","null","<img src=""img/food3.png"" style=""width:200px;border:14px solid red;"">","null","","","","","","","","","",""
"","image-keyboard-response","54","29533","0.0-54.0","","","","","144.40000000037253","img/food3.png","74","145.39999999990687","1","1","1","1","1,0.7,0,1,0.7,0,0.7,0,1","0.7,0,1,0.7,0,1,0,1,0.7","2","",""
"","html-keyboard-response","55","29833","0.0-55.0","","","","","null","<img src=""img/food3.png"" style=""width:200px; border:14px solid green;"">","null","","","","","","","","","",""
"","image-keyboard-response","56","29908","0.0-56.0","","","","","73.8000000002794","img/food6.png","75","74.09999999962747","2","0","2","1","1,0.7,0,1,0.7,0,0.7,0,1","0.7,0,1,0.7,0,1,0,1,0.7","2","",""
"","html-keyboard-response","57","30209","0.0-57.0","","","","","null","<img src=""img/food6.png"" style=""width:200px;border:14px solid red;"">","null","","","","","","","","","",""
"","image-keyboard-response","58","30477","0.0-58.0","","","","","267.89999999990687","img/food4.png","74","268.5","1","0","3","1","1,0.7,0,1,0.7,0,0.7,0,1","0.7,0,1,0.7,0,1,0,1,0.7","2","",""
"","html-keyboard-response","59","30779","0.0-59.0","","","","","null","<img src=""img/food4.png"" style=""width:200px;border:14px solid red;"">","null","","","","","","","","","",""
"","image-keyboard-response","60","30998","0.0-60.0","","","","","218.6999999997206","img/food3.png","74","219.10000000009313","1","0","1","1","1,0.7,0,1,0.7,0,0.7,0,1","0.7,0,1,0.7,0,1,0,1,0.7","2","",""
"","html-keyboard-response","61","31300","0.0-61.0","","","","","null","<img src=""img/food3.png"" style=""width:200px;border:14px solid red;"">","null","","","","","","","","","",""
"","image-keyboard-response","62","31366","0.0-62.0","","","","","65.29999999981374","img/food6.png","75","65.79999999981374","2","0","2","1","1,0.7,0,1,0.7,0,0.7,0,1","0.7,0,1,0.7,0,1,0,1,0.7","2","",""
"","html-keyboard-response","63","31668","0.0-63.0","","","","","null","<img src=""img/food6.png"" style=""width:200px;border:14px solid red;"">","null","","","","","","","","","",""
"","image-keyboard-response","64","31744","0.0-64.0","","","","","75.5","img/food3.png","76","76","3","1","1","1","1,0.7,0,1,0.7,0,0.7,0,1","0.7,0,1,0.7,0,1,0,1,0.7","2","",""
"","html-keyboard-response","65","32045","0.0-65.0","","","","","null","<img src=""img/food3.png"" style=""width:200px; border:14px solid green;"">","null","","","","","","","","","",""
"","image-keyboard-response","66","32136","0.0-66.0","","","","","90.70000000018626","img/food4.png","75","91.20000000018626","2","1","3","1","1,0.7,0,1,0.7,0,0.7,0,1","0.7,0,1,0.7,0,1,0,1,0.7","2","",""
"","html-keyboard-response","67","32438","0.0-67.0","","","","","null","<img src=""img/food4.png"" style=""width:200px; border:14px solid green;"">","null","","","","","","","","","",""
"","image-keyboard-response","68","32580","0.0-68.0","","","","","141.3000000002794","img/food4.png","76","141.79999999981374","3","0","3","1","1,0.7,0,1,0.7,0,0.7,0,1","0.7,0,1,0.7,0,1,0,1,0.7","2","",""
"","html-keyboard-response","69","32881","0.0-69.0","","","","","null","<img src=""img/food4.png"" style=""width:200px;border:14px solid red;"">","null","","","","","","","","","",""
"","image-keyboard-response","70","33033","0.0-70.0","","","","","151.39999999990687","img/food3.png","75","152.10000000009313","2","0","1","1","1,0.7,0,1,0.7,0,0.7,0,1","0.7,0,1,0.7,0,1,0,1,0.7","2","",""
"","html-keyboard-response","71","33334","0.0-71.0","","","","","null","<img src=""img/food3.png"" style=""width:200px;border:14px solid red;"">","null","","","","","","","","","",""
"","image-keyboard-response","72","33553","0.0-72.0","","","","","218.40000000037253","img/food3.png","74","219","1","1","1","1","1,0.7,0,1,0.7,0,0.7,0,1","0.7,0,1,0.7,0,1,0,1,0.7","2","",""
"","html-keyboard-response","73","33855","0.0-73.0","","","","","null","<img src=""img/food3.png"" style=""width:200px; border:14px solid green;"">","null","","","","","","","","","",""
"","image-keyboard-response","74","33955","0.0-74.0","","","","","99.70000000018626","img/food4.png","75","100.10000000009313","2","1","3","1","1,0.7,0,1,0.7,0,0.7,0,1","0.7,0,1,0.7,0,1,0,1,0.7","2","",""
"","html-keyboard-response","75","34269","0.0-75.0","","","","","null","<img src=""img/food4.png"" style=""width:200px; border:14px solid green;"">","null","","","","","","","","","",""
"","image-keyboard-response","76","34376","0.0-76.0","","","","","107.39999999990687","img/food3.png","74","107.8000000002794","1","1","1","1","1,0.7,0,1,0.7,0,0.7,0,1","0.7,0,1,0.7,0,1,0,1,0.7","2","",""
"","html-keyboard-response","77","34678","0.0-77.0","","","","","null","<img src=""img/food3.png"" style=""width:200px; border:14px solid green;"">","null","","","","","","","","","",""
"","image-keyboard-response","78","34808","0.0-78.0","","","","","129.70000000018626","img/food6.png","75","130.3000000002794","2","0","2","1","1,0.7,0,1,0.7,0,0.7,0,1","0.7,0,1,0.7,0,1,0,1,0.7","2","",""
"","html-keyboard-response","79","35110","0.0-79.0","","","","","null","<img src=""img/food6.png"" style=""width:200px;border:14px solid red;"">","null","","","","","","","","","",""
"","image-keyboard-response","80","35231","0.0-80.0","","","","","120.60000000009313","img/food6.png","74","121.10000000009313","1","0","2","1","1,0.7,0,1,0.7,0,0.7,0,1","0.7,0,1,0.7,0,1,0,1,0.7","2","",""
"","html-keyboard-response","81","35532","0.0-81.0","","","","","null","<img src=""img/food6.png"" style=""width:200px;border:14px solid red;"">","null","","","","","","","","","",""
"","image-keyboard-response","82","35701","0.0-82.0","","","","","168.39999999990687","img/food4.png","75","168.8000000002794","2","1","3","1","1,0.7,0,1,0.7,0,0.7,0,1","0.7,0,1,0.7,0,1,0,1,0.7","2","",""
"","html-keyboard-response","83","36003","0.0-83.0","","","","","null","<img src=""img/food4.png"" style=""width:200px; border:14px solid green;"">","null","","","","","","","","","",""
"","image-keyboard-response","84","36144","0.0-84.0","","","","","140.20000000018626","img/food4.png","76","140.6999999997206","3","1","3","1","1,0.7,0,1,0.7,0,0.7,0,1","0.7,0,1,0.7,0,1,0,1,0.7","2","",""
"","html-keyboard-response","85","36446","0.0-85.0","","","","","null","<img src=""img/food4.png"" style=""width:200px; border:14px solid green;"">","null","","","","","","","","","",""
"","image-keyboard-response","86","36556","0.0-86.0","","","","","109.89999999990687","img/food3.png","75","110.3000000002794","2","0","1","1","1,0.7,0,1,0.7,0,0.7,0,1","0.7,0,1,0.7,0,1,0,1,0.7","2","",""
"","html-keyboard-response","87","36857","0.0-87.0","","","","","null","<img src=""img/food3.png"" style=""width:200px;border:14px solid red;"">","null","","","","","","","","","",""
"","image-keyboard-response","88","37009","0.0-88.0","","","","","150.89999999990687","img/food6.png","76","151.60000000009313","3","1","2","1","1,0.7,0,1,0.7,0,0.7,0,1","0.7,0,1,0.7,0,1,0,1,0.7","2","",""
"","html-keyboard-response","89","37311","0.0-89.0","","","","","null","<img src=""img/food6.png"" style=""width:200px; border:14px solid green;"">","null","","","","","","","","","",""
"","image-keyboard-response","90","37440","0.0-90.0","","","","","127.89999999990687","img/food3.png","75","128.3000000002794","2","0","1","1","1,0.7,0,1,0.7,0,0.7,0,1","0.7,0,1,0.7,0,1,0,1,0.7","2","",""
"","html-keyboard-response","91","37742","0.0-91.0","","","","","null","<img src=""img/food3.png"" style=""width:200px;border:14px solid red;"">","null","","","","","","","","","",""
"","image-keyboard-response","92","37902","0.0-92.0","","","","","159.3000000002794","img/food6.png","74","159.89999999990687","1","1","2","1","1,0.7,0,1,0.7,0,0.7,0,1","0.7,0,1,0.7,0,1,0,1,0.7","2","",""
"","html-keyboard-response","93","38204","0.0-93.0","","","","","null","<img src=""img/food6.png"" style=""width:200px; border:14px solid green;"">","null","","","","","","","","","",""
"","image-keyboard-response","94","38351","0.0-94.0","","","","","147","img/food6.png","75","147.6999999997206","2","0","2","1","1,0.7,0,1,0.7,0,0.7,0,1","0.7,0,1,0.7,0,1,0,1,0.7","2","",""
"","html-keyboard-response","95","38653","0.0-95.0","","","","","null","<img src=""img/food6.png"" style=""width:200px;border:14px solid red;"">","null","","","","","","","","","",""
"","image-keyboard-response","96","38800","0.0-96.0","","","","","147.10000000009313","img/food6.png","74","147.8000000002794","1","1","2","1","1,0.7,0,1,0.7,0,0.7,0,1","0.7,0,1,0.7,0,1,0,1,0.7","2","",""
"","html-keyboard-response","97","39101","0.0-97.0","","","","","null","<img src=""img/food6.png"" style=""width:200px; border:14px solid green;"">","null","","","","","","","","","",""
"","image-keyboard-response","98","39284","0.0-98.0","","","","","181.60000000009313","img/food4.png","75","182.1999999997206","2","1","3","1","1,0.7,0,1,0.7,0,0.7,0,1","0.7,0,1,0.7,0,1,0,1,0.7","2","",""
"","html-keyboard-response","99","39586","0.0-99.0","","","","","null","<img src=""img/food4.png"" style=""width:200px; border:14px solid green;"">","null","","","","","","","","","",""
"","image-keyboard-response","100","39787","0.0-100.0","","","","","200.1999999997206","img/food4.png","76","200.79999999981374","3","0","3","1","1,0.7,0,1,0.7,0,0.7,0,1","0.7,0,1,0.7,0,1,0,1,0.7","2","",""
"","html-keyboard-response","101","40088","0.0-101.0","","","","","null","<img src=""img/food4.png"" style=""width:200px;border:14px solid red;"">","null","","","","","","","","","",""
"","image-keyboard-response","102","40213","0.0-102.0","","","","","124","img/food6.png","75","124.60000000009313","2","0","2","1","1,0.7,0,1,0.7,0,0.7,0,1","0.7,0,1,0.7,0,1,0,1,0.7","2","",""
"","html-keyboard-response","103","40515","0.0-103.0","","","","","null","<img src=""img/food6.png"" style=""width:200px;border:14px solid red;"">","null","","","","","","","","","",""
"","image-keyboard-response","104","40680","0.0-104.0","","","","","164.70000000018626","img/food3.png","74","165.20000000018626","1","0","1","1","1,0.7,0,1,0.7,0,0.7,0,1","0.7,0,1,0.7,0,1,0,1,0.7","2","",""
"","html-keyboard-response","105","40983","0.0-105.0","","","","","null","<img src=""img/food3.png"" style=""width:200px;border:14px solid red;"">","null","","","","","","","","","",""
"","image-keyboard-response","106","41147","0.0-106.0","","","","","164","img/food6.png","75","164.39999999990687","2","0","2","1","1,0.7,0,1,0.7,0,0.7,0,1","0.7,0,1,0.7,0,1,0,1,0.7","2","",""
"","html-keyboard-response","107","41449","0.0-107.0","","","","","null","<img src=""img/food6.png"" style=""width:200px;border:14px solid red;"">","null","","","","","","","","","",""
"","image-keyboard-response","108","41639","0.0-108.0","","","","","188.90000000037253","img/food4.png","76","189.39999999990687","3","1","3","1","1,0.7,0,1,0.7,0,0.7,0,1","0.7,0,1,0.7,0,1,0,1,0.7","2","",""
"","html-keyboard-response","109","41940","0.0-109.0","","","","","null","<img src=""img/food4.png"" style=""width:200px; border:14px solid green;"">","null","","","","","","","","","",""
"","image-keyboard-response","110","42208","0.0-110.0","","","","","267.3000000002794","img/food4.png","76","267.89999999990687","3","0","3","1","1,0.7,0,1,0.7,0,0.7,0,1","0.7,0,1,0.7,0,1,0,1,0.7","2","",""
"","html-keyboard-response","111","42510","0.0-111.0","","","","","null","<img src=""img/food4.png"" style=""width:200px;border:14px solid red;"">","null","","","","","","","","","",""
"","image-keyboard-response","112","42715","0.0-112.0","","","","","204.79999999981374","img/food6.png","75","205.20000000018626","2","0","2","1","1,0.7,0,1,0.7,0,0.7,0,1","0.7,0,1,0.7,0,1,0,1,0.7","2","",""
"","html-keyboard-response","113","43017","0.0-113.0","","","","","null","<img src=""img/food6.png"" style=""width:200px;border:14px solid red;"">","null","","","","","","","","","",""
"","image-keyboard-response","114","43113","0.0-114.0","","","","","95.39999999990687","img/food6.png","74","96","1","1","2","1","1,0.7,0,1,0.7,0,0.7,0,1","0.7,0,1,0.7,0,1,0,1,0.7","2","",""
"","html-keyboard-response","115","43425","0.0-115.0","","","","","null","<img src=""img/food6.png"" style=""width:200px; border:14px solid green;"">","null","","","","","","","","","",""
"","image-keyboard-response","116","43654","0.0-116.0","","","","","228.89999999990687","img/food6.png","74","229.39999999990687","1","0","2","1","1,0.7,0,1,0.7,0,0.7,0,1","0.7,0,1,0.7,0,1,0,1,0.7","2","",""
"","html-keyboard-response","117","43956","0.0-117.0","","","","","null","<img src=""img/food6.png"" style=""width:200px;border:14px solid red;"">","null","","","","","","","","","",""
"","image-keyboard-response","118","44091","0.0-118.0","","","","","135.20000000018626","img/food4.png","76","135.70000000018626","3","1","3","1","1,0.7,0,1,0.7,0,0.7,0,1","0.7,0,1,0.7,0,1,0,1,0.7","2","",""
"","html-keyboard-response","119","44393","0.0-119.0","","","","","null","<img src=""img/food4.png"" style=""width:200px; border:14px solid green;"">","null","","","","","","","","","",""
"","image-keyboard-response","120","44586","0.0-120.0","","","","","193","img/food3.png","74","193.5","1","0","1","1","1,0.7,0,1,0.7,0,0.7,0,1","0.7,0,1,0.7,0,1,0,1,0.7","2","",""
"","html-keyboard-response","121","44887","0.0-121.0","","","","","null","<img src=""img/food3.png"" style=""width:200px;border:14px solid red;"">","null","","","","","","","","","",""
"","image-keyboard-response","122","45077","0.0-122.0","","","","","188.79999999981374","img/food4.png","76","189.39999999990687","3","1","3","1","1,0.7,0,1,0.7,0,0.7,0,1","0.7,0,1,0.7,0,1,0,1,0.7","2","",""
"","html-keyboard-response","123","45380","0.0-123.0","","","","","null","<img src=""img/food4.png"" style=""width:200px; border:14px solid green;"">","null","","","","","","","","","",""
"","image-keyboard-response","124","45540","0.0-124.0","","","","","159.70000000018626","img/food3.png","74","160.20000000018626","1","1","1","1","1,0.7,0,1,0.7,0,0.7,0,1","0.7,0,1,0.7,0,1,0,1,0.7","2","",""
"","html-keyboard-response","125","45841","0.0-125.0","","","","","null","<img src=""img/food3.png"" style=""width:200px; border:14px solid green;"">","null","","","","","","","","","",""
"","image-keyboard-response","126","45988","0.0-126.0","","","","","146.40000000037253","img/food6.png","76","147","3","1","2","1","1,0.7,0,1,0.7,0,0.7,0,1","0.7,0,1,0.7,0,1,0,1,0.7","2","",""
"","html-keyboard-response","127","46289","0.0-127.0","","","","","null","<img src=""img/food6.png"" style=""width:200px; border:14px solid green;"">","null","","","","","","","","","",""
"","image-keyboard-response","128","46468","0.0-128.0","","","","","177.79999999981374","img/food6.png","74","178.20000000018626","1","1","2","1","1,0.7,0,1,0.7,0,0.7,0,1","0.7,0,1,0.7,0,1,0,1,0.7","2","",""
"","html-keyboard-response","129","46769","0.0-129.0","","","","","null","<img src=""img/food6.png"" style=""width:200px; border:14px solid green;"">","null","","","","","","","","","",""
"","image-keyboard-response","130","46934","0.0-130.0","","","","","163.60000000009313","img/food4.png","76","164.1999999997206","3","1","3","1","1,0.7,0,1,0.7,0,0.7,0,1","0.7,0,1,0.7,0,1,0,1,0.7","2","",""
"","html-keyboard-response","131","47236","0.0-131.0","","","","","null","<img src=""img/food4.png"" style=""width:200px; border:14px solid green;"">","null","","","","","","","","","",""
"","image-keyboard-response","132","47389","0.0-132.0","","","","","152.40000000037253","img/food3.png","74","152.79999999981374","1","1","1","1","1,0.7,0,1,0.7,0,0.7,0,1","0.7,0,1,0.7,0,1,0,1,0.7","2","",""
"","html-keyboard-response","133","47691","0.0-133.0","","","","","null","<img src=""img/food3.png"" style=""width:200px; border:14px solid green;"">","null","","","","","","","","","",""
"","image-keyboard-response","134","47854","0.0-134.0","","","","","162.39999999990687","img/food4.png","76","163","3","0","3","1","1,0.7,0,1,0.7,0,0.7,0,1","0.7,0,1,0.7,0,1,0,1,0.7","2","",""
"","html-keyboard-response","135","48155","0.0-135.0","","","","","null","<img src=""img/food4.png"" style=""width:200px;border:14px solid red;"">","null","","","","","","","","","",""
"","image-keyboard-response","136","48312","0.0-136.0","","","","","156.79999999981374","img/food4.png","74","157.29999999981374","1","0","3","1","1,0.7,0,1,0.7,0,0.7,0,1","0.7,0,1,0.7,0,1,0,1,0.7","2","",""
"","html-keyboard-response","137","48614","0.0-137.0","","","","","null","<img src=""img/food4.png"" style=""width:200px;border:14px solid red;"">","null","","","","","","","","","",""
"","image-keyboard-response","138","48749","0.0-138.0","","","","","134.59999999962747","img/food6.png","76","135.10000000009313","3","1","2","1","1,0.7,0,1,0.7,0,0.7,0,1","0.7,0,1,0.7,0,1,0,1,0.7","2","",""
"","html-keyboard-response","139","49051","0.0-139.0","","","","","null","<img src=""img/food6.png"" style=""width:200px; border:14px solid green;"">","null","","","","","","","","","",""
"","image-keyboard-response","140","49259","0.0-140.0","","","","","207.60000000009313","img/food4.png","74","208","1","0","3","1","1,0.7,0,1,0.7,0,0.7,0,1","0.7,0,1,0.7,0,1,0,1,0.7","2","",""
"","html-keyboard-response","141","49561","0.0-141.0","","","","","null","<img src=""img/food4.png"" style=""width:200px;border:14px solid red;"">","null","","","","","","","","","",""
"","image-keyboard-response","142","49736","0.0-142.0","","","","","174.89999999990687","img/food3.png","76","175.39999999990687","3","1","1","1","1,0.7,0,1,0.7,0,0.7,0,1","0.7,0,1,0.7,0,1,0,1,0.7","2","",""
"","html-keyboard-response","143","50038","0.0-143.0","","","","","null","<img src=""img/food3.png"" style=""width:200px; border:14px solid green;"">","null","","","","","","","","","",""
"","image-keyboard-response","144","50200","0.0-144.0","","","","","160.59999999962747","img/food6.png","74","161","1","1","2","1","1,0.7,0,1,0.7,0,0.7,0,1","0.7,0,1,0.7,0,1,0,1,0.7","2","",""
"","html-keyboard-response","145","50501","0.0-145.0","","","","","null","<img src=""img/food6.png"" style=""width:200px; border:14px solid green;"">","null","","","","","","","","","",""
"","image-keyboard-response","146","50651","0.0-146.0","","","","","148.3000000002794","img/food6.png","76","149","3","1","2","1","1,0.7,0,1,0.7,0,0.7,0,1","0.7,0,1,0.7,0,1,0,1,0.7","2","",""
"","html-keyboard-response","147","50952","0.0-147.0","","","","","null","<img src=""img/food6.png"" style=""width:200px; border:14px solid green;"">","null","","","","","","","","","",""
"","image-keyboard-response","148","51152","0.0-148.0","","","","","199.60000000009313","img/food6.png","74","200","1","1","2","1","1,0.7,0,1,0.7,0,0.7,0,1","0.7,0,1,0.7,0,1,0,1,0.7","2","",""
"","html-keyboard-response","149","51454","0.0-149.0","","","","","null","<img src=""img/food6.png"" style=""width:200px; border:14px solid green;"">","null","","","","","","","","","",""
"","image-keyboard-response","150","51603","0.0-150.0","","","","","147.6999999997206","img/food6.png","76","148.29999999981374","3","1","2","1","1,0.7,0,1,0.7,0,0.7,0,1","0.7,0,1,0.7,0,1,0,1,0.7","2","",""
"","html-keyboard-response","151","51904","0.0-151.0","","","","","null","<img src=""img/food6.png"" style=""width:200px; border:14px solid green;"">","null","","","","","","","","","",""
"","image-keyboard-response","152","52073","0.0-152.0","","","","","167.89999999990687","img/food3.png","74","168.5","1","0","1","1","1,0.7,0,1,0.7,0,0.7,0,1","0.7,0,1,0.7,0,1,0,1,0.7","2","",""
"","html-keyboard-response","153","52375","0.0-153.0","","","","","null","<img src=""img/food3.png"" style=""width:200px;border:14px solid red;"">","null","","","","","","","","","",""
"","image-keyboard-response","154","52707","0.0-154.0","","","","","331.20000000018626","img/food6.png","75","331.70000000018626","2","0","2","1","1,0.7,0,1,0.7,0,0.7,0,1","0.7,0,1,0.7,0,1,0,1,0.7","2","",""
"","html-keyboard-response","155","53008","0.0-155.0","","","","","null","<img src=""img/food6.png"" style=""width:200px;border:14px solid red;"">","null","","","","","","","","","",""
"","image-keyboard-response","156","53161","0.0-156.0","","","","","152.10000000009313","img/food3.png","76","152.5","3","1","1","1","1,0.7,0,1,0.7,0,0.7,0,1","0.7,0,1,0.7,0,1,0,1,0.7","2","",""
"","html-keyboard-response","157","53463","0.0-157.0","","","","","null","<img src=""img/food3.png"" style=""width:200px; border:14px solid green;"">","null","","","","","","","","","",""
"","image-keyboard-response","158","53591","0.0-158.0","","","","","127.60000000009313","img/food3.png","74","128","1","1","1","1","1,0.7,0,1,0.7,0,0.7,0,1","0.7,0,1,0.7,0,1,0,1,0.7","2","",""
"","html-keyboard-response","159","53892","0.0-159.0","","","","","null","<img src=""img/food3.png"" style=""width:200px; border:14px solid green;"">","null","","","","","","","","","",""
"","image-keyboard-response","160","54025","0.0-160.0","","","","","132.89999999990687","img/food4.png","76","133.39999999990687","3","1","3","1","1,0.7,0,1,0.7,0,0.7,0,1","0.7,0,1,0.7,0,1,0,1,0.7","2","",""
"","html-keyboard-response","161","54327","0.0-161.0","","","","","null","<img src=""img/food4.png"" style=""width:200px; border:14px solid green;"">","null","","","","","","","","","",""
"","image-keyboard-response","162","54489","0.0-162.0","","","","","161.1999999997206","img/food3.png","74","161.6999999997206","1","0","1","1","1,0.7,0,1,0.7,0,0.7,0,1","0.7,0,1,0.7,0,1,0,1,0.7","2","",""
"","html-keyboard-response","163","54790","0.0-163.0","","","","","null","<img src=""img/food3.png"" style=""width:200px;border:14px solid red;"">","null","","","","","","","","","",""
"","image-keyboard-response","164","54947","0.0-164.0","","","","","156.39999999990687","img/food3.png","76","156.8000000002794","3","1","1","1","1,0.7,0,1,0.7,0,0.7,0,1","0.7,0,1,0.7,0,1,0,1,0.7","2","",""
"","html-keyboard-response","165","55248","0.0-165.0","","","","","null","<img src=""img/food3.png"" style=""width:200px; border:14px solid green;"">","null","","","","","","","","","",""
"","image-keyboard-response","166","55367","0.0-166.0","","","","","118.09999999962747","img/food6.png","75","118.60000000009313","2","0","2","1","1,0.7,0,1,0.7,0,0.7,0,1","0.7,0,1,0.7,0,1,0,1,0.7","2","",""
"","html-keyboard-response","167","55668","0.0-167.0","","","","","null","<img src=""img/food6.png"" style=""width:200px;border:14px solid red;"">","null","","","","","","","","","",""
"","image-keyboard-response","168","55880","0.0-168.0","","","","","211.3000000002794","img/food4.png","74","211.79999999981374","1","0","3","1","1,0.7,0,1,0.7,0,0.7,0,1","0.7,0,1,0.7,0,1,0,1,0.7","2","",""
"","html-keyboard-response","169","56181","0.0-169.0","","","","","null","<img src=""img/food4.png"" style=""width:200px;border:14px solid red;"">","null","","","","","","","","","",""
"","image-keyboard-response","170","56382","0.0-170.0","","","","","199.5","img/food6.png","76","200.10000000009313","3","1","2","1","1,0.7,0,1,0.7,0,0.7,0,1","0.7,0,1,0.7,0,1,0,1,0.7","2","",""
"","html-keyboard-response","171","56683","0.0-171.0","","","","","null","<img src=""img/food6.png"" style=""width:200px; border:14px solid green;"">","null","","","","","","","","","",""
"","image-keyboard-response","172","56857","0.0-172.0","","","","","173.70000000018626","img/food4.png","74","174.29999999981374","1","0","3","1","1,0.7,0,1,0.7,0,0.7,0,1","0.7,0,1,0.7,0,1,0,1,0.7","2","",""
"","html-keyboard-response","173","57159","0.0-173.0","","","","","null","<img src=""img/food4.png"" style=""width:200px;border:14px solid red;"">","null","","","","","","","","","",""
"","image-keyboard-response","174","57324","0.0-174.0","","","","","164.5","img/food4.png","76","164.89999999990687","3","1","3","1","1,0.7,0,1,0.7,0,0.7,0,1","0.7,0,1,0.7,0,1,0,1,0.7","2","",""
"","html-keyboard-response","175","57626","0.0-175.0","","","","","null","<img src=""img/food4.png"" style=""width:200px; border:14px solid green;"">","null","","","","","","","","","",""
"","image-keyboard-response","176","57875","0.0-176.0","","","","","248.5","img/food4.png","74","249","1","0","3","1","1,0.7,0,1,0.7,0,0.7,0,1","0.7,0,1,0.7,0,1,0,1,0.7","2","",""
"","html-keyboard-response","177","58175","0.0-177.0","","","","","null","<img src=""img/food4.png"" style=""width:200px;border:14px solid red;"">","null","","","","","","","","","",""
"","image-keyboard-response","178","58357","0.0-178.0","","","","","181.8000000002794","img/food3.png","76","182.29999999981374","3","1","1","1","1,0.7,0,1,0.7,0,0.7,0,1","0.7,0,1,0.7,0,1,0,1,0.7","2","",""
"","html-keyboard-response","179","58660","0.0-179.0","","","","","null","<img src=""img/food3.png"" style=""width:200px; border:14px solid green;"">","null","","","","","","","","","",""
"","image-keyboard-response","180","58837","0.0-180.0","","","","","176.89999999990687","img/food6.png","74","177.39999999990687","1","1","2","1","1,0.7,0,1,0.7,0,0.7,0,1","0.7,0,1,0.7,0,1,0,1,0.7","2","",""
"","html-keyboard-response","181","59140","0.0-181.0","","","","","null","<img src=""img/food6.png"" style=""width:200px; border:14px solid green;"">","null","","","","","","","","","",""
"","html-keyboard-response","182","61384","0.0-182.0","","","","","","","","","","","","","","","","",""
"","instructions","183","76381","0.0-183.0","","","","[{""page_index"":0,""viewing_time"":12072.19999999972},{""page_index"":1,""viewing_time"":2923.5}]","14995.799999999814","","","","","","","","","","","",""
"","image-keyboard-response","184","76820","0.0-184.0","","","","","438.09999999962747","img/food2.png","76","438.60000000009313","3","0","2","2","1,0.7,0,1,0.7,0,0.7,0,1","0,1,0.7,0,1,0.7,1,0.7,0","3","false",""
"","html-keyboard-response","185","77121","0.0-185.0","","","","","null","<img src=""img/food2.png"" style=""width:200px;border:14px solid red;"">","null","","","","","","","","","",""
"","image-keyboard-response","186","77141","0.0-187.0","","","","","19","img/food1.png","75","19.399999999906868","2","1","1","2","1,0.7,0,1,0.7,0,0.7,0,1","0,1,0.7,0,1,0.7,1,0.7,0","3","false",""
"","html-keyboard-response","187","77442","0.0-188.0","","","","","null","<img src=""img/food1.png"" style=""width:200px; border:14px solid green;"">","null","","","","","","","","","",""
"","image-keyboard-response","188","77556","0.0-190.0","","","","","113.89999999990687","img/food2.png","74","114.5","1","0","2","2","1,0.7,0,1,0.7,0,0.7,0,1","0,1,0.7,0,1,0.7,1,0.7,0","3","false",""
"","html-keyboard-response","189","77862","0.0-191.0","","","","","null","<img src=""img/food2.png"" style=""width:200px;border:14px solid red;"">","null","","","","","","","","","",""
"","image-keyboard-response","190","77888","0.0-193.0","","","","","24.799999999813735","img/food1.png","75","25.399999999906868","2","1","1","2","1,0.7,0,1,0.7,0,0.7,0,1","0,1,0.7,0,1,0.7,1,0.7,0","3","false",""
"","html-keyboard-response","191","78190","0.0-194.0","","","","","null","<img src=""img/food1.png"" style=""width:200px; border:14px solid green;"">","null","","","","","","","","","",""
"","image-keyboard-response","192","78296","0.0-196.0","","","","","105.8000000002794","img/food2.png","76","106.5","3","1","2","2","1,0.7,0,1,0.7,0,0.7,0,1","0,1,0.7,0,1,0.7,1,0.7,0","3","false",""
"","html-keyboard-response","193","78599","0.0-197.0","","","","","null","<img src=""img/food2.png"" style=""width:200px; border:14px solid green;"">","null","","","","","","","","","",""
"","image-keyboard-response","194","78630","0.0-199.0","","","","","30.5","img/food1.png","75","30.899999999906868","2","1","1","2","1,0.7,0,1,0.7,0,0.7,0,1","0,1,0.7,0,1,0.7,1,0.7,0","3","false",""
"","html-keyboard-response","195","78931","0.0-200.0","","","","","null","<img src=""img/food1.png"" style=""width:200px; border:14px solid green;"">","null","","","","","","","","","",""
"","image-keyboard-response","196","78983","0.0-202.0","","","","","51.299999999813735","img/food5.png","74","51.89999999990687","1","1","3","2","1,0.7,0,1,0.7,0,0.7,0,1","0,1,0.7,0,1,0.7,1,0.7,0","3","false",""
"","html-keyboard-response","197","79284","0.0-203.0","","","","","null","<img src=""img/food5.png"" style=""width:200px; border:14px solid green;"">","null","","","","","","","","","",""
"","image-keyboard-response","198","79336","0.0-205.0","","","","","51.10000000009313","img/food1.png","75","51.60000000009313","2","1","1","2","1,0.7,0,1,0.7,0,0.7,0,1","0,1,0.7,0,1,0.7,1,0.7,0","3","false",""
"","html-keyboard-response","199","79638","0.0-206.0","","","","","null","<img src=""img/food1.png"" style=""width:200px; border:14px solid green;"">","null","","","","","","","","","",""
"","image-keyboard-response","200","79681","0.0-208.0","","","","","42.10000000009313","img/food2.png","76","42.59999999962747","3","1","2","2","1,0.7,0,1,0.7,0,0.7,0,1","0,1,0.7,0,1,0.7,1,0.7,0","3","false",""
"","html-keyboard-response","201","79982","0.0-209.0","","","","","null","<img src=""img/food2.png"" style=""width:200px; border:14px solid green;"">","null","","","","","","","","","",""
"","image-keyboard-response","202","80014","0.0-211.0","","","","","30.800000000279397","img/food1.png","74","31.299999999813735","1","0","1","2","1,0.7,0,1,0.7,0,0.7,0,1","0,1,0.7,0,1,0.7,1,0.7,0","3","false",""
"","html-keyboard-response","203","80327","0.0-212.0","","","","","null","<img src=""img/food1.png"" style=""width:200px;border:14px solid red;"">","null","","","","","","","","","",""
"","image-keyboard-response","204","80363","0.0-214.0","","","","","35.09999999962747","img/food5.png","76","35.700000000186265","3","0","3","2","1,0.7,0,1,0.7,0,0.7,0,1","0,1,0.7,0,1,0.7,1,0.7,0","3","false",""
"","html-keyboard-response","205","80664","0.0-215.0","","","","","null","<img src=""img/food5.png"" style=""width:200px;border:14px solid red;"">","null","","","","","","","","","",""
"","image-keyboard-response","206","81021","0.0-217.0","","","","","356.5","img/food2.png","76","357.10000000009313","3","1","2","2","1,0.7,0,1,0.7,0,0.7,0,1","0,1,0.7,0,1,0.7,1,0.7,0","3","false",""
"","html-keyboard-response","207","81322","0.0-218.0","","","","","null","<img src=""img/food2.png"" style=""width:200px; border:14px solid green;"">","null","","","","","","","","","",""
"","image-keyboard-response","208","81712","0.0-220.0","","","","","388.89999999990687","img/food2.png","76","389.39999999990687","3","0","2","2","1,0.7,0,1,0.7,0,0.7,0,1","0,1,0.7,0,1,0.7,1,0.7,0","3","false",""
"","html-keyboard-response","209","82013","0.0-221.0","","","","","null","<img src=""img/food2.png"" style=""width:200px;border:14px solid red;"">","null","","","","","","","","","",""
"","image-keyboard-response","210","82281","0.0-223.0","","","","","267.10000000009313","img/food2.png","75","267.60000000009313","2","1","2","2","1,0.7,0,1,0.7,0,0.7,0,1","0,1,0.7,0,1,0.7,1,0.7,0","3","false",""
"","html-keyboard-response","211","82582","0.0-224.0","","","","","null","<img src=""img/food2.png"" style=""width:200px; border:14px solid green;"">","null","","","","","","","","","",""
"","image-keyboard-response","212","82619","0.0-226.0","","","","","36","img/food1.png","76","36.5","3","1","1","2","1,0.7,0,1,0.7,0,0.7,0,1","0,1,0.7,0,1,0.7,1,0.7,0","3","false",""
"","html-keyboard-response","213","82920","0.0-227.0","","","","","null","<img src=""img/food1.png"" style=""width:200px; border:14px solid green;"">","null","","","","","","","","","",""
"","image-keyboard-response","214","82922","0.0-229.0","","","","","1.2999999998137355","img/food2.png","75","1.7000000001862645","2","1","2","2","1,0.7,0,1,0.7,0,0.7,0,1","0,1,0.7,0,1,0.7,1,0.7,0","3","false",""
"","html-keyboard-response","215","83224","0.0-230.0","","","","","null","<img src=""img/food2.png"" style=""width:200px; border:14px solid green;"">","null","","","","","","","","","",""
"","image-keyboard-response","216","83237","0.0-232.0","","","","","12.299999999813735","img/food1.png","74","12.899999999906868","1","0","1","2","1,0.7,0,1,0.7,0,0.7,0,1","0,1,0.7,0,1,0.7,1,0.7,0","3","false",""
"","html-keyboard-response","217","83539","0.0-233.0","","","","","null","<img src=""img/food1.png"" style=""width:200px;border:14px solid red;"">","null","","","","","","","","","",""
"","image-keyboard-response","218","83846","0.0-235.0","","","","","306.79999999981374","img/food1.png","76","307.20000000018626","3","1","1","2","1,0.7,0,1,0.7,0,0.7,0,1","0,1,0.7,0,1,0.7,1,0.7,0","3","false",""
"","html-keyboard-response","219","84148","0.0-236.0","","","","","null","<img src=""img/food1.png"" style=""width:200px; border:14px solid green;"">","null","","","","","","","","","",""
"","image-keyboard-response","220","84437","0.0-238.0","","","","","287.79999999981374","img/food5.png","74","288.20000000018626","1","1","3","2","1,0.7,0,1,0.7,0,0.7,0,1","0,1,0.7,0,1,0.7,1,0.7,0","3","false",""
"","html-keyboard-response","221","84738","0.0-239.0","","","","","null","<img src=""img/food5.png"" style=""width:200px; border:14px solid green;"">","null","","","","","","","","","",""
"","image-keyboard-response","222","85007","0.0-241.0","","","","","268.8000000002794","img/food5.png","76","269.5","3","0","3","2","1,0.7,0,1,0.7,0,0.7,0,1","0,1,0.7,0,1,0.7,1,0.7,0","3","false",""
"","html-keyboard-response","223","85309","0.0-242.0","","","","","null","<img src=""img/food5.png"" style=""width:200px;border:14px solid red;"">","null","","","","","","","","","",""
"","image-keyboard-response","224","85530","0.0-244.0","","","","","219.89999999990687","img/food5.png","74","220.5","1","1","3","2","1,0.7,0,1,0.7,0,0.7,0,1","0,1,0.7,0,1,0.7,1,0.7,0","3","false",""
"","html-keyboard-response","225","85832","0.0-245.0","","","","","null","<img src=""img/food5.png"" style=""width:200px; border:14px solid green;"">","null","","","","","","","","","",""
"","image-keyboard-response","226","85856","0.0-247.0","","","","","23.09999999962747","img/food5.png","75","23.5","2","0","3","2","1,0.7,0,1,0.7,0,0.7,0,1","0,1,0.7,0,1,0.7,1,0.7,0","3","false",""
"","html-keyboard-response","227","86157","0.0-248.0","","","","","null","<img src=""img/food5.png"" style=""width:200px;border:14px solid red;"">","null","","","","","","","","","",""
"","image-keyboard-response","228","86393","0.0-250.0","","","","","236.09999999962747","img/food5.png","75","236.5","2","1","3","2","1,0.7,0,1,0.7,0,0.7,0,1","0,1,0.7,0,1,0.7,1,0.7,0","3","false",""
"","html-keyboard-response","229","86694","0.0-251.0","","","","","null","<img src=""img/food5.png"" style=""width:200px; border:14px solid green;"">","null","","","","","","","","","",""
"","image-keyboard-response","230","86952","0.0-253.0","","","","","256.60000000009313","img/food2.png","75","257.20000000018626","2","1","2","2","1,0.7,0,1,0.7,0,0.7,0,1","0,1,0.7,0,1,0.7,1,0.7,0","3","false",""
"","html-keyboard-response","231","87253","0.0-254.0","","","","","null","<img src=""img/food2.png"" style=""width:200px; border:14px solid green;"">","null","","","","","","","","","",""
"","image-keyboard-response","232","87492","0.0-256.0","","","","","238.5","img/food2.png","75","239.20000000018626","2","1","2","2","1,0.7,0,1,0.7,0,0.7,0,1","0,1,0.7,0,1,0.7,1,0.7,0","3","false",""
"","html-keyboard-response","233","87793","0.0-257.0","","","","","null","<img src=""img/food2.png"" style=""width:200px; border:14px solid green;"">","null","","","","","","","","","",""
"","image-keyboard-response","234","88105","0.0-259.0","","","","","311.39999999990687","img/food5.png","76","311.8000000002794","3","0","3","2","1,0.7,0,1,0.7,0,0.7,0,1","0,1,0.7,0,1,0.7,1,0.7,0","3","false",""
"","html-keyboard-response","235","88406","0.0-260.0","","","","","null","<img src=""img/food5.png"" style=""width:200px;border:14px solid red;"">","null","","","","","","","","","",""
"","image-keyboard-response","236","88622","0.0-262.0","","","","","214.70000000018626","img/food5.png","75","215.20000000018626","2","0","3","2","1,0.7,0,1,0.7,0,0.7,0,1","0,1,0.7,0,1,0.7,1,0.7,0","3","false",""
"","html-keyboard-response","237","88924","0.0-263.0","","","","","null","<img src=""img/food5.png"" style=""width:200px;border:14px solid red;"">","null","","","","","","","","","",""
"","image-keyboard-response","238","89070","0.0-265.0","","","","","145.29999999981374","img/food2.png","75","145.89999999990687","2","1","2","2","1,0.7,0,1,0.7,0,0.7,0,1","0,1,0.7,0,1,0.7,1,0.7,0","3","false",""
"","html-keyboard-response","239","89371","0.0-266.0","","","","","null","<img src=""img/food2.png"" style=""width:200px; border:14px solid green;"">","null","","","","","","","","","",""
"","image-keyboard-response","240","89570","0.0-268.0","","","","","198.20000000018626","img/food5.png","75","198.6999999997206","2","1","3","2","1,0.7,0,1,0.7,0,0.7,0,1","0,1,0.7,0,1,0.7,1,0.7,0","3","false",""
"","html-keyboard-response","241","89871","0.0-269.0","","","","","null","<img src=""img/food5.png"" style=""width:200px; border:14px solid green;"">","null","","","","","","","","","",""
"","image-keyboard-response","242","89993","0.0-271.0","","","","","120.8000000002794","img/food1.png","75","121.29999999981374","2","1","1","2","1,0.7,0,1,0.7,0,0.7,0,1","0,1,0.7,0,1,0.7,1,0.7,0","3","false",""
"","html-keyboard-response","243","90295","0.0-272.0","","","","","null","<img src=""img/food1.png"" style=""width:200px; border:14px solid green;"">","null","","","","","","","","","",""
"","image-keyboard-response","244","90456","0.0-274.0","","","","","160.39999999990687","img/food1.png","75","161.60000000009313","2","1","1","2","1,0.7,0,1,0.7,0,0.7,0,1","0,1,0.7,0,1,0.7,1,0.7,0","3","false",""
"","html-keyboard-response","245","90759","0.0-275.0","","","","","null","<img src=""img/food1.png"" style=""width:200px; border:14px solid green;"">","null","","","","","","","","","",""
"","image-keyboard-response","246","90902","0.0-277.0","","","","","142.5","img/food2.png","75","143.1999999997206","2","1","2","2","1,0.7,0,1,0.7,0,0.7,0,1","0,1,0.7,0,1,0.7,1,0.7,0","3","false",""
"","html-keyboard-response","247","91203","0.0-278.0","","","","","null","<img src=""img/food2.png"" style=""width:200px; border:14px solid green;"">","null","","","","","","","","","",""
"","image-keyboard-response","248","91349","0.0-280.0","","","","","145.39999999990687","img/food5.png","75","146","2","1","3","2","1,0.7,0,1,0.7,0,0.7,0,1","0,1,0.7,0,1,0.7,1,0.7,0","3","false",""
"","html-keyboard-response","249","91650","0.0-281.0","","","","","null","<img src=""img/food5.png"" style=""width:200px; border:14px solid green;"">","null","","","","","","","","","",""
"","image-keyboard-response","250","91789","0.0-283.0","","","","","137.39999999990687","img/food1.png","75","138","2","1","1","2","1,0.7,0,1,0.7,0,0.7,0,1","0,1,0.7,0,1,0.7,1,0.7,0","3","false",""
"","html-keyboard-response","251","92090","0.0-284.0","","","","","null","<img src=""img/food1.png"" style=""width:200px; border:14px solid green;"">","null","","","","","","","","","",""
"","image-keyboard-response","252","92309","0.0-286.0","","","","","218.39999999990687","img/food5.png","75","218.89999999990687","2","1","3","2","1,0.7,0,1,0.7,0,0.7,0,1","0,1,0.7,0,1,0.7,1,0.7,0","3","false",""
"","html-keyboard-response","253","92612","0.0-287.0","","","","","null","<img src=""img/food5.png"" style=""width:200px; border:14px solid green;"">","null","","","","","","","","","",""
"","image-keyboard-response","254","92737","0.0-289.0","","","","","124.60000000009313","img/food1.png","75","125.20000000018626","2","1","1","2","1,0.7,0,1,0.7,0,0.7,0,1","0,1,0.7,0,1,0.7,1,0.7,0","3","false",""
"","html-keyboard-response","255","93039","0.0-290.0","","","","","null","<img src=""img/food1.png"" style=""width:200px; border:14px solid green;"">","null","","","","","","","","","",""
"","image-keyboard-response","256","93247","0.0-292.0","","","","","208","img/food5.png","75","208.5","2","0","3","2","1,0.7,0,1,0.7,0,0.7,0,1","0,1,0.7,0,1,0.7,1,0.7,0","3","false",""
"","html-keyboard-response","257","93549","0.0-293.0","","","","","null","<img src=""img/food5.png"" style=""width:200px;border:14px solid red;"">","null","","","","","","","","","",""
"","image-keyboard-response","258","93679","0.0-295.0","","","","","129.8000000002794","img/food2.png","75","130.1999999997206","2","1","2","2","1,0.7,0,1,0.7,0,0.7,0,1","0,1,0.7,0,1,0.7,1,0.7,0","3","false",""
"","html-keyboard-response","259","93980","0.0-296.0","","","","","null","<img src=""img/food2.png"" style=""width:200px; border:14px solid green;"">","null","","","","","","","","","",""
"","image-keyboard-response","260","94070","0.0-298.0","","","","","89.3000000002794","img/food2.png","75","89.79999999981374","2","1","2","2","1,0.7,0,1,0.7,0,0.7,0,1","0,1,0.7,0,1,0.7,1,0.7,0","3","false",""
"","html-keyboard-response","261","94373","0.0-299.0","","","","","null","<img src=""img/food2.png"" style=""width:200px; border:14px solid green;"">","null","","","","","","","","","",""
"","image-keyboard-response","262","94500","0.0-301.0","","","","","127","img/food1.png","75","127.5","2","1","1","2","1,0.7,0,1,0.7,0,0.7,0,1","0,1,0.7,0,1,0.7,1,0.7,0","3","false",""
"","html-keyboard-response","263","94801","0.0-302.0","","","","","null","<img src=""img/food1.png"" style=""width:200px; border:14px solid green;"">","null","","","","","","","","","",""
"","image-keyboard-response","264","94984","0.0-304.0","","","","","182","img/food2.png","75","182.39999999990687","2","1","2","2","1,0.7,0,1,0.7,0,0.7,0,1","0,1,0.7,0,1,0.7,1,0.7,0","3","false",""
"","html-keyboard-response","265","95286","0.0-305.0","","","","","null","<img src=""img/food2.png"" style=""width:200px; border:14px solid green;"">","null","","","","","","","","","",""
"","image-keyboard-response","266","95429","0.0-307.0","","","","","142.60000000009313","img/food2.png","75","143","2","1","2","2","1,0.7,0,1,0.7,0,0.7,0,1","0,1,0.7,0,1,0.7,1,0.7,0","3","false",""
"","html-keyboard-response","267","95731","0.0-308.0","","","","","null","<img src=""img/food2.png"" style=""width:200px; border:14px solid green;"">","null","","","","","","","","","",""
"","image-keyboard-response","268","95919","0.0-310.0","","","","","187.1999999997206","img/food2.png","75","187.79999999981374","2","1","2","2","1,0.7,0,1,0.7,0,0.7,0,1","0,1,0.7,0,1,0.7,1,0.7,0","3","false",""
"","html-keyboard-response","269","96220","0.0-311.0","","","","","null","<img src=""img/food2.png"" style=""width:200px; border:14px solid green;"">","null","","","","","","","","","",""
"","image-keyboard-response","270","96435","0.0-313.0","","","","","214.10000000009313","img/food2.png","75","214.70000000018626","2","1","2","2","1,0.7,0,1,0.7,0,0.7,0,1","0,1,0.7,0,1,0.7,1,0.7,0","3","false",""
"","html-keyboard-response","271","96737","0.0-314.0","","","","","null","<img src=""img/food2.png"" style=""width:200px; border:14px solid green;"">","null","","","","","","","","","",""
"","image-keyboard-response","272","96963","0.0-316.0","","","","","225.8000000002794","img/food2.png","75","226.3000000002794","2","1","2","2","1,0.7,0,1,0.7,0,0.7,0,1","0,1,0.7,0,1,0.7,1,0.7,0","3","false",""
"","html-keyboard-response","273","97265","0.0-317.0","","","","","null","<img src=""img/food2.png"" style=""width:200px; border:14px solid green;"">","null","","","","","","","","","",""
"","image-keyboard-response","274","97469","0.0-319.0","","","","","203.59999999962747","img/food2.png","75","204","2","1","2","2","1,0.7,0,1,0.7,0,0.7,0,1","0,1,0.7,0,1,0.7,1,0.7,0","3","false",""
"","html-keyboard-response","275","97771","0.0-320.0","","","","","null","<img src=""img/food2.png"" style=""width:200px; border:14px solid green;"">","null","","","","","","","","","",""
"","image-keyboard-response","276","97963","0.0-322.0","","","","","191.39999999990687","img/food1.png","75","191.89999999990687","2","1","1","2","1,0.7,0,1,0.7,0,0.7,0,1","0,1,0.7,0,1,0.7,1,0.7,0","3","false",""
"","html-keyboard-response","277","98265","0.0-323.0","","","","","null","<img src=""img/food1.png"" style=""width:200px; border:14px solid green;"">","null","","","","","","","","","",""
"","image-keyboard-response","278","98432","0.0-325.0","","","","","166.3000000002794","img/food1.png","75","166.89999999990687","2","1","1","2","1,0.7,0,1,0.7,0,0.7,0,1","0,1,0.7,0,1,0.7,1,0.7,0","3","false",""
"","html-keyboard-response","279","98733","0.0-326.0","","","","","null","<img src=""img/food1.png"" style=""width:200px; border:14px solid green;"">","null","","","","","","","","","",""
"","image-keyboard-response","280","98931","0.0-328.0","","","","","196.79999999981374","img/food2.png","75","197.5","2","1","2","2","1,0.7,0,1,0.7,0,0.7,0,1","0,1,0.7,0,1,0.7,1,0.7,0","3","false",""
"","html-keyboard-response","281","99232","0.0-329.0","","","","","null","<img src=""img/food2.png"" style=""width:200px; border:14px solid green;"">","null","","","","","","","","","",""
"","image-keyboard-response","282","99411","0.0-331.0","","","","","177.6999999997206","img/food2.png","75","178.20000000018626","2","1","2","2","1,0.7,0,1,0.7,0,0.7,0,1","0,1,0.7,0,1,0.7,1,0.7,0","3","false",""
"","html-keyboard-response","283","99712","0.0-332.0","","","","","null","<img src=""img/food2.png"" style=""width:200px; border:14px solid green;"">","null","","","","","","","","","",""
"","image-keyboard-response","284","99883","0.0-334.0","","","","","170.39999999990687","img/food1.png","75","170.89999999990687","2","1","1","2","1,0.7,0,1,0.7,0,0.7,0,1","0,1,0.7,0,1,0.7,1,0.7,0","3","false",""
"","html-keyboard-response","285","100185","0.0-335.0","","","","","null","<img src=""img/food1.png"" style=""width:200px; border:14px solid green;"">","null","","","","","","","","","",""
"","image-keyboard-response","286","100351","0.0-337.0","","","","","165","img/food2.png","75","165.5","2","1","2","2","1,0.7,0,1,0.7,0,0.7,0,1","0,1,0.7,0,1,0.7,1,0.7,0","3","false",""
"","html-keyboard-response","287","100652","0.0-338.0","","","","","null","<img src=""img/food2.png"" style=""width:200px; border:14px solid green;"">","null","","","","","","","","","",""
"","image-keyboard-response","288","100826","0.0-340.0","","","","","173","img/food1.png","75","173.39999999990687","2","1","1","2","1,0.7,0,1,0.7,0,0.7,0,1","0,1,0.7,0,1,0.7,1,0.7,0","3","false",""
"","html-keyboard-response","289","101137","0.0-341.0","","","","","null","<img src=""img/food1.png"" style=""width:200px; border:14px solid green;"">","null","","","","","","","","","",""
"","image-keyboard-response","290","101279","0.0-343.0","","","","","141.5","img/food5.png","75","142","2","1","3","2","1,0.7,0,1,0.7,0,0.7,0,1","0,1,0.7,0,1,0.7,1,0.7,0","3","false",""
"","html-keyboard-response","291","101581","0.0-344.0","","","","","null","<img src=""img/food5.png"" style=""width:200px; border:14px solid green;"">","null","","","","","","","","","",""
"","image-keyboard-response","292","101740","0.0-346.0","","","","","158.5","img/food2.png","75","159.10000000009313","2","1","2","2","1,0.7,0,1,0.7,0,0.7,0,1","0,1,0.7,0,1,0.7,1,0.7,0","3","false",""
"","html-keyboard-response","293","102042","0.0-347.0","","","","","null","<img src=""img/food2.png"" style=""width:200px; border:14px solid green;"">","null","","","","","","","","","",""
"","image-keyboard-response","294","102196","0.0-349.0","","","","","153.59999999962747","img/food1.png","75","154.20000000018626","2","1","1","2","1,0.7,0,1,0.7,0,0.7,0,1","0,1,0.7,0,1,0.7,1,0.7,0","3","false",""
"","html-keyboard-response","295","102498","0.0-350.0","","","","","null","<img src=""img/food1.png"" style=""width:200px; border:14px solid green;"">","null","","","","","","","","","",""
"","image-keyboard-response","296","102659","0.0-352.0","","","","","160.5","img/food5.png","75","161","2","1","3","2","1,0.7,0,1,0.7,0,0.7,0,1","0,1,0.7,0,1,0.7,1,0.7,0","3","false",""
"","html-keyboard-response","297","102960","0.0-353.0","","","","","null","<img src=""img/food5.png"" style=""width:200px; border:14px solid green;"">","null","","","","","","","","","",""
"","image-keyboard-response","298","103108","0.0-355.0","","","","","146.60000000009313","img/food2.png","75","147.40000000037253","2","1","2","2","1,0.7,0,1,0.7,0,0.7,0,1","0,1,0.7,0,1,0.7,1,0.7,0","3","false",""
"","html-keyboard-response","299","103409","0.0-356.0","","","","","null","<img src=""img/food2.png"" style=""width:200px; border:14px solid green;"">","null","","","","","","","","","",""
"","image-keyboard-response","300","103573","0.0-358.0","","","","","163.39999999990687","img/food5.png","75","164","2","1","3","2","1,0.7,0,1,0.7,0,0.7,0,1","0,1,0.7,0,1,0.7,1,0.7,0","3","false",""
"","html-keyboard-response","301","103874","0.0-359.0","","","","","null","<img src=""img/food5.png"" style=""width:200px; border:14px solid green;"">","null","","","","","","","","","",""
"","image-keyboard-response","302","104030","0.0-361.0","","","","","155.10000000009313","img/food5.png","75","155.60000000009313","2","1","3","2","1,0.7,0,1,0.7,0,0.7,0,1","0,1,0.7,0,1,0.7,1,0.7,0","3","false",""
"","html-keyboard-response","303","104332","0.0-362.0","","","","","null","<img src=""img/food5.png"" style=""width:200px; border:14px solid green;"">","null","","","","","","","","","",""
"","image-keyboard-response","304","104501","0.0-364.0","","","","","167.89999999990687","img/food5.png","75","168.29999999981374","2","0","3","2","1,0.7,0,1,0.7,0,0.7,0,1","0,1,0.7,0,1,0.7,1,0.7,0","3","false",""
"","html-keyboard-response","305","104803","0.0-365.0","","","","","null","<img src=""img/food5.png"" style=""width:200px;border:14px solid red;"">","null","","","","","","","","","",""
"","image-keyboard-response","306","104956","0.0-367.0","","","","","152.20000000018626","img/food1.png","75","152.79999999981374","2","1","1","2","1,0.7,0,1,0.7,0,0.7,0,1","0,1,0.7,0,1,0.7,1,0.7,0","3","false",""
"","html-keyboard-response","307","105258","0.0-368.0","","","","","null","<img src=""img/food1.png"" style=""width:200px; border:14px solid green;"">","null","","","","","","","","","",""
"","image-keyboard-response","308","105435","0.0-370.0","","","","","176.1999999997206","img/food5.png","75","176.70000000018626","2","0","3","2","1,0.7,0,1,0.7,0,0.7,0,1","0,1,0.7,0,1,0.7,1,0.7,0","3","false",""
"","html-keyboard-response","309","105737","0.0-371.0","","","","","null","<img src=""img/food5.png"" style=""width:200px;border:14px solid red;"">","null","","","","","","","","","",""
"","image-keyboard-response","310","105912","0.0-373.0","","","","","173.89999999990687","img/food2.png","75","174.5","2","1","2","2","1,0.7,0,1,0.7,0,0.7,0,1","0,1,0.7,0,1,0.7,1,0.7,0","3","false",""
"","html-keyboard-response","311","106213","0.0-374.0","","","","","null","<img src=""img/food2.png"" style=""width:200px; border:14px solid green;"">","null","","","","","","","","","",""
"","image-keyboard-response","312","106398","0.0-376.0","","","","","184.39999999990687","img/food1.png","75","184.89999999990687","2","1","1","2","1,0.7,0,1,0.7,0,0.7,0,1","0,1,0.7,0,1,0.7,1,0.7,0","3","false",""
"","html-keyboard-response","313","106699","0.0-377.0","","","","","null","<img src=""img/food1.png"" style=""width:200px; border:14px solid green;"">","null","","","","","","","","","",""
"","image-keyboard-response","314","106837","0.0-379.0","","","","","137","img/food1.png","75","137.60000000009313","2","1","1","2","1,0.7,0,1,0.7,0,0.7,0,1","0,1,0.7,0,1,0.7,1,0.7,0","3","false",""
"","html-keyboard-response","315","107145","0.0-380.0","","","","","null","<img src=""img/food1.png"" style=""width:200px; border:14px solid green;"">","null","","","","","","","","","",""
"","image-keyboard-response","316","107271","0.0-382.0","","","","","125.10000000009313","img/food5.png","75","125.60000000009313","2","1","3","2","1,0.7,0,1,0.7,0,0.7,0,1","0,1,0.7,0,1,0.7,1,0.7,0","3","false",""
"","html-keyboard-response","317","107573","0.0-383.0","","","","","null","<img src=""img/food5.png"" style=""width:200px; border:14px solid green;"">","null","","","","","","","","","",""
"","image-keyboard-response","318","107717","0.0-385.0","","","","","143.39999999990687","img/food5.png","75","143.89999999990687","2","1","3","2","1,0.7,0,1,0.7,0,0.7,0,1","0,1,0.7,0,1,0.7,1,0.7,0","3","false",""
"","html-keyboard-response","319","108019","0.0-386.0","","","","","null","<img src=""img/food5.png"" style=""width:200px; border:14px solid green;"">","null","","","","","","","","","",""
"","image-keyboard-response","320","108163","0.0-388.0","","","","","143","img/food5.png","75","143.39999999990687","2","1","3","2","1,0.7,0,1,0.7,0,0.7,0,1","0,1,0.7,0,1,0.7,1,0.7,0","3","false",""
"","html-keyboard-response","321","108464","0.0-389.0","","","","","null","<img src=""img/food5.png"" style=""width:200px; border:14px solid green;"">","null","","","","","","","","","",""
"","image-keyboard-response","322","108609","0.0-391.0","","","","","144.1999999997206","img/food1.png","75","144.79999999981374","2","1","1","2","1,0.7,0,1,0.7,0,0.7,0,1","0,1,0.7,0,1,0.7,1,0.7,0","3","false",""
"","html-keyboard-response","323","108911","0.0-392.0","","","","","null","<img src=""img/food1.png"" style=""width:200px; border:14px solid green;"">","null","","","","","","","","","",""
"","image-keyboard-response","324","109059","0.0-394.0","","","","","147.10000000009313","img/food2.png","75","147.8000000002794","2","1","2","2","1,0.7,0,1,0.7,0,0.7,0,1","0,1,0.7,0,1,0.7,1,0.7,0","3","false",""
"","html-keyboard-response","325","109359","0.0-395.0","","","","","null","<img src=""img/food2.png"" style=""width:200px; border:14px solid green;"">","null","","","","","","","","","",""
"","image-keyboard-response","326","109509","0.0-397.0","","","","","148.8000000002794","img/food1.png","75","149.39999999990687","2","1","1","2","1,0.7,0,1,0.7,0,0.7,0,1","0,1,0.7,0,1,0.7,1,0.7,0","3","false",""
"","html-keyboard-response","327","109811","0.0-398.0","","","","","null","<img src=""img/food1.png"" style=""width:200px; border:14px solid green;"">","null","","","","","","","","","",""
"","image-keyboard-response","328","109976","0.0-400.0","","","","","164.20000000018626","img/food1.png","75","164.70000000018626","2","1","1","2","1,0.7,0,1,0.7,0,0.7,0,1","0,1,0.7,0,1,0.7,1,0.7,0","3","false",""
"","html-keyboard-response","329","110277","0.0-401.0","","","","","null","<img src=""img/food1.png"" style=""width:200px; border:14px solid green;"">","null","","","","","","","","","",""
"","image-keyboard-response","330","110455","0.0-403.0","","","","","176.1999999997206","img/food1.png","75","176.89999999990687","2","1","1","2","1,0.7,0,1,0.7,0,0.7,0,1","0,1,0.7,0,1,0.7,1,0.7,0","3","false",""
"","html-keyboard-response","331","110756","0.0-404.0","","","","","null","<img src=""img/food1.png"" style=""width:200px; border:14px solid green;"">","null","","","","","","","","","",""
"","image-keyboard-response","332","110917","0.0-406.0","","","","","160.10000000009313","img/food1.png","75","160.89999999990687","2","1","1","2","1,0.7,0,1,0.7,0,0.7,0,1","0,1,0.7,0,1,0.7,1,0.7,0","3","false",""
"","html-keyboard-response","333","111218","0.0-407.0","","","","","null","<img src=""img/food1.png"" style=""width:200px; border:14px solid green;"">","null","","","","","","","","","",""
"","image-keyboard-response","334","111388","0.0-409.0","","","","","169.40000000037253","img/food2.png","75","170.10000000009313","2","1","2","2","1,0.7,0,1,0.7,0,0.7,0,1","0,1,0.7,0,1,0.7,1,0.7,0","3","false",""
"","html-keyboard-response","335","111690","0.0-410.0","","","","","null","<img src=""img/food2.png"" style=""width:200px; border:14px solid green;"">","null","","","","","","","","","",""
"","image-keyboard-response","336","111822","0.0-412.0","","","","","130.39999999990687","img/food1.png","75","131.10000000009313","2","1","1","2","1,0.7,0,1,0.7,0,0.7,0,1","0,1,0.7,0,1,0.7,1,0.7,0","3","false",""
"","html-keyboard-response","337","112123","0.0-413.0","","","","","null","<img src=""img/food1.png"" style=""width:200px; border:14px solid green;"">","null","","","","","","","","","",""
"","image-keyboard-response","338","112255","0.0-415.0","","","","","131.70000000018626","img/food5.png","75","132.29999999981374","2","1","3","2","1,0.7,0,1,0.7,0,0.7,0,1","0,1,0.7,0,1,0.7,1,0.7,0","3","false",""
"","html-keyboard-response","339","112556","0.0-416.0","","","","","null","<img src=""img/food5.png"" style=""width:200px; border:14px solid green;"">","null","","","","","","","","","",""
"","image-keyboard-response","340","112694","0.0-418.0","","","","","137.10000000009313","img/food1.png","75","137.79999999981374","2","1","1","2","1,0.7,0,1,0.7,0,0.7,0,1","0,1,0.7,0,1,0.7,1,0.7,0","3","false",""
"","html-keyboard-response","341","112996","0.0-419.0","","","","","null","<img src=""img/food1.png"" style=""width:200px; border:14px solid green;"">","null","","","","","","","","","",""
"","image-keyboard-response","342","113131","0.0-421.0","","","","","134.60000000009313","img/food2.png","75","135.1999999997206","2","1","2","2","1,0.7,0,1,0.7,0,0.7,0,1","0,1,0.7,0,1,0.7,1,0.7,0","3","false",""
"","html-keyboard-response","343","113433","0.0-422.0","","","","","null","<img src=""img/food2.png"" style=""width:200px; border:14px solid green;"">","null","","","","","","","","","",""
"","image-keyboard-response","344","113597","0.0-424.0","","","","","162.89999999990687","img/food1.png","75","163.5","2","1","1","2","1,0.7,0,1,0.7,0,0.7,0,1","0,1,0.7,0,1,0.7,1,0.7,0","3","false",""
"","html-keyboard-response","345","113898","0.0-425.0","","","","","null","<img src=""img/food1.png"" style=""width:200px; border:14px solid green;"">","null","","","","","","","","","",""
"","image-keyboard-response","346","114036","0.0-427.0","","","","","137","img/food5.png","75","137.5","2","1","3","2","1,0.7,0,1,0.7,0,0.7,0,1","0,1,0.7,0,1,0.7,1,0.7,0","3","false",""
"","html-keyboard-response","347","114341","0.0-428.0","","","","","null","<img src=""img/food5.png"" style=""width:200px; border:14px solid green;"">","null","","","","","","","","","",""
"","image-keyboard-response","348","114474","0.0-430.0","","","","","132","img/food5.png","75","132.5","2","0","3","2","1,0.7,0,1,0.7,0,0.7,0,1","0,1,0.7,0,1,0.7,1,0.7,0","3","false",""
"","html-keyboard-response","349","114784","0.0-431.0","","","","","null","<img src=""img/food5.png"" style=""width:200px;border:14px solid red;"">","null","","","","","","","","","",""
"","image-keyboard-response","350","114939","0.0-433.0","","","","","155","img/food5.png","75","155.60000000009313","2","0","3","2","1,0.7,0,1,0.7,0,0.7,0,1","0,1,0.7,0,1,0.7,1,0.7,0","3","false",""
"","html-keyboard-response","351","115241","0.0-434.0","","","","","null","<img src=""img/food5.png"" style=""width:200px;border:14px solid red;"">","null","","","","","","","","","",""
"","image-keyboard-response","352","115393","0.0-436.0","","","","","152.10000000009313","img/food5.png","75","152.60000000009313","2","1","3","2","1,0.7,0,1,0.7,0,0.7,0,1","0,1,0.7,0,1,0.7,1,0.7,0","3","false",""
"","html-keyboard-response","353","115695","0.0-437.0","","","","","null","<img src=""img/food5.png"" style=""width:200px; border:14px solid green;"">","null","","","","","","","","","",""
"","image-keyboard-response","354","115856","0.0-439.0","","","","","161","img/food5.png","75","161.59999999962747","2","0","3","2","1,0.7,0,1,0.7,0,0.7,0,1","0,1,0.7,0,1,0.7,1,0.7,0","3","false",""
"","html-keyboard-response","355","116158","0.0-440.0","","","","","null","<img src=""img/food5.png"" style=""width:200px;border:14px solid red;"">","null","","","","","","","","","",""
"","image-keyboard-response","356","116293","0.0-442.0","","","","","134.1999999997206","img/food1.png","75","134.70000000018626","2","1","1","2","1,0.7,0,1,0.7,0,0.7,0,1","0,1,0.7,0,1,0.7,1,0.7,0","3","false",""
"","html-keyboard-response","357","116594","0.0-443.0","","","","","null","<img src=""img/food1.png"" style=""width:200px; border:14px solid green;"">","null","","","","","","","","","",""
"","image-keyboard-response","358","116769","0.0-445.0","","","","","173.70000000018626","img/food2.png","75","174.39999999990687","2","1","2","2","1,0.7,0,1,0.7,0,0.7,0,1","0,1,0.7,0,1,0.7,1,0.7,0","3","false",""
"","html-keyboard-response","359","117071","0.0-446.0","","","","","null","<img src=""img/food2.png"" style=""width:200px; border:14px solid green;"">","null","","","","","","","","","",""
"","image-keyboard-response","360","117233","0.0-448.0","","","","","160.89999999990687","img/food5.png","75","161.70000000018626","2","1","3","2","1,0.7,0,1,0.7,0,0.7,0,1","0,1,0.7,0,1,0.7,1,0.7,0","3","false",""
"","html-keyboard-response","361","117534","0.0-449.0","","","","","null","<img src=""img/food5.png"" style=""width:200px; border:14px solid green;"">","null","","","","","","","","","",""
"","image-keyboard-response","362","117699","0.0-451.0","","","","","164.1999999997206","img/food5.png","75","164.8000000002794","2","1","3","2","1,0.7,0,1,0.7,0,0.7,0,1","0,1,0.7,0,1,0.7,1,0.7,0","3","false",""
"","html-keyboard-response","363","118001","0.0-452.0","","","","","null","<img src=""img/food5.png"" style=""width:200px; border:14px solid green;"">","null","","","","","","","","","",""
"","instructions","364","120490","0.0-454.0","","","","[{""page_index"":0,""viewing_time"":2489.399999999907}]","2489.600000000093","","","","","","","","","","","",""
"","survey-text","365","124584","0.0-455.0","","","","","4092.100000000093","","","","","","","","","","","","{""Q0"":""A2T1LNI80EPOQR""}"
