"success","trial_type","trial_index","time_elapsed","internal_node_id","assignmentID","mturkID","hitID","view_history","rt","stimulus","key_press","reactionTime","a","r","warning","s","cond","reward_cond","reward_cond_actual","reward_matrix_idx","responses"
"true","fullscreen","0","2481","0.0-0.0","3W8CV64QJ3L4LLBKWJUWOVPLSEO9H3","A2T8U68Y44GPVD","3P7RGTLO6EZ76AO3386R8ZK9IWWKAW","","","","","","","","","","","","","",""
"","instructions","1","33649","0.0-1.0","3W8CV64QJ3L4LLBKWJUWOVPLSEO9H3","A2T8U68Y44GPVD","3P7RGTLO6EZ76AO3386R8ZK9IWWKAW","[{""page_index"":0,""viewing_time"":4111},{""page_index"":1,""viewing_time"":1335},{""page_index"":2,""viewing_time"":2775},{""page_index"":3,""viewing_time"":9255},{""page_index"":4,""viewing_time"":10520},{""page_index"":5,""viewing_time"":1831},{""page_index"":6,""viewing_time"":1337}]","31164","","","","","","","","","","","",""
"","instructions","2","39127","0.0-2.0","3W8CV64QJ3L4LLBKWJUWOVPLSEO9H3","A2T8U68Y44GPVD","3P7RGTLO6EZ76AO3386R8ZK9IWWKAW","[{""page_index"":0,""viewing_time"":3893},{""page_index"":1,""viewing_time"":1583}]","5477","","","","","","","","","","","",""
"","image-keyboard-response","3","39727","0.0-3.0","3W8CV64QJ3L4LLBKWJUWOVPLSEO9H3","A2T8U68Y44GPVD","3P7RGTLO6EZ76AO3386R8ZK9IWWKAW","","597","img/food2.png","75","599","2","1","false","1","2","1,0.5,0,1,0.5,0,0.5,0,1","0,1,0.5,0,1,0.5,1,0.5,0","3",""
"","html-keyboard-response","4","40029","0.0-4.0","3W8CV64QJ3L4LLBKWJUWOVPLSEO9H3","A2T8U68Y44GPVD","3P7RGTLO6EZ76AO3386R8ZK9IWWKAW","","null","<img src=""img/food2.png"" style=""width:200px; border:14px solid green;"">","null","","","","","","","","","",""
"","image-keyboard-response","5","40093","0.0-6.0","3W8CV64QJ3L4LLBKWJUWOVPLSEO9H3","A2T8U68Y44GPVD","3P7RGTLO6EZ76AO3386R8ZK9IWWKAW","","62","img/food6.png","74","63","1","1","false","3","2","1,0.5,0,1,0.5,0,0.5,0,1","0,1,0.5,0,1,0.5,1,0.5,0","3",""
"","html-keyboard-response","6","40394","0.0-7.0","3W8CV64QJ3L4LLBKWJUWOVPLSEO9H3","A2T8U68Y44GPVD","3P7RGTLO6EZ76AO3386R8ZK9IWWKAW","","null","<img src=""img/food6.png"" style=""width:200px; border:14px solid green;"">","null","","","","","","","","","",""
"","image-keyboard-response","7","40422","0.0-9.0","3W8CV64QJ3L4LLBKWJUWOVPLSEO9H3","A2T8U68Y44GPVD","3P7RGTLO6EZ76AO3386R8ZK9IWWKAW","","26","img/food4.png","75","28","2","1","false","2","2","1,0.5,0,1,0.5,0,0.5,0,1","0,1,0.5,0,1,0.5,1,0.5,0","3",""
"","html-keyboard-response","8","40724","0.0-10.0","3W8CV64QJ3L4LLBKWJUWOVPLSEO9H3","A2T8U68Y44GPVD","3P7RGTLO6EZ76AO3386R8ZK9IWWKAW","","null","<img src=""img/food4.png"" style=""width:200px; border:14px solid green;"">","null","","","","","","","","","",""
"","image-keyboard-response","9","40865","0.0-12.0","3W8CV64QJ3L4LLBKWJUWOVPLSEO9H3","A2T8U68Y44GPVD","3P7RGTLO6EZ76AO3386R8ZK9IWWKAW","","139","img/food4.png","76","141","3","0","false","2","2","1,0.5,0,1,0.5,0,0.5,0,1","0,1,0.5,0,1,0.5,1,0.5,0","3",""
"","html-keyboard-response","10","41167","0.0-13.0","3W8CV64QJ3L4LLBKWJUWOVPLSEO9H3","A2T8U68Y44GPVD","3P7RGTLO6EZ76AO3386R8ZK9IWWKAW","","null","<img src=""img/food4.png"" style=""width:200px;border:14px solid red;"">","null","","","","","","","","","",""
"","image-keyboard-response","11","41519","0.0-15.0","3W8CV64QJ3L4LLBKWJUWOVPLSEO9H3","A2T8U68Y44GPVD","3P7RGTLO6EZ76AO3386R8ZK9IWWKAW","","351","img/food2.png","74","351","1","0","false","1","2","1,0.5,0,1,0.5,0,0.5,0,1","0,1,0.5,0,1,0.5,1,0.5,0","3",""
"","html-keyboard-response","12","41822","0.0-16.0","3W8CV64QJ3L4LLBKWJUWOVPLSEO9H3","A2T8U68Y44GPVD","3P7RGTLO6EZ76AO3386R8ZK9IWWKAW","","null","<img src=""img/food2.png"" style=""width:200px;border:14px solid red;"">","null","","","","","","","","","",""
"","image-keyboard-response","13","41837","0.0-18.0","3W8CV64QJ3L4LLBKWJUWOVPLSEO9H3","A2T8U68Y44GPVD","3P7RGTLO6EZ76AO3386R8ZK9IWWKAW","","13","img/food4.png","74","15","1","0","false","2","2","1,0.5,0,1,0.5,0,0.5,0,1","0,1,0.5,0,1,0.5,1,0.5,0","3",""
"","html-keyboard-response","14","42139","0.0-19.0","3W8CV64QJ3L4LLBKWJUWOVPLSEO9H3","A2T8U68Y44GPVD","3P7RGTLO6EZ76AO3386R8ZK9IWWKAW","","null","<img src=""img/food4.png"" style=""width:200px;border:14px solid red;"">","null","","","","","","","","","",""
"","image-keyboard-response","15","42165","0.0-21.0","3W8CV64QJ3L4LLBKWJUWOVPLSEO9H3","A2T8U68Y44GPVD","3P7RGTLO6EZ76AO3386R8ZK9IWWKAW","","25","img/food4.png","74","26","1","0","false","2","2","1,0.5,0,1,0.5,0,0.5,0,1","0,1,0.5,0,1,0.5,1,0.5,0","3",""
"","html-keyboard-response","16","42549","0.0-22.0","3W8CV64QJ3L4LLBKWJUWOVPLSEO9H3","A2T8U68Y44GPVD","3P7RGTLO6EZ76AO3386R8ZK9IWWKAW","","null","<img src=""img/food4.png"" style=""width:200px;border:14px solid red;"">","null","","","","","","","","","",""
"","image-keyboard-response","17","42558","0.0-24.0","3W8CV64QJ3L4LLBKWJUWOVPLSEO9H3","A2T8U68Y44GPVD","3P7RGTLO6EZ76AO3386R8ZK9IWWKAW","","8","img/food2.png","75","9","2","1","false","1","2","1,0.5,0,1,0.5,0,0.5,0,1","0,1,0.5,0,1,0.5,1,0.5,0","3",""
"","html-keyboard-response","18","42860","0.0-25.0","3W8CV64QJ3L4LLBKWJUWOVPLSEO9H3","A2T8U68Y44GPVD","3P7RGTLO6EZ76AO3386R8ZK9IWWKAW","","null","<img src=""img/food2.png"" style=""width:200px; border:14px solid green;"">","null","","","","","","","","","",""
"","image-keyboard-response","19","42933","0.0-27.0","3W8CV64QJ3L4LLBKWJUWOVPLSEO9H3","A2T8U68Y44GPVD","3P7RGTLO6EZ76AO3386R8ZK9IWWKAW","","72","img/food4.png","76","72","3","0","false","2","2","1,0.5,0,1,0.5,0,0.5,0,1","0,1,0.5,0,1,0.5,1,0.5,0","3",""
"","html-keyboard-response","20","43235","0.0-28.0","3W8CV64QJ3L4LLBKWJUWOVPLSEO9H3","A2T8U68Y44GPVD","3P7RGTLO6EZ76AO3386R8ZK9IWWKAW","","null","<img src=""img/food4.png"" style=""width:200px;border:14px solid red;"">","null","","","","","","","","","",""
"","image-keyboard-response","21","43366","0.0-30.0","3W8CV64QJ3L4LLBKWJUWOVPLSEO9H3","A2T8U68Y44GPVD","3P7RGTLO6EZ76AO3386R8ZK9IWWKAW","","129","img/food2.png","76","130","3","0","false","1","2","1,0.5,0,1,0.5,0,0.5,0,1","0,1,0.5,0,1,0.5,1,0.5,0","3",""
"","html-keyboard-response","22","43668","0.0-31.0","3W8CV64QJ3L4LLBKWJUWOVPLSEO9H3","A2T8U68Y44GPVD","3P7RGTLO6EZ76AO3386R8ZK9IWWKAW","","null","<img src=""img/food2.png"" style=""width:200px;border:14px solid red;"">","null","","","","","","","","","",""
"","image-keyboard-response","23","43677","0.0-33.0","3W8CV64QJ3L4LLBKWJUWOVPLSEO9H3","A2T8U68Y44GPVD","3P7RGTLO6EZ76AO3386R8ZK9IWWKAW","","8","img/food2.png","75","8","2","1","false","1","2","1,0.5,0,1,0.5,0,0.5,0,1","0,1,0.5,0,1,0.5,1,0.5,0","3",""
"","html-keyboard-response","24","44000","0.0-34.0","3W8CV64QJ3L4LLBKWJUWOVPLSEO9H3","A2T8U68Y44GPVD","3P7RGTLO6EZ76AO3386R8ZK9IWWKAW","","null","<img src=""img/food2.png"" style=""width:200px; border:14px solid green;"">","null","","","","","","","","","",""
"","image-keyboard-response","25","44125","0.0-36.0","3W8CV64QJ3L4LLBKWJUWOVPLSEO9H3","A2T8U68Y44GPVD","3P7RGTLO6EZ76AO3386R8ZK9IWWKAW","","124","img/food4.png","74","125","1","0","false","2","2","1,0.5,0,1,0.5,0,0.5,0,1","0,1,0.5,0,1,0.5,1,0.5,0","3",""
"","html-keyboard-response","26","44426","0.0-37.0","3W8CV64QJ3L4LLBKWJUWOVPLSEO9H3","A2T8U68Y44GPVD","3P7RGTLO6EZ76AO3386R8ZK9IWWKAW","","null","<img src=""img/food4.png"" style=""width:200px;border:14px solid red;"">","null","","","","","","","","","",""
"","image-keyboard-response","27","44454","0.0-39.0","3W8CV64QJ3L4LLBKWJUWOVPLSEO9H3","A2T8U68Y44GPVD","3P7RGTLO6EZ76AO3386R8ZK9IWWKAW","","27","img/food6.png","75","27","2","1","false","3","2","1,0.5,0,1,0.5,0,0.5,0,1","0,1,0.5,0,1,0.5,1,0.5,0","3",""
"","html-keyboard-response","28","44823","0.0-40.0","3W8CV64QJ3L4LLBKWJUWOVPLSEO9H3","A2T8U68Y44GPVD","3P7RGTLO6EZ76AO3386R8ZK9IWWKAW","","null","<img src=""img/food6.png"" style=""width:200px; border:14px solid green;"">","null","","","","","","","","","",""
"","image-keyboard-response","29","44972","0.0-42.0","3W8CV64QJ3L4LLBKWJUWOVPLSEO9H3","A2T8U68Y44GPVD","3P7RGTLO6EZ76AO3386R8ZK9IWWKAW","","142","img/food4.png","74","142","1","0","false","2","2","1,0.5,0,1,0.5,0,0.5,0,1","0,1,0.5,0,1,0.5,1,0.5,0","3",""
"","html-keyboard-response","30","45274","0.0-43.0","3W8CV64QJ3L4LLBKWJUWOVPLSEO9H3","A2T8U68Y44GPVD","3P7RGTLO6EZ76AO3386R8ZK9IWWKAW","","null","<img src=""img/food4.png"" style=""width:200px;border:14px solid red;"">","null","","","","","","","","","",""
"","image-keyboard-response","31","45410","0.0-45.0","3W8CV64QJ3L4LLBKWJUWOVPLSEO9H3","A2T8U68Y44GPVD","3P7RGTLO6EZ76AO3386R8ZK9IWWKAW","","135","img/food4.png","75","135","2","1","false","2","2","1,0.5,0,1,0.5,0,0.5,0,1","0,1,0.5,0,1,0.5,1,0.5,0","3",""
"","html-keyboard-response","32","45712","0.0-46.0","3W8CV64QJ3L4LLBKWJUWOVPLSEO9H3","A2T8U68Y44GPVD","3P7RGTLO6EZ76AO3386R8ZK9IWWKAW","","null","<img src=""img/food4.png"" style=""width:200px; border:14px solid green;"">","null","","","","","","","","","",""
"","image-keyboard-response","33","45845","0.0-48.0","3W8CV64QJ3L4LLBKWJUWOVPLSEO9H3","A2T8U68Y44GPVD","3P7RGTLO6EZ76AO3386R8ZK9IWWKAW","","131","img/food4.png","75","133","2","1","false","2","2","1,0.5,0,1,0.5,0,0.5,0,1","0,1,0.5,0,1,0.5,1,0.5,0","3",""
"","html-keyboard-response","34","46146","0.0-49.0","3W8CV64QJ3L4LLBKWJUWOVPLSEO9H3","A2T8U68Y44GPVD","3P7RGTLO6EZ76AO3386R8ZK9IWWKAW","","null","<img src=""img/food4.png"" style=""width:200px; border:14px solid green;"">","null","","","","","","","","","",""
"","image-keyboard-response","35","46152","0.0-51.0","3W8CV64QJ3L4LLBKWJUWOVPLSEO9H3","A2T8U68Y44GPVD","3P7RGTLO6EZ76AO3386R8ZK9IWWKAW","","5","img/food4.png","76","5","3","1","false","2","2","1,0.5,0,1,0.5,0,0.5,0,1","0,1,0.5,0,1,0.5,1,0.5,0","3",""
"","html-keyboard-response","36","46455","0.0-52.0","3W8CV64QJ3L4LLBKWJUWOVPLSEO9H3","A2T8U68Y44GPVD","3P7RGTLO6EZ76AO3386R8ZK9IWWKAW","","null","<img src=""img/food4.png"" style=""width:200px; border:14px solid green;"">","null","","","","","","","","","",""
"","image-keyboard-response","37","46645","0.0-54.0","3W8CV64QJ3L4LLBKWJUWOVPLSEO9H3","A2T8U68Y44GPVD","3P7RGTLO6EZ76AO3386R8ZK9IWWKAW","","187","img/food2.png","76","189","3","0","false","1","2","1,0.5,0,1,0.5,0,0.5,0,1","0,1,0.5,0,1,0.5,1,0.5,0","3",""
"","html-keyboard-response","38","46947","0.0-55.0","3W8CV64QJ3L4LLBKWJUWOVPLSEO9H3","A2T8U68Y44GPVD","3P7RGTLO6EZ76AO3386R8ZK9IWWKAW","","null","<img src=""img/food2.png"" style=""width:200px;border:14px solid red;"">","null","","","","","","","","","",""
"","image-keyboard-response","39","47127","0.0-57.0","3W8CV64QJ3L4LLBKWJUWOVPLSEO9H3","A2T8U68Y44GPVD","3P7RGTLO6EZ76AO3386R8ZK9IWWKAW","","179","img/food2.png","76","180","3","0","false","1","2","1,0.5,0,1,0.5,0,0.5,0,1","0,1,0.5,0,1,0.5,1,0.5,0","3",""
"","html-keyboard-response","40","47428","0.0-58.0","3W8CV64QJ3L4LLBKWJUWOVPLSEO9H3","A2T8U68Y44GPVD","3P7RGTLO6EZ76AO3386R8ZK9IWWKAW","","null","<img src=""img/food2.png"" style=""width:200px;border:14px solid red;"">","null","","","","","","","","","",""
"","image-keyboard-response","41","47509","0.0-60.0","3W8CV64QJ3L4LLBKWJUWOVPLSEO9H3","A2T8U68Y44GPVD","3P7RGTLO6EZ76AO3386R8ZK9IWWKAW","","80","img/food6.png","76","81","3","0","false","3","2","1,0.5,0,1,0.5,0,0.5,0,1","0,1,0.5,0,1,0.5,1,0.5,0","3",""
"","html-keyboard-response","42","47810","0.0-61.0","3W8CV64QJ3L4LLBKWJUWOVPLSEO9H3","A2T8U68Y44GPVD","3P7RGTLO6EZ76AO3386R8ZK9IWWKAW","","null","<img src=""img/food6.png"" style=""width:200px;border:14px solid red;"">","null","","","","","","","","","",""
"","image-keyboard-response","43","48397","0.0-63.0","3W8CV64QJ3L4LLBKWJUWOVPLSEO9H3","A2T8U68Y44GPVD","3P7RGTLO6EZ76AO3386R8ZK9IWWKAW","","586","img/food2.png","74","587","1","0","false","1","2","1,0.5,0,1,0.5,0,0.5,0,1","0,1,0.5,0,1,0.5,1,0.5,0","3",""
"","html-keyboard-response","44","48699","0.0-64.0","3W8CV64QJ3L4LLBKWJUWOVPLSEO9H3","A2T8U68Y44GPVD","3P7RGTLO6EZ76AO3386R8ZK9IWWKAW","","null","<img src=""img/food2.png"" style=""width:200px;border:14px solid red;"">","null","","","","","","","","","",""
"","image-keyboard-response","45","48703","0.0-66.0","3W8CV64QJ3L4LLBKWJUWOVPLSEO9H3","A2T8U68Y44GPVD","3P7RGTLO6EZ76AO3386R8ZK9IWWKAW","","3","img/food4.png","75","3","2","1","false","2","2","1,0.5,0,1,0.5,0,0.5,0,1","0,1,0.5,0,1,0.5,1,0.5,0","3",""
"","html-keyboard-response","46","49005","0.0-67.0","3W8CV64QJ3L4LLBKWJUWOVPLSEO9H3","A2T8U68Y44GPVD","3P7RGTLO6EZ76AO3386R8ZK9IWWKAW","","null","<img src=""img/food4.png"" style=""width:200px; border:14px solid green;"">","null","","","","","","","","","",""
"","image-keyboard-response","47","49245","0.0-69.0","3W8CV64QJ3L4LLBKWJUWOVPLSEO9H3","A2T8U68Y44GPVD","3P7RGTLO6EZ76AO3386R8ZK9IWWKAW","","239","img/food6.png","76","240","3","0","false","3","2","1,0.5,0,1,0.5,0,0.5,0,1","0,1,0.5,0,1,0.5,1,0.5,0","3",""
"","html-keyboard-response","48","49547","0.0-70.0","3W8CV64QJ3L4LLBKWJUWOVPLSEO9H3","A2T8U68Y44GPVD","3P7RGTLO6EZ76AO3386R8ZK9IWWKAW","","null","<img src=""img/food6.png"" style=""width:200px;border:14px solid red;"">","null","","","","","","","","","",""
"","image-keyboard-response","49","49788","0.0-72.0","3W8CV64QJ3L4LLBKWJUWOVPLSEO9H3","A2T8U68Y44GPVD","3P7RGTLO6EZ76AO3386R8ZK9IWWKAW","","240","img/food4.png","75","241","2","1","false","2","2","1,0.5,0,1,0.5,0,0.5,0,1","0,1,0.5,0,1,0.5,1,0.5,0","3",""
"","html-keyboard-response","50","50090","0.0-73.0","3W8CV64QJ3L4LLBKWJUWOVPLSEO9H3","A2T8U68Y44GPVD","3P7RGTLO6EZ76AO3386R8ZK9IWWKAW","","null","<img src=""img/food4.png"" style=""width:200px; border:14px solid green;"">","null","","","","","","","","","",""
"","image-keyboard-response","51","50205","0.0-75.0","3W8CV64QJ3L4LLBKWJUWOVPLSEO9H3","A2T8U68Y44GPVD","3P7RGTLO6EZ76AO3386R8ZK9IWWKAW","","113","img/food6.png","74","115","1","1","false","3","2","1,0.5,0,1,0.5,0,0.5,0,1","0,1,0.5,0,1,0.5,1,0.5,0","3",""
"","html-keyboard-response","52","50507","0.0-76.0","3W8CV64QJ3L4LLBKWJUWOVPLSEO9H3","A2T8U68Y44GPVD","3P7RGTLO6EZ76AO3386R8ZK9IWWKAW","","null","<img src=""img/food6.png"" style=""width:200px; border:14px solid green;"">","null","","","","","","","","","",""
"","image-keyboard-response","53","50733","0.0-78.0","3W8CV64QJ3L4LLBKWJUWOVPLSEO9H3","A2T8U68Y44GPVD","3P7RGTLO6EZ76AO3386R8ZK9IWWKAW","","225","img/food2.png","75","226","2","1","false","1","2","1,0.5,0,1,0.5,0,0.5,0,1","0,1,0.5,0,1,0.5,1,0.5,0","3",""
"","html-keyboard-response","54","51034","0.0-79.0","3W8CV64QJ3L4LLBKWJUWOVPLSEO9H3","A2T8U68Y44GPVD","3P7RGTLO6EZ76AO3386R8ZK9IWWKAW","","null","<img src=""img/food2.png"" style=""width:200px; border:14px solid green;"">","null","","","","","","","","","",""
"","image-keyboard-response","55","51166","0.0-81.0","3W8CV64QJ3L4LLBKWJUWOVPLSEO9H3","A2T8U68Y44GPVD","3P7RGTLO6EZ76AO3386R8ZK9IWWKAW","","131","img/food6.png","76","131","3","0","false","3","2","1,0.5,0,1,0.5,0,0.5,0,1","0,1,0.5,0,1,0.5,1,0.5,0","3",""
"","html-keyboard-response","56","51469","0.0-82.0","3W8CV64QJ3L4LLBKWJUWOVPLSEO9H3","A2T8U68Y44GPVD","3P7RGTLO6EZ76AO3386R8ZK9IWWKAW","","null","<img src=""img/food6.png"" style=""width:200px;border:14px solid red;"">","null","","","","","","","","","",""
"","image-keyboard-response","57","51749","0.0-84.0","3W8CV64QJ3L4LLBKWJUWOVPLSEO9H3","A2T8U68Y44GPVD","3P7RGTLO6EZ76AO3386R8ZK9IWWKAW","","279","img/food2.png","75","280","2","1","false","1","2","1,0.5,0,1,0.5,0,0.5,0,1","0,1,0.5,0,1,0.5,1,0.5,0","3",""
"","html-keyboard-response","58","52051","0.0-85.0","3W8CV64QJ3L4LLBKWJUWOVPLSEO9H3","A2T8U68Y44GPVD","3P7RGTLO6EZ76AO3386R8ZK9IWWKAW","","null","<img src=""img/food2.png"" style=""width:200px; border:14px solid green;"">","null","","","","","","","","","",""
"","image-keyboard-response","59","52061","0.0-87.0","3W8CV64QJ3L4LLBKWJUWOVPLSEO9H3","A2T8U68Y44GPVD","3P7RGTLO6EZ76AO3386R8ZK9IWWKAW","","10","img/food6.png","76","10","3","0","false","3","2","1,0.5,0,1,0.5,0,0.5,0,1","0,1,0.5,0,1,0.5,1,0.5,0","3",""
"","html-keyboard-response","60","52362","0.0-88.0","3W8CV64QJ3L4LLBKWJUWOVPLSEO9H3","A2T8U68Y44GPVD","3P7RGTLO6EZ76AO3386R8ZK9IWWKAW","","null","<img src=""img/food6.png"" style=""width:200px;border:14px solid red;"">","null","","","","","","","","","",""
"","image-keyboard-response","61","52436","0.0-90.0","3W8CV64QJ3L4LLBKWJUWOVPLSEO9H3","A2T8U68Y44GPVD","3P7RGTLO6EZ76AO3386R8ZK9IWWKAW","","72","img/food6.png","75","74","2","0","false","3","2","1,0.5,0,1,0.5,0,0.5,0,1","0,1,0.5,0,1,0.5,1,0.5,0","3",""
"","html-keyboard-response","62","52737","0.0-91.0","3W8CV64QJ3L4LLBKWJUWOVPLSEO9H3","A2T8U68Y44GPVD","3P7RGTLO6EZ76AO3386R8ZK9IWWKAW","","null","<img src=""img/food6.png"" style=""width:200px;border:14px solid red;"">","null","","","","","","","","","",""
"","image-keyboard-response","63","52814","0.0-93.0","3W8CV64QJ3L4LLBKWJUWOVPLSEO9H3","A2T8U68Y44GPVD","3P7RGTLO6EZ76AO3386R8ZK9IWWKAW","","76","img/food4.png","74","76","1","0","false","2","2","1,0.5,0,1,0.5,0,0.5,0,1","0,1,0.5,0,1,0.5,1,0.5,0","3",""
"","html-keyboard-response","64","53117","0.0-94.0","3W8CV64QJ3L4LLBKWJUWOVPLSEO9H3","A2T8U68Y44GPVD","3P7RGTLO6EZ76AO3386R8ZK9IWWKAW","","null","<img src=""img/food4.png"" style=""width:200px;border:14px solid red;"">","null","","","","","","","","","",""
"","image-keyboard-response","65","53373","0.0-96.0","3W8CV64QJ3L4LLBKWJUWOVPLSEO9H3","A2T8U68Y44GPVD","3P7RGTLO6EZ76AO3386R8ZK9IWWKAW","","255","img/food2.png","76","256","3","0","false","1","2","1,0.5,0,1,0.5,0,0.5,0,1","0,1,0.5,0,1,0.5,1,0.5,0","3",""
"","html-keyboard-response","66","53673","0.0-97.0","3W8CV64QJ3L4LLBKWJUWOVPLSEO9H3","A2T8U68Y44GPVD","3P7RGTLO6EZ76AO3386R8ZK9IWWKAW","","null","<img src=""img/food2.png"" style=""width:200px;border:14px solid red;"">","null","","","","","","","","","",""
"","image-keyboard-response","67","53724","0.0-99.0","3W8CV64QJ3L4LLBKWJUWOVPLSEO9H3","A2T8U68Y44GPVD","3P7RGTLO6EZ76AO3386R8ZK9IWWKAW","","51","img/food2.png","75","51","2","1","false","1","2","1,0.5,0,1,0.5,0,0.5,0,1","0,1,0.5,0,1,0.5,1,0.5,0","3",""
"","html-keyboard-response","68","54025","0.0-100.0","3W8CV64QJ3L4LLBKWJUWOVPLSEO9H3","A2T8U68Y44GPVD","3P7RGTLO6EZ76AO3386R8ZK9IWWKAW","","null","<img src=""img/food2.png"" style=""width:200px; border:14px solid green;"">","null","","","","","","","","","",""
"","image-keyboard-response","69","54237","0.0-102.0","3W8CV64QJ3L4LLBKWJUWOVPLSEO9H3","A2T8U68Y44GPVD","3P7RGTLO6EZ76AO3386R8ZK9IWWKAW","","209","img/food2.png","76","212","3","1","false","1","2","1,0.5,0,1,0.5,0,0.5,0,1","0,1,0.5,0,1,0.5,1,0.5,0","3",""
"","html-keyboard-response","70","54537","0.0-103.0","3W8CV64QJ3L4LLBKWJUWOVPLSEO9H3","A2T8U68Y44GPVD","3P7RGTLO6EZ76AO3386R8ZK9IWWKAW","","null","<img src=""img/food2.png"" style=""width:200px; border:14px solid green;"">","null","","","","","","","","","",""
"","image-keyboard-response","71","54548","0.0-105.0","3W8CV64QJ3L4LLBKWJUWOVPLSEO9H3","A2T8U68Y44GPVD","3P7RGTLO6EZ76AO3386R8ZK9IWWKAW","","9","img/food2.png","75","10","2","1","false","1","2","1,0.5,0,1,0.5,0,0.5,0,1","0,1,0.5,0,1,0.5,1,0.5,0","3",""
"","html-keyboard-response","72","54848","0.0-106.0","3W8CV64QJ3L4LLBKWJUWOVPLSEO9H3","A2T8U68Y44GPVD","3P7RGTLO6EZ76AO3386R8ZK9IWWKAW","","null","<img src=""img/food2.png"" style=""width:200px; border:14px solid green;"">","null","","","","","","","","","",""
"","image-keyboard-response","73","55260","0.0-108.0","3W8CV64QJ3L4LLBKWJUWOVPLSEO9H3","A2T8U68Y44GPVD","3P7RGTLO6EZ76AO3386R8ZK9IWWKAW","","411","img/food6.png","74","412","1","1","false","3","2","1,0.5,0,1,0.5,0,0.5,0,1","0,1,0.5,0,1,0.5,1,0.5,0","3",""
"","html-keyboard-response","74","55562","0.0-109.0","3W8CV64QJ3L4LLBKWJUWOVPLSEO9H3","A2T8U68Y44GPVD","3P7RGTLO6EZ76AO3386R8ZK9IWWKAW","","null","<img src=""img/food6.png"" style=""width:200px; border:14px solid green;"">","null","","","","","","","","","",""
"","image-keyboard-response","75","55717","0.0-111.0","3W8CV64QJ3L4LLBKWJUWOVPLSEO9H3","A2T8U68Y44GPVD","3P7RGTLO6EZ76AO3386R8ZK9IWWKAW","","153","img/food6.png","74","154","1","1","false","3","2","1,0.5,0,1,0.5,0,0.5,0,1","0,1,0.5,0,1,0.5,1,0.5,0","3",""
"","html-keyboard-response","76","56020","0.0-112.0","3W8CV64QJ3L4LLBKWJUWOVPLSEO9H3","A2T8U68Y44GPVD","3P7RGTLO6EZ76AO3386R8ZK9IWWKAW","","null","<img src=""img/food6.png"" style=""width:200px; border:14px solid green;"">","null","","","","","","","","","",""
"","image-keyboard-response","77","56211","0.0-114.0","3W8CV64QJ3L4LLBKWJUWOVPLSEO9H3","A2T8U68Y44GPVD","3P7RGTLO6EZ76AO3386R8ZK9IWWKAW","","190","img/food4.png","74","191","1","0","false","2","2","1,0.5,0,1,0.5,0,0.5,0,1","0,1,0.5,0,1,0.5,1,0.5,0","3",""
"","html-keyboard-response","78","56512","0.0-115.0","3W8CV64QJ3L4LLBKWJUWOVPLSEO9H3","A2T8U68Y44GPVD","3P7RGTLO6EZ76AO3386R8ZK9IWWKAW","","null","<img src=""img/food4.png"" style=""width:200px;border:14px solid red;"">","null","","","","","","","","","",""
"","image-keyboard-response","79","56705","0.0-117.0","3W8CV64QJ3L4LLBKWJUWOVPLSEO9H3","A2T8U68Y44GPVD","3P7RGTLO6EZ76AO3386R8ZK9IWWKAW","","192","img/food6.png","74","193","1","1","false","3","2","1,0.5,0,1,0.5,0,0.5,0,1","0,1,0.5,0,1,0.5,1,0.5,0","3",""
"","html-keyboard-response","80","57016","0.0-118.0","3W8CV64QJ3L4LLBKWJUWOVPLSEO9H3","A2T8U68Y44GPVD","3P7RGTLO6EZ76AO3386R8ZK9IWWKAW","","null","<img src=""img/food6.png"" style=""width:200px; border:14px solid green;"">","null","","","","","","","","","",""
"","image-keyboard-response","81","57039","0.0-120.0","3W8CV64QJ3L4LLBKWJUWOVPLSEO9H3","A2T8U68Y44GPVD","3P7RGTLO6EZ76AO3386R8ZK9IWWKAW","","21","img/food4.png","76","23","3","0","false","2","2","1,0.5,0,1,0.5,0,0.5,0,1","0,1,0.5,0,1,0.5,1,0.5,0","3",""
"","html-keyboard-response","82","57343","0.0-121.0","3W8CV64QJ3L4LLBKWJUWOVPLSEO9H3","A2T8U68Y44GPVD","3P7RGTLO6EZ76AO3386R8ZK9IWWKAW","","null","<img src=""img/food4.png"" style=""width:200px;border:14px solid red;"">","null","","","","","","","","","",""
"","image-keyboard-response","83","57644","0.0-123.0","3W8CV64QJ3L4LLBKWJUWOVPLSEO9H3","A2T8U68Y44GPVD","3P7RGTLO6EZ76AO3386R8ZK9IWWKAW","","299","img/food6.png","76","300","3","0","false","3","2","1,0.5,0,1,0.5,0,0.5,0,1","0,1,0.5,0,1,0.5,1,0.5,0","3",""
"","html-keyboard-response","84","57945","0.0-124.0","3W8CV64QJ3L4LLBKWJUWOVPLSEO9H3","A2T8U68Y44GPVD","3P7RGTLO6EZ76AO3386R8ZK9IWWKAW","","null","<img src=""img/food6.png"" style=""width:200px;border:14px solid red;"">","null","","","","","","","","","",""
"","image-keyboard-response","85","57948","0.0-126.0","3W8CV64QJ3L4LLBKWJUWOVPLSEO9H3","A2T8U68Y44GPVD","3P7RGTLO6EZ76AO3386R8ZK9IWWKAW","","2","img/food4.png","76","2","3","0","false","2","2","1,0.5,0,1,0.5,0,0.5,0,1","0,1,0.5,0,1,0.5,1,0.5,0","3",""
"","html-keyboard-response","86","58249","0.0-127.0","3W8CV64QJ3L4LLBKWJUWOVPLSEO9H3","A2T8U68Y44GPVD","3P7RGTLO6EZ76AO3386R8ZK9IWWKAW","","null","<img src=""img/food4.png"" style=""width:200px;border:14px solid red;"">","null","","","","","","","","","",""
"","image-keyboard-response","87","58499","0.0-129.0","3W8CV64QJ3L4LLBKWJUWOVPLSEO9H3","A2T8U68Y44GPVD","3P7RGTLO6EZ76AO3386R8ZK9IWWKAW","","249","img/food2.png","76","250","3","1","false","1","2","1,0.5,0,1,0.5,0,0.5,0,1","0,1,0.5,0,1,0.5,1,0.5,0","3",""
"","html-keyboard-response","88","58802","0.0-130.0","3W8CV64QJ3L4LLBKWJUWOVPLSEO9H3","A2T8U68Y44GPVD","3P7RGTLO6EZ76AO3386R8ZK9IWWKAW","","null","<img src=""img/food2.png"" style=""width:200px; border:14px solid green;"">","null","","","","","","","","","",""
"","image-keyboard-response","89","58835","0.0-132.0","3W8CV64QJ3L4LLBKWJUWOVPLSEO9H3","A2T8U68Y44GPVD","3P7RGTLO6EZ76AO3386R8ZK9IWWKAW","","32","img/food4.png","76","33","3","1","false","2","2","1,0.5,0,1,0.5,0,0.5,0,1","0,1,0.5,0,1,0.5,1,0.5,0","3",""
"","html-keyboard-response","90","59140","0.0-133.0","3W8CV64QJ3L4LLBKWJUWOVPLSEO9H3","A2T8U68Y44GPVD","3P7RGTLO6EZ76AO3386R8ZK9IWWKAW","","null","<img src=""img/food4.png"" style=""width:200px; border:14px solid green;"">","null","","","","","","","","","",""
"","image-keyboard-response","91","59340","0.0-135.0","3W8CV64QJ3L4LLBKWJUWOVPLSEO9H3","A2T8U68Y44GPVD","3P7RGTLO6EZ76AO3386R8ZK9IWWKAW","","196","img/food6.png","75","199","2","1","false","3","2","1,0.5,0,1,0.5,0,0.5,0,1","0,1,0.5,0,1,0.5,1,0.5,0","3",""
"","html-keyboard-response","92","59641","0.0-136.0","3W8CV64QJ3L4LLBKWJUWOVPLSEO9H3","A2T8U68Y44GPVD","3P7RGTLO6EZ76AO3386R8ZK9IWWKAW","","null","<img src=""img/food6.png"" style=""width:200px; border:14px solid green;"">","null","","","","","","","","","",""
"","image-keyboard-response","93","59669","0.0-138.0","3W8CV64QJ3L4LLBKWJUWOVPLSEO9H3","A2T8U68Y44GPVD","3P7RGTLO6EZ76AO3386R8ZK9IWWKAW","","26","img/food6.png","75","28","2","0","false","3","2","1,0.5,0,1,0.5,0,0.5,0,1","0,1,0.5,0,1,0.5,1,0.5,0","3",""
"","html-keyboard-response","94","59971","0.0-139.0","3W8CV64QJ3L4LLBKWJUWOVPLSEO9H3","A2T8U68Y44GPVD","3P7RGTLO6EZ76AO3386R8ZK9IWWKAW","","null","<img src=""img/food6.png"" style=""width:200px;border:14px solid red;"">","null","","","","","","","","","",""
"","image-keyboard-response","95","60061","0.0-141.0","3W8CV64QJ3L4LLBKWJUWOVPLSEO9H3","A2T8U68Y44GPVD","3P7RGTLO6EZ76AO3386R8ZK9IWWKAW","","88","img/food6.png","75","90","2","1","false","3","2","1,0.5,0,1,0.5,0,0.5,0,1","0,1,0.5,0,1,0.5,1,0.5,0","3",""
"","html-keyboard-response","96","60362","0.0-142.0","3W8CV64QJ3L4LLBKWJUWOVPLSEO9H3","A2T8U68Y44GPVD","3P7RGTLO6EZ76AO3386R8ZK9IWWKAW","","null","<img src=""img/food6.png"" style=""width:200px; border:14px solid green;"">","null","","","","","","","","","",""
"","image-keyboard-response","97","60476","0.0-144.0","3W8CV64QJ3L4LLBKWJUWOVPLSEO9H3","A2T8U68Y44GPVD","3P7RGTLO6EZ76AO3386R8ZK9IWWKAW","","112","img/food2.png","75","114","2","1","false","1","2","1,0.5,0,1,0.5,0,0.5,0,1","0,1,0.5,0,1,0.5,1,0.5,0","3",""
"","html-keyboard-response","98","60776","0.0-145.0","3W8CV64QJ3L4LLBKWJUWOVPLSEO9H3","A2T8U68Y44GPVD","3P7RGTLO6EZ76AO3386R8ZK9IWWKAW","","null","<img src=""img/food2.png"" style=""width:200px; border:14px solid green;"">","null","","","","","","","","","",""
"","image-keyboard-response","99","60917","0.0-147.0","3W8CV64QJ3L4LLBKWJUWOVPLSEO9H3","A2T8U68Y44GPVD","3P7RGTLO6EZ76AO3386R8ZK9IWWKAW","","140","img/food2.png","75","141","2","1","false","1","2","1,0.5,0,1,0.5,0,0.5,0,1","0,1,0.5,0,1,0.5,1,0.5,0","3",""
"","html-keyboard-response","100","61219","0.0-148.0","3W8CV64QJ3L4LLBKWJUWOVPLSEO9H3","A2T8U68Y44GPVD","3P7RGTLO6EZ76AO3386R8ZK9IWWKAW","","null","<img src=""img/food2.png"" style=""width:200px; border:14px solid green;"">","null","","","","","","","","","",""
"","image-keyboard-response","101","61527","0.0-150.0","3W8CV64QJ3L4LLBKWJUWOVPLSEO9H3","A2T8U68Y44GPVD","3P7RGTLO6EZ76AO3386R8ZK9IWWKAW","","308","img/food2.png","74","308","1","0","false","1","2","1,0.5,0,1,0.5,0,0.5,0,1","0,1,0.5,0,1,0.5,1,0.5,0","3",""
"","html-keyboard-response","102","61829","0.0-151.0","3W8CV64QJ3L4LLBKWJUWOVPLSEO9H3","A2T8U68Y44GPVD","3P7RGTLO6EZ76AO3386R8ZK9IWWKAW","","null","<img src=""img/food2.png"" style=""width:200px;border:14px solid red;"">","null","","","","","","","","","",""
"","image-keyboard-response","103","62304","0.0-153.0","3W8CV64QJ3L4LLBKWJUWOVPLSEO9H3","A2T8U68Y44GPVD","3P7RGTLO6EZ76AO3386R8ZK9IWWKAW","","474","img/food4.png","75","474","2","1","false","2","2","1,0.5,0,1,0.5,0,0.5,0,1","0,1,0.5,0,1,0.5,1,0.5,0","3",""
"","html-keyboard-response","104","62605","0.0-154.0","3W8CV64QJ3L4LLBKWJUWOVPLSEO9H3","A2T8U68Y44GPVD","3P7RGTLO6EZ76AO3386R8ZK9IWWKAW","","null","<img src=""img/food4.png"" style=""width:200px; border:14px solid green;"">","null","","","","","","","","","",""
"","image-keyboard-response","105","62637","0.0-156.0","3W8CV64QJ3L4LLBKWJUWOVPLSEO9H3","A2T8U68Y44GPVD","3P7RGTLO6EZ76AO3386R8ZK9IWWKAW","","31","img/food6.png","75","32","2","1","false","3","2","1,0.5,0,1,0.5,0,0.5,0,1","0,1,0.5,0,1,0.5,1,0.5,0","3",""
"","html-keyboard-response","106","62939","0.0-157.0","3W8CV64QJ3L4LLBKWJUWOVPLSEO9H3","A2T8U68Y44GPVD","3P7RGTLO6EZ76AO3386R8ZK9IWWKAW","","null","<img src=""img/food6.png"" style=""width:200px; border:14px solid green;"">","null","","","","","","","","","",""
"","image-keyboard-response","107","63253","0.0-159.0","3W8CV64QJ3L4LLBKWJUWOVPLSEO9H3","A2T8U68Y44GPVD","3P7RGTLO6EZ76AO3386R8ZK9IWWKAW","","312","img/food2.png","75","313","2","1","false","1","2","1,0.5,0,1,0.5,0,0.5,0,1","0,1,0.5,0,1,0.5,1,0.5,0","3",""
"","html-keyboard-response","108","63554","0.0-160.0","3W8CV64QJ3L4LLBKWJUWOVPLSEO9H3","A2T8U68Y44GPVD","3P7RGTLO6EZ76AO3386R8ZK9IWWKAW","","null","<img src=""img/food2.png"" style=""width:200px; border:14px solid green;"">","null","","","","","","","","","",""
"","image-keyboard-response","109","63557","0.0-162.0","3W8CV64QJ3L4LLBKWJUWOVPLSEO9H3","A2T8U68Y44GPVD","3P7RGTLO6EZ76AO3386R8ZK9IWWKAW","","2","img/food2.png","75","2","2","1","false","1","2","1,0.5,0,1,0.5,0,0.5,0,1","0,1,0.5,0,1,0.5,1,0.5,0","3",""
"","html-keyboard-response","110","64013","0.0-163.0","3W8CV64QJ3L4LLBKWJUWOVPLSEO9H3","A2T8U68Y44GPVD","3P7RGTLO6EZ76AO3386R8ZK9IWWKAW","","null","<img src=""img/food2.png"" style=""width:200px; border:14px solid green;"">","null","","","","","","","","","",""
"","image-keyboard-response","111","64154","0.0-165.0","3W8CV64QJ3L4LLBKWJUWOVPLSEO9H3","A2T8U68Y44GPVD","3P7RGTLO6EZ76AO3386R8ZK9IWWKAW","","109","img/food2.png","75","125","2","1","false","1","2","1,0.5,0,1,0.5,0,0.5,0,1","0,1,0.5,0,1,0.5,1,0.5,0","3",""
"","html-keyboard-response","112","64455","0.0-166.0","3W8CV64QJ3L4LLBKWJUWOVPLSEO9H3","A2T8U68Y44GPVD","3P7RGTLO6EZ76AO3386R8ZK9IWWKAW","","null","<img src=""img/food2.png"" style=""width:200px; border:14px solid green;"">","null","","","","","","","","","",""
"","image-keyboard-response","113","64556","0.0-168.0","3W8CV64QJ3L4LLBKWJUWOVPLSEO9H3","A2T8U68Y44GPVD","3P7RGTLO6EZ76AO3386R8ZK9IWWKAW","","100","img/food2.png","74","101","1","0","false","1","2","1,0.5,0,1,0.5,0,0.5,0,1","0,1,0.5,0,1,0.5,1,0.5,0","3",""
"","html-keyboard-response","114","64860","0.0-169.0","3W8CV64QJ3L4LLBKWJUWOVPLSEO9H3","A2T8U68Y44GPVD","3P7RGTLO6EZ76AO3386R8ZK9IWWKAW","","null","<img src=""img/food2.png"" style=""width:200px;border:14px solid red;"">","null","","","","","","","","","",""
"","image-keyboard-response","115","65133","0.0-171.0","3W8CV64QJ3L4LLBKWJUWOVPLSEO9H3","A2T8U68Y44GPVD","3P7RGTLO6EZ76AO3386R8ZK9IWWKAW","","272","img/food6.png","74","272","1","1","false","3","2","1,0.5,0,1,0.5,0,0.5,0,1","0,1,0.5,0,1,0.5,1,0.5,0","3",""
"","html-keyboard-response","116","65434","0.0-172.0","3W8CV64QJ3L4LLBKWJUWOVPLSEO9H3","A2T8U68Y44GPVD","3P7RGTLO6EZ76AO3386R8ZK9IWWKAW","","null","<img src=""img/food6.png"" style=""width:200px; border:14px solid green;"">","null","","","","","","","","","",""
"","image-keyboard-response","117","65463","0.0-174.0","3W8CV64QJ3L4LLBKWJUWOVPLSEO9H3","A2T8U68Y44GPVD","3P7RGTLO6EZ76AO3386R8ZK9IWWKAW","","27","img/food4.png","75","28","2","1","false","2","2","1,0.5,0,1,0.5,0,0.5,0,1","0,1,0.5,0,1,0.5,1,0.5,0","3",""
"","html-keyboard-response","118","65764","0.0-175.0","3W8CV64QJ3L4LLBKWJUWOVPLSEO9H3","A2T8U68Y44GPVD","3P7RGTLO6EZ76AO3386R8ZK9IWWKAW","","null","<img src=""img/food4.png"" style=""width:200px; border:14px solid green;"">","null","","","","","","","","","",""
"","image-keyboard-response","119","65844","0.0-177.0","3W8CV64QJ3L4LLBKWJUWOVPLSEO9H3","A2T8U68Y44GPVD","3P7RGTLO6EZ76AO3386R8ZK9IWWKAW","","79","img/food4.png","76","80","3","1","false","2","2","1,0.5,0,1,0.5,0,0.5,0,1","0,1,0.5,0,1,0.5,1,0.5,0","3",""
"","html-keyboard-response","120","66146","0.0-178.0","3W8CV64QJ3L4LLBKWJUWOVPLSEO9H3","A2T8U68Y44GPVD","3P7RGTLO6EZ76AO3386R8ZK9IWWKAW","","null","<img src=""img/food4.png"" style=""width:200px; border:14px solid green;"">","null","","","","","","","","","",""
"","image-keyboard-response","121","66173","0.0-180.0","3W8CV64QJ3L4LLBKWJUWOVPLSEO9H3","A2T8U68Y44GPVD","3P7RGTLO6EZ76AO3386R8ZK9IWWKAW","","26","img/food6.png","76","26","3","0","false","3","2","1,0.5,0,1,0.5,0,0.5,0,1","0,1,0.5,0,1,0.5,1,0.5,0","3",""
"","html-keyboard-response","122","66475","0.0-181.0","3W8CV64QJ3L4LLBKWJUWOVPLSEO9H3","A2T8U68Y44GPVD","3P7RGTLO6EZ76AO3386R8ZK9IWWKAW","","null","<img src=""img/food6.png"" style=""width:200px;border:14px solid red;"">","null","","","","","","","","","",""
"","image-keyboard-response","123","66547","0.0-183.0","3W8CV64QJ3L4LLBKWJUWOVPLSEO9H3","A2T8U68Y44GPVD","3P7RGTLO6EZ76AO3386R8ZK9IWWKAW","","69","img/food6.png","76","72","3","0","false","3","2","1,0.5,0,1,0.5,0,0.5,0,1","0,1,0.5,0,1,0.5,1,0.5,0","3",""
"","html-keyboard-response","124","66859","0.0-184.0","3W8CV64QJ3L4LLBKWJUWOVPLSEO9H3","A2T8U68Y44GPVD","3P7RGTLO6EZ76AO3386R8ZK9IWWKAW","","null","<img src=""img/food6.png"" style=""width:200px;border:14px solid red;"">","null","","","","","","","","","",""
"","image-keyboard-response","125","66948","0.0-186.0","3W8CV64QJ3L4LLBKWJUWOVPLSEO9H3","A2T8U68Y44GPVD","3P7RGTLO6EZ76AO3386R8ZK9IWWKAW","","88","img/food6.png","76","88","3","0","false","3","2","1,0.5,0,1,0.5,0,0.5,0,1","0,1,0.5,0,1,0.5,1,0.5,0","3",""
"","html-keyboard-response","126","67250","0.0-187.0","3W8CV64QJ3L4LLBKWJUWOVPLSEO9H3","A2T8U68Y44GPVD","3P7RGTLO6EZ76AO3386R8ZK9IWWKAW","","null","<img src=""img/food6.png"" style=""width:200px;border:14px solid red;"">","null","","","","","","","","","",""
"","image-keyboard-response","127","67442","0.0-189.0","3W8CV64QJ3L4LLBKWJUWOVPLSEO9H3","A2T8U68Y44GPVD","3P7RGTLO6EZ76AO3386R8ZK9IWWKAW","","192","img/food6.png","75","192","2","1","false","3","2","1,0.5,0,1,0.5,0,0.5,0,1","0,1,0.5,0,1,0.5,1,0.5,0","3",""
"","html-keyboard-response","128","67744","0.0-190.0","3W8CV64QJ3L4LLBKWJUWOVPLSEO9H3","A2T8U68Y44GPVD","3P7RGTLO6EZ76AO3386R8ZK9IWWKAW","","null","<img src=""img/food6.png"" style=""width:200px; border:14px solid green;"">","null","","","","","","","","","",""
"","image-keyboard-response","129","68125","0.0-192.0","3W8CV64QJ3L4LLBKWJUWOVPLSEO9H3","A2T8U68Y44GPVD","3P7RGTLO6EZ76AO3386R8ZK9IWWKAW","","380","img/food4.png","76","380","3","0","false","2","2","1,0.5,0,1,0.5,0,0.5,0,1","0,1,0.5,0,1,0.5,1,0.5,0","3",""
"","html-keyboard-response","130","68427","0.0-193.0","3W8CV64QJ3L4LLBKWJUWOVPLSEO9H3","A2T8U68Y44GPVD","3P7RGTLO6EZ76AO3386R8ZK9IWWKAW","","null","<img src=""img/food4.png"" style=""width:200px;border:14px solid red;"">","null","","","","","","","","","",""
"","image-keyboard-response","131","68604","0.0-195.0","3W8CV64QJ3L4LLBKWJUWOVPLSEO9H3","A2T8U68Y44GPVD","3P7RGTLO6EZ76AO3386R8ZK9IWWKAW","","174","img/food4.png","76","175","3","1","false","2","2","1,0.5,0,1,0.5,0,0.5,0,1","0,1,0.5,0,1,0.5,1,0.5,0","3",""
"","html-keyboard-response","132","68905","0.0-196.0","3W8CV64QJ3L4LLBKWJUWOVPLSEO9H3","A2T8U68Y44GPVD","3P7RGTLO6EZ76AO3386R8ZK9IWWKAW","","null","<img src=""img/food4.png"" style=""width:200px; border:14px solid green;"">","null","","","","","","","","","",""
"","image-keyboard-response","133","68973","0.0-198.0","3W8CV64QJ3L4LLBKWJUWOVPLSEO9H3","A2T8U68Y44GPVD","3P7RGTLO6EZ76AO3386R8ZK9IWWKAW","","67","img/food4.png","76","67","3","1","false","2","2","1,0.5,0,1,0.5,0,0.5,0,1","0,1,0.5,0,1,0.5,1,0.5,0","3",""
"","html-keyboard-response","134","69275","0.0-199.0","3W8CV64QJ3L4LLBKWJUWOVPLSEO9H3","A2T8U68Y44GPVD","3P7RGTLO6EZ76AO3386R8ZK9IWWKAW","","null","<img src=""img/food4.png"" style=""width:200px; border:14px solid green;"">","null","","","","","","","","","",""
"","image-keyboard-response","135","69289","0.0-201.0","3W8CV64QJ3L4LLBKWJUWOVPLSEO9H3","A2T8U68Y44GPVD","3P7RGTLO6EZ76AO3386R8ZK9IWWKAW","","13","img/food2.png","76","13","3","1","false","1","2","1,0.5,0,1,0.5,0,0.5,0,1","0,1,0.5,0,1,0.5,1,0.5,0","3",""
"","html-keyboard-response","136","69592","0.0-202.0","3W8CV64QJ3L4LLBKWJUWOVPLSEO9H3","A2T8U68Y44GPVD","3P7RGTLO6EZ76AO3386R8ZK9IWWKAW","","null","<img src=""img/food2.png"" style=""width:200px; border:14px solid green;"">","null","","","","","","","","","",""
"","image-keyboard-response","137","69613","0.0-204.0","3W8CV64QJ3L4LLBKWJUWOVPLSEO9H3","A2T8U68Y44GPVD","3P7RGTLO6EZ76AO3386R8ZK9IWWKAW","","18","img/food4.png","75","20","2","1","false","2","2","1,0.5,0,1,0.5,0,0.5,0,1","0,1,0.5,0,1,0.5,1,0.5,0","3",""
"","html-keyboard-response","138","69915","0.0-205.0","3W8CV64QJ3L4LLBKWJUWOVPLSEO9H3","A2T8U68Y44GPVD","3P7RGTLO6EZ76AO3386R8ZK9IWWKAW","","null","<img src=""img/food4.png"" style=""width:200px; border:14px solid green;"">","null","","","","","","","","","",""
"","image-keyboard-response","139","69942","0.0-207.0","3W8CV64QJ3L4LLBKWJUWOVPLSEO9H3","A2T8U68Y44GPVD","3P7RGTLO6EZ76AO3386R8ZK9IWWKAW","","25","img/food4.png","74","27","1","0","false","2","2","1,0.5,0,1,0.5,0,0.5,0,1","0,1,0.5,0,1,0.5,1,0.5,0","3",""
"","html-keyboard-response","140","70243","0.0-208.0","3W8CV64QJ3L4LLBKWJUWOVPLSEO9H3","A2T8U68Y44GPVD","3P7RGTLO6EZ76AO3386R8ZK9IWWKAW","","null","<img src=""img/food4.png"" style=""width:200px;border:14px solid red;"">","null","","","","","","","","","",""
"","image-keyboard-response","141","70585","0.0-210.0","3W8CV64QJ3L4LLBKWJUWOVPLSEO9H3","A2T8U68Y44GPVD","3P7RGTLO6EZ76AO3386R8ZK9IWWKAW","","341","img/food4.png","74","342","1","0","false","2","2","1,0.5,0,1,0.5,0,0.5,0,1","0,1,0.5,0,1,0.5,1,0.5,0","3",""
"","html-keyboard-response","142","70887","0.0-211.0","3W8CV64QJ3L4LLBKWJUWOVPLSEO9H3","A2T8U68Y44GPVD","3P7RGTLO6EZ76AO3386R8ZK9IWWKAW","","null","<img src=""img/food4.png"" style=""width:200px;border:14px solid red;"">","null","","","","","","","","","",""
"","image-keyboard-response","143","70973","0.0-213.0","3W8CV64QJ3L4LLBKWJUWOVPLSEO9H3","A2T8U68Y44GPVD","3P7RGTLO6EZ76AO3386R8ZK9IWWKAW","","85","img/food2.png","74","86","1","0","false","1","2","1,0.5,0,1,0.5,0,0.5,0,1","0,1,0.5,0,1,0.5,1,0.5,0","3",""
"","html-keyboard-response","144","71274","0.0-214.0","3W8CV64QJ3L4LLBKWJUWOVPLSEO9H3","A2T8U68Y44GPVD","3P7RGTLO6EZ76AO3386R8ZK9IWWKAW","","null","<img src=""img/food2.png"" style=""width:200px;border:14px solid red;"">","null","","","","","","","","","",""
"","image-keyboard-response","145","71461","0.0-216.0","3W8CV64QJ3L4LLBKWJUWOVPLSEO9H3","A2T8U68Y44GPVD","3P7RGTLO6EZ76AO3386R8ZK9IWWKAW","","186","img/food6.png","74","187","1","1","false","3","2","1,0.5,0,1,0.5,0,0.5,0,1","0,1,0.5,0,1,0.5,1,0.5,0","3",""
"","html-keyboard-response","146","71769","0.0-217.0","3W8CV64QJ3L4LLBKWJUWOVPLSEO9H3","A2T8U68Y44GPVD","3P7RGTLO6EZ76AO3386R8ZK9IWWKAW","","null","<img src=""img/food6.png"" style=""width:200px; border:14px solid green;"">","null","","","","","","","","","",""
"","image-keyboard-response","147","71955","0.0-219.0","3W8CV64QJ3L4LLBKWJUWOVPLSEO9H3","A2T8U68Y44GPVD","3P7RGTLO6EZ76AO3386R8ZK9IWWKAW","","185","img/food4.png","76","186","3","1","false","2","2","1,0.5,0,1,0.5,0,0.5,0,1","0,1,0.5,0,1,0.5,1,0.5,0","3",""
"","html-keyboard-response","148","72256","0.0-220.0","3W8CV64QJ3L4LLBKWJUWOVPLSEO9H3","A2T8U68Y44GPVD","3P7RGTLO6EZ76AO3386R8ZK9IWWKAW","","null","<img src=""img/food4.png"" style=""width:200px; border:14px solid green;"">","null","","","","","","","","","",""
"","image-keyboard-response","149","72276","0.0-222.0","3W8CV64QJ3L4LLBKWJUWOVPLSEO9H3","A2T8U68Y44GPVD","3P7RGTLO6EZ76AO3386R8ZK9IWWKAW","","19","img/food2.png","76","20","3","0","false","1","2","1,0.5,0,1,0.5,0,0.5,0,1","0,1,0.5,0,1,0.5,1,0.5,0","3",""
"","html-keyboard-response","150","72577","0.0-223.0","3W8CV64QJ3L4LLBKWJUWOVPLSEO9H3","A2T8U68Y44GPVD","3P7RGTLO6EZ76AO3386R8ZK9IWWKAW","","null","<img src=""img/food2.png"" style=""width:200px;border:14px solid red;"">","null","","","","","","","","","",""
"","image-keyboard-response","151","72828","0.0-225.0","3W8CV64QJ3L4LLBKWJUWOVPLSEO9H3","A2T8U68Y44GPVD","3P7RGTLO6EZ76AO3386R8ZK9IWWKAW","","250","img/food2.png","76","250","3","1","false","1","2","1,0.5,0,1,0.5,0,0.5,0,1","0,1,0.5,0,1,0.5,1,0.5,0","3",""
"","html-keyboard-response","152","73129","0.0-226.0","3W8CV64QJ3L4LLBKWJUWOVPLSEO9H3","A2T8U68Y44GPVD","3P7RGTLO6EZ76AO3386R8ZK9IWWKAW","","null","<img src=""img/food2.png"" style=""width:200px; border:14px solid green;"">","null","","","","","","","","","",""
"","image-keyboard-response","153","73590","0.0-228.0","3W8CV64QJ3L4LLBKWJUWOVPLSEO9H3","A2T8U68Y44GPVD","3P7RGTLO6EZ76AO3386R8ZK9IWWKAW","","460","img/food6.png","75","460","2","1","false","3","2","1,0.5,0,1,0.5,0,0.5,0,1","0,1,0.5,0,1,0.5,1,0.5,0","3",""
"","html-keyboard-response","154","73891","0.0-229.0","3W8CV64QJ3L4LLBKWJUWOVPLSEO9H3","A2T8U68Y44GPVD","3P7RGTLO6EZ76AO3386R8ZK9IWWKAW","","null","<img src=""img/food6.png"" style=""width:200px; border:14px solid green;"">","null","","","","","","","","","",""
"","image-keyboard-response","155","73916","0.0-231.0","3W8CV64QJ3L4LLBKWJUWOVPLSEO9H3","A2T8U68Y44GPVD","3P7RGTLO6EZ76AO3386R8ZK9IWWKAW","","24","img/food2.png","74","24","1","0","false","1","2","1,0.5,0,1,0.5,0,0.5,0,1","0,1,0.5,0,1,0.5,1,0.5,0","3",""
"","html-keyboard-response","156","74218","0.0-232.0","3W8CV64QJ3L4LLBKWJUWOVPLSEO9H3","A2T8U68Y44GPVD","3P7RGTLO6EZ76AO3386R8ZK9IWWKAW","","null","<img src=""img/food2.png"" style=""width:200px;border:14px solid red;"">","null","","","","","","","","","",""
"","image-keyboard-response","157","74397","0.0-234.0","3W8CV64QJ3L4LLBKWJUWOVPLSEO9H3","A2T8U68Y44GPVD","3P7RGTLO6EZ76AO3386R8ZK9IWWKAW","","178","img/food4.png","74","179","1","0","false","2","2","1,0.5,0,1,0.5,0,0.5,0,1","0,1,0.5,0,1,0.5,1,0.5,0","3",""
"","html-keyboard-response","158","74801","0.0-235.0","3W8CV64QJ3L4LLBKWJUWOVPLSEO9H3","A2T8U68Y44GPVD","3P7RGTLO6EZ76AO3386R8ZK9IWWKAW","","null","<img src=""img/food4.png"" style=""width:200px;border:14px solid red;"">","null","","","","","","","","","",""
"","image-keyboard-response","159","74818","0.0-237.0","3W8CV64QJ3L4LLBKWJUWOVPLSEO9H3","A2T8U68Y44GPVD","3P7RGTLO6EZ76AO3386R8ZK9IWWKAW","","17","img/food4.png","76","17","3","1","false","2","2","1,0.5,0,1,0.5,0,0.5,0,1","0,1,0.5,0,1,0.5,1,0.5,0","3",""
"","html-keyboard-response","160","75120","0.0-238.0","3W8CV64QJ3L4LLBKWJUWOVPLSEO9H3","A2T8U68Y44GPVD","3P7RGTLO6EZ76AO3386R8ZK9IWWKAW","","null","<img src=""img/food4.png"" style=""width:200px; border:14px solid green;"">","null","","","","","","","","","",""
"","image-keyboard-response","161","75396","0.0-240.0","3W8CV64QJ3L4LLBKWJUWOVPLSEO9H3","A2T8U68Y44GPVD","3P7RGTLO6EZ76AO3386R8ZK9IWWKAW","","275","img/food4.png","74","276","1","0","false","2","2","1,0.5,0,1,0.5,0,0.5,0,1","0,1,0.5,0,1,0.5,1,0.5,0","3",""
"","html-keyboard-response","162","75698","0.0-241.0","3W8CV64QJ3L4LLBKWJUWOVPLSEO9H3","A2T8U68Y44GPVD","3P7RGTLO6EZ76AO3386R8ZK9IWWKAW","","null","<img src=""img/food4.png"" style=""width:200px;border:14px solid red;"">","null","","","","","","","","","",""
"","image-keyboard-response","163","75894","0.0-243.0","3W8CV64QJ3L4LLBKWJUWOVPLSEO9H3","A2T8U68Y44GPVD","3P7RGTLO6EZ76AO3386R8ZK9IWWKAW","","194","img/food6.png","74","195","1","1","false","3","2","1,0.5,0,1,0.5,0,0.5,0,1","0,1,0.5,0,1,0.5,1,0.5,0","3",""
"","html-keyboard-response","164","76194","0.0-244.0","3W8CV64QJ3L4LLBKWJUWOVPLSEO9H3","A2T8U68Y44GPVD","3P7RGTLO6EZ76AO3386R8ZK9IWWKAW","","null","<img src=""img/food6.png"" style=""width:200px; border:14px solid green;"">","null","","","","","","","","","",""
"","image-keyboard-response","165","76204","0.0-246.0","3W8CV64QJ3L4LLBKWJUWOVPLSEO9H3","A2T8U68Y44GPVD","3P7RGTLO6EZ76AO3386R8ZK9IWWKAW","","8","img/food6.png","76","9","3","0","false","3","2","1,0.5,0,1,0.5,0,0.5,0,1","0,1,0.5,0,1,0.5,1,0.5,0","3",""
"","html-keyboard-response","166","76529","0.0-247.0","3W8CV64QJ3L4LLBKWJUWOVPLSEO9H3","A2T8U68Y44GPVD","3P7RGTLO6EZ76AO3386R8ZK9IWWKAW","","null","<img src=""img/food6.png"" style=""width:200px;border:14px solid red;"">","null","","","","","","","","","",""
"","image-keyboard-response","167","76674","0.0-249.0","3W8CV64QJ3L4LLBKWJUWOVPLSEO9H3","A2T8U68Y44GPVD","3P7RGTLO6EZ76AO3386R8ZK9IWWKAW","","144","img/food2.png","76","145","3","0","false","1","2","1,0.5,0,1,0.5,0,0.5,0,1","0,1,0.5,0,1,0.5,1,0.5,0","3",""
"","html-keyboard-response","168","76981","0.0-250.0","3W8CV64QJ3L4LLBKWJUWOVPLSEO9H3","A2T8U68Y44GPVD","3P7RGTLO6EZ76AO3386R8ZK9IWWKAW","","null","<img src=""img/food2.png"" style=""width:200px;border:14px solid red;"">","null","","","","","","","","","",""
"","image-keyboard-response","169","77183","0.0-252.0","3W8CV64QJ3L4LLBKWJUWOVPLSEO9H3","A2T8U68Y44GPVD","3P7RGTLO6EZ76AO3386R8ZK9IWWKAW","","200","img/food6.png","74","202","1","1","false","3","2","1,0.5,0,1,0.5,0,0.5,0,1","0,1,0.5,0,1,0.5,1,0.5,0","3",""
"","html-keyboard-response","170","77484","0.0-253.0","3W8CV64QJ3L4LLBKWJUWOVPLSEO9H3","A2T8U68Y44GPVD","3P7RGTLO6EZ76AO3386R8ZK9IWWKAW","","null","<img src=""img/food6.png"" style=""width:200px; border:14px solid green;"">","null","","","","","","","","","",""
"","image-keyboard-response","171","77661","0.0-255.0","3W8CV64QJ3L4LLBKWJUWOVPLSEO9H3","A2T8U68Y44GPVD","3P7RGTLO6EZ76AO3386R8ZK9IWWKAW","","176","img/food2.png","74","177","1","0","false","1","2","1,0.5,0,1,0.5,0,0.5,0,1","0,1,0.5,0,1,0.5,1,0.5,0","3",""
"","html-keyboard-response","172","77962","0.0-256.0","3W8CV64QJ3L4LLBKWJUWOVPLSEO9H3","A2T8U68Y44GPVD","3P7RGTLO6EZ76AO3386R8ZK9IWWKAW","","null","<img src=""img/food2.png"" style=""width:200px;border:14px solid red;"">","null","","","","","","","","","",""
"","image-keyboard-response","173","78030","0.0-258.0","3W8CV64QJ3L4LLBKWJUWOVPLSEO9H3","A2T8U68Y44GPVD","3P7RGTLO6EZ76AO3386R8ZK9IWWKAW","","67","img/food6.png","75","67","2","0","false","3","2","1,0.5,0,1,0.5,0,0.5,0,1","0,1,0.5,0,1,0.5,1,0.5,0","3",""
"","html-keyboard-response","174","78377","0.0-259.0","3W8CV64QJ3L4LLBKWJUWOVPLSEO9H3","A2T8U68Y44GPVD","3P7RGTLO6EZ76AO3386R8ZK9IWWKAW","","null","<img src=""img/food6.png"" style=""width:200px;border:14px solid red;"">","null","","","","","","","","","",""
"","image-keyboard-response","175","78686","0.0-261.0","3W8CV64QJ3L4LLBKWJUWOVPLSEO9H3","A2T8U68Y44GPVD","3P7RGTLO6EZ76AO3386R8ZK9IWWKAW","","308","img/food6.png","74","309","1","1","false","3","2","1,0.5,0,1,0.5,0,0.5,0,1","0,1,0.5,0,1,0.5,1,0.5,0","3",""
"","html-keyboard-response","176","78987","0.0-262.0","3W8CV64QJ3L4LLBKWJUWOVPLSEO9H3","A2T8U68Y44GPVD","3P7RGTLO6EZ76AO3386R8ZK9IWWKAW","","null","<img src=""img/food6.png"" style=""width:200px; border:14px solid green;"">","null","","","","","","","","","",""
"","image-keyboard-response","177","79988","0.0-264.0","3W8CV64QJ3L4LLBKWJUWOVPLSEO9H3","A2T8U68Y44GPVD","3P7RGTLO6EZ76AO3386R8ZK9IWWKAW","","","img/food2.png","","1000","-1","0","true","1","2","1,0.5,0,1,0.5,0,0.5,0,1","0,1,0.5,0,1,0.5,1,0.5,0","3",""
"","html-keyboard-response","178","80290","0.0-265.0","3W8CV64QJ3L4LLBKWJUWOVPLSEO9H3","A2T8U68Y44GPVD","3P7RGTLO6EZ76AO3386R8ZK9IWWKAW","","null","<img src=""img/food2.png"" style=""width:200px;border:14px solid red;"">","null","","","","","","","","","",""
"","html-keyboard-response","179","83209","0.0-266.0-0.0","3W8CV64QJ3L4LLBKWJUWOVPLSEO9H3","A2T8U68Y44GPVD","3P7RGTLO6EZ76AO3386R8ZK9IWWKAW","","","","","","","","","","","","","",""
"","image-keyboard-response","180","84133","0.0-267.0","3W8CV64QJ3L4LLBKWJUWOVPLSEO9H3","A2T8U68Y44GPVD","3P7RGTLO6EZ76AO3386R8ZK9IWWKAW","","922","img/food6.png","74","923","1","1","false","3","2","1,0.5,0,1,0.5,0,0.5,0,1","0,1,0.5,0,1,0.5,1,0.5,0","3",""
"","html-keyboard-response","181","84435","0.0-268.0","3W8CV64QJ3L4LLBKWJUWOVPLSEO9H3","A2T8U68Y44GPVD","3P7RGTLO6EZ76AO3386R8ZK9IWWKAW","","null","<img src=""img/food6.png"" style=""width:200px; border:14px solid green;"">","null","","","","","","","","","",""
"","image-keyboard-response","182","84508","0.0-270.0","3W8CV64QJ3L4LLBKWJUWOVPLSEO9H3","A2T8U68Y44GPVD","3P7RGTLO6EZ76AO3386R8ZK9IWWKAW","","72","img/food6.png","75","72","2","1","false","3","2","1,0.5,0,1,0.5,0,0.5,0,1","0,1,0.5,0,1,0.5,1,0.5,0","3",""
"","html-keyboard-response","183","84810","0.0-271.0","3W8CV64QJ3L4LLBKWJUWOVPLSEO9H3","A2T8U68Y44GPVD","3P7RGTLO6EZ76AO3386R8ZK9IWWKAW","","null","<img src=""img/food6.png"" style=""width:200px; border:14px solid green;"">","null","","","","","","","","","",""
"","instructions","184","102671","0.0-273.0","3W8CV64QJ3L4LLBKWJUWOVPLSEO9H3","A2T8U68Y44GPVD","3P7RGTLO6EZ76AO3386R8ZK9IWWKAW","[{""page_index"":0,""viewing_time"":16614},{""page_index"":1,""viewing_time"":1246}]","17860","","","","","","","","","","","",""
"","image-keyboard-response","185","103399","0.0-274.0","3W8CV64QJ3L4LLBKWJUWOVPLSEO9H3","A2T8U68Y44GPVD","3P7RGTLO6EZ76AO3386R8ZK9IWWKAW","","724","img/food1.png","74","726","1","0","","1","1","1,0.5,0,1,0.5,0,0.5,0,1","0,1,0.5,0,1,0.5,1,0.5,0","3",""
"","html-keyboard-response","186","103700","0.0-275.0","3W8CV64QJ3L4LLBKWJUWOVPLSEO9H3","A2T8U68Y44GPVD","3P7RGTLO6EZ76AO3386R8ZK9IWWKAW","","null","<img src=""img/food1.png"" style=""width:200px;border:14px solid red;"">","null","","","","","","","","","",""
"","image-keyboard-response","187","103722","0.0-276.0","3W8CV64QJ3L4LLBKWJUWOVPLSEO9H3","A2T8U68Y44GPVD","3P7RGTLO6EZ76AO3386R8ZK9IWWKAW","","21","img/food3.png","75","22","2","1","","2","1","1,0.5,0,1,0.5,0,0.5,0,1","0,1,0.5,0,1,0.5,1,0.5,0","3",""
"","html-keyboard-response","188","104058","0.0-277.0","3W8CV64QJ3L4LLBKWJUWOVPLSEO9H3","A2T8U68Y44GPVD","3P7RGTLO6EZ76AO3386R8ZK9IWWKAW","","null","<img src=""img/food3.png"" style=""width:200px; border:14px solid green;"">","null","","","","","","","","","",""
"","image-keyboard-response","189","104169","0.0-278.0","3W8CV64QJ3L4LLBKWJUWOVPLSEO9H3","A2T8U68Y44GPVD","3P7RGTLO6EZ76AO3386R8ZK9IWWKAW","","97","img/food3.png","75","104","2","1","","2","1","1,0.5,0,1,0.5,0,0.5,0,1","0,1,0.5,0,1,0.5,1,0.5,0","3",""
"","html-keyboard-response","190","104470","0.0-279.0","3W8CV64QJ3L4LLBKWJUWOVPLSEO9H3","A2T8U68Y44GPVD","3P7RGTLO6EZ76AO3386R8ZK9IWWKAW","","null","<img src=""img/food3.png"" style=""width:200px; border:14px solid green;"">","null","","","","","","","","","",""
"","image-keyboard-response","191","104678","0.0-280.0","3W8CV64QJ3L4LLBKWJUWOVPLSEO9H3","A2T8U68Y44GPVD","3P7RGTLO6EZ76AO3386R8ZK9IWWKAW","","206","img/food1.png","75","208","2","1","","1","1","1,0.5,0,1,0.5,0,0.5,0,1","0,1,0.5,0,1,0.5,1,0.5,0","3",""
"","html-keyboard-response","192","104979","0.0-281.0","3W8CV64QJ3L4LLBKWJUWOVPLSEO9H3","A2T8U68Y44GPVD","3P7RGTLO6EZ76AO3386R8ZK9IWWKAW","","null","<img src=""img/food1.png"" style=""width:200px; border:14px solid green;"">","null","","","","","","","","","",""
"","image-keyboard-response","193","105045","0.0-282.0","3W8CV64QJ3L4LLBKWJUWOVPLSEO9H3","A2T8U68Y44GPVD","3P7RGTLO6EZ76AO3386R8ZK9IWWKAW","","65","img/food1.png","75","65","2","1","","1","1","1,0.5,0,1,0.5,0,0.5,0,1","0,1,0.5,0,1,0.5,1,0.5,0","3",""
"","html-keyboard-response","194","105347","0.0-283.0","3W8CV64QJ3L4LLBKWJUWOVPLSEO9H3","A2T8U68Y44GPVD","3P7RGTLO6EZ76AO3386R8ZK9IWWKAW","","null","<img src=""img/food1.png"" style=""width:200px; border:14px solid green;"">","null","","","","","","","","","",""
"","image-keyboard-response","195","106125","0.0-284.0","3W8CV64QJ3L4LLBKWJUWOVPLSEO9H3","A2T8U68Y44GPVD","3P7RGTLO6EZ76AO3386R8ZK9IWWKAW","","777","img/food3.png","75","778","2","1","","2","1","1,0.5,0,1,0.5,0,0.5,0,1","0,1,0.5,0,1,0.5,1,0.5,0","3",""
"","html-keyboard-response","196","106427","0.0-285.0","3W8CV64QJ3L4LLBKWJUWOVPLSEO9H3","A2T8U68Y44GPVD","3P7RGTLO6EZ76AO3386R8ZK9IWWKAW","","null","<img src=""img/food3.png"" style=""width:200px; border:14px solid green;"">","null","","","","","","","","","",""
"","image-keyboard-response","197","106550","0.0-286.0","3W8CV64QJ3L4LLBKWJUWOVPLSEO9H3","A2T8U68Y44GPVD","3P7RGTLO6EZ76AO3386R8ZK9IWWKAW","","121","img/food3.png","75","122","2","1","","2","1","1,0.5,0,1,0.5,0,0.5,0,1","0,1,0.5,0,1,0.5,1,0.5,0","3",""
"","html-keyboard-response","198","106852","0.0-287.0","3W8CV64QJ3L4LLBKWJUWOVPLSEO9H3","A2T8U68Y44GPVD","3P7RGTLO6EZ76AO3386R8ZK9IWWKAW","","null","<img src=""img/food3.png"" style=""width:200px; border:14px solid green;"">","null","","","","","","","","","",""
"","image-keyboard-response","199","106941","0.0-288.0","3W8CV64QJ3L4LLBKWJUWOVPLSEO9H3","A2T8U68Y44GPVD","3P7RGTLO6EZ76AO3386R8ZK9IWWKAW","","88","img/food5.png","74","88","1","1","","3","1","1,0.5,0,1,0.5,0,0.5,0,1","0,1,0.5,0,1,0.5,1,0.5,0","3",""
"","html-keyboard-response","200","107244","0.0-289.0","3W8CV64QJ3L4LLBKWJUWOVPLSEO9H3","A2T8U68Y44GPVD","3P7RGTLO6EZ76AO3386R8ZK9IWWKAW","","null","<img src=""img/food5.png"" style=""width:200px; border:14px solid green;"">","null","","","","","","","","","",""
"","image-keyboard-response","201","107454","0.0-290.0","3W8CV64QJ3L4LLBKWJUWOVPLSEO9H3","A2T8U68Y44GPVD","3P7RGTLO6EZ76AO3386R8ZK9IWWKAW","","208","img/food1.png","74","210","1","0","","1","1","1,0.5,0,1,0.5,0,0.5,0,1","0,1,0.5,0,1,0.5,1,0.5,0","3",""
"","html-keyboard-response","202","107756","0.0-291.0","3W8CV64QJ3L4LLBKWJUWOVPLSEO9H3","A2T8U68Y44GPVD","3P7RGTLO6EZ76AO3386R8ZK9IWWKAW","","null","<img src=""img/food1.png"" style=""width:200px;border:14px solid red;"">","null","","","","","","","","","",""
"","image-keyboard-response","203","107949","0.0-292.0","3W8CV64QJ3L4LLBKWJUWOVPLSEO9H3","A2T8U68Y44GPVD","3P7RGTLO6EZ76AO3386R8ZK9IWWKAW","","192","img/food1.png","75","193","2","1","","1","1","1,0.5,0,1,0.5,0,0.5,0,1","0,1,0.5,0,1,0.5,1,0.5,0","3",""
"","html-keyboard-response","204","108251","0.0-293.0","3W8CV64QJ3L4LLBKWJUWOVPLSEO9H3","A2T8U68Y44GPVD","3P7RGTLO6EZ76AO3386R8ZK9IWWKAW","","null","<img src=""img/food1.png"" style=""width:200px; border:14px solid green;"">","null","","","","","","","","","",""
"","image-keyboard-response","205","108332","0.0-294.0","3W8CV64QJ3L4LLBKWJUWOVPLSEO9H3","A2T8U68Y44GPVD","3P7RGTLO6EZ76AO3386R8ZK9IWWKAW","","80","img/food1.png","74","81","1","0","","1","1","1,0.5,0,1,0.5,0,0.5,0,1","0,1,0.5,0,1,0.5,1,0.5,0","3",""
"","html-keyboard-response","206","108634","0.0-295.0","3W8CV64QJ3L4LLBKWJUWOVPLSEO9H3","A2T8U68Y44GPVD","3P7RGTLO6EZ76AO3386R8ZK9IWWKAW","","null","<img src=""img/food1.png"" style=""width:200px;border:14px solid red;"">","null","","","","","","","","","",""
"","image-keyboard-response","207","108853","0.0-296.0","3W8CV64QJ3L4LLBKWJUWOVPLSEO9H3","A2T8U68Y44GPVD","3P7RGTLO6EZ76AO3386R8ZK9IWWKAW","","218","img/food1.png","75","219","2","1","","1","1","1,0.5,0,1,0.5,0,0.5,0,1","0,1,0.5,0,1,0.5,1,0.5,0","3",""
"","html-keyboard-response","208","109154","0.0-297.0","3W8CV64QJ3L4LLBKWJUWOVPLSEO9H3","A2T8U68Y44GPVD","3P7RGTLO6EZ76AO3386R8ZK9IWWKAW","","null","<img src=""img/food1.png"" style=""width:200px; border:14px solid green;"">","null","","","","","","","","","",""
"","image-keyboard-response","209","109470","0.0-298.0","3W8CV64QJ3L4LLBKWJUWOVPLSEO9H3","A2T8U68Y44GPVD","3P7RGTLO6EZ76AO3386R8ZK9IWWKAW","","315","img/food3.png","75","316","2","1","","2","1","1,0.5,0,1,0.5,0,0.5,0,1","0,1,0.5,0,1,0.5,1,0.5,0","3",""
"","html-keyboard-response","210","109772","0.0-299.0","3W8CV64QJ3L4LLBKWJUWOVPLSEO9H3","A2T8U68Y44GPVD","3P7RGTLO6EZ76AO3386R8ZK9IWWKAW","","null","<img src=""img/food3.png"" style=""width:200px; border:14px solid green;"">","null","","","","","","","","","",""
"","image-keyboard-response","211","110054","0.0-300.0","3W8CV64QJ3L4LLBKWJUWOVPLSEO9H3","A2T8U68Y44GPVD","3P7RGTLO6EZ76AO3386R8ZK9IWWKAW","","281","img/food5.png","76","282","3","0","","3","1","1,0.5,0,1,0.5,0,0.5,0,1","0,1,0.5,0,1,0.5,1,0.5,0","3",""
"","html-keyboard-response","212","110356","0.0-301.0","3W8CV64QJ3L4LLBKWJUWOVPLSEO9H3","A2T8U68Y44GPVD","3P7RGTLO6EZ76AO3386R8ZK9IWWKAW","","null","<img src=""img/food5.png"" style=""width:200px;border:14px solid red;"">","null","","","","","","","","","",""
"","image-keyboard-response","213","110388","0.0-302.0","3W8CV64QJ3L4LLBKWJUWOVPLSEO9H3","A2T8U68Y44GPVD","3P7RGTLO6EZ76AO3386R8ZK9IWWKAW","","31","img/food3.png","75","33","2","1","","2","1","1,0.5,0,1,0.5,0,0.5,0,1","0,1,0.5,0,1,0.5,1,0.5,0","3",""
"","html-keyboard-response","214","110690","0.0-303.0","3W8CV64QJ3L4LLBKWJUWOVPLSEO9H3","A2T8U68Y44GPVD","3P7RGTLO6EZ76AO3386R8ZK9IWWKAW","","null","<img src=""img/food3.png"" style=""width:200px; border:14px solid green;"">","null","","","","","","","","","",""
"","image-keyboard-response","215","110728","0.0-304.0","3W8CV64QJ3L4LLBKWJUWOVPLSEO9H3","A2T8U68Y44GPVD","3P7RGTLO6EZ76AO3386R8ZK9IWWKAW","","37","img/food5.png","74","39","1","1","","3","1","1,0.5,0,1,0.5,0,0.5,0,1","0,1,0.5,0,1,0.5,1,0.5,0","3",""
"","html-keyboard-response","216","111030","0.0-305.0","3W8CV64QJ3L4LLBKWJUWOVPLSEO9H3","A2T8U68Y44GPVD","3P7RGTLO6EZ76AO3386R8ZK9IWWKAW","","null","<img src=""img/food5.png"" style=""width:200px; border:14px solid green;"">","null","","","","","","","","","",""
"","image-keyboard-response","217","111062","0.0-306.0","3W8CV64QJ3L4LLBKWJUWOVPLSEO9H3","A2T8U68Y44GPVD","3P7RGTLO6EZ76AO3386R8ZK9IWWKAW","","31","img/food3.png","74","33","1","0","","2","1","1,0.5,0,1,0.5,0,0.5,0,1","0,1,0.5,0,1,0.5,1,0.5,0","3",""
"","html-keyboard-response","218","111446","0.0-307.0","3W8CV64QJ3L4LLBKWJUWOVPLSEO9H3","A2T8U68Y44GPVD","3P7RGTLO6EZ76AO3386R8ZK9IWWKAW","","null","<img src=""img/food3.png"" style=""width:200px;border:14px solid red;"">","null","","","","","","","","","",""
"","image-keyboard-response","219","111789","0.0-308.0","3W8CV64QJ3L4LLBKWJUWOVPLSEO9H3","A2T8U68Y44GPVD","3P7RGTLO6EZ76AO3386R8ZK9IWWKAW","","343","img/food3.png","75","343","2","1","","2","1","1,0.5,0,1,0.5,0,0.5,0,1","0,1,0.5,0,1,0.5,1,0.5,0","3",""
"","html-keyboard-response","220","112091","0.0-309.0","3W8CV64QJ3L4LLBKWJUWOVPLSEO9H3","A2T8U68Y44GPVD","3P7RGTLO6EZ76AO3386R8ZK9IWWKAW","","null","<img src=""img/food3.png"" style=""width:200px; border:14px solid green;"">","null","","","","","","","","","",""
"","image-keyboard-response","221","112278","0.0-310.0","3W8CV64QJ3L4LLBKWJUWOVPLSEO9H3","A2T8U68Y44GPVD","3P7RGTLO6EZ76AO3386R8ZK9IWWKAW","","187","img/food3.png","74","188","1","0","","2","1","1,0.5,0,1,0.5,0,0.5,0,1","0,1,0.5,0,1,0.5,1,0.5,0","3",""
"","html-keyboard-response","222","112580","0.0-311.0","3W8CV64QJ3L4LLBKWJUWOVPLSEO9H3","A2T8U68Y44GPVD","3P7RGTLO6EZ76AO3386R8ZK9IWWKAW","","null","<img src=""img/food3.png"" style=""width:200px;border:14px solid red;"">","null","","","","","","","","","",""
"","image-keyboard-response","223","112709","0.0-312.0","3W8CV64QJ3L4LLBKWJUWOVPLSEO9H3","A2T8U68Y44GPVD","3P7RGTLO6EZ76AO3386R8ZK9IWWKAW","","129","img/food5.png","74","129","1","1","","3","1","1,0.5,0,1,0.5,0,0.5,0,1","0,1,0.5,0,1,0.5,1,0.5,0","3",""
"","html-keyboard-response","224","113010","0.0-313.0","3W8CV64QJ3L4LLBKWJUWOVPLSEO9H3","A2T8U68Y44GPVD","3P7RGTLO6EZ76AO3386R8ZK9IWWKAW","","null","<img src=""img/food5.png"" style=""width:200px; border:14px solid green;"">","null","","","","","","","","","",""
"","image-keyboard-response","225","113431","0.0-314.0","3W8CV64QJ3L4LLBKWJUWOVPLSEO9H3","A2T8U68Y44GPVD","3P7RGTLO6EZ76AO3386R8ZK9IWWKAW","","421","img/food5.png","74","421","1","1","","3","1","1,0.5,0,1,0.5,0,0.5,0,1","0,1,0.5,0,1,0.5,1,0.5,0","3",""
"","html-keyboard-response","226","113740","0.0-315.0","3W8CV64QJ3L4LLBKWJUWOVPLSEO9H3","A2T8U68Y44GPVD","3P7RGTLO6EZ76AO3386R8ZK9IWWKAW","","null","<img src=""img/food5.png"" style=""width:200px; border:14px solid green;"">","null","","","","","","","","","",""
"","image-keyboard-response","227","113835","0.0-316.0","3W8CV64QJ3L4LLBKWJUWOVPLSEO9H3","A2T8U68Y44GPVD","3P7RGTLO6EZ76AO3386R8ZK9IWWKAW","","94","img/food5.png","76","95","3","0","","3","1","1,0.5,0,1,0.5,0,0.5,0,1","0,1,0.5,0,1,0.5,1,0.5,0","3",""
"","html-keyboard-response","228","114146","0.0-317.0","3W8CV64QJ3L4LLBKWJUWOVPLSEO9H3","A2T8U68Y44GPVD","3P7RGTLO6EZ76AO3386R8ZK9IWWKAW","","null","<img src=""img/food5.png"" style=""width:200px;border:14px solid red;"">","null","","","","","","","","","",""
"","image-keyboard-response","229","114182","0.0-318.0","3W8CV64QJ3L4LLBKWJUWOVPLSEO9H3","A2T8U68Y44GPVD","3P7RGTLO6EZ76AO3386R8ZK9IWWKAW","","36","img/food3.png","75","36","2","1","","2","1","1,0.5,0,1,0.5,0,0.5,0,1","0,1,0.5,0,1,0.5,1,0.5,0","3",""
"","html-keyboard-response","230","114484","0.0-319.0","3W8CV64QJ3L4LLBKWJUWOVPLSEO9H3","A2T8U68Y44GPVD","3P7RGTLO6EZ76AO3386R8ZK9IWWKAW","","null","<img src=""img/food3.png"" style=""width:200px; border:14px solid green;"">","null","","","","","","","","","",""
"","image-keyboard-response","231","114853","0.0-320.0","3W8CV64QJ3L4LLBKWJUWOVPLSEO9H3","A2T8U68Y44GPVD","3P7RGTLO6EZ76AO3386R8ZK9IWWKAW","","368","img/food1.png","74","369","1","0","","1","1","1,0.5,0,1,0.5,0,0.5,0,1","0,1,0.5,0,1,0.5,1,0.5,0","3",""
"","html-keyboard-response","232","115155","0.0-321.0","3W8CV64QJ3L4LLBKWJUWOVPLSEO9H3","A2T8U68Y44GPVD","3P7RGTLO6EZ76AO3386R8ZK9IWWKAW","","null","<img src=""img/food1.png"" style=""width:200px;border:14px solid red;"">","null","","","","","","","","","",""
"","image-keyboard-response","233","115265","0.0-322.0","3W8CV64QJ3L4LLBKWJUWOVPLSEO9H3","A2T8U68Y44GPVD","3P7RGTLO6EZ76AO3386R8ZK9IWWKAW","","108","img/food5.png","74","110","1","1","","3","1","1,0.5,0,1,0.5,0,0.5,0,1","0,1,0.5,0,1,0.5,1,0.5,0","3",""
"","html-keyboard-response","234","115567","0.0-323.0","3W8CV64QJ3L4LLBKWJUWOVPLSEO9H3","A2T8U68Y44GPVD","3P7RGTLO6EZ76AO3386R8ZK9IWWKAW","","null","<img src=""img/food5.png"" style=""width:200px; border:14px solid green;"">","null","","","","","","","","","",""
"","image-keyboard-response","235","115803","0.0-324.0","3W8CV64QJ3L4LLBKWJUWOVPLSEO9H3","A2T8U68Y44GPVD","3P7RGTLO6EZ76AO3386R8ZK9IWWKAW","","236","img/food5.png","75","236","2","0","","3","1","1,0.5,0,1,0.5,0,0.5,0,1","0,1,0.5,0,1,0.5,1,0.5,0","3",""
"","html-keyboard-response","236","116103","0.0-325.0","3W8CV64QJ3L4LLBKWJUWOVPLSEO9H3","A2T8U68Y44GPVD","3P7RGTLO6EZ76AO3386R8ZK9IWWKAW","","null","<img src=""img/food5.png"" style=""width:200px;border:14px solid red;"">","null","","","","","","","","","",""
"","image-keyboard-response","237","116205","0.0-326.0","3W8CV64QJ3L4LLBKWJUWOVPLSEO9H3","A2T8U68Y44GPVD","3P7RGTLO6EZ76AO3386R8ZK9IWWKAW","","102","img/food3.png","75","103","2","1","","2","1","1,0.5,0,1,0.5,0,0.5,0,1","0,1,0.5,0,1,0.5,1,0.5,0","3",""
"","html-keyboard-response","238","116507","0.0-327.0","3W8CV64QJ3L4LLBKWJUWOVPLSEO9H3","A2T8U68Y44GPVD","3P7RGTLO6EZ76AO3386R8ZK9IWWKAW","","null","<img src=""img/food3.png"" style=""width:200px; border:14px solid green;"">","null","","","","","","","","","",""
"","image-keyboard-response","239","116525","0.0-328.0","3W8CV64QJ3L4LLBKWJUWOVPLSEO9H3","A2T8U68Y44GPVD","3P7RGTLO6EZ76AO3386R8ZK9IWWKAW","","16","img/food5.png","75","18","2","0","","3","1","1,0.5,0,1,0.5,0,0.5,0,1","0,1,0.5,0,1,0.5,1,0.5,0","3",""
"","html-keyboard-response","240","116826","0.0-329.0","3W8CV64QJ3L4LLBKWJUWOVPLSEO9H3","A2T8U68Y44GPVD","3P7RGTLO6EZ76AO3386R8ZK9IWWKAW","","null","<img src=""img/food5.png"" style=""width:200px;border:14px solid red;"">","null","","","","","","","","","",""
"","image-keyboard-response","241","116941","0.0-330.0","3W8CV64QJ3L4LLBKWJUWOVPLSEO9H3","A2T8U68Y44GPVD","3P7RGTLO6EZ76AO3386R8ZK9IWWKAW","","114","img/food1.png","74","115","1","0","","1","1","1,0.5,0,1,0.5,0,0.5,0,1","0,1,0.5,0,1,0.5,1,0.5,0","3",""
"","html-keyboard-response","242","117245","0.0-331.0","3W8CV64QJ3L4LLBKWJUWOVPLSEO9H3","A2T8U68Y44GPVD","3P7RGTLO6EZ76AO3386R8ZK9IWWKAW","","null","<img src=""img/food1.png"" style=""width:200px;border:14px solid red;"">","null","","","","","","","","","",""
"","image-keyboard-response","243","117791","0.0-332.0","3W8CV64QJ3L4LLBKWJUWOVPLSEO9H3","A2T8U68Y44GPVD","3P7RGTLO6EZ76AO3386R8ZK9IWWKAW","","546","img/food3.png","74","546","1","0","","2","1","1,0.5,0,1,0.5,0,0.5,0,1","0,1,0.5,0,1,0.5,1,0.5,0","3",""
"","html-keyboard-response","244","118093","0.0-333.0","3W8CV64QJ3L4LLBKWJUWOVPLSEO9H3","A2T8U68Y44GPVD","3P7RGTLO6EZ76AO3386R8ZK9IWWKAW","","null","<img src=""img/food3.png"" style=""width:200px;border:14px solid red;"">","null","","","","","","","","","",""
"","image-keyboard-response","245","118126","0.0-334.0","3W8CV64QJ3L4LLBKWJUWOVPLSEO9H3","A2T8U68Y44GPVD","3P7RGTLO6EZ76AO3386R8ZK9IWWKAW","","31","img/food3.png","76","33","3","1","","2","1","1,0.5,0,1,0.5,0,0.5,0,1","0,1,0.5,0,1,0.5,1,0.5,0","3",""
"","html-keyboard-response","246","118427","0.0-335.0","3W8CV64QJ3L4LLBKWJUWOVPLSEO9H3","A2T8U68Y44GPVD","3P7RGTLO6EZ76AO3386R8ZK9IWWKAW","","null","<img src=""img/food3.png"" style=""width:200px; border:14px solid green;"">","null","","","","","","","","","",""
"","image-keyboard-response","247","118501","0.0-336.0","3W8CV64QJ3L4LLBKWJUWOVPLSEO9H3","A2T8U68Y44GPVD","3P7RGTLO6EZ76AO3386R8ZK9IWWKAW","","73","img/food5.png","75","74","2","1","","3","1","1,0.5,0,1,0.5,0,0.5,0,1","0,1,0.5,0,1,0.5,1,0.5,0","3",""
"","html-keyboard-response","248","118803","0.0-337.0","3W8CV64QJ3L4LLBKWJUWOVPLSEO9H3","A2T8U68Y44GPVD","3P7RGTLO6EZ76AO3386R8ZK9IWWKAW","","null","<img src=""img/food5.png"" style=""width:200px; border:14px solid green;"">","null","","","","","","","","","",""
"","image-keyboard-response","249","118855","0.0-338.0","3W8CV64QJ3L4LLBKWJUWOVPLSEO9H3","A2T8U68Y44GPVD","3P7RGTLO6EZ76AO3386R8ZK9IWWKAW","","51","img/food1.png","76","52","3","0","","1","1","1,0.5,0,1,0.5,0,0.5,0,1","0,1,0.5,0,1,0.5,1,0.5,0","3",""
"","html-keyboard-response","250","119157","0.0-339.0","3W8CV64QJ3L4LLBKWJUWOVPLSEO9H3","A2T8U68Y44GPVD","3P7RGTLO6EZ76AO3386R8ZK9IWWKAW","","null","<img src=""img/food1.png"" style=""width:200px;border:14px solid red;"">","null","","","","","","","","","",""
"","image-keyboard-response","251","119197","0.0-340.0","3W8CV64QJ3L4LLBKWJUWOVPLSEO9H3","A2T8U68Y44GPVD","3P7RGTLO6EZ76AO3386R8ZK9IWWKAW","","38","img/food5.png","75","39","2","0","","3","1","1,0.5,0,1,0.5,0,0.5,0,1","0,1,0.5,0,1,0.5,1,0.5,0","3",""
"","html-keyboard-response","252","119498","0.0-341.0","3W8CV64QJ3L4LLBKWJUWOVPLSEO9H3","A2T8U68Y44GPVD","3P7RGTLO6EZ76AO3386R8ZK9IWWKAW","","null","<img src=""img/food5.png"" style=""width:200px;border:14px solid red;"">","null","","","","","","","","","",""
"","image-keyboard-response","253","119613","0.0-342.0","3W8CV64QJ3L4LLBKWJUWOVPLSEO9H3","A2T8U68Y44GPVD","3P7RGTLO6EZ76AO3386R8ZK9IWWKAW","","114","img/food3.png","76","115","3","1","","2","1","1,0.5,0,1,0.5,0,0.5,0,1","0,1,0.5,0,1,0.5,1,0.5,0","3",""
"","html-keyboard-response","254","119914","0.0-343.0","3W8CV64QJ3L4LLBKWJUWOVPLSEO9H3","A2T8U68Y44GPVD","3P7RGTLO6EZ76AO3386R8ZK9IWWKAW","","null","<img src=""img/food3.png"" style=""width:200px; border:14px solid green;"">","null","","","","","","","","","",""
"","image-keyboard-response","255","119949","0.0-344.0","3W8CV64QJ3L4LLBKWJUWOVPLSEO9H3","A2T8U68Y44GPVD","3P7RGTLO6EZ76AO3386R8ZK9IWWKAW","","35","img/food1.png","74","36","1","0","","1","1","1,0.5,0,1,0.5,0,0.5,0,1","0,1,0.5,0,1,0.5,1,0.5,0","3",""
"","html-keyboard-response","256","120250","0.0-345.0","3W8CV64QJ3L4LLBKWJUWOVPLSEO9H3","A2T8U68Y44GPVD","3P7RGTLO6EZ76AO3386R8ZK9IWWKAW","","null","<img src=""img/food1.png"" style=""width:200px;border:14px solid red;"">","null","","","","","","","","","",""
"","image-keyboard-response","257","120357","0.0-346.0","3W8CV64QJ3L4LLBKWJUWOVPLSEO9H3","A2T8U68Y44GPVD","3P7RGTLO6EZ76AO3386R8ZK9IWWKAW","","106","img/food3.png","76","107","3","1","","2","1","1,0.5,0,1,0.5,0,0.5,0,1","0,1,0.5,0,1,0.5,1,0.5,0","3",""
"","html-keyboard-response","258","120658","0.0-347.0","3W8CV64QJ3L4LLBKWJUWOVPLSEO9H3","A2T8U68Y44GPVD","3P7RGTLO6EZ76AO3386R8ZK9IWWKAW","","null","<img src=""img/food3.png"" style=""width:200px; border:14px solid green;"">","null","","","","","","","","","",""
"","image-keyboard-response","259","120695","0.0-348.0","3W8CV64QJ3L4LLBKWJUWOVPLSEO9H3","A2T8U68Y44GPVD","3P7RGTLO6EZ76AO3386R8ZK9IWWKAW","","36","img/food3.png","76","37","3","0","","2","1","1,0.5,0,1,0.5,0,0.5,0,1","0,1,0.5,0,1,0.5,1,0.5,0","3",""
"","html-keyboard-response","260","121039","0.0-349.0","3W8CV64QJ3L4LLBKWJUWOVPLSEO9H3","A2T8U68Y44GPVD","3P7RGTLO6EZ76AO3386R8ZK9IWWKAW","","null","<img src=""img/food3.png"" style=""width:200px;border:14px solid red;"">","null","","","","","","","","","",""
"","image-keyboard-response","261","121309","0.0-350.0","3W8CV64QJ3L4LLBKWJUWOVPLSEO9H3","A2T8U68Y44GPVD","3P7RGTLO6EZ76AO3386R8ZK9IWWKAW","","270","img/food3.png","74","270","1","0","","2","1","1,0.5,0,1,0.5,0,0.5,0,1","0,1,0.5,0,1,0.5,1,0.5,0","3",""
"","html-keyboard-response","262","121610","0.0-351.0","3W8CV64QJ3L4LLBKWJUWOVPLSEO9H3","A2T8U68Y44GPVD","3P7RGTLO6EZ76AO3386R8ZK9IWWKAW","","null","<img src=""img/food3.png"" style=""width:200px;border:14px solid red;"">","null","","","","","","","","","",""
"","image-keyboard-response","263","121982","0.0-352.0","3W8CV64QJ3L4LLBKWJUWOVPLSEO9H3","A2T8U68Y44GPVD","3P7RGTLO6EZ76AO3386R8ZK9IWWKAW","","371","img/food5.png","75","372","2","1","","3","1","1,0.5,0,1,0.5,0,0.5,0,1","0,1,0.5,0,1,0.5,1,0.5,0","3",""
"","html-keyboard-response","264","122284","0.0-353.0","3W8CV64QJ3L4LLBKWJUWOVPLSEO9H3","A2T8U68Y44GPVD","3P7RGTLO6EZ76AO3386R8ZK9IWWKAW","","null","<img src=""img/food5.png"" style=""width:200px; border:14px solid green;"">","null","","","","","","","","","",""
"","image-keyboard-response","265","122406","0.0-354.0","3W8CV64QJ3L4LLBKWJUWOVPLSEO9H3","A2T8U68Y44GPVD","3P7RGTLO6EZ76AO3386R8ZK9IWWKAW","","120","img/food1.png","75","122","2","1","","1","1","1,0.5,0,1,0.5,0,0.5,0,1","0,1,0.5,0,1,0.5,1,0.5,0","3",""
"","html-keyboard-response","266","122708","0.0-355.0","3W8CV64QJ3L4LLBKWJUWOVPLSEO9H3","A2T8U68Y44GPVD","3P7RGTLO6EZ76AO3386R8ZK9IWWKAW","","null","<img src=""img/food1.png"" style=""width:200px; border:14px solid green;"">","null","","","","","","","","","",""
"","image-keyboard-response","267","122877","0.0-356.0","3W8CV64QJ3L4LLBKWJUWOVPLSEO9H3","A2T8U68Y44GPVD","3P7RGTLO6EZ76AO3386R8ZK9IWWKAW","","168","img/food1.png","74","170","1","0","","1","1","1,0.5,0,1,0.5,0,0.5,0,1","0,1,0.5,0,1,0.5,1,0.5,0","3",""
"","html-keyboard-response","268","123180","0.0-357.0","3W8CV64QJ3L4LLBKWJUWOVPLSEO9H3","A2T8U68Y44GPVD","3P7RGTLO6EZ76AO3386R8ZK9IWWKAW","","null","<img src=""img/food1.png"" style=""width:200px;border:14px solid red;"">","null","","","","","","","","","",""
"","image-keyboard-response","269","123189","0.0-358.0","3W8CV64QJ3L4LLBKWJUWOVPLSEO9H3","A2T8U68Y44GPVD","3P7RGTLO6EZ76AO3386R8ZK9IWWKAW","","8","img/food3.png","75","9","2","1","","2","1","1,0.5,0,1,0.5,0,0.5,0,1","0,1,0.5,0,1,0.5,1,0.5,0","3",""
"","html-keyboard-response","270","123490","0.0-359.0","3W8CV64QJ3L4LLBKWJUWOVPLSEO9H3","A2T8U68Y44GPVD","3P7RGTLO6EZ76AO3386R8ZK9IWWKAW","","null","<img src=""img/food3.png"" style=""width:200px; border:14px solid green;"">","null","","","","","","","","","",""
"","image-keyboard-response","271","123581","0.0-360.0","3W8CV64QJ3L4LLBKWJUWOVPLSEO9H3","A2T8U68Y44GPVD","3P7RGTLO6EZ76AO3386R8ZK9IWWKAW","","90","img/food1.png","76","92","3","1","","1","1","1,0.5,0,1,0.5,0,0.5,0,1","0,1,0.5,0,1,0.5,1,0.5,0","3",""
"","html-keyboard-response","272","123883","0.0-361.0","3W8CV64QJ3L4LLBKWJUWOVPLSEO9H3","A2T8U68Y44GPVD","3P7RGTLO6EZ76AO3386R8ZK9IWWKAW","","null","<img src=""img/food1.png"" style=""width:200px; border:14px solid green;"">","null","","","","","","","","","",""
"","image-keyboard-response","273","123892","0.0-362.0","3W8CV64QJ3L4LLBKWJUWOVPLSEO9H3","A2T8U68Y44GPVD","3P7RGTLO6EZ76AO3386R8ZK9IWWKAW","","7","img/food1.png","76","9","3","1","","1","1","1,0.5,0,1,0.5,0,0.5,0,1","0,1,0.5,0,1,0.5,1,0.5,0","3",""
"","html-keyboard-response","274","124194","0.0-363.0","3W8CV64QJ3L4LLBKWJUWOVPLSEO9H3","A2T8U68Y44GPVD","3P7RGTLO6EZ76AO3386R8ZK9IWWKAW","","null","<img src=""img/food1.png"" style=""width:200px; border:14px solid green;"">","null","","","","","","","","","",""
"","image-keyboard-response","275","124198","0.0-364.0","3W8CV64QJ3L4LLBKWJUWOVPLSEO9H3","A2T8U68Y44GPVD","3P7RGTLO6EZ76AO3386R8ZK9IWWKAW","","4","img/food3.png","75","4","2","1","","2","1","1,0.5,0,1,0.5,0,0.5,0,1","0,1,0.5,0,1,0.5,1,0.5,0","3",""
"","html-keyboard-response","276","124500","0.0-365.0","3W8CV64QJ3L4LLBKWJUWOVPLSEO9H3","A2T8U68Y44GPVD","3P7RGTLO6EZ76AO3386R8ZK9IWWKAW","","null","<img src=""img/food3.png"" style=""width:200px; border:14px solid green;"">","null","","","","","","","","","",""
"","image-keyboard-response","277","124534","0.0-366.0","3W8CV64QJ3L4LLBKWJUWOVPLSEO9H3","A2T8U68Y44GPVD","3P7RGTLO6EZ76AO3386R8ZK9IWWKAW","","34","img/food5.png","75","34","2","0","","3","1","1,0.5,0,1,0.5,0,0.5,0,1","0,1,0.5,0,1,0.5,1,0.5,0","3",""
"","html-keyboard-response","278","124836","0.0-367.0","3W8CV64QJ3L4LLBKWJUWOVPLSEO9H3","A2T8U68Y44GPVD","3P7RGTLO6EZ76AO3386R8ZK9IWWKAW","","null","<img src=""img/food5.png"" style=""width:200px;border:14px solid red;"">","null","","","","","","","","","",""
"","image-keyboard-response","279","124941","0.0-368.0","3W8CV64QJ3L4LLBKWJUWOVPLSEO9H3","A2T8U68Y44GPVD","3P7RGTLO6EZ76AO3386R8ZK9IWWKAW","","104","img/food3.png","76","106","3","0","","2","1","1,0.5,0,1,0.5,0,0.5,0,1","0,1,0.5,0,1,0.5,1,0.5,0","3",""
"","html-keyboard-response","280","125245","0.0-369.0","3W8CV64QJ3L4LLBKWJUWOVPLSEO9H3","A2T8U68Y44GPVD","3P7RGTLO6EZ76AO3386R8ZK9IWWKAW","","null","<img src=""img/food3.png"" style=""width:200px;border:14px solid red;"">","null","","","","","","","","","",""
"","image-keyboard-response","281","125277","0.0-370.0","3W8CV64QJ3L4LLBKWJUWOVPLSEO9H3","A2T8U68Y44GPVD","3P7RGTLO6EZ76AO3386R8ZK9IWWKAW","","31","img/food1.png","75","32","2","1","","1","1","1,0.5,0,1,0.5,0,0.5,0,1","0,1,0.5,0,1,0.5,1,0.5,0","3",""
"","html-keyboard-response","282","125578","0.0-371.0","3W8CV64QJ3L4LLBKWJUWOVPLSEO9H3","A2T8U68Y44GPVD","3P7RGTLO6EZ76AO3386R8ZK9IWWKAW","","null","<img src=""img/food1.png"" style=""width:200px; border:14px solid green;"">","null","","","","","","","","","",""
"","image-keyboard-response","283","125629","0.0-372.0","3W8CV64QJ3L4LLBKWJUWOVPLSEO9H3","A2T8U68Y44GPVD","3P7RGTLO6EZ76AO3386R8ZK9IWWKAW","","50","img/food5.png","74","52","1","1","","3","1","1,0.5,0,1,0.5,0,0.5,0,1","0,1,0.5,0,1,0.5,1,0.5,0","3",""
"","html-keyboard-response","284","125930","0.0-373.0","3W8CV64QJ3L4LLBKWJUWOVPLSEO9H3","A2T8U68Y44GPVD","3P7RGTLO6EZ76AO3386R8ZK9IWWKAW","","null","<img src=""img/food5.png"" style=""width:200px; border:14px solid green;"">","null","","","","","","","","","",""
"","image-keyboard-response","285","126085","0.0-374.0","3W8CV64QJ3L4LLBKWJUWOVPLSEO9H3","A2T8U68Y44GPVD","3P7RGTLO6EZ76AO3386R8ZK9IWWKAW","","154","img/food5.png","74","155","1","1","","3","1","1,0.5,0,1,0.5,0,0.5,0,1","0,1,0.5,0,1,0.5,1,0.5,0","3",""
"","html-keyboard-response","286","126401","0.0-375.0","3W8CV64QJ3L4LLBKWJUWOVPLSEO9H3","A2T8U68Y44GPVD","3P7RGTLO6EZ76AO3386R8ZK9IWWKAW","","null","<img src=""img/food5.png"" style=""width:200px; border:14px solid green;"">","null","","","","","","","","","",""
"","image-keyboard-response","287","126519","0.0-376.0","3W8CV64QJ3L4LLBKWJUWOVPLSEO9H3","A2T8U68Y44GPVD","3P7RGTLO6EZ76AO3386R8ZK9IWWKAW","","118","img/food1.png","76","118","3","0","","1","1","1,0.5,0,1,0.5,0,0.5,0,1","0,1,0.5,0,1,0.5,1,0.5,0","3",""
"","html-keyboard-response","288","126820","0.0-377.0","3W8CV64QJ3L4LLBKWJUWOVPLSEO9H3","A2T8U68Y44GPVD","3P7RGTLO6EZ76AO3386R8ZK9IWWKAW","","null","<img src=""img/food1.png"" style=""width:200px;border:14px solid red;"">","null","","","","","","","","","",""
"","image-keyboard-response","289","127110","0.0-378.0","3W8CV64QJ3L4LLBKWJUWOVPLSEO9H3","A2T8U68Y44GPVD","3P7RGTLO6EZ76AO3386R8ZK9IWWKAW","","288","img/food3.png","75","290","2","1","","2","1","1,0.5,0,1,0.5,0,0.5,0,1","0,1,0.5,0,1,0.5,1,0.5,0","3",""
"","html-keyboard-response","290","127484","0.0-379.0","3W8CV64QJ3L4LLBKWJUWOVPLSEO9H3","A2T8U68Y44GPVD","3P7RGTLO6EZ76AO3386R8ZK9IWWKAW","","null","<img src=""img/food3.png"" style=""width:200px; border:14px solid green;"">","null","","","","","","","","","",""
"","image-keyboard-response","291","127493","0.0-380.0","3W8CV64QJ3L4LLBKWJUWOVPLSEO9H3","A2T8U68Y44GPVD","3P7RGTLO6EZ76AO3386R8ZK9IWWKAW","","7","img/food3.png","75","8","2","1","","2","1","1,0.5,0,1,0.5,0,0.5,0,1","0,1,0.5,0,1,0.5,1,0.5,0","3",""
"","html-keyboard-response","292","127795","0.0-381.0","3W8CV64QJ3L4LLBKWJUWOVPLSEO9H3","A2T8U68Y44GPVD","3P7RGTLO6EZ76AO3386R8ZK9IWWKAW","","null","<img src=""img/food3.png"" style=""width:200px; border:14px solid green;"">","null","","","","","","","","","",""
"","image-keyboard-response","293","128192","0.0-382.0","3W8CV64QJ3L4LLBKWJUWOVPLSEO9H3","A2T8U68Y44GPVD","3P7RGTLO6EZ76AO3386R8ZK9IWWKAW","","396","img/food1.png","74","397","1","0","","1","1","1,0.5,0,1,0.5,0,0.5,0,1","0,1,0.5,0,1,0.5,1,0.5,0","3",""
"","html-keyboard-response","294","128493","0.0-383.0","3W8CV64QJ3L4LLBKWJUWOVPLSEO9H3","A2T8U68Y44GPVD","3P7RGTLO6EZ76AO3386R8ZK9IWWKAW","","null","<img src=""img/food1.png"" style=""width:200px;border:14px solid red;"">","null","","","","","","","","","",""
"","image-keyboard-response","295","128573","0.0-384.0","3W8CV64QJ3L4LLBKWJUWOVPLSEO9H3","A2T8U68Y44GPVD","3P7RGTLO6EZ76AO3386R8ZK9IWWKAW","","79","img/food3.png","75","80","2","1","","2","1","1,0.5,0,1,0.5,0,0.5,0,1","0,1,0.5,0,1,0.5,1,0.5,0","3",""
"","html-keyboard-response","296","128874","0.0-385.0","3W8CV64QJ3L4LLBKWJUWOVPLSEO9H3","A2T8U68Y44GPVD","3P7RGTLO6EZ76AO3386R8ZK9IWWKAW","","null","<img src=""img/food3.png"" style=""width:200px; border:14px solid green;"">","null","","","","","","","","","",""
"","image-keyboard-response","297","128888","0.0-386.0","3W8CV64QJ3L4LLBKWJUWOVPLSEO9H3","A2T8U68Y44GPVD","3P7RGTLO6EZ76AO3386R8ZK9IWWKAW","","12","img/food5.png","75","14","2","0","","3","1","1,0.5,0,1,0.5,0,0.5,0,1","0,1,0.5,0,1,0.5,1,0.5,0","3",""
"","html-keyboard-response","298","129188","0.0-387.0","3W8CV64QJ3L4LLBKWJUWOVPLSEO9H3","A2T8U68Y44GPVD","3P7RGTLO6EZ76AO3386R8ZK9IWWKAW","","null","<img src=""img/food5.png"" style=""width:200px;border:14px solid red;"">","null","","","","","","","","","",""
"","image-keyboard-response","299","129213","0.0-388.0","3W8CV64QJ3L4LLBKWJUWOVPLSEO9H3","A2T8U68Y44GPVD","3P7RGTLO6EZ76AO3386R8ZK9IWWKAW","","24","img/food5.png","75","25","2","0","","3","1","1,0.5,0,1,0.5,0,0.5,0,1","0,1,0.5,0,1,0.5,1,0.5,0","3",""
"","html-keyboard-response","300","129514","0.0-389.0","3W8CV64QJ3L4LLBKWJUWOVPLSEO9H3","A2T8U68Y44GPVD","3P7RGTLO6EZ76AO3386R8ZK9IWWKAW","","null","<img src=""img/food5.png"" style=""width:200px;border:14px solid red;"">","null","","","","","","","","","",""
"","image-keyboard-response","301","129637","0.0-390.0","3W8CV64QJ3L4LLBKWJUWOVPLSEO9H3","A2T8U68Y44GPVD","3P7RGTLO6EZ76AO3386R8ZK9IWWKAW","","122","img/food3.png","74","124","1","0","","2","1","1,0.5,0,1,0.5,0,0.5,0,1","0,1,0.5,0,1,0.5,1,0.5,0","3",""
"","html-keyboard-response","302","129940","0.0-391.0","3W8CV64QJ3L4LLBKWJUWOVPLSEO9H3","A2T8U68Y44GPVD","3P7RGTLO6EZ76AO3386R8ZK9IWWKAW","","null","<img src=""img/food3.png"" style=""width:200px;border:14px solid red;"">","null","","","","","","","","","",""
"","image-keyboard-response","303","130232","0.0-392.0","3W8CV64QJ3L4LLBKWJUWOVPLSEO9H3","A2T8U68Y44GPVD","3P7RGTLO6EZ76AO3386R8ZK9IWWKAW","","291","img/food5.png","74","292","1","1","","3","1","1,0.5,0,1,0.5,0,0.5,0,1","0,1,0.5,0,1,0.5,1,0.5,0","3",""
"","html-keyboard-response","304","130533","0.0-393.0","3W8CV64QJ3L4LLBKWJUWOVPLSEO9H3","A2T8U68Y44GPVD","3P7RGTLO6EZ76AO3386R8ZK9IWWKAW","","null","<img src=""img/food5.png"" style=""width:200px; border:14px solid green;"">","null","","","","","","","","","",""
"","image-keyboard-response","305","130733","0.0-394.0","3W8CV64QJ3L4LLBKWJUWOVPLSEO9H3","A2T8U68Y44GPVD","3P7RGTLO6EZ76AO3386R8ZK9IWWKAW","","200","img/food3.png","74","200","1","0","","2","1","1,0.5,0,1,0.5,0,0.5,0,1","0,1,0.5,0,1,0.5,1,0.5,0","3",""
"","html-keyboard-response","306","131035","0.0-395.0","3W8CV64QJ3L4LLBKWJUWOVPLSEO9H3","A2T8U68Y44GPVD","3P7RGTLO6EZ76AO3386R8ZK9IWWKAW","","null","<img src=""img/food3.png"" style=""width:200px;border:14px solid red;"">","null","","","","","","","","","",""
"","image-keyboard-response","307","131489","0.0-396.0","3W8CV64QJ3L4LLBKWJUWOVPLSEO9H3","A2T8U68Y44GPVD","3P7RGTLO6EZ76AO3386R8ZK9IWWKAW","","452","img/food1.png","75","454","2","1","","1","1","1,0.5,0,1,0.5,0,0.5,0,1","0,1,0.5,0,1,0.5,1,0.5,0","3",""
"","html-keyboard-response","308","131791","0.0-397.0","3W8CV64QJ3L4LLBKWJUWOVPLSEO9H3","A2T8U68Y44GPVD","3P7RGTLO6EZ76AO3386R8ZK9IWWKAW","","null","<img src=""img/food1.png"" style=""width:200px; border:14px solid green;"">","null","","","","","","","","","",""
"","image-keyboard-response","309","131998","0.0-398.0","3W8CV64QJ3L4LLBKWJUWOVPLSEO9H3","A2T8U68Y44GPVD","3P7RGTLO6EZ76AO3386R8ZK9IWWKAW","","206","img/food1.png","75","207","2","1","","1","1","1,0.5,0,1,0.5,0,0.5,0,1","0,1,0.5,0,1,0.5,1,0.5,0","3",""
"","html-keyboard-response","310","132365","0.0-399.0","3W8CV64QJ3L4LLBKWJUWOVPLSEO9H3","A2T8U68Y44GPVD","3P7RGTLO6EZ76AO3386R8ZK9IWWKAW","","null","<img src=""img/food1.png"" style=""width:200px; border:14px solid green;"">","null","","","","","","","","","",""
"","image-keyboard-response","311","132549","0.0-400.0","3W8CV64QJ3L4LLBKWJUWOVPLSEO9H3","A2T8U68Y44GPVD","3P7RGTLO6EZ76AO3386R8ZK9IWWKAW","","183","img/food5.png","74","184","1","1","","3","1","1,0.5,0,1,0.5,0,0.5,0,1","0,1,0.5,0,1,0.5,1,0.5,0","3",""
"","html-keyboard-response","312","132851","0.0-401.0","3W8CV64QJ3L4LLBKWJUWOVPLSEO9H3","A2T8U68Y44GPVD","3P7RGTLO6EZ76AO3386R8ZK9IWWKAW","","null","<img src=""img/food5.png"" style=""width:200px; border:14px solid green;"">","null","","","","","","","","","",""
"","image-keyboard-response","313","133020","0.0-402.0","3W8CV64QJ3L4LLBKWJUWOVPLSEO9H3","A2T8U68Y44GPVD","3P7RGTLO6EZ76AO3386R8ZK9IWWKAW","","167","img/food1.png","76","169","3","1","","1","1","1,0.5,0,1,0.5,0,0.5,0,1","0,1,0.5,0,1,0.5,1,0.5,0","3",""
"","html-keyboard-response","314","133321","0.0-403.0","3W8CV64QJ3L4LLBKWJUWOVPLSEO9H3","A2T8U68Y44GPVD","3P7RGTLO6EZ76AO3386R8ZK9IWWKAW","","null","<img src=""img/food1.png"" style=""width:200px; border:14px solid green;"">","null","","","","","","","","","",""
"","image-keyboard-response","315","133478","0.0-404.0","3W8CV64QJ3L4LLBKWJUWOVPLSEO9H3","A2T8U68Y44GPVD","3P7RGTLO6EZ76AO3386R8ZK9IWWKAW","","156","img/food5.png","74","157","1","1","","3","1","1,0.5,0,1,0.5,0,0.5,0,1","0,1,0.5,0,1,0.5,1,0.5,0","3",""
"","html-keyboard-response","316","133782","0.0-405.0","3W8CV64QJ3L4LLBKWJUWOVPLSEO9H3","A2T8U68Y44GPVD","3P7RGTLO6EZ76AO3386R8ZK9IWWKAW","","null","<img src=""img/food5.png"" style=""width:200px; border:14px solid green;"">","null","","","","","","","","","",""
"","image-keyboard-response","317","133989","0.0-406.0","3W8CV64QJ3L4LLBKWJUWOVPLSEO9H3","A2T8U68Y44GPVD","3P7RGTLO6EZ76AO3386R8ZK9IWWKAW","","206","img/food3.png","75","207","2","1","","2","1","1,0.5,0,1,0.5,0,0.5,0,1","0,1,0.5,0,1,0.5,1,0.5,0","3",""
"","html-keyboard-response","318","134291","0.0-407.0","3W8CV64QJ3L4LLBKWJUWOVPLSEO9H3","A2T8U68Y44GPVD","3P7RGTLO6EZ76AO3386R8ZK9IWWKAW","","null","<img src=""img/food3.png"" style=""width:200px; border:14px solid green;"">","null","","","","","","","","","",""
"","image-keyboard-response","319","134431","0.0-408.0","3W8CV64QJ3L4LLBKWJUWOVPLSEO9H3","A2T8U68Y44GPVD","3P7RGTLO6EZ76AO3386R8ZK9IWWKAW","","140","img/food5.png","74","140","1","1","","3","1","1,0.5,0,1,0.5,0,0.5,0,1","0,1,0.5,0,1,0.5,1,0.5,0","3",""
"","html-keyboard-response","320","134735","0.0-409.0","3W8CV64QJ3L4LLBKWJUWOVPLSEO9H3","A2T8U68Y44GPVD","3P7RGTLO6EZ76AO3386R8ZK9IWWKAW","","null","<img src=""img/food5.png"" style=""width:200px; border:14px solid green;"">","null","","","","","","","","","",""
"","image-keyboard-response","321","134759","0.0-410.0","3W8CV64QJ3L4LLBKWJUWOVPLSEO9H3","A2T8U68Y44GPVD","3P7RGTLO6EZ76AO3386R8ZK9IWWKAW","","23","img/food3.png","76","24","3","1","","2","1","1,0.5,0,1,0.5,0,0.5,0,1","0,1,0.5,0,1,0.5,1,0.5,0","3",""
"","html-keyboard-response","322","135061","0.0-411.0","3W8CV64QJ3L4LLBKWJUWOVPLSEO9H3","A2T8U68Y44GPVD","3P7RGTLO6EZ76AO3386R8ZK9IWWKAW","","null","<img src=""img/food3.png"" style=""width:200px; border:14px solid green;"">","null","","","","","","","","","",""
"","image-keyboard-response","323","135199","0.0-412.0","3W8CV64QJ3L4LLBKWJUWOVPLSEO9H3","A2T8U68Y44GPVD","3P7RGTLO6EZ76AO3386R8ZK9IWWKAW","","137","img/food1.png","75","138","2","1","","1","1","1,0.5,0,1,0.5,0,0.5,0,1","0,1,0.5,0,1,0.5,1,0.5,0","3",""
"","html-keyboard-response","324","135500","0.0-413.0","3W8CV64QJ3L4LLBKWJUWOVPLSEO9H3","A2T8U68Y44GPVD","3P7RGTLO6EZ76AO3386R8ZK9IWWKAW","","null","<img src=""img/food1.png"" style=""width:200px; border:14px solid green;"">","null","","","","","","","","","",""
"","image-keyboard-response","325","135605","0.0-414.0","3W8CV64QJ3L4LLBKWJUWOVPLSEO9H3","A2T8U68Y44GPVD","3P7RGTLO6EZ76AO3386R8ZK9IWWKAW","","105","img/food5.png","75","105","2","1","","3","1","1,0.5,0,1,0.5,0,0.5,0,1","0,1,0.5,0,1,0.5,1,0.5,0","3",""
"","html-keyboard-response","326","135906","0.0-415.0","3W8CV64QJ3L4LLBKWJUWOVPLSEO9H3","A2T8U68Y44GPVD","3P7RGTLO6EZ76AO3386R8ZK9IWWKAW","","null","<img src=""img/food5.png"" style=""width:200px; border:14px solid green;"">","null","","","","","","","","","",""
"","image-keyboard-response","327","136102","0.0-416.0","3W8CV64QJ3L4LLBKWJUWOVPLSEO9H3","A2T8U68Y44GPVD","3P7RGTLO6EZ76AO3386R8ZK9IWWKAW","","194","img/food5.png","74","196","1","1","","3","1","1,0.5,0,1,0.5,0,0.5,0,1","0,1,0.5,0,1,0.5,1,0.5,0","3",""
"","html-keyboard-response","328","136436","0.0-417.0","3W8CV64QJ3L4LLBKWJUWOVPLSEO9H3","A2T8U68Y44GPVD","3P7RGTLO6EZ76AO3386R8ZK9IWWKAW","","null","<img src=""img/food5.png"" style=""width:200px; border:14px solid green;"">","null","","","","","","","","","",""
"","image-keyboard-response","329","136539","0.0-418.0","3W8CV64QJ3L4LLBKWJUWOVPLSEO9H3","A2T8U68Y44GPVD","3P7RGTLO6EZ76AO3386R8ZK9IWWKAW","","102","img/food3.png","74","102","1","0","","2","1","1,0.5,0,1,0.5,0,0.5,0,1","0,1,0.5,0,1,0.5,1,0.5,0","3",""
"","html-keyboard-response","330","136844","0.0-419.0","3W8CV64QJ3L4LLBKWJUWOVPLSEO9H3","A2T8U68Y44GPVD","3P7RGTLO6EZ76AO3386R8ZK9IWWKAW","","null","<img src=""img/food3.png"" style=""width:200px;border:14px solid red;"">","null","","","","","","","","","",""
"","image-keyboard-response","331","136982","0.0-420.0","3W8CV64QJ3L4LLBKWJUWOVPLSEO9H3","A2T8U68Y44GPVD","3P7RGTLO6EZ76AO3386R8ZK9IWWKAW","","137","img/food1.png","74","138","1","0","","1","1","1,0.5,0,1,0.5,0,0.5,0,1","0,1,0.5,0,1,0.5,1,0.5,0","3",""
"","html-keyboard-response","332","137318","0.0-421.0","3W8CV64QJ3L4LLBKWJUWOVPLSEO9H3","A2T8U68Y44GPVD","3P7RGTLO6EZ76AO3386R8ZK9IWWKAW","","null","<img src=""img/food1.png"" style=""width:200px;border:14px solid red;"">","null","","","","","","","","","",""
"","image-keyboard-response","333","137334","0.0-422.0","3W8CV64QJ3L4LLBKWJUWOVPLSEO9H3","A2T8U68Y44GPVD","3P7RGTLO6EZ76AO3386R8ZK9IWWKAW","","16","img/food1.png","74","16","1","0","","1","1","1,0.5,0,1,0.5,0,0.5,0,1","0,1,0.5,0,1,0.5,1,0.5,0","3",""
"","html-keyboard-response","334","137636","0.0-423.0","3W8CV64QJ3L4LLBKWJUWOVPLSEO9H3","A2T8U68Y44GPVD","3P7RGTLO6EZ76AO3386R8ZK9IWWKAW","","null","<img src=""img/food1.png"" style=""width:200px;border:14px solid red;"">","null","","","","","","","","","",""
"","image-keyboard-response","335","137686","0.0-424.0","3W8CV64QJ3L4LLBKWJUWOVPLSEO9H3","A2T8U68Y44GPVD","3P7RGTLO6EZ76AO3386R8ZK9IWWKAW","","49","img/food5.png","75","50","2","1","","3","1","1,0.5,0,1,0.5,0,0.5,0,1","0,1,0.5,0,1,0.5,1,0.5,0","3",""
"","html-keyboard-response","336","137988","0.0-425.0","3W8CV64QJ3L4LLBKWJUWOVPLSEO9H3","A2T8U68Y44GPVD","3P7RGTLO6EZ76AO3386R8ZK9IWWKAW","","null","<img src=""img/food5.png"" style=""width:200px; border:14px solid green;"">","null","","","","","","","","","",""
"","image-keyboard-response","337","138108","0.0-426.0","3W8CV64QJ3L4LLBKWJUWOVPLSEO9H3","A2T8U68Y44GPVD","3P7RGTLO6EZ76AO3386R8ZK9IWWKAW","","119","img/food1.png","74","120","1","0","","1","1","1,0.5,0,1,0.5,0,0.5,0,1","0,1,0.5,0,1,0.5,1,0.5,0","3",""
"","html-keyboard-response","338","138411","0.0-427.0","3W8CV64QJ3L4LLBKWJUWOVPLSEO9H3","A2T8U68Y44GPVD","3P7RGTLO6EZ76AO3386R8ZK9IWWKAW","","null","<img src=""img/food1.png"" style=""width:200px;border:14px solid red;"">","null","","","","","","","","","",""
"","image-keyboard-response","339","138510","0.0-428.0","3W8CV64QJ3L4LLBKWJUWOVPLSEO9H3","A2T8U68Y44GPVD","3P7RGTLO6EZ76AO3386R8ZK9IWWKAW","","98","img/food1.png","75","99","2","1","","1","1","1,0.5,0,1,0.5,0,0.5,0,1","0,1,0.5,0,1,0.5,1,0.5,0","3",""
"","html-keyboard-response","340","138832","0.0-429.0","3W8CV64QJ3L4LLBKWJUWOVPLSEO9H3","A2T8U68Y44GPVD","3P7RGTLO6EZ76AO3386R8ZK9IWWKAW","","null","<img src=""img/food1.png"" style=""width:200px; border:14px solid green;"">","null","","","","","","","","","",""
"","image-keyboard-response","341","139097","0.0-430.0","3W8CV64QJ3L4LLBKWJUWOVPLSEO9H3","A2T8U68Y44GPVD","3P7RGTLO6EZ76AO3386R8ZK9IWWKAW","","265","img/food3.png","76","265","3","0","","2","1","1,0.5,0,1,0.5,0,0.5,0,1","0,1,0.5,0,1,0.5,1,0.5,0","3",""
"","html-keyboard-response","342","139398","0.0-431.0","3W8CV64QJ3L4LLBKWJUWOVPLSEO9H3","A2T8U68Y44GPVD","3P7RGTLO6EZ76AO3386R8ZK9IWWKAW","","null","<img src=""img/food3.png"" style=""width:200px;border:14px solid red;"">","null","","","","","","","","","",""
"","image-keyboard-response","343","139542","0.0-432.0","3W8CV64QJ3L4LLBKWJUWOVPLSEO9H3","A2T8U68Y44GPVD","3P7RGTLO6EZ76AO3386R8ZK9IWWKAW","","143","img/food1.png","74","144","1","0","","1","1","1,0.5,0,1,0.5,0,0.5,0,1","0,1,0.5,0,1,0.5,1,0.5,0","3",""
"","html-keyboard-response","344","139844","0.0-433.0","3W8CV64QJ3L4LLBKWJUWOVPLSEO9H3","A2T8U68Y44GPVD","3P7RGTLO6EZ76AO3386R8ZK9IWWKAW","","null","<img src=""img/food1.png"" style=""width:200px;border:14px solid red;"">","null","","","","","","","","","",""
"","image-keyboard-response","345","140045","0.0-434.0","3W8CV64QJ3L4LLBKWJUWOVPLSEO9H3","A2T8U68Y44GPVD","3P7RGTLO6EZ76AO3386R8ZK9IWWKAW","","200","img/food5.png","75","202","2","1","","3","1","1,0.5,0,1,0.5,0,0.5,0,1","0,1,0.5,0,1,0.5,1,0.5,0","3",""
"","html-keyboard-response","346","140348","0.0-435.0","3W8CV64QJ3L4LLBKWJUWOVPLSEO9H3","A2T8U68Y44GPVD","3P7RGTLO6EZ76AO3386R8ZK9IWWKAW","","null","<img src=""img/food5.png"" style=""width:200px; border:14px solid green;"">","null","","","","","","","","","",""
"","image-keyboard-response","347","140454","0.0-436.0","3W8CV64QJ3L4LLBKWJUWOVPLSEO9H3","A2T8U68Y44GPVD","3P7RGTLO6EZ76AO3386R8ZK9IWWKAW","","105","img/food1.png","75","106","2","1","","1","1","1,0.5,0,1,0.5,0,0.5,0,1","0,1,0.5,0,1,0.5,1,0.5,0","3",""
"","html-keyboard-response","348","140756","0.0-437.0","3W8CV64QJ3L4LLBKWJUWOVPLSEO9H3","A2T8U68Y44GPVD","3P7RGTLO6EZ76AO3386R8ZK9IWWKAW","","null","<img src=""img/food1.png"" style=""width:200px; border:14px solid green;"">","null","","","","","","","","","",""
"","image-keyboard-response","349","140783","0.0-438.0","3W8CV64QJ3L4LLBKWJUWOVPLSEO9H3","A2T8U68Y44GPVD","3P7RGTLO6EZ76AO3386R8ZK9IWWKAW","","26","img/food5.png","76","27","3","0","","3","1","1,0.5,0,1,0.5,0,0.5,0,1","0,1,0.5,0,1,0.5,1,0.5,0","3",""
"","html-keyboard-response","350","141084","0.0-439.0","3W8CV64QJ3L4LLBKWJUWOVPLSEO9H3","A2T8U68Y44GPVD","3P7RGTLO6EZ76AO3386R8ZK9IWWKAW","","null","<img src=""img/food5.png"" style=""width:200px;border:14px solid red;"">","null","","","","","","","","","",""
"","image-keyboard-response","351","141094","0.0-440.0","3W8CV64QJ3L4LLBKWJUWOVPLSEO9H3","A2T8U68Y44GPVD","3P7RGTLO6EZ76AO3386R8ZK9IWWKAW","","8","img/food1.png","74","10","1","0","","1","1","1,0.5,0,1,0.5,0,0.5,0,1","0,1,0.5,0,1,0.5,1,0.5,0","3",""
"","html-keyboard-response","352","141395","0.0-441.0","3W8CV64QJ3L4LLBKWJUWOVPLSEO9H3","A2T8U68Y44GPVD","3P7RGTLO6EZ76AO3386R8ZK9IWWKAW","","null","<img src=""img/food1.png"" style=""width:200px;border:14px solid red;"">","null","","","","","","","","","",""
"","image-keyboard-response","353","141493","0.0-442.0","3W8CV64QJ3L4LLBKWJUWOVPLSEO9H3","A2T8U68Y44GPVD","3P7RGTLO6EZ76AO3386R8ZK9IWWKAW","","97","img/food5.png","74","98","1","1","","3","1","1,0.5,0,1,0.5,0,0.5,0,1","0,1,0.5,0,1,0.5,1,0.5,0","3",""
"","html-keyboard-response","354","141800","0.0-443.0","3W8CV64QJ3L4LLBKWJUWOVPLSEO9H3","A2T8U68Y44GPVD","3P7RGTLO6EZ76AO3386R8ZK9IWWKAW","","null","<img src=""img/food5.png"" style=""width:200px; border:14px solid green;"">","null","","","","","","","","","",""
"","image-keyboard-response","355","141934","0.0-444.0","3W8CV64QJ3L4LLBKWJUWOVPLSEO9H3","A2T8U68Y44GPVD","3P7RGTLO6EZ76AO3386R8ZK9IWWKAW","","134","img/food1.png","74","134","1","0","","1","1","1,0.5,0,1,0.5,0,0.5,0,1","0,1,0.5,0,1,0.5,1,0.5,0","3",""
"","html-keyboard-response","356","142235","0.0-445.0","3W8CV64QJ3L4LLBKWJUWOVPLSEO9H3","A2T8U68Y44GPVD","3P7RGTLO6EZ76AO3386R8ZK9IWWKAW","","null","<img src=""img/food1.png"" style=""width:200px;border:14px solid red;"">","null","","","","","","","","","",""
"","image-keyboard-response","357","142302","0.0-446.0","3W8CV64QJ3L4LLBKWJUWOVPLSEO9H3","A2T8U68Y44GPVD","3P7RGTLO6EZ76AO3386R8ZK9IWWKAW","","66","img/food5.png","76","67","3","0","","3","1","1,0.5,0,1,0.5,0,0.5,0,1","0,1,0.5,0,1,0.5,1,0.5,0","3",""
"","html-keyboard-response","358","142604","0.0-447.0","3W8CV64QJ3L4LLBKWJUWOVPLSEO9H3","A2T8U68Y44GPVD","3P7RGTLO6EZ76AO3386R8ZK9IWWKAW","","null","<img src=""img/food5.png"" style=""width:200px;border:14px solid red;"">","null","","","","","","","","","",""
"","image-keyboard-response","359","142896","0.0-448.0","3W8CV64QJ3L4LLBKWJUWOVPLSEO9H3","A2T8U68Y44GPVD","3P7RGTLO6EZ76AO3386R8ZK9IWWKAW","","292","img/food5.png","76","293","3","0","","3","1","1,0.5,0,1,0.5,0,0.5,0,1","0,1,0.5,0,1,0.5,1,0.5,0","3",""
"","html-keyboard-response","360","143198","0.0-449.0","3W8CV64QJ3L4LLBKWJUWOVPLSEO9H3","A2T8U68Y44GPVD","3P7RGTLO6EZ76AO3386R8ZK9IWWKAW","","null","<img src=""img/food5.png"" style=""width:200px;border:14px solid red;"">","null","","","","","","","","","",""
"","image-keyboard-response","361","144002","0.0-450.0","3W8CV64QJ3L4LLBKWJUWOVPLSEO9H3","A2T8U68Y44GPVD","3P7RGTLO6EZ76AO3386R8ZK9IWWKAW","","803","img/food3.png","74","804","1","0","","2","1","1,0.5,0,1,0.5,0,0.5,0,1","0,1,0.5,0,1,0.5,1,0.5,0","3",""
"","html-keyboard-response","362","144305","0.0-451.0","3W8CV64QJ3L4LLBKWJUWOVPLSEO9H3","A2T8U68Y44GPVD","3P7RGTLO6EZ76AO3386R8ZK9IWWKAW","","null","<img src=""img/food3.png"" style=""width:200px;border:14px solid red;"">","null","","","","","","","","","",""
"","image-keyboard-response","363","144349","0.0-452.0","3W8CV64QJ3L4LLBKWJUWOVPLSEO9H3","A2T8U68Y44GPVD","3P7RGTLO6EZ76AO3386R8ZK9IWWKAW","","42","img/food5.png","75","44","2","1","","3","1","1,0.5,0,1,0.5,0,0.5,0,1","0,1,0.5,0,1,0.5,1,0.5,0","3",""
"","html-keyboard-response","364","144695","0.0-453.0","3W8CV64QJ3L4LLBKWJUWOVPLSEO9H3","A2T8U68Y44GPVD","3P7RGTLO6EZ76AO3386R8ZK9IWWKAW","","null","<img src=""img/food5.png"" style=""width:200px; border:14px solid green;"">","null","","","","","","","","","",""
"","html-keyboard-response","365","146385","0.0-454.0","3W8CV64QJ3L4LLBKWJUWOVPLSEO9H3","A2T8U68Y44GPVD","3P7RGTLO6EZ76AO3386R8ZK9IWWKAW","","","","","","","","","","","","","",""
"","instructions","366","148788","0.0-455.0","3W8CV64QJ3L4LLBKWJUWOVPLSEO9H3","A2T8U68Y44GPVD","3P7RGTLO6EZ76AO3386R8ZK9IWWKAW","[{""page_index"":0,""viewing_time"":2402}]","2402","","","","","","","","","","","",""
"","survey-text","367","162842","0.0-456.0","3W8CV64QJ3L4LLBKWJUWOVPLSEO9H3","A2T8U68Y44GPVD","3P7RGTLO6EZ76AO3386R8ZK9IWWKAW","","14042","","","","","","","","","","","","{""Q0"":""A2T8U68Y44GPVD""}"
