"success","trial_type","trial_index","time_elapsed","internal_node_id","assignmentID","mturkID","hitID","view_history","rt","stimulus","key_press","reactionTime","a","r","s","reward_cond","responses"
"true","fullscreen","0","2355","0.0-0.0","3A1COHJ8NKH47GSARROIOZUA4TXH8F","A2TLN8489YGY81","3S829FDFT2NBOHQMM1CIOU0HZYXDXL","","","","","","","","","",""
"","instructions","1","19152","0.0-1.0","3A1COHJ8NKH47GSARROIOZUA4TXH8F","A2TLN8489YGY81","3S829FDFT2NBOHQMM1CIOU0HZYXDXL","[{""page_index"":0,""viewing_time"":5070.39999999851},{""page_index"":1,""viewing_time"":793.7000000029802},{""page_index"":2,""viewing_time"":178.19999999552965},{""page_index"":3,""viewing_time"":7280.70000000298},{""page_index"":4,""viewing_time"":1595.7999999970198},{""page_index"":5,""viewing_time"":1081.2000000029802},{""page_index"":6,""viewing_time"":794.8999999985099}]","16795.60000000149","","","","","","","",""
"","image-keyboard-response","2","20114","0.0-2.0","3A1COHJ8NKH47GSARROIOZUA4TXH8F","A2TLN8489YGY81","3S829FDFT2NBOHQMM1CIOU0HZYXDXL","","960.1999999955297","img/food1.png","74","961.1999999955297","1","0","3","0,0.5,0.8,0.5,0,0.8,0,0.5,0.8,0,0.8,0.5",""
"","html-keyboard-response","3","20415","0.0-3.0","3A1COHJ8NKH47GSARROIOZUA4TXH8F","A2TLN8489YGY81","3S829FDFT2NBOHQMM1CIOU0HZYXDXL","","null","<img src=""img/food1.png"" style=""width:200px;border:14px solid red;"">","null","","","","","",""
"","image-keyboard-response","4","22928","0.0-4.0","3A1COHJ8NKH47GSARROIOZUA4TXH8F","A2TLN8489YGY81","3S829FDFT2NBOHQMM1CIOU0HZYXDXL","","2511.6999999955297","img/food1.png","74","2512.6999999955297","1","0","3","0,0.5,0.8,0.5,0,0.8,0,0.5,0.8,0,0.8,0.5",""
"","html-keyboard-response","5","23233","0.0-5.0","3A1COHJ8NKH47GSARROIOZUA4TXH8F","A2TLN8489YGY81","3S829FDFT2NBOHQMM1CIOU0HZYXDXL","","null","<img src=""img/food1.png"" style=""width:200px;border:14px solid red;"">","null","","","","","",""
"","image-keyboard-response","6","24159","0.0-6.0","3A1COHJ8NKH47GSARROIOZUA4TXH8F","A2TLN8489YGY81","3S829FDFT2NBOHQMM1CIOU0HZYXDXL","","924.6000000014901","img/food3.png","76","925.3000000044703","3","1","1","0,0.5,0.8,0.5,0,0.8,0,0.5,0.8,0,0.8,0.5",""
"","html-keyboard-response","7","24470","0.0-7.0","3A1COHJ8NKH47GSARROIOZUA4TXH8F","A2TLN8489YGY81","3S829FDFT2NBOHQMM1CIOU0HZYXDXL","","null","<img src=""img/food3.png"" style=""width:200px; border:14px solid green;"">","null","","","","","",""
"","image-keyboard-response","8","25053","0.0-8.0","3A1COHJ8NKH47GSARROIOZUA4TXH8F","A2TLN8489YGY81","3S829FDFT2NBOHQMM1CIOU0HZYXDXL","","582.5","img/food3.png","76","583.3999999985099","3","0","1","0,0.5,0.8,0.5,0,0.8,0,0.5,0.8,0,0.8,0.5",""
"","html-keyboard-response","9","25359","0.0-9.0","3A1COHJ8NKH47GSARROIOZUA4TXH8F","A2TLN8489YGY81","3S829FDFT2NBOHQMM1CIOU0HZYXDXL","","null","<img src=""img/food3.png"" style=""width:200px;border:14px solid red;"">","null","","","","","",""
"","image-keyboard-response","10","27388","0.0-10.0","3A1COHJ8NKH47GSARROIOZUA4TXH8F","A2TLN8489YGY81","3S829FDFT2NBOHQMM1CIOU0HZYXDXL","","2027","img/food4.png","75","2027.8999999985099","2","0","2","0,0.5,0.8,0.5,0,0.8,0,0.5,0.8,0,0.8,0.5",""
"","html-keyboard-response","11","27691","0.0-11.0","3A1COHJ8NKH47GSARROIOZUA4TXH8F","A2TLN8489YGY81","3S829FDFT2NBOHQMM1CIOU0HZYXDXL","","null","<img src=""img/food4.png"" style=""width:200px;border:14px solid red;"">","null","","","","","",""
"","image-keyboard-response","12","30526","0.0-12.0","3A1COHJ8NKH47GSARROIOZUA4TXH8F","A2TLN8489YGY81","3S829FDFT2NBOHQMM1CIOU0HZYXDXL","","2833.3000000044703","img/food4.png","74","2834.2000000029802","1","0","2","0,0.5,0.8,0.5,0,0.8,0,0.5,0.8,0,0.8,0.5",""
"","html-keyboard-response","13","30829","0.0-13.0","3A1COHJ8NKH47GSARROIOZUA4TXH8F","A2TLN8489YGY81","3S829FDFT2NBOHQMM1CIOU0HZYXDXL","","null","<img src=""img/food4.png"" style=""width:200px;border:14px solid red;"">","null","","","","","",""
"","image-keyboard-response","14","31492","0.0-14.0","3A1COHJ8NKH47GSARROIOZUA4TXH8F","A2TLN8489YGY81","3S829FDFT2NBOHQMM1CIOU0HZYXDXL","","662","img/food4.png","76","662.8000000044703","3","1","2","0,0.5,0.8,0.5,0,0.8,0,0.5,0.8,0,0.8,0.5",""
"","html-keyboard-response","15","31794","0.0-15.0","3A1COHJ8NKH47GSARROIOZUA4TXH8F","A2TLN8489YGY81","3S829FDFT2NBOHQMM1CIOU0HZYXDXL","","null","<img src=""img/food4.png"" style=""width:200px; border:14px solid green;"">","null","","","","","",""
"","image-keyboard-response","16","32668","0.0-16.0","3A1COHJ8NKH47GSARROIOZUA4TXH8F","A2TLN8489YGY81","3S829FDFT2NBOHQMM1CIOU0HZYXDXL","","873.3999999985099","img/food3.png","76","874.1000000014901","3","1","1","0,0.5,0.8,0.5,0,0.8,0,0.5,0.8,0,0.8,0.5",""
"","html-keyboard-response","17","32969","0.0-17.0","3A1COHJ8NKH47GSARROIOZUA4TXH8F","A2TLN8489YGY81","3S829FDFT2NBOHQMM1CIOU0HZYXDXL","","null","<img src=""img/food3.png"" style=""width:200px; border:14px solid green;"">","null","","","","","",""
"","image-keyboard-response","18","33720","0.0-18.0","3A1COHJ8NKH47GSARROIOZUA4TXH8F","A2TLN8489YGY81","3S829FDFT2NBOHQMM1CIOU0HZYXDXL","","749.8000000044703","img/food4.png","76","750.7000000029802","3","1","2","0,0.5,0.8,0.5,0,0.8,0,0.5,0.8,0,0.8,0.5",""
"","html-keyboard-response","19","34023","0.0-19.0","3A1COHJ8NKH47GSARROIOZUA4TXH8F","A2TLN8489YGY81","3S829FDFT2NBOHQMM1CIOU0HZYXDXL","","null","<img src=""img/food4.png"" style=""width:200px; border:14px solid green;"">","null","","","","","",""
"","image-keyboard-response","20","34698","0.0-20.0","3A1COHJ8NKH47GSARROIOZUA4TXH8F","A2TLN8489YGY81","3S829FDFT2NBOHQMM1CIOU0HZYXDXL","","674","img/food3.png","76","675","3","1","1","0,0.5,0.8,0.5,0,0.8,0,0.5,0.8,0,0.8,0.5",""
"","html-keyboard-response","21","35000","0.0-21.0","3A1COHJ8NKH47GSARROIOZUA4TXH8F","A2TLN8489YGY81","3S829FDFT2NBOHQMM1CIOU0HZYXDXL","","null","<img src=""img/food3.png"" style=""width:200px; border:14px solid green;"">","null","","","","","",""
"","image-keyboard-response","22","35725","0.0-22.0","3A1COHJ8NKH47GSARROIOZUA4TXH8F","A2TLN8489YGY81","3S829FDFT2NBOHQMM1CIOU0HZYXDXL","","724.2000000029802","img/food4.png","76","724.8999999985099","3","1","2","0,0.5,0.8,0.5,0,0.8,0,0.5,0.8,0,0.8,0.5",""
"","html-keyboard-response","23","36028","0.0-23.0","3A1COHJ8NKH47GSARROIOZUA4TXH8F","A2TLN8489YGY81","3S829FDFT2NBOHQMM1CIOU0HZYXDXL","","null","<img src=""img/food4.png"" style=""width:200px; border:14px solid green;"">","null","","","","","",""
"","image-keyboard-response","24","36673","0.0-24.0","3A1COHJ8NKH47GSARROIOZUA4TXH8F","A2TLN8489YGY81","3S829FDFT2NBOHQMM1CIOU0HZYXDXL","","644.1999999955297","img/food4.png","76","645.2000000029802","3","0","2","0,0.5,0.8,0.5,0,0.8,0,0.5,0.8,0,0.8,0.5",""
"","html-keyboard-response","25","36975","0.0-25.0","3A1COHJ8NKH47GSARROIOZUA4TXH8F","A2TLN8489YGY81","3S829FDFT2NBOHQMM1CIOU0HZYXDXL","","null","<img src=""img/food4.png"" style=""width:200px;border:14px solid red;"">","null","","","","","",""
"","image-keyboard-response","26","38227","0.0-26.0","3A1COHJ8NKH47GSARROIOZUA4TXH8F","A2TLN8489YGY81","3S829FDFT2NBOHQMM1CIOU0HZYXDXL","","1251.2999999970198","img/food1.png","75","1252.2000000029802","2","0","3","0,0.5,0.8,0.5,0,0.8,0,0.5,0.8,0,0.8,0.5",""
"","html-keyboard-response","27","38529","0.0-27.0","3A1COHJ8NKH47GSARROIOZUA4TXH8F","A2TLN8489YGY81","3S829FDFT2NBOHQMM1CIOU0HZYXDXL","","null","<img src=""img/food1.png"" style=""width:200px;border:14px solid red;"">","null","","","","","",""
"","image-keyboard-response","28","39134","0.0-28.0","3A1COHJ8NKH47GSARROIOZUA4TXH8F","A2TLN8489YGY81","3S829FDFT2NBOHQMM1CIOU0HZYXDXL","","603.3999999985099","img/food1.png","74","604.2999999970198","1","0","3","0,0.5,0.8,0.5,0,0.8,0,0.5,0.8,0,0.8,0.5",""
"","html-keyboard-response","29","39435","0.0-29.0","3A1COHJ8NKH47GSARROIOZUA4TXH8F","A2TLN8489YGY81","3S829FDFT2NBOHQMM1CIOU0HZYXDXL","","null","<img src=""img/food1.png"" style=""width:200px;border:14px solid red;"">","null","","","","","",""
"","image-keyboard-response","30","40310","0.0-30.0","3A1COHJ8NKH47GSARROIOZUA4TXH8F","A2TLN8489YGY81","3S829FDFT2NBOHQMM1CIOU0HZYXDXL","","873.8999999985099","img/food3.png","76","874.7000000029802","3","1","1","0,0.5,0.8,0.5,0,0.8,0,0.5,0.8,0,0.8,0.5",""
"","html-keyboard-response","31","40612","0.0-31.0","3A1COHJ8NKH47GSARROIOZUA4TXH8F","A2TLN8489YGY81","3S829FDFT2NBOHQMM1CIOU0HZYXDXL","","null","<img src=""img/food3.png"" style=""width:200px; border:14px solid green;"">","null","","","","","",""
"","image-keyboard-response","32","41018","0.0-32.0","3A1COHJ8NKH47GSARROIOZUA4TXH8F","A2TLN8489YGY81","3S829FDFT2NBOHQMM1CIOU0HZYXDXL","","405.29999999701977","img/food3.png","76","406.19999999552965","3","1","1","0,0.5,0.8,0.5,0,0.8,0,0.5,0.8,0,0.8,0.5",""
"","html-keyboard-response","33","41321","0.0-33.0","3A1COHJ8NKH47GSARROIOZUA4TXH8F","A2TLN8489YGY81","3S829FDFT2NBOHQMM1CIOU0HZYXDXL","","null","<img src=""img/food3.png"" style=""width:200px; border:14px solid green;"">","null","","","","","",""
"","image-keyboard-response","34","41945","0.0-34.0","3A1COHJ8NKH47GSARROIOZUA4TXH8F","A2TLN8489YGY81","3S829FDFT2NBOHQMM1CIOU0HZYXDXL","","623.9000000059605","img/food1.png","76","624.6000000014901","3","1","3","0,0.5,0.8,0.5,0,0.8,0,0.5,0.8,0,0.8,0.5",""
"","html-keyboard-response","35","42247","0.0-35.0","3A1COHJ8NKH47GSARROIOZUA4TXH8F","A2TLN8489YGY81","3S829FDFT2NBOHQMM1CIOU0HZYXDXL","","null","<img src=""img/food1.png"" style=""width:200px; border:14px solid green;"">","null","","","","","",""
"","image-keyboard-response","36","42865","0.0-36.0","3A1COHJ8NKH47GSARROIOZUA4TXH8F","A2TLN8489YGY81","3S829FDFT2NBOHQMM1CIOU0HZYXDXL","","616.5","img/food4.png","76","617.1999999955297","3","0","2","0,0.5,0.8,0.5,0,0.8,0,0.5,0.8,0,0.8,0.5",""
"","html-keyboard-response","37","43167","0.0-37.0","3A1COHJ8NKH47GSARROIOZUA4TXH8F","A2TLN8489YGY81","3S829FDFT2NBOHQMM1CIOU0HZYXDXL","","null","<img src=""img/food4.png"" style=""width:200px;border:14px solid red;"">","null","","","","","",""
"","image-keyboard-response","38","44050","0.0-38.0","3A1COHJ8NKH47GSARROIOZUA4TXH8F","A2TLN8489YGY81","3S829FDFT2NBOHQMM1CIOU0HZYXDXL","","881.7999999970198","img/food4.png","76","882.7999999970198","3","1","2","0,0.5,0.8,0.5,0,0.8,0,0.5,0.8,0,0.8,0.5",""
"","html-keyboard-response","39","44351","0.0-39.0","3A1COHJ8NKH47GSARROIOZUA4TXH8F","A2TLN8489YGY81","3S829FDFT2NBOHQMM1CIOU0HZYXDXL","","null","<img src=""img/food4.png"" style=""width:200px; border:14px solid green;"">","null","","","","","",""
"","image-keyboard-response","40","44936","0.0-40.0","3A1COHJ8NKH47GSARROIOZUA4TXH8F","A2TLN8489YGY81","3S829FDFT2NBOHQMM1CIOU0HZYXDXL","","583.5999999940395","img/food3.png","76","584.3999999985099","3","1","1","0,0.5,0.8,0.5,0,0.8,0,0.5,0.8,0,0.8,0.5",""
"","html-keyboard-response","41","45249","0.0-41.0","3A1COHJ8NKH47GSARROIOZUA4TXH8F","A2TLN8489YGY81","3S829FDFT2NBOHQMM1CIOU0HZYXDXL","","null","<img src=""img/food3.png"" style=""width:200px; border:14px solid green;"">","null","","","","","",""
"","image-keyboard-response","42","45764","0.0-42.0","3A1COHJ8NKH47GSARROIOZUA4TXH8F","A2TLN8489YGY81","3S829FDFT2NBOHQMM1CIOU0HZYXDXL","","513.6999999955297","img/food4.png","76","514.5","3","1","2","0,0.5,0.8,0.5,0,0.8,0,0.5,0.8,0,0.8,0.5",""
"","html-keyboard-response","43","46066","0.0-43.0","3A1COHJ8NKH47GSARROIOZUA4TXH8F","A2TLN8489YGY81","3S829FDFT2NBOHQMM1CIOU0HZYXDXL","","null","<img src=""img/food4.png"" style=""width:200px; border:14px solid green;"">","null","","","","","",""
"","image-keyboard-response","44","46716","0.0-44.0","3A1COHJ8NKH47GSARROIOZUA4TXH8F","A2TLN8489YGY81","3S829FDFT2NBOHQMM1CIOU0HZYXDXL","","649.6000000014901","img/food3.png","76","650.3999999985099","3","1","1","0,0.5,0.8,0.5,0,0.8,0,0.5,0.8,0,0.8,0.5",""
"","html-keyboard-response","45","47018","0.0-45.0","3A1COHJ8NKH47GSARROIOZUA4TXH8F","A2TLN8489YGY81","3S829FDFT2NBOHQMM1CIOU0HZYXDXL","","null","<img src=""img/food3.png"" style=""width:200px; border:14px solid green;"">","null","","","","","",""
"","image-keyboard-response","46","47507","0.0-46.0","3A1COHJ8NKH47GSARROIOZUA4TXH8F","A2TLN8489YGY81","3S829FDFT2NBOHQMM1CIOU0HZYXDXL","","488.8999999985099","img/food4.png","76","489.6000000014901","3","1","2","0,0.5,0.8,0.5,0,0.8,0,0.5,0.8,0,0.8,0.5",""
"","html-keyboard-response","47","47809","0.0-47.0","3A1COHJ8NKH47GSARROIOZUA4TXH8F","A2TLN8489YGY81","3S829FDFT2NBOHQMM1CIOU0HZYXDXL","","null","<img src=""img/food4.png"" style=""width:200px; border:14px solid green;"">","null","","","","","",""
"","image-keyboard-response","48","48174","0.0-48.0","3A1COHJ8NKH47GSARROIOZUA4TXH8F","A2TLN8489YGY81","3S829FDFT2NBOHQMM1CIOU0HZYXDXL","","363.70000000298023","img/food1.png","76","364.5","3","1","3","0,0.5,0.8,0.5,0,0.8,0,0.5,0.8,0,0.8,0.5",""
"","html-keyboard-response","49","48475","0.0-49.0","3A1COHJ8NKH47GSARROIOZUA4TXH8F","A2TLN8489YGY81","3S829FDFT2NBOHQMM1CIOU0HZYXDXL","","null","<img src=""img/food1.png"" style=""width:200px; border:14px solid green;"">","null","","","","","",""
"","image-keyboard-response","50","48961","0.0-50.0","3A1COHJ8NKH47GSARROIOZUA4TXH8F","A2TLN8489YGY81","3S829FDFT2NBOHQMM1CIOU0HZYXDXL","","484.20000000298023","img/food3.png","76","485.09999999403954","3","1","1","0,0.5,0.8,0.5,0,0.8,0,0.5,0.8,0,0.8,0.5",""
"","html-keyboard-response","51","49262","0.0-51.0","3A1COHJ8NKH47GSARROIOZUA4TXH8F","A2TLN8489YGY81","3S829FDFT2NBOHQMM1CIOU0HZYXDXL","","null","<img src=""img/food3.png"" style=""width:200px; border:14px solid green;"">","null","","","","","",""
"","image-keyboard-response","52","49751","0.0-52.0","3A1COHJ8NKH47GSARROIOZUA4TXH8F","A2TLN8489YGY81","3S829FDFT2NBOHQMM1CIOU0HZYXDXL","","487.70000000298023","img/food4.png","76","488.69999999552965","3","1","2","0,0.5,0.8,0.5,0,0.8,0,0.5,0.8,0,0.8,0.5",""
"","html-keyboard-response","53","50052","0.0-53.0","3A1COHJ8NKH47GSARROIOZUA4TXH8F","A2TLN8489YGY81","3S829FDFT2NBOHQMM1CIOU0HZYXDXL","","null","<img src=""img/food4.png"" style=""width:200px; border:14px solid green;"">","null","","","","","",""
"","image-keyboard-response","54","50388","0.0-54.0","3A1COHJ8NKH47GSARROIOZUA4TXH8F","A2TLN8489YGY81","3S829FDFT2NBOHQMM1CIOU0HZYXDXL","","335","img/food1.png","76","335.70000000298023","3","1","3","0,0.5,0.8,0.5,0,0.8,0,0.5,0.8,0,0.8,0.5",""
"","html-keyboard-response","55","50690","0.0-55.0","3A1COHJ8NKH47GSARROIOZUA4TXH8F","A2TLN8489YGY81","3S829FDFT2NBOHQMM1CIOU0HZYXDXL","","null","<img src=""img/food1.png"" style=""width:200px; border:14px solid green;"">","null","","","","","",""
"","image-keyboard-response","56","51084","0.0-56.0","3A1COHJ8NKH47GSARROIOZUA4TXH8F","A2TLN8489YGY81","3S829FDFT2NBOHQMM1CIOU0HZYXDXL","","392.90000000596046","img/food1.png","76","393.79999999701977","3","1","3","0,0.5,0.8,0.5,0,0.8,0,0.5,0.8,0,0.8,0.5",""
"","html-keyboard-response","57","51386","0.0-57.0","3A1COHJ8NKH47GSARROIOZUA4TXH8F","A2TLN8489YGY81","3S829FDFT2NBOHQMM1CIOU0HZYXDXL","","null","<img src=""img/food1.png"" style=""width:200px; border:14px solid green;"">","null","","","","","",""
"","image-keyboard-response","58","51713","0.0-58.0","3A1COHJ8NKH47GSARROIOZUA4TXH8F","A2TLN8489YGY81","3S829FDFT2NBOHQMM1CIOU0HZYXDXL","","326.30000000447035","img/food4.png","76","327.1000000014901","3","0","2","0,0.5,0.8,0.5,0,0.8,0,0.5,0.8,0,0.8,0.5",""
"","html-keyboard-response","59","52015","0.0-59.0","3A1COHJ8NKH47GSARROIOZUA4TXH8F","A2TLN8489YGY81","3S829FDFT2NBOHQMM1CIOU0HZYXDXL","","null","<img src=""img/food4.png"" style=""width:200px;border:14px solid red;"">","null","","","","","",""
"","image-keyboard-response","60","52512","0.0-60.0","3A1COHJ8NKH47GSARROIOZUA4TXH8F","A2TLN8489YGY81","3S829FDFT2NBOHQMM1CIOU0HZYXDXL","","495.59999999403954","img/food4.png","76","496.5","3","0","2","0,0.5,0.8,0.5,0,0.8,0,0.5,0.8,0,0.8,0.5",""
"","html-keyboard-response","61","52814","0.0-61.0","3A1COHJ8NKH47GSARROIOZUA4TXH8F","A2TLN8489YGY81","3S829FDFT2NBOHQMM1CIOU0HZYXDXL","","null","<img src=""img/food4.png"" style=""width:200px;border:14px solid red;"">","null","","","","","",""
"","image-keyboard-response","62","53394","0.0-62.0","3A1COHJ8NKH47GSARROIOZUA4TXH8F","A2TLN8489YGY81","3S829FDFT2NBOHQMM1CIOU0HZYXDXL","","578.6999999955297","img/food4.png","76","579.3999999985099","3","1","2","0,0.5,0.8,0.5,0,0.8,0,0.5,0.8,0,0.8,0.5",""
"","html-keyboard-response","63","53695","0.0-63.0","3A1COHJ8NKH47GSARROIOZUA4TXH8F","A2TLN8489YGY81","3S829FDFT2NBOHQMM1CIOU0HZYXDXL","","null","<img src=""img/food4.png"" style=""width:200px; border:14px solid green;"">","null","","","","","",""
"","image-keyboard-response","64","54185","0.0-64.0","3A1COHJ8NKH47GSARROIOZUA4TXH8F","A2TLN8489YGY81","3S829FDFT2NBOHQMM1CIOU0HZYXDXL","","488.79999999701977","img/food3.png","76","489.79999999701977","3","1","1","0,0.5,0.8,0.5,0,0.8,0,0.5,0.8,0,0.8,0.5",""
"","html-keyboard-response","65","54486","0.0-65.0","3A1COHJ8NKH47GSARROIOZUA4TXH8F","A2TLN8489YGY81","3S829FDFT2NBOHQMM1CIOU0HZYXDXL","","null","<img src=""img/food3.png"" style=""width:200px; border:14px solid green;"">","null","","","","","",""
"","image-keyboard-response","66","54917","0.0-66.0","3A1COHJ8NKH47GSARROIOZUA4TXH8F","A2TLN8489YGY81","3S829FDFT2NBOHQMM1CIOU0HZYXDXL","","430.1000000014901","img/food4.png","76","430.80000000447035","3","1","2","0,0.5,0.8,0.5,0,0.8,0,0.5,0.8,0,0.8,0.5",""
"","html-keyboard-response","67","55227","0.0-67.0","3A1COHJ8NKH47GSARROIOZUA4TXH8F","A2TLN8489YGY81","3S829FDFT2NBOHQMM1CIOU0HZYXDXL","","null","<img src=""img/food4.png"" style=""width:200px; border:14px solid green;"">","null","","","","","",""
"","image-keyboard-response","68","55534","0.0-68.0","3A1COHJ8NKH47GSARROIOZUA4TXH8F","A2TLN8489YGY81","3S829FDFT2NBOHQMM1CIOU0HZYXDXL","","306.5","img/food4.png","76","307.19999999552965","3","1","2","0,0.5,0.8,0.5,0,0.8,0,0.5,0.8,0,0.8,0.5",""
"","html-keyboard-response","69","55836","0.0-69.0","3A1COHJ8NKH47GSARROIOZUA4TXH8F","A2TLN8489YGY81","3S829FDFT2NBOHQMM1CIOU0HZYXDXL","","null","<img src=""img/food4.png"" style=""width:200px; border:14px solid green;"">","null","","","","","",""
"","image-keyboard-response","70","56159","0.0-70.0","3A1COHJ8NKH47GSARROIOZUA4TXH8F","A2TLN8489YGY81","3S829FDFT2NBOHQMM1CIOU0HZYXDXL","","322","img/food1.png","76","322.80000000447035","3","0","3","0,0.5,0.8,0.5,0,0.8,0,0.5,0.8,0,0.8,0.5",""
"","html-keyboard-response","71","56460","0.0-71.0","3A1COHJ8NKH47GSARROIOZUA4TXH8F","A2TLN8489YGY81","3S829FDFT2NBOHQMM1CIOU0HZYXDXL","","null","<img src=""img/food1.png"" style=""width:200px;border:14px solid red;"">","null","","","","","",""
"","image-keyboard-response","72","56966","0.0-72.0","3A1COHJ8NKH47GSARROIOZUA4TXH8F","A2TLN8489YGY81","3S829FDFT2NBOHQMM1CIOU0HZYXDXL","","505","img/food3.png","76","505.79999999701977","3","1","1","0,0.5,0.8,0.5,0,0.8,0,0.5,0.8,0,0.8,0.5",""
"","html-keyboard-response","73","57268","0.0-73.0","3A1COHJ8NKH47GSARROIOZUA4TXH8F","A2TLN8489YGY81","3S829FDFT2NBOHQMM1CIOU0HZYXDXL","","null","<img src=""img/food3.png"" style=""width:200px; border:14px solid green;"">","null","","","","","",""
"","image-keyboard-response","74","57728","0.0-74.0","3A1COHJ8NKH47GSARROIOZUA4TXH8F","A2TLN8489YGY81","3S829FDFT2NBOHQMM1CIOU0HZYXDXL","","459.29999999701977","img/food4.png","76","460","3","1","2","0,0.5,0.8,0.5,0,0.8,0,0.5,0.8,0,0.8,0.5",""
"","html-keyboard-response","75","58030","0.0-75.0","3A1COHJ8NKH47GSARROIOZUA4TXH8F","A2TLN8489YGY81","3S829FDFT2NBOHQMM1CIOU0HZYXDXL","","null","<img src=""img/food4.png"" style=""width:200px; border:14px solid green;"">","null","","","","","",""
"","image-keyboard-response","76","58423","0.0-76.0","3A1COHJ8NKH47GSARROIOZUA4TXH8F","A2TLN8489YGY81","3S829FDFT2NBOHQMM1CIOU0HZYXDXL","","392.6000000014901","img/food1.png","76","393.30000000447035","3","1","3","0,0.5,0.8,0.5,0,0.8,0,0.5,0.8,0,0.8,0.5",""
"","html-keyboard-response","77","58728","0.0-77.0","3A1COHJ8NKH47GSARROIOZUA4TXH8F","A2TLN8489YGY81","3S829FDFT2NBOHQMM1CIOU0HZYXDXL","","null","<img src=""img/food1.png"" style=""width:200px; border:14px solid green;"">","null","","","","","",""
"","image-keyboard-response","78","59057","0.0-78.0","3A1COHJ8NKH47GSARROIOZUA4TXH8F","A2TLN8489YGY81","3S829FDFT2NBOHQMM1CIOU0HZYXDXL","","326.5","img/food4.png","76","327.6000000014901","3","1","2","0,0.5,0.8,0.5,0,0.8,0,0.5,0.8,0,0.8,0.5",""
"","html-keyboard-response","79","59359","0.0-79.0","3A1COHJ8NKH47GSARROIOZUA4TXH8F","A2TLN8489YGY81","3S829FDFT2NBOHQMM1CIOU0HZYXDXL","","null","<img src=""img/food4.png"" style=""width:200px; border:14px solid green;"">","null","","","","","",""
"","image-keyboard-response","80","59686","0.0-80.0","3A1COHJ8NKH47GSARROIOZUA4TXH8F","A2TLN8489YGY81","3S829FDFT2NBOHQMM1CIOU0HZYXDXL","","325.79999999701977","img/food1.png","76","326.79999999701977","3","1","3","0,0.5,0.8,0.5,0,0.8,0,0.5,0.8,0,0.8,0.5",""
"","html-keyboard-response","81","59987","0.0-81.0","3A1COHJ8NKH47GSARROIOZUA4TXH8F","A2TLN8489YGY81","3S829FDFT2NBOHQMM1CIOU0HZYXDXL","","null","<img src=""img/food1.png"" style=""width:200px; border:14px solid green;"">","null","","","","","",""
"","image-keyboard-response","82","60290","0.0-82.0","3A1COHJ8NKH47GSARROIOZUA4TXH8F","A2TLN8489YGY81","3S829FDFT2NBOHQMM1CIOU0HZYXDXL","","301.59999999403954","img/food3.png","76","302.3999999985099","3","1","1","0,0.5,0.8,0.5,0,0.8,0,0.5,0.8,0,0.8,0.5",""
"","html-keyboard-response","83","60591","0.0-83.0","3A1COHJ8NKH47GSARROIOZUA4TXH8F","A2TLN8489YGY81","3S829FDFT2NBOHQMM1CIOU0HZYXDXL","","null","<img src=""img/food3.png"" style=""width:200px; border:14px solid green;"">","null","","","","","",""
"","image-keyboard-response","84","60865","0.0-84.0","3A1COHJ8NKH47GSARROIOZUA4TXH8F","A2TLN8489YGY81","3S829FDFT2NBOHQMM1CIOU0HZYXDXL","","272.59999999403954","img/food1.png","76","273.3999999985099","3","1","3","0,0.5,0.8,0.5,0,0.8,0,0.5,0.8,0,0.8,0.5",""
"","html-keyboard-response","85","61167","0.0-85.0","3A1COHJ8NKH47GSARROIOZUA4TXH8F","A2TLN8489YGY81","3S829FDFT2NBOHQMM1CIOU0HZYXDXL","","null","<img src=""img/food1.png"" style=""width:200px; border:14px solid green;"">","null","","","","","",""
"","image-keyboard-response","86","61506","0.0-86.0","3A1COHJ8NKH47GSARROIOZUA4TXH8F","A2TLN8489YGY81","3S829FDFT2NBOHQMM1CIOU0HZYXDXL","","338","img/food4.png","76","338.79999999701977","3","1","2","0,0.5,0.8,0.5,0,0.8,0,0.5,0.8,0,0.8,0.5",""
"","html-keyboard-response","87","61808","0.0-87.0","3A1COHJ8NKH47GSARROIOZUA4TXH8F","A2TLN8489YGY81","3S829FDFT2NBOHQMM1CIOU0HZYXDXL","","null","<img src=""img/food4.png"" style=""width:200px; border:14px solid green;"">","null","","","","","",""
"","image-keyboard-response","88","62114","0.0-88.0","3A1COHJ8NKH47GSARROIOZUA4TXH8F","A2TLN8489YGY81","3S829FDFT2NBOHQMM1CIOU0HZYXDXL","","305.3999999985099","img/food1.png","76","306.1000000014901","3","0","3","0,0.5,0.8,0.5,0,0.8,0,0.5,0.8,0,0.8,0.5",""
"","html-keyboard-response","89","62416","0.0-89.0","3A1COHJ8NKH47GSARROIOZUA4TXH8F","A2TLN8489YGY81","3S829FDFT2NBOHQMM1CIOU0HZYXDXL","","null","<img src=""img/food1.png"" style=""width:200px;border:14px solid red;"">","null","","","","","",""
"","image-keyboard-response","90","62686","0.0-90.0","3A1COHJ8NKH47GSARROIOZUA4TXH8F","A2TLN8489YGY81","3S829FDFT2NBOHQMM1CIOU0HZYXDXL","","268.6000000014901","img/food4.png","76","269.29999999701977","3","1","2","0,0.5,0.8,0.5,0,0.8,0,0.5,0.8,0,0.8,0.5",""
"","html-keyboard-response","91","62992","0.0-91.0","3A1COHJ8NKH47GSARROIOZUA4TXH8F","A2TLN8489YGY81","3S829FDFT2NBOHQMM1CIOU0HZYXDXL","","null","<img src=""img/food4.png"" style=""width:200px; border:14px solid green;"">","null","","","","","",""
"","image-keyboard-response","92","63286","0.0-92.0","3A1COHJ8NKH47GSARROIOZUA4TXH8F","A2TLN8489YGY81","3S829FDFT2NBOHQMM1CIOU0HZYXDXL","","292.80000000447035","img/food3.png","76","293.6000000014901","3","1","1","0,0.5,0.8,0.5,0,0.8,0,0.5,0.8,0,0.8,0.5",""
"","html-keyboard-response","93","63587","0.0-93.0","3A1COHJ8NKH47GSARROIOZUA4TXH8F","A2TLN8489YGY81","3S829FDFT2NBOHQMM1CIOU0HZYXDXL","","null","<img src=""img/food3.png"" style=""width:200px; border:14px solid green;"">","null","","","","","",""
"","image-keyboard-response","94","63894","0.0-94.0","3A1COHJ8NKH47GSARROIOZUA4TXH8F","A2TLN8489YGY81","3S829FDFT2NBOHQMM1CIOU0HZYXDXL","","306","img/food1.png","76","306.6000000014901","3","1","3","0,0.5,0.8,0.5,0,0.8,0,0.5,0.8,0,0.8,0.5",""
"","html-keyboard-response","95","64195","0.0-95.0","3A1COHJ8NKH47GSARROIOZUA4TXH8F","A2TLN8489YGY81","3S829FDFT2NBOHQMM1CIOU0HZYXDXL","","null","<img src=""img/food1.png"" style=""width:200px; border:14px solid green;"">","null","","","","","",""
"","image-keyboard-response","96","64356","0.0-96.0","3A1COHJ8NKH47GSARROIOZUA4TXH8F","A2TLN8489YGY81","3S829FDFT2NBOHQMM1CIOU0HZYXDXL","","159.5","img/food3.png","76","160.09999999403954","3","1","1","0,0.5,0.8,0.5,0,0.8,0,0.5,0.8,0,0.8,0.5",""
"","html-keyboard-response","97","64658","0.0-97.0","3A1COHJ8NKH47GSARROIOZUA4TXH8F","A2TLN8489YGY81","3S829FDFT2NBOHQMM1CIOU0HZYXDXL","","null","<img src=""img/food3.png"" style=""width:200px; border:14px solid green;"">","null","","","","","",""
"","image-keyboard-response","98","64743","0.0-98.0","3A1COHJ8NKH47GSARROIOZUA4TXH8F","A2TLN8489YGY81","3S829FDFT2NBOHQMM1CIOU0HZYXDXL","","83.80000000447035","img/food1.png","76","84.5","3","1","3","0,0.5,0.8,0.5,0,0.8,0,0.5,0.8,0,0.8,0.5",""
"","html-keyboard-response","99","65045","0.0-99.0","3A1COHJ8NKH47GSARROIOZUA4TXH8F","A2TLN8489YGY81","3S829FDFT2NBOHQMM1CIOU0HZYXDXL","","null","<img src=""img/food1.png"" style=""width:200px; border:14px solid green;"">","null","","","","","",""
"","image-keyboard-response","100","65117","0.0-100.0","3A1COHJ8NKH47GSARROIOZUA4TXH8F","A2TLN8489YGY81","3S829FDFT2NBOHQMM1CIOU0HZYXDXL","","71.79999999701977","img/food4.png","76","72.39999999850988","3","1","2","0,0.5,0.8,0.5,0,0.8,0,0.5,0.8,0,0.8,0.5",""
"","html-keyboard-response","101","65419","0.0-101.0","3A1COHJ8NKH47GSARROIOZUA4TXH8F","A2TLN8489YGY81","3S829FDFT2NBOHQMM1CIOU0HZYXDXL","","null","<img src=""img/food4.png"" style=""width:200px; border:14px solid green;"">","null","","","","","",""
"","image-keyboard-response","102","65529","0.0-102.0","3A1COHJ8NKH47GSARROIOZUA4TXH8F","A2TLN8489YGY81","3S829FDFT2NBOHQMM1CIOU0HZYXDXL","","109.5","img/food1.png","76","110.20000000298023","3","1","3","0,0.5,0.8,0.5,0,0.8,0,0.5,0.8,0,0.8,0.5",""
"","html-keyboard-response","103","65831","0.0-103.0","3A1COHJ8NKH47GSARROIOZUA4TXH8F","A2TLN8489YGY81","3S829FDFT2NBOHQMM1CIOU0HZYXDXL","","null","<img src=""img/food1.png"" style=""width:200px; border:14px solid green;"">","null","","","","","",""
"","image-keyboard-response","104","65925","0.0-104.0","3A1COHJ8NKH47GSARROIOZUA4TXH8F","A2TLN8489YGY81","3S829FDFT2NBOHQMM1CIOU0HZYXDXL","","93.09999999403954","img/food3.png","76","93.89999999850988","3","1","1","0,0.5,0.8,0.5,0,0.8,0,0.5,0.8,0,0.8,0.5",""
"","html-keyboard-response","105","66227","0.0-105.0","3A1COHJ8NKH47GSARROIOZUA4TXH8F","A2TLN8489YGY81","3S829FDFT2NBOHQMM1CIOU0HZYXDXL","","null","<img src=""img/food3.png"" style=""width:200px; border:14px solid green;"">","null","","","","","",""
"","image-keyboard-response","106","66324","0.0-106.0","3A1COHJ8NKH47GSARROIOZUA4TXH8F","A2TLN8489YGY81","3S829FDFT2NBOHQMM1CIOU0HZYXDXL","","96","img/food3.png","76","96.80000000447035","3","1","1","0,0.5,0.8,0.5,0,0.8,0,0.5,0.8,0,0.8,0.5",""
"","html-keyboard-response","107","66627","0.0-107.0","3A1COHJ8NKH47GSARROIOZUA4TXH8F","A2TLN8489YGY81","3S829FDFT2NBOHQMM1CIOU0HZYXDXL","","null","<img src=""img/food3.png"" style=""width:200px; border:14px solid green;"">","null","","","","","",""
"","image-keyboard-response","108","66666","0.0-108.0","3A1COHJ8NKH47GSARROIOZUA4TXH8F","A2TLN8489YGY81","3S829FDFT2NBOHQMM1CIOU0HZYXDXL","","38.100000001490116","img/food1.png","76","38.80000000447035","3","0","3","0,0.5,0.8,0.5,0,0.8,0,0.5,0.8,0,0.8,0.5",""
"","html-keyboard-response","109","66967","0.0-109.0","3A1COHJ8NKH47GSARROIOZUA4TXH8F","A2TLN8489YGY81","3S829FDFT2NBOHQMM1CIOU0HZYXDXL","","null","<img src=""img/food1.png"" style=""width:200px;border:14px solid red;"">","null","","","","","",""
"","image-keyboard-response","110","66999","0.0-110.0","3A1COHJ8NKH47GSARROIOZUA4TXH8F","A2TLN8489YGY81","3S829FDFT2NBOHQMM1CIOU0HZYXDXL","","30.399999998509884","img/food4.png","76","31","3","0","2","0,0.5,0.8,0.5,0,0.8,0,0.5,0.8,0,0.8,0.5",""
"","html-keyboard-response","111","67300","0.0-111.0","3A1COHJ8NKH47GSARROIOZUA4TXH8F","A2TLN8489YGY81","3S829FDFT2NBOHQMM1CIOU0HZYXDXL","","null","<img src=""img/food4.png"" style=""width:200px;border:14px solid red;"">","null","","","","","",""
"","image-keyboard-response","112","67315","0.0-112.0","3A1COHJ8NKH47GSARROIOZUA4TXH8F","A2TLN8489YGY81","3S829FDFT2NBOHQMM1CIOU0HZYXDXL","","14","img/food1.png","76","14.700000002980232","3","1","3","0,0.5,0.8,0.5,0,0.8,0,0.5,0.8,0,0.8,0.5",""
"","html-keyboard-response","113","67617","0.0-113.0","3A1COHJ8NKH47GSARROIOZUA4TXH8F","A2TLN8489YGY81","3S829FDFT2NBOHQMM1CIOU0HZYXDXL","","null","<img src=""img/food1.png"" style=""width:200px; border:14px solid green;"">","null","","","","","",""
"","image-keyboard-response","114","67669","0.0-114.0","3A1COHJ8NKH47GSARROIOZUA4TXH8F","A2TLN8489YGY81","3S829FDFT2NBOHQMM1CIOU0HZYXDXL","","50.899999998509884","img/food3.png","76","51.79999999701977","3","1","1","0,0.5,0.8,0.5,0,0.8,0,0.5,0.8,0,0.8,0.5",""
"","html-keyboard-response","115","67970","0.0-115.0","3A1COHJ8NKH47GSARROIOZUA4TXH8F","A2TLN8489YGY81","3S829FDFT2NBOHQMM1CIOU0HZYXDXL","","null","<img src=""img/food3.png"" style=""width:200px; border:14px solid green;"">","null","","","","","",""
"","image-keyboard-response","116","68048","0.0-116.0","3A1COHJ8NKH47GSARROIOZUA4TXH8F","A2TLN8489YGY81","3S829FDFT2NBOHQMM1CIOU0HZYXDXL","","77.20000000298023","img/food4.png","76","77.80000000447035","3","1","2","0,0.5,0.8,0.5,0,0.8,0,0.5,0.8,0,0.8,0.5",""
"","html-keyboard-response","117","68361","0.0-117.0","3A1COHJ8NKH47GSARROIOZUA4TXH8F","A2TLN8489YGY81","3S829FDFT2NBOHQMM1CIOU0HZYXDXL","","null","<img src=""img/food4.png"" style=""width:200px; border:14px solid green;"">","null","","","","","",""
"","image-keyboard-response","118","68423","0.0-118.0","3A1COHJ8NKH47GSARROIOZUA4TXH8F","A2TLN8489YGY81","3S829FDFT2NBOHQMM1CIOU0HZYXDXL","","60.80000000447035","img/food3.png","76","61.5","3","1","1","0,0.5,0.8,0.5,0,0.8,0,0.5,0.8,0,0.8,0.5",""
"","html-keyboard-response","119","68724","0.0-119.0","3A1COHJ8NKH47GSARROIOZUA4TXH8F","A2TLN8489YGY81","3S829FDFT2NBOHQMM1CIOU0HZYXDXL","","null","<img src=""img/food3.png"" style=""width:200px; border:14px solid green;"">","null","","","","","",""
"","image-keyboard-response","120","68826","0.0-120.0","3A1COHJ8NKH47GSARROIOZUA4TXH8F","A2TLN8489YGY81","3S829FDFT2NBOHQMM1CIOU0HZYXDXL","","101.59999999403954","img/food1.png","76","102.39999999850988","3","1","3","0,0.5,0.8,0.5,0,0.8,0,0.5,0.8,0,0.8,0.5",""
"","html-keyboard-response","121","69128","0.0-121.0","3A1COHJ8NKH47GSARROIOZUA4TXH8F","A2TLN8489YGY81","3S829FDFT2NBOHQMM1CIOU0HZYXDXL","","null","<img src=""img/food1.png"" style=""width:200px; border:14px solid green;"">","null","","","","","",""
"","image-keyboard-response","122","69213","0.0-122.0","3A1COHJ8NKH47GSARROIOZUA4TXH8F","A2TLN8489YGY81","3S829FDFT2NBOHQMM1CIOU0HZYXDXL","","84.60000000149012","img/food1.png","76","85.30000000447035","3","1","3","0,0.5,0.8,0.5,0,0.8,0,0.5,0.8,0,0.8,0.5",""
"","html-keyboard-response","123","69515","0.0-123.0","3A1COHJ8NKH47GSARROIOZUA4TXH8F","A2TLN8489YGY81","3S829FDFT2NBOHQMM1CIOU0HZYXDXL","","null","<img src=""img/food1.png"" style=""width:200px; border:14px solid green;"">","null","","","","","",""
"","image-keyboard-response","124","69613","0.0-124.0","3A1COHJ8NKH47GSARROIOZUA4TXH8F","A2TLN8489YGY81","3S829FDFT2NBOHQMM1CIOU0HZYXDXL","","97","img/food4.png","76","97.70000000298023","3","1","2","0,0.5,0.8,0.5,0,0.8,0,0.5,0.8,0,0.8,0.5",""
"","html-keyboard-response","125","69915","0.0-125.0","3A1COHJ8NKH47GSARROIOZUA4TXH8F","A2TLN8489YGY81","3S829FDFT2NBOHQMM1CIOU0HZYXDXL","","null","<img src=""img/food4.png"" style=""width:200px; border:14px solid green;"">","null","","","","","",""
"","image-keyboard-response","126","69992","0.0-126.0","3A1COHJ8NKH47GSARROIOZUA4TXH8F","A2TLN8489YGY81","3S829FDFT2NBOHQMM1CIOU0HZYXDXL","","75.29999999701977","img/food1.png","76","76.20000000298023","3","0","3","0,0.5,0.8,0.5,0,0.8,0,0.5,0.8,0,0.8,0.5",""
"","html-keyboard-response","127","70294","0.0-127.0","3A1COHJ8NKH47GSARROIOZUA4TXH8F","A2TLN8489YGY81","3S829FDFT2NBOHQMM1CIOU0HZYXDXL","","null","<img src=""img/food1.png"" style=""width:200px;border:14px solid red;"">","null","","","","","",""
"","image-keyboard-response","128","70395","0.0-128.0","3A1COHJ8NKH47GSARROIOZUA4TXH8F","A2TLN8489YGY81","3S829FDFT2NBOHQMM1CIOU0HZYXDXL","","100.10000000149012","img/food4.png","76","101.79999999701977","3","1","2","0,0.5,0.8,0.5,0,0.8,0,0.5,0.8,0,0.8,0.5",""
"","html-keyboard-response","129","70698","0.0-129.0","3A1COHJ8NKH47GSARROIOZUA4TXH8F","A2TLN8489YGY81","3S829FDFT2NBOHQMM1CIOU0HZYXDXL","","null","<img src=""img/food4.png"" style=""width:200px; border:14px solid green;"">","null","","","","","",""
"","image-keyboard-response","130","70791","0.0-130.0","3A1COHJ8NKH47GSARROIOZUA4TXH8F","A2TLN8489YGY81","3S829FDFT2NBOHQMM1CIOU0HZYXDXL","","92.40000000596046","img/food3.png","76","93.20000000298023","3","1","1","0,0.5,0.8,0.5,0,0.8,0,0.5,0.8,0,0.8,0.5",""
"","html-keyboard-response","131","71092","0.0-131.0","3A1COHJ8NKH47GSARROIOZUA4TXH8F","A2TLN8489YGY81","3S829FDFT2NBOHQMM1CIOU0HZYXDXL","","null","<img src=""img/food3.png"" style=""width:200px; border:14px solid green;"">","null","","","","","",""
"","image-keyboard-response","132","71145","0.0-132.0","3A1COHJ8NKH47GSARROIOZUA4TXH8F","A2TLN8489YGY81","3S829FDFT2NBOHQMM1CIOU0HZYXDXL","","51.5","img/food1.png","76","52.29999999701977","3","1","3","0,0.5,0.8,0.5,0,0.8,0,0.5,0.8,0,0.8,0.5",""
"","html-keyboard-response","133","71447","0.0-133.0","3A1COHJ8NKH47GSARROIOZUA4TXH8F","A2TLN8489YGY81","3S829FDFT2NBOHQMM1CIOU0HZYXDXL","","null","<img src=""img/food1.png"" style=""width:200px; border:14px solid green;"">","null","","","","","",""
"","image-keyboard-response","134","71491","0.0-134.0","3A1COHJ8NKH47GSARROIOZUA4TXH8F","A2TLN8489YGY81","3S829FDFT2NBOHQMM1CIOU0HZYXDXL","","42.19999999552965","img/food3.png","76","42.900000005960464","3","1","1","0,0.5,0.8,0.5,0,0.8,0,0.5,0.8,0,0.8,0.5",""
"","html-keyboard-response","135","71792","0.0-135.0","3A1COHJ8NKH47GSARROIOZUA4TXH8F","A2TLN8489YGY81","3S829FDFT2NBOHQMM1CIOU0HZYXDXL","","null","<img src=""img/food3.png"" style=""width:200px; border:14px solid green;"">","null","","","","","",""
"","image-keyboard-response","136","71857","0.0-136.0","3A1COHJ8NKH47GSARROIOZUA4TXH8F","A2TLN8489YGY81","3S829FDFT2NBOHQMM1CIOU0HZYXDXL","","63.20000000298023","img/food3.png","76","64","3","1","1","0,0.5,0.8,0.5,0,0.8,0,0.5,0.8,0,0.8,0.5",""
"","html-keyboard-response","137","72158","0.0-137.0","3A1COHJ8NKH47GSARROIOZUA4TXH8F","A2TLN8489YGY81","3S829FDFT2NBOHQMM1CIOU0HZYXDXL","","null","<img src=""img/food3.png"" style=""width:200px; border:14px solid green;"">","null","","","","","",""
"","image-keyboard-response","138","72210","0.0-138.0","3A1COHJ8NKH47GSARROIOZUA4TXH8F","A2TLN8489YGY81","3S829FDFT2NBOHQMM1CIOU0HZYXDXL","","51.70000000298023","img/food1.png","76","52.399999998509884","3","1","3","0,0.5,0.8,0.5,0,0.8,0,0.5,0.8,0,0.8,0.5",""
"","html-keyboard-response","139","72512","0.0-139.0","3A1COHJ8NKH47GSARROIOZUA4TXH8F","A2TLN8489YGY81","3S829FDFT2NBOHQMM1CIOU0HZYXDXL","","null","<img src=""img/food1.png"" style=""width:200px; border:14px solid green;"">","null","","","","","",""
"","image-keyboard-response","140","72556","0.0-140.0","3A1COHJ8NKH47GSARROIOZUA4TXH8F","A2TLN8489YGY81","3S829FDFT2NBOHQMM1CIOU0HZYXDXL","","42.599999994039536","img/food4.png","76","43.399999998509884","3","1","2","0,0.5,0.8,0.5,0,0.8,0,0.5,0.8,0,0.8,0.5",""
"","html-keyboard-response","141","72858","0.0-141.0","3A1COHJ8NKH47GSARROIOZUA4TXH8F","A2TLN8489YGY81","3S829FDFT2NBOHQMM1CIOU0HZYXDXL","","null","<img src=""img/food4.png"" style=""width:200px; border:14px solid green;"">","null","","","","","",""
"","image-keyboard-response","142","72893","0.0-142.0","3A1COHJ8NKH47GSARROIOZUA4TXH8F","A2TLN8489YGY81","3S829FDFT2NBOHQMM1CIOU0HZYXDXL","","34.399999998509884","img/food3.png","76","35.100000001490116","3","0","1","0,0.5,0.8,0.5,0,0.8,0,0.5,0.8,0,0.8,0.5",""
"","html-keyboard-response","143","73195","0.0-143.0","3A1COHJ8NKH47GSARROIOZUA4TXH8F","A2TLN8489YGY81","3S829FDFT2NBOHQMM1CIOU0HZYXDXL","","null","<img src=""img/food3.png"" style=""width:200px;border:14px solid red;"">","null","","","","","",""
"","image-keyboard-response","144","73255","0.0-144.0","3A1COHJ8NKH47GSARROIOZUA4TXH8F","A2TLN8489YGY81","3S829FDFT2NBOHQMM1CIOU0HZYXDXL","","59.899999998509884","img/food1.png","76","60.600000001490116","3","1","3","0,0.5,0.8,0.5,0,0.8,0,0.5,0.8,0,0.8,0.5",""
"","html-keyboard-response","145","73557","0.0-145.0","3A1COHJ8NKH47GSARROIOZUA4TXH8F","A2TLN8489YGY81","3S829FDFT2NBOHQMM1CIOU0HZYXDXL","","null","<img src=""img/food1.png"" style=""width:200px; border:14px solid green;"">","null","","","","","",""
"","image-keyboard-response","146","73609","0.0-146.0","3A1COHJ8NKH47GSARROIOZUA4TXH8F","A2TLN8489YGY81","3S829FDFT2NBOHQMM1CIOU0HZYXDXL","","51.100000001490116","img/food3.png","76","51.899999998509884","3","1","1","0,0.5,0.8,0.5,0,0.8,0,0.5,0.8,0,0.8,0.5",""
"","html-keyboard-response","147","73911","0.0-147.0","3A1COHJ8NKH47GSARROIOZUA4TXH8F","A2TLN8489YGY81","3S829FDFT2NBOHQMM1CIOU0HZYXDXL","","null","<img src=""img/food3.png"" style=""width:200px; border:14px solid green;"">","null","","","","","",""
"","image-keyboard-response","148","73996","0.0-148.0","3A1COHJ8NKH47GSARROIOZUA4TXH8F","A2TLN8489YGY81","3S829FDFT2NBOHQMM1CIOU0HZYXDXL","","84.60000000149012","img/food4.png","76","85.39999999850988","3","1","2","0,0.5,0.8,0.5,0,0.8,0,0.5,0.8,0,0.8,0.5",""
"","html-keyboard-response","149","74298","0.0-149.0","3A1COHJ8NKH47GSARROIOZUA4TXH8F","A2TLN8489YGY81","3S829FDFT2NBOHQMM1CIOU0HZYXDXL","","null","<img src=""img/food4.png"" style=""width:200px; border:14px solid green;"">","null","","","","","",""
"","image-keyboard-response","150","74387","0.0-150.0","3A1COHJ8NKH47GSARROIOZUA4TXH8F","A2TLN8489YGY81","3S829FDFT2NBOHQMM1CIOU0HZYXDXL","","88.29999999701977","img/food3.png","76","89","3","0","1","0,0.5,0.8,0.5,0,0.8,0,0.5,0.8,0,0.8,0.5",""
"","html-keyboard-response","151","74690","0.0-151.0","3A1COHJ8NKH47GSARROIOZUA4TXH8F","A2TLN8489YGY81","3S829FDFT2NBOHQMM1CIOU0HZYXDXL","","null","<img src=""img/food3.png"" style=""width:200px;border:14px solid red;"">","null","","","","","",""
"","image-keyboard-response","152","74828","0.0-152.0","3A1COHJ8NKH47GSARROIOZUA4TXH8F","A2TLN8489YGY81","3S829FDFT2NBOHQMM1CIOU0HZYXDXL","","137.79999999701977","img/food3.png","76","138.60000000149012","3","0","1","0,0.5,0.8,0.5,0,0.8,0,0.5,0.8,0,0.8,0.5",""
"","html-keyboard-response","153","75130","0.0-153.0","3A1COHJ8NKH47GSARROIOZUA4TXH8F","A2TLN8489YGY81","3S829FDFT2NBOHQMM1CIOU0HZYXDXL","","null","<img src=""img/food3.png"" style=""width:200px;border:14px solid red;"">","null","","","","","",""
"","image-keyboard-response","154","75199","0.0-154.0","3A1COHJ8NKH47GSARROIOZUA4TXH8F","A2TLN8489YGY81","3S829FDFT2NBOHQMM1CIOU0HZYXDXL","","68.09999999403954","img/food3.png","76","68.70000000298023","3","1","1","0,0.5,0.8,0.5,0,0.8,0,0.5,0.8,0,0.8,0.5",""
"","html-keyboard-response","155","75500","0.0-155.0","3A1COHJ8NKH47GSARROIOZUA4TXH8F","A2TLN8489YGY81","3S829FDFT2NBOHQMM1CIOU0HZYXDXL","","null","<img src=""img/food3.png"" style=""width:200px; border:14px solid green;"">","null","","","","","",""
"","image-keyboard-response","156","75644","0.0-156.0","3A1COHJ8NKH47GSARROIOZUA4TXH8F","A2TLN8489YGY81","3S829FDFT2NBOHQMM1CIOU0HZYXDXL","","142.79999999701977","img/food4.png","76","143.5","3","1","2","0,0.5,0.8,0.5,0,0.8,0,0.5,0.8,0,0.8,0.5",""
"","html-keyboard-response","157","75945","0.0-157.0","3A1COHJ8NKH47GSARROIOZUA4TXH8F","A2TLN8489YGY81","3S829FDFT2NBOHQMM1CIOU0HZYXDXL","","null","<img src=""img/food4.png"" style=""width:200px; border:14px solid green;"">","null","","","","","",""
"","image-keyboard-response","158","76064","0.0-158.0","3A1COHJ8NKH47GSARROIOZUA4TXH8F","A2TLN8489YGY81","3S829FDFT2NBOHQMM1CIOU0HZYXDXL","","118.10000000149012","img/food1.png","76","118.69999999552965","3","1","3","0,0.5,0.8,0.5,0,0.8,0,0.5,0.8,0,0.8,0.5",""
"","html-keyboard-response","159","76367","0.0-159.0","3A1COHJ8NKH47GSARROIOZUA4TXH8F","A2TLN8489YGY81","3S829FDFT2NBOHQMM1CIOU0HZYXDXL","","null","<img src=""img/food1.png"" style=""width:200px; border:14px solid green;"">","null","","","","","",""
"","image-keyboard-response","160","76476","0.0-160.0","3A1COHJ8NKH47GSARROIOZUA4TXH8F","A2TLN8489YGY81","3S829FDFT2NBOHQMM1CIOU0HZYXDXL","","108.60000000149012","img/food3.png","76","109.29999999701977","3","1","1","0,0.5,0.8,0.5,0,0.8,0,0.5,0.8,0,0.8,0.5",""
"","html-keyboard-response","161","76778","0.0-161.0","3A1COHJ8NKH47GSARROIOZUA4TXH8F","A2TLN8489YGY81","3S829FDFT2NBOHQMM1CIOU0HZYXDXL","","null","<img src=""img/food3.png"" style=""width:200px; border:14px solid green;"">","null","","","","","",""
"","image-keyboard-response","162","76871","0.0-162.0","3A1COHJ8NKH47GSARROIOZUA4TXH8F","A2TLN8489YGY81","3S829FDFT2NBOHQMM1CIOU0HZYXDXL","","92.39999999850988","img/food1.png","76","93.20000000298023","3","1","3","0,0.5,0.8,0.5,0,0.8,0,0.5,0.8,0,0.8,0.5",""
"","html-keyboard-response","163","77173","0.0-163.0","3A1COHJ8NKH47GSARROIOZUA4TXH8F","A2TLN8489YGY81","3S829FDFT2NBOHQMM1CIOU0HZYXDXL","","null","<img src=""img/food1.png"" style=""width:200px; border:14px solid green;"">","null","","","","","",""
"","image-keyboard-response","164","77259","0.0-164.0","3A1COHJ8NKH47GSARROIOZUA4TXH8F","A2TLN8489YGY81","3S829FDFT2NBOHQMM1CIOU0HZYXDXL","","84.89999999850988","img/food3.png","76","85.90000000596046","3","1","1","0,0.5,0.8,0.5,0,0.8,0,0.5,0.8,0,0.8,0.5",""
"","html-keyboard-response","165","77561","0.0-165.0","3A1COHJ8NKH47GSARROIOZUA4TXH8F","A2TLN8489YGY81","3S829FDFT2NBOHQMM1CIOU0HZYXDXL","","null","<img src=""img/food3.png"" style=""width:200px; border:14px solid green;"">","null","","","","","",""
"","image-keyboard-response","166","77637","0.0-166.0","3A1COHJ8NKH47GSARROIOZUA4TXH8F","A2TLN8489YGY81","3S829FDFT2NBOHQMM1CIOU0HZYXDXL","","75.20000000298023","img/food3.png","76","76.10000000149012","3","1","1","0,0.5,0.8,0.5,0,0.8,0,0.5,0.8,0,0.8,0.5",""
"","html-keyboard-response","167","77939","0.0-167.0","3A1COHJ8NKH47GSARROIOZUA4TXH8F","A2TLN8489YGY81","3S829FDFT2NBOHQMM1CIOU0HZYXDXL","","null","<img src=""img/food3.png"" style=""width:200px; border:14px solid green;"">","null","","","","","",""
"","image-keyboard-response","168","78037","0.0-168.0","3A1COHJ8NKH47GSARROIOZUA4TXH8F","A2TLN8489YGY81","3S829FDFT2NBOHQMM1CIOU0HZYXDXL","","97.5","img/food3.png","76","98.30000000447035","3","1","1","0,0.5,0.8,0.5,0,0.8,0,0.5,0.8,0,0.8,0.5",""
"","html-keyboard-response","169","78339","0.0-169.0","3A1COHJ8NKH47GSARROIOZUA4TXH8F","A2TLN8489YGY81","3S829FDFT2NBOHQMM1CIOU0HZYXDXL","","null","<img src=""img/food3.png"" style=""width:200px; border:14px solid green;"">","null","","","","","",""
"","image-keyboard-response","170","78424","0.0-170.0","3A1COHJ8NKH47GSARROIOZUA4TXH8F","A2TLN8489YGY81","3S829FDFT2NBOHQMM1CIOU0HZYXDXL","","83.5","img/food1.png","76","84.29999999701977","3","1","3","0,0.5,0.8,0.5,0,0.8,0,0.5,0.8,0,0.8,0.5",""
"","html-keyboard-response","171","78726","0.0-171.0","3A1COHJ8NKH47GSARROIOZUA4TXH8F","A2TLN8489YGY81","3S829FDFT2NBOHQMM1CIOU0HZYXDXL","","null","<img src=""img/food1.png"" style=""width:200px; border:14px solid green;"">","null","","","","","",""
"","image-keyboard-response","172","78815","0.0-172.0","3A1COHJ8NKH47GSARROIOZUA4TXH8F","A2TLN8489YGY81","3S829FDFT2NBOHQMM1CIOU0HZYXDXL","","87.89999999850988","img/food1.png","76","88.80000000447035","3","1","3","0,0.5,0.8,0.5,0,0.8,0,0.5,0.8,0,0.8,0.5",""
"","html-keyboard-response","173","79116","0.0-173.0","3A1COHJ8NKH47GSARROIOZUA4TXH8F","A2TLN8489YGY81","3S829FDFT2NBOHQMM1CIOU0HZYXDXL","","null","<img src=""img/food1.png"" style=""width:200px; border:14px solid green;"">","null","","","","","",""
"","image-keyboard-response","174","79223","0.0-174.0","3A1COHJ8NKH47GSARROIOZUA4TXH8F","A2TLN8489YGY81","3S829FDFT2NBOHQMM1CIOU0HZYXDXL","","105.5","img/food1.png","76","106.39999999850988","3","1","3","0,0.5,0.8,0.5,0,0.8,0,0.5,0.8,0,0.8,0.5",""
"","html-keyboard-response","175","79524","0.0-175.0","3A1COHJ8NKH47GSARROIOZUA4TXH8F","A2TLN8489YGY81","3S829FDFT2NBOHQMM1CIOU0HZYXDXL","","null","<img src=""img/food1.png"" style=""width:200px; border:14px solid green;"">","null","","","","","",""
"","image-keyboard-response","176","79639","0.0-176.0","3A1COHJ8NKH47GSARROIOZUA4TXH8F","A2TLN8489YGY81","3S829FDFT2NBOHQMM1CIOU0HZYXDXL","","113.70000000298023","img/food4.png","76","114.59999999403954","3","0","2","0,0.5,0.8,0.5,0,0.8,0,0.5,0.8,0,0.8,0.5",""
"","html-keyboard-response","177","79940","0.0-177.0","3A1COHJ8NKH47GSARROIOZUA4TXH8F","A2TLN8489YGY81","3S829FDFT2NBOHQMM1CIOU0HZYXDXL","","null","<img src=""img/food4.png"" style=""width:200px;border:14px solid red;"">","null","","","","","",""
"","image-keyboard-response","178","80080","0.0-178.0","3A1COHJ8NKH47GSARROIOZUA4TXH8F","A2TLN8489YGY81","3S829FDFT2NBOHQMM1CIOU0HZYXDXL","","138.80000000447035","img/food1.png","76","139.69999999552965","3","1","3","0,0.5,0.8,0.5,0,0.8,0,0.5,0.8,0,0.8,0.5",""
"","html-keyboard-response","179","80382","0.0-179.0","3A1COHJ8NKH47GSARROIOZUA4TXH8F","A2TLN8489YGY81","3S829FDFT2NBOHQMM1CIOU0HZYXDXL","","null","<img src=""img/food1.png"" style=""width:200px; border:14px solid green;"">","null","","","","","",""
"","image-keyboard-response","180","80529","0.0-180.0","3A1COHJ8NKH47GSARROIOZUA4TXH8F","A2TLN8489YGY81","3S829FDFT2NBOHQMM1CIOU0HZYXDXL","","146.30000000447035","img/food4.png","76","146.80000000447035","3","1","2","0,0.5,0.8,0.5,0,0.8,0,0.5,0.8,0,0.8,0.5",""
"","html-keyboard-response","181","80830","0.0-181.0","3A1COHJ8NKH47GSARROIOZUA4TXH8F","A2TLN8489YGY81","3S829FDFT2NBOHQMM1CIOU0HZYXDXL","","null","<img src=""img/food4.png"" style=""width:200px; border:14px solid green;"">","null","","","","","",""
"","html-keyboard-response","182","82677","0.0-182.0","3A1COHJ8NKH47GSARROIOZUA4TXH8F","A2TLN8489YGY81","3S829FDFT2NBOHQMM1CIOU0HZYXDXL","","","","","","","","","",""
"","image-keyboard-response","183","84773","0.0-183.0","3A1COHJ8NKH47GSARROIOZUA4TXH8F","A2TLN8489YGY81","3S829FDFT2NBOHQMM1CIOU0HZYXDXL","","2094.60000000149","img/food5.png","74","2095.7000000029802","1","1","1","0.8,0.5,0,0.8,0,0.5,0.5,0.8,0,0,0.8,0.5",""
"","html-keyboard-response","184","85075","0.0-184.0","3A1COHJ8NKH47GSARROIOZUA4TXH8F","A2TLN8489YGY81","3S829FDFT2NBOHQMM1CIOU0HZYXDXL","","null","<img src=""img/food5.png"" style=""width:200px; border:14px solid green;"">","null","","","","","",""
"","image-keyboard-response","185","86987","0.0-185.0","3A1COHJ8NKH47GSARROIOZUA4TXH8F","A2TLN8489YGY81","3S829FDFT2NBOHQMM1CIOU0HZYXDXL","","1910","img/food2.png","75","1911","2","0","2","0.8,0.5,0,0.8,0,0.5,0.5,0.8,0,0,0.8,0.5",""
"","html-keyboard-response","186","87296","0.0-186.0","3A1COHJ8NKH47GSARROIOZUA4TXH8F","A2TLN8489YGY81","3S829FDFT2NBOHQMM1CIOU0HZYXDXL","","null","<img src=""img/food2.png"" style=""width:200px;border:14px solid red;"">","null","","","","","",""
"","image-keyboard-response","187","88080","0.0-187.0","3A1COHJ8NKH47GSARROIOZUA4TXH8F","A2TLN8489YGY81","3S829FDFT2NBOHQMM1CIOU0HZYXDXL","","783.3000000044703","img/food5.png","76","784.2000000029802","3","0","1","0.8,0.5,0,0.8,0,0.5,0.5,0.8,0,0,0.8,0.5",""
"","html-keyboard-response","188","88382","0.0-188.0","3A1COHJ8NKH47GSARROIOZUA4TXH8F","A2TLN8489YGY81","3S829FDFT2NBOHQMM1CIOU0HZYXDXL","","null","<img src=""img/food5.png"" style=""width:200px;border:14px solid red;"">","null","","","","","",""
"","image-keyboard-response","189","89360","0.0-189.0","3A1COHJ8NKH47GSARROIOZUA4TXH8F","A2TLN8489YGY81","3S829FDFT2NBOHQMM1CIOU0HZYXDXL","","977.6000000014901","img/food2.png","74","978.4000000059605","1","1","2","0.8,0.5,0,0.8,0,0.5,0.5,0.8,0,0,0.8,0.5",""
"","html-keyboard-response","190","89662","0.0-190.0","3A1COHJ8NKH47GSARROIOZUA4TXH8F","A2TLN8489YGY81","3S829FDFT2NBOHQMM1CIOU0HZYXDXL","","null","<img src=""img/food2.png"" style=""width:200px; border:14px solid green;"">","null","","","","","",""
"","image-keyboard-response","191","90276","0.0-191.0","3A1COHJ8NKH47GSARROIOZUA4TXH8F","A2TLN8489YGY81","3S829FDFT2NBOHQMM1CIOU0HZYXDXL","","612.7000000029802","img/food6.png","74","613.5","1","1","3","0.8,0.5,0,0.8,0,0.5,0.5,0.8,0,0,0.8,0.5",""
"","html-keyboard-response","192","90589","0.0-192.0","3A1COHJ8NKH47GSARROIOZUA4TXH8F","A2TLN8489YGY81","3S829FDFT2NBOHQMM1CIOU0HZYXDXL","","null","<img src=""img/food6.png"" style=""width:200px; border:14px solid green;"">","null","","","","","",""
"","image-keyboard-response","193","91207","0.0-193.0","3A1COHJ8NKH47GSARROIOZUA4TXH8F","A2TLN8489YGY81","3S829FDFT2NBOHQMM1CIOU0HZYXDXL","","617.7999999970198","img/food5.png","74","618.5999999940395","1","0","1","0.8,0.5,0,0.8,0,0.5,0.5,0.8,0,0,0.8,0.5",""
"","html-keyboard-response","194","91509","0.0-194.0","3A1COHJ8NKH47GSARROIOZUA4TXH8F","A2TLN8489YGY81","3S829FDFT2NBOHQMM1CIOU0HZYXDXL","","null","<img src=""img/food5.png"" style=""width:200px;border:14px solid red;"">","null","","","","","",""
"","image-keyboard-response","195","92405","0.0-195.0","3A1COHJ8NKH47GSARROIOZUA4TXH8F","A2TLN8489YGY81","3S829FDFT2NBOHQMM1CIOU0HZYXDXL","","894.9000000059605","img/food5.png","75","895.7000000029802","2","1","1","0.8,0.5,0,0.8,0,0.5,0.5,0.8,0,0,0.8,0.5",""
"","html-keyboard-response","196","92706","0.0-196.0","3A1COHJ8NKH47GSARROIOZUA4TXH8F","A2TLN8489YGY81","3S829FDFT2NBOHQMM1CIOU0HZYXDXL","","null","<img src=""img/food5.png"" style=""width:200px; border:14px solid green;"">","null","","","","","",""
"","image-keyboard-response","197","94855","0.0-197.0","3A1COHJ8NKH47GSARROIOZUA4TXH8F","A2TLN8489YGY81","3S829FDFT2NBOHQMM1CIOU0HZYXDXL","","2147.7999999970198","img/food2.png","74","2148.60000000149","1","1","2","0.8,0.5,0,0.8,0,0.5,0.5,0.8,0,0,0.8,0.5",""
"","html-keyboard-response","198","95157","0.0-198.0","3A1COHJ8NKH47GSARROIOZUA4TXH8F","A2TLN8489YGY81","3S829FDFT2NBOHQMM1CIOU0HZYXDXL","","null","<img src=""img/food2.png"" style=""width:200px; border:14px solid green;"">","null","","","","","",""
"","image-keyboard-response","199","96380","0.0-199.0","3A1COHJ8NKH47GSARROIOZUA4TXH8F","A2TLN8489YGY81","3S829FDFT2NBOHQMM1CIOU0HZYXDXL","","1222.5","img/food6.png","74","1223.5","1","1","3","0.8,0.5,0,0.8,0,0.5,0.5,0.8,0,0,0.8,0.5",""
"","html-keyboard-response","200","96682","0.0-200.0","3A1COHJ8NKH47GSARROIOZUA4TXH8F","A2TLN8489YGY81","3S829FDFT2NBOHQMM1CIOU0HZYXDXL","","null","<img src=""img/food6.png"" style=""width:200px; border:14px solid green;"">","null","","","","","",""
"","image-keyboard-response","201","97660","0.0-201.0","3A1COHJ8NKH47GSARROIOZUA4TXH8F","A2TLN8489YGY81","3S829FDFT2NBOHQMM1CIOU0HZYXDXL","","977.1000000014901","img/food2.png","74","977.8999999985099","1","1","2","0.8,0.5,0,0.8,0,0.5,0.5,0.8,0,0,0.8,0.5",""
"","html-keyboard-response","202","97962","0.0-202.0","3A1COHJ8NKH47GSARROIOZUA4TXH8F","A2TLN8489YGY81","3S829FDFT2NBOHQMM1CIOU0HZYXDXL","","null","<img src=""img/food2.png"" style=""width:200px; border:14px solid green;"">","null","","","","","",""
"","image-keyboard-response","203","98439","0.0-203.0","3A1COHJ8NKH47GSARROIOZUA4TXH8F","A2TLN8489YGY81","3S829FDFT2NBOHQMM1CIOU0HZYXDXL","","475.8999999985099","img/food2.png","74","476.70000000298023","1","1","2","0.8,0.5,0,0.8,0,0.5,0.5,0.8,0,0,0.8,0.5",""
"","html-keyboard-response","204","98740","0.0-204.0","3A1COHJ8NKH47GSARROIOZUA4TXH8F","A2TLN8489YGY81","3S829FDFT2NBOHQMM1CIOU0HZYXDXL","","null","<img src=""img/food2.png"" style=""width:200px; border:14px solid green;"">","null","","","","","",""
"","image-keyboard-response","205","99288","0.0-205.0","3A1COHJ8NKH47GSARROIOZUA4TXH8F","A2TLN8489YGY81","3S829FDFT2NBOHQMM1CIOU0HZYXDXL","","546.5","img/food6.png","74","547.3000000044703","1","1","3","0.8,0.5,0,0.8,0,0.5,0.5,0.8,0,0,0.8,0.5",""
"","html-keyboard-response","206","99602","0.0-206.0","3A1COHJ8NKH47GSARROIOZUA4TXH8F","A2TLN8489YGY81","3S829FDFT2NBOHQMM1CIOU0HZYXDXL","","null","<img src=""img/food6.png"" style=""width:200px; border:14px solid green;"">","null","","","","","",""
"","image-keyboard-response","207","100303","0.0-207.0","3A1COHJ8NKH47GSARROIOZUA4TXH8F","A2TLN8489YGY81","3S829FDFT2NBOHQMM1CIOU0HZYXDXL","","699.7999999970198","img/food2.png","74","700.5","1","1","2","0.8,0.5,0,0.8,0,0.5,0.5,0.8,0,0,0.8,0.5",""
"","html-keyboard-response","208","100605","0.0-208.0","3A1COHJ8NKH47GSARROIOZUA4TXH8F","A2TLN8489YGY81","3S829FDFT2NBOHQMM1CIOU0HZYXDXL","","null","<img src=""img/food2.png"" style=""width:200px; border:14px solid green;"">","null","","","","","",""
"","image-keyboard-response","209","101147","0.0-209.0","3A1COHJ8NKH47GSARROIOZUA4TXH8F","A2TLN8489YGY81","3S829FDFT2NBOHQMM1CIOU0HZYXDXL","","541.5999999940395","img/food5.png","74","542.5","1","1","1","0.8,0.5,0,0.8,0,0.5,0.5,0.8,0,0,0.8,0.5",""
"","html-keyboard-response","210","101449","0.0-210.0","3A1COHJ8NKH47GSARROIOZUA4TXH8F","A2TLN8489YGY81","3S829FDFT2NBOHQMM1CIOU0HZYXDXL","","null","<img src=""img/food5.png"" style=""width:200px; border:14px solid green;"">","null","","","","","",""
"","image-keyboard-response","211","102042","0.0-211.0","3A1COHJ8NKH47GSARROIOZUA4TXH8F","A2TLN8489YGY81","3S829FDFT2NBOHQMM1CIOU0HZYXDXL","","591.6999999955297","img/food2.png","74","592.4000000059605","1","1","2","0.8,0.5,0,0.8,0,0.5,0.5,0.8,0,0,0.8,0.5",""
"","html-keyboard-response","212","102343","0.0-212.0","3A1COHJ8NKH47GSARROIOZUA4TXH8F","A2TLN8489YGY81","3S829FDFT2NBOHQMM1CIOU0HZYXDXL","","null","<img src=""img/food2.png"" style=""width:200px; border:14px solid green;"">","null","","","","","",""
"","image-keyboard-response","213","102841","0.0-213.0","3A1COHJ8NKH47GSARROIOZUA4TXH8F","A2TLN8489YGY81","3S829FDFT2NBOHQMM1CIOU0HZYXDXL","","496.6000000014901","img/food5.png","74","497.30000000447035","1","1","1","0.8,0.5,0,0.8,0,0.5,0.5,0.8,0,0,0.8,0.5",""
"","html-keyboard-response","214","103143","0.0-214.0","3A1COHJ8NKH47GSARROIOZUA4TXH8F","A2TLN8489YGY81","3S829FDFT2NBOHQMM1CIOU0HZYXDXL","","null","<img src=""img/food5.png"" style=""width:200px; border:14px solid green;"">","null","","","","","",""
"","image-keyboard-response","215","103578","0.0-215.0","3A1COHJ8NKH47GSARROIOZUA4TXH8F","A2TLN8489YGY81","3S829FDFT2NBOHQMM1CIOU0HZYXDXL","","434.3999999985099","img/food6.png","74","435.1000000014901","1","0","3","0.8,0.5,0,0.8,0,0.5,0.5,0.8,0,0,0.8,0.5",""
"","html-keyboard-response","216","103879","0.0-216.0","3A1COHJ8NKH47GSARROIOZUA4TXH8F","A2TLN8489YGY81","3S829FDFT2NBOHQMM1CIOU0HZYXDXL","","null","<img src=""img/food6.png"" style=""width:200px;border:14px solid red;"">","null","","","","","",""
"","image-keyboard-response","217","104639","0.0-217.0","3A1COHJ8NKH47GSARROIOZUA4TXH8F","A2TLN8489YGY81","3S829FDFT2NBOHQMM1CIOU0HZYXDXL","","758.3000000044703","img/food6.png","75","759.1000000014901","2","0","3","0.8,0.5,0,0.8,0,0.5,0.5,0.8,0,0,0.8,0.5",""
"","html-keyboard-response","218","104941","0.0-218.0","3A1COHJ8NKH47GSARROIOZUA4TXH8F","A2TLN8489YGY81","3S829FDFT2NBOHQMM1CIOU0HZYXDXL","","null","<img src=""img/food6.png"" style=""width:200px;border:14px solid red;"">","null","","","","","",""
"","image-keyboard-response","219","105782","0.0-219.0","3A1COHJ8NKH47GSARROIOZUA4TXH8F","A2TLN8489YGY81","3S829FDFT2NBOHQMM1CIOU0HZYXDXL","","840.1999999955297","img/food5.png","74","841","1","1","1","0.8,0.5,0,0.8,0,0.5,0.5,0.8,0,0,0.8,0.5",""
"","html-keyboard-response","220","106083","0.0-220.0","3A1COHJ8NKH47GSARROIOZUA4TXH8F","A2TLN8489YGY81","3S829FDFT2NBOHQMM1CIOU0HZYXDXL","","null","<img src=""img/food5.png"" style=""width:200px; border:14px solid green;"">","null","","","","","",""
"","image-keyboard-response","221","106614","0.0-221.0","3A1COHJ8NKH47GSARROIOZUA4TXH8F","A2TLN8489YGY81","3S829FDFT2NBOHQMM1CIOU0HZYXDXL","","530.0999999940395","img/food2.png","74","530.9000000059605","1","1","2","0.8,0.5,0,0.8,0,0.5,0.5,0.8,0,0,0.8,0.5",""
"","html-keyboard-response","222","106917","0.0-222.0","3A1COHJ8NKH47GSARROIOZUA4TXH8F","A2TLN8489YGY81","3S829FDFT2NBOHQMM1CIOU0HZYXDXL","","null","<img src=""img/food2.png"" style=""width:200px; border:14px solid green;"">","null","","","","","",""
"","image-keyboard-response","223","107799","0.0-223.0","3A1COHJ8NKH47GSARROIOZUA4TXH8F","A2TLN8489YGY81","3S829FDFT2NBOHQMM1CIOU0HZYXDXL","","881.5","img/food6.png","74","882.2999999970198","1","0","3","0.8,0.5,0,0.8,0,0.5,0.5,0.8,0,0,0.8,0.5",""
"","html-keyboard-response","224","108100","0.0-224.0","3A1COHJ8NKH47GSARROIOZUA4TXH8F","A2TLN8489YGY81","3S829FDFT2NBOHQMM1CIOU0HZYXDXL","","null","<img src=""img/food6.png"" style=""width:200px;border:14px solid red;"">","null","","","","","",""
"","image-keyboard-response","225","108768","0.0-225.0","3A1COHJ8NKH47GSARROIOZUA4TXH8F","A2TLN8489YGY81","3S829FDFT2NBOHQMM1CIOU0HZYXDXL","","667.3999999985099","img/food2.png","74","668.0999999940395","1","1","2","0.8,0.5,0,0.8,0,0.5,0.5,0.8,0,0,0.8,0.5",""
"","html-keyboard-response","226","109075","0.0-226.0","3A1COHJ8NKH47GSARROIOZUA4TXH8F","A2TLN8489YGY81","3S829FDFT2NBOHQMM1CIOU0HZYXDXL","","null","<img src=""img/food2.png"" style=""width:200px; border:14px solid green;"">","null","","","","","",""
"","image-keyboard-response","227","109381","0.0-227.0","3A1COHJ8NKH47GSARROIOZUA4TXH8F","A2TLN8489YGY81","3S829FDFT2NBOHQMM1CIOU0HZYXDXL","","304.59999999403954","img/food6.png","74","305.5","1","1","3","0.8,0.5,0,0.8,0,0.5,0.5,0.8,0,0,0.8,0.5",""
"","html-keyboard-response","228","109682","0.0-228.0","3A1COHJ8NKH47GSARROIOZUA4TXH8F","A2TLN8489YGY81","3S829FDFT2NBOHQMM1CIOU0HZYXDXL","","null","<img src=""img/food6.png"" style=""width:200px; border:14px solid green;"">","null","","","","","",""
"","image-keyboard-response","229","109977","0.0-229.0","3A1COHJ8NKH47GSARROIOZUA4TXH8F","A2TLN8489YGY81","3S829FDFT2NBOHQMM1CIOU0HZYXDXL","","294","img/food5.png","74","294.70000000298023","1","1","1","0.8,0.5,0,0.8,0,0.5,0.5,0.8,0,0,0.8,0.5",""
"","html-keyboard-response","230","110279","0.0-230.0","3A1COHJ8NKH47GSARROIOZUA4TXH8F","A2TLN8489YGY81","3S829FDFT2NBOHQMM1CIOU0HZYXDXL","","null","<img src=""img/food5.png"" style=""width:200px; border:14px solid green;"">","null","","","","","",""
"","image-keyboard-response","231","110598","0.0-231.0","3A1COHJ8NKH47GSARROIOZUA4TXH8F","A2TLN8489YGY81","3S829FDFT2NBOHQMM1CIOU0HZYXDXL","","317.70000000298023","img/food6.png","74","318.5","1","1","3","0.8,0.5,0,0.8,0,0.5,0.5,0.8,0,0,0.8,0.5",""
"","html-keyboard-response","232","110900","0.0-232.0","3A1COHJ8NKH47GSARROIOZUA4TXH8F","A2TLN8489YGY81","3S829FDFT2NBOHQMM1CIOU0HZYXDXL","","null","<img src=""img/food6.png"" style=""width:200px; border:14px solid green;"">","null","","","","","",""
"","image-keyboard-response","233","111160","0.0-233.0","3A1COHJ8NKH47GSARROIOZUA4TXH8F","A2TLN8489YGY81","3S829FDFT2NBOHQMM1CIOU0HZYXDXL","","259.70000000298023","img/food2.png","74","260.29999999701977","1","1","2","0.8,0.5,0,0.8,0,0.5,0.5,0.8,0,0,0.8,0.5",""
"","html-keyboard-response","234","111462","0.0-234.0","3A1COHJ8NKH47GSARROIOZUA4TXH8F","A2TLN8489YGY81","3S829FDFT2NBOHQMM1CIOU0HZYXDXL","","null","<img src=""img/food2.png"" style=""width:200px; border:14px solid green;"">","null","","","","","",""
"","image-keyboard-response","235","111669","0.0-235.0","3A1COHJ8NKH47GSARROIOZUA4TXH8F","A2TLN8489YGY81","3S829FDFT2NBOHQMM1CIOU0HZYXDXL","","205.59999999403954","img/food5.png","74","206.5","1","1","1","0.8,0.5,0,0.8,0,0.5,0.5,0.8,0,0,0.8,0.5",""
"","html-keyboard-response","236","111976","0.0-236.0","3A1COHJ8NKH47GSARROIOZUA4TXH8F","A2TLN8489YGY81","3S829FDFT2NBOHQMM1CIOU0HZYXDXL","","null","<img src=""img/food5.png"" style=""width:200px; border:14px solid green;"">","null","","","","","",""
"","image-keyboard-response","237","112169","0.0-237.0","3A1COHJ8NKH47GSARROIOZUA4TXH8F","A2TLN8489YGY81","3S829FDFT2NBOHQMM1CIOU0HZYXDXL","","191.79999999701977","img/food2.png","74","192.90000000596046","1","1","2","0.8,0.5,0,0.8,0,0.5,0.5,0.8,0,0,0.8,0.5",""
"","html-keyboard-response","238","112471","0.0-238.0","3A1COHJ8NKH47GSARROIOZUA4TXH8F","A2TLN8489YGY81","3S829FDFT2NBOHQMM1CIOU0HZYXDXL","","null","<img src=""img/food2.png"" style=""width:200px; border:14px solid green;"">","null","","","","","",""
"","image-keyboard-response","239","112641","0.0-239.0","3A1COHJ8NKH47GSARROIOZUA4TXH8F","A2TLN8489YGY81","3S829FDFT2NBOHQMM1CIOU0HZYXDXL","","169.10000000149012","img/food2.png","74","169.89999999850988","1","1","2","0.8,0.5,0,0.8,0,0.5,0.5,0.8,0,0,0.8,0.5",""
"","html-keyboard-response","240","112957","0.0-240.0","3A1COHJ8NKH47GSARROIOZUA4TXH8F","A2TLN8489YGY81","3S829FDFT2NBOHQMM1CIOU0HZYXDXL","","null","<img src=""img/food2.png"" style=""width:200px; border:14px solid green;"">","null","","","","","",""
"","image-keyboard-response","241","113100","0.0-241.0","3A1COHJ8NKH47GSARROIOZUA4TXH8F","A2TLN8489YGY81","3S829FDFT2NBOHQMM1CIOU0HZYXDXL","","141.60000000149012","img/food2.png","74","142.5","1","1","2","0.8,0.5,0,0.8,0,0.5,0.5,0.8,0,0,0.8,0.5",""
"","html-keyboard-response","242","113401","0.0-242.0","3A1COHJ8NKH47GSARROIOZUA4TXH8F","A2TLN8489YGY81","3S829FDFT2NBOHQMM1CIOU0HZYXDXL","","null","<img src=""img/food2.png"" style=""width:200px; border:14px solid green;"">","null","","","","","",""
"","image-keyboard-response","243","113554","0.0-243.0","3A1COHJ8NKH47GSARROIOZUA4TXH8F","A2TLN8489YGY81","3S829FDFT2NBOHQMM1CIOU0HZYXDXL","","152.39999999850988","img/food6.png","74","153.29999999701977","1","1","3","0.8,0.5,0,0.8,0,0.5,0.5,0.8,0,0,0.8,0.5",""
"","html-keyboard-response","244","113857","0.0-244.0","3A1COHJ8NKH47GSARROIOZUA4TXH8F","A2TLN8489YGY81","3S829FDFT2NBOHQMM1CIOU0HZYXDXL","","null","<img src=""img/food6.png"" style=""width:200px; border:14px solid green;"">","null","","","","","",""
"","image-keyboard-response","245","114030","0.0-245.0","3A1COHJ8NKH47GSARROIOZUA4TXH8F","A2TLN8489YGY81","3S829FDFT2NBOHQMM1CIOU0HZYXDXL","","172.39999999850988","img/food2.png","74","173.19999999552965","1","1","2","0.8,0.5,0,0.8,0,0.5,0.5,0.8,0,0,0.8,0.5",""
"","html-keyboard-response","246","114332","0.0-246.0","3A1COHJ8NKH47GSARROIOZUA4TXH8F","A2TLN8489YGY81","3S829FDFT2NBOHQMM1CIOU0HZYXDXL","","null","<img src=""img/food2.png"" style=""width:200px; border:14px solid green;"">","null","","","","","",""
"","image-keyboard-response","247","114564","0.0-247.0","3A1COHJ8NKH47GSARROIOZUA4TXH8F","A2TLN8489YGY81","3S829FDFT2NBOHQMM1CIOU0HZYXDXL","","231","img/food5.png","74","231.70000000298023","1","1","1","0.8,0.5,0,0.8,0,0.5,0.5,0.8,0,0,0.8,0.5",""
"","html-keyboard-response","248","114865","0.0-248.0","3A1COHJ8NKH47GSARROIOZUA4TXH8F","A2TLN8489YGY81","3S829FDFT2NBOHQMM1CIOU0HZYXDXL","","null","<img src=""img/food5.png"" style=""width:200px; border:14px solid green;"">","null","","","","","",""
"","image-keyboard-response","249","115064","0.0-249.0","3A1COHJ8NKH47GSARROIOZUA4TXH8F","A2TLN8489YGY81","3S829FDFT2NBOHQMM1CIOU0HZYXDXL","","198.30000000447035","img/food2.png","74","199.10000000149012","1","1","2","0.8,0.5,0,0.8,0,0.5,0.5,0.8,0,0,0.8,0.5",""
"","html-keyboard-response","250","115366","0.0-250.0","3A1COHJ8NKH47GSARROIOZUA4TXH8F","A2TLN8489YGY81","3S829FDFT2NBOHQMM1CIOU0HZYXDXL","","null","<img src=""img/food2.png"" style=""width:200px; border:14px solid green;"">","null","","","","","",""
"","image-keyboard-response","251","115639","0.0-251.0","3A1COHJ8NKH47GSARROIOZUA4TXH8F","A2TLN8489YGY81","3S829FDFT2NBOHQMM1CIOU0HZYXDXL","","271.79999999701977","img/food6.png","74","273","1","0","3","0.8,0.5,0,0.8,0,0.5,0.5,0.8,0,0,0.8,0.5",""
"","html-keyboard-response","252","115941","0.0-252.0","3A1COHJ8NKH47GSARROIOZUA4TXH8F","A2TLN8489YGY81","3S829FDFT2NBOHQMM1CIOU0HZYXDXL","","null","<img src=""img/food6.png"" style=""width:200px;border:14px solid red;"">","null","","","","","",""
"","image-keyboard-response","253","116343","0.0-253.0","3A1COHJ8NKH47GSARROIOZUA4TXH8F","A2TLN8489YGY81","3S829FDFT2NBOHQMM1CIOU0HZYXDXL","","401.20000000298023","img/food2.png","74","401.90000000596046","1","1","2","0.8,0.5,0,0.8,0,0.5,0.5,0.8,0,0,0.8,0.5",""
"","html-keyboard-response","254","116645","0.0-254.0","3A1COHJ8NKH47GSARROIOZUA4TXH8F","A2TLN8489YGY81","3S829FDFT2NBOHQMM1CIOU0HZYXDXL","","null","<img src=""img/food2.png"" style=""width:200px; border:14px solid green;"">","null","","","","","",""
"","image-keyboard-response","255","116910","0.0-255.0","3A1COHJ8NKH47GSARROIOZUA4TXH8F","A2TLN8489YGY81","3S829FDFT2NBOHQMM1CIOU0HZYXDXL","","264.09999999403954","img/food5.png","74","264.8999999985099","1","1","1","0.8,0.5,0,0.8,0,0.5,0.5,0.8,0,0,0.8,0.5",""
"","html-keyboard-response","256","117212","0.0-256.0","3A1COHJ8NKH47GSARROIOZUA4TXH8F","A2TLN8489YGY81","3S829FDFT2NBOHQMM1CIOU0HZYXDXL","","null","<img src=""img/food5.png"" style=""width:200px; border:14px solid green;"">","null","","","","","",""
"","image-keyboard-response","257","117410","0.0-257.0","3A1COHJ8NKH47GSARROIOZUA4TXH8F","A2TLN8489YGY81","3S829FDFT2NBOHQMM1CIOU0HZYXDXL","","197.5","img/food6.png","74","198.29999999701977","1","1","3","0.8,0.5,0,0.8,0,0.5,0.5,0.8,0,0,0.8,0.5",""
"","html-keyboard-response","258","117712","0.0-258.0","3A1COHJ8NKH47GSARROIOZUA4TXH8F","A2TLN8489YGY81","3S829FDFT2NBOHQMM1CIOU0HZYXDXL","","null","<img src=""img/food6.png"" style=""width:200px; border:14px solid green;"">","null","","","","","",""
"","image-keyboard-response","259","118077","0.0-259.0","3A1COHJ8NKH47GSARROIOZUA4TXH8F","A2TLN8489YGY81","3S829FDFT2NBOHQMM1CIOU0HZYXDXL","","363.6000000014901","img/food5.png","74","364.29999999701977","1","0","1","0.8,0.5,0,0.8,0,0.5,0.5,0.8,0,0,0.8,0.5",""
"","html-keyboard-response","260","118379","0.0-260.0","3A1COHJ8NKH47GSARROIOZUA4TXH8F","A2TLN8489YGY81","3S829FDFT2NBOHQMM1CIOU0HZYXDXL","","null","<img src=""img/food5.png"" style=""width:200px;border:14px solid red;"">","null","","","","","",""
"","image-keyboard-response","261","118552","0.0-261.0","3A1COHJ8NKH47GSARROIOZUA4TXH8F","A2TLN8489YGY81","3S829FDFT2NBOHQMM1CIOU0HZYXDXL","","172.20000000298023","img/food6.png","74","173.10000000149012","1","0","3","0.8,0.5,0,0.8,0,0.5,0.5,0.8,0,0,0.8,0.5",""
"","html-keyboard-response","262","118853","0.0-262.0","3A1COHJ8NKH47GSARROIOZUA4TXH8F","A2TLN8489YGY81","3S829FDFT2NBOHQMM1CIOU0HZYXDXL","","null","<img src=""img/food6.png"" style=""width:200px;border:14px solid red;"">","null","","","","","",""
"","image-keyboard-response","263","119181","0.0-263.0","3A1COHJ8NKH47GSARROIOZUA4TXH8F","A2TLN8489YGY81","3S829FDFT2NBOHQMM1CIOU0HZYXDXL","","326.90000000596046","img/food6.png","74","327.6000000014901","1","0","3","0.8,0.5,0,0.8,0,0.5,0.5,0.8,0,0,0.8,0.5",""
"","html-keyboard-response","264","119482","0.0-264.0","3A1COHJ8NKH47GSARROIOZUA4TXH8F","A2TLN8489YGY81","3S829FDFT2NBOHQMM1CIOU0HZYXDXL","","null","<img src=""img/food6.png"" style=""width:200px;border:14px solid red;"">","null","","","","","",""
"","image-keyboard-response","265","120217","0.0-265.0","3A1COHJ8NKH47GSARROIOZUA4TXH8F","A2TLN8489YGY81","3S829FDFT2NBOHQMM1CIOU0HZYXDXL","","733.6999999955297","img/food5.png","74","734.3999999985099","1","1","1","0.8,0.5,0,0.8,0,0.5,0.5,0.8,0,0,0.8,0.5",""
"","html-keyboard-response","266","120520","0.0-266.0","3A1COHJ8NKH47GSARROIOZUA4TXH8F","A2TLN8489YGY81","3S829FDFT2NBOHQMM1CIOU0HZYXDXL","","null","<img src=""img/food5.png"" style=""width:200px; border:14px solid green;"">","null","","","","","",""
"","image-keyboard-response","267","120792","0.0-267.0","3A1COHJ8NKH47GSARROIOZUA4TXH8F","A2TLN8489YGY81","3S829FDFT2NBOHQMM1CIOU0HZYXDXL","","271.3999999985099","img/food5.png","74","272.30000000447035","1","0","1","0.8,0.5,0,0.8,0,0.5,0.5,0.8,0,0,0.8,0.5",""
"","html-keyboard-response","268","121094","0.0-268.0","3A1COHJ8NKH47GSARROIOZUA4TXH8F","A2TLN8489YGY81","3S829FDFT2NBOHQMM1CIOU0HZYXDXL","","null","<img src=""img/food5.png"" style=""width:200px;border:14px solid red;"">","null","","","","","",""
"","image-keyboard-response","269","121243","0.0-269.0","3A1COHJ8NKH47GSARROIOZUA4TXH8F","A2TLN8489YGY81","3S829FDFT2NBOHQMM1CIOU0HZYXDXL","","147.89999999850988","img/food6.png","74","148.5","1","0","3","0.8,0.5,0,0.8,0,0.5,0.5,0.8,0,0,0.8,0.5",""
"","html-keyboard-response","270","121544","0.0-270.0","3A1COHJ8NKH47GSARROIOZUA4TXH8F","A2TLN8489YGY81","3S829FDFT2NBOHQMM1CIOU0HZYXDXL","","null","<img src=""img/food6.png"" style=""width:200px;border:14px solid red;"">","null","","","","","",""
"","image-keyboard-response","271","122291","0.0-271.0","3A1COHJ8NKH47GSARROIOZUA4TXH8F","A2TLN8489YGY81","3S829FDFT2NBOHQMM1CIOU0HZYXDXL","","745.8999999985099","img/food2.png","74","746.8999999985099","1","0","2","0.8,0.5,0,0.8,0,0.5,0.5,0.8,0,0,0.8,0.5",""
"","html-keyboard-response","272","122593","0.0-272.0","3A1COHJ8NKH47GSARROIOZUA4TXH8F","A2TLN8489YGY81","3S829FDFT2NBOHQMM1CIOU0HZYXDXL","","null","<img src=""img/food2.png"" style=""width:200px;border:14px solid red;"">","null","","","","","",""
"","image-keyboard-response","273","122998","0.0-273.0","3A1COHJ8NKH47GSARROIOZUA4TXH8F","A2TLN8489YGY81","3S829FDFT2NBOHQMM1CIOU0HZYXDXL","","403.8999999985099","img/food5.png","74","404.8999999985099","1","1","1","0.8,0.5,0,0.8,0,0.5,0.5,0.8,0,0,0.8,0.5",""
"","html-keyboard-response","274","123310","0.0-274.0","3A1COHJ8NKH47GSARROIOZUA4TXH8F","A2TLN8489YGY81","3S829FDFT2NBOHQMM1CIOU0HZYXDXL","","null","<img src=""img/food5.png"" style=""width:200px; border:14px solid green;"">","null","","","","","",""
"","image-keyboard-response","275","123847","0.0-275.0","3A1COHJ8NKH47GSARROIOZUA4TXH8F","A2TLN8489YGY81","3S829FDFT2NBOHQMM1CIOU0HZYXDXL","","536.5","img/food2.png","74","537.3999999985099","1","0","2","0.8,0.5,0,0.8,0,0.5,0.5,0.8,0,0,0.8,0.5",""
"","html-keyboard-response","276","124148","0.0-276.0","3A1COHJ8NKH47GSARROIOZUA4TXH8F","A2TLN8489YGY81","3S829FDFT2NBOHQMM1CIOU0HZYXDXL","","null","<img src=""img/food2.png"" style=""width:200px;border:14px solid red;"">","null","","","","","",""
"","image-keyboard-response","277","124538","0.0-277.0","3A1COHJ8NKH47GSARROIOZUA4TXH8F","A2TLN8489YGY81","3S829FDFT2NBOHQMM1CIOU0HZYXDXL","","389.1000000014901","img/food5.png","74","390","1","1","1","0.8,0.5,0,0.8,0,0.5,0.5,0.8,0,0,0.8,0.5",""
"","html-keyboard-response","278","124840","0.0-278.0","3A1COHJ8NKH47GSARROIOZUA4TXH8F","A2TLN8489YGY81","3S829FDFT2NBOHQMM1CIOU0HZYXDXL","","null","<img src=""img/food5.png"" style=""width:200px; border:14px solid green;"">","null","","","","","",""
"","image-keyboard-response","279","125976","0.0-279.0","3A1COHJ8NKH47GSARROIOZUA4TXH8F","A2TLN8489YGY81","3S829FDFT2NBOHQMM1CIOU0HZYXDXL","","1134.7999999970198","img/food6.png","76","1135.6000000014901","3","0","3","0.8,0.5,0,0.8,0,0.5,0.5,0.8,0,0,0.8,0.5",""
"","html-keyboard-response","280","126278","0.0-280.0","3A1COHJ8NKH47GSARROIOZUA4TXH8F","A2TLN8489YGY81","3S829FDFT2NBOHQMM1CIOU0HZYXDXL","","null","<img src=""img/food6.png"" style=""width:200px;border:14px solid red;"">","null","","","","","",""
"","image-keyboard-response","281","127340","0.0-281.0","3A1COHJ8NKH47GSARROIOZUA4TXH8F","A2TLN8489YGY81","3S829FDFT2NBOHQMM1CIOU0HZYXDXL","","1060.3999999985099","img/food2.png","74","1061.1999999955297","1","1","2","0.8,0.5,0,0.8,0,0.5,0.5,0.8,0,0,0.8,0.5",""
"","html-keyboard-response","282","127642","0.0-282.0","3A1COHJ8NKH47GSARROIOZUA4TXH8F","A2TLN8489YGY81","3S829FDFT2NBOHQMM1CIOU0HZYXDXL","","null","<img src=""img/food2.png"" style=""width:200px; border:14px solid green;"">","null","","","","","",""
"","image-keyboard-response","283","128172","0.0-283.0","3A1COHJ8NKH47GSARROIOZUA4TXH8F","A2TLN8489YGY81","3S829FDFT2NBOHQMM1CIOU0HZYXDXL","","528.3000000044703","img/food6.png","75","529.1000000014901","2","1","3","0.8,0.5,0,0.8,0,0.5,0.5,0.8,0,0,0.8,0.5",""
"","html-keyboard-response","284","128473","0.0-284.0","3A1COHJ8NKH47GSARROIOZUA4TXH8F","A2TLN8489YGY81","3S829FDFT2NBOHQMM1CIOU0HZYXDXL","","null","<img src=""img/food6.png"" style=""width:200px; border:14px solid green;"">","null","","","","","",""
"","image-keyboard-response","285","129784","0.0-285.0","3A1COHJ8NKH47GSARROIOZUA4TXH8F","A2TLN8489YGY81","3S829FDFT2NBOHQMM1CIOU0HZYXDXL","","1309.6999999955297","img/food5.png","74","1310.5","1","1","1","0.8,0.5,0,0.8,0,0.5,0.5,0.8,0,0,0.8,0.5",""
"","html-keyboard-response","286","130086","0.0-286.0","3A1COHJ8NKH47GSARROIOZUA4TXH8F","A2TLN8489YGY81","3S829FDFT2NBOHQMM1CIOU0HZYXDXL","","null","<img src=""img/food5.png"" style=""width:200px; border:14px solid green;"">","null","","","","","",""
"","image-keyboard-response","287","130616","0.0-287.0","3A1COHJ8NKH47GSARROIOZUA4TXH8F","A2TLN8489YGY81","3S829FDFT2NBOHQMM1CIOU0HZYXDXL","","528.6000000014901","img/food6.png","75","529.3000000044703","2","1","3","0.8,0.5,0,0.8,0,0.5,0.5,0.8,0,0,0.8,0.5",""
"","html-keyboard-response","288","130919","0.0-288.0","3A1COHJ8NKH47GSARROIOZUA4TXH8F","A2TLN8489YGY81","3S829FDFT2NBOHQMM1CIOU0HZYXDXL","","null","<img src=""img/food6.png"" style=""width:200px; border:14px solid green;"">","null","","","","","",""
"","image-keyboard-response","289","132278","0.0-289.0","3A1COHJ8NKH47GSARROIOZUA4TXH8F","A2TLN8489YGY81","3S829FDFT2NBOHQMM1CIOU0HZYXDXL","","1358.2999999970198","img/food2.png","74","1359","1","0","2","0.8,0.5,0,0.8,0,0.5,0.5,0.8,0,0,0.8,0.5",""
"","html-keyboard-response","290","132594","0.0-290.0","3A1COHJ8NKH47GSARROIOZUA4TXH8F","A2TLN8489YGY81","3S829FDFT2NBOHQMM1CIOU0HZYXDXL","","null","<img src=""img/food2.png"" style=""width:200px;border:14px solid red;"">","null","","","","","",""
"","image-keyboard-response","291","133525","0.0-291.0","3A1COHJ8NKH47GSARROIOZUA4TXH8F","A2TLN8489YGY81","3S829FDFT2NBOHQMM1CIOU0HZYXDXL","","929.5","img/food5.png","74","930.2000000029802","1","1","1","0.8,0.5,0,0.8,0,0.5,0.5,0.8,0,0,0.8,0.5",""
"","html-keyboard-response","292","133826","0.0-292.0","3A1COHJ8NKH47GSARROIOZUA4TXH8F","A2TLN8489YGY81","3S829FDFT2NBOHQMM1CIOU0HZYXDXL","","null","<img src=""img/food5.png"" style=""width:200px; border:14px solid green;"">","null","","","","","",""
"","image-keyboard-response","293","134523","0.0-293.0","3A1COHJ8NKH47GSARROIOZUA4TXH8F","A2TLN8489YGY81","3S829FDFT2NBOHQMM1CIOU0HZYXDXL","","695.8999999985099","img/food6.png","75","696.5999999940395","2","1","3","0.8,0.5,0,0.8,0,0.5,0.5,0.8,0,0,0.8,0.5",""
"","html-keyboard-response","294","134825","0.0-294.0","3A1COHJ8NKH47GSARROIOZUA4TXH8F","A2TLN8489YGY81","3S829FDFT2NBOHQMM1CIOU0HZYXDXL","","null","<img src=""img/food6.png"" style=""width:200px; border:14px solid green;"">","null","","","","","",""
"","image-keyboard-response","295","135882","0.0-295.0","3A1COHJ8NKH47GSARROIOZUA4TXH8F","A2TLN8489YGY81","3S829FDFT2NBOHQMM1CIOU0HZYXDXL","","1055.6999999955297","img/food5.png","74","1056.5999999940395","1","1","1","0.8,0.5,0,0.8,0,0.5,0.5,0.8,0,0,0.8,0.5",""
"","html-keyboard-response","296","136184","0.0-296.0","3A1COHJ8NKH47GSARROIOZUA4TXH8F","A2TLN8489YGY81","3S829FDFT2NBOHQMM1CIOU0HZYXDXL","","null","<img src=""img/food5.png"" style=""width:200px; border:14px solid green;"">","null","","","","","",""
"","image-keyboard-response","297","136789","0.0-297.0","3A1COHJ8NKH47GSARROIOZUA4TXH8F","A2TLN8489YGY81","3S829FDFT2NBOHQMM1CIOU0HZYXDXL","","604","img/food2.png","74","604.8000000044703","1","1","2","0.8,0.5,0,0.8,0,0.5,0.5,0.8,0,0,0.8,0.5",""
"","html-keyboard-response","298","137090","0.0-298.0","3A1COHJ8NKH47GSARROIOZUA4TXH8F","A2TLN8489YGY81","3S829FDFT2NBOHQMM1CIOU0HZYXDXL","","null","<img src=""img/food2.png"" style=""width:200px; border:14px solid green;"">","null","","","","","",""
"","image-keyboard-response","299","137530","0.0-299.0","3A1COHJ8NKH47GSARROIOZUA4TXH8F","A2TLN8489YGY81","3S829FDFT2NBOHQMM1CIOU0HZYXDXL","","438.29999999701977","img/food5.png","74","439.5","1","1","1","0.8,0.5,0,0.8,0,0.5,0.5,0.8,0,0,0.8,0.5",""
"","html-keyboard-response","300","137831","0.0-300.0","3A1COHJ8NKH47GSARROIOZUA4TXH8F","A2TLN8489YGY81","3S829FDFT2NBOHQMM1CIOU0HZYXDXL","","null","<img src=""img/food5.png"" style=""width:200px; border:14px solid green;"">","null","","","","","",""
"","image-keyboard-response","301","138445","0.0-301.0","3A1COHJ8NKH47GSARROIOZUA4TXH8F","A2TLN8489YGY81","3S829FDFT2NBOHQMM1CIOU0HZYXDXL","","612.8999999985099","img/food5.png","74","613.8000000044703","1","0","1","0.8,0.5,0,0.8,0,0.5,0.5,0.8,0,0,0.8,0.5",""
"","html-keyboard-response","302","138746","0.0-302.0","3A1COHJ8NKH47GSARROIOZUA4TXH8F","A2TLN8489YGY81","3S829FDFT2NBOHQMM1CIOU0HZYXDXL","","null","<img src=""img/food5.png"" style=""width:200px;border:14px solid red;"">","null","","","","","",""
"","image-keyboard-response","303","139626","0.0-303.0","3A1COHJ8NKH47GSARROIOZUA4TXH8F","A2TLN8489YGY81","3S829FDFT2NBOHQMM1CIOU0HZYXDXL","","878.3999999985099","img/food5.png","74","879.1999999955297","1","0","1","0.8,0.5,0,0.8,0,0.5,0.5,0.8,0,0,0.8,0.5",""
"","html-keyboard-response","304","139927","0.0-304.0","3A1COHJ8NKH47GSARROIOZUA4TXH8F","A2TLN8489YGY81","3S829FDFT2NBOHQMM1CIOU0HZYXDXL","","null","<img src=""img/food5.png"" style=""width:200px;border:14px solid red;"">","null","","","","","",""
"","image-keyboard-response","305","140657","0.0-305.0","3A1COHJ8NKH47GSARROIOZUA4TXH8F","A2TLN8489YGY81","3S829FDFT2NBOHQMM1CIOU0HZYXDXL","","729","img/food5.png","76","729.7999999970198","3","0","1","0.8,0.5,0,0.8,0,0.5,0.5,0.8,0,0,0.8,0.5",""
"","html-keyboard-response","306","140959","0.0-306.0","3A1COHJ8NKH47GSARROIOZUA4TXH8F","A2TLN8489YGY81","3S829FDFT2NBOHQMM1CIOU0HZYXDXL","","null","<img src=""img/food5.png"" style=""width:200px;border:14px solid red;"">","null","","","","","",""
"","image-keyboard-response","307","143207","0.0-307.0","3A1COHJ8NKH47GSARROIOZUA4TXH8F","A2TLN8489YGY81","3S829FDFT2NBOHQMM1CIOU0HZYXDXL","","2247.2000000029802","img/food2.png","74","2248.0999999940395","1","1","2","0.8,0.5,0,0.8,0,0.5,0.5,0.8,0,0,0.8,0.5",""
"","html-keyboard-response","308","143509","0.0-308.0","3A1COHJ8NKH47GSARROIOZUA4TXH8F","A2TLN8489YGY81","3S829FDFT2NBOHQMM1CIOU0HZYXDXL","","null","<img src=""img/food2.png"" style=""width:200px; border:14px solid green;"">","null","","","","","",""
"","image-keyboard-response","309","144744","0.0-309.0","3A1COHJ8NKH47GSARROIOZUA4TXH8F","A2TLN8489YGY81","3S829FDFT2NBOHQMM1CIOU0HZYXDXL","","1233.5","img/food5.png","75","1234.2000000029802","2","0","1","0.8,0.5,0,0.8,0,0.5,0.5,0.8,0,0,0.8,0.5",""
"","html-keyboard-response","310","145045","0.0-310.0","3A1COHJ8NKH47GSARROIOZUA4TXH8F","A2TLN8489YGY81","3S829FDFT2NBOHQMM1CIOU0HZYXDXL","","null","<img src=""img/food5.png"" style=""width:200px;border:14px solid red;"">","null","","","","","",""
"","image-keyboard-response","311","146165","0.0-311.0","3A1COHJ8NKH47GSARROIOZUA4TXH8F","A2TLN8489YGY81","3S829FDFT2NBOHQMM1CIOU0HZYXDXL","","1119","img/food6.png","75","1120","2","1","3","0.8,0.5,0,0.8,0,0.5,0.5,0.8,0,0,0.8,0.5",""
"","html-keyboard-response","312","146466","0.0-312.0","3A1COHJ8NKH47GSARROIOZUA4TXH8F","A2TLN8489YGY81","3S829FDFT2NBOHQMM1CIOU0HZYXDXL","","null","<img src=""img/food6.png"" style=""width:200px; border:14px solid green;"">","null","","","","","",""
"","image-keyboard-response","313","147134","0.0-313.0","3A1COHJ8NKH47GSARROIOZUA4TXH8F","A2TLN8489YGY81","3S829FDFT2NBOHQMM1CIOU0HZYXDXL","","666.7000000029802","img/food6.png","75","667.5","2","0","3","0.8,0.5,0,0.8,0,0.5,0.5,0.8,0,0,0.8,0.5",""
"","html-keyboard-response","314","147436","0.0-314.0","3A1COHJ8NKH47GSARROIOZUA4TXH8F","A2TLN8489YGY81","3S829FDFT2NBOHQMM1CIOU0HZYXDXL","","null","<img src=""img/food6.png"" style=""width:200px;border:14px solid red;"">","null","","","","","",""
"","image-keyboard-response","315","147817","0.0-315.0","3A1COHJ8NKH47GSARROIOZUA4TXH8F","A2TLN8489YGY81","3S829FDFT2NBOHQMM1CIOU0HZYXDXL","","380.20000000298023","img/food6.png","75","380.8999999985099","2","0","3","0.8,0.5,0,0.8,0,0.5,0.5,0.8,0,0,0.8,0.5",""
"","html-keyboard-response","316","148119","0.0-316.0","3A1COHJ8NKH47GSARROIOZUA4TXH8F","A2TLN8489YGY81","3S829FDFT2NBOHQMM1CIOU0HZYXDXL","","null","<img src=""img/food6.png"" style=""width:200px;border:14px solid red;"">","null","","","","","",""
"","image-keyboard-response","317","148429","0.0-317.0","3A1COHJ8NKH47GSARROIOZUA4TXH8F","A2TLN8489YGY81","3S829FDFT2NBOHQMM1CIOU0HZYXDXL","","309.5","img/food2.png","75","310.3999999985099","2","0","2","0.8,0.5,0,0.8,0,0.5,0.5,0.8,0,0,0.8,0.5",""
"","html-keyboard-response","318","148731","0.0-318.0","3A1COHJ8NKH47GSARROIOZUA4TXH8F","A2TLN8489YGY81","3S829FDFT2NBOHQMM1CIOU0HZYXDXL","","null","<img src=""img/food2.png"" style=""width:200px;border:14px solid red;"">","null","","","","","",""
"","image-keyboard-response","319","149402","0.0-319.0","3A1COHJ8NKH47GSARROIOZUA4TXH8F","A2TLN8489YGY81","3S829FDFT2NBOHQMM1CIOU0HZYXDXL","","670.5","img/food5.png","74","671.1999999955297","1","1","1","0.8,0.5,0,0.8,0,0.5,0.5,0.8,0,0,0.8,0.5",""
"","html-keyboard-response","320","149704","0.0-320.0","3A1COHJ8NKH47GSARROIOZUA4TXH8F","A2TLN8489YGY81","3S829FDFT2NBOHQMM1CIOU0HZYXDXL","","null","<img src=""img/food5.png"" style=""width:200px; border:14px solid green;"">","null","","","","","",""
"","image-keyboard-response","321","150094","0.0-321.0","3A1COHJ8NKH47GSARROIOZUA4TXH8F","A2TLN8489YGY81","3S829FDFT2NBOHQMM1CIOU0HZYXDXL","","389","img/food5.png","74","389.70000000298023","1","1","1","0.8,0.5,0,0.8,0,0.5,0.5,0.8,0,0,0.8,0.5",""
"","html-keyboard-response","322","150396","0.0-322.0","3A1COHJ8NKH47GSARROIOZUA4TXH8F","A2TLN8489YGY81","3S829FDFT2NBOHQMM1CIOU0HZYXDXL","","null","<img src=""img/food5.png"" style=""width:200px; border:14px solid green;"">","null","","","","","",""
"","image-keyboard-response","323","150602","0.0-323.0","3A1COHJ8NKH47GSARROIOZUA4TXH8F","A2TLN8489YGY81","3S829FDFT2NBOHQMM1CIOU0HZYXDXL","","205.60000000149012","img/food6.png","74","206.39999999850988","1","1","3","0.8,0.5,0,0.8,0,0.5,0.5,0.8,0,0,0.8,0.5",""
"","html-keyboard-response","324","150904","0.0-324.0","3A1COHJ8NKH47GSARROIOZUA4TXH8F","A2TLN8489YGY81","3S829FDFT2NBOHQMM1CIOU0HZYXDXL","","null","<img src=""img/food6.png"" style=""width:200px; border:14px solid green;"">","null","","","","","",""
"","image-keyboard-response","325","151587","0.0-325.0","3A1COHJ8NKH47GSARROIOZUA4TXH8F","A2TLN8489YGY81","3S829FDFT2NBOHQMM1CIOU0HZYXDXL","","679.3000000044703","img/food2.png","74","683.6999999955297","1","1","2","0.8,0.5,0,0.8,0,0.5,0.5,0.8,0,0,0.8,0.5",""
"","html-keyboard-response","326","151889","0.0-326.0","3A1COHJ8NKH47GSARROIOZUA4TXH8F","A2TLN8489YGY81","3S829FDFT2NBOHQMM1CIOU0HZYXDXL","","null","<img src=""img/food2.png"" style=""width:200px; border:14px solid green;"">","null","","","","","",""
"","image-keyboard-response","327","152411","0.0-327.0","3A1COHJ8NKH47GSARROIOZUA4TXH8F","A2TLN8489YGY81","3S829FDFT2NBOHQMM1CIOU0HZYXDXL","","521.3000000044703","img/food5.png","74","522.3999999985099","1","1","1","0.8,0.5,0,0.8,0,0.5,0.5,0.8,0,0,0.8,0.5",""
"","html-keyboard-response","328","152713","0.0-328.0","3A1COHJ8NKH47GSARROIOZUA4TXH8F","A2TLN8489YGY81","3S829FDFT2NBOHQMM1CIOU0HZYXDXL","","null","<img src=""img/food5.png"" style=""width:200px; border:14px solid green;"">","null","","","","","",""
"","image-keyboard-response","329","153526","0.0-329.0","3A1COHJ8NKH47GSARROIOZUA4TXH8F","A2TLN8489YGY81","3S829FDFT2NBOHQMM1CIOU0HZYXDXL","","812.6999999955297","img/food6.png","75","813.5","2","0","3","0.8,0.5,0,0.8,0,0.5,0.5,0.8,0,0,0.8,0.5",""
"","html-keyboard-response","330","153828","0.0-330.0","3A1COHJ8NKH47GSARROIOZUA4TXH8F","A2TLN8489YGY81","3S829FDFT2NBOHQMM1CIOU0HZYXDXL","","null","<img src=""img/food6.png"" style=""width:200px;border:14px solid red;"">","null","","","","","",""
"","image-keyboard-response","331","154864","0.0-331.0","3A1COHJ8NKH47GSARROIOZUA4TXH8F","A2TLN8489YGY81","3S829FDFT2NBOHQMM1CIOU0HZYXDXL","","1035.3999999985099","img/food6.png","75","1036.1000000014901","2","0","3","0.8,0.5,0,0.8,0,0.5,0.5,0.8,0,0,0.8,0.5",""
"","html-keyboard-response","332","155166","0.0-332.0","3A1COHJ8NKH47GSARROIOZUA4TXH8F","A2TLN8489YGY81","3S829FDFT2NBOHQMM1CIOU0HZYXDXL","","null","<img src=""img/food6.png"" style=""width:200px;border:14px solid red;"">","null","","","","","",""
"","image-keyboard-response","333","155493","0.0-333.0","3A1COHJ8NKH47GSARROIOZUA4TXH8F","A2TLN8489YGY81","3S829FDFT2NBOHQMM1CIOU0HZYXDXL","","326.3999999985099","img/food2.png","75","327.09999999403954","2","0","2","0.8,0.5,0,0.8,0,0.5,0.5,0.8,0,0,0.8,0.5",""
"","html-keyboard-response","334","155795","0.0-334.0","3A1COHJ8NKH47GSARROIOZUA4TXH8F","A2TLN8489YGY81","3S829FDFT2NBOHQMM1CIOU0HZYXDXL","","null","<img src=""img/food2.png"" style=""width:200px;border:14px solid red;"">","null","","","","","",""
"","image-keyboard-response","335","156235","0.0-335.0","3A1COHJ8NKH47GSARROIOZUA4TXH8F","A2TLN8489YGY81","3S829FDFT2NBOHQMM1CIOU0HZYXDXL","","438.19999999552965","img/food2.png","74","438.8999999985099","1","0","2","0.8,0.5,0,0.8,0,0.5,0.5,0.8,0,0,0.8,0.5",""
"","html-keyboard-response","336","156540","0.0-336.0","3A1COHJ8NKH47GSARROIOZUA4TXH8F","A2TLN8489YGY81","3S829FDFT2NBOHQMM1CIOU0HZYXDXL","","null","<img src=""img/food2.png"" style=""width:200px;border:14px solid red;"">","null","","","","","",""
"","image-keyboard-response","337","156851","0.0-337.0","3A1COHJ8NKH47GSARROIOZUA4TXH8F","A2TLN8489YGY81","3S829FDFT2NBOHQMM1CIOU0HZYXDXL","","310.5","img/food2.png","74","311.29999999701977","1","0","2","0.8,0.5,0,0.8,0,0.5,0.5,0.8,0,0,0.8,0.5",""
"","html-keyboard-response","338","157153","0.0-338.0","3A1COHJ8NKH47GSARROIOZUA4TXH8F","A2TLN8489YGY81","3S829FDFT2NBOHQMM1CIOU0HZYXDXL","","null","<img src=""img/food2.png"" style=""width:200px;border:14px solid red;"">","null","","","","","",""
"","image-keyboard-response","339","157389","0.0-339.0","3A1COHJ8NKH47GSARROIOZUA4TXH8F","A2TLN8489YGY81","3S829FDFT2NBOHQMM1CIOU0HZYXDXL","","235.40000000596046","img/food6.png","76","236.20000000298023","3","0","3","0.8,0.5,0,0.8,0,0.5,0.5,0.8,0,0,0.8,0.5",""
"","html-keyboard-response","340","157691","0.0-340.0","3A1COHJ8NKH47GSARROIOZUA4TXH8F","A2TLN8489YGY81","3S829FDFT2NBOHQMM1CIOU0HZYXDXL","","null","<img src=""img/food6.png"" style=""width:200px;border:14px solid red;"">","null","","","","","",""
"","image-keyboard-response","341","158039","0.0-341.0","3A1COHJ8NKH47GSARROIOZUA4TXH8F","A2TLN8489YGY81","3S829FDFT2NBOHQMM1CIOU0HZYXDXL","","346.8999999985099","img/food5.png","74","347.80000000447035","1","0","1","0.8,0.5,0,0.8,0,0.5,0.5,0.8,0,0,0.8,0.5",""
"","html-keyboard-response","342","158340","0.0-342.0","3A1COHJ8NKH47GSARROIOZUA4TXH8F","A2TLN8489YGY81","3S829FDFT2NBOHQMM1CIOU0HZYXDXL","","null","<img src=""img/food5.png"" style=""width:200px;border:14px solid red;"">","null","","","","","",""
"","image-keyboard-response","343","158829","0.0-343.0","3A1COHJ8NKH47GSARROIOZUA4TXH8F","A2TLN8489YGY81","3S829FDFT2NBOHQMM1CIOU0HZYXDXL","","488.1000000014901","img/food5.png","75","488.90000000596046","2","0","1","0.8,0.5,0,0.8,0,0.5,0.5,0.8,0,0,0.8,0.5",""
"","html-keyboard-response","344","159130","0.0-344.0","3A1COHJ8NKH47GSARROIOZUA4TXH8F","A2TLN8489YGY81","3S829FDFT2NBOHQMM1CIOU0HZYXDXL","","null","<img src=""img/food5.png"" style=""width:200px;border:14px solid red;"">","null","","","","","",""
"","image-keyboard-response","345","159662","0.0-345.0","3A1COHJ8NKH47GSARROIOZUA4TXH8F","A2TLN8489YGY81","3S829FDFT2NBOHQMM1CIOU0HZYXDXL","","530.1999999955297","img/food5.png","74","531","1","1","1","0.8,0.5,0,0.8,0,0.5,0.5,0.8,0,0,0.8,0.5",""
"","html-keyboard-response","346","159963","0.0-346.0","3A1COHJ8NKH47GSARROIOZUA4TXH8F","A2TLN8489YGY81","3S829FDFT2NBOHQMM1CIOU0HZYXDXL","","null","<img src=""img/food5.png"" style=""width:200px; border:14px solid green;"">","null","","","","","",""
"","image-keyboard-response","347","161523","0.0-347.0","3A1COHJ8NKH47GSARROIOZUA4TXH8F","A2TLN8489YGY81","3S829FDFT2NBOHQMM1CIOU0HZYXDXL","","1558.6999999955297","img/food6.png","75","1559.5","2","1","3","0.8,0.5,0,0.8,0,0.5,0.5,0.8,0,0,0.8,0.5",""
"","html-keyboard-response","348","161824","0.0-348.0","3A1COHJ8NKH47GSARROIOZUA4TXH8F","A2TLN8489YGY81","3S829FDFT2NBOHQMM1CIOU0HZYXDXL","","null","<img src=""img/food6.png"" style=""width:200px; border:14px solid green;"">","null","","","","","",""
"","image-keyboard-response","349","162517","0.0-349.0","3A1COHJ8NKH47GSARROIOZUA4TXH8F","A2TLN8489YGY81","3S829FDFT2NBOHQMM1CIOU0HZYXDXL","","691.6000000014901","img/food2.png","74","692.3999999985099","1","1","2","0.8,0.5,0,0.8,0,0.5,0.5,0.8,0,0,0.8,0.5",""
"","html-keyboard-response","350","162819","0.0-350.0","3A1COHJ8NKH47GSARROIOZUA4TXH8F","A2TLN8489YGY81","3S829FDFT2NBOHQMM1CIOU0HZYXDXL","","null","<img src=""img/food2.png"" style=""width:200px; border:14px solid green;"">","null","","","","","",""
"","image-keyboard-response","351","163465","0.0-351.0","3A1COHJ8NKH47GSARROIOZUA4TXH8F","A2TLN8489YGY81","3S829FDFT2NBOHQMM1CIOU0HZYXDXL","","645.2999999970198","img/food6.png","75","646","2","1","3","0.8,0.5,0,0.8,0,0.5,0.5,0.8,0,0,0.8,0.5",""
"","html-keyboard-response","352","163767","0.0-352.0","3A1COHJ8NKH47GSARROIOZUA4TXH8F","A2TLN8489YGY81","3S829FDFT2NBOHQMM1CIOU0HZYXDXL","","null","<img src=""img/food6.png"" style=""width:200px; border:14px solid green;"">","null","","","","","",""
"","image-keyboard-response","353","164281","0.0-353.0","3A1COHJ8NKH47GSARROIOZUA4TXH8F","A2TLN8489YGY81","3S829FDFT2NBOHQMM1CIOU0HZYXDXL","","513.1999999955297","img/food6.png","75","514","2","1","3","0.8,0.5,0,0.8,0,0.5,0.5,0.8,0,0,0.8,0.5",""
"","html-keyboard-response","354","164583","0.0-354.0","3A1COHJ8NKH47GSARROIOZUA4TXH8F","A2TLN8489YGY81","3S829FDFT2NBOHQMM1CIOU0HZYXDXL","","null","<img src=""img/food6.png"" style=""width:200px; border:14px solid green;"">","null","","","","","",""
"","image-keyboard-response","355","164926","0.0-355.0","3A1COHJ8NKH47GSARROIOZUA4TXH8F","A2TLN8489YGY81","3S829FDFT2NBOHQMM1CIOU0HZYXDXL","","342.70000000298023","img/food6.png","75","343.3999999985099","2","0","3","0.8,0.5,0,0.8,0,0.5,0.5,0.8,0,0,0.8,0.5",""
"","html-keyboard-response","356","165228","0.0-356.0","3A1COHJ8NKH47GSARROIOZUA4TXH8F","A2TLN8489YGY81","3S829FDFT2NBOHQMM1CIOU0HZYXDXL","","null","<img src=""img/food6.png"" style=""width:200px;border:14px solid red;"">","null","","","","","",""
"","image-keyboard-response","357","165904","0.0-357.0","3A1COHJ8NKH47GSARROIOZUA4TXH8F","A2TLN8489YGY81","3S829FDFT2NBOHQMM1CIOU0HZYXDXL","","674.8000000044703","img/food2.png","74","675.6000000014901","1","1","2","0.8,0.5,0,0.8,0,0.5,0.5,0.8,0,0,0.8,0.5",""
"","html-keyboard-response","358","166206","0.0-358.0","3A1COHJ8NKH47GSARROIOZUA4TXH8F","A2TLN8489YGY81","3S829FDFT2NBOHQMM1CIOU0HZYXDXL","","null","<img src=""img/food2.png"" style=""width:200px; border:14px solid green;"">","null","","","","","",""
"","image-keyboard-response","359","166616","0.0-359.0","3A1COHJ8NKH47GSARROIOZUA4TXH8F","A2TLN8489YGY81","3S829FDFT2NBOHQMM1CIOU0HZYXDXL","","409.09999999403954","img/food2.png","74","410","1","0","2","0.8,0.5,0,0.8,0,0.5,0.5,0.8,0,0,0.8,0.5",""
"","html-keyboard-response","360","166918","0.0-360.0","3A1COHJ8NKH47GSARROIOZUA4TXH8F","A2TLN8489YGY81","3S829FDFT2NBOHQMM1CIOU0HZYXDXL","","null","<img src=""img/food2.png"" style=""width:200px;border:14px solid red;"">","null","","","","","",""
"","image-keyboard-response","361","167909","0.0-361.0","3A1COHJ8NKH47GSARROIOZUA4TXH8F","A2TLN8489YGY81","3S829FDFT2NBOHQMM1CIOU0HZYXDXL","","990","img/food6.png","75","990.9000000059605","2","1","3","0.8,0.5,0,0.8,0,0.5,0.5,0.8,0,0,0.8,0.5",""
"","html-keyboard-response","362","168210","0.0-362.0","3A1COHJ8NKH47GSARROIOZUA4TXH8F","A2TLN8489YGY81","3S829FDFT2NBOHQMM1CIOU0HZYXDXL","","null","<img src=""img/food6.png"" style=""width:200px; border:14px solid green;"">","null","","","","","",""
"","instructions","363","169772","0.0-363.0","3A1COHJ8NKH47GSARROIOZUA4TXH8F","A2TLN8489YGY81","3S829FDFT2NBOHQMM1CIOU0HZYXDXL","[{""page_index"":0,""viewing_time"":1560.3999999985099}]","1560.6999999955297","","","","","","","",""
"","survey-text","364","173422","0.0-364.0","3A1COHJ8NKH47GSARROIOZUA4TXH8F","A2TLN8489YGY81","3S829FDFT2NBOHQMM1CIOU0HZYXDXL","","3647.5","","","","","","","","{""Q0"":""A2TLN8489YGY81""}"
