"success","trial_type","trial_index","time_elapsed","internal_node_id","assignmentID","mturkID","hitID","view_history","rt","stimulus","key_press","reactionTime","chosenAction","reward","responses"
"true","fullscreen","0","2030","0.0-0.0","3ZWFC4W1UVTQBPG0VA6ICVD2E4ORFF","A2V6E7SGEU0EFD","3LN3BXKGC0HZB1VNEMH4SWP73O3GW1","","","","","","","",""
"","instructions","1","123861","0.0-1.0","3ZWFC4W1UVTQBPG0VA6ICVD2E4ORFF","A2V6E7SGEU0EFD","3LN3BXKGC0HZB1VNEMH4SWP73O3GW1","[{""page_index"":0,""viewing_time"":728.7999999970198},{""page_index"":1,""viewing_time"":561.5},{""page_index"":2,""viewing_time"":272.80000000447035},{""page_index"":3,""viewing_time"":729.5999999940395},{""page_index"":4,""viewing_time"":1251.1000000014901},{""page_index"":5,""viewing_time"":1369},{""page_index"":6,""viewing_time"":116915.60000000149}]","121829.29999999702","","","","","",""
"","image-keyboard-response","2","125456","0.0-2.0","3ZWFC4W1UVTQBPG0VA6ICVD2E4ORFF","A2V6E7SGEU0EFD","3LN3BXKGC0HZB1VNEMH4SWP73O3GW1","","1592.3999999985099","img/food2.png","74","1594.3000000044703","74","1",""
"","html-keyboard-response","3","125762","0.0-3.0","3ZWFC4W1UVTQBPG0VA6ICVD2E4ORFF","A2V6E7SGEU0EFD","3LN3BXKGC0HZB1VNEMH4SWP73O3GW1","","null","<img src=""img/food2.png"" style=""width:200px; border:14px solid green;"">","null","","","",""
"","image-keyboard-response","4","126294","0.0-4.0","3ZWFC4W1UVTQBPG0VA6ICVD2E4ORFF","A2V6E7SGEU0EFD","3LN3BXKGC0HZB1VNEMH4SWP73O3GW1","","531.1000000014901","img/food2.png","74","532.1000000014901","74","1",""
"","html-keyboard-response","5","126609","0.0-5.0","3ZWFC4W1UVTQBPG0VA6ICVD2E4ORFF","A2V6E7SGEU0EFD","3LN3BXKGC0HZB1VNEMH4SWP73O3GW1","","null","<img src=""img/food2.png"" style=""width:200px; border:14px solid green;"">","null","","","",""
"","image-keyboard-response","6","127049","0.0-6.0","3ZWFC4W1UVTQBPG0VA6ICVD2E4ORFF","A2V6E7SGEU0EFD","3LN3BXKGC0HZB1VNEMH4SWP73O3GW1","","436.79999999701977","img/food4.png","75","438.5","75","0",""
"","html-keyboard-response","7","127356","0.0-7.0","3ZWFC4W1UVTQBPG0VA6ICVD2E4ORFF","A2V6E7SGEU0EFD","3LN3BXKGC0HZB1VNEMH4SWP73O3GW1","","null","<img src=""img/food4.png"" style=""width:200px;border:14px solid red;"">","null","","","",""
"","image-keyboard-response","8","127895","0.0-8.0","3ZWFC4W1UVTQBPG0VA6ICVD2E4ORFF","A2V6E7SGEU0EFD","3LN3BXKGC0HZB1VNEMH4SWP73O3GW1","","537.3000000044703","img/food2.png","74","539.3999999985099","74","1",""
"","html-keyboard-response","9","128197","0.0-9.0","3ZWFC4W1UVTQBPG0VA6ICVD2E4ORFF","A2V6E7SGEU0EFD","3LN3BXKGC0HZB1VNEMH4SWP73O3GW1","","null","<img src=""img/food2.png"" style=""width:200px; border:14px solid green;"">","null","","","",""
"","image-keyboard-response","10","129324","0.0-10.0","3ZWFC4W1UVTQBPG0VA6ICVD2E4ORFF","A2V6E7SGEU0EFD","3LN3BXKGC0HZB1VNEMH4SWP73O3GW1","","1125","img/food5.png","75","1126.3999999985099","75","0",""
"","html-keyboard-response","11","129625","0.0-11.0","3ZWFC4W1UVTQBPG0VA6ICVD2E4ORFF","A2V6E7SGEU0EFD","3LN3BXKGC0HZB1VNEMH4SWP73O3GW1","","null","<img src=""img/food5.png"" style=""width:200px;border:14px solid red;"">","null","","","",""
"","image-keyboard-response","12","129941","0.0-12.0","3ZWFC4W1UVTQBPG0VA6ICVD2E4ORFF","A2V6E7SGEU0EFD","3LN3BXKGC0HZB1VNEMH4SWP73O3GW1","","314","img/food5.png","75","315.20000000298023","75","0",""
"","html-keyboard-response","13","130243","0.0-13.0","3ZWFC4W1UVTQBPG0VA6ICVD2E4ORFF","A2V6E7SGEU0EFD","3LN3BXKGC0HZB1VNEMH4SWP73O3GW1","","null","<img src=""img/food5.png"" style=""width:200px;border:14px solid red;"">","null","","","",""
"","image-keyboard-response","14","130975","0.0-14.0","3ZWFC4W1UVTQBPG0VA6ICVD2E4ORFF","A2V6E7SGEU0EFD","3LN3BXKGC0HZB1VNEMH4SWP73O3GW1","","732.1000000014901","img/food4.png","75","732.6999999955297","75","0",""
"","html-keyboard-response","15","131278","0.0-15.0","3ZWFC4W1UVTQBPG0VA6ICVD2E4ORFF","A2V6E7SGEU0EFD","3LN3BXKGC0HZB1VNEMH4SWP73O3GW1","","null","<img src=""img/food4.png"" style=""width:200px;border:14px solid red;"">","null","","","",""
"","image-keyboard-response","16","131871","0.0-16.0","3ZWFC4W1UVTQBPG0VA6ICVD2E4ORFF","A2V6E7SGEU0EFD","3LN3BXKGC0HZB1VNEMH4SWP73O3GW1","","591.8000000044703","img/food2.png","74","593.1999999955297","74","1",""
"","html-keyboard-response","17","132173","0.0-17.0","3ZWFC4W1UVTQBPG0VA6ICVD2E4ORFF","A2V6E7SGEU0EFD","3LN3BXKGC0HZB1VNEMH4SWP73O3GW1","","null","<img src=""img/food2.png"" style=""width:200px; border:14px solid green;"">","null","","","",""
"","image-keyboard-response","18","132774","0.0-18.0","3ZWFC4W1UVTQBPG0VA6ICVD2E4ORFF","A2V6E7SGEU0EFD","3LN3BXKGC0HZB1VNEMH4SWP73O3GW1","","600.7999999970198","img/food5.png","76","601.5","76","1",""
"","html-keyboard-response","19","133076","0.0-19.0","3ZWFC4W1UVTQBPG0VA6ICVD2E4ORFF","A2V6E7SGEU0EFD","3LN3BXKGC0HZB1VNEMH4SWP73O3GW1","","null","<img src=""img/food5.png"" style=""width:200px; border:14px solid green;"">","null","","","",""
"","image-keyboard-response","20","133778","0.0-20.0","3ZWFC4W1UVTQBPG0VA6ICVD2E4ORFF","A2V6E7SGEU0EFD","3LN3BXKGC0HZB1VNEMH4SWP73O3GW1","","700.2999999970198","img/food4.png","76","701.2000000029802","76","0",""
"","html-keyboard-response","21","134080","0.0-21.0","3ZWFC4W1UVTQBPG0VA6ICVD2E4ORFF","A2V6E7SGEU0EFD","3LN3BXKGC0HZB1VNEMH4SWP73O3GW1","","null","<img src=""img/food4.png"" style=""width:200px;border:14px solid red;"">","null","","","",""
"","image-keyboard-response","22","134742","0.0-22.0","3ZWFC4W1UVTQBPG0VA6ICVD2E4ORFF","A2V6E7SGEU0EFD","3LN3BXKGC0HZB1VNEMH4SWP73O3GW1","","660.6999999955297","img/food5.png","74","662","74","0",""
"","html-keyboard-response","23","135043","0.0-23.0","3ZWFC4W1UVTQBPG0VA6ICVD2E4ORFF","A2V6E7SGEU0EFD","3LN3BXKGC0HZB1VNEMH4SWP73O3GW1","","null","<img src=""img/food5.png"" style=""width:200px;border:14px solid red;"">","null","","","",""
"","image-keyboard-response","24","136213","0.0-24.0","3ZWFC4W1UVTQBPG0VA6ICVD2E4ORFF","A2V6E7SGEU0EFD","3LN3BXKGC0HZB1VNEMH4SWP73O3GW1","","1168.7999999970198","img/food2.png","75","1169.8000000044703","75","1",""
"","html-keyboard-response","25","136515","0.0-25.0","3ZWFC4W1UVTQBPG0VA6ICVD2E4ORFF","A2V6E7SGEU0EFD","3LN3BXKGC0HZB1VNEMH4SWP73O3GW1","","null","<img src=""img/food2.png"" style=""width:200px; border:14px solid green;"">","null","","","",""
"","image-keyboard-response","26","137472","0.0-26.0","3ZWFC4W1UVTQBPG0VA6ICVD2E4ORFF","A2V6E7SGEU0EFD","3LN3BXKGC0HZB1VNEMH4SWP73O3GW1","","955.7000000029802","img/food5.png","76","956.6999999955297","76","0",""
"","html-keyboard-response","27","137774","0.0-27.0","3ZWFC4W1UVTQBPG0VA6ICVD2E4ORFF","A2V6E7SGEU0EFD","3LN3BXKGC0HZB1VNEMH4SWP73O3GW1","","null","<img src=""img/food5.png"" style=""width:200px;border:14px solid red;"">","null","","","",""
"","image-keyboard-response","28","139060","0.0-28.0","3ZWFC4W1UVTQBPG0VA6ICVD2E4ORFF","A2V6E7SGEU0EFD","3LN3BXKGC0HZB1VNEMH4SWP73O3GW1","","1284.8999999985099","img/food4.png","76","1286.3000000044703","76","0",""
"","html-keyboard-response","29","139362","0.0-29.0","3ZWFC4W1UVTQBPG0VA6ICVD2E4ORFF","A2V6E7SGEU0EFD","3LN3BXKGC0HZB1VNEMH4SWP73O3GW1","","null","<img src=""img/food4.png"" style=""width:200px;border:14px solid red;"">","null","","","",""
"","image-keyboard-response","30","140597","0.0-30.0","3ZWFC4W1UVTQBPG0VA6ICVD2E4ORFF","A2V6E7SGEU0EFD","3LN3BXKGC0HZB1VNEMH4SWP73O3GW1","","1234.6000000014901","img/food5.png","75","1235.4000000059605","75","0",""
"","html-keyboard-response","31","140898","0.0-31.0","3ZWFC4W1UVTQBPG0VA6ICVD2E4ORFF","A2V6E7SGEU0EFD","3LN3BXKGC0HZB1VNEMH4SWP73O3GW1","","null","<img src=""img/food5.png"" style=""width:200px;border:14px solid red;"">","null","","","",""
"","image-keyboard-response","32","141381","0.0-32.0","3ZWFC4W1UVTQBPG0VA6ICVD2E4ORFF","A2V6E7SGEU0EFD","3LN3BXKGC0HZB1VNEMH4SWP73O3GW1","","481","img/food5.png","74","482.5","74","1",""
"","html-keyboard-response","33","141682","0.0-33.0","3ZWFC4W1UVTQBPG0VA6ICVD2E4ORFF","A2V6E7SGEU0EFD","3LN3BXKGC0HZB1VNEMH4SWP73O3GW1","","null","<img src=""img/food5.png"" style=""width:200px; border:14px solid green;"">","null","","","",""
"","image-keyboard-response","34","142483","0.0-34.0","3ZWFC4W1UVTQBPG0VA6ICVD2E4ORFF","A2V6E7SGEU0EFD","3LN3BXKGC0HZB1VNEMH4SWP73O3GW1","","800.2000000029802","img/food2.png","76","800.8999999985099","76","0",""
"","html-keyboard-response","35","142785","0.0-35.0","3ZWFC4W1UVTQBPG0VA6ICVD2E4ORFF","A2V6E7SGEU0EFD","3LN3BXKGC0HZB1VNEMH4SWP73O3GW1","","null","<img src=""img/food2.png"" style=""width:200px;border:14px solid red;"">","null","","","",""
"","image-keyboard-response","36","143207","0.0-36.0","3ZWFC4W1UVTQBPG0VA6ICVD2E4ORFF","A2V6E7SGEU0EFD","3LN3BXKGC0HZB1VNEMH4SWP73O3GW1","","420.59999999403954","img/food2.png","76","421.69999999552965","76","0",""
"","html-keyboard-response","37","143520","0.0-37.0","3ZWFC4W1UVTQBPG0VA6ICVD2E4ORFF","A2V6E7SGEU0EFD","3LN3BXKGC0HZB1VNEMH4SWP73O3GW1","","null","<img src=""img/food2.png"" style=""width:200px;border:14px solid red;"">","null","","","",""
"","image-keyboard-response","38","143834","0.0-38.0","3ZWFC4W1UVTQBPG0VA6ICVD2E4ORFF","A2V6E7SGEU0EFD","3LN3BXKGC0HZB1VNEMH4SWP73O3GW1","","311.8999999985099","img/food2.png","75","313.20000000298023","75","1",""
"","html-keyboard-response","39","144135","0.0-39.0","3ZWFC4W1UVTQBPG0VA6ICVD2E4ORFF","A2V6E7SGEU0EFD","3LN3BXKGC0HZB1VNEMH4SWP73O3GW1","","null","<img src=""img/food2.png"" style=""width:200px; border:14px solid green;"">","null","","","",""
"","image-keyboard-response","40","144552","0.0-40.0","3ZWFC4W1UVTQBPG0VA6ICVD2E4ORFF","A2V6E7SGEU0EFD","3LN3BXKGC0HZB1VNEMH4SWP73O3GW1","","415.70000000298023","img/food2.png","75","416.30000000447035","75","1",""
"","html-keyboard-response","41","144853","0.0-41.0","3ZWFC4W1UVTQBPG0VA6ICVD2E4ORFF","A2V6E7SGEU0EFD","3LN3BXKGC0HZB1VNEMH4SWP73O3GW1","","null","<img src=""img/food2.png"" style=""width:200px; border:14px solid green;"">","null","","","",""
"","image-keyboard-response","42","145711","0.0-42.0","3ZWFC4W1UVTQBPG0VA6ICVD2E4ORFF","A2V6E7SGEU0EFD","3LN3BXKGC0HZB1VNEMH4SWP73O3GW1","","856.8999999985099","img/food5.png","74","858.3000000044703","74","0",""
"","html-keyboard-response","43","146012","0.0-43.0","3ZWFC4W1UVTQBPG0VA6ICVD2E4ORFF","A2V6E7SGEU0EFD","3LN3BXKGC0HZB1VNEMH4SWP73O3GW1","","null","<img src=""img/food5.png"" style=""width:200px;border:14px solid red;"">","null","","","",""
"","image-keyboard-response","44","146595","0.0-44.0","3ZWFC4W1UVTQBPG0VA6ICVD2E4ORFF","A2V6E7SGEU0EFD","3LN3BXKGC0HZB1VNEMH4SWP73O3GW1","","581.2000000029802","img/food5.png","76","582.5999999940395","76","0",""
"","html-keyboard-response","45","146897","0.0-45.0","3ZWFC4W1UVTQBPG0VA6ICVD2E4ORFF","A2V6E7SGEU0EFD","3LN3BXKGC0HZB1VNEMH4SWP73O3GW1","","null","<img src=""img/food5.png"" style=""width:200px;border:14px solid red;"">","null","","","",""
"","image-keyboard-response","46","147741","0.0-46.0","3ZWFC4W1UVTQBPG0VA6ICVD2E4ORFF","A2V6E7SGEU0EFD","3LN3BXKGC0HZB1VNEMH4SWP73O3GW1","","843.7000000029802","img/food2.png","75","844.5999999940395","75","1",""
"","html-keyboard-response","47","148043","0.0-47.0","3ZWFC4W1UVTQBPG0VA6ICVD2E4ORFF","A2V6E7SGEU0EFD","3LN3BXKGC0HZB1VNEMH4SWP73O3GW1","","null","<img src=""img/food2.png"" style=""width:200px; border:14px solid green;"">","null","","","",""
"","image-keyboard-response","48","149189","0.0-48.0","3ZWFC4W1UVTQBPG0VA6ICVD2E4ORFF","A2V6E7SGEU0EFD","3LN3BXKGC0HZB1VNEMH4SWP73O3GW1","","1144.1999999955297","img/food4.png","74","1144.8999999985099","74","1",""
"","html-keyboard-response","49","149489","0.0-49.0","3ZWFC4W1UVTQBPG0VA6ICVD2E4ORFF","A2V6E7SGEU0EFD","3LN3BXKGC0HZB1VNEMH4SWP73O3GW1","","null","<img src=""img/food4.png"" style=""width:200px; border:14px solid green;"">","null","","","",""
"","image-keyboard-response","50","150407","0.0-50.0","3ZWFC4W1UVTQBPG0VA6ICVD2E4ORFF","A2V6E7SGEU0EFD","3LN3BXKGC0HZB1VNEMH4SWP73O3GW1","","916.8000000044703","img/food2.png","74","917.3999999985099","74","1",""
"","html-keyboard-response","51","150709","0.0-51.0","3ZWFC4W1UVTQBPG0VA6ICVD2E4ORFF","A2V6E7SGEU0EFD","3LN3BXKGC0HZB1VNEMH4SWP73O3GW1","","null","<img src=""img/food2.png"" style=""width:200px; border:14px solid green;"">","null","","","",""
"","image-keyboard-response","52","151080","0.0-52.0","3ZWFC4W1UVTQBPG0VA6ICVD2E4ORFF","A2V6E7SGEU0EFD","3LN3BXKGC0HZB1VNEMH4SWP73O3GW1","","370","img/food2.png","74","370.8999999985099","74","0",""
"","html-keyboard-response","53","151382","0.0-53.0","3ZWFC4W1UVTQBPG0VA6ICVD2E4ORFF","A2V6E7SGEU0EFD","3LN3BXKGC0HZB1VNEMH4SWP73O3GW1","","null","<img src=""img/food2.png"" style=""width:200px;border:14px solid red;"">","null","","","",""
"","image-keyboard-response","54","152101","0.0-54.0","3ZWFC4W1UVTQBPG0VA6ICVD2E4ORFF","A2V6E7SGEU0EFD","3LN3BXKGC0HZB1VNEMH4SWP73O3GW1","","717.6000000014901","img/food2.png","74","718.6000000014901","74","0",""
"","html-keyboard-response","55","152402","0.0-55.0","3ZWFC4W1UVTQBPG0VA6ICVD2E4ORFF","A2V6E7SGEU0EFD","3LN3BXKGC0HZB1VNEMH4SWP73O3GW1","","null","<img src=""img/food2.png"" style=""width:200px;border:14px solid red;"">","null","","","",""
"","image-keyboard-response","56","153242","0.0-56.0","3ZWFC4W1UVTQBPG0VA6ICVD2E4ORFF","A2V6E7SGEU0EFD","3LN3BXKGC0HZB1VNEMH4SWP73O3GW1","","839.5","img/food4.png","74","840","74","1",""
"","html-keyboard-response","57","153544","0.0-57.0","3ZWFC4W1UVTQBPG0VA6ICVD2E4ORFF","A2V6E7SGEU0EFD","3LN3BXKGC0HZB1VNEMH4SWP73O3GW1","","null","<img src=""img/food4.png"" style=""width:200px; border:14px solid green;"">","null","","","",""
"","image-keyboard-response","58","154731","0.0-58.0","3ZWFC4W1UVTQBPG0VA6ICVD2E4ORFF","A2V6E7SGEU0EFD","3LN3BXKGC0HZB1VNEMH4SWP73O3GW1","","1185.7999999970198","img/food5.png","76","1186.5","76","0",""
"","html-keyboard-response","59","155032","0.0-59.0","3ZWFC4W1UVTQBPG0VA6ICVD2E4ORFF","A2V6E7SGEU0EFD","3LN3BXKGC0HZB1VNEMH4SWP73O3GW1","","null","<img src=""img/food5.png"" style=""width:200px;border:14px solid red;"">","null","","","",""
"","image-keyboard-response","60","155881","0.0-60.0","3ZWFC4W1UVTQBPG0VA6ICVD2E4ORFF","A2V6E7SGEU0EFD","3LN3BXKGC0HZB1VNEMH4SWP73O3GW1","","847.6000000014901","img/food4.png","74","848.5","74","1",""
"","html-keyboard-response","61","156183","0.0-61.0","3ZWFC4W1UVTQBPG0VA6ICVD2E4ORFF","A2V6E7SGEU0EFD","3LN3BXKGC0HZB1VNEMH4SWP73O3GW1","","null","<img src=""img/food4.png"" style=""width:200px; border:14px solid green;"">","null","","","",""
"","image-keyboard-response","62","158599","0.0-62.0","3ZWFC4W1UVTQBPG0VA6ICVD2E4ORFF","A2V6E7SGEU0EFD","3LN3BXKGC0HZB1VNEMH4SWP73O3GW1","","2415.89999999851","img/food5.png","75","2416.60000000149","75","0",""
"","html-keyboard-response","63","158901","0.0-63.0","3ZWFC4W1UVTQBPG0VA6ICVD2E4ORFF","A2V6E7SGEU0EFD","3LN3BXKGC0HZB1VNEMH4SWP73O3GW1","","null","<img src=""img/food5.png"" style=""width:200px;border:14px solid red;"">","null","","","",""
"","image-keyboard-response","64","159515","0.0-64.0","3ZWFC4W1UVTQBPG0VA6ICVD2E4ORFF","A2V6E7SGEU0EFD","3LN3BXKGC0HZB1VNEMH4SWP73O3GW1","","613.2000000029802","img/food4.png","74","614.1999999955297","74","0",""
"","html-keyboard-response","65","159817","0.0-65.0","3ZWFC4W1UVTQBPG0VA6ICVD2E4ORFF","A2V6E7SGEU0EFD","3LN3BXKGC0HZB1VNEMH4SWP73O3GW1","","null","<img src=""img/food4.png"" style=""width:200px;border:14px solid red;"">","null","","","",""
"","image-keyboard-response","66","160176","0.0-66.0","3ZWFC4W1UVTQBPG0VA6ICVD2E4ORFF","A2V6E7SGEU0EFD","3LN3BXKGC0HZB1VNEMH4SWP73O3GW1","","357.5","img/food4.png","75","358.3999999985099","75","1",""
"","html-keyboard-response","67","160478","0.0-67.0","3ZWFC4W1UVTQBPG0VA6ICVD2E4ORFF","A2V6E7SGEU0EFD","3LN3BXKGC0HZB1VNEMH4SWP73O3GW1","","null","<img src=""img/food4.png"" style=""width:200px; border:14px solid green;"">","null","","","",""
"","image-keyboard-response","68","160809","0.0-68.0","3ZWFC4W1UVTQBPG0VA6ICVD2E4ORFF","A2V6E7SGEU0EFD","3LN3BXKGC0HZB1VNEMH4SWP73O3GW1","","330.1000000014901","img/food4.png","75","331","75","1",""
"","html-keyboard-response","69","161110","0.0-69.0","3ZWFC4W1UVTQBPG0VA6ICVD2E4ORFF","A2V6E7SGEU0EFD","3LN3BXKGC0HZB1VNEMH4SWP73O3GW1","","null","<img src=""img/food4.png"" style=""width:200px; border:14px solid green;"">","null","","","",""
"","image-keyboard-response","70","161383","0.0-70.0","3ZWFC4W1UVTQBPG0VA6ICVD2E4ORFF","A2V6E7SGEU0EFD","3LN3BXKGC0HZB1VNEMH4SWP73O3GW1","","269.1000000014901","img/food4.png","75","270.5","75","1",""
"","html-keyboard-response","71","161684","0.0-71.0","3ZWFC4W1UVTQBPG0VA6ICVD2E4ORFF","A2V6E7SGEU0EFD","3LN3BXKGC0HZB1VNEMH4SWP73O3GW1","","null","<img src=""img/food4.png"" style=""width:200px; border:14px solid green;"">","null","","","",""
"","image-keyboard-response","72","162441","0.0-72.0","3ZWFC4W1UVTQBPG0VA6ICVD2E4ORFF","A2V6E7SGEU0EFD","3LN3BXKGC0HZB1VNEMH4SWP73O3GW1","","757","img/food5.png","74","757.7999999970198","74","1",""
"","html-keyboard-response","73","162743","0.0-73.0","3ZWFC4W1UVTQBPG0VA6ICVD2E4ORFF","A2V6E7SGEU0EFD","3LN3BXKGC0HZB1VNEMH4SWP73O3GW1","","null","<img src=""img/food5.png"" style=""width:200px; border:14px solid green;"">","null","","","",""
"","image-keyboard-response","74","163342","0.0-74.0","3ZWFC4W1UVTQBPG0VA6ICVD2E4ORFF","A2V6E7SGEU0EFD","3LN3BXKGC0HZB1VNEMH4SWP73O3GW1","","597.7000000029802","img/food4.png","75","598.3999999985099","75","1",""
"","html-keyboard-response","75","163643","0.0-75.0","3ZWFC4W1UVTQBPG0VA6ICVD2E4ORFF","A2V6E7SGEU0EFD","3LN3BXKGC0HZB1VNEMH4SWP73O3GW1","","null","<img src=""img/food4.png"" style=""width:200px; border:14px solid green;"">","null","","","",""
"","image-keyboard-response","76","163944","0.0-76.0","3ZWFC4W1UVTQBPG0VA6ICVD2E4ORFF","A2V6E7SGEU0EFD","3LN3BXKGC0HZB1VNEMH4SWP73O3GW1","","299.3999999985099","img/food4.png","75","300.5","75","0",""
"","html-keyboard-response","77","164245","0.0-77.0","3ZWFC4W1UVTQBPG0VA6ICVD2E4ORFF","A2V6E7SGEU0EFD","3LN3BXKGC0HZB1VNEMH4SWP73O3GW1","","null","<img src=""img/food4.png"" style=""width:200px;border:14px solid red;"">","null","","","",""
"","image-keyboard-response","78","164772","0.0-78.0","3ZWFC4W1UVTQBPG0VA6ICVD2E4ORFF","A2V6E7SGEU0EFD","3LN3BXKGC0HZB1VNEMH4SWP73O3GW1","","526.8999999985099","img/food5.png","74","527.6999999955297","74","1",""
"","html-keyboard-response","79","165074","0.0-79.0","3ZWFC4W1UVTQBPG0VA6ICVD2E4ORFF","A2V6E7SGEU0EFD","3LN3BXKGC0HZB1VNEMH4SWP73O3GW1","","null","<img src=""img/food5.png"" style=""width:200px; border:14px solid green;"">","null","","","",""
"","image-keyboard-response","80","165844","0.0-80.0","3ZWFC4W1UVTQBPG0VA6ICVD2E4ORFF","A2V6E7SGEU0EFD","3LN3BXKGC0HZB1VNEMH4SWP73O3GW1","","769.5999999940395","img/food4.png","75","770.2999999970198","75","0",""
"","html-keyboard-response","81","166146","0.0-81.0","3ZWFC4W1UVTQBPG0VA6ICVD2E4ORFF","A2V6E7SGEU0EFD","3LN3BXKGC0HZB1VNEMH4SWP73O3GW1","","null","<img src=""img/food4.png"" style=""width:200px;border:14px solid red;"">","null","","","",""
"","image-keyboard-response","82","166880","0.0-82.0","3ZWFC4W1UVTQBPG0VA6ICVD2E4ORFF","A2V6E7SGEU0EFD","3LN3BXKGC0HZB1VNEMH4SWP73O3GW1","","732","img/food5.png","75","733.2000000029802","75","0",""
"","html-keyboard-response","83","167181","0.0-83.0","3ZWFC4W1UVTQBPG0VA6ICVD2E4ORFF","A2V6E7SGEU0EFD","3LN3BXKGC0HZB1VNEMH4SWP73O3GW1","","null","<img src=""img/food5.png"" style=""width:200px;border:14px solid red;"">","null","","","",""
"","image-keyboard-response","84","167599","0.0-84.0","3ZWFC4W1UVTQBPG0VA6ICVD2E4ORFF","A2V6E7SGEU0EFD","3LN3BXKGC0HZB1VNEMH4SWP73O3GW1","","417.20000000298023","img/food5.png","74","417.90000000596046","74","0",""
"","html-keyboard-response","85","167901","0.0-85.0","3ZWFC4W1UVTQBPG0VA6ICVD2E4ORFF","A2V6E7SGEU0EFD","3LN3BXKGC0HZB1VNEMH4SWP73O3GW1","","null","<img src=""img/food5.png"" style=""width:200px;border:14px solid red;"">","null","","","",""
"","image-keyboard-response","86","168520","0.0-86.0","3ZWFC4W1UVTQBPG0VA6ICVD2E4ORFF","A2V6E7SGEU0EFD","3LN3BXKGC0HZB1VNEMH4SWP73O3GW1","","617.9000000059605","img/food4.png","75","618.6999999955297","75","1",""
"","html-keyboard-response","87","168822","0.0-87.0","3ZWFC4W1UVTQBPG0VA6ICVD2E4ORFF","A2V6E7SGEU0EFD","3LN3BXKGC0HZB1VNEMH4SWP73O3GW1","","null","<img src=""img/food4.png"" style=""width:200px; border:14px solid green;"">","null","","","",""
"","image-keyboard-response","88","169209","0.0-88.0","3ZWFC4W1UVTQBPG0VA6ICVD2E4ORFF","A2V6E7SGEU0EFD","3LN3BXKGC0HZB1VNEMH4SWP73O3GW1","","387","img/food4.png","75","387.5","75","0",""
"","html-keyboard-response","89","169511","0.0-89.0","3ZWFC4W1UVTQBPG0VA6ICVD2E4ORFF","A2V6E7SGEU0EFD","3LN3BXKGC0HZB1VNEMH4SWP73O3GW1","","null","<img src=""img/food4.png"" style=""width:200px;border:14px solid red;"">","null","","","",""
"","image-keyboard-response","90","170203","0.0-90.0","3ZWFC4W1UVTQBPG0VA6ICVD2E4ORFF","A2V6E7SGEU0EFD","3LN3BXKGC0HZB1VNEMH4SWP73O3GW1","","691.2999999970198","img/food5.png","76","692","76","0",""
"","html-keyboard-response","91","170504","0.0-91.0","3ZWFC4W1UVTQBPG0VA6ICVD2E4ORFF","A2V6E7SGEU0EFD","3LN3BXKGC0HZB1VNEMH4SWP73O3GW1","","null","<img src=""img/food5.png"" style=""width:200px;border:14px solid red;"">","null","","","",""
"","image-keyboard-response","92","170864","0.0-92.0","3ZWFC4W1UVTQBPG0VA6ICVD2E4ORFF","A2V6E7SGEU0EFD","3LN3BXKGC0HZB1VNEMH4SWP73O3GW1","","358.8999999985099","img/food5.png","75","359.5","75","0",""
"","html-keyboard-response","93","171165","0.0-93.0","3ZWFC4W1UVTQBPG0VA6ICVD2E4ORFF","A2V6E7SGEU0EFD","3LN3BXKGC0HZB1VNEMH4SWP73O3GW1","","null","<img src=""img/food5.png"" style=""width:200px;border:14px solid red;"">","null","","","",""
"","image-keyboard-response","94","171890","0.0-94.0","3ZWFC4W1UVTQBPG0VA6ICVD2E4ORFF","A2V6E7SGEU0EFD","3LN3BXKGC0HZB1VNEMH4SWP73O3GW1","","724.3999999985099","img/food2.png","74","725","74","1",""
"","html-keyboard-response","95","172191","0.0-95.0","3ZWFC4W1UVTQBPG0VA6ICVD2E4ORFF","A2V6E7SGEU0EFD","3LN3BXKGC0HZB1VNEMH4SWP73O3GW1","","null","<img src=""img/food2.png"" style=""width:200px; border:14px solid green;"">","null","","","",""
"","image-keyboard-response","96","173015","0.0-96.0","3ZWFC4W1UVTQBPG0VA6ICVD2E4ORFF","A2V6E7SGEU0EFD","3LN3BXKGC0HZB1VNEMH4SWP73O3GW1","","822.3000000044703","img/food5.png","74","823.5","74","1",""
"","html-keyboard-response","97","173316","0.0-97.0","3ZWFC4W1UVTQBPG0VA6ICVD2E4ORFF","A2V6E7SGEU0EFD","3LN3BXKGC0HZB1VNEMH4SWP73O3GW1","","null","<img src=""img/food5.png"" style=""width:200px; border:14px solid green;"">","null","","","",""
"","image-keyboard-response","98","173605","0.0-98.0","3ZWFC4W1UVTQBPG0VA6ICVD2E4ORFF","A2V6E7SGEU0EFD","3LN3BXKGC0HZB1VNEMH4SWP73O3GW1","","287","img/food5.png","74","288.1000000014901","74","1",""
"","html-keyboard-response","99","173906","0.0-99.0","3ZWFC4W1UVTQBPG0VA6ICVD2E4ORFF","A2V6E7SGEU0EFD","3LN3BXKGC0HZB1VNEMH4SWP73O3GW1","","null","<img src=""img/food5.png"" style=""width:200px; border:14px solid green;"">","null","","","",""
"","image-keyboard-response","100","174539","0.0-100.0","3ZWFC4W1UVTQBPG0VA6ICVD2E4ORFF","A2V6E7SGEU0EFD","3LN3BXKGC0HZB1VNEMH4SWP73O3GW1","","631.6999999955297","img/food2.png","74","632.2999999970198","74","1",""
"","html-keyboard-response","101","174840","0.0-101.0","3ZWFC4W1UVTQBPG0VA6ICVD2E4ORFF","A2V6E7SGEU0EFD","3LN3BXKGC0HZB1VNEMH4SWP73O3GW1","","null","<img src=""img/food2.png"" style=""width:200px; border:14px solid green;"">","null","","","",""
"","image-keyboard-response","102","175335","0.0-102.0","3ZWFC4W1UVTQBPG0VA6ICVD2E4ORFF","A2V6E7SGEU0EFD","3LN3BXKGC0HZB1VNEMH4SWP73O3GW1","","494.20000000298023","img/food5.png","74","494.80000000447035","74","0",""
"","html-keyboard-response","103","175637","0.0-103.0","3ZWFC4W1UVTQBPG0VA6ICVD2E4ORFF","A2V6E7SGEU0EFD","3LN3BXKGC0HZB1VNEMH4SWP73O3GW1","","null","<img src=""img/food5.png"" style=""width:200px;border:14px solid red;"">","null","","","",""
"","image-keyboard-response","104","176231","0.0-104.0","3ZWFC4W1UVTQBPG0VA6ICVD2E4ORFF","A2V6E7SGEU0EFD","3LN3BXKGC0HZB1VNEMH4SWP73O3GW1","","593.2999999970198","img/food2.png","74","594.1000000014901","74","0",""
"","html-keyboard-response","105","176533","0.0-105.0","3ZWFC4W1UVTQBPG0VA6ICVD2E4ORFF","A2V6E7SGEU0EFD","3LN3BXKGC0HZB1VNEMH4SWP73O3GW1","","null","<img src=""img/food2.png"" style=""width:200px;border:14px solid red;"">","null","","","",""
"","image-keyboard-response","106","177253","0.0-106.0","3ZWFC4W1UVTQBPG0VA6ICVD2E4ORFF","A2V6E7SGEU0EFD","3LN3BXKGC0HZB1VNEMH4SWP73O3GW1","","718.2000000029802","img/food4.png","75","719.5999999940395","75","0",""
"","html-keyboard-response","107","177555","0.0-107.0","3ZWFC4W1UVTQBPG0VA6ICVD2E4ORFF","A2V6E7SGEU0EFD","3LN3BXKGC0HZB1VNEMH4SWP73O3GW1","","null","<img src=""img/food4.png"" style=""width:200px;border:14px solid red;"">","null","","","",""
"","image-keyboard-response","108","178148","0.0-108.0","3ZWFC4W1UVTQBPG0VA6ICVD2E4ORFF","A2V6E7SGEU0EFD","3LN3BXKGC0HZB1VNEMH4SWP73O3GW1","","592.7000000029802","img/food2.png","74","593.4000000059605","74","1",""
"","html-keyboard-response","109","178450","0.0-109.0","3ZWFC4W1UVTQBPG0VA6ICVD2E4ORFF","A2V6E7SGEU0EFD","3LN3BXKGC0HZB1VNEMH4SWP73O3GW1","","null","<img src=""img/food2.png"" style=""width:200px; border:14px solid green;"">","null","","","",""
"","image-keyboard-response","110","178887","0.0-110.0","3ZWFC4W1UVTQBPG0VA6ICVD2E4ORFF","A2V6E7SGEU0EFD","3LN3BXKGC0HZB1VNEMH4SWP73O3GW1","","436.40000000596046","img/food5.png","74","436.90000000596046","74","1",""
"","html-keyboard-response","111","179188","0.0-111.0","3ZWFC4W1UVTQBPG0VA6ICVD2E4ORFF","A2V6E7SGEU0EFD","3LN3BXKGC0HZB1VNEMH4SWP73O3GW1","","null","<img src=""img/food5.png"" style=""width:200px; border:14px solid green;"">","null","","","",""
"","image-keyboard-response","112","179664","0.0-112.0","3ZWFC4W1UVTQBPG0VA6ICVD2E4ORFF","A2V6E7SGEU0EFD","3LN3BXKGC0HZB1VNEMH4SWP73O3GW1","","474.30000000447035","img/food2.png","74","475.3999999985099","74","0",""
"","html-keyboard-response","113","179965","0.0-113.0","3ZWFC4W1UVTQBPG0VA6ICVD2E4ORFF","A2V6E7SGEU0EFD","3LN3BXKGC0HZB1VNEMH4SWP73O3GW1","","null","<img src=""img/food2.png"" style=""width:200px;border:14px solid red;"">","null","","","",""
"","image-keyboard-response","114","180539","0.0-114.0","3ZWFC4W1UVTQBPG0VA6ICVD2E4ORFF","A2V6E7SGEU0EFD","3LN3BXKGC0HZB1VNEMH4SWP73O3GW1","","572.7999999970198","img/food5.png","74","573.6000000014901","74","1",""
"","html-keyboard-response","115","180851","0.0-115.0","3ZWFC4W1UVTQBPG0VA6ICVD2E4ORFF","A2V6E7SGEU0EFD","3LN3BXKGC0HZB1VNEMH4SWP73O3GW1","","null","<img src=""img/food5.png"" style=""width:200px; border:14px solid green;"">","null","","","",""
"","image-keyboard-response","116","181619","0.0-116.0","3ZWFC4W1UVTQBPG0VA6ICVD2E4ORFF","A2V6E7SGEU0EFD","3LN3BXKGC0HZB1VNEMH4SWP73O3GW1","","767.5","img/food2.png","74","768.3000000044703","74","1",""
"","html-keyboard-response","117","181920","0.0-117.0","3ZWFC4W1UVTQBPG0VA6ICVD2E4ORFF","A2V6E7SGEU0EFD","3LN3BXKGC0HZB1VNEMH4SWP73O3GW1","","null","<img src=""img/food2.png"" style=""width:200px; border:14px solid green;"">","null","","","",""
"","image-keyboard-response","118","182640","0.0-118.0","3ZWFC4W1UVTQBPG0VA6ICVD2E4ORFF","A2V6E7SGEU0EFD","3LN3BXKGC0HZB1VNEMH4SWP73O3GW1","","719.5","img/food4.png","75","720.1000000014901","75","1",""
"","html-keyboard-response","119","182941","0.0-119.0","3ZWFC4W1UVTQBPG0VA6ICVD2E4ORFF","A2V6E7SGEU0EFD","3LN3BXKGC0HZB1VNEMH4SWP73O3GW1","","null","<img src=""img/food4.png"" style=""width:200px; border:14px solid green;"">","null","","","",""
"","image-keyboard-response","120","183294","0.0-120.0","3ZWFC4W1UVTQBPG0VA6ICVD2E4ORFF","A2V6E7SGEU0EFD","3LN3BXKGC0HZB1VNEMH4SWP73O3GW1","","352.20000000298023","img/food4.png","74","352.79999999701977","74","1",""
"","html-keyboard-response","121","183602","0.0-121.0","3ZWFC4W1UVTQBPG0VA6ICVD2E4ORFF","A2V6E7SGEU0EFD","3LN3BXKGC0HZB1VNEMH4SWP73O3GW1","","null","<img src=""img/food4.png"" style=""width:200px; border:14px solid green;"">","null","","","",""
"","image-keyboard-response","122","184571","0.0-122.0","3ZWFC4W1UVTQBPG0VA6ICVD2E4ORFF","A2V6E7SGEU0EFD","3LN3BXKGC0HZB1VNEMH4SWP73O3GW1","","968.1000000014901","img/food2.png","74","968.6999999955297","74","0",""
"","html-keyboard-response","123","184872","0.0-123.0","3ZWFC4W1UVTQBPG0VA6ICVD2E4ORFF","A2V6E7SGEU0EFD","3LN3BXKGC0HZB1VNEMH4SWP73O3GW1","","null","<img src=""img/food2.png"" style=""width:200px;border:14px solid red;"">","null","","","",""
"","image-keyboard-response","124","185283","0.0-124.0","3ZWFC4W1UVTQBPG0VA6ICVD2E4ORFF","A2V6E7SGEU0EFD","3LN3BXKGC0HZB1VNEMH4SWP73O3GW1","","409.8999999985099","img/food2.png","75","411","75","1",""
"","html-keyboard-response","125","185585","0.0-125.0","3ZWFC4W1UVTQBPG0VA6ICVD2E4ORFF","A2V6E7SGEU0EFD","3LN3BXKGC0HZB1VNEMH4SWP73O3GW1","","null","<img src=""img/food2.png"" style=""width:200px; border:14px solid green;"">","null","","","",""
"","image-keyboard-response","126","185974","0.0-126.0","3ZWFC4W1UVTQBPG0VA6ICVD2E4ORFF","A2V6E7SGEU0EFD","3LN3BXKGC0HZB1VNEMH4SWP73O3GW1","","387.59999999403954","img/food2.png","75","388.1000000014901","75","1",""
"","html-keyboard-response","127","186275","0.0-127.0","3ZWFC4W1UVTQBPG0VA6ICVD2E4ORFF","A2V6E7SGEU0EFD","3LN3BXKGC0HZB1VNEMH4SWP73O3GW1","","null","<img src=""img/food2.png"" style=""width:200px; border:14px solid green;"">","null","","","",""
"","image-keyboard-response","128","186551","0.0-128.0","3ZWFC4W1UVTQBPG0VA6ICVD2E4ORFF","A2V6E7SGEU0EFD","3LN3BXKGC0HZB1VNEMH4SWP73O3GW1","","275.1000000014901","img/food2.png","75","276.19999999552965","75","1",""
"","html-keyboard-response","129","186854","0.0-129.0","3ZWFC4W1UVTQBPG0VA6ICVD2E4ORFF","A2V6E7SGEU0EFD","3LN3BXKGC0HZB1VNEMH4SWP73O3GW1","","null","<img src=""img/food2.png"" style=""width:200px; border:14px solid green;"">","null","","","",""
"","image-keyboard-response","130","187557","0.0-130.0","3ZWFC4W1UVTQBPG0VA6ICVD2E4ORFF","A2V6E7SGEU0EFD","3LN3BXKGC0HZB1VNEMH4SWP73O3GW1","","702.1999999955297","img/food4.png","74","702.7999999970198","74","0",""
"","html-keyboard-response","131","187859","0.0-131.0","3ZWFC4W1UVTQBPG0VA6ICVD2E4ORFF","A2V6E7SGEU0EFD","3LN3BXKGC0HZB1VNEMH4SWP73O3GW1","","null","<img src=""img/food4.png"" style=""width:200px;border:14px solid red;"">","null","","","",""
"","image-keyboard-response","132","188369","0.0-132.0","3ZWFC4W1UVTQBPG0VA6ICVD2E4ORFF","A2V6E7SGEU0EFD","3LN3BXKGC0HZB1VNEMH4SWP73O3GW1","","508.3999999985099","img/food2.png","75","509.20000000298023","75","1",""
"","html-keyboard-response","133","188670","0.0-133.0","3ZWFC4W1UVTQBPG0VA6ICVD2E4ORFF","A2V6E7SGEU0EFD","3LN3BXKGC0HZB1VNEMH4SWP73O3GW1","","null","<img src=""img/food2.png"" style=""width:200px; border:14px solid green;"">","null","","","",""
"","image-keyboard-response","134","189328","0.0-134.0","3ZWFC4W1UVTQBPG0VA6ICVD2E4ORFF","A2V6E7SGEU0EFD","3LN3BXKGC0HZB1VNEMH4SWP73O3GW1","","656.5","img/food4.png","76","657.6000000014901","76","0",""
"","html-keyboard-response","135","189629","0.0-135.0","3ZWFC4W1UVTQBPG0VA6ICVD2E4ORFF","A2V6E7SGEU0EFD","3LN3BXKGC0HZB1VNEMH4SWP73O3GW1","","null","<img src=""img/food4.png"" style=""width:200px;border:14px solid red;"">","null","","","",""
"","image-keyboard-response","136","189988","0.0-136.0","3ZWFC4W1UVTQBPG0VA6ICVD2E4ORFF","A2V6E7SGEU0EFD","3LN3BXKGC0HZB1VNEMH4SWP73O3GW1","","358.30000000447035","img/food4.png","75","359","75","1",""
"","html-keyboard-response","137","190291","0.0-137.0","3ZWFC4W1UVTQBPG0VA6ICVD2E4ORFF","A2V6E7SGEU0EFD","3LN3BXKGC0HZB1VNEMH4SWP73O3GW1","","null","<img src=""img/food4.png"" style=""width:200px; border:14px solid green;"">","null","","","",""
"","image-keyboard-response","138","190664","0.0-138.0","3ZWFC4W1UVTQBPG0VA6ICVD2E4ORFF","A2V6E7SGEU0EFD","3LN3BXKGC0HZB1VNEMH4SWP73O3GW1","","371.90000000596046","img/food4.png","75","373.1000000014901","75","1",""
"","html-keyboard-response","139","190965","0.0-139.0","3ZWFC4W1UVTQBPG0VA6ICVD2E4ORFF","A2V6E7SGEU0EFD","3LN3BXKGC0HZB1VNEMH4SWP73O3GW1","","null","<img src=""img/food4.png"" style=""width:200px; border:14px solid green;"">","null","","","",""
"","image-keyboard-response","140","191230","0.0-140.0","3ZWFC4W1UVTQBPG0VA6ICVD2E4ORFF","A2V6E7SGEU0EFD","3LN3BXKGC0HZB1VNEMH4SWP73O3GW1","","264.20000000298023","img/food4.png","75","264.90000000596046","75","1",""
"","html-keyboard-response","141","191532","0.0-141.0","3ZWFC4W1UVTQBPG0VA6ICVD2E4ORFF","A2V6E7SGEU0EFD","3LN3BXKGC0HZB1VNEMH4SWP73O3GW1","","null","<img src=""img/food4.png"" style=""width:200px; border:14px solid green;"">","null","","","",""
"","image-keyboard-response","142","191829","0.0-142.0","3ZWFC4W1UVTQBPG0VA6ICVD2E4ORFF","A2V6E7SGEU0EFD","3LN3BXKGC0HZB1VNEMH4SWP73O3GW1","","296.30000000447035","img/food4.png","75","297.19999999552965","75","0",""
"","html-keyboard-response","143","192131","0.0-143.0","3ZWFC4W1UVTQBPG0VA6ICVD2E4ORFF","A2V6E7SGEU0EFD","3LN3BXKGC0HZB1VNEMH4SWP73O3GW1","","null","<img src=""img/food4.png"" style=""width:200px;border:14px solid red;"">","null","","","",""
"","image-keyboard-response","144","192818","0.0-144.0","3ZWFC4W1UVTQBPG0VA6ICVD2E4ORFF","A2V6E7SGEU0EFD","3LN3BXKGC0HZB1VNEMH4SWP73O3GW1","","685.9000000059605","img/food5.png","74","687.0999999940395","74","1",""
"","html-keyboard-response","145","193119","0.0-145.0","3ZWFC4W1UVTQBPG0VA6ICVD2E4ORFF","A2V6E7SGEU0EFD","3LN3BXKGC0HZB1VNEMH4SWP73O3GW1","","null","<img src=""img/food5.png"" style=""width:200px; border:14px solid green;"">","null","","","",""
"","image-keyboard-response","146","193766","0.0-146.0","3ZWFC4W1UVTQBPG0VA6ICVD2E4ORFF","A2V6E7SGEU0EFD","3LN3BXKGC0HZB1VNEMH4SWP73O3GW1","","646.2000000029802","img/food2.png","74","647.0999999940395","74","1",""
"","html-keyboard-response","147","194068","0.0-147.0","3ZWFC4W1UVTQBPG0VA6ICVD2E4ORFF","A2V6E7SGEU0EFD","3LN3BXKGC0HZB1VNEMH4SWP73O3GW1","","null","<img src=""img/food2.png"" style=""width:200px; border:14px solid green;"">","null","","","",""
"","image-keyboard-response","148","194401","0.0-148.0","3ZWFC4W1UVTQBPG0VA6ICVD2E4ORFF","A2V6E7SGEU0EFD","3LN3BXKGC0HZB1VNEMH4SWP73O3GW1","","332","img/food2.png","74","332.70000000298023","74","0",""
"","html-keyboard-response","149","194703","0.0-149.0","3ZWFC4W1UVTQBPG0VA6ICVD2E4ORFF","A2V6E7SGEU0EFD","3LN3BXKGC0HZB1VNEMH4SWP73O3GW1","","null","<img src=""img/food2.png"" style=""width:200px;border:14px solid red;"">","null","","","",""
"","image-keyboard-response","150","195199","0.0-150.0","3ZWFC4W1UVTQBPG0VA6ICVD2E4ORFF","A2V6E7SGEU0EFD","3LN3BXKGC0HZB1VNEMH4SWP73O3GW1","","495.70000000298023","img/food4.png","75","496.30000000447035","75","1",""
"","html-keyboard-response","151","195500","0.0-151.0","3ZWFC4W1UVTQBPG0VA6ICVD2E4ORFF","A2V6E7SGEU0EFD","3LN3BXKGC0HZB1VNEMH4SWP73O3GW1","","null","<img src=""img/food4.png"" style=""width:200px; border:14px solid green;"">","null","","","",""
"","image-keyboard-response","152","195832","0.0-152.0","3ZWFC4W1UVTQBPG0VA6ICVD2E4ORFF","A2V6E7SGEU0EFD","3LN3BXKGC0HZB1VNEMH4SWP73O3GW1","","330.8999999985099","img/food4.png","75","331.70000000298023","75","0",""
"","html-keyboard-response","153","196134","0.0-153.0","3ZWFC4W1UVTQBPG0VA6ICVD2E4ORFF","A2V6E7SGEU0EFD","3LN3BXKGC0HZB1VNEMH4SWP73O3GW1","","null","<img src=""img/food4.png"" style=""width:200px;border:14px solid red;"">","null","","","",""
"","image-keyboard-response","154","196927","0.0-154.0","3ZWFC4W1UVTQBPG0VA6ICVD2E4ORFF","A2V6E7SGEU0EFD","3LN3BXKGC0HZB1VNEMH4SWP73O3GW1","","792","img/food5.png","74","793.1999999955297","74","1",""
"","html-keyboard-response","155","197229","0.0-155.0","3ZWFC4W1UVTQBPG0VA6ICVD2E4ORFF","A2V6E7SGEU0EFD","3LN3BXKGC0HZB1VNEMH4SWP73O3GW1","","null","<img src=""img/food5.png"" style=""width:200px; border:14px solid green;"">","null","","","",""
"","image-keyboard-response","156","197893","0.0-156.0","3ZWFC4W1UVTQBPG0VA6ICVD2E4ORFF","A2V6E7SGEU0EFD","3LN3BXKGC0HZB1VNEMH4SWP73O3GW1","","663","img/food4.png","74","663.6000000014901","74","1",""
"","html-keyboard-response","157","198195","0.0-157.0","3ZWFC4W1UVTQBPG0VA6ICVD2E4ORFF","A2V6E7SGEU0EFD","3LN3BXKGC0HZB1VNEMH4SWP73O3GW1","","null","<img src=""img/food4.png"" style=""width:200px; border:14px solid green;"">","null","","","",""
"","image-keyboard-response","158","198771","0.0-158.0","3ZWFC4W1UVTQBPG0VA6ICVD2E4ORFF","A2V6E7SGEU0EFD","3LN3BXKGC0HZB1VNEMH4SWP73O3GW1","","575.6000000014901","img/food2.png","75","576.4000000059605","75","1",""
"","html-keyboard-response","159","199073","0.0-159.0","3ZWFC4W1UVTQBPG0VA6ICVD2E4ORFF","A2V6E7SGEU0EFD","3LN3BXKGC0HZB1VNEMH4SWP73O3GW1","","null","<img src=""img/food2.png"" style=""width:200px; border:14px solid green;"">","null","","","",""
"","image-keyboard-response","160","199865","0.0-160.0","3ZWFC4W1UVTQBPG0VA6ICVD2E4ORFF","A2V6E7SGEU0EFD","3LN3BXKGC0HZB1VNEMH4SWP73O3GW1","","791.1000000014901","img/food5.png","74","791.8000000044703","74","1",""
"","html-keyboard-response","161","200167","0.0-161.0","3ZWFC4W1UVTQBPG0VA6ICVD2E4ORFF","A2V6E7SGEU0EFD","3LN3BXKGC0HZB1VNEMH4SWP73O3GW1","","null","<img src=""img/food5.png"" style=""width:200px; border:14px solid green;"">","null","","","",""
"","image-keyboard-response","162","200502","0.0-162.0","3ZWFC4W1UVTQBPG0VA6ICVD2E4ORFF","A2V6E7SGEU0EFD","3LN3BXKGC0HZB1VNEMH4SWP73O3GW1","","333.59999999403954","img/food5.png","74","335","74","1",""
"","html-keyboard-response","163","200804","0.0-163.0","3ZWFC4W1UVTQBPG0VA6ICVD2E4ORFF","A2V6E7SGEU0EFD","3LN3BXKGC0HZB1VNEMH4SWP73O3GW1","","null","<img src=""img/food5.png"" style=""width:200px; border:14px solid green;"">","null","","","",""
"","image-keyboard-response","164","201168","0.0-164.0","3ZWFC4W1UVTQBPG0VA6ICVD2E4ORFF","A2V6E7SGEU0EFD","3LN3BXKGC0HZB1VNEMH4SWP73O3GW1","","363.5","img/food5.png","74","364.20000000298023","74","1",""
"","html-keyboard-response","165","201470","0.0-165.0","3ZWFC4W1UVTQBPG0VA6ICVD2E4ORFF","A2V6E7SGEU0EFD","3LN3BXKGC0HZB1VNEMH4SWP73O3GW1","","null","<img src=""img/food5.png"" style=""width:200px; border:14px solid green;"">","null","","","",""
"","image-keyboard-response","166","201998","0.0-166.0","3ZWFC4W1UVTQBPG0VA6ICVD2E4ORFF","A2V6E7SGEU0EFD","3LN3BXKGC0HZB1VNEMH4SWP73O3GW1","","527.5","img/food5.png","74","528.2999999970198","74","0",""
"","html-keyboard-response","167","202300","0.0-167.0","3ZWFC4W1UVTQBPG0VA6ICVD2E4ORFF","A2V6E7SGEU0EFD","3LN3BXKGC0HZB1VNEMH4SWP73O3GW1","","null","<img src=""img/food5.png"" style=""width:200px;border:14px solid red;"">","null","","","",""
"","image-keyboard-response","168","202701","0.0-168.0","3ZWFC4W1UVTQBPG0VA6ICVD2E4ORFF","A2V6E7SGEU0EFD","3LN3BXKGC0HZB1VNEMH4SWP73O3GW1","","400.40000000596046","img/food2.png","75","401.1000000014901","75","1",""
"","html-keyboard-response","169","203003","0.0-169.0","3ZWFC4W1UVTQBPG0VA6ICVD2E4ORFF","A2V6E7SGEU0EFD","3LN3BXKGC0HZB1VNEMH4SWP73O3GW1","","null","<img src=""img/food2.png"" style=""width:200px; border:14px solid green;"">","null","","","",""
"","image-keyboard-response","170","203303","0.0-170.0","3ZWFC4W1UVTQBPG0VA6ICVD2E4ORFF","A2V6E7SGEU0EFD","3LN3BXKGC0HZB1VNEMH4SWP73O3GW1","","299.8999999985099","img/food2.png","75","300.69999999552965","75","1",""
"","html-keyboard-response","171","203604","0.0-171.0","3ZWFC4W1UVTQBPG0VA6ICVD2E4ORFF","A2V6E7SGEU0EFD","3LN3BXKGC0HZB1VNEMH4SWP73O3GW1","","null","<img src=""img/food2.png"" style=""width:200px; border:14px solid green;"">","null","","","",""
"","image-keyboard-response","172","203864","0.0-172.0","3ZWFC4W1UVTQBPG0VA6ICVD2E4ORFF","A2V6E7SGEU0EFD","3LN3BXKGC0HZB1VNEMH4SWP73O3GW1","","259.20000000298023","img/food2.png","75","259.8999999985099","75","1",""
"","html-keyboard-response","173","204166","0.0-173.0","3ZWFC4W1UVTQBPG0VA6ICVD2E4ORFF","A2V6E7SGEU0EFD","3LN3BXKGC0HZB1VNEMH4SWP73O3GW1","","null","<img src=""img/food2.png"" style=""width:200px; border:14px solid green;"">","null","","","",""
"","image-keyboard-response","174","204639","0.0-174.0","3ZWFC4W1UVTQBPG0VA6ICVD2E4ORFF","A2V6E7SGEU0EFD","3LN3BXKGC0HZB1VNEMH4SWP73O3GW1","","472.3999999985099","img/food4.png","74","473.09999999403954","74","0",""
"","html-keyboard-response","175","204942","0.0-175.0","3ZWFC4W1UVTQBPG0VA6ICVD2E4ORFF","A2V6E7SGEU0EFD","3LN3BXKGC0HZB1VNEMH4SWP73O3GW1","","null","<img src=""img/food4.png"" style=""width:200px;border:14px solid red;"">","null","","","",""
"","image-keyboard-response","176","205725","0.0-176.0","3ZWFC4W1UVTQBPG0VA6ICVD2E4ORFF","A2V6E7SGEU0EFD","3LN3BXKGC0HZB1VNEMH4SWP73O3GW1","","782.0999999940395","img/food5.png","74","783.1000000014901","74","1",""
"","html-keyboard-response","177","206027","0.0-177.0","3ZWFC4W1UVTQBPG0VA6ICVD2E4ORFF","A2V6E7SGEU0EFD","3LN3BXKGC0HZB1VNEMH4SWP73O3GW1","","null","<img src=""img/food5.png"" style=""width:200px; border:14px solid green;"">","null","","","",""
"","image-keyboard-response","178","206494","0.0-178.0","3ZWFC4W1UVTQBPG0VA6ICVD2E4ORFF","A2V6E7SGEU0EFD","3LN3BXKGC0HZB1VNEMH4SWP73O3GW1","","465.6000000014901","img/food4.png","75","467.19999999552965","75","0",""
"","html-keyboard-response","179","206796","0.0-179.0","3ZWFC4W1UVTQBPG0VA6ICVD2E4ORFF","A2V6E7SGEU0EFD","3LN3BXKGC0HZB1VNEMH4SWP73O3GW1","","null","<img src=""img/food4.png"" style=""width:200px;border:14px solid red;"">","null","","","",""
"","image-keyboard-response","180","207081","0.0-180.0","3ZWFC4W1UVTQBPG0VA6ICVD2E4ORFF","A2V6E7SGEU0EFD","3LN3BXKGC0HZB1VNEMH4SWP73O3GW1","","285","img/food5.png","74","285.5","74","0",""
"","html-keyboard-response","181","207384","0.0-181.0","3ZWFC4W1UVTQBPG0VA6ICVD2E4ORFF","A2V6E7SGEU0EFD","3LN3BXKGC0HZB1VNEMH4SWP73O3GW1","","null","<img src=""img/food5.png"" style=""width:200px;border:14px solid red;"">","null","","","",""
"","html-keyboard-response","182","209456","0.0-182.0","3ZWFC4W1UVTQBPG0VA6ICVD2E4ORFF","A2V6E7SGEU0EFD","3LN3BXKGC0HZB1VNEMH4SWP73O3GW1","","","","","","","",""
"","image-keyboard-response","183","210855","0.0-183.0","3ZWFC4W1UVTQBPG0VA6ICVD2E4ORFF","A2V6E7SGEU0EFD","3LN3BXKGC0HZB1VNEMH4SWP73O3GW1","","1397.5999999940395","img/food1.png","74","1398.5","74","1",""
"","html-keyboard-response","184","211168","0.0-184.0","3ZWFC4W1UVTQBPG0VA6ICVD2E4ORFF","A2V6E7SGEU0EFD","3LN3BXKGC0HZB1VNEMH4SWP73O3GW1","","null","<img src=""img/food1.png"" style=""width:200px; border:14px solid green;"">","null","","","",""
"","image-keyboard-response","185","211624","0.0-185.0","3ZWFC4W1UVTQBPG0VA6ICVD2E4ORFF","A2V6E7SGEU0EFD","3LN3BXKGC0HZB1VNEMH4SWP73O3GW1","","455","img/food6.png","75","455.90000000596046","75","0",""
"","html-keyboard-response","186","211925","0.0-186.0","3ZWFC4W1UVTQBPG0VA6ICVD2E4ORFF","A2V6E7SGEU0EFD","3LN3BXKGC0HZB1VNEMH4SWP73O3GW1","","null","<img src=""img/food6.png"" style=""width:200px;border:14px solid red;"">","null","","","",""
"","image-keyboard-response","187","212697","0.0-187.0","3ZWFC4W1UVTQBPG0VA6ICVD2E4ORFF","A2V6E7SGEU0EFD","3LN3BXKGC0HZB1VNEMH4SWP73O3GW1","","770.7000000029802","img/food3.png","76","771.7000000029802","76","1",""
"","html-keyboard-response","188","213000","0.0-188.0","3ZWFC4W1UVTQBPG0VA6ICVD2E4ORFF","A2V6E7SGEU0EFD","3LN3BXKGC0HZB1VNEMH4SWP73O3GW1","","null","<img src=""img/food3.png"" style=""width:200px; border:14px solid green;"">","null","","","",""
"","image-keyboard-response","189","213877","0.0-189.0","3ZWFC4W1UVTQBPG0VA6ICVD2E4ORFF","A2V6E7SGEU0EFD","3LN3BXKGC0HZB1VNEMH4SWP73O3GW1","","876.2000000029802","img/food6.png","74","877","74","0",""
"","html-keyboard-response","190","214178","0.0-190.0","3ZWFC4W1UVTQBPG0VA6ICVD2E4ORFF","A2V6E7SGEU0EFD","3LN3BXKGC0HZB1VNEMH4SWP73O3GW1","","null","<img src=""img/food6.png"" style=""width:200px;border:14px solid red;"">","null","","","",""
"","image-keyboard-response","191","214675","0.0-191.0","3ZWFC4W1UVTQBPG0VA6ICVD2E4ORFF","A2V6E7SGEU0EFD","3LN3BXKGC0HZB1VNEMH4SWP73O3GW1","","496.6000000014901","img/food6.png","75","497.3999999985099","75","1",""
"","html-keyboard-response","192","214976","0.0-192.0","3ZWFC4W1UVTQBPG0VA6ICVD2E4ORFF","A2V6E7SGEU0EFD","3LN3BXKGC0HZB1VNEMH4SWP73O3GW1","","null","<img src=""img/food6.png"" style=""width:200px; border:14px solid green;"">","null","","","",""
"","image-keyboard-response","193","215542","0.0-193.0","3ZWFC4W1UVTQBPG0VA6ICVD2E4ORFF","A2V6E7SGEU0EFD","3LN3BXKGC0HZB1VNEMH4SWP73O3GW1","","564","img/food1.png","74","565.0999999940395","74","1",""
"","html-keyboard-response","194","215843","0.0-194.0","3ZWFC4W1UVTQBPG0VA6ICVD2E4ORFF","A2V6E7SGEU0EFD","3LN3BXKGC0HZB1VNEMH4SWP73O3GW1","","null","<img src=""img/food1.png"" style=""width:200px; border:14px solid green;"">","null","","","",""
"","image-keyboard-response","195","216424","0.0-195.0","3ZWFC4W1UVTQBPG0VA6ICVD2E4ORFF","A2V6E7SGEU0EFD","3LN3BXKGC0HZB1VNEMH4SWP73O3GW1","","580.3999999985099","img/food6.png","75","581.1000000014901","75","1",""
"","html-keyboard-response","196","216726","0.0-196.0","3ZWFC4W1UVTQBPG0VA6ICVD2E4ORFF","A2V6E7SGEU0EFD","3LN3BXKGC0HZB1VNEMH4SWP73O3GW1","","null","<img src=""img/food6.png"" style=""width:200px; border:14px solid green;"">","null","","","",""
"","image-keyboard-response","197","217430","0.0-197.0","3ZWFC4W1UVTQBPG0VA6ICVD2E4ORFF","A2V6E7SGEU0EFD","3LN3BXKGC0HZB1VNEMH4SWP73O3GW1","","702.2000000029802","img/food1.png","74","703","74","0",""
"","html-keyboard-response","198","217732","0.0-198.0","3ZWFC4W1UVTQBPG0VA6ICVD2E4ORFF","A2V6E7SGEU0EFD","3LN3BXKGC0HZB1VNEMH4SWP73O3GW1","","null","<img src=""img/food1.png"" style=""width:200px;border:14px solid red;"">","null","","","",""
"","image-keyboard-response","199","218666","0.0-199.0","3ZWFC4W1UVTQBPG0VA6ICVD2E4ORFF","A2V6E7SGEU0EFD","3LN3BXKGC0HZB1VNEMH4SWP73O3GW1","","932.8000000044703","img/food3.png","76","933.6000000014901","76","1",""
"","html-keyboard-response","200","218967","0.0-200.0","3ZWFC4W1UVTQBPG0VA6ICVD2E4ORFF","A2V6E7SGEU0EFD","3LN3BXKGC0HZB1VNEMH4SWP73O3GW1","","null","<img src=""img/food3.png"" style=""width:200px; border:14px solid green;"">","null","","","",""
"","image-keyboard-response","201","219301","0.0-201.0","3ZWFC4W1UVTQBPG0VA6ICVD2E4ORFF","A2V6E7SGEU0EFD","3LN3BXKGC0HZB1VNEMH4SWP73O3GW1","","332.6000000014901","img/food3.png","76","333.40000000596046","76","1",""
"","html-keyboard-response","202","219602","0.0-202.0","3ZWFC4W1UVTQBPG0VA6ICVD2E4ORFF","A2V6E7SGEU0EFD","3LN3BXKGC0HZB1VNEMH4SWP73O3GW1","","null","<img src=""img/food3.png"" style=""width:200px; border:14px solid green;"">","null","","","",""
"","image-keyboard-response","203","219907","0.0-203.0","3ZWFC4W1UVTQBPG0VA6ICVD2E4ORFF","A2V6E7SGEU0EFD","3LN3BXKGC0HZB1VNEMH4SWP73O3GW1","","304.20000000298023","img/food3.png","76","304.79999999701977","76","0",""
"","html-keyboard-response","204","220214","0.0-204.0","3ZWFC4W1UVTQBPG0VA6ICVD2E4ORFF","A2V6E7SGEU0EFD","3LN3BXKGC0HZB1VNEMH4SWP73O3GW1","","null","<img src=""img/food3.png"" style=""width:200px;border:14px solid red;"">","null","","","",""
"","image-keyboard-response","205","220514","0.0-205.0","3ZWFC4W1UVTQBPG0VA6ICVD2E4ORFF","A2V6E7SGEU0EFD","3LN3BXKGC0HZB1VNEMH4SWP73O3GW1","","298.8999999985099","img/food3.png","76","299.80000000447035","76","1",""
"","html-keyboard-response","206","220816","0.0-206.0","3ZWFC4W1UVTQBPG0VA6ICVD2E4ORFF","A2V6E7SGEU0EFD","3LN3BXKGC0HZB1VNEMH4SWP73O3GW1","","null","<img src=""img/food3.png"" style=""width:200px; border:14px solid green;"">","null","","","",""
"","image-keyboard-response","207","222063","0.0-207.0","3ZWFC4W1UVTQBPG0VA6ICVD2E4ORFF","A2V6E7SGEU0EFD","3LN3BXKGC0HZB1VNEMH4SWP73O3GW1","","1246.3000000044703","img/food6.png","74","1247.2999999970198","74","0",""
"","html-keyboard-response","208","222365","0.0-208.0","3ZWFC4W1UVTQBPG0VA6ICVD2E4ORFF","A2V6E7SGEU0EFD","3LN3BXKGC0HZB1VNEMH4SWP73O3GW1","","null","<img src=""img/food6.png"" style=""width:200px;border:14px solid red;"">","null","","","",""
"","image-keyboard-response","209","223170","0.0-209.0","3ZWFC4W1UVTQBPG0VA6ICVD2E4ORFF","A2V6E7SGEU0EFD","3LN3BXKGC0HZB1VNEMH4SWP73O3GW1","","803","img/food3.png","76","804.5","76","1",""
"","html-keyboard-response","210","223472","0.0-210.0","3ZWFC4W1UVTQBPG0VA6ICVD2E4ORFF","A2V6E7SGEU0EFD","3LN3BXKGC0HZB1VNEMH4SWP73O3GW1","","null","<img src=""img/food3.png"" style=""width:200px; border:14px solid green;"">","null","","","",""
"","image-keyboard-response","211","223913","0.0-211.0","3ZWFC4W1UVTQBPG0VA6ICVD2E4ORFF","A2V6E7SGEU0EFD","3LN3BXKGC0HZB1VNEMH4SWP73O3GW1","","440.30000000447035","img/food6.png","75","441","75","0",""
"","html-keyboard-response","212","224215","0.0-212.0","3ZWFC4W1UVTQBPG0VA6ICVD2E4ORFF","A2V6E7SGEU0EFD","3LN3BXKGC0HZB1VNEMH4SWP73O3GW1","","null","<img src=""img/food6.png"" style=""width:200px;border:14px solid red;"">","null","","","",""
"","image-keyboard-response","213","224589","0.0-213.0","3ZWFC4W1UVTQBPG0VA6ICVD2E4ORFF","A2V6E7SGEU0EFD","3LN3BXKGC0HZB1VNEMH4SWP73O3GW1","","373.59999999403954","img/food6.png","74","374.20000000298023","74","0",""
"","html-keyboard-response","214","224891","0.0-214.0","3ZWFC4W1UVTQBPG0VA6ICVD2E4ORFF","A2V6E7SGEU0EFD","3LN3BXKGC0HZB1VNEMH4SWP73O3GW1","","null","<img src=""img/food6.png"" style=""width:200px;border:14px solid red;"">","null","","","",""
"","image-keyboard-response","215","225637","0.0-215.0","3ZWFC4W1UVTQBPG0VA6ICVD2E4ORFF","A2V6E7SGEU0EFD","3LN3BXKGC0HZB1VNEMH4SWP73O3GW1","","745.1000000014901","img/food3.png","76","746.3000000044703","76","1",""
"","html-keyboard-response","216","225939","0.0-216.0","3ZWFC4W1UVTQBPG0VA6ICVD2E4ORFF","A2V6E7SGEU0EFD","3LN3BXKGC0HZB1VNEMH4SWP73O3GW1","","null","<img src=""img/food3.png"" style=""width:200px; border:14px solid green;"">","null","","","",""
"","image-keyboard-response","217","226343","0.0-217.0","3ZWFC4W1UVTQBPG0VA6ICVD2E4ORFF","A2V6E7SGEU0EFD","3LN3BXKGC0HZB1VNEMH4SWP73O3GW1","","403","img/food3.png","76","404.3999999985099","76","1",""
"","html-keyboard-response","218","226646","0.0-218.0","3ZWFC4W1UVTQBPG0VA6ICVD2E4ORFF","A2V6E7SGEU0EFD","3LN3BXKGC0HZB1VNEMH4SWP73O3GW1","","null","<img src=""img/food3.png"" style=""width:200px; border:14px solid green;"">","null","","","",""
"","image-keyboard-response","219","227203","0.0-219.0","3ZWFC4W1UVTQBPG0VA6ICVD2E4ORFF","A2V6E7SGEU0EFD","3LN3BXKGC0HZB1VNEMH4SWP73O3GW1","","555.9000000059605","img/food1.png","74","557.1999999955297","74","1",""
"","html-keyboard-response","220","227505","0.0-220.0","3ZWFC4W1UVTQBPG0VA6ICVD2E4ORFF","A2V6E7SGEU0EFD","3LN3BXKGC0HZB1VNEMH4SWP73O3GW1","","null","<img src=""img/food1.png"" style=""width:200px; border:14px solid green;"">","null","","","",""
"","image-keyboard-response","221","228100","0.0-221.0","3ZWFC4W1UVTQBPG0VA6ICVD2E4ORFF","A2V6E7SGEU0EFD","3LN3BXKGC0HZB1VNEMH4SWP73O3GW1","","594.2999999970198","img/food6.png","75","595.5","75","1",""
"","html-keyboard-response","222","228402","0.0-222.0","3ZWFC4W1UVTQBPG0VA6ICVD2E4ORFF","A2V6E7SGEU0EFD","3LN3BXKGC0HZB1VNEMH4SWP73O3GW1","","null","<img src=""img/food6.png"" style=""width:200px; border:14px solid green;"">","null","","","",""
"","image-keyboard-response","223","228944","0.0-223.0","3ZWFC4W1UVTQBPG0VA6ICVD2E4ORFF","A2V6E7SGEU0EFD","3LN3BXKGC0HZB1VNEMH4SWP73O3GW1","","541.2000000029802","img/food1.png","74","541.8999999985099","74","1",""
"","html-keyboard-response","224","229246","0.0-224.0","3ZWFC4W1UVTQBPG0VA6ICVD2E4ORFF","A2V6E7SGEU0EFD","3LN3BXKGC0HZB1VNEMH4SWP73O3GW1","","null","<img src=""img/food1.png"" style=""width:200px; border:14px solid green;"">","null","","","",""
"","image-keyboard-response","225","229574","0.0-225.0","3ZWFC4W1UVTQBPG0VA6ICVD2E4ORFF","A2V6E7SGEU0EFD","3LN3BXKGC0HZB1VNEMH4SWP73O3GW1","","325.79999999701977","img/food1.png","74","327.1000000014901","74","1",""
"","html-keyboard-response","226","229876","0.0-226.0","3ZWFC4W1UVTQBPG0VA6ICVD2E4ORFF","A2V6E7SGEU0EFD","3LN3BXKGC0HZB1VNEMH4SWP73O3GW1","","null","<img src=""img/food1.png"" style=""width:200px; border:14px solid green;"">","null","","","",""
"","image-keyboard-response","227","230406","0.0-227.0","3ZWFC4W1UVTQBPG0VA6ICVD2E4ORFF","A2V6E7SGEU0EFD","3LN3BXKGC0HZB1VNEMH4SWP73O3GW1","","528.6000000014901","img/food6.png","75","529.8000000044703","75","0",""
"","html-keyboard-response","228","230708","0.0-228.0","3ZWFC4W1UVTQBPG0VA6ICVD2E4ORFF","A2V6E7SGEU0EFD","3LN3BXKGC0HZB1VNEMH4SWP73O3GW1","","null","<img src=""img/food6.png"" style=""width:200px;border:14px solid red;"">","null","","","",""
"","image-keyboard-response","229","231194","0.0-229.0","3ZWFC4W1UVTQBPG0VA6ICVD2E4ORFF","A2V6E7SGEU0EFD","3LN3BXKGC0HZB1VNEMH4SWP73O3GW1","","485.69999999552965","img/food3.png","74","486.59999999403954","74","0",""
"","html-keyboard-response","230","231497","0.0-230.0","3ZWFC4W1UVTQBPG0VA6ICVD2E4ORFF","A2V6E7SGEU0EFD","3LN3BXKGC0HZB1VNEMH4SWP73O3GW1","","null","<img src=""img/food3.png"" style=""width:200px;border:14px solid red;"">","null","","","",""
"","image-keyboard-response","231","231858","0.0-231.0","3ZWFC4W1UVTQBPG0VA6ICVD2E4ORFF","A2V6E7SGEU0EFD","3LN3BXKGC0HZB1VNEMH4SWP73O3GW1","","360.30000000447035","img/food3.png","76","361.6000000014901","76","1",""
"","html-keyboard-response","232","232161","0.0-232.0","3ZWFC4W1UVTQBPG0VA6ICVD2E4ORFF","A2V6E7SGEU0EFD","3LN3BXKGC0HZB1VNEMH4SWP73O3GW1","","null","<img src=""img/food3.png"" style=""width:200px; border:14px solid green;"">","null","","","",""
"","image-keyboard-response","233","232881","0.0-233.0","3ZWFC4W1UVTQBPG0VA6ICVD2E4ORFF","A2V6E7SGEU0EFD","3LN3BXKGC0HZB1VNEMH4SWP73O3GW1","","719.3000000044703","img/food6.png","74","720","74","0",""
"","html-keyboard-response","234","233183","0.0-234.0","3ZWFC4W1UVTQBPG0VA6ICVD2E4ORFF","A2V6E7SGEU0EFD","3LN3BXKGC0HZB1VNEMH4SWP73O3GW1","","null","<img src=""img/food6.png"" style=""width:200px;border:14px solid red;"">","null","","","",""
"","image-keyboard-response","235","233891","0.0-235.0","3ZWFC4W1UVTQBPG0VA6ICVD2E4ORFF","A2V6E7SGEU0EFD","3LN3BXKGC0HZB1VNEMH4SWP73O3GW1","","707.8000000044703","img/food1.png","74","708.5","74","0",""
"","html-keyboard-response","236","234193","0.0-236.0","3ZWFC4W1UVTQBPG0VA6ICVD2E4ORFF","A2V6E7SGEU0EFD","3LN3BXKGC0HZB1VNEMH4SWP73O3GW1","","null","<img src=""img/food1.png"" style=""width:200px;border:14px solid red;"">","null","","","",""
"","image-keyboard-response","237","234882","0.0-237.0","3ZWFC4W1UVTQBPG0VA6ICVD2E4ORFF","A2V6E7SGEU0EFD","3LN3BXKGC0HZB1VNEMH4SWP73O3GW1","","688.8000000044703","img/food6.png","75","689.6000000014901","75","0",""
"","html-keyboard-response","238","235184","0.0-238.0","3ZWFC4W1UVTQBPG0VA6ICVD2E4ORFF","A2V6E7SGEU0EFD","3LN3BXKGC0HZB1VNEMH4SWP73O3GW1","","null","<img src=""img/food6.png"" style=""width:200px;border:14px solid red;"">","null","","","",""
"","image-keyboard-response","239","235825","0.0-239.0","3ZWFC4W1UVTQBPG0VA6ICVD2E4ORFF","A2V6E7SGEU0EFD","3LN3BXKGC0HZB1VNEMH4SWP73O3GW1","","639.7000000029802","img/food1.png","74","641","74","1",""
"","html-keyboard-response","240","236128","0.0-240.0","3ZWFC4W1UVTQBPG0VA6ICVD2E4ORFF","A2V6E7SGEU0EFD","3LN3BXKGC0HZB1VNEMH4SWP73O3GW1","","null","<img src=""img/food1.png"" style=""width:200px; border:14px solid green;"">","null","","","",""
"","image-keyboard-response","241","236725","0.0-241.0","3ZWFC4W1UVTQBPG0VA6ICVD2E4ORFF","A2V6E7SGEU0EFD","3LN3BXKGC0HZB1VNEMH4SWP73O3GW1","","596","img/food6.png","75","597.2000000029802","75","1",""
"","html-keyboard-response","242","237028","0.0-242.0","3ZWFC4W1UVTQBPG0VA6ICVD2E4ORFF","A2V6E7SGEU0EFD","3LN3BXKGC0HZB1VNEMH4SWP73O3GW1","","null","<img src=""img/food6.png"" style=""width:200px; border:14px solid green;"">","null","","","",""
"","image-keyboard-response","243","237371","0.0-243.0","3ZWFC4W1UVTQBPG0VA6ICVD2E4ORFF","A2V6E7SGEU0EFD","3LN3BXKGC0HZB1VNEMH4SWP73O3GW1","","341.1000000014901","img/food6.png","75","342.69999999552965","75","0",""
"","html-keyboard-response","244","237673","0.0-244.0","3ZWFC4W1UVTQBPG0VA6ICVD2E4ORFF","A2V6E7SGEU0EFD","3LN3BXKGC0HZB1VNEMH4SWP73O3GW1","","null","<img src=""img/food6.png"" style=""width:200px;border:14px solid red;"">","null","","","",""
"","image-keyboard-response","245","238527","0.0-245.0","3ZWFC4W1UVTQBPG0VA6ICVD2E4ORFF","A2V6E7SGEU0EFD","3LN3BXKGC0HZB1VNEMH4SWP73O3GW1","","852.7000000029802","img/food3.png","76","854","76","1",""
"","html-keyboard-response","246","238829","0.0-246.0","3ZWFC4W1UVTQBPG0VA6ICVD2E4ORFF","A2V6E7SGEU0EFD","3LN3BXKGC0HZB1VNEMH4SWP73O3GW1","","null","<img src=""img/food3.png"" style=""width:200px; border:14px solid green;"">","null","","","",""
"","image-keyboard-response","247","239154","0.0-247.0","3ZWFC4W1UVTQBPG0VA6ICVD2E4ORFF","A2V6E7SGEU0EFD","3LN3BXKGC0HZB1VNEMH4SWP73O3GW1","","324.30000000447035","img/food3.png","76","325.5","76","1",""
"","html-keyboard-response","248","239455","0.0-248.0","3ZWFC4W1UVTQBPG0VA6ICVD2E4ORFF","A2V6E7SGEU0EFD","3LN3BXKGC0HZB1VNEMH4SWP73O3GW1","","null","<img src=""img/food3.png"" style=""width:200px; border:14px solid green;"">","null","","","",""
"","image-keyboard-response","249","240131","0.0-249.0","3ZWFC4W1UVTQBPG0VA6ICVD2E4ORFF","A2V6E7SGEU0EFD","3LN3BXKGC0HZB1VNEMH4SWP73O3GW1","","673.6999999955297","img/food6.png","75","674.7999999970198","75","1",""
"","html-keyboard-response","250","240435","0.0-250.0","3ZWFC4W1UVTQBPG0VA6ICVD2E4ORFF","A2V6E7SGEU0EFD","3LN3BXKGC0HZB1VNEMH4SWP73O3GW1","","null","<img src=""img/food6.png"" style=""width:200px; border:14px solid green;"">","null","","","",""
"","image-keyboard-response","251","241272","0.0-251.0","3ZWFC4W1UVTQBPG0VA6ICVD2E4ORFF","A2V6E7SGEU0EFD","3LN3BXKGC0HZB1VNEMH4SWP73O3GW1","","835.6000000014901","img/food3.png","76","836.8999999985099","76","0",""
"","html-keyboard-response","252","241573","0.0-252.0","3ZWFC4W1UVTQBPG0VA6ICVD2E4ORFF","A2V6E7SGEU0EFD","3LN3BXKGC0HZB1VNEMH4SWP73O3GW1","","null","<img src=""img/food3.png"" style=""width:200px;border:14px solid red;"">","null","","","",""
"","image-keyboard-response","253","242258","0.0-253.0","3ZWFC4W1UVTQBPG0VA6ICVD2E4ORFF","A2V6E7SGEU0EFD","3LN3BXKGC0HZB1VNEMH4SWP73O3GW1","","683.8000000044703","img/food3.png","74","685.1000000014901","74","0",""
"","html-keyboard-response","254","242559","0.0-254.0","3ZWFC4W1UVTQBPG0VA6ICVD2E4ORFF","A2V6E7SGEU0EFD","3LN3BXKGC0HZB1VNEMH4SWP73O3GW1","","null","<img src=""img/food3.png"" style=""width:200px;border:14px solid red;"">","null","","","",""
"","image-keyboard-response","255","243207","0.0-255.0","3ZWFC4W1UVTQBPG0VA6ICVD2E4ORFF","A2V6E7SGEU0EFD","3LN3BXKGC0HZB1VNEMH4SWP73O3GW1","","645.3999999985099","img/food6.png","75","646.7999999970198","75","0",""
"","html-keyboard-response","256","243509","0.0-256.0","3ZWFC4W1UVTQBPG0VA6ICVD2E4ORFF","A2V6E7SGEU0EFD","3LN3BXKGC0HZB1VNEMH4SWP73O3GW1","","null","<img src=""img/food6.png"" style=""width:200px;border:14px solid red;"">","null","","","",""
"","image-keyboard-response","257","243865","0.0-257.0","3ZWFC4W1UVTQBPG0VA6ICVD2E4ORFF","A2V6E7SGEU0EFD","3LN3BXKGC0HZB1VNEMH4SWP73O3GW1","","354.40000000596046","img/food6.png","75","355.8999999985099","75","0",""
"","html-keyboard-response","258","244167","0.0-258.0","3ZWFC4W1UVTQBPG0VA6ICVD2E4ORFF","A2V6E7SGEU0EFD","3LN3BXKGC0HZB1VNEMH4SWP73O3GW1","","null","<img src=""img/food6.png"" style=""width:200px;border:14px solid red;"">","null","","","",""
"","image-keyboard-response","259","244814","0.0-259.0","3ZWFC4W1UVTQBPG0VA6ICVD2E4ORFF","A2V6E7SGEU0EFD","3LN3BXKGC0HZB1VNEMH4SWP73O3GW1","","645.1999999955297","img/food1.png","74","646.5","74","0",""
"","html-keyboard-response","260","245116","0.0-260.0","3ZWFC4W1UVTQBPG0VA6ICVD2E4ORFF","A2V6E7SGEU0EFD","3LN3BXKGC0HZB1VNEMH4SWP73O3GW1","","null","<img src=""img/food1.png"" style=""width:200px;border:14px solid red;"">","null","","","",""
"","image-keyboard-response","261","245474","0.0-261.0","3ZWFC4W1UVTQBPG0VA6ICVD2E4ORFF","A2V6E7SGEU0EFD","3LN3BXKGC0HZB1VNEMH4SWP73O3GW1","","357.5","img/food1.png","74","358.6000000014901","74","1",""
"","html-keyboard-response","262","245776","0.0-262.0","3ZWFC4W1UVTQBPG0VA6ICVD2E4ORFF","A2V6E7SGEU0EFD","3LN3BXKGC0HZB1VNEMH4SWP73O3GW1","","null","<img src=""img/food1.png"" style=""width:200px; border:14px solid green;"">","null","","","",""
"","image-keyboard-response","263","246486","0.0-263.0","3ZWFC4W1UVTQBPG0VA6ICVD2E4ORFF","A2V6E7SGEU0EFD","3LN3BXKGC0HZB1VNEMH4SWP73O3GW1","","708.8999999985099","img/food3.png","76","709.6999999955297","76","1",""
"","html-keyboard-response","264","246787","0.0-264.0","3ZWFC4W1UVTQBPG0VA6ICVD2E4ORFF","A2V6E7SGEU0EFD","3LN3BXKGC0HZB1VNEMH4SWP73O3GW1","","null","<img src=""img/food3.png"" style=""width:200px; border:14px solid green;"">","null","","","",""
"","image-keyboard-response","265","247117","0.0-265.0","3ZWFC4W1UVTQBPG0VA6ICVD2E4ORFF","A2V6E7SGEU0EFD","3LN3BXKGC0HZB1VNEMH4SWP73O3GW1","","329.29999999701977","img/food3.png","76","330","76","1",""
"","html-keyboard-response","266","247419","0.0-266.0","3ZWFC4W1UVTQBPG0VA6ICVD2E4ORFF","A2V6E7SGEU0EFD","3LN3BXKGC0HZB1VNEMH4SWP73O3GW1","","null","<img src=""img/food3.png"" style=""width:200px; border:14px solid green;"">","null","","","",""
"","image-keyboard-response","267","247752","0.0-267.0","3ZWFC4W1UVTQBPG0VA6ICVD2E4ORFF","A2V6E7SGEU0EFD","3LN3BXKGC0HZB1VNEMH4SWP73O3GW1","","330.90000000596046","img/food3.png","76","332.5","76","1",""
"","html-keyboard-response","268","248053","0.0-268.0","3ZWFC4W1UVTQBPG0VA6ICVD2E4ORFF","A2V6E7SGEU0EFD","3LN3BXKGC0HZB1VNEMH4SWP73O3GW1","","null","<img src=""img/food3.png"" style=""width:200px; border:14px solid green;"">","null","","","",""
"","image-keyboard-response","269","248754","0.0-269.0","3ZWFC4W1UVTQBPG0VA6ICVD2E4ORFF","A2V6E7SGEU0EFD","3LN3BXKGC0HZB1VNEMH4SWP73O3GW1","","700.6000000014901","img/food1.png","74","701.3000000044703","74","1",""
"","html-keyboard-response","270","249055","0.0-270.0","3ZWFC4W1UVTQBPG0VA6ICVD2E4ORFF","A2V6E7SGEU0EFD","3LN3BXKGC0HZB1VNEMH4SWP73O3GW1","","null","<img src=""img/food1.png"" style=""width:200px; border:14px solid green;"">","null","","","",""
"","image-keyboard-response","271","249415","0.0-271.0","3ZWFC4W1UVTQBPG0VA6ICVD2E4ORFF","A2V6E7SGEU0EFD","3LN3BXKGC0HZB1VNEMH4SWP73O3GW1","","358.8999999985099","img/food1.png","74","359.8999999985099","74","0",""
"","html-keyboard-response","272","249718","0.0-272.0","3ZWFC4W1UVTQBPG0VA6ICVD2E4ORFF","A2V6E7SGEU0EFD","3LN3BXKGC0HZB1VNEMH4SWP73O3GW1","","null","<img src=""img/food1.png"" style=""width:200px;border:14px solid red;"">","null","","","",""
"","image-keyboard-response","273","250716","0.0-273.0","3ZWFC4W1UVTQBPG0VA6ICVD2E4ORFF","A2V6E7SGEU0EFD","3LN3BXKGC0HZB1VNEMH4SWP73O3GW1","","997.8000000044703","img/food3.png","76","998.5","76","1",""
"","html-keyboard-response","274","251019","0.0-274.0","3ZWFC4W1UVTQBPG0VA6ICVD2E4ORFF","A2V6E7SGEU0EFD","3LN3BXKGC0HZB1VNEMH4SWP73O3GW1","","null","<img src=""img/food3.png"" style=""width:200px; border:14px solid green;"">","null","","","",""
"","image-keyboard-response","275","252095","0.0-275.0","3ZWFC4W1UVTQBPG0VA6ICVD2E4ORFF","A2V6E7SGEU0EFD","3LN3BXKGC0HZB1VNEMH4SWP73O3GW1","","1074.7999999970198","img/food1.png","74","1076.1000000014901","74","0",""
"","html-keyboard-response","276","252397","0.0-276.0","3ZWFC4W1UVTQBPG0VA6ICVD2E4ORFF","A2V6E7SGEU0EFD","3LN3BXKGC0HZB1VNEMH4SWP73O3GW1","","null","<img src=""img/food1.png"" style=""width:200px;border:14px solid red;"">","null","","","",""
"","image-keyboard-response","277","253525","0.0-277.0","3ZWFC4W1UVTQBPG0VA6ICVD2E4ORFF","A2V6E7SGEU0EFD","3LN3BXKGC0HZB1VNEMH4SWP73O3GW1","","1126","img/food1.png","74","1127.5","74","0",""
"","html-keyboard-response","278","253827","0.0-278.0","3ZWFC4W1UVTQBPG0VA6ICVD2E4ORFF","A2V6E7SGEU0EFD","3LN3BXKGC0HZB1VNEMH4SWP73O3GW1","","null","<img src=""img/food1.png"" style=""width:200px;border:14px solid red;"">","null","","","",""
"","image-keyboard-response","279","254264","0.0-279.0","3ZWFC4W1UVTQBPG0VA6ICVD2E4ORFF","A2V6E7SGEU0EFD","3LN3BXKGC0HZB1VNEMH4SWP73O3GW1","","436","img/food1.png","75","436.79999999701977","75","0",""
"","html-keyboard-response","280","254565","0.0-280.0","3ZWFC4W1UVTQBPG0VA6ICVD2E4ORFF","A2V6E7SGEU0EFD","3LN3BXKGC0HZB1VNEMH4SWP73O3GW1","","null","<img src=""img/food1.png"" style=""width:200px;border:14px solid red;"">","null","","","",""
"","image-keyboard-response","281","255125","0.0-281.0","3ZWFC4W1UVTQBPG0VA6ICVD2E4ORFF","A2V6E7SGEU0EFD","3LN3BXKGC0HZB1VNEMH4SWP73O3GW1","","559","img/food6.png","75","560.1999999955297","75","0",""
"","html-keyboard-response","282","255427","0.0-282.0","3ZWFC4W1UVTQBPG0VA6ICVD2E4ORFF","A2V6E7SGEU0EFD","3LN3BXKGC0HZB1VNEMH4SWP73O3GW1","","null","<img src=""img/food6.png"" style=""width:200px;border:14px solid red;"">","null","","","",""
"","image-keyboard-response","283","256183","0.0-283.0","3ZWFC4W1UVTQBPG0VA6ICVD2E4ORFF","A2V6E7SGEU0EFD","3LN3BXKGC0HZB1VNEMH4SWP73O3GW1","","754","img/food3.png","76","755.5","76","0",""
"","html-keyboard-response","284","256485","0.0-284.0","3ZWFC4W1UVTQBPG0VA6ICVD2E4ORFF","A2V6E7SGEU0EFD","3LN3BXKGC0HZB1VNEMH4SWP73O3GW1","","null","<img src=""img/food3.png"" style=""width:200px;border:14px solid red;"">","null","","","",""
"","image-keyboard-response","285","257215","0.0-285.0","3ZWFC4W1UVTQBPG0VA6ICVD2E4ORFF","A2V6E7SGEU0EFD","3LN3BXKGC0HZB1VNEMH4SWP73O3GW1","","729","img/food1.png","74","729.7000000029802","74","1",""
"","html-keyboard-response","286","257517","0.0-286.0","3ZWFC4W1UVTQBPG0VA6ICVD2E4ORFF","A2V6E7SGEU0EFD","3LN3BXKGC0HZB1VNEMH4SWP73O3GW1","","null","<img src=""img/food1.png"" style=""width:200px; border:14px solid green;"">","null","","","",""
"","image-keyboard-response","287","258190","0.0-287.0","3ZWFC4W1UVTQBPG0VA6ICVD2E4ORFF","A2V6E7SGEU0EFD","3LN3BXKGC0HZB1VNEMH4SWP73O3GW1","","671.7999999970198","img/food6.png","75","672.5","75","0",""
"","html-keyboard-response","288","258491","0.0-288.0","3ZWFC4W1UVTQBPG0VA6ICVD2E4ORFF","A2V6E7SGEU0EFD","3LN3BXKGC0HZB1VNEMH4SWP73O3GW1","","null","<img src=""img/food6.png"" style=""width:200px;border:14px solid red;"">","null","","","",""
"","image-keyboard-response","289","259045","0.0-289.0","3ZWFC4W1UVTQBPG0VA6ICVD2E4ORFF","A2V6E7SGEU0EFD","3LN3BXKGC0HZB1VNEMH4SWP73O3GW1","","552.7999999970198","img/food1.png","74","553.2999999970198","74","0",""
"","html-keyboard-response","290","259346","0.0-290.0","3ZWFC4W1UVTQBPG0VA6ICVD2E4ORFF","A2V6E7SGEU0EFD","3LN3BXKGC0HZB1VNEMH4SWP73O3GW1","","null","<img src=""img/food1.png"" style=""width:200px;border:14px solid red;"">","null","","","",""
"","image-keyboard-response","291","260123","0.0-291.0","3ZWFC4W1UVTQBPG0VA6ICVD2E4ORFF","A2V6E7SGEU0EFD","3LN3BXKGC0HZB1VNEMH4SWP73O3GW1","","775.1999999955297","img/food3.png","76","776.1000000014901","76","1",""
"","html-keyboard-response","292","260424","0.0-292.0","3ZWFC4W1UVTQBPG0VA6ICVD2E4ORFF","A2V6E7SGEU0EFD","3LN3BXKGC0HZB1VNEMH4SWP73O3GW1","","null","<img src=""img/food3.png"" style=""width:200px; border:14px solid green;"">","null","","","",""
"","image-keyboard-response","293","261102","0.0-293.0","3ZWFC4W1UVTQBPG0VA6ICVD2E4ORFF","A2V6E7SGEU0EFD","3LN3BXKGC0HZB1VNEMH4SWP73O3GW1","","676.6999999955297","img/food6.png","75","678","75","1",""
"","html-keyboard-response","294","261404","0.0-294.0","3ZWFC4W1UVTQBPG0VA6ICVD2E4ORFF","A2V6E7SGEU0EFD","3LN3BXKGC0HZB1VNEMH4SWP73O3GW1","","null","<img src=""img/food6.png"" style=""width:200px; border:14px solid green;"">","null","","","",""
"","image-keyboard-response","295","261748","0.0-295.0","3ZWFC4W1UVTQBPG0VA6ICVD2E4ORFF","A2V6E7SGEU0EFD","3LN3BXKGC0HZB1VNEMH4SWP73O3GW1","","342.6000000014901","img/food6.png","75","344","75","1",""
"","html-keyboard-response","296","262049","0.0-296.0","3ZWFC4W1UVTQBPG0VA6ICVD2E4ORFF","A2V6E7SGEU0EFD","3LN3BXKGC0HZB1VNEMH4SWP73O3GW1","","null","<img src=""img/food6.png"" style=""width:200px; border:14px solid green;"">","null","","","",""
"","image-keyboard-response","297","262574","0.0-297.0","3ZWFC4W1UVTQBPG0VA6ICVD2E4ORFF","A2V6E7SGEU0EFD","3LN3BXKGC0HZB1VNEMH4SWP73O3GW1","","524.1000000014901","img/food1.png","74","524.8999999985099","74","0",""
"","html-keyboard-response","298","262876","0.0-298.0","3ZWFC4W1UVTQBPG0VA6ICVD2E4ORFF","A2V6E7SGEU0EFD","3LN3BXKGC0HZB1VNEMH4SWP73O3GW1","","null","<img src=""img/food1.png"" style=""width:200px;border:14px solid red;"">","null","","","",""
"","image-keyboard-response","299","263559","0.0-299.0","3ZWFC4W1UVTQBPG0VA6ICVD2E4ORFF","A2V6E7SGEU0EFD","3LN3BXKGC0HZB1VNEMH4SWP73O3GW1","","682","img/food3.png","76","683.2999999970198","76","1",""
"","html-keyboard-response","300","263861","0.0-300.0","3ZWFC4W1UVTQBPG0VA6ICVD2E4ORFF","A2V6E7SGEU0EFD","3LN3BXKGC0HZB1VNEMH4SWP73O3GW1","","null","<img src=""img/food3.png"" style=""width:200px; border:14px solid green;"">","null","","","",""
"","image-keyboard-response","301","264520","0.0-301.0","3ZWFC4W1UVTQBPG0VA6ICVD2E4ORFF","A2V6E7SGEU0EFD","3LN3BXKGC0HZB1VNEMH4SWP73O3GW1","","658.1000000014901","img/food6.png","75","658.7000000029802","75","1",""
"","html-keyboard-response","302","264821","0.0-302.0","3ZWFC4W1UVTQBPG0VA6ICVD2E4ORFF","A2V6E7SGEU0EFD","3LN3BXKGC0HZB1VNEMH4SWP73O3GW1","","null","<img src=""img/food6.png"" style=""width:200px; border:14px solid green;"">","null","","","",""
"","image-keyboard-response","303","265303","0.0-303.0","3ZWFC4W1UVTQBPG0VA6ICVD2E4ORFF","A2V6E7SGEU0EFD","3LN3BXKGC0HZB1VNEMH4SWP73O3GW1","","481.3999999985099","img/food1.png","74","482.1000000014901","74","0",""
"","html-keyboard-response","304","265604","0.0-304.0","3ZWFC4W1UVTQBPG0VA6ICVD2E4ORFF","A2V6E7SGEU0EFD","3LN3BXKGC0HZB1VNEMH4SWP73O3GW1","","null","<img src=""img/food1.png"" style=""width:200px;border:14px solid red;"">","null","","","",""
"","image-keyboard-response","305","266340","0.0-305.0","3ZWFC4W1UVTQBPG0VA6ICVD2E4ORFF","A2V6E7SGEU0EFD","3LN3BXKGC0HZB1VNEMH4SWP73O3GW1","","734.1000000014901","img/food6.png","75","735.3999999985099","75","0",""
"","html-keyboard-response","306","266641","0.0-306.0","3ZWFC4W1UVTQBPG0VA6ICVD2E4ORFF","A2V6E7SGEU0EFD","3LN3BXKGC0HZB1VNEMH4SWP73O3GW1","","null","<img src=""img/food6.png"" style=""width:200px;border:14px solid red;"">","null","","","",""
"","image-keyboard-response","307","267155","0.0-307.0","3ZWFC4W1UVTQBPG0VA6ICVD2E4ORFF","A2V6E7SGEU0EFD","3LN3BXKGC0HZB1VNEMH4SWP73O3GW1","","513.7000000029802","img/food3.png","76","514.3999999985099","76","1",""
"","html-keyboard-response","308","267457","0.0-308.0","3ZWFC4W1UVTQBPG0VA6ICVD2E4ORFF","A2V6E7SGEU0EFD","3LN3BXKGC0HZB1VNEMH4SWP73O3GW1","","null","<img src=""img/food3.png"" style=""width:200px; border:14px solid green;"">","null","","","",""
"","image-keyboard-response","309","267929","0.0-309.0","3ZWFC4W1UVTQBPG0VA6ICVD2E4ORFF","A2V6E7SGEU0EFD","3LN3BXKGC0HZB1VNEMH4SWP73O3GW1","","471","img/food1.png","75","472.20000000298023","75","0",""
"","html-keyboard-response","310","268231","0.0-310.0","3ZWFC4W1UVTQBPG0VA6ICVD2E4ORFF","A2V6E7SGEU0EFD","3LN3BXKGC0HZB1VNEMH4SWP73O3GW1","","null","<img src=""img/food1.png"" style=""width:200px;border:14px solid red;"">","null","","","",""
"","image-keyboard-response","311","269844","0.0-311.0","3ZWFC4W1UVTQBPG0VA6ICVD2E4ORFF","A2V6E7SGEU0EFD","3LN3BXKGC0HZB1VNEMH4SWP73O3GW1","","1612.3000000044703","img/food6.png","74","1612.8999999985099","74","0",""
"","html-keyboard-response","312","270147","0.0-312.0","3ZWFC4W1UVTQBPG0VA6ICVD2E4ORFF","A2V6E7SGEU0EFD","3LN3BXKGC0HZB1VNEMH4SWP73O3GW1","","null","<img src=""img/food6.png"" style=""width:200px;border:14px solid red;"">","null","","","",""
"","image-keyboard-response","313","270821","0.0-313.0","3ZWFC4W1UVTQBPG0VA6ICVD2E4ORFF","A2V6E7SGEU0EFD","3LN3BXKGC0HZB1VNEMH4SWP73O3GW1","","672.3999999985099","img/food1.png","74","673.7000000029802","74","1",""
"","html-keyboard-response","314","271122","0.0-314.0","3ZWFC4W1UVTQBPG0VA6ICVD2E4ORFF","A2V6E7SGEU0EFD","3LN3BXKGC0HZB1VNEMH4SWP73O3GW1","","null","<img src=""img/food1.png"" style=""width:200px; border:14px solid green;"">","null","","","",""
"","image-keyboard-response","315","271592","0.0-315.0","3ZWFC4W1UVTQBPG0VA6ICVD2E4ORFF","A2V6E7SGEU0EFD","3LN3BXKGC0HZB1VNEMH4SWP73O3GW1","","468.8999999985099","img/food1.png","74","469.5","74","0",""
"","html-keyboard-response","316","271894","0.0-316.0","3ZWFC4W1UVTQBPG0VA6ICVD2E4ORFF","A2V6E7SGEU0EFD","3LN3BXKGC0HZB1VNEMH4SWP73O3GW1","","null","<img src=""img/food1.png"" style=""width:200px;border:14px solid red;"">","null","","","",""
"","image-keyboard-response","317","272760","0.0-317.0","3ZWFC4W1UVTQBPG0VA6ICVD2E4ORFF","A2V6E7SGEU0EFD","3LN3BXKGC0HZB1VNEMH4SWP73O3GW1","","865.8000000044703","img/food3.png","75","866.5","75","0",""
"","html-keyboard-response","318","273061","0.0-318.0","3ZWFC4W1UVTQBPG0VA6ICVD2E4ORFF","A2V6E7SGEU0EFD","3LN3BXKGC0HZB1VNEMH4SWP73O3GW1","","null","<img src=""img/food3.png"" style=""width:200px;border:14px solid red;"">","null","","","",""
"","image-keyboard-response","319","276317","0.0-319.0","3ZWFC4W1UVTQBPG0VA6ICVD2E4ORFF","A2V6E7SGEU0EFD","3LN3BXKGC0HZB1VNEMH4SWP73O3GW1","","3254.10000000149","img/food6.png","75","3255.60000000149","75","0",""
"","html-keyboard-response","320","276620","0.0-320.0","3ZWFC4W1UVTQBPG0VA6ICVD2E4ORFF","A2V6E7SGEU0EFD","3LN3BXKGC0HZB1VNEMH4SWP73O3GW1","","null","<img src=""img/food6.png"" style=""width:200px;border:14px solid red;"">","null","","","",""
"","image-keyboard-response","321","277110","0.0-321.0","3ZWFC4W1UVTQBPG0VA6ICVD2E4ORFF","A2V6E7SGEU0EFD","3LN3BXKGC0HZB1VNEMH4SWP73O3GW1","","489.70000000298023","img/food3.png","76","490.3999999985099","76","1",""
"","html-keyboard-response","322","277412","0.0-322.0","3ZWFC4W1UVTQBPG0VA6ICVD2E4ORFF","A2V6E7SGEU0EFD","3LN3BXKGC0HZB1VNEMH4SWP73O3GW1","","null","<img src=""img/food3.png"" style=""width:200px; border:14px solid green;"">","null","","","",""
"","image-keyboard-response","323","278062","0.0-323.0","3ZWFC4W1UVTQBPG0VA6ICVD2E4ORFF","A2V6E7SGEU0EFD","3LN3BXKGC0HZB1VNEMH4SWP73O3GW1","","649.1000000014901","img/food6.png","76","649.9000000059605","76","1",""
"","html-keyboard-response","324","278364","0.0-324.0","3ZWFC4W1UVTQBPG0VA6ICVD2E4ORFF","A2V6E7SGEU0EFD","3LN3BXKGC0HZB1VNEMH4SWP73O3GW1","","null","<img src=""img/food6.png"" style=""width:200px; border:14px solid green;"">","null","","","",""
"","image-keyboard-response","325","279003","0.0-325.0","3ZWFC4W1UVTQBPG0VA6ICVD2E4ORFF","A2V6E7SGEU0EFD","3LN3BXKGC0HZB1VNEMH4SWP73O3GW1","","638.5999999940395","img/food1.png","74","639.2999999970198","74","0",""
"","html-keyboard-response","326","279305","0.0-326.0","3ZWFC4W1UVTQBPG0VA6ICVD2E4ORFF","A2V6E7SGEU0EFD","3LN3BXKGC0HZB1VNEMH4SWP73O3GW1","","null","<img src=""img/food1.png"" style=""width:200px;border:14px solid red;"">","null","","","",""
"","image-keyboard-response","327","279702","0.0-327.0","3ZWFC4W1UVTQBPG0VA6ICVD2E4ORFF","A2V6E7SGEU0EFD","3LN3BXKGC0HZB1VNEMH4SWP73O3GW1","","395.79999999701977","img/food1.png","74","397.1000000014901","74","0",""
"","html-keyboard-response","328","280004","0.0-328.0","3ZWFC4W1UVTQBPG0VA6ICVD2E4ORFF","A2V6E7SGEU0EFD","3LN3BXKGC0HZB1VNEMH4SWP73O3GW1","","null","<img src=""img/food1.png"" style=""width:200px;border:14px solid red;"">","null","","","",""
"","image-keyboard-response","329","280890","0.0-329.0","3ZWFC4W1UVTQBPG0VA6ICVD2E4ORFF","A2V6E7SGEU0EFD","3LN3BXKGC0HZB1VNEMH4SWP73O3GW1","","885.8999999985099","img/food1.png","75","886.8000000044703","75","0",""
"","html-keyboard-response","330","281193","0.0-330.0","3ZWFC4W1UVTQBPG0VA6ICVD2E4ORFF","A2V6E7SGEU0EFD","3LN3BXKGC0HZB1VNEMH4SWP73O3GW1","","null","<img src=""img/food1.png"" style=""width:200px;border:14px solid red;"">","null","","","",""
"","image-keyboard-response","331","281690","0.0-331.0","3ZWFC4W1UVTQBPG0VA6ICVD2E4ORFF","A2V6E7SGEU0EFD","3LN3BXKGC0HZB1VNEMH4SWP73O3GW1","","496.69999999552965","img/food1.png","74","497.40000000596046","74","0",""
"","html-keyboard-response","332","281992","0.0-332.0","3ZWFC4W1UVTQBPG0VA6ICVD2E4ORFF","A2V6E7SGEU0EFD","3LN3BXKGC0HZB1VNEMH4SWP73O3GW1","","null","<img src=""img/food1.png"" style=""width:200px;border:14px solid red;"">","null","","","",""
"","image-keyboard-response","333","282602","0.0-333.0","3ZWFC4W1UVTQBPG0VA6ICVD2E4ORFF","A2V6E7SGEU0EFD","3LN3BXKGC0HZB1VNEMH4SWP73O3GW1","","609","img/food3.png","76","609.7999999970198","76","1",""
"","html-keyboard-response","334","282904","0.0-334.0","3ZWFC4W1UVTQBPG0VA6ICVD2E4ORFF","A2V6E7SGEU0EFD","3LN3BXKGC0HZB1VNEMH4SWP73O3GW1","","null","<img src=""img/food3.png"" style=""width:200px; border:14px solid green;"">","null","","","",""
"","image-keyboard-response","335","283281","0.0-335.0","3ZWFC4W1UVTQBPG0VA6ICVD2E4ORFF","A2V6E7SGEU0EFD","3LN3BXKGC0HZB1VNEMH4SWP73O3GW1","","375.3999999985099","img/food3.png","76","376.70000000298023","76","1",""
"","html-keyboard-response","336","283583","0.0-336.0","3ZWFC4W1UVTQBPG0VA6ICVD2E4ORFF","A2V6E7SGEU0EFD","3LN3BXKGC0HZB1VNEMH4SWP73O3GW1","","null","<img src=""img/food3.png"" style=""width:200px; border:14px solid green;"">","null","","","",""
"","image-keyboard-response","337","284219","0.0-337.0","3ZWFC4W1UVTQBPG0VA6ICVD2E4ORFF","A2V6E7SGEU0EFD","3LN3BXKGC0HZB1VNEMH4SWP73O3GW1","","635","img/food1.png","74","636","74","0",""
"","html-keyboard-response","338","284520","0.0-338.0","3ZWFC4W1UVTQBPG0VA6ICVD2E4ORFF","A2V6E7SGEU0EFD","3LN3BXKGC0HZB1VNEMH4SWP73O3GW1","","null","<img src=""img/food1.png"" style=""width:200px;border:14px solid red;"">","null","","","",""
"","image-keyboard-response","339","284915","0.0-339.0","3ZWFC4W1UVTQBPG0VA6ICVD2E4ORFF","A2V6E7SGEU0EFD","3LN3BXKGC0HZB1VNEMH4SWP73O3GW1","","393.90000000596046","img/food1.png","74","394.79999999701977","74","1",""
"","html-keyboard-response","340","285217","0.0-340.0","3ZWFC4W1UVTQBPG0VA6ICVD2E4ORFF","A2V6E7SGEU0EFD","3LN3BXKGC0HZB1VNEMH4SWP73O3GW1","","null","<img src=""img/food1.png"" style=""width:200px; border:14px solid green;"">","null","","","",""
"","image-keyboard-response","341","285778","0.0-341.0","3ZWFC4W1UVTQBPG0VA6ICVD2E4ORFF","A2V6E7SGEU0EFD","3LN3BXKGC0HZB1VNEMH4SWP73O3GW1","","559.4000000059605","img/food6.png","75","560.8999999985099","75","1",""
"","html-keyboard-response","342","286079","0.0-342.0","3ZWFC4W1UVTQBPG0VA6ICVD2E4ORFF","A2V6E7SGEU0EFD","3LN3BXKGC0HZB1VNEMH4SWP73O3GW1","","null","<img src=""img/food6.png"" style=""width:200px; border:14px solid green;"">","null","","","",""
"","image-keyboard-response","343","286395","0.0-343.0","3ZWFC4W1UVTQBPG0VA6ICVD2E4ORFF","A2V6E7SGEU0EFD","3LN3BXKGC0HZB1VNEMH4SWP73O3GW1","","314.80000000447035","img/food6.png","75","315.79999999701977","75","1",""
"","html-keyboard-response","344","286697","0.0-344.0","3ZWFC4W1UVTQBPG0VA6ICVD2E4ORFF","A2V6E7SGEU0EFD","3LN3BXKGC0HZB1VNEMH4SWP73O3GW1","","null","<img src=""img/food6.png"" style=""width:200px; border:14px solid green;"">","null","","","",""
"","image-keyboard-response","345","286985","0.0-345.0","3ZWFC4W1UVTQBPG0VA6ICVD2E4ORFF","A2V6E7SGEU0EFD","3LN3BXKGC0HZB1VNEMH4SWP73O3GW1","","286.5","img/food6.png","75","287.70000000298023","75","0",""
"","html-keyboard-response","346","287286","0.0-346.0","3ZWFC4W1UVTQBPG0VA6ICVD2E4ORFF","A2V6E7SGEU0EFD","3LN3BXKGC0HZB1VNEMH4SWP73O3GW1","","null","<img src=""img/food6.png"" style=""width:200px;border:14px solid red;"">","null","","","",""
"","image-keyboard-response","347","287926","0.0-347.0","3ZWFC4W1UVTQBPG0VA6ICVD2E4ORFF","A2V6E7SGEU0EFD","3LN3BXKGC0HZB1VNEMH4SWP73O3GW1","","638.7999999970198","img/food3.png","76","639.6000000014901","76","1",""
"","html-keyboard-response","348","288227","0.0-348.0","3ZWFC4W1UVTQBPG0VA6ICVD2E4ORFF","A2V6E7SGEU0EFD","3LN3BXKGC0HZB1VNEMH4SWP73O3GW1","","null","<img src=""img/food3.png"" style=""width:200px; border:14px solid green;"">","null","","","",""
"","image-keyboard-response","349","288543","0.0-349.0","3ZWFC4W1UVTQBPG0VA6ICVD2E4ORFF","A2V6E7SGEU0EFD","3LN3BXKGC0HZB1VNEMH4SWP73O3GW1","","315","img/food3.png","76","315.90000000596046","76","0",""
"","html-keyboard-response","350","288845","0.0-350.0","3ZWFC4W1UVTQBPG0VA6ICVD2E4ORFF","A2V6E7SGEU0EFD","3LN3BXKGC0HZB1VNEMH4SWP73O3GW1","","null","<img src=""img/food3.png"" style=""width:200px;border:14px solid red;"">","null","","","",""
"","image-keyboard-response","351","289492","0.0-351.0","3ZWFC4W1UVTQBPG0VA6ICVD2E4ORFF","A2V6E7SGEU0EFD","3LN3BXKGC0HZB1VNEMH4SWP73O3GW1","","645.8000000044703","img/food3.png","76","646.6999999955297","76","1",""
"","html-keyboard-response","352","289794","0.0-352.0","3ZWFC4W1UVTQBPG0VA6ICVD2E4ORFF","A2V6E7SGEU0EFD","3LN3BXKGC0HZB1VNEMH4SWP73O3GW1","","null","<img src=""img/food3.png"" style=""width:200px; border:14px solid green;"">","null","","","",""
"","image-keyboard-response","353","290532","0.0-353.0","3ZWFC4W1UVTQBPG0VA6ICVD2E4ORFF","A2V6E7SGEU0EFD","3LN3BXKGC0HZB1VNEMH4SWP73O3GW1","","737.2999999970198","img/food6.png","75","738.2000000029802","75","1",""
"","html-keyboard-response","354","290833","0.0-354.0","3ZWFC4W1UVTQBPG0VA6ICVD2E4ORFF","A2V6E7SGEU0EFD","3LN3BXKGC0HZB1VNEMH4SWP73O3GW1","","null","<img src=""img/food6.png"" style=""width:200px; border:14px solid green;"">","null","","","",""
"","image-keyboard-response","355","291832","0.0-355.0","3ZWFC4W1UVTQBPG0VA6ICVD2E4ORFF","A2V6E7SGEU0EFD","3LN3BXKGC0HZB1VNEMH4SWP73O3GW1","","997.2999999970198","img/food6.png","75","998.7000000029802","75","0",""
"","html-keyboard-response","356","292134","0.0-356.0","3ZWFC4W1UVTQBPG0VA6ICVD2E4ORFF","A2V6E7SGEU0EFD","3LN3BXKGC0HZB1VNEMH4SWP73O3GW1","","null","<img src=""img/food6.png"" style=""width:200px;border:14px solid red;"">","null","","","",""
"","image-keyboard-response","357","292588","0.0-357.0","3ZWFC4W1UVTQBPG0VA6ICVD2E4ORFF","A2V6E7SGEU0EFD","3LN3BXKGC0HZB1VNEMH4SWP73O3GW1","","453.3999999985099","img/food1.png","74","454.20000000298023","74","0",""
"","html-keyboard-response","358","292890","0.0-358.0","3ZWFC4W1UVTQBPG0VA6ICVD2E4ORFF","A2V6E7SGEU0EFD","3LN3BXKGC0HZB1VNEMH4SWP73O3GW1","","null","<img src=""img/food1.png"" style=""width:200px;border:14px solid red;"">","null","","","",""
"","image-keyboard-response","359","293104","0.0-359.0","3ZWFC4W1UVTQBPG0VA6ICVD2E4ORFF","A2V6E7SGEU0EFD","3LN3BXKGC0HZB1VNEMH4SWP73O3GW1","","212.89999999850988","img/food1.png","74","213.79999999701977","74","1",""
"","html-keyboard-response","360","293405","0.0-360.0","3ZWFC4W1UVTQBPG0VA6ICVD2E4ORFF","A2V6E7SGEU0EFD","3LN3BXKGC0HZB1VNEMH4SWP73O3GW1","","null","<img src=""img/food1.png"" style=""width:200px; border:14px solid green;"">","null","","","",""
"","image-keyboard-response","361","294002","0.0-361.0","3ZWFC4W1UVTQBPG0VA6ICVD2E4ORFF","A2V6E7SGEU0EFD","3LN3BXKGC0HZB1VNEMH4SWP73O3GW1","","595.1000000014901","img/food3.png","76","596.4000000059605","76","0",""
"","html-keyboard-response","362","294304","0.0-362.0","3ZWFC4W1UVTQBPG0VA6ICVD2E4ORFF","A2V6E7SGEU0EFD","3LN3BXKGC0HZB1VNEMH4SWP73O3GW1","","null","<img src=""img/food3.png"" style=""width:200px;border:14px solid red;"">","null","","","",""
"","instructions","363","296278","0.0-363.0","3ZWFC4W1UVTQBPG0VA6ICVD2E4ORFF","A2V6E7SGEU0EFD","3LN3BXKGC0HZB1VNEMH4SWP73O3GW1","[{""page_index"":0,""viewing_time"":1973.1000000014901}]","1973.5","","","","","",""
"","survey-text","364","298362","0.0-364.0","3ZWFC4W1UVTQBPG0VA6ICVD2E4ORFF","A2V6E7SGEU0EFD","3LN3BXKGC0HZB1VNEMH4SWP73O3GW1","","2082","","","","","","{""Q0"":""A2V6E7SGEU0EFD""}"
