"success","trial_type","trial_index","time_elapsed","internal_node_id","assignmentID","mturkID","hitID","view_history","rt","stimulus","key_press","reactionTime","a","r","s","reward_cond","warning","responses"
"true","fullscreen","0","2446","0.0-0.0","30LB5CDZNDW8GCN129HAVRSXJLRZ0R","A2VZBQLSFZC519","30F94FBDNR6BS3JI3VKF41RBJN4TBU","","","","","","","","","","",""
"","instructions","1","17039","0.0-1.0","30LB5CDZNDW8GCN129HAVRSXJLRZ0R","A2VZBQLSFZC519","30F94FBDNR6BS3JI3VKF41RBJN4TBU","[{""page_index"":0,""viewing_time"":3491.1000000089407},{""page_index"":1,""viewing_time"":1109.7999999970198},{""page_index"":2,""viewing_time"":659.5999999940395},{""page_index"":3,""viewing_time"":4125.100000008941},{""page_index"":4,""viewing_time"":2377.5},{""page_index"":5,""viewing_time"":1553},{""page_index"":6,""viewing_time"":1274.8999999910593}]","14591.5","","","","","","","","",""
"","image-keyboard-response","2","18121","0.0-2.0","30LB5CDZNDW8GCN129HAVRSXJLRZ0R","A2VZBQLSFZC519","30F94FBDNR6BS3JI3VKF41RBJN4TBU","","1081.2999999970198","img/food4.png","74","1082.0999999940395","1","1","2","1,0.5,0,1,0.5,0,0.5,0,1","",""
"","html-keyboard-response","3","18423","0.0-3.0","30LB5CDZNDW8GCN129HAVRSXJLRZ0R","A2VZBQLSFZC519","30F94FBDNR6BS3JI3VKF41RBJN4TBU","","null","<img src=""img/food4.png"" style=""width:200px; border:14px solid green;"">","null","","","","","","",""
"","image-keyboard-response","4","18892","0.0-4.0","30LB5CDZNDW8GCN129HAVRSXJLRZ0R","A2VZBQLSFZC519","30F94FBDNR6BS3JI3VKF41RBJN4TBU","","468.09999999403954","img/food5.png","75","468.70000000298023","2","0","3","1,0.5,0,1,0.5,0,0.5,0,1","",""
"","html-keyboard-response","5","19193","0.0-5.0","30LB5CDZNDW8GCN129HAVRSXJLRZ0R","A2VZBQLSFZC519","30F94FBDNR6BS3JI3VKF41RBJN4TBU","","null","<img src=""img/food5.png"" style=""width:200px;border:14px solid red;"">","null","","","","","","",""
"","image-keyboard-response","6","19901","0.0-6.0","30LB5CDZNDW8GCN129HAVRSXJLRZ0R","A2VZBQLSFZC519","30F94FBDNR6BS3JI3VKF41RBJN4TBU","","707.4000000059605","img/food4.png","74","708","1","1","2","1,0.5,0,1,0.5,0,0.5,0,1","",""
"","html-keyboard-response","7","20203","0.0-7.0","30LB5CDZNDW8GCN129HAVRSXJLRZ0R","A2VZBQLSFZC519","30F94FBDNR6BS3JI3VKF41RBJN4TBU","","null","<img src=""img/food4.png"" style=""width:200px; border:14px solid green;"">","null","","","","","","",""
"","image-keyboard-response","8","20705","0.0-8.0","30LB5CDZNDW8GCN129HAVRSXJLRZ0R","A2VZBQLSFZC519","30F94FBDNR6BS3JI3VKF41RBJN4TBU","","502","img/food5.png","76","502.59999999403954","3","1","3","1,0.5,0,1,0.5,0,0.5,0,1","",""
"","html-keyboard-response","9","21007","0.0-9.0","30LB5CDZNDW8GCN129HAVRSXJLRZ0R","A2VZBQLSFZC519","30F94FBDNR6BS3JI3VKF41RBJN4TBU","","null","<img src=""img/food5.png"" style=""width:200px; border:14px solid green;"">","null","","","","","","",""
"","image-keyboard-response","10","21403","0.0-10.0","30LB5CDZNDW8GCN129HAVRSXJLRZ0R","A2VZBQLSFZC519","30F94FBDNR6BS3JI3VKF41RBJN4TBU","","395.79999999701977","img/food5.png","76","396.3999999910593","3","1","3","1,0.5,0,1,0.5,0,0.5,0,1","",""
"","html-keyboard-response","11","21704","0.0-11.0","30LB5CDZNDW8GCN129HAVRSXJLRZ0R","A2VZBQLSFZC519","30F94FBDNR6BS3JI3VKF41RBJN4TBU","","null","<img src=""img/food5.png"" style=""width:200px; border:14px solid green;"">","null","","","","","","",""
"","image-keyboard-response","12","22159","0.0-12.0","30LB5CDZNDW8GCN129HAVRSXJLRZ0R","A2VZBQLSFZC519","30F94FBDNR6BS3JI3VKF41RBJN4TBU","","454.29999999701977","img/food4.png","74","454.90000000596046","1","1","2","1,0.5,0,1,0.5,0,0.5,0,1","",""
"","html-keyboard-response","13","22460","0.0-13.0","30LB5CDZNDW8GCN129HAVRSXJLRZ0R","A2VZBQLSFZC519","30F94FBDNR6BS3JI3VKF41RBJN4TBU","","null","<img src=""img/food4.png"" style=""width:200px; border:14px solid green;"">","null","","","","","","",""
"","image-keyboard-response","14","22862","0.0-14.0","30LB5CDZNDW8GCN129HAVRSXJLRZ0R","A2VZBQLSFZC519","30F94FBDNR6BS3JI3VKF41RBJN4TBU","","400.59999999403954","img/food5.png","76","401.1000000089407","3","1","3","1,0.5,0,1,0.5,0,0.5,0,1","",""
"","html-keyboard-response","15","23163","0.0-15.0","30LB5CDZNDW8GCN129HAVRSXJLRZ0R","A2VZBQLSFZC519","30F94FBDNR6BS3JI3VKF41RBJN4TBU","","null","<img src=""img/food5.png"" style=""width:200px; border:14px solid green;"">","null","","","","","","",""
"","image-keyboard-response","16","23560","0.0-16.0","30LB5CDZNDW8GCN129HAVRSXJLRZ0R","A2VZBQLSFZC519","30F94FBDNR6BS3JI3VKF41RBJN4TBU","","395.70000000298023","img/food5.png","76","396.29999999701977","3","1","3","1,0.5,0,1,0.5,0,0.5,0,1","",""
"","html-keyboard-response","17","23861","0.0-17.0","30LB5CDZNDW8GCN129HAVRSXJLRZ0R","A2VZBQLSFZC519","30F94FBDNR6BS3JI3VKF41RBJN4TBU","","null","<img src=""img/food5.png"" style=""width:200px; border:14px solid green;"">","null","","","","","","",""
"","image-keyboard-response","18","24292","0.0-18.0","30LB5CDZNDW8GCN129HAVRSXJLRZ0R","A2VZBQLSFZC519","30F94FBDNR6BS3JI3VKF41RBJN4TBU","","430.79999999701977","img/food5.png","76","431.5","3","1","3","1,0.5,0,1,0.5,0,0.5,0,1","",""
"","html-keyboard-response","19","24594","0.0-19.0","30LB5CDZNDW8GCN129HAVRSXJLRZ0R","A2VZBQLSFZC519","30F94FBDNR6BS3JI3VKF41RBJN4TBU","","null","<img src=""img/food5.png"" style=""width:200px; border:14px solid green;"">","null","","","","","","",""
"","image-keyboard-response","20","25093","0.0-20.0","30LB5CDZNDW8GCN129HAVRSXJLRZ0R","A2VZBQLSFZC519","30F94FBDNR6BS3JI3VKF41RBJN4TBU","","498.20000000298023","img/food3.png","75","498.90000000596046","2","0","1","1,0.5,0,1,0.5,0,0.5,0,1","",""
"","html-keyboard-response","21","25394","0.0-21.0","30LB5CDZNDW8GCN129HAVRSXJLRZ0R","A2VZBQLSFZC519","30F94FBDNR6BS3JI3VKF41RBJN4TBU","","null","<img src=""img/food3.png"" style=""width:200px;border:14px solid red;"">","null","","","","","","",""
"","image-keyboard-response","22","26391","0.0-22.0","30LB5CDZNDW8GCN129HAVRSXJLRZ0R","A2VZBQLSFZC519","30F94FBDNR6BS3JI3VKF41RBJN4TBU","","996.2999999970198","img/food4.png","74","996.9000000059605","1","1","2","1,0.5,0,1,0.5,0,0.5,0,1","",""
"","html-keyboard-response","23","26692","0.0-23.0","30LB5CDZNDW8GCN129HAVRSXJLRZ0R","A2VZBQLSFZC519","30F94FBDNR6BS3JI3VKF41RBJN4TBU","","null","<img src=""img/food4.png"" style=""width:200px; border:14px solid green;"">","null","","","","","","",""
"","image-keyboard-response","24","27213","0.0-24.0","30LB5CDZNDW8GCN129HAVRSXJLRZ0R","A2VZBQLSFZC519","30F94FBDNR6BS3JI3VKF41RBJN4TBU","","519.7999999970198","img/food5.png","76","520.3000000119209","3","1","3","1,0.5,0,1,0.5,0,0.5,0,1","",""
"","html-keyboard-response","25","27515","0.0-25.0","30LB5CDZNDW8GCN129HAVRSXJLRZ0R","A2VZBQLSFZC519","30F94FBDNR6BS3JI3VKF41RBJN4TBU","","null","<img src=""img/food5.png"" style=""width:200px; border:14px solid green;"">","null","","","","","","",""
"","image-keyboard-response","26","28025","0.0-26.0","30LB5CDZNDW8GCN129HAVRSXJLRZ0R","A2VZBQLSFZC519","30F94FBDNR6BS3JI3VKF41RBJN4TBU","","509.29999999701977","img/food4.png","74","509.79999999701977","1","1","2","1,0.5,0,1,0.5,0,0.5,0,1","",""
"","html-keyboard-response","27","28327","0.0-27.0","30LB5CDZNDW8GCN129HAVRSXJLRZ0R","A2VZBQLSFZC519","30F94FBDNR6BS3JI3VKF41RBJN4TBU","","null","<img src=""img/food4.png"" style=""width:200px; border:14px solid green;"">","null","","","","","","",""
"","image-keyboard-response","28","29074","0.0-28.0","30LB5CDZNDW8GCN129HAVRSXJLRZ0R","A2VZBQLSFZC519","30F94FBDNR6BS3JI3VKF41RBJN4TBU","","745.7999999970198","img/food3.png","76","746.5","3","0","1","1,0.5,0,1,0.5,0,0.5,0,1","",""
"","html-keyboard-response","29","29375","0.0-29.0","30LB5CDZNDW8GCN129HAVRSXJLRZ0R","A2VZBQLSFZC519","30F94FBDNR6BS3JI3VKF41RBJN4TBU","","null","<img src=""img/food3.png"" style=""width:200px;border:14px solid red;"">","null","","","","","","",""
"","image-keyboard-response","30","30556","0.0-30.0","30LB5CDZNDW8GCN129HAVRSXJLRZ0R","A2VZBQLSFZC519","30F94FBDNR6BS3JI3VKF41RBJN4TBU","","1179","img/food5.png","76","1179.5","3","1","3","1,0.5,0,1,0.5,0,0.5,0,1","",""
"","html-keyboard-response","31","30857","0.0-31.0","30LB5CDZNDW8GCN129HAVRSXJLRZ0R","A2VZBQLSFZC519","30F94FBDNR6BS3JI3VKF41RBJN4TBU","","null","<img src=""img/food5.png"" style=""width:200px; border:14px solid green;"">","null","","","","","","",""
"","image-keyboard-response","32","31234","0.0-32.0","30LB5CDZNDW8GCN129HAVRSXJLRZ0R","A2VZBQLSFZC519","30F94FBDNR6BS3JI3VKF41RBJN4TBU","","376.3999999910593","img/food5.png","76","377","3","1","3","1,0.5,0,1,0.5,0,0.5,0,1","",""
"","html-keyboard-response","33","31537","0.0-33.0","30LB5CDZNDW8GCN129HAVRSXJLRZ0R","A2VZBQLSFZC519","30F94FBDNR6BS3JI3VKF41RBJN4TBU","","null","<img src=""img/food5.png"" style=""width:200px; border:14px solid green;"">","null","","","","","","",""
"","image-keyboard-response","34","32593","0.0-34.0","30LB5CDZNDW8GCN129HAVRSXJLRZ0R","A2VZBQLSFZC519","30F94FBDNR6BS3JI3VKF41RBJN4TBU","","1055","img/food4.png","74","1055.6000000089407","1","1","2","1,0.5,0,1,0.5,0,0.5,0,1","",""
"","html-keyboard-response","35","32894","0.0-35.0","30LB5CDZNDW8GCN129HAVRSXJLRZ0R","A2VZBQLSFZC519","30F94FBDNR6BS3JI3VKF41RBJN4TBU","","null","<img src=""img/food4.png"" style=""width:200px; border:14px solid green;"">","null","","","","","","",""
"","image-keyboard-response","36","33455","0.0-36.0","30LB5CDZNDW8GCN129HAVRSXJLRZ0R","A2VZBQLSFZC519","30F94FBDNR6BS3JI3VKF41RBJN4TBU","","560.0999999940395","img/food5.png","76","560.6999999880791","3","1","3","1,0.5,0,1,0.5,0,0.5,0,1","",""
"","html-keyboard-response","37","33757","0.0-37.0","30LB5CDZNDW8GCN129HAVRSXJLRZ0R","A2VZBQLSFZC519","30F94FBDNR6BS3JI3VKF41RBJN4TBU","","null","<img src=""img/food5.png"" style=""width:200px; border:14px solid green;"">","null","","","","","","",""
"","image-keyboard-response","38","34415","0.0-38.0","30LB5CDZNDW8GCN129HAVRSXJLRZ0R","A2VZBQLSFZC519","30F94FBDNR6BS3JI3VKF41RBJN4TBU","","657.2000000029802","img/food3.png","74","657.7999999970198","1","1","1","1,0.5,0,1,0.5,0,0.5,0,1","",""
"","html-keyboard-response","39","34717","0.0-39.0","30LB5CDZNDW8GCN129HAVRSXJLRZ0R","A2VZBQLSFZC519","30F94FBDNR6BS3JI3VKF41RBJN4TBU","","null","<img src=""img/food3.png"" style=""width:200px; border:14px solid green;"">","null","","","","","","",""
"","image-keyboard-response","40","35698","0.0-40.0","30LB5CDZNDW8GCN129HAVRSXJLRZ0R","A2VZBQLSFZC519","30F94FBDNR6BS3JI3VKF41RBJN4TBU","","980.8000000119209","img/food4.png","76","981.2000000029802","3","0","2","1,0.5,0,1,0.5,0,0.5,0,1","",""
"","html-keyboard-response","41","35999","0.0-41.0","30LB5CDZNDW8GCN129HAVRSXJLRZ0R","A2VZBQLSFZC519","30F94FBDNR6BS3JI3VKF41RBJN4TBU","","null","<img src=""img/food4.png"" style=""width:200px;border:14px solid red;"">","null","","","","","","",""
"","image-keyboard-response","42","36719","0.0-42.0","30LB5CDZNDW8GCN129HAVRSXJLRZ0R","A2VZBQLSFZC519","30F94FBDNR6BS3JI3VKF41RBJN4TBU","","718.7000000029802","img/food3.png","74","719.2000000029802","1","1","1","1,0.5,0,1,0.5,0,0.5,0,1","",""
"","html-keyboard-response","43","37020","0.0-43.0","30LB5CDZNDW8GCN129HAVRSXJLRZ0R","A2VZBQLSFZC519","30F94FBDNR6BS3JI3VKF41RBJN4TBU","","null","<img src=""img/food3.png"" style=""width:200px; border:14px solid green;"">","null","","","","","","",""
"","image-keyboard-response","44","37463","0.0-44.0","30LB5CDZNDW8GCN129HAVRSXJLRZ0R","A2VZBQLSFZC519","30F94FBDNR6BS3JI3VKF41RBJN4TBU","","442.40000000596046","img/food4.png","74","443","1","1","2","1,0.5,0,1,0.5,0,0.5,0,1","",""
"","html-keyboard-response","45","37764","0.0-45.0","30LB5CDZNDW8GCN129HAVRSXJLRZ0R","A2VZBQLSFZC519","30F94FBDNR6BS3JI3VKF41RBJN4TBU","","null","<img src=""img/food4.png"" style=""width:200px; border:14px solid green;"">","null","","","","","","",""
"","image-keyboard-response","46","38146","0.0-46.0","30LB5CDZNDW8GCN129HAVRSXJLRZ0R","A2VZBQLSFZC519","30F94FBDNR6BS3JI3VKF41RBJN4TBU","","381.79999999701977","img/food4.png","74","382.40000000596046","1","1","2","1,0.5,0,1,0.5,0,0.5,0,1","",""
"","html-keyboard-response","47","38447","0.0-47.0","30LB5CDZNDW8GCN129HAVRSXJLRZ0R","A2VZBQLSFZC519","30F94FBDNR6BS3JI3VKF41RBJN4TBU","","null","<img src=""img/food4.png"" style=""width:200px; border:14px solid green;"">","null","","","","","","",""
"","image-keyboard-response","48","38865","0.0-48.0","30LB5CDZNDW8GCN129HAVRSXJLRZ0R","A2VZBQLSFZC519","30F94FBDNR6BS3JI3VKF41RBJN4TBU","","417.3999999910593","img/food3.png","74","417.90000000596046","1","1","1","1,0.5,0,1,0.5,0,0.5,0,1","",""
"","html-keyboard-response","49","39167","0.0-49.0","30LB5CDZNDW8GCN129HAVRSXJLRZ0R","A2VZBQLSFZC519","30F94FBDNR6BS3JI3VKF41RBJN4TBU","","null","<img src=""img/food3.png"" style=""width:200px; border:14px solid green;"">","null","","","","","","",""
"","image-keyboard-response","50","39708","0.0-50.0","30LB5CDZNDW8GCN129HAVRSXJLRZ0R","A2VZBQLSFZC519","30F94FBDNR6BS3JI3VKF41RBJN4TBU","","541","img/food4.png","74","541.5","1","1","2","1,0.5,0,1,0.5,0,0.5,0,1","",""
"","html-keyboard-response","51","40011","0.0-51.0","30LB5CDZNDW8GCN129HAVRSXJLRZ0R","A2VZBQLSFZC519","30F94FBDNR6BS3JI3VKF41RBJN4TBU","","null","<img src=""img/food4.png"" style=""width:200px; border:14px solid green;"">","null","","","","","","",""
"","image-keyboard-response","52","40524","0.0-52.0","30LB5CDZNDW8GCN129HAVRSXJLRZ0R","A2VZBQLSFZC519","30F94FBDNR6BS3JI3VKF41RBJN4TBU","","512.5","img/food3.png","74","513","1","1","1","1,0.5,0,1,0.5,0,0.5,0,1","",""
"","html-keyboard-response","53","40826","0.0-53.0","30LB5CDZNDW8GCN129HAVRSXJLRZ0R","A2VZBQLSFZC519","30F94FBDNR6BS3JI3VKF41RBJN4TBU","","null","<img src=""img/food3.png"" style=""width:200px; border:14px solid green;"">","null","","","","","","",""
"","image-keyboard-response","54","41471","0.0-54.0","30LB5CDZNDW8GCN129HAVRSXJLRZ0R","A2VZBQLSFZC519","30F94FBDNR6BS3JI3VKF41RBJN4TBU","","645.1000000089407","img/food5.png","76","645.6000000089407","3","1","3","1,0.5,0,1,0.5,0,0.5,0,1","",""
"","html-keyboard-response","55","41773","0.0-55.0","30LB5CDZNDW8GCN129HAVRSXJLRZ0R","A2VZBQLSFZC519","30F94FBDNR6BS3JI3VKF41RBJN4TBU","","null","<img src=""img/food5.png"" style=""width:200px; border:14px solid green;"">","null","","","","","","",""
"","image-keyboard-response","56","42304","0.0-56.0","30LB5CDZNDW8GCN129HAVRSXJLRZ0R","A2VZBQLSFZC519","30F94FBDNR6BS3JI3VKF41RBJN4TBU","","530.5","img/food3.png","74","531.0999999940395","1","1","1","1,0.5,0,1,0.5,0,0.5,0,1","",""
"","html-keyboard-response","57","42606","0.0-57.0","30LB5CDZNDW8GCN129HAVRSXJLRZ0R","A2VZBQLSFZC519","30F94FBDNR6BS3JI3VKF41RBJN4TBU","","null","<img src=""img/food3.png"" style=""width:200px; border:14px solid green;"">","null","","","","","","",""
"","image-keyboard-response","58","42887","0.0-58.0","30LB5CDZNDW8GCN129HAVRSXJLRZ0R","A2VZBQLSFZC519","30F94FBDNR6BS3JI3VKF41RBJN4TBU","","280.29999999701977","img/food5.png","74","280.8999999910593","1","0","3","1,0.5,0,1,0.5,0,0.5,0,1","",""
"","html-keyboard-response","59","43188","0.0-59.0","30LB5CDZNDW8GCN129HAVRSXJLRZ0R","A2VZBQLSFZC519","30F94FBDNR6BS3JI3VKF41RBJN4TBU","","null","<img src=""img/food5.png"" style=""width:200px;border:14px solid red;"">","null","","","","","","",""
"","image-keyboard-response","60","43418","0.0-60.0","30LB5CDZNDW8GCN129HAVRSXJLRZ0R","A2VZBQLSFZC519","30F94FBDNR6BS3JI3VKF41RBJN4TBU","","229.29999999701977","img/food3.png","76","230","3","0","1","1,0.5,0,1,0.5,0,0.5,0,1","",""
"","html-keyboard-response","61","43720","0.0-61.0","30LB5CDZNDW8GCN129HAVRSXJLRZ0R","A2VZBQLSFZC519","30F94FBDNR6BS3JI3VKF41RBJN4TBU","","null","<img src=""img/food3.png"" style=""width:200px;border:14px solid red;"">","null","","","","","","",""
"","image-keyboard-response","62","44765","0.0-62.0","30LB5CDZNDW8GCN129HAVRSXJLRZ0R","A2VZBQLSFZC519","30F94FBDNR6BS3JI3VKF41RBJN4TBU","","1044.2000000029802","img/food4.png","74","1044.7999999970198","1","1","2","1,0.5,0,1,0.5,0,0.5,0,1","",""
"","html-keyboard-response","63","45067","0.0-63.0","30LB5CDZNDW8GCN129HAVRSXJLRZ0R","A2VZBQLSFZC519","30F94FBDNR6BS3JI3VKF41RBJN4TBU","","null","<img src=""img/food4.png"" style=""width:200px; border:14px solid green;"">","null","","","","","","",""
"","image-keyboard-response","64","45583","0.0-64.0","30LB5CDZNDW8GCN129HAVRSXJLRZ0R","A2VZBQLSFZC519","30F94FBDNR6BS3JI3VKF41RBJN4TBU","","516","img/food5.png","76","516.6000000089407","3","1","3","1,0.5,0,1,0.5,0,0.5,0,1","",""
"","html-keyboard-response","65","45885","0.0-65.0","30LB5CDZNDW8GCN129HAVRSXJLRZ0R","A2VZBQLSFZC519","30F94FBDNR6BS3JI3VKF41RBJN4TBU","","null","<img src=""img/food5.png"" style=""width:200px; border:14px solid green;"">","null","","","","","","",""
"","image-keyboard-response","66","47639","0.0-66.0","30LB5CDZNDW8GCN129HAVRSXJLRZ0R","A2VZBQLSFZC519","30F94FBDNR6BS3JI3VKF41RBJN4TBU","","1753.800000011921","img/food3.png","74","1754.2999999970198","1","1","1","1,0.5,0,1,0.5,0,0.5,0,1","",""
"","html-keyboard-response","67","47940","0.0-67.0","30LB5CDZNDW8GCN129HAVRSXJLRZ0R","A2VZBQLSFZC519","30F94FBDNR6BS3JI3VKF41RBJN4TBU","","null","<img src=""img/food3.png"" style=""width:200px; border:14px solid green;"">","null","","","","","","",""
"","image-keyboard-response","68","48530","0.0-68.0","30LB5CDZNDW8GCN129HAVRSXJLRZ0R","A2VZBQLSFZC519","30F94FBDNR6BS3JI3VKF41RBJN4TBU","","589","img/food5.png","76","589.5999999940395","3","1","3","1,0.5,0,1,0.5,0,0.5,0,1","",""
"","html-keyboard-response","69","48831","0.0-69.0","30LB5CDZNDW8GCN129HAVRSXJLRZ0R","A2VZBQLSFZC519","30F94FBDNR6BS3JI3VKF41RBJN4TBU","","null","<img src=""img/food5.png"" style=""width:200px; border:14px solid green;"">","null","","","","","","",""
"","image-keyboard-response","70","49350","0.0-70.0","30LB5CDZNDW8GCN129HAVRSXJLRZ0R","A2VZBQLSFZC519","30F94FBDNR6BS3JI3VKF41RBJN4TBU","","518.7999999970198","img/food4.png","74","519.2999999970198","1","1","2","1,0.5,0,1,0.5,0,0.5,0,1","",""
"","html-keyboard-response","71","49652","0.0-71.0","30LB5CDZNDW8GCN129HAVRSXJLRZ0R","A2VZBQLSFZC519","30F94FBDNR6BS3JI3VKF41RBJN4TBU","","null","<img src=""img/food4.png"" style=""width:200px; border:14px solid green;"">","null","","","","","","",""
"","image-keyboard-response","72","50067","0.0-72.0","30LB5CDZNDW8GCN129HAVRSXJLRZ0R","A2VZBQLSFZC519","30F94FBDNR6BS3JI3VKF41RBJN4TBU","","414.29999999701977","img/food4.png","74","414.79999999701977","1","1","2","1,0.5,0,1,0.5,0,0.5,0,1","",""
"","html-keyboard-response","73","50369","0.0-73.0","30LB5CDZNDW8GCN129HAVRSXJLRZ0R","A2VZBQLSFZC519","30F94FBDNR6BS3JI3VKF41RBJN4TBU","","null","<img src=""img/food4.png"" style=""width:200px; border:14px solid green;"">","null","","","","","","",""
"","image-keyboard-response","74","50815","0.0-74.0","30LB5CDZNDW8GCN129HAVRSXJLRZ0R","A2VZBQLSFZC519","30F94FBDNR6BS3JI3VKF41RBJN4TBU","","445.70000000298023","img/food5.png","76","446.09999999403954","3","1","3","1,0.5,0,1,0.5,0,0.5,0,1","",""
"","html-keyboard-response","75","51118","0.0-75.0","30LB5CDZNDW8GCN129HAVRSXJLRZ0R","A2VZBQLSFZC519","30F94FBDNR6BS3JI3VKF41RBJN4TBU","","null","<img src=""img/food5.png"" style=""width:200px; border:14px solid green;"">","null","","","","","","",""
"","image-keyboard-response","76","51521","0.0-76.0","30LB5CDZNDW8GCN129HAVRSXJLRZ0R","A2VZBQLSFZC519","30F94FBDNR6BS3JI3VKF41RBJN4TBU","","402.6000000089407","img/food4.png","74","403","1","1","2","1,0.5,0,1,0.5,0,0.5,0,1","",""
"","html-keyboard-response","77","51822","0.0-77.0","30LB5CDZNDW8GCN129HAVRSXJLRZ0R","A2VZBQLSFZC519","30F94FBDNR6BS3JI3VKF41RBJN4TBU","","null","<img src=""img/food4.png"" style=""width:200px; border:14px solid green;"">","null","","","","","","",""
"","image-keyboard-response","78","52276","0.0-78.0","30LB5CDZNDW8GCN129HAVRSXJLRZ0R","A2VZBQLSFZC519","30F94FBDNR6BS3JI3VKF41RBJN4TBU","","452.90000000596046","img/food5.png","76","453.40000000596046","3","1","3","1,0.5,0,1,0.5,0,0.5,0,1","",""
"","html-keyboard-response","79","52577","0.0-79.0","30LB5CDZNDW8GCN129HAVRSXJLRZ0R","A2VZBQLSFZC519","30F94FBDNR6BS3JI3VKF41RBJN4TBU","","null","<img src=""img/food5.png"" style=""width:200px; border:14px solid green;"">","null","","","","","","",""
"","image-keyboard-response","80","52980","0.0-80.0","30LB5CDZNDW8GCN129HAVRSXJLRZ0R","A2VZBQLSFZC519","30F94FBDNR6BS3JI3VKF41RBJN4TBU","","402.3999999910593","img/food5.png","76","402.8999999910593","3","1","3","1,0.5,0,1,0.5,0,0.5,0,1","",""
"","html-keyboard-response","81","53281","0.0-81.0","30LB5CDZNDW8GCN129HAVRSXJLRZ0R","A2VZBQLSFZC519","30F94FBDNR6BS3JI3VKF41RBJN4TBU","","null","<img src=""img/food5.png"" style=""width:200px; border:14px solid green;"">","null","","","","","","",""
"","image-keyboard-response","82","53728","0.0-82.0","30LB5CDZNDW8GCN129HAVRSXJLRZ0R","A2VZBQLSFZC519","30F94FBDNR6BS3JI3VKF41RBJN4TBU","","446.3999999910593","img/food4.png","74","446.8999999910593","1","1","2","1,0.5,0,1,0.5,0,0.5,0,1","",""
"","html-keyboard-response","83","54030","0.0-83.0","30LB5CDZNDW8GCN129HAVRSXJLRZ0R","A2VZBQLSFZC519","30F94FBDNR6BS3JI3VKF41RBJN4TBU","","null","<img src=""img/food4.png"" style=""width:200px; border:14px solid green;"">","null","","","","","","",""
"","image-keyboard-response","84","54608","0.0-84.0","30LB5CDZNDW8GCN129HAVRSXJLRZ0R","A2VZBQLSFZC519","30F94FBDNR6BS3JI3VKF41RBJN4TBU","","576.6000000089407","img/food3.png","74","577.2000000029802","1","1","1","1,0.5,0,1,0.5,0,0.5,0,1","",""
"","html-keyboard-response","85","54909","0.0-85.0","30LB5CDZNDW8GCN129HAVRSXJLRZ0R","A2VZBQLSFZC519","30F94FBDNR6BS3JI3VKF41RBJN4TBU","","null","<img src=""img/food3.png"" style=""width:200px; border:14px solid green;"">","null","","","","","","",""
"","image-keyboard-response","86","55425","0.0-86.0","30LB5CDZNDW8GCN129HAVRSXJLRZ0R","A2VZBQLSFZC519","30F94FBDNR6BS3JI3VKF41RBJN4TBU","","515.2999999970198","img/food4.png","74","515.8999999910593","1","1","2","1,0.5,0,1,0.5,0,0.5,0,1","",""
"","html-keyboard-response","87","55727","0.0-87.0","30LB5CDZNDW8GCN129HAVRSXJLRZ0R","A2VZBQLSFZC519","30F94FBDNR6BS3JI3VKF41RBJN4TBU","","null","<img src=""img/food4.png"" style=""width:200px; border:14px solid green;"">","null","","","","","","",""
"","image-keyboard-response","88","56141","0.0-88.0","30LB5CDZNDW8GCN129HAVRSXJLRZ0R","A2VZBQLSFZC519","30F94FBDNR6BS3JI3VKF41RBJN4TBU","","413.3999999910593","img/food4.png","74","413.8999999910593","1","1","2","1,0.5,0,1,0.5,0,0.5,0,1","",""
"","html-keyboard-response","89","56442","0.0-89.0","30LB5CDZNDW8GCN129HAVRSXJLRZ0R","A2VZBQLSFZC519","30F94FBDNR6BS3JI3VKF41RBJN4TBU","","null","<img src=""img/food4.png"" style=""width:200px; border:14px solid green;"">","null","","","","","","",""
"","image-keyboard-response","90","56842","0.0-90.0","30LB5CDZNDW8GCN129HAVRSXJLRZ0R","A2VZBQLSFZC519","30F94FBDNR6BS3JI3VKF41RBJN4TBU","","399.09999999403954","img/food4.png","74","399.5","1","1","2","1,0.5,0,1,0.5,0,0.5,0,1","",""
"","html-keyboard-response","91","57144","0.0-91.0","30LB5CDZNDW8GCN129HAVRSXJLRZ0R","A2VZBQLSFZC519","30F94FBDNR6BS3JI3VKF41RBJN4TBU","","null","<img src=""img/food4.png"" style=""width:200px; border:14px solid green;"">","null","","","","","","",""
"","image-keyboard-response","92","57797","0.0-92.0","30LB5CDZNDW8GCN129HAVRSXJLRZ0R","A2VZBQLSFZC519","30F94FBDNR6BS3JI3VKF41RBJN4TBU","","652.5","img/food3.png","74","653.0999999940395","1","1","1","1,0.5,0,1,0.5,0,0.5,0,1","",""
"","html-keyboard-response","93","58100","0.0-93.0","30LB5CDZNDW8GCN129HAVRSXJLRZ0R","A2VZBQLSFZC519","30F94FBDNR6BS3JI3VKF41RBJN4TBU","","null","<img src=""img/food3.png"" style=""width:200px; border:14px solid green;"">","null","","","","","","",""
"","image-keyboard-response","94","58666","0.0-94.0","30LB5CDZNDW8GCN129HAVRSXJLRZ0R","A2VZBQLSFZC519","30F94FBDNR6BS3JI3VKF41RBJN4TBU","","565.0999999940395","img/food5.png","76","565.5999999940395","3","1","3","1,0.5,0,1,0.5,0,0.5,0,1","",""
"","html-keyboard-response","95","58966","0.0-95.0","30LB5CDZNDW8GCN129HAVRSXJLRZ0R","A2VZBQLSFZC519","30F94FBDNR6BS3JI3VKF41RBJN4TBU","","null","<img src=""img/food5.png"" style=""width:200px; border:14px solid green;"">","null","","","","","","",""
"","image-keyboard-response","96","59337","0.0-96.0","30LB5CDZNDW8GCN129HAVRSXJLRZ0R","A2VZBQLSFZC519","30F94FBDNR6BS3JI3VKF41RBJN4TBU","","370.70000000298023","img/food4.png","74","371.20000000298023","1","1","2","1,0.5,0,1,0.5,0,0.5,0,1","",""
"","html-keyboard-response","97","59638","0.0-97.0","30LB5CDZNDW8GCN129HAVRSXJLRZ0R","A2VZBQLSFZC519","30F94FBDNR6BS3JI3VKF41RBJN4TBU","","null","<img src=""img/food4.png"" style=""width:200px; border:14px solid green;"">","null","","","","","","",""
"","image-keyboard-response","98","60075","0.0-98.0","30LB5CDZNDW8GCN129HAVRSXJLRZ0R","A2VZBQLSFZC519","30F94FBDNR6BS3JI3VKF41RBJN4TBU","","436.20000000298023","img/food3.png","74","436.70000000298023","1","1","1","1,0.5,0,1,0.5,0,0.5,0,1","",""
"","html-keyboard-response","99","60377","0.0-99.0","30LB5CDZNDW8GCN129HAVRSXJLRZ0R","A2VZBQLSFZC519","30F94FBDNR6BS3JI3VKF41RBJN4TBU","","null","<img src=""img/food3.png"" style=""width:200px; border:14px solid green;"">","null","","","","","","",""
"","image-keyboard-response","100","60909","0.0-100.0","30LB5CDZNDW8GCN129HAVRSXJLRZ0R","A2VZBQLSFZC519","30F94FBDNR6BS3JI3VKF41RBJN4TBU","","531.2999999970198","img/food4.png","74","531.7999999970198","1","1","2","1,0.5,0,1,0.5,0,0.5,0,1","",""
"","html-keyboard-response","101","61210","0.0-101.0","30LB5CDZNDW8GCN129HAVRSXJLRZ0R","A2VZBQLSFZC519","30F94FBDNR6BS3JI3VKF41RBJN4TBU","","null","<img src=""img/food4.png"" style=""width:200px; border:14px solid green;"">","null","","","","","","",""
"","image-keyboard-response","102","61683","0.0-102.0","30LB5CDZNDW8GCN129HAVRSXJLRZ0R","A2VZBQLSFZC519","30F94FBDNR6BS3JI3VKF41RBJN4TBU","","473","img/food3.png","74","473.5","1","1","1","1,0.5,0,1,0.5,0,0.5,0,1","",""
"","html-keyboard-response","103","61986","0.0-103.0","30LB5CDZNDW8GCN129HAVRSXJLRZ0R","A2VZBQLSFZC519","30F94FBDNR6BS3JI3VKF41RBJN4TBU","","null","<img src=""img/food3.png"" style=""width:200px; border:14px solid green;"">","null","","","","","","",""
"","image-keyboard-response","104","62496","0.0-104.0","30LB5CDZNDW8GCN129HAVRSXJLRZ0R","A2VZBQLSFZC519","30F94FBDNR6BS3JI3VKF41RBJN4TBU","","509.79999999701977","img/food5.png","76","510.40000000596046","3","1","3","1,0.5,0,1,0.5,0,0.5,0,1","",""
"","html-keyboard-response","105","62798","0.0-105.0","30LB5CDZNDW8GCN129HAVRSXJLRZ0R","A2VZBQLSFZC519","30F94FBDNR6BS3JI3VKF41RBJN4TBU","","null","<img src=""img/food5.png"" style=""width:200px; border:14px solid green;"">","null","","","","","","",""
"","image-keyboard-response","106","63413","0.0-106.0","30LB5CDZNDW8GCN129HAVRSXJLRZ0R","A2VZBQLSFZC519","30F94FBDNR6BS3JI3VKF41RBJN4TBU","","614.5999999940395","img/food3.png","74","615.1000000089407","1","1","1","1,0.5,0,1,0.5,0,0.5,0,1","",""
"","html-keyboard-response","107","63714","0.0-107.0","30LB5CDZNDW8GCN129HAVRSXJLRZ0R","A2VZBQLSFZC519","30F94FBDNR6BS3JI3VKF41RBJN4TBU","","null","<img src=""img/food3.png"" style=""width:200px; border:14px solid green;"">","null","","","","","","",""
"","image-keyboard-response","108","64431","0.0-108.0","30LB5CDZNDW8GCN129HAVRSXJLRZ0R","A2VZBQLSFZC519","30F94FBDNR6BS3JI3VKF41RBJN4TBU","","716.7000000029802","img/food3.png","74","717.2000000029802","1","1","1","1,0.5,0,1,0.5,0,0.5,0,1","",""
"","html-keyboard-response","109","64732","0.0-109.0","30LB5CDZNDW8GCN129HAVRSXJLRZ0R","A2VZBQLSFZC519","30F94FBDNR6BS3JI3VKF41RBJN4TBU","","null","<img src=""img/food3.png"" style=""width:200px; border:14px solid green;"">","null","","","","","","",""
"","image-keyboard-response","110","65101","0.0-110.0","30LB5CDZNDW8GCN129HAVRSXJLRZ0R","A2VZBQLSFZC519","30F94FBDNR6BS3JI3VKF41RBJN4TBU","","367.5","img/food3.png","74","368","1","1","1","1,0.5,0,1,0.5,0,0.5,0,1","",""
"","html-keyboard-response","111","65402","0.0-111.0","30LB5CDZNDW8GCN129HAVRSXJLRZ0R","A2VZBQLSFZC519","30F94FBDNR6BS3JI3VKF41RBJN4TBU","","null","<img src=""img/food3.png"" style=""width:200px; border:14px solid green;"">","null","","","","","","",""
"","image-keyboard-response","112","65995","0.0-112.0","30LB5CDZNDW8GCN129HAVRSXJLRZ0R","A2VZBQLSFZC519","30F94FBDNR6BS3JI3VKF41RBJN4TBU","","592.1999999880791","img/food4.png","74","592.8000000119209","1","1","2","1,0.5,0,1,0.5,0,0.5,0,1","",""
"","html-keyboard-response","113","66297","0.0-113.0","30LB5CDZNDW8GCN129HAVRSXJLRZ0R","A2VZBQLSFZC519","30F94FBDNR6BS3JI3VKF41RBJN4TBU","","null","<img src=""img/food4.png"" style=""width:200px; border:14px solid green;"">","null","","","","","","",""
"","image-keyboard-response","114","67013","0.0-114.0","30LB5CDZNDW8GCN129HAVRSXJLRZ0R","A2VZBQLSFZC519","30F94FBDNR6BS3JI3VKF41RBJN4TBU","","715.7999999970198","img/food5.png","76","716.2000000029802","3","1","3","1,0.5,0,1,0.5,0,0.5,0,1","",""
"","html-keyboard-response","115","67314","0.0-115.0","30LB5CDZNDW8GCN129HAVRSXJLRZ0R","A2VZBQLSFZC519","30F94FBDNR6BS3JI3VKF41RBJN4TBU","","null","<img src=""img/food5.png"" style=""width:200px; border:14px solid green;"">","null","","","","","","",""
"","image-keyboard-response","116","67761","0.0-116.0","30LB5CDZNDW8GCN129HAVRSXJLRZ0R","A2VZBQLSFZC519","30F94FBDNR6BS3JI3VKF41RBJN4TBU","","446.79999999701977","img/food4.png","74","447.40000000596046","1","1","2","1,0.5,0,1,0.5,0,0.5,0,1","",""
"","html-keyboard-response","117","68063","0.0-117.0","30LB5CDZNDW8GCN129HAVRSXJLRZ0R","A2VZBQLSFZC519","30F94FBDNR6BS3JI3VKF41RBJN4TBU","","null","<img src=""img/food4.png"" style=""width:200px; border:14px solid green;"">","null","","","","","","",""
"","image-keyboard-response","118","68570","0.0-118.0","30LB5CDZNDW8GCN129HAVRSXJLRZ0R","A2VZBQLSFZC519","30F94FBDNR6BS3JI3VKF41RBJN4TBU","","506.20000000298023","img/food3.png","76","506.90000000596046","3","0","1","1,0.5,0,1,0.5,0,0.5,0,1","",""
"","html-keyboard-response","119","68871","0.0-119.0","30LB5CDZNDW8GCN129HAVRSXJLRZ0R","A2VZBQLSFZC519","30F94FBDNR6BS3JI3VKF41RBJN4TBU","","null","<img src=""img/food3.png"" style=""width:200px;border:14px solid red;"">","null","","","","","","",""
"","image-keyboard-response","120","69541","0.0-120.0","30LB5CDZNDW8GCN129HAVRSXJLRZ0R","A2VZBQLSFZC519","30F94FBDNR6BS3JI3VKF41RBJN4TBU","","669.5999999940395","img/food5.png","76","670.1000000089407","3","1","3","1,0.5,0,1,0.5,0,0.5,0,1","",""
"","html-keyboard-response","121","69842","0.0-121.0","30LB5CDZNDW8GCN129HAVRSXJLRZ0R","A2VZBQLSFZC519","30F94FBDNR6BS3JI3VKF41RBJN4TBU","","null","<img src=""img/food5.png"" style=""width:200px; border:14px solid green;"">","null","","","","","","",""
"","image-keyboard-response","122","70192","0.0-122.0","30LB5CDZNDW8GCN129HAVRSXJLRZ0R","A2VZBQLSFZC519","30F94FBDNR6BS3JI3VKF41RBJN4TBU","","349.80000001192093","img/food5.png","76","350.40000000596046","3","1","3","1,0.5,0,1,0.5,0,0.5,0,1","",""
"","html-keyboard-response","123","70493","0.0-123.0","30LB5CDZNDW8GCN129HAVRSXJLRZ0R","A2VZBQLSFZC519","30F94FBDNR6BS3JI3VKF41RBJN4TBU","","null","<img src=""img/food5.png"" style=""width:200px; border:14px solid green;"">","null","","","","","","",""
"","image-keyboard-response","124","71202","0.0-124.0","30LB5CDZNDW8GCN129HAVRSXJLRZ0R","A2VZBQLSFZC519","30F94FBDNR6BS3JI3VKF41RBJN4TBU","","708.2999999970198","img/food3.png","74","708.9000000059605","1","1","1","1,0.5,0,1,0.5,0,0.5,0,1","",""
"","html-keyboard-response","125","71503","0.0-125.0","30LB5CDZNDW8GCN129HAVRSXJLRZ0R","A2VZBQLSFZC519","30F94FBDNR6BS3JI3VKF41RBJN4TBU","","null","<img src=""img/food3.png"" style=""width:200px; border:14px solid green;"">","null","","","","","","",""
"","image-keyboard-response","126","71949","0.0-126.0","30LB5CDZNDW8GCN129HAVRSXJLRZ0R","A2VZBQLSFZC519","30F94FBDNR6BS3JI3VKF41RBJN4TBU","","445.40000000596046","img/food3.png","74","445.90000000596046","1","1","1","1,0.5,0,1,0.5,0,0.5,0,1","",""
"","html-keyboard-response","127","72250","0.0-127.0","30LB5CDZNDW8GCN129HAVRSXJLRZ0R","A2VZBQLSFZC519","30F94FBDNR6BS3JI3VKF41RBJN4TBU","","null","<img src=""img/food3.png"" style=""width:200px; border:14px solid green;"">","null","","","","","","",""
"","image-keyboard-response","128","72851","0.0-128.0","30LB5CDZNDW8GCN129HAVRSXJLRZ0R","A2VZBQLSFZC519","30F94FBDNR6BS3JI3VKF41RBJN4TBU","","600.5","img/food4.png","76","600.8999999910593","3","0","2","1,0.5,0,1,0.5,0,0.5,0,1","",""
"","html-keyboard-response","129","73152","0.0-129.0","30LB5CDZNDW8GCN129HAVRSXJLRZ0R","A2VZBQLSFZC519","30F94FBDNR6BS3JI3VKF41RBJN4TBU","","null","<img src=""img/food4.png"" style=""width:200px;border:14px solid red;"">","null","","","","","","",""
"","image-keyboard-response","130","73729","0.0-130.0","30LB5CDZNDW8GCN129HAVRSXJLRZ0R","A2VZBQLSFZC519","30F94FBDNR6BS3JI3VKF41RBJN4TBU","","576.2999999970198","img/food5.png","76","576.7999999970198","3","1","3","1,0.5,0,1,0.5,0,0.5,0,1","",""
"","html-keyboard-response","131","74030","0.0-131.0","30LB5CDZNDW8GCN129HAVRSXJLRZ0R","A2VZBQLSFZC519","30F94FBDNR6BS3JI3VKF41RBJN4TBU","","null","<img src=""img/food5.png"" style=""width:200px; border:14px solid green;"">","null","","","","","","",""
"","image-keyboard-response","132","74531","0.0-132.0","30LB5CDZNDW8GCN129HAVRSXJLRZ0R","A2VZBQLSFZC519","30F94FBDNR6BS3JI3VKF41RBJN4TBU","","500.40000000596046","img/food4.png","74","501","1","1","2","1,0.5,0,1,0.5,0,0.5,0,1","",""
"","html-keyboard-response","133","74832","0.0-133.0","30LB5CDZNDW8GCN129HAVRSXJLRZ0R","A2VZBQLSFZC519","30F94FBDNR6BS3JI3VKF41RBJN4TBU","","null","<img src=""img/food4.png"" style=""width:200px; border:14px solid green;"">","null","","","","","","",""
"","image-keyboard-response","134","75855","0.0-134.0","30LB5CDZNDW8GCN129HAVRSXJLRZ0R","A2VZBQLSFZC519","30F94FBDNR6BS3JI3VKF41RBJN4TBU","","1021.9000000059605","img/food5.png","76","1022.5","3","1","3","1,0.5,0,1,0.5,0,0.5,0,1","",""
"","html-keyboard-response","135","76156","0.0-135.0","30LB5CDZNDW8GCN129HAVRSXJLRZ0R","A2VZBQLSFZC519","30F94FBDNR6BS3JI3VKF41RBJN4TBU","","null","<img src=""img/food5.png"" style=""width:200px; border:14px solid green;"">","null","","","","","","",""
"","image-keyboard-response","136","76633","0.0-136.0","30LB5CDZNDW8GCN129HAVRSXJLRZ0R","A2VZBQLSFZC519","30F94FBDNR6BS3JI3VKF41RBJN4TBU","","477","img/food3.png","74","477.3999999910593","1","1","1","1,0.5,0,1,0.5,0,0.5,0,1","",""
"","html-keyboard-response","137","76935","0.0-137.0","30LB5CDZNDW8GCN129HAVRSXJLRZ0R","A2VZBQLSFZC519","30F94FBDNR6BS3JI3VKF41RBJN4TBU","","null","<img src=""img/food3.png"" style=""width:200px; border:14px solid green;"">","null","","","","","","",""
"","image-keyboard-response","138","77767","0.0-138.0","30LB5CDZNDW8GCN129HAVRSXJLRZ0R","A2VZBQLSFZC519","30F94FBDNR6BS3JI3VKF41RBJN4TBU","","831.5999999940395","img/food5.png","75","832.0999999940395","2","0","3","1,0.5,0,1,0.5,0,0.5,0,1","",""
"","html-keyboard-response","139","78068","0.0-139.0","30LB5CDZNDW8GCN129HAVRSXJLRZ0R","A2VZBQLSFZC519","30F94FBDNR6BS3JI3VKF41RBJN4TBU","","null","<img src=""img/food5.png"" style=""width:200px;border:14px solid red;"">","null","","","","","","",""
"","image-keyboard-response","140","78711","0.0-140.0","30LB5CDZNDW8GCN129HAVRSXJLRZ0R","A2VZBQLSFZC519","30F94FBDNR6BS3JI3VKF41RBJN4TBU","","642.7000000029802","img/food3.png","74","643.2000000029802","1","1","1","1,0.5,0,1,0.5,0,0.5,0,1","",""
"","html-keyboard-response","141","79013","0.0-141.0","30LB5CDZNDW8GCN129HAVRSXJLRZ0R","A2VZBQLSFZC519","30F94FBDNR6BS3JI3VKF41RBJN4TBU","","null","<img src=""img/food3.png"" style=""width:200px; border:14px solid green;"">","null","","","","","","",""
"","image-keyboard-response","142","79521","0.0-142.0","30LB5CDZNDW8GCN129HAVRSXJLRZ0R","A2VZBQLSFZC519","30F94FBDNR6BS3JI3VKF41RBJN4TBU","","507.5","img/food5.png","75","508.1000000089407","2","0","3","1,0.5,0,1,0.5,0,0.5,0,1","",""
"","html-keyboard-response","143","79821","0.0-143.0","30LB5CDZNDW8GCN129HAVRSXJLRZ0R","A2VZBQLSFZC519","30F94FBDNR6BS3JI3VKF41RBJN4TBU","","null","<img src=""img/food5.png"" style=""width:200px;border:14px solid red;"">","null","","","","","","",""
"","image-keyboard-response","144","80257","0.0-144.0","30LB5CDZNDW8GCN129HAVRSXJLRZ0R","A2VZBQLSFZC519","30F94FBDNR6BS3JI3VKF41RBJN4TBU","","435","img/food3.png","74","435.5","1","1","1","1,0.5,0,1,0.5,0,0.5,0,1","",""
"","html-keyboard-response","145","80558","0.0-145.0","30LB5CDZNDW8GCN129HAVRSXJLRZ0R","A2VZBQLSFZC519","30F94FBDNR6BS3JI3VKF41RBJN4TBU","","null","<img src=""img/food3.png"" style=""width:200px; border:14px solid green;"">","null","","","","","","",""
"","image-keyboard-response","146","80983","0.0-146.0","30LB5CDZNDW8GCN129HAVRSXJLRZ0R","A2VZBQLSFZC519","30F94FBDNR6BS3JI3VKF41RBJN4TBU","","423.90000000596046","img/food3.png","74","424.5","1","1","1","1,0.5,0,1,0.5,0,0.5,0,1","",""
"","html-keyboard-response","147","81285","0.0-147.0","30LB5CDZNDW8GCN129HAVRSXJLRZ0R","A2VZBQLSFZC519","30F94FBDNR6BS3JI3VKF41RBJN4TBU","","null","<img src=""img/food3.png"" style=""width:200px; border:14px solid green;"">","null","","","","","","",""
"","image-keyboard-response","148","81659","0.0-148.0","30LB5CDZNDW8GCN129HAVRSXJLRZ0R","A2VZBQLSFZC519","30F94FBDNR6BS3JI3VKF41RBJN4TBU","","374","img/food3.png","74","374.59999999403954","1","1","1","1,0.5,0,1,0.5,0,0.5,0,1","",""
"","html-keyboard-response","149","81961","0.0-149.0","30LB5CDZNDW8GCN129HAVRSXJLRZ0R","A2VZBQLSFZC519","30F94FBDNR6BS3JI3VKF41RBJN4TBU","","null","<img src=""img/food3.png"" style=""width:200px; border:14px solid green;"">","null","","","","","","",""
"","image-keyboard-response","150","82468","0.0-150.0","30LB5CDZNDW8GCN129HAVRSXJLRZ0R","A2VZBQLSFZC519","30F94FBDNR6BS3JI3VKF41RBJN4TBU","","506.79999999701977","img/food4.png","74","507.30000001192093","1","1","2","1,0.5,0,1,0.5,0,0.5,0,1","",""
"","html-keyboard-response","151","82770","0.0-151.0","30LB5CDZNDW8GCN129HAVRSXJLRZ0R","A2VZBQLSFZC519","30F94FBDNR6BS3JI3VKF41RBJN4TBU","","null","<img src=""img/food4.png"" style=""width:200px; border:14px solid green;"">","null","","","","","","",""
"","image-keyboard-response","152","83171","0.0-152.0","30LB5CDZNDW8GCN129HAVRSXJLRZ0R","A2VZBQLSFZC519","30F94FBDNR6BS3JI3VKF41RBJN4TBU","","400.40000000596046","img/food4.png","74","400.79999999701977","1","1","2","1,0.5,0,1,0.5,0,0.5,0,1","",""
"","html-keyboard-response","153","83472","0.0-153.0","30LB5CDZNDW8GCN129HAVRSXJLRZ0R","A2VZBQLSFZC519","30F94FBDNR6BS3JI3VKF41RBJN4TBU","","null","<img src=""img/food4.png"" style=""width:200px; border:14px solid green;"">","null","","","","","","",""
"","image-keyboard-response","154","83910","0.0-154.0","30LB5CDZNDW8GCN129HAVRSXJLRZ0R","A2VZBQLSFZC519","30F94FBDNR6BS3JI3VKF41RBJN4TBU","","436.6000000089407","img/food3.png","74","437.20000000298023","1","1","1","1,0.5,0,1,0.5,0,0.5,0,1","",""
"","html-keyboard-response","155","84211","0.0-155.0","30LB5CDZNDW8GCN129HAVRSXJLRZ0R","A2VZBQLSFZC519","30F94FBDNR6BS3JI3VKF41RBJN4TBU","","null","<img src=""img/food3.png"" style=""width:200px; border:14px solid green;"">","null","","","","","","",""
"","image-keyboard-response","156","84566","0.0-156.0","30LB5CDZNDW8GCN129HAVRSXJLRZ0R","A2VZBQLSFZC519","30F94FBDNR6BS3JI3VKF41RBJN4TBU","","353.6000000089407","img/food3.png","74","354.09999999403954","1","1","1","1,0.5,0,1,0.5,0,0.5,0,1","",""
"","html-keyboard-response","157","84867","0.0-157.0","30LB5CDZNDW8GCN129HAVRSXJLRZ0R","A2VZBQLSFZC519","30F94FBDNR6BS3JI3VKF41RBJN4TBU","","null","<img src=""img/food3.png"" style=""width:200px; border:14px solid green;"">","null","","","","","","",""
"","image-keyboard-response","158","85369","0.0-158.0","30LB5CDZNDW8GCN129HAVRSXJLRZ0R","A2VZBQLSFZC519","30F94FBDNR6BS3JI3VKF41RBJN4TBU","","502.09999999403954","img/food4.png","74","502.59999999403954","1","1","2","1,0.5,0,1,0.5,0,0.5,0,1","",""
"","html-keyboard-response","159","85671","0.0-159.0","30LB5CDZNDW8GCN129HAVRSXJLRZ0R","A2VZBQLSFZC519","30F94FBDNR6BS3JI3VKF41RBJN4TBU","","null","<img src=""img/food4.png"" style=""width:200px; border:14px solid green;"">","null","","","","","","",""
"","image-keyboard-response","160","86090","0.0-160.0","30LB5CDZNDW8GCN129HAVRSXJLRZ0R","A2VZBQLSFZC519","30F94FBDNR6BS3JI3VKF41RBJN4TBU","","418.79999999701977","img/food4.png","74","419.30000001192093","1","1","2","1,0.5,0,1,0.5,0,0.5,0,1","",""
"","html-keyboard-response","161","86391","0.0-161.0","30LB5CDZNDW8GCN129HAVRSXJLRZ0R","A2VZBQLSFZC519","30F94FBDNR6BS3JI3VKF41RBJN4TBU","","null","<img src=""img/food4.png"" style=""width:200px; border:14px solid green;"">","null","","","","","","",""
"","image-keyboard-response","162","86864","0.0-162.0","30LB5CDZNDW8GCN129HAVRSXJLRZ0R","A2VZBQLSFZC519","30F94FBDNR6BS3JI3VKF41RBJN4TBU","","472.1000000089407","img/food3.png","75","472.59999999403954","2","0","1","1,0.5,0,1,0.5,0,0.5,0,1","",""
"","html-keyboard-response","163","87165","0.0-163.0","30LB5CDZNDW8GCN129HAVRSXJLRZ0R","A2VZBQLSFZC519","30F94FBDNR6BS3JI3VKF41RBJN4TBU","","null","<img src=""img/food3.png"" style=""width:200px;border:14px solid red;"">","null","","","","","","",""
"","image-keyboard-response","164","87727","0.0-164.0","30LB5CDZNDW8GCN129HAVRSXJLRZ0R","A2VZBQLSFZC519","30F94FBDNR6BS3JI3VKF41RBJN4TBU","","561.8999999910593","img/food5.png","75","562.3999999910593","2","0","3","1,0.5,0,1,0.5,0,0.5,0,1","",""
"","html-keyboard-response","165","88030","0.0-165.0","30LB5CDZNDW8GCN129HAVRSXJLRZ0R","A2VZBQLSFZC519","30F94FBDNR6BS3JI3VKF41RBJN4TBU","","null","<img src=""img/food5.png"" style=""width:200px;border:14px solid red;"">","null","","","","","","",""
"","image-keyboard-response","166","88752","0.0-166.0","30LB5CDZNDW8GCN129HAVRSXJLRZ0R","A2VZBQLSFZC519","30F94FBDNR6BS3JI3VKF41RBJN4TBU","","721.2000000029802","img/food4.png","74","721.7000000029802","1","1","2","1,0.5,0,1,0.5,0,0.5,0,1","",""
"","html-keyboard-response","167","89053","0.0-167.0","30LB5CDZNDW8GCN129HAVRSXJLRZ0R","A2VZBQLSFZC519","30F94FBDNR6BS3JI3VKF41RBJN4TBU","","null","<img src=""img/food4.png"" style=""width:200px; border:14px solid green;"">","null","","","","","","",""
"","image-keyboard-response","168","89547","0.0-168.0","30LB5CDZNDW8GCN129HAVRSXJLRZ0R","A2VZBQLSFZC519","30F94FBDNR6BS3JI3VKF41RBJN4TBU","","493.1000000089407","img/food3.png","74","493.6000000089407","1","1","1","1,0.5,0,1,0.5,0,0.5,0,1","",""
"","html-keyboard-response","169","89849","0.0-169.0","30LB5CDZNDW8GCN129HAVRSXJLRZ0R","A2VZBQLSFZC519","30F94FBDNR6BS3JI3VKF41RBJN4TBU","","null","<img src=""img/food3.png"" style=""width:200px; border:14px solid green;"">","null","","","","","","",""
"","image-keyboard-response","170","90309","0.0-170.0","30LB5CDZNDW8GCN129HAVRSXJLRZ0R","A2VZBQLSFZC519","30F94FBDNR6BS3JI3VKF41RBJN4TBU","","459.90000000596046","img/food3.png","74","460.5","1","1","1","1,0.5,0,1,0.5,0,0.5,0,1","",""
"","html-keyboard-response","171","90611","0.0-171.0","30LB5CDZNDW8GCN129HAVRSXJLRZ0R","A2VZBQLSFZC519","30F94FBDNR6BS3JI3VKF41RBJN4TBU","","null","<img src=""img/food3.png"" style=""width:200px; border:14px solid green;"">","null","","","","","","",""
"","image-keyboard-response","172","91102","0.0-172.0","30LB5CDZNDW8GCN129HAVRSXJLRZ0R","A2VZBQLSFZC519","30F94FBDNR6BS3JI3VKF41RBJN4TBU","","490.90000000596046","img/food5.png","74","491.3999999910593","1","0","3","1,0.5,0,1,0.5,0,0.5,0,1","",""
"","html-keyboard-response","173","91403","0.0-173.0","30LB5CDZNDW8GCN129HAVRSXJLRZ0R","A2VZBQLSFZC519","30F94FBDNR6BS3JI3VKF41RBJN4TBU","","null","<img src=""img/food5.png"" style=""width:200px;border:14px solid red;"">","null","","","","","","",""
"","image-keyboard-response","174","92312","0.0-174.0","30LB5CDZNDW8GCN129HAVRSXJLRZ0R","A2VZBQLSFZC519","30F94FBDNR6BS3JI3VKF41RBJN4TBU","","908","img/food3.png","74","908.5","1","1","1","1,0.5,0,1,0.5,0,0.5,0,1","",""
"","html-keyboard-response","175","92613","0.0-175.0","30LB5CDZNDW8GCN129HAVRSXJLRZ0R","A2VZBQLSFZC519","30F94FBDNR6BS3JI3VKF41RBJN4TBU","","null","<img src=""img/food3.png"" style=""width:200px; border:14px solid green;"">","null","","","","","","",""
"","image-keyboard-response","176","93176","0.0-176.0","30LB5CDZNDW8GCN129HAVRSXJLRZ0R","A2VZBQLSFZC519","30F94FBDNR6BS3JI3VKF41RBJN4TBU","","563.2999999970198","img/food5.png","75","564","2","0","3","1,0.5,0,1,0.5,0,0.5,0,1","",""
"","html-keyboard-response","177","93477","0.0-177.0","30LB5CDZNDW8GCN129HAVRSXJLRZ0R","A2VZBQLSFZC519","30F94FBDNR6BS3JI3VKF41RBJN4TBU","","null","<img src=""img/food5.png"" style=""width:200px;border:14px solid red;"">","null","","","","","","",""
"","image-keyboard-response","178","94948","0.0-178.0","30LB5CDZNDW8GCN129HAVRSXJLRZ0R","A2VZBQLSFZC519","30F94FBDNR6BS3JI3VKF41RBJN4TBU","","1469.9000000059605","img/food4.png","74","1470.4000000059605","1","1","2","1,0.5,0,1,0.5,0,0.5,0,1","",""
"","html-keyboard-response","179","95249","0.0-179.0","30LB5CDZNDW8GCN129HAVRSXJLRZ0R","A2VZBQLSFZC519","30F94FBDNR6BS3JI3VKF41RBJN4TBU","","null","<img src=""img/food4.png"" style=""width:200px; border:14px solid green;"">","null","","","","","","",""
"","image-keyboard-response","180","95787","0.0-180.0","30LB5CDZNDW8GCN129HAVRSXJLRZ0R","A2VZBQLSFZC519","30F94FBDNR6BS3JI3VKF41RBJN4TBU","","537.5","img/food5.png","75","537.7999999970198","2","0","3","1,0.5,0,1,0.5,0,0.5,0,1","",""
"","html-keyboard-response","181","96088","0.0-181.0","30LB5CDZNDW8GCN129HAVRSXJLRZ0R","A2VZBQLSFZC519","30F94FBDNR6BS3JI3VKF41RBJN4TBU","","null","<img src=""img/food5.png"" style=""width:200px;border:14px solid red;"">","null","","","","","","",""
"","html-keyboard-response","182","98708","0.0-182.0","30LB5CDZNDW8GCN129HAVRSXJLRZ0R","A2VZBQLSFZC519","30F94FBDNR6BS3JI3VKF41RBJN4TBU","","","","","","","","","","",""
"","instructions","183","105475","0.0-183.0","30LB5CDZNDW8GCN129HAVRSXJLRZ0R","A2VZBQLSFZC519","30F94FBDNR6BS3JI3VKF41RBJN4TBU","[{""page_index"":0,""viewing_time"":5550.199999988079},{""page_index"":1,""viewing_time"":1215.1000000089407}]","6765.5999999940395","","","","","","","","",""
"","image-keyboard-response","184","106248","0.0-184.0","30LB5CDZNDW8GCN129HAVRSXJLRZ0R","A2VZBQLSFZC519","30F94FBDNR6BS3JI3VKF41RBJN4TBU","","772.6000000089407","img/food2.png","74","773.5","1","1","1","1,0.5,0,1,0.5,0,0.5,0,1","false",""
"","html-keyboard-response","185","106550","0.0-185.0","30LB5CDZNDW8GCN129HAVRSXJLRZ0R","A2VZBQLSFZC519","30F94FBDNR6BS3JI3VKF41RBJN4TBU","","null","<img src=""img/food2.png"" style=""width:200px; border:14px solid green;"">","null","","","","","","",""
"","image-keyboard-response","186","106815","0.0-187.0","30LB5CDZNDW8GCN129HAVRSXJLRZ0R","A2VZBQLSFZC519","30F94FBDNR6BS3JI3VKF41RBJN4TBU","","264.09999999403954","img/food2.png","74","264.79999999701977","1","1","1","1,0.5,0,1,0.5,0,0.5,0,1","false",""
"","html-keyboard-response","187","107117","0.0-188.0","30LB5CDZNDW8GCN129HAVRSXJLRZ0R","A2VZBQLSFZC519","30F94FBDNR6BS3JI3VKF41RBJN4TBU","","null","<img src=""img/food2.png"" style=""width:200px; border:14px solid green;"">","null","","","","","","",""
"","image-keyboard-response","188","107477","0.0-190.0","30LB5CDZNDW8GCN129HAVRSXJLRZ0R","A2VZBQLSFZC519","30F94FBDNR6BS3JI3VKF41RBJN4TBU","","359.3999999910593","img/food2.png","74","359.90000000596046","1","1","1","1,0.5,0,1,0.5,0,0.5,0,1","false",""
"","html-keyboard-response","189","107779","0.0-191.0","30LB5CDZNDW8GCN129HAVRSXJLRZ0R","A2VZBQLSFZC519","30F94FBDNR6BS3JI3VKF41RBJN4TBU","","null","<img src=""img/food2.png"" style=""width:200px; border:14px solid green;"">","null","","","","","","",""
"","image-keyboard-response","190","108097","0.0-193.0","30LB5CDZNDW8GCN129HAVRSXJLRZ0R","A2VZBQLSFZC519","30F94FBDNR6BS3JI3VKF41RBJN4TBU","","317.29999999701977","img/food2.png","74","317.79999999701977","1","1","1","1,0.5,0,1,0.5,0,0.5,0,1","false",""
"","html-keyboard-response","191","108398","0.0-194.0","30LB5CDZNDW8GCN129HAVRSXJLRZ0R","A2VZBQLSFZC519","30F94FBDNR6BS3JI3VKF41RBJN4TBU","","null","<img src=""img/food2.png"" style=""width:200px; border:14px solid green;"">","null","","","","","","",""
"","image-keyboard-response","192","108757","0.0-196.0","30LB5CDZNDW8GCN129HAVRSXJLRZ0R","A2VZBQLSFZC519","30F94FBDNR6BS3JI3VKF41RBJN4TBU","","357.6000000089407","img/food1.png","75","358.29999999701977","2","0","2","1,0.5,0,1,0.5,0,0.5,0,1","false",""
"","html-keyboard-response","193","109058","0.0-197.0","30LB5CDZNDW8GCN129HAVRSXJLRZ0R","A2VZBQLSFZC519","30F94FBDNR6BS3JI3VKF41RBJN4TBU","","null","<img src=""img/food1.png"" style=""width:200px;border:14px solid red;"">","null","","","","","","",""
"","image-keyboard-response","194","109479","0.0-199.0","30LB5CDZNDW8GCN129HAVRSXJLRZ0R","A2VZBQLSFZC519","30F94FBDNR6BS3JI3VKF41RBJN4TBU","","419.59999999403954","img/food6.png","74","420.40000000596046","1","0","3","1,0.5,0,1,0.5,0,0.5,0,1","false",""
"","html-keyboard-response","195","109780","0.0-200.0","30LB5CDZNDW8GCN129HAVRSXJLRZ0R","A2VZBQLSFZC519","30F94FBDNR6BS3JI3VKF41RBJN4TBU","","null","<img src=""img/food6.png"" style=""width:200px;border:14px solid red;"">","null","","","","","","",""
"","image-keyboard-response","196","110210","0.0-202.0","30LB5CDZNDW8GCN129HAVRSXJLRZ0R","A2VZBQLSFZC519","30F94FBDNR6BS3JI3VKF41RBJN4TBU","","429","img/food6.png","76","429.5","3","1","3","1,0.5,0,1,0.5,0,0.5,0,1","false",""
"","html-keyboard-response","197","110512","0.0-203.0","30LB5CDZNDW8GCN129HAVRSXJLRZ0R","A2VZBQLSFZC519","30F94FBDNR6BS3JI3VKF41RBJN4TBU","","null","<img src=""img/food6.png"" style=""width:200px; border:14px solid green;"">","null","","","","","","",""
"","image-keyboard-response","198","110900","0.0-205.0","30LB5CDZNDW8GCN129HAVRSXJLRZ0R","A2VZBQLSFZC519","30F94FBDNR6BS3JI3VKF41RBJN4TBU","","387.5","img/food6.png","76","388","3","1","3","1,0.5,0,1,0.5,0,0.5,0,1","false",""
"","html-keyboard-response","199","111201","0.0-206.0","30LB5CDZNDW8GCN129HAVRSXJLRZ0R","A2VZBQLSFZC519","30F94FBDNR6BS3JI3VKF41RBJN4TBU","","null","<img src=""img/food6.png"" style=""width:200px; border:14px solid green;"">","null","","","","","","",""
"","image-keyboard-response","200","111596","0.0-208.0","30LB5CDZNDW8GCN129HAVRSXJLRZ0R","A2VZBQLSFZC519","30F94FBDNR6BS3JI3VKF41RBJN4TBU","","394","img/food1.png","74","394.5","1","1","2","1,0.5,0,1,0.5,0,0.5,0,1","false",""
"","html-keyboard-response","201","111898","0.0-209.0","30LB5CDZNDW8GCN129HAVRSXJLRZ0R","A2VZBQLSFZC519","30F94FBDNR6BS3JI3VKF41RBJN4TBU","","null","<img src=""img/food1.png"" style=""width:200px; border:14px solid green;"">","null","","","","","","",""
"","image-keyboard-response","202","112615","0.0-211.0","30LB5CDZNDW8GCN129HAVRSXJLRZ0R","A2VZBQLSFZC519","30F94FBDNR6BS3JI3VKF41RBJN4TBU","","716.5","img/food2.png","76","717.2000000029802","3","0","1","1,0.5,0,1,0.5,0,0.5,0,1","false",""
"","html-keyboard-response","203","112917","0.0-212.0","30LB5CDZNDW8GCN129HAVRSXJLRZ0R","A2VZBQLSFZC519","30F94FBDNR6BS3JI3VKF41RBJN4TBU","","null","<img src=""img/food2.png"" style=""width:200px;border:14px solid red;"">","null","","","","","","",""
"","image-keyboard-response","204","113426","0.0-214.0","30LB5CDZNDW8GCN129HAVRSXJLRZ0R","A2VZBQLSFZC519","30F94FBDNR6BS3JI3VKF41RBJN4TBU","","508.40000000596046","img/food6.png","76","508.90000000596046","3","1","3","1,0.5,0,1,0.5,0,0.5,0,1","false",""
"","html-keyboard-response","205","113728","0.0-215.0","30LB5CDZNDW8GCN129HAVRSXJLRZ0R","A2VZBQLSFZC519","30F94FBDNR6BS3JI3VKF41RBJN4TBU","","null","<img src=""img/food6.png"" style=""width:200px; border:14px solid green;"">","null","","","","","","",""
"","image-keyboard-response","206","114211","0.0-217.0","30LB5CDZNDW8GCN129HAVRSXJLRZ0R","A2VZBQLSFZC519","30F94FBDNR6BS3JI3VKF41RBJN4TBU","","482.29999999701977","img/food2.png","74","482.8999999910593","1","1","1","1,0.5,0,1,0.5,0,0.5,0,1","false",""
"","html-keyboard-response","207","114512","0.0-218.0","30LB5CDZNDW8GCN129HAVRSXJLRZ0R","A2VZBQLSFZC519","30F94FBDNR6BS3JI3VKF41RBJN4TBU","","null","<img src=""img/food2.png"" style=""width:200px; border:14px solid green;"">","null","","","","","","",""
"","image-keyboard-response","208","114996","0.0-220.0","30LB5CDZNDW8GCN129HAVRSXJLRZ0R","A2VZBQLSFZC519","30F94FBDNR6BS3JI3VKF41RBJN4TBU","","482.5","img/food6.png","76","483","3","1","3","1,0.5,0,1,0.5,0,0.5,0,1","false",""
"","html-keyboard-response","209","115297","0.0-221.0","30LB5CDZNDW8GCN129HAVRSXJLRZ0R","A2VZBQLSFZC519","30F94FBDNR6BS3JI3VKF41RBJN4TBU","","null","<img src=""img/food6.png"" style=""width:200px; border:14px solid green;"">","null","","","","","","",""
"","image-keyboard-response","210","115897","0.0-223.0","30LB5CDZNDW8GCN129HAVRSXJLRZ0R","A2VZBQLSFZC519","30F94FBDNR6BS3JI3VKF41RBJN4TBU","","599","img/food1.png","75","599.7999999970198","2","1","2","1,0.5,0,1,0.5,0,0.5,0,1","false",""
"","html-keyboard-response","211","116198","0.0-224.0","30LB5CDZNDW8GCN129HAVRSXJLRZ0R","A2VZBQLSFZC519","30F94FBDNR6BS3JI3VKF41RBJN4TBU","","null","<img src=""img/food1.png"" style=""width:200px; border:14px solid green;"">","null","","","","","","",""
"","image-keyboard-response","212","116539","0.0-226.0","30LB5CDZNDW8GCN129HAVRSXJLRZ0R","A2VZBQLSFZC519","30F94FBDNR6BS3JI3VKF41RBJN4TBU","","339.90000000596046","img/food1.png","75","340.5","2","0","2","1,0.5,0,1,0.5,0,0.5,0,1","false",""
"","html-keyboard-response","213","116840","0.0-227.0","30LB5CDZNDW8GCN129HAVRSXJLRZ0R","A2VZBQLSFZC519","30F94FBDNR6BS3JI3VKF41RBJN4TBU","","null","<img src=""img/food1.png"" style=""width:200px;border:14px solid red;"">","null","","","","","","",""
"","image-keyboard-response","214","117195","0.0-229.0","30LB5CDZNDW8GCN129HAVRSXJLRZ0R","A2VZBQLSFZC519","30F94FBDNR6BS3JI3VKF41RBJN4TBU","","353.70000000298023","img/food1.png","75","354.29999999701977","2","1","2","1,0.5,0,1,0.5,0,0.5,0,1","false",""
"","html-keyboard-response","215","117497","0.0-230.0","30LB5CDZNDW8GCN129HAVRSXJLRZ0R","A2VZBQLSFZC519","30F94FBDNR6BS3JI3VKF41RBJN4TBU","","null","<img src=""img/food1.png"" style=""width:200px; border:14px solid green;"">","null","","","","","","",""
"","image-keyboard-response","216","117817","0.0-232.0","30LB5CDZNDW8GCN129HAVRSXJLRZ0R","A2VZBQLSFZC519","30F94FBDNR6BS3JI3VKF41RBJN4TBU","","318.79999999701977","img/food1.png","75","319.40000000596046","2","1","2","1,0.5,0,1,0.5,0,0.5,0,1","false",""
"","html-keyboard-response","217","118118","0.0-233.0","30LB5CDZNDW8GCN129HAVRSXJLRZ0R","A2VZBQLSFZC519","30F94FBDNR6BS3JI3VKF41RBJN4TBU","","null","<img src=""img/food1.png"" style=""width:200px; border:14px solid green;"">","null","","","","","","",""
"","image-keyboard-response","218","118501","0.0-235.0","30LB5CDZNDW8GCN129HAVRSXJLRZ0R","A2VZBQLSFZC519","30F94FBDNR6BS3JI3VKF41RBJN4TBU","","381.59999999403954","img/food2.png","76","382.30000001192093","3","0","1","1,0.5,0,1,0.5,0,0.5,0,1","false",""
"","html-keyboard-response","219","118802","0.0-236.0","30LB5CDZNDW8GCN129HAVRSXJLRZ0R","A2VZBQLSFZC519","30F94FBDNR6BS3JI3VKF41RBJN4TBU","","null","<img src=""img/food2.png"" style=""width:200px;border:14px solid red;"">","null","","","","","","",""
"","image-keyboard-response","220","119507","0.0-238.0","30LB5CDZNDW8GCN129HAVRSXJLRZ0R","A2VZBQLSFZC519","30F94FBDNR6BS3JI3VKF41RBJN4TBU","","703.5","img/food2.png","74","704.1000000089407","1","1","1","1,0.5,0,1,0.5,0,0.5,0,1","false",""
"","html-keyboard-response","221","119808","0.0-239.0","30LB5CDZNDW8GCN129HAVRSXJLRZ0R","A2VZBQLSFZC519","30F94FBDNR6BS3JI3VKF41RBJN4TBU","","null","<img src=""img/food2.png"" style=""width:200px; border:14px solid green;"">","null","","","","","","",""
"","image-keyboard-response","222","120261","0.0-241.0","30LB5CDZNDW8GCN129HAVRSXJLRZ0R","A2VZBQLSFZC519","30F94FBDNR6BS3JI3VKF41RBJN4TBU","","452","img/food1.png","76","452.79999999701977","3","0","2","1,0.5,0,1,0.5,0,0.5,0,1","false",""
"","html-keyboard-response","223","120562","0.0-242.0","30LB5CDZNDW8GCN129HAVRSXJLRZ0R","A2VZBQLSFZC519","30F94FBDNR6BS3JI3VKF41RBJN4TBU","","null","<img src=""img/food1.png"" style=""width:200px;border:14px solid red;"">","null","","","","","","",""
"","image-keyboard-response","224","120728","0.0-244.0","30LB5CDZNDW8GCN129HAVRSXJLRZ0R","A2VZBQLSFZC519","30F94FBDNR6BS3JI3VKF41RBJN4TBU","","165.5","img/food1.png","75","166.09999999403954","2","0","2","1,0.5,0,1,0.5,0,0.5,0,1","false",""
"","html-keyboard-response","225","121029","0.0-245.0","30LB5CDZNDW8GCN129HAVRSXJLRZ0R","A2VZBQLSFZC519","30F94FBDNR6BS3JI3VKF41RBJN4TBU","","null","<img src=""img/food1.png"" style=""width:200px;border:14px solid red;"">","null","","","","","","",""
"","image-keyboard-response","226","121847","0.0-247.0","30LB5CDZNDW8GCN129HAVRSXJLRZ0R","A2VZBQLSFZC519","30F94FBDNR6BS3JI3VKF41RBJN4TBU","","816.7000000029802","img/food6.png","76","817.4000000059605","3","1","3","1,0.5,0,1,0.5,0,0.5,0,1","false",""
"","html-keyboard-response","227","122149","0.0-248.0","30LB5CDZNDW8GCN129HAVRSXJLRZ0R","A2VZBQLSFZC519","30F94FBDNR6BS3JI3VKF41RBJN4TBU","","null","<img src=""img/food6.png"" style=""width:200px; border:14px solid green;"">","null","","","","","","",""
"","image-keyboard-response","228","122537","0.0-250.0","30LB5CDZNDW8GCN129HAVRSXJLRZ0R","A2VZBQLSFZC519","30F94FBDNR6BS3JI3VKF41RBJN4TBU","","387.90000000596046","img/food6.png","76","388.6000000089407","3","1","3","1,0.5,0,1,0.5,0,0.5,0,1","false",""
"","html-keyboard-response","229","122839","0.0-251.0","30LB5CDZNDW8GCN129HAVRSXJLRZ0R","A2VZBQLSFZC519","30F94FBDNR6BS3JI3VKF41RBJN4TBU","","null","<img src=""img/food6.png"" style=""width:200px; border:14px solid green;"">","null","","","","","","",""
"","image-keyboard-response","230","123497","0.0-253.0","30LB5CDZNDW8GCN129HAVRSXJLRZ0R","A2VZBQLSFZC519","30F94FBDNR6BS3JI3VKF41RBJN4TBU","","657.5999999940395","img/food1.png","74","658.2000000029802","1","1","2","1,0.5,0,1,0.5,0,0.5,0,1","false",""
"","html-keyboard-response","231","123799","0.0-254.0","30LB5CDZNDW8GCN129HAVRSXJLRZ0R","A2VZBQLSFZC519","30F94FBDNR6BS3JI3VKF41RBJN4TBU","","null","<img src=""img/food1.png"" style=""width:200px; border:14px solid green;"">","null","","","","","","",""
"","image-keyboard-response","232","124264","0.0-256.0","30LB5CDZNDW8GCN129HAVRSXJLRZ0R","A2VZBQLSFZC519","30F94FBDNR6BS3JI3VKF41RBJN4TBU","","463.90000000596046","img/food6.png","76","464.6000000089407","3","1","3","1,0.5,0,1,0.5,0,0.5,0,1","false",""
"","html-keyboard-response","233","124565","0.0-257.0","30LB5CDZNDW8GCN129HAVRSXJLRZ0R","A2VZBQLSFZC519","30F94FBDNR6BS3JI3VKF41RBJN4TBU","","null","<img src=""img/food6.png"" style=""width:200px; border:14px solid green;"">","null","","","","","","",""
"","image-keyboard-response","234","124974","0.0-259.0","30LB5CDZNDW8GCN129HAVRSXJLRZ0R","A2VZBQLSFZC519","30F94FBDNR6BS3JI3VKF41RBJN4TBU","","408","img/food1.png","74","408.69999998807907","1","1","2","1,0.5,0,1,0.5,0,0.5,0,1","false",""
"","html-keyboard-response","235","125275","0.0-260.0","30LB5CDZNDW8GCN129HAVRSXJLRZ0R","A2VZBQLSFZC519","30F94FBDNR6BS3JI3VKF41RBJN4TBU","","null","<img src=""img/food1.png"" style=""width:200px; border:14px solid green;"">","null","","","","","","",""
"","image-keyboard-response","236","125594","0.0-262.0","30LB5CDZNDW8GCN129HAVRSXJLRZ0R","A2VZBQLSFZC519","30F94FBDNR6BS3JI3VKF41RBJN4TBU","","318.70000000298023","img/food1.png","74","319.40000000596046","1","1","2","1,0.5,0,1,0.5,0,0.5,0,1","false",""
"","html-keyboard-response","237","125896","0.0-263.0","30LB5CDZNDW8GCN129HAVRSXJLRZ0R","A2VZBQLSFZC519","30F94FBDNR6BS3JI3VKF41RBJN4TBU","","null","<img src=""img/food1.png"" style=""width:200px; border:14px solid green;"">","null","","","","","","",""
"","image-keyboard-response","238","126296","0.0-265.0","30LB5CDZNDW8GCN129HAVRSXJLRZ0R","A2VZBQLSFZC519","30F94FBDNR6BS3JI3VKF41RBJN4TBU","","399.1000000089407","img/food6.png","76","399.69999998807907","3","1","3","1,0.5,0,1,0.5,0,0.5,0,1","false",""
"","html-keyboard-response","239","126597","0.0-266.0","30LB5CDZNDW8GCN129HAVRSXJLRZ0R","A2VZBQLSFZC519","30F94FBDNR6BS3JI3VKF41RBJN4TBU","","null","<img src=""img/food6.png"" style=""width:200px; border:14px solid green;"">","null","","","","","","",""
"","image-keyboard-response","240","127014","0.0-268.0","30LB5CDZNDW8GCN129HAVRSXJLRZ0R","A2VZBQLSFZC519","30F94FBDNR6BS3JI3VKF41RBJN4TBU","","416.1000000089407","img/food2.png","74","416.59999999403954","1","1","1","1,0.5,0,1,0.5,0,0.5,0,1","false",""
"","html-keyboard-response","241","127315","0.0-269.0","30LB5CDZNDW8GCN129HAVRSXJLRZ0R","A2VZBQLSFZC519","30F94FBDNR6BS3JI3VKF41RBJN4TBU","","null","<img src=""img/food2.png"" style=""width:200px; border:14px solid green;"">","null","","","","","","",""
"","image-keyboard-response","242","127752","0.0-271.0","30LB5CDZNDW8GCN129HAVRSXJLRZ0R","A2VZBQLSFZC519","30F94FBDNR6BS3JI3VKF41RBJN4TBU","","435.59999999403954","img/food6.png","76","436.5","3","1","3","1,0.5,0,1,0.5,0,0.5,0,1","false",""
"","html-keyboard-response","243","128053","0.0-272.0","30LB5CDZNDW8GCN129HAVRSXJLRZ0R","A2VZBQLSFZC519","30F94FBDNR6BS3JI3VKF41RBJN4TBU","","null","<img src=""img/food6.png"" style=""width:200px; border:14px solid green;"">","null","","","","","","",""
"","image-keyboard-response","244","128460","0.0-274.0","30LB5CDZNDW8GCN129HAVRSXJLRZ0R","A2VZBQLSFZC519","30F94FBDNR6BS3JI3VKF41RBJN4TBU","","406.79999999701977","img/food6.png","76","407.30000001192093","3","1","3","1,0.5,0,1,0.5,0,0.5,0,1","false",""
"","html-keyboard-response","245","128762","0.0-275.0","30LB5CDZNDW8GCN129HAVRSXJLRZ0R","A2VZBQLSFZC519","30F94FBDNR6BS3JI3VKF41RBJN4TBU","","null","<img src=""img/food6.png"" style=""width:200px; border:14px solid green;"">","null","","","","","","",""
"","image-keyboard-response","246","129191","0.0-277.0","30LB5CDZNDW8GCN129HAVRSXJLRZ0R","A2VZBQLSFZC519","30F94FBDNR6BS3JI3VKF41RBJN4TBU","","428.30000001192093","img/food6.png","76","429","3","1","3","1,0.5,0,1,0.5,0,0.5,0,1","false",""
"","html-keyboard-response","247","129493","0.0-278.0","30LB5CDZNDW8GCN129HAVRSXJLRZ0R","A2VZBQLSFZC519","30F94FBDNR6BS3JI3VKF41RBJN4TBU","","null","<img src=""img/food6.png"" style=""width:200px; border:14px solid green;"">","null","","","","","","",""
"","image-keyboard-response","248","129818","0.0-280.0","30LB5CDZNDW8GCN129HAVRSXJLRZ0R","A2VZBQLSFZC519","30F94FBDNR6BS3JI3VKF41RBJN4TBU","","324","img/food6.png","76","324.70000000298023","3","1","3","1,0.5,0,1,0.5,0,0.5,0,1","false",""
"","html-keyboard-response","249","130120","0.0-281.0","30LB5CDZNDW8GCN129HAVRSXJLRZ0R","A2VZBQLSFZC519","30F94FBDNR6BS3JI3VKF41RBJN4TBU","","null","<img src=""img/food6.png"" style=""width:200px; border:14px solid green;"">","null","","","","","","",""
"","image-keyboard-response","250","130498","0.0-283.0","30LB5CDZNDW8GCN129HAVRSXJLRZ0R","A2VZBQLSFZC519","30F94FBDNR6BS3JI3VKF41RBJN4TBU","","377.5","img/food2.png","74","378.1000000089407","1","1","1","1,0.5,0,1,0.5,0,0.5,0,1","false",""
"","html-keyboard-response","251","130800","0.0-284.0","30LB5CDZNDW8GCN129HAVRSXJLRZ0R","A2VZBQLSFZC519","30F94FBDNR6BS3JI3VKF41RBJN4TBU","","null","<img src=""img/food2.png"" style=""width:200px; border:14px solid green;"">","null","","","","","","",""
"","image-keyboard-response","252","131342","0.0-286.0","30LB5CDZNDW8GCN129HAVRSXJLRZ0R","A2VZBQLSFZC519","30F94FBDNR6BS3JI3VKF41RBJN4TBU","","541.2999999970198","img/food1.png","74","541.8999999910593","1","1","2","1,0.5,0,1,0.5,0,0.5,0,1","false",""
"","html-keyboard-response","253","131644","0.0-287.0","30LB5CDZNDW8GCN129HAVRSXJLRZ0R","A2VZBQLSFZC519","30F94FBDNR6BS3JI3VKF41RBJN4TBU","","null","<img src=""img/food1.png"" style=""width:200px; border:14px solid green;"">","null","","","","","","",""
"","image-keyboard-response","254","132038","0.0-289.0","30LB5CDZNDW8GCN129HAVRSXJLRZ0R","A2VZBQLSFZC519","30F94FBDNR6BS3JI3VKF41RBJN4TBU","","393.70000000298023","img/food1.png","74","394.29999999701977","1","1","2","1,0.5,0,1,0.5,0,0.5,0,1","false",""
"","html-keyboard-response","255","132339","0.0-290.0","30LB5CDZNDW8GCN129HAVRSXJLRZ0R","A2VZBQLSFZC519","30F94FBDNR6BS3JI3VKF41RBJN4TBU","","null","<img src=""img/food1.png"" style=""width:200px; border:14px solid green;"">","null","","","","","","",""
"","image-keyboard-response","256","132749","0.0-292.0","30LB5CDZNDW8GCN129HAVRSXJLRZ0R","A2VZBQLSFZC519","30F94FBDNR6BS3JI3VKF41RBJN4TBU","","409","img/food6.png","76","409.5","3","1","3","1,0.5,0,1,0.5,0,0.5,0,1","false",""
"","html-keyboard-response","257","133051","0.0-293.0","30LB5CDZNDW8GCN129HAVRSXJLRZ0R","A2VZBQLSFZC519","30F94FBDNR6BS3JI3VKF41RBJN4TBU","","null","<img src=""img/food6.png"" style=""width:200px; border:14px solid green;"">","null","","","","","","",""
"","image-keyboard-response","258","133428","0.0-295.0","30LB5CDZNDW8GCN129HAVRSXJLRZ0R","A2VZBQLSFZC519","30F94FBDNR6BS3JI3VKF41RBJN4TBU","","375.79999999701977","img/food6.png","76","376.5","3","1","3","1,0.5,0,1,0.5,0,0.5,0,1","false",""
"","html-keyboard-response","259","133729","0.0-296.0","30LB5CDZNDW8GCN129HAVRSXJLRZ0R","A2VZBQLSFZC519","30F94FBDNR6BS3JI3VKF41RBJN4TBU","","null","<img src=""img/food6.png"" style=""width:200px; border:14px solid green;"">","null","","","","","","",""
"","image-keyboard-response","260","134207","0.0-298.0","30LB5CDZNDW8GCN129HAVRSXJLRZ0R","A2VZBQLSFZC519","30F94FBDNR6BS3JI3VKF41RBJN4TBU","","477.30000001192093","img/food1.png","74","477.90000000596046","1","1","2","1,0.5,0,1,0.5,0,0.5,0,1","false",""
"","html-keyboard-response","261","134508","0.0-299.0","30LB5CDZNDW8GCN129HAVRSXJLRZ0R","A2VZBQLSFZC519","30F94FBDNR6BS3JI3VKF41RBJN4TBU","","null","<img src=""img/food1.png"" style=""width:200px; border:14px solid green;"">","null","","","","","","",""
"","image-keyboard-response","262","134840","0.0-301.0","30LB5CDZNDW8GCN129HAVRSXJLRZ0R","A2VZBQLSFZC519","30F94FBDNR6BS3JI3VKF41RBJN4TBU","","330.3999999910593","img/food2.png","76","331.29999999701977","3","0","1","1,0.5,0,1,0.5,0,0.5,0,1","false",""
"","html-keyboard-response","263","135141","0.0-302.0","30LB5CDZNDW8GCN129HAVRSXJLRZ0R","A2VZBQLSFZC519","30F94FBDNR6BS3JI3VKF41RBJN4TBU","","null","<img src=""img/food2.png"" style=""width:200px;border:14px solid red;"">","null","","","","","","",""
"","image-keyboard-response","264","135896","0.0-304.0","30LB5CDZNDW8GCN129HAVRSXJLRZ0R","A2VZBQLSFZC519","30F94FBDNR6BS3JI3VKF41RBJN4TBU","","754.2999999970198","img/food1.png","76","754.9000000059605","3","0","2","1,0.5,0,1,0.5,0,0.5,0,1","false",""
"","html-keyboard-response","265","136198","0.0-305.0","30LB5CDZNDW8GCN129HAVRSXJLRZ0R","A2VZBQLSFZC519","30F94FBDNR6BS3JI3VKF41RBJN4TBU","","null","<img src=""img/food1.png"" style=""width:200px;border:14px solid red;"">","null","","","","","","",""
"","image-keyboard-response","266","136770","0.0-307.0","30LB5CDZNDW8GCN129HAVRSXJLRZ0R","A2VZBQLSFZC519","30F94FBDNR6BS3JI3VKF41RBJN4TBU","","571.2999999970198","img/food6.png","76","571.8999999910593","3","1","3","1,0.5,0,1,0.5,0,0.5,0,1","false",""
"","html-keyboard-response","267","137072","0.0-308.0","30LB5CDZNDW8GCN129HAVRSXJLRZ0R","A2VZBQLSFZC519","30F94FBDNR6BS3JI3VKF41RBJN4TBU","","null","<img src=""img/food6.png"" style=""width:200px; border:14px solid green;"">","null","","","","","","",""
"","image-keyboard-response","268","137517","0.0-310.0","30LB5CDZNDW8GCN129HAVRSXJLRZ0R","A2VZBQLSFZC519","30F94FBDNR6BS3JI3VKF41RBJN4TBU","","444.3999999910593","img/food1.png","74","445","1","1","2","1,0.5,0,1,0.5,0,0.5,0,1","false",""
"","html-keyboard-response","269","137819","0.0-311.0","30LB5CDZNDW8GCN129HAVRSXJLRZ0R","A2VZBQLSFZC519","30F94FBDNR6BS3JI3VKF41RBJN4TBU","","null","<img src=""img/food1.png"" style=""width:200px; border:14px solid green;"">","null","","","","","","",""
"","image-keyboard-response","270","138208","0.0-313.0","30LB5CDZNDW8GCN129HAVRSXJLRZ0R","A2VZBQLSFZC519","30F94FBDNR6BS3JI3VKF41RBJN4TBU","","388.59999999403954","img/food1.png","74","389.40000000596046","1","1","2","1,0.5,0,1,0.5,0,0.5,0,1","false",""
"","html-keyboard-response","271","138510","0.0-314.0","30LB5CDZNDW8GCN129HAVRSXJLRZ0R","A2VZBQLSFZC519","30F94FBDNR6BS3JI3VKF41RBJN4TBU","","null","<img src=""img/food1.png"" style=""width:200px; border:14px solid green;"">","null","","","","","","",""
"","image-keyboard-response","272","139216","0.0-316.0","30LB5CDZNDW8GCN129HAVRSXJLRZ0R","A2VZBQLSFZC519","30F94FBDNR6BS3JI3VKF41RBJN4TBU","","705.3999999910593","img/food2.png","75","706.1000000089407","2","0","1","1,0.5,0,1,0.5,0,0.5,0,1","false",""
"","html-keyboard-response","273","139517","0.0-317.0","30LB5CDZNDW8GCN129HAVRSXJLRZ0R","A2VZBQLSFZC519","30F94FBDNR6BS3JI3VKF41RBJN4TBU","","null","<img src=""img/food2.png"" style=""width:200px;border:14px solid red;"">","null","","","","","","",""
"","image-keyboard-response","274","140195","0.0-319.0","30LB5CDZNDW8GCN129HAVRSXJLRZ0R","A2VZBQLSFZC519","30F94FBDNR6BS3JI3VKF41RBJN4TBU","","677.0999999940395","img/food2.png","74","677.8000000119209","1","1","1","1,0.5,0,1,0.5,0,0.5,0,1","false",""
"","html-keyboard-response","275","140496","0.0-320.0","30LB5CDZNDW8GCN129HAVRSXJLRZ0R","A2VZBQLSFZC519","30F94FBDNR6BS3JI3VKF41RBJN4TBU","","null","<img src=""img/food2.png"" style=""width:200px; border:14px solid green;"">","null","","","","","","",""
"","image-keyboard-response","276","140956","0.0-322.0","30LB5CDZNDW8GCN129HAVRSXJLRZ0R","A2VZBQLSFZC519","30F94FBDNR6BS3JI3VKF41RBJN4TBU","","458.70000000298023","img/food2.png","74","459.40000000596046","1","1","1","1,0.5,0,1,0.5,0,0.5,0,1","false",""
"","html-keyboard-response","277","141257","0.0-323.0","30LB5CDZNDW8GCN129HAVRSXJLRZ0R","A2VZBQLSFZC519","30F94FBDNR6BS3JI3VKF41RBJN4TBU","","null","<img src=""img/food2.png"" style=""width:200px; border:14px solid green;"">","null","","","","","","",""
"","image-keyboard-response","278","141593","0.0-325.0","30LB5CDZNDW8GCN129HAVRSXJLRZ0R","A2VZBQLSFZC519","30F94FBDNR6BS3JI3VKF41RBJN4TBU","","334.59999999403954","img/food2.png","74","335.20000000298023","1","1","1","1,0.5,0,1,0.5,0,0.5,0,1","false",""
"","html-keyboard-response","279","141894","0.0-326.0","30LB5CDZNDW8GCN129HAVRSXJLRZ0R","A2VZBQLSFZC519","30F94FBDNR6BS3JI3VKF41RBJN4TBU","","null","<img src=""img/food2.png"" style=""width:200px; border:14px solid green;"">","null","","","","","","",""
"","image-keyboard-response","280","142475","0.0-328.0","30LB5CDZNDW8GCN129HAVRSXJLRZ0R","A2VZBQLSFZC519","30F94FBDNR6BS3JI3VKF41RBJN4TBU","","580","img/food1.png","74","580.5999999940395","1","1","2","1,0.5,0,1,0.5,0,0.5,0,1","false",""
"","html-keyboard-response","281","142776","0.0-329.0","30LB5CDZNDW8GCN129HAVRSXJLRZ0R","A2VZBQLSFZC519","30F94FBDNR6BS3JI3VKF41RBJN4TBU","","null","<img src=""img/food1.png"" style=""width:200px; border:14px solid green;"">","null","","","","","","",""
"","image-keyboard-response","282","143210","0.0-331.0","30LB5CDZNDW8GCN129HAVRSXJLRZ0R","A2VZBQLSFZC519","30F94FBDNR6BS3JI3VKF41RBJN4TBU","","433.29999999701977","img/food2.png","74","433.8999999910593","1","1","1","1,0.5,0,1,0.5,0,0.5,0,1","false",""
"","html-keyboard-response","283","143511","0.0-332.0","30LB5CDZNDW8GCN129HAVRSXJLRZ0R","A2VZBQLSFZC519","30F94FBDNR6BS3JI3VKF41RBJN4TBU","","null","<img src=""img/food2.png"" style=""width:200px; border:14px solid green;"">","null","","","","","","",""
"","image-keyboard-response","284","143916","0.0-334.0","30LB5CDZNDW8GCN129HAVRSXJLRZ0R","A2VZBQLSFZC519","30F94FBDNR6BS3JI3VKF41RBJN4TBU","","404.69999998807907","img/food2.png","74","405.29999999701977","1","1","1","1,0.5,0,1,0.5,0,0.5,0,1","false",""
"","html-keyboard-response","285","144218","0.0-335.0","30LB5CDZNDW8GCN129HAVRSXJLRZ0R","A2VZBQLSFZC519","30F94FBDNR6BS3JI3VKF41RBJN4TBU","","null","<img src=""img/food2.png"" style=""width:200px; border:14px solid green;"">","null","","","","","","",""
"","image-keyboard-response","286","144764","0.0-337.0","30LB5CDZNDW8GCN129HAVRSXJLRZ0R","A2VZBQLSFZC519","30F94FBDNR6BS3JI3VKF41RBJN4TBU","","545.7000000029802","img/food6.png","76","546.4000000059605","3","1","3","1,0.5,0,1,0.5,0,0.5,0,1","false",""
"","html-keyboard-response","287","145066","0.0-338.0","30LB5CDZNDW8GCN129HAVRSXJLRZ0R","A2VZBQLSFZC519","30F94FBDNR6BS3JI3VKF41RBJN4TBU","","null","<img src=""img/food6.png"" style=""width:200px; border:14px solid green;"">","null","","","","","","",""
"","image-keyboard-response","288","145610","0.0-340.0","30LB5CDZNDW8GCN129HAVRSXJLRZ0R","A2VZBQLSFZC519","30F94FBDNR6BS3JI3VKF41RBJN4TBU","","543.2999999970198","img/food1.png","74","543.9000000059605","1","1","2","1,0.5,0,1,0.5,0,0.5,0,1","false",""
"","html-keyboard-response","289","145911","0.0-341.0","30LB5CDZNDW8GCN129HAVRSXJLRZ0R","A2VZBQLSFZC519","30F94FBDNR6BS3JI3VKF41RBJN4TBU","","null","<img src=""img/food1.png"" style=""width:200px; border:14px solid green;"">","null","","","","","","",""
"","image-keyboard-response","290","146325","0.0-343.0","30LB5CDZNDW8GCN129HAVRSXJLRZ0R","A2VZBQLSFZC519","30F94FBDNR6BS3JI3VKF41RBJN4TBU","","413","img/food6.png","76","413.59999999403954","3","1","3","1,0.5,0,1,0.5,0,0.5,0,1","false",""
"","html-keyboard-response","291","146627","0.0-344.0","30LB5CDZNDW8GCN129HAVRSXJLRZ0R","A2VZBQLSFZC519","30F94FBDNR6BS3JI3VKF41RBJN4TBU","","null","<img src=""img/food6.png"" style=""width:200px; border:14px solid green;"">","null","","","","","","",""
"","image-keyboard-response","292","146840","0.0-346.0","30LB5CDZNDW8GCN129HAVRSXJLRZ0R","A2VZBQLSFZC519","30F94FBDNR6BS3JI3VKF41RBJN4TBU","","212.20000000298023","img/food6.png","75","212.79999999701977","2","0","3","1,0.5,0,1,0.5,0,0.5,0,1","false",""
"","html-keyboard-response","293","147142","0.0-347.0","30LB5CDZNDW8GCN129HAVRSXJLRZ0R","A2VZBQLSFZC519","30F94FBDNR6BS3JI3VKF41RBJN4TBU","","null","<img src=""img/food6.png"" style=""width:200px;border:14px solid red;"">","null","","","","","","",""
"","image-keyboard-response","294","147776","0.0-349.0","30LB5CDZNDW8GCN129HAVRSXJLRZ0R","A2VZBQLSFZC519","30F94FBDNR6BS3JI3VKF41RBJN4TBU","","633.2000000029802","img/food2.png","74","633.9000000059605","1","1","1","1,0.5,0,1,0.5,0,0.5,0,1","false",""
"","html-keyboard-response","295","148077","0.0-350.0","30LB5CDZNDW8GCN129HAVRSXJLRZ0R","A2VZBQLSFZC519","30F94FBDNR6BS3JI3VKF41RBJN4TBU","","null","<img src=""img/food2.png"" style=""width:200px; border:14px solid green;"">","null","","","","","","",""
"","image-keyboard-response","296","148545","0.0-352.0","30LB5CDZNDW8GCN129HAVRSXJLRZ0R","A2VZBQLSFZC519","30F94FBDNR6BS3JI3VKF41RBJN4TBU","","467.29999999701977","img/food2.png","74","468","1","1","1","1,0.5,0,1,0.5,0,0.5,0,1","false",""
"","html-keyboard-response","297","148847","0.0-353.0","30LB5CDZNDW8GCN129HAVRSXJLRZ0R","A2VZBQLSFZC519","30F94FBDNR6BS3JI3VKF41RBJN4TBU","","null","<img src=""img/food2.png"" style=""width:200px; border:14px solid green;"">","null","","","","","","",""
"","image-keyboard-response","298","149525","0.0-355.0","30LB5CDZNDW8GCN129HAVRSXJLRZ0R","A2VZBQLSFZC519","30F94FBDNR6BS3JI3VKF41RBJN4TBU","","677","img/food1.png","76","677.5999999940395","3","0","2","1,0.5,0,1,0.5,0,0.5,0,1","false",""
"","html-keyboard-response","299","149827","0.0-356.0","30LB5CDZNDW8GCN129HAVRSXJLRZ0R","A2VZBQLSFZC519","30F94FBDNR6BS3JI3VKF41RBJN4TBU","","null","<img src=""img/food1.png"" style=""width:200px;border:14px solid red;"">","null","","","","","","",""
"","image-keyboard-response","300","150247","0.0-358.0","30LB5CDZNDW8GCN129HAVRSXJLRZ0R","A2VZBQLSFZC519","30F94FBDNR6BS3JI3VKF41RBJN4TBU","","419.20000000298023","img/food6.png","76","419.79999999701977","3","1","3","1,0.5,0,1,0.5,0,0.5,0,1","false",""
"","html-keyboard-response","301","150549","0.0-359.0","30LB5CDZNDW8GCN129HAVRSXJLRZ0R","A2VZBQLSFZC519","30F94FBDNR6BS3JI3VKF41RBJN4TBU","","null","<img src=""img/food6.png"" style=""width:200px; border:14px solid green;"">","null","","","","","","",""
"","image-keyboard-response","302","151005","0.0-361.0","30LB5CDZNDW8GCN129HAVRSXJLRZ0R","A2VZBQLSFZC519","30F94FBDNR6BS3JI3VKF41RBJN4TBU","","454.90000000596046","img/food6.png","76","455.59999999403954","3","1","3","1,0.5,0,1,0.5,0,0.5,0,1","false",""
"","html-keyboard-response","303","151306","0.0-362.0","30LB5CDZNDW8GCN129HAVRSXJLRZ0R","A2VZBQLSFZC519","30F94FBDNR6BS3JI3VKF41RBJN4TBU","","null","<img src=""img/food6.png"" style=""width:200px; border:14px solid green;"">","null","","","","","","",""
"","image-keyboard-response","304","151807","0.0-364.0","30LB5CDZNDW8GCN129HAVRSXJLRZ0R","A2VZBQLSFZC519","30F94FBDNR6BS3JI3VKF41RBJN4TBU","","499.59999999403954","img/food1.png","74","500.09999999403954","1","1","2","1,0.5,0,1,0.5,0,0.5,0,1","false",""
"","html-keyboard-response","305","152108","0.0-365.0","30LB5CDZNDW8GCN129HAVRSXJLRZ0R","A2VZBQLSFZC519","30F94FBDNR6BS3JI3VKF41RBJN4TBU","","null","<img src=""img/food1.png"" style=""width:200px; border:14px solid green;"">","null","","","","","","",""
"","image-keyboard-response","306","152715","0.0-367.0","30LB5CDZNDW8GCN129HAVRSXJLRZ0R","A2VZBQLSFZC519","30F94FBDNR6BS3JI3VKF41RBJN4TBU","","606.3999999910593","img/food6.png","76","607","3","1","3","1,0.5,0,1,0.5,0,0.5,0,1","false",""
"","html-keyboard-response","307","153017","0.0-368.0","30LB5CDZNDW8GCN129HAVRSXJLRZ0R","A2VZBQLSFZC519","30F94FBDNR6BS3JI3VKF41RBJN4TBU","","null","<img src=""img/food6.png"" style=""width:200px; border:14px solid green;"">","null","","","","","","",""
"","image-keyboard-response","308","153321","0.0-370.0","30LB5CDZNDW8GCN129HAVRSXJLRZ0R","A2VZBQLSFZC519","30F94FBDNR6BS3JI3VKF41RBJN4TBU","","302.90000000596046","img/food1.png","74","303.5","1","1","2","1,0.5,0,1,0.5,0,0.5,0,1","false",""
"","html-keyboard-response","309","153622","0.0-371.0","30LB5CDZNDW8GCN129HAVRSXJLRZ0R","A2VZBQLSFZC519","30F94FBDNR6BS3JI3VKF41RBJN4TBU","","null","<img src=""img/food1.png"" style=""width:200px; border:14px solid green;"">","null","","","","","","",""
"","image-keyboard-response","310","154034","0.0-373.0","30LB5CDZNDW8GCN129HAVRSXJLRZ0R","A2VZBQLSFZC519","30F94FBDNR6BS3JI3VKF41RBJN4TBU","","410.6000000089407","img/food1.png","74","411.3999999910593","1","1","2","1,0.5,0,1,0.5,0,0.5,0,1","false",""
"","html-keyboard-response","311","154335","0.0-374.0","30LB5CDZNDW8GCN129HAVRSXJLRZ0R","A2VZBQLSFZC519","30F94FBDNR6BS3JI3VKF41RBJN4TBU","","null","<img src=""img/food1.png"" style=""width:200px; border:14px solid green;"">","null","","","","","","",""
"","image-keyboard-response","312","154854","0.0-376.0","30LB5CDZNDW8GCN129HAVRSXJLRZ0R","A2VZBQLSFZC519","30F94FBDNR6BS3JI3VKF41RBJN4TBU","","518","img/food6.png","74","518.5999999940395","1","1","3","1,0.5,0,1,0.5,0,0.5,0,1","false",""
"","html-keyboard-response","313","155156","0.0-377.0","30LB5CDZNDW8GCN129HAVRSXJLRZ0R","A2VZBQLSFZC519","30F94FBDNR6BS3JI3VKF41RBJN4TBU","","null","<img src=""img/food6.png"" style=""width:200px; border:14px solid green;"">","null","","","","","","",""
"","image-keyboard-response","314","155675","0.0-379.0","30LB5CDZNDW8GCN129HAVRSXJLRZ0R","A2VZBQLSFZC519","30F94FBDNR6BS3JI3VKF41RBJN4TBU","","518.0999999940395","img/food2.png","74","518.7999999970198","1","1","1","1,0.5,0,1,0.5,0,0.5,0,1","false",""
"","html-keyboard-response","315","155976","0.0-380.0","30LB5CDZNDW8GCN129HAVRSXJLRZ0R","A2VZBQLSFZC519","30F94FBDNR6BS3JI3VKF41RBJN4TBU","","null","<img src=""img/food2.png"" style=""width:200px; border:14px solid green;"">","null","","","","","","",""
"","image-keyboard-response","316","156540","0.0-382.0","30LB5CDZNDW8GCN129HAVRSXJLRZ0R","A2VZBQLSFZC519","30F94FBDNR6BS3JI3VKF41RBJN4TBU","","562.8999999910593","img/food6.png","75","563.5","2","0","3","1,0.5,0,1,0.5,0,0.5,0,1","false",""
"","html-keyboard-response","317","156841","0.0-383.0","30LB5CDZNDW8GCN129HAVRSXJLRZ0R","A2VZBQLSFZC519","30F94FBDNR6BS3JI3VKF41RBJN4TBU","","null","<img src=""img/food6.png"" style=""width:200px;border:14px solid red;"">","null","","","","","","",""
"","image-keyboard-response","318","157319","0.0-385.0","30LB5CDZNDW8GCN129HAVRSXJLRZ0R","A2VZBQLSFZC519","30F94FBDNR6BS3JI3VKF41RBJN4TBU","","477.09999999403954","img/food2.png","74","477.69999998807907","1","1","1","1,0.5,0,1,0.5,0,0.5,0,1","false",""
"","html-keyboard-response","319","157620","0.0-386.0","30LB5CDZNDW8GCN129HAVRSXJLRZ0R","A2VZBQLSFZC519","30F94FBDNR6BS3JI3VKF41RBJN4TBU","","null","<img src=""img/food2.png"" style=""width:200px; border:14px solid green;"">","null","","","","","","",""
"","image-keyboard-response","320","158054","0.0-388.0","30LB5CDZNDW8GCN129HAVRSXJLRZ0R","A2VZBQLSFZC519","30F94FBDNR6BS3JI3VKF41RBJN4TBU","","433.40000000596046","img/food2.png","74","434.1000000089407","1","1","1","1,0.5,0,1,0.5,0,0.5,0,1","false",""
"","html-keyboard-response","321","158356","0.0-389.0","30LB5CDZNDW8GCN129HAVRSXJLRZ0R","A2VZBQLSFZC519","30F94FBDNR6BS3JI3VKF41RBJN4TBU","","null","<img src=""img/food2.png"" style=""width:200px; border:14px solid green;"">","null","","","","","","",""
"","image-keyboard-response","322","158716","0.0-391.0","30LB5CDZNDW8GCN129HAVRSXJLRZ0R","A2VZBQLSFZC519","30F94FBDNR6BS3JI3VKF41RBJN4TBU","","359.40000000596046","img/food2.png","74","360","1","1","1","1,0.5,0,1,0.5,0,0.5,0,1","false",""
"","html-keyboard-response","323","159017","0.0-392.0","30LB5CDZNDW8GCN129HAVRSXJLRZ0R","A2VZBQLSFZC519","30F94FBDNR6BS3JI3VKF41RBJN4TBU","","null","<img src=""img/food2.png"" style=""width:200px; border:14px solid green;"">","null","","","","","","",""
"","image-keyboard-response","324","159458","0.0-394.0","30LB5CDZNDW8GCN129HAVRSXJLRZ0R","A2VZBQLSFZC519","30F94FBDNR6BS3JI3VKF41RBJN4TBU","","440.09999999403954","img/food6.png","76","440.70000000298023","3","1","3","1,0.5,0,1,0.5,0,0.5,0,1","false",""
"","html-keyboard-response","325","159760","0.0-395.0","30LB5CDZNDW8GCN129HAVRSXJLRZ0R","A2VZBQLSFZC519","30F94FBDNR6BS3JI3VKF41RBJN4TBU","","null","<img src=""img/food6.png"" style=""width:200px; border:14px solid green;"">","null","","","","","","",""
"","image-keyboard-response","326","160240","0.0-397.0","30LB5CDZNDW8GCN129HAVRSXJLRZ0R","A2VZBQLSFZC519","30F94FBDNR6BS3JI3VKF41RBJN4TBU","","480.20000000298023","img/food1.png","74","480.70000000298023","1","1","2","1,0.5,0,1,0.5,0,0.5,0,1","false",""
"","html-keyboard-response","327","160543","0.0-398.0","30LB5CDZNDW8GCN129HAVRSXJLRZ0R","A2VZBQLSFZC519","30F94FBDNR6BS3JI3VKF41RBJN4TBU","","null","<img src=""img/food1.png"" style=""width:200px; border:14px solid green;"">","null","","","","","","",""
"","image-keyboard-response","328","160971","0.0-400.0","30LB5CDZNDW8GCN129HAVRSXJLRZ0R","A2VZBQLSFZC519","30F94FBDNR6BS3JI3VKF41RBJN4TBU","","426.90000000596046","img/food2.png","76","427.70000000298023","3","0","1","1,0.5,0,1,0.5,0,0.5,0,1","false",""
"","html-keyboard-response","329","161273","0.0-401.0","30LB5CDZNDW8GCN129HAVRSXJLRZ0R","A2VZBQLSFZC519","30F94FBDNR6BS3JI3VKF41RBJN4TBU","","null","<img src=""img/food2.png"" style=""width:200px;border:14px solid red;"">","null","","","","","","",""
"","image-keyboard-response","330","161765","0.0-403.0","30LB5CDZNDW8GCN129HAVRSXJLRZ0R","A2VZBQLSFZC519","30F94FBDNR6BS3JI3VKF41RBJN4TBU","","491.59999999403954","img/food6.png","74","492.20000000298023","1","0","3","1,0.5,0,1,0.5,0,0.5,0,1","false",""
"","html-keyboard-response","331","162066","0.0-404.0","30LB5CDZNDW8GCN129HAVRSXJLRZ0R","A2VZBQLSFZC519","30F94FBDNR6BS3JI3VKF41RBJN4TBU","","null","<img src=""img/food6.png"" style=""width:200px;border:14px solid red;"">","null","","","","","","",""
"","image-keyboard-response","332","162820","0.0-406.0","30LB5CDZNDW8GCN129HAVRSXJLRZ0R","A2VZBQLSFZC519","30F94FBDNR6BS3JI3VKF41RBJN4TBU","","753.5","img/food1.png","74","754.1000000089407","1","1","2","1,0.5,0,1,0.5,0,0.5,0,1","false",""
"","html-keyboard-response","333","163121","0.0-407.0","30LB5CDZNDW8GCN129HAVRSXJLRZ0R","A2VZBQLSFZC519","30F94FBDNR6BS3JI3VKF41RBJN4TBU","","null","<img src=""img/food1.png"" style=""width:200px; border:14px solid green;"">","null","","","","","","",""
"","image-keyboard-response","334","164123","0.0-409.0","30LB5CDZNDW8GCN129HAVRSXJLRZ0R","A2VZBQLSFZC519","30F94FBDNR6BS3JI3VKF41RBJN4TBU","","","img/food2.png","","1001.4000000059605","-1","0","1","1,0.5,0,1,0.5,0,0.5,0,1","true",""
"","html-keyboard-response","335","164425","0.0-410.0","30LB5CDZNDW8GCN129HAVRSXJLRZ0R","A2VZBQLSFZC519","30F94FBDNR6BS3JI3VKF41RBJN4TBU","","null","<img src=""img/food2.png"" style=""width:200px;border:14px solid red;"">","null","","","","","","",""
"","html-keyboard-response","336","168200","0.0-411.0-0.0","30LB5CDZNDW8GCN129HAVRSXJLRZ0R","A2VZBQLSFZC519","30F94FBDNR6BS3JI3VKF41RBJN4TBU","","","","","","","","","","",""
"","image-keyboard-response","337","168866","0.0-412.0","30LB5CDZNDW8GCN129HAVRSXJLRZ0R","A2VZBQLSFZC519","30F94FBDNR6BS3JI3VKF41RBJN4TBU","","664.7000000029802","img/food2.png","76","665.5","3","0","1","1,0.5,0,1,0.5,0,0.5,0,1","false",""
"","html-keyboard-response","338","169167","0.0-413.0","30LB5CDZNDW8GCN129HAVRSXJLRZ0R","A2VZBQLSFZC519","30F94FBDNR6BS3JI3VKF41RBJN4TBU","","null","<img src=""img/food2.png"" style=""width:200px;border:14px solid red;"">","null","","","","","","",""
"","image-keyboard-response","339","169480","0.0-415.0","30LB5CDZNDW8GCN129HAVRSXJLRZ0R","A2VZBQLSFZC519","30F94FBDNR6BS3JI3VKF41RBJN4TBU","","312.3999999910593","img/food2.png","75","312.8999999910593","2","1","1","1,0.5,0,1,0.5,0,0.5,0,1","false",""
"","html-keyboard-response","340","169781","0.0-416.0","30LB5CDZNDW8GCN129HAVRSXJLRZ0R","A2VZBQLSFZC519","30F94FBDNR6BS3JI3VKF41RBJN4TBU","","null","<img src=""img/food2.png"" style=""width:200px; border:14px solid green;"">","null","","","","","","",""
"","image-keyboard-response","341","170309","0.0-418.0","30LB5CDZNDW8GCN129HAVRSXJLRZ0R","A2VZBQLSFZC519","30F94FBDNR6BS3JI3VKF41RBJN4TBU","","526.1999999880791","img/food1.png","74","527","1","1","2","1,0.5,0,1,0.5,0,0.5,0,1","false",""
"","html-keyboard-response","342","170611","0.0-419.0","30LB5CDZNDW8GCN129HAVRSXJLRZ0R","A2VZBQLSFZC519","30F94FBDNR6BS3JI3VKF41RBJN4TBU","","null","<img src=""img/food1.png"" style=""width:200px; border:14px solid green;"">","null","","","","","","",""
"","image-keyboard-response","343","171103","0.0-421.0","30LB5CDZNDW8GCN129HAVRSXJLRZ0R","A2VZBQLSFZC519","30F94FBDNR6BS3JI3VKF41RBJN4TBU","","491.20000000298023","img/food2.png","75","491.8999999910593","2","0","1","1,0.5,0,1,0.5,0,0.5,0,1","false",""
"","html-keyboard-response","344","171405","0.0-422.0","30LB5CDZNDW8GCN129HAVRSXJLRZ0R","A2VZBQLSFZC519","30F94FBDNR6BS3JI3VKF41RBJN4TBU","","null","<img src=""img/food2.png"" style=""width:200px;border:14px solid red;"">","null","","","","","","",""
"","image-keyboard-response","345","171761","0.0-424.0","30LB5CDZNDW8GCN129HAVRSXJLRZ0R","A2VZBQLSFZC519","30F94FBDNR6BS3JI3VKF41RBJN4TBU","","355.79999999701977","img/food1.png","74","356.29999999701977","1","1","2","1,0.5,0,1,0.5,0,0.5,0,1","false",""
"","html-keyboard-response","346","172062","0.0-425.0","30LB5CDZNDW8GCN129HAVRSXJLRZ0R","A2VZBQLSFZC519","30F94FBDNR6BS3JI3VKF41RBJN4TBU","","null","<img src=""img/food1.png"" style=""width:200px; border:14px solid green;"">","null","","","","","","",""
"","image-keyboard-response","347","172402","0.0-427.0","30LB5CDZNDW8GCN129HAVRSXJLRZ0R","A2VZBQLSFZC519","30F94FBDNR6BS3JI3VKF41RBJN4TBU","","339.1000000089407","img/food1.png","76","339.69999998807907","3","0","2","1,0.5,0,1,0.5,0,0.5,0,1","false",""
"","html-keyboard-response","348","172704","0.0-428.0","30LB5CDZNDW8GCN129HAVRSXJLRZ0R","A2VZBQLSFZC519","30F94FBDNR6BS3JI3VKF41RBJN4TBU","","null","<img src=""img/food1.png"" style=""width:200px;border:14px solid red;"">","null","","","","","","",""
"","image-keyboard-response","349","173142","0.0-430.0","30LB5CDZNDW8GCN129HAVRSXJLRZ0R","A2VZBQLSFZC519","30F94FBDNR6BS3JI3VKF41RBJN4TBU","","437.29999999701977","img/food6.png","75","438","2","0","3","1,0.5,0,1,0.5,0,0.5,0,1","false",""
"","html-keyboard-response","350","173444","0.0-431.0","30LB5CDZNDW8GCN129HAVRSXJLRZ0R","A2VZBQLSFZC519","30F94FBDNR6BS3JI3VKF41RBJN4TBU","","null","<img src=""img/food6.png"" style=""width:200px;border:14px solid red;"">","null","","","","","","",""
"","image-keyboard-response","351","173915","0.0-433.0","30LB5CDZNDW8GCN129HAVRSXJLRZ0R","A2VZBQLSFZC519","30F94FBDNR6BS3JI3VKF41RBJN4TBU","","470","img/food6.png","76","470.70000000298023","3","1","3","1,0.5,0,1,0.5,0,0.5,0,1","false",""
"","html-keyboard-response","352","174217","0.0-434.0","30LB5CDZNDW8GCN129HAVRSXJLRZ0R","A2VZBQLSFZC519","30F94FBDNR6BS3JI3VKF41RBJN4TBU","","null","<img src=""img/food6.png"" style=""width:200px; border:14px solid green;"">","null","","","","","","",""
"","image-keyboard-response","353","175040","0.0-436.0","30LB5CDZNDW8GCN129HAVRSXJLRZ0R","A2VZBQLSFZC519","30F94FBDNR6BS3JI3VKF41RBJN4TBU","","822.7000000029802","img/food2.png","74","823.2999999970198","1","1","1","1,0.5,0,1,0.5,0,0.5,0,1","false",""
"","html-keyboard-response","354","175342","0.0-437.0","30LB5CDZNDW8GCN129HAVRSXJLRZ0R","A2VZBQLSFZC519","30F94FBDNR6BS3JI3VKF41RBJN4TBU","","null","<img src=""img/food2.png"" style=""width:200px; border:14px solid green;"">","null","","","","","","",""
"","image-keyboard-response","355","175762","0.0-439.0","30LB5CDZNDW8GCN129HAVRSXJLRZ0R","A2VZBQLSFZC519","30F94FBDNR6BS3JI3VKF41RBJN4TBU","","419.20000000298023","img/food1.png","76","420","3","0","2","1,0.5,0,1,0.5,0,0.5,0,1","false",""
"","html-keyboard-response","356","176064","0.0-440.0","30LB5CDZNDW8GCN129HAVRSXJLRZ0R","A2VZBQLSFZC519","30F94FBDNR6BS3JI3VKF41RBJN4TBU","","null","<img src=""img/food1.png"" style=""width:200px;border:14px solid red;"">","null","","","","","","",""
"","image-keyboard-response","357","176605","0.0-442.0","30LB5CDZNDW8GCN129HAVRSXJLRZ0R","A2VZBQLSFZC519","30F94FBDNR6BS3JI3VKF41RBJN4TBU","","540.7000000029802","img/food6.png","76","541.5","3","1","3","1,0.5,0,1,0.5,0,0.5,0,1","false",""
"","html-keyboard-response","358","176906","0.0-443.0","30LB5CDZNDW8GCN129HAVRSXJLRZ0R","A2VZBQLSFZC519","30F94FBDNR6BS3JI3VKF41RBJN4TBU","","null","<img src=""img/food6.png"" style=""width:200px; border:14px solid green;"">","null","","","","","","",""
"","image-keyboard-response","359","177509","0.0-445.0","30LB5CDZNDW8GCN129HAVRSXJLRZ0R","A2VZBQLSFZC519","30F94FBDNR6BS3JI3VKF41RBJN4TBU","","602.2000000029802","img/food1.png","74","602.7999999970198","1","1","2","1,0.5,0,1,0.5,0,0.5,0,1","false",""
"","html-keyboard-response","360","177810","0.0-446.0","30LB5CDZNDW8GCN129HAVRSXJLRZ0R","A2VZBQLSFZC519","30F94FBDNR6BS3JI3VKF41RBJN4TBU","","null","<img src=""img/food1.png"" style=""width:200px; border:14px solid green;"">","null","","","","","","",""
"","image-keyboard-response","361","178113","0.0-448.0","30LB5CDZNDW8GCN129HAVRSXJLRZ0R","A2VZBQLSFZC519","30F94FBDNR6BS3JI3VKF41RBJN4TBU","","302.19999998807907","img/food2.png","74","302.80000001192093","1","1","1","1,0.5,0,1,0.5,0,0.5,0,1","false",""
"","html-keyboard-response","362","178414","0.0-449.0","30LB5CDZNDW8GCN129HAVRSXJLRZ0R","A2VZBQLSFZC519","30F94FBDNR6BS3JI3VKF41RBJN4TBU","","null","<img src=""img/food2.png"" style=""width:200px; border:14px solid green;"">","null","","","","","","",""
"","image-keyboard-response","363","178989","0.0-451.0","30LB5CDZNDW8GCN129HAVRSXJLRZ0R","A2VZBQLSFZC519","30F94FBDNR6BS3JI3VKF41RBJN4TBU","","573.7000000029802","img/food6.png","76","574.3000000119209","3","1","3","1,0.5,0,1,0.5,0,0.5,0,1","false",""
"","html-keyboard-response","364","179291","0.0-452.0","30LB5CDZNDW8GCN129HAVRSXJLRZ0R","A2VZBQLSFZC519","30F94FBDNR6BS3JI3VKF41RBJN4TBU","","null","<img src=""img/food6.png"" style=""width:200px; border:14px solid green;"">","null","","","","","","",""
"","instructions","365","181534","0.0-454.0","30LB5CDZNDW8GCN129HAVRSXJLRZ0R","A2VZBQLSFZC519","30F94FBDNR6BS3JI3VKF41RBJN4TBU","[{""page_index"":0,""viewing_time"":2242.199999988079}]","2242.3999999910593","","","","","","","","",""
"","survey-text","366","184677","0.0-455.0","30LB5CDZNDW8GCN129HAVRSXJLRZ0R","A2VZBQLSFZC519","30F94FBDNR6BS3JI3VKF41RBJN4TBU","","3141.3999999910593","","","","","","","","","{""Q0"":""A2VZBQLSFZC519""}"
