"success","trial_type","trial_index","time_elapsed","internal_node_id","assignmentID","mturkID","hitID","view_history","rt","stimulus","key_press","reactionTime","a","r","warning","s","cond","reward_cond","reward_cond_actual","reward_matrix_idx","responses"
"true","fullscreen","0","5415","0.0-0.0","3AUQQEL7U6FR7SIR1CS7ALF1XP60V9","A2WAADBO0ZF89K","37SDSEDIN9ORHL92Y0GV7TIFJ2X187","","","","","","","","","","","","","",""
"","instructions","1","16392","0.0-1.0","3AUQQEL7U6FR7SIR1CS7ALF1XP60V9","A2WAADBO0ZF89K","37SDSEDIN9ORHL92Y0GV7TIFJ2X187","[{""page_index"":0,""viewing_time"":2189},{""page_index"":1,""viewing_time"":2872},{""page_index"":2,""viewing_time"":1104},{""page_index"":3,""viewing_time"":1174},{""page_index"":4,""viewing_time"":1202},{""page_index"":5,""viewing_time"":1185},{""page_index"":6,""viewing_time"":1249}]","10976","","","","","","","","","","","",""
"","instructions","2","19234","0.0-2.0","3AUQQEL7U6FR7SIR1CS7ALF1XP60V9","A2WAADBO0ZF89K","37SDSEDIN9ORHL92Y0GV7TIFJ2X187","[{""page_index"":0,""viewing_time"":1330},{""page_index"":1,""viewing_time"":1512}]","2842","","","","","","","","","","","",""
"","image-keyboard-response","3","20235","0.0-3.0","3AUQQEL7U6FR7SIR1CS7ALF1XP60V9","A2WAADBO0ZF89K","37SDSEDIN9ORHL92Y0GV7TIFJ2X187","","","img/food1.png","","1001","-1","0","true","3","2","1,0.5,0,1,0.5,0,0.5,0,1","0,1,0.5,0,1,0.5,1,0.5,0","3",""
"","html-keyboard-response","4","20537","0.0-4.0","3AUQQEL7U6FR7SIR1CS7ALF1XP60V9","A2WAADBO0ZF89K","37SDSEDIN9ORHL92Y0GV7TIFJ2X187","","null","<img src=""img/food1.png"" style=""width:200px;border:14px solid red;"">","null","","","","","","","","","",""
"","html-keyboard-response","5","24742","0.0-5.0-0.0","3AUQQEL7U6FR7SIR1CS7ALF1XP60V9","A2WAADBO0ZF89K","37SDSEDIN9ORHL92Y0GV7TIFJ2X187","","","","","","","","","","","","","",""
"","image-keyboard-response","6","25744","0.0-6.0","3AUQQEL7U6FR7SIR1CS7ALF1XP60V9","A2WAADBO0ZF89K","37SDSEDIN9ORHL92Y0GV7TIFJ2X187","","","img/food3.png","","1002","-1","0","true","1","2","1,0.5,0,1,0.5,0,0.5,0,1","0,1,0.5,0,1,0.5,1,0.5,0","3",""
"","html-keyboard-response","7","26045","0.0-7.0","3AUQQEL7U6FR7SIR1CS7ALF1XP60V9","A2WAADBO0ZF89K","37SDSEDIN9ORHL92Y0GV7TIFJ2X187","","null","<img src=""img/food3.png"" style=""width:200px;border:14px solid red;"">","null","","","","","","","","","",""
"","html-keyboard-response","8","28319","0.0-8.0-0.0","3AUQQEL7U6FR7SIR1CS7ALF1XP60V9","A2WAADBO0ZF89K","37SDSEDIN9ORHL92Y0GV7TIFJ2X187","","","","","","","","","","","","","",""
"","image-keyboard-response","9","28411","0.0-9.0","3AUQQEL7U6FR7SIR1CS7ALF1XP60V9","A2WAADBO0ZF89K","37SDSEDIN9ORHL92Y0GV7TIFJ2X187","","92","img/food3.png","74","92","1","0","false","1","2","1,0.5,0,1,0.5,0,0.5,0,1","0,1,0.5,0,1,0.5,1,0.5,0","3",""
"","html-keyboard-response","10","28713","0.0-10.0","3AUQQEL7U6FR7SIR1CS7ALF1XP60V9","A2WAADBO0ZF89K","37SDSEDIN9ORHL92Y0GV7TIFJ2X187","","null","<img src=""img/food3.png"" style=""width:200px;border:14px solid red;"">","null","","","","","","","","","",""
"","image-keyboard-response","11","29064","0.0-12.0","3AUQQEL7U6FR7SIR1CS7ALF1XP60V9","A2WAADBO0ZF89K","37SDSEDIN9ORHL92Y0GV7TIFJ2X187","","351","img/food3.png","76","351","3","0","false","1","2","1,0.5,0,1,0.5,0,0.5,0,1","0,1,0.5,0,1,0.5,1,0.5,0","3",""
"","html-keyboard-response","12","29365","0.0-13.0","3AUQQEL7U6FR7SIR1CS7ALF1XP60V9","A2WAADBO0ZF89K","37SDSEDIN9ORHL92Y0GV7TIFJ2X187","","null","<img src=""img/food3.png"" style=""width:200px;border:14px solid red;"">","null","","","","","","","","","",""
"","image-keyboard-response","13","29392","0.0-15.0","3AUQQEL7U6FR7SIR1CS7ALF1XP60V9","A2WAADBO0ZF89K","37SDSEDIN9ORHL92Y0GV7TIFJ2X187","","26","img/food1.png","74","27","1","1","false","3","2","1,0.5,0,1,0.5,0,0.5,0,1","0,1,0.5,0,1,0.5,1,0.5,0","3",""
"","html-keyboard-response","14","29694","0.0-16.0","3AUQQEL7U6FR7SIR1CS7ALF1XP60V9","A2WAADBO0ZF89K","37SDSEDIN9ORHL92Y0GV7TIFJ2X187","","null","<img src=""img/food1.png"" style=""width:200px; border:14px solid green;"">","null","","","","","","","","","",""
"","image-keyboard-response","15","29787","0.0-18.0","3AUQQEL7U6FR7SIR1CS7ALF1XP60V9","A2WAADBO0ZF89K","37SDSEDIN9ORHL92Y0GV7TIFJ2X187","","92","img/food5.png","76","93","3","1","false","2","2","1,0.5,0,1,0.5,0,0.5,0,1","0,1,0.5,0,1,0.5,1,0.5,0","3",""
"","html-keyboard-response","16","30089","0.0-19.0","3AUQQEL7U6FR7SIR1CS7ALF1XP60V9","A2WAADBO0ZF89K","37SDSEDIN9ORHL92Y0GV7TIFJ2X187","","null","<img src=""img/food5.png"" style=""width:200px; border:14px solid green;"">","null","","","","","","","","","",""
"","image-keyboard-response","17","30234","0.0-21.0","3AUQQEL7U6FR7SIR1CS7ALF1XP60V9","A2WAADBO0ZF89K","37SDSEDIN9ORHL92Y0GV7TIFJ2X187","","143","img/food3.png","76","145","3","0","false","1","2","1,0.5,0,1,0.5,0,0.5,0,1","0,1,0.5,0,1,0.5,1,0.5,0","3",""
"","html-keyboard-response","18","30535","0.0-22.0","3AUQQEL7U6FR7SIR1CS7ALF1XP60V9","A2WAADBO0ZF89K","37SDSEDIN9ORHL92Y0GV7TIFJ2X187","","null","<img src=""img/food3.png"" style=""width:200px;border:14px solid red;"">","null","","","","","","","","","",""
"","image-keyboard-response","19","30630","0.0-24.0","3AUQQEL7U6FR7SIR1CS7ALF1XP60V9","A2WAADBO0ZF89K","37SDSEDIN9ORHL92Y0GV7TIFJ2X187","","94","img/food1.png","75","95","2","1","false","3","2","1,0.5,0,1,0.5,0,0.5,0,1","0,1,0.5,0,1,0.5,1,0.5,0","3",""
"","html-keyboard-response","20","30932","0.0-25.0","3AUQQEL7U6FR7SIR1CS7ALF1XP60V9","A2WAADBO0ZF89K","37SDSEDIN9ORHL92Y0GV7TIFJ2X187","","null","<img src=""img/food1.png"" style=""width:200px; border:14px solid green;"">","null","","","","","","","","","",""
"","image-keyboard-response","21","31122","0.0-27.0","3AUQQEL7U6FR7SIR1CS7ALF1XP60V9","A2WAADBO0ZF89K","37SDSEDIN9ORHL92Y0GV7TIFJ2X187","","189","img/food5.png","76","190","3","1","false","2","2","1,0.5,0,1,0.5,0,0.5,0,1","0,1,0.5,0,1,0.5,1,0.5,0","3",""
"","html-keyboard-response","22","31422","0.0-28.0","3AUQQEL7U6FR7SIR1CS7ALF1XP60V9","A2WAADBO0ZF89K","37SDSEDIN9ORHL92Y0GV7TIFJ2X187","","null","<img src=""img/food5.png"" style=""width:200px; border:14px solid green;"">","null","","","","","","","","","",""
"","image-keyboard-response","23","31585","0.0-30.0","3AUQQEL7U6FR7SIR1CS7ALF1XP60V9","A2WAADBO0ZF89K","37SDSEDIN9ORHL92Y0GV7TIFJ2X187","","162","img/food5.png","76","164","3","1","false","2","2","1,0.5,0,1,0.5,0,0.5,0,1","0,1,0.5,0,1,0.5,1,0.5,0","3",""
"","html-keyboard-response","24","31886","0.0-31.0","3AUQQEL7U6FR7SIR1CS7ALF1XP60V9","A2WAADBO0ZF89K","37SDSEDIN9ORHL92Y0GV7TIFJ2X187","","null","<img src=""img/food5.png"" style=""width:200px; border:14px solid green;"">","null","","","","","","","","","",""
"","image-keyboard-response","25","31946","0.0-33.0","3AUQQEL7U6FR7SIR1CS7ALF1XP60V9","A2WAADBO0ZF89K","37SDSEDIN9ORHL92Y0GV7TIFJ2X187","","60","img/food1.png","74","60","1","1","false","3","2","1,0.5,0,1,0.5,0,0.5,0,1","0,1,0.5,0,1,0.5,1,0.5,0","3",""
"","html-keyboard-response","26","32248","0.0-34.0","3AUQQEL7U6FR7SIR1CS7ALF1XP60V9","A2WAADBO0ZF89K","37SDSEDIN9ORHL92Y0GV7TIFJ2X187","","null","<img src=""img/food1.png"" style=""width:200px; border:14px solid green;"">","null","","","","","","","","","",""
"","image-keyboard-response","27","32268","0.0-36.0","3AUQQEL7U6FR7SIR1CS7ALF1XP60V9","A2WAADBO0ZF89K","37SDSEDIN9ORHL92Y0GV7TIFJ2X187","","20","img/food5.png","76","20","3","1","false","2","2","1,0.5,0,1,0.5,0,0.5,0,1","0,1,0.5,0,1,0.5,1,0.5,0","3",""
"","html-keyboard-response","28","32569","0.0-37.0","3AUQQEL7U6FR7SIR1CS7ALF1XP60V9","A2WAADBO0ZF89K","37SDSEDIN9ORHL92Y0GV7TIFJ2X187","","null","<img src=""img/food5.png"" style=""width:200px; border:14px solid green;"">","null","","","","","","","","","",""
"","image-keyboard-response","29","32652","0.0-39.0","3AUQQEL7U6FR7SIR1CS7ALF1XP60V9","A2WAADBO0ZF89K","37SDSEDIN9ORHL92Y0GV7TIFJ2X187","","82","img/food5.png","74","83","1","0","false","2","2","1,0.5,0,1,0.5,0,0.5,0,1","0,1,0.5,0,1,0.5,1,0.5,0","3",""
"","html-keyboard-response","30","32953","0.0-40.0","3AUQQEL7U6FR7SIR1CS7ALF1XP60V9","A2WAADBO0ZF89K","37SDSEDIN9ORHL92Y0GV7TIFJ2X187","","null","<img src=""img/food5.png"" style=""width:200px;border:14px solid red;"">","null","","","","","","","","","",""
"","image-keyboard-response","31","33013","0.0-42.0","3AUQQEL7U6FR7SIR1CS7ALF1XP60V9","A2WAADBO0ZF89K","37SDSEDIN9ORHL92Y0GV7TIFJ2X187","","60","img/food5.png","75","60","2","1","false","2","2","1,0.5,0,1,0.5,0,0.5,0,1","0,1,0.5,0,1,0.5,1,0.5,0","3",""
"","html-keyboard-response","32","33314","0.0-43.0","3AUQQEL7U6FR7SIR1CS7ALF1XP60V9","A2WAADBO0ZF89K","37SDSEDIN9ORHL92Y0GV7TIFJ2X187","","null","<img src=""img/food5.png"" style=""width:200px; border:14px solid green;"">","null","","","","","","","","","",""
"","image-keyboard-response","33","33461","0.0-45.0","3AUQQEL7U6FR7SIR1CS7ALF1XP60V9","A2WAADBO0ZF89K","37SDSEDIN9ORHL92Y0GV7TIFJ2X187","","146","img/food5.png","74","147","1","0","false","2","2","1,0.5,0,1,0.5,0,0.5,0,1","0,1,0.5,0,1,0.5,1,0.5,0","3",""
"","html-keyboard-response","34","33767","0.0-46.0","3AUQQEL7U6FR7SIR1CS7ALF1XP60V9","A2WAADBO0ZF89K","37SDSEDIN9ORHL92Y0GV7TIFJ2X187","","null","<img src=""img/food5.png"" style=""width:200px;border:14px solid red;"">","null","","","","","","","","","",""
"","image-keyboard-response","35","33838","0.0-48.0","3AUQQEL7U6FR7SIR1CS7ALF1XP60V9","A2WAADBO0ZF89K","37SDSEDIN9ORHL92Y0GV7TIFJ2X187","","69","img/food1.png","75","71","2","0","false","3","2","1,0.5,0,1,0.5,0,0.5,0,1","0,1,0.5,0,1,0.5,1,0.5,0","3",""
"","html-keyboard-response","36","34139","0.0-49.0","3AUQQEL7U6FR7SIR1CS7ALF1XP60V9","A2WAADBO0ZF89K","37SDSEDIN9ORHL92Y0GV7TIFJ2X187","","null","<img src=""img/food1.png"" style=""width:200px;border:14px solid red;"">","null","","","","","","","","","",""
"","image-keyboard-response","37","34146","0.0-51.0","3AUQQEL7U6FR7SIR1CS7ALF1XP60V9","A2WAADBO0ZF89K","37SDSEDIN9ORHL92Y0GV7TIFJ2X187","","6","img/food1.png","76","7","3","0","false","3","2","1,0.5,0,1,0.5,0,0.5,0,1","0,1,0.5,0,1,0.5,1,0.5,0","3",""
"","html-keyboard-response","38","34446","0.0-52.0","3AUQQEL7U6FR7SIR1CS7ALF1XP60V9","A2WAADBO0ZF89K","37SDSEDIN9ORHL92Y0GV7TIFJ2X187","","null","<img src=""img/food1.png"" style=""width:200px;border:14px solid red;"">","null","","","","","","","","","",""
"","image-keyboard-response","39","34507","0.0-54.0","3AUQQEL7U6FR7SIR1CS7ALF1XP60V9","A2WAADBO0ZF89K","37SDSEDIN9ORHL92Y0GV7TIFJ2X187","","60","img/food5.png","74","61","1","0","false","2","2","1,0.5,0,1,0.5,0,0.5,0,1","0,1,0.5,0,1,0.5,1,0.5,0","3",""
"","html-keyboard-response","40","34808","0.0-55.0","3AUQQEL7U6FR7SIR1CS7ALF1XP60V9","A2WAADBO0ZF89K","37SDSEDIN9ORHL92Y0GV7TIFJ2X187","","null","<img src=""img/food5.png"" style=""width:200px;border:14px solid red;"">","null","","","","","","","","","",""
"","image-keyboard-response","41","34870","0.0-57.0","3AUQQEL7U6FR7SIR1CS7ALF1XP60V9","A2WAADBO0ZF89K","37SDSEDIN9ORHL92Y0GV7TIFJ2X187","","61","img/food1.png","76","61","3","0","false","3","2","1,0.5,0,1,0.5,0,0.5,0,1","0,1,0.5,0,1,0.5,1,0.5,0","3",""
"","html-keyboard-response","42","35171","0.0-58.0","3AUQQEL7U6FR7SIR1CS7ALF1XP60V9","A2WAADBO0ZF89K","37SDSEDIN9ORHL92Y0GV7TIFJ2X187","","null","<img src=""img/food1.png"" style=""width:200px;border:14px solid red;"">","null","","","","","","","","","",""
"","image-keyboard-response","43","35279","0.0-60.0","3AUQQEL7U6FR7SIR1CS7ALF1XP60V9","A2WAADBO0ZF89K","37SDSEDIN9ORHL92Y0GV7TIFJ2X187","","107","img/food1.png","74","107","1","1","false","3","2","1,0.5,0,1,0.5,0,0.5,0,1","0,1,0.5,0,1,0.5,1,0.5,0","3",""
"","html-keyboard-response","44","35580","0.0-61.0","3AUQQEL7U6FR7SIR1CS7ALF1XP60V9","A2WAADBO0ZF89K","37SDSEDIN9ORHL92Y0GV7TIFJ2X187","","null","<img src=""img/food1.png"" style=""width:200px; border:14px solid green;"">","null","","","","","","","","","",""
"","image-keyboard-response","45","35654","0.0-63.0","3AUQQEL7U6FR7SIR1CS7ALF1XP60V9","A2WAADBO0ZF89K","37SDSEDIN9ORHL92Y0GV7TIFJ2X187","","73","img/food1.png","76","74","3","0","false","3","2","1,0.5,0,1,0.5,0,0.5,0,1","0,1,0.5,0,1,0.5,1,0.5,0","3",""
"","html-keyboard-response","46","35957","0.0-64.0","3AUQQEL7U6FR7SIR1CS7ALF1XP60V9","A2WAADBO0ZF89K","37SDSEDIN9ORHL92Y0GV7TIFJ2X187","","null","<img src=""img/food1.png"" style=""width:200px;border:14px solid red;"">","null","","","","","","","","","",""
"","image-keyboard-response","47","36063","0.0-66.0","3AUQQEL7U6FR7SIR1CS7ALF1XP60V9","A2WAADBO0ZF89K","37SDSEDIN9ORHL92Y0GV7TIFJ2X187","","105","img/food3.png","74","105","1","0","false","1","2","1,0.5,0,1,0.5,0,0.5,0,1","0,1,0.5,0,1,0.5,1,0.5,0","3",""
"","html-keyboard-response","48","36365","0.0-67.0","3AUQQEL7U6FR7SIR1CS7ALF1XP60V9","A2WAADBO0ZF89K","37SDSEDIN9ORHL92Y0GV7TIFJ2X187","","null","<img src=""img/food3.png"" style=""width:200px;border:14px solid red;"">","null","","","","","","","","","",""
"","image-keyboard-response","49","36386","0.0-69.0","3AUQQEL7U6FR7SIR1CS7ALF1XP60V9","A2WAADBO0ZF89K","37SDSEDIN9ORHL92Y0GV7TIFJ2X187","","20","img/food3.png","76","21","3","0","false","1","2","1,0.5,0,1,0.5,0,0.5,0,1","0,1,0.5,0,1,0.5,1,0.5,0","3",""
"","html-keyboard-response","50","36686","0.0-70.0","3AUQQEL7U6FR7SIR1CS7ALF1XP60V9","A2WAADBO0ZF89K","37SDSEDIN9ORHL92Y0GV7TIFJ2X187","","null","<img src=""img/food3.png"" style=""width:200px;border:14px solid red;"">","null","","","","","","","","","",""
"","image-keyboard-response","51","36693","0.0-72.0","3AUQQEL7U6FR7SIR1CS7ALF1XP60V9","A2WAADBO0ZF89K","37SDSEDIN9ORHL92Y0GV7TIFJ2X187","","6","img/food3.png","76","7","3","0","false","1","2","1,0.5,0,1,0.5,0,0.5,0,1","0,1,0.5,0,1,0.5,1,0.5,0","3",""
"","html-keyboard-response","52","36993","0.0-73.0","3AUQQEL7U6FR7SIR1CS7ALF1XP60V9","A2WAADBO0ZF89K","37SDSEDIN9ORHL92Y0GV7TIFJ2X187","","null","<img src=""img/food3.png"" style=""width:200px;border:14px solid red;"">","null","","","","","","","","","",""
"","image-keyboard-response","53","37077","0.0-75.0","3AUQQEL7U6FR7SIR1CS7ALF1XP60V9","A2WAADBO0ZF89K","37SDSEDIN9ORHL92Y0GV7TIFJ2X187","","83","img/food1.png","74","83","1","1","false","3","2","1,0.5,0,1,0.5,0,0.5,0,1","0,1,0.5,0,1,0.5,1,0.5,0","3",""
"","html-keyboard-response","54","37379","0.0-76.0","3AUQQEL7U6FR7SIR1CS7ALF1XP60V9","A2WAADBO0ZF89K","37SDSEDIN9ORHL92Y0GV7TIFJ2X187","","null","<img src=""img/food1.png"" style=""width:200px; border:14px solid green;"">","null","","","","","","","","","",""
"","image-keyboard-response","55","37450","0.0-78.0","3AUQQEL7U6FR7SIR1CS7ALF1XP60V9","A2WAADBO0ZF89K","37SDSEDIN9ORHL92Y0GV7TIFJ2X187","","70","img/food5.png","76","71","3","0","false","2","2","1,0.5,0,1,0.5,0,0.5,0,1","0,1,0.5,0,1,0.5,1,0.5,0","3",""
"","html-keyboard-response","56","37751","0.0-79.0","3AUQQEL7U6FR7SIR1CS7ALF1XP60V9","A2WAADBO0ZF89K","37SDSEDIN9ORHL92Y0GV7TIFJ2X187","","null","<img src=""img/food5.png"" style=""width:200px;border:14px solid red;"">","null","","","","","","","","","",""
"","image-keyboard-response","57","37893","0.0-81.0","3AUQQEL7U6FR7SIR1CS7ALF1XP60V9","A2WAADBO0ZF89K","37SDSEDIN9ORHL92Y0GV7TIFJ2X187","","139","img/food5.png","74","142","1","0","false","2","2","1,0.5,0,1,0.5,0,0.5,0,1","0,1,0.5,0,1,0.5,1,0.5,0","3",""
"","html-keyboard-response","58","38195","0.0-82.0","3AUQQEL7U6FR7SIR1CS7ALF1XP60V9","A2WAADBO0ZF89K","37SDSEDIN9ORHL92Y0GV7TIFJ2X187","","null","<img src=""img/food5.png"" style=""width:200px;border:14px solid red;"">","null","","","","","","","","","",""
"","image-keyboard-response","59","38208","0.0-84.0","3AUQQEL7U6FR7SIR1CS7ALF1XP60V9","A2WAADBO0ZF89K","37SDSEDIN9ORHL92Y0GV7TIFJ2X187","","12","img/food5.png","75","12","2","1","false","2","2","1,0.5,0,1,0.5,0,0.5,0,1","0,1,0.5,0,1,0.5,1,0.5,0","3",""
"","html-keyboard-response","60","38508","0.0-85.0","3AUQQEL7U6FR7SIR1CS7ALF1XP60V9","A2WAADBO0ZF89K","37SDSEDIN9ORHL92Y0GV7TIFJ2X187","","null","<img src=""img/food5.png"" style=""width:200px; border:14px solid green;"">","null","","","","","","","","","",""
"","image-keyboard-response","61","38592","0.0-87.0","3AUQQEL7U6FR7SIR1CS7ALF1XP60V9","A2WAADBO0ZF89K","37SDSEDIN9ORHL92Y0GV7TIFJ2X187","","82","img/food3.png","76","84","3","0","false","1","2","1,0.5,0,1,0.5,0,0.5,0,1","0,1,0.5,0,1,0.5,1,0.5,0","3",""
"","html-keyboard-response","62","38893","0.0-88.0","3AUQQEL7U6FR7SIR1CS7ALF1XP60V9","A2WAADBO0ZF89K","37SDSEDIN9ORHL92Y0GV7TIFJ2X187","","null","<img src=""img/food3.png"" style=""width:200px;border:14px solid red;"">","null","","","","","","","","","",""
"","image-keyboard-response","63","39029","0.0-90.0","3AUQQEL7U6FR7SIR1CS7ALF1XP60V9","A2WAADBO0ZF89K","37SDSEDIN9ORHL92Y0GV7TIFJ2X187","","135","img/food5.png","74","137","1","0","false","2","2","1,0.5,0,1,0.5,0,0.5,0,1","0,1,0.5,0,1,0.5,1,0.5,0","3",""
"","html-keyboard-response","64","39331","0.0-91.0","3AUQQEL7U6FR7SIR1CS7ALF1XP60V9","A2WAADBO0ZF89K","37SDSEDIN9ORHL92Y0GV7TIFJ2X187","","null","<img src=""img/food5.png"" style=""width:200px;border:14px solid red;"">","null","","","","","","","","","",""
"","image-keyboard-response","65","39410","0.0-93.0","3AUQQEL7U6FR7SIR1CS7ALF1XP60V9","A2WAADBO0ZF89K","37SDSEDIN9ORHL92Y0GV7TIFJ2X187","","79","img/food3.png","76","80","3","1","false","1","2","1,0.5,0,1,0.5,0,0.5,0,1","0,1,0.5,0,1,0.5,1,0.5,0","3",""
"","html-keyboard-response","66","39712","0.0-94.0","3AUQQEL7U6FR7SIR1CS7ALF1XP60V9","A2WAADBO0ZF89K","37SDSEDIN9ORHL92Y0GV7TIFJ2X187","","null","<img src=""img/food3.png"" style=""width:200px; border:14px solid green;"">","null","","","","","","","","","",""
"","image-keyboard-response","67","39724","0.0-96.0","3AUQQEL7U6FR7SIR1CS7ALF1XP60V9","A2WAADBO0ZF89K","37SDSEDIN9ORHL92Y0GV7TIFJ2X187","","12","img/food3.png","76","12","3","0","false","1","2","1,0.5,0,1,0.5,0,0.5,0,1","0,1,0.5,0,1,0.5,1,0.5,0","3",""
"","html-keyboard-response","68","40025","0.0-97.0","3AUQQEL7U6FR7SIR1CS7ALF1XP60V9","A2WAADBO0ZF89K","37SDSEDIN9ORHL92Y0GV7TIFJ2X187","","null","<img src=""img/food3.png"" style=""width:200px;border:14px solid red;"">","null","","","","","","","","","",""
"","image-keyboard-response","69","40163","0.0-99.0","3AUQQEL7U6FR7SIR1CS7ALF1XP60V9","A2WAADBO0ZF89K","37SDSEDIN9ORHL92Y0GV7TIFJ2X187","","137","img/food5.png","74","137","1","0","false","2","2","1,0.5,0,1,0.5,0,0.5,0,1","0,1,0.5,0,1,0.5,1,0.5,0","3",""
"","html-keyboard-response","70","40465","0.0-100.0","3AUQQEL7U6FR7SIR1CS7ALF1XP60V9","A2WAADBO0ZF89K","37SDSEDIN9ORHL92Y0GV7TIFJ2X187","","null","<img src=""img/food5.png"" style=""width:200px;border:14px solid red;"">","null","","","","","","","","","",""
"","image-keyboard-response","71","40627","0.0-102.0","3AUQQEL7U6FR7SIR1CS7ALF1XP60V9","A2WAADBO0ZF89K","37SDSEDIN9ORHL92Y0GV7TIFJ2X187","","162","img/food3.png","76","162","3","1","false","1","2","1,0.5,0,1,0.5,0,0.5,0,1","0,1,0.5,0,1,0.5,1,0.5,0","3",""
"","html-keyboard-response","72","40930","0.0-103.0","3AUQQEL7U6FR7SIR1CS7ALF1XP60V9","A2WAADBO0ZF89K","37SDSEDIN9ORHL92Y0GV7TIFJ2X187","","null","<img src=""img/food3.png"" style=""width:200px; border:14px solid green;"">","null","","","","","","","","","",""
"","image-keyboard-response","73","41034","0.0-105.0","3AUQQEL7U6FR7SIR1CS7ALF1XP60V9","A2WAADBO0ZF89K","37SDSEDIN9ORHL92Y0GV7TIFJ2X187","","103","img/food3.png","74","103","1","0","false","1","2","1,0.5,0,1,0.5,0,0.5,0,1","0,1,0.5,0,1,0.5,1,0.5,0","3",""
"","html-keyboard-response","74","41337","0.0-106.0","3AUQQEL7U6FR7SIR1CS7ALF1XP60V9","A2WAADBO0ZF89K","37SDSEDIN9ORHL92Y0GV7TIFJ2X187","","null","<img src=""img/food3.png"" style=""width:200px;border:14px solid red;"">","null","","","","","","","","","",""
"","image-keyboard-response","75","41382","0.0-108.0","3AUQQEL7U6FR7SIR1CS7ALF1XP60V9","A2WAADBO0ZF89K","37SDSEDIN9ORHL92Y0GV7TIFJ2X187","","44","img/food3.png","76","45","3","0","false","1","2","1,0.5,0,1,0.5,0,0.5,0,1","0,1,0.5,0,1,0.5,1,0.5,0","3",""
"","html-keyboard-response","76","41683","0.0-109.0","3AUQQEL7U6FR7SIR1CS7ALF1XP60V9","A2WAADBO0ZF89K","37SDSEDIN9ORHL92Y0GV7TIFJ2X187","","null","<img src=""img/food3.png"" style=""width:200px;border:14px solid red;"">","null","","","","","","","","","",""
"","image-keyboard-response","77","41692","0.0-111.0","3AUQQEL7U6FR7SIR1CS7ALF1XP60V9","A2WAADBO0ZF89K","37SDSEDIN9ORHL92Y0GV7TIFJ2X187","","8","img/food5.png","76","9","3","1","false","2","2","1,0.5,0,1,0.5,0,0.5,0,1","0,1,0.5,0,1,0.5,1,0.5,0","3",""
"","html-keyboard-response","78","41992","0.0-112.0","3AUQQEL7U6FR7SIR1CS7ALF1XP60V9","A2WAADBO0ZF89K","37SDSEDIN9ORHL92Y0GV7TIFJ2X187","","null","<img src=""img/food5.png"" style=""width:200px; border:14px solid green;"">","null","","","","","","","","","",""
"","image-keyboard-response","79","42023","0.0-114.0","3AUQQEL7U6FR7SIR1CS7ALF1XP60V9","A2WAADBO0ZF89K","37SDSEDIN9ORHL92Y0GV7TIFJ2X187","","30","img/food1.png","76","30","3","0","false","3","2","1,0.5,0,1,0.5,0,0.5,0,1","0,1,0.5,0,1,0.5,1,0.5,0","3",""
"","html-keyboard-response","80","42324","0.0-115.0","3AUQQEL7U6FR7SIR1CS7ALF1XP60V9","A2WAADBO0ZF89K","37SDSEDIN9ORHL92Y0GV7TIFJ2X187","","null","<img src=""img/food1.png"" style=""width:200px;border:14px solid red;"">","null","","","","","","","","","",""
"","image-keyboard-response","81","42485","0.0-117.0","3AUQQEL7U6FR7SIR1CS7ALF1XP60V9","A2WAADBO0ZF89K","37SDSEDIN9ORHL92Y0GV7TIFJ2X187","","159","img/food5.png","74","161","1","0","false","2","2","1,0.5,0,1,0.5,0,0.5,0,1","0,1,0.5,0,1,0.5,1,0.5,0","3",""
"","html-keyboard-response","82","42786","0.0-118.0","3AUQQEL7U6FR7SIR1CS7ALF1XP60V9","A2WAADBO0ZF89K","37SDSEDIN9ORHL92Y0GV7TIFJ2X187","","null","<img src=""img/food5.png"" style=""width:200px;border:14px solid red;"">","null","","","","","","","","","",""
"","image-keyboard-response","83","42863","0.0-120.0","3AUQQEL7U6FR7SIR1CS7ALF1XP60V9","A2WAADBO0ZF89K","37SDSEDIN9ORHL92Y0GV7TIFJ2X187","","75","img/food1.png","76","77","3","0","false","3","2","1,0.5,0,1,0.5,0,0.5,0,1","0,1,0.5,0,1,0.5,1,0.5,0","3",""
"","html-keyboard-response","84","43164","0.0-121.0","3AUQQEL7U6FR7SIR1CS7ALF1XP60V9","A2WAADBO0ZF89K","37SDSEDIN9ORHL92Y0GV7TIFJ2X187","","null","<img src=""img/food1.png"" style=""width:200px;border:14px solid red;"">","null","","","","","","","","","",""
"","image-keyboard-response","85","43326","0.0-123.0","3AUQQEL7U6FR7SIR1CS7ALF1XP60V9","A2WAADBO0ZF89K","37SDSEDIN9ORHL92Y0GV7TIFJ2X187","","159","img/food1.png","74","161","1","1","false","3","2","1,0.5,0,1,0.5,0,0.5,0,1","0,1,0.5,0,1,0.5,1,0.5,0","3",""
"","html-keyboard-response","86","43627","0.0-124.0","3AUQQEL7U6FR7SIR1CS7ALF1XP60V9","A2WAADBO0ZF89K","37SDSEDIN9ORHL92Y0GV7TIFJ2X187","","null","<img src=""img/food1.png"" style=""width:200px; border:14px solid green;"">","null","","","","","","","","","",""
"","image-keyboard-response","87","43629","0.0-126.0","3AUQQEL7U6FR7SIR1CS7ALF1XP60V9","A2WAADBO0ZF89K","37SDSEDIN9ORHL92Y0GV7TIFJ2X187","","1","img/food5.png","74","2","1","0","false","2","2","1,0.5,0,1,0.5,0,0.5,0,1","0,1,0.5,0,1,0.5,1,0.5,0","3",""
"","html-keyboard-response","88","43930","0.0-127.0","3AUQQEL7U6FR7SIR1CS7ALF1XP60V9","A2WAADBO0ZF89K","37SDSEDIN9ORHL92Y0GV7TIFJ2X187","","null","<img src=""img/food5.png"" style=""width:200px;border:14px solid red;"">","null","","","","","","","","","",""
"","image-keyboard-response","89","43970","0.0-129.0","3AUQQEL7U6FR7SIR1CS7ALF1XP60V9","A2WAADBO0ZF89K","37SDSEDIN9ORHL92Y0GV7TIFJ2X187","","39","img/food5.png","74","40","1","0","false","2","2","1,0.5,0,1,0.5,0,0.5,0,1","0,1,0.5,0,1,0.5,1,0.5,0","3",""
"","html-keyboard-response","90","44272","0.0-130.0","3AUQQEL7U6FR7SIR1CS7ALF1XP60V9","A2WAADBO0ZF89K","37SDSEDIN9ORHL92Y0GV7TIFJ2X187","","null","<img src=""img/food5.png"" style=""width:200px;border:14px solid red;"">","null","","","","","","","","","",""
"","image-keyboard-response","91","44283","0.0-132.0","3AUQQEL7U6FR7SIR1CS7ALF1XP60V9","A2WAADBO0ZF89K","37SDSEDIN9ORHL92Y0GV7TIFJ2X187","","10","img/food1.png","76","11","3","0","false","3","2","1,0.5,0,1,0.5,0,0.5,0,1","0,1,0.5,0,1,0.5,1,0.5,0","3",""
"","html-keyboard-response","92","44584","0.0-133.0","3AUQQEL7U6FR7SIR1CS7ALF1XP60V9","A2WAADBO0ZF89K","37SDSEDIN9ORHL92Y0GV7TIFJ2X187","","null","<img src=""img/food1.png"" style=""width:200px;border:14px solid red;"">","null","","","","","","","","","",""
"","image-keyboard-response","93","44697","0.0-135.0","3AUQQEL7U6FR7SIR1CS7ALF1XP60V9","A2WAADBO0ZF89K","37SDSEDIN9ORHL92Y0GV7TIFJ2X187","","113","img/food3.png","74","113","1","0","false","1","2","1,0.5,0,1,0.5,0,0.5,0,1","0,1,0.5,0,1,0.5,1,0.5,0","3",""
"","html-keyboard-response","94","44998","0.0-136.0","3AUQQEL7U6FR7SIR1CS7ALF1XP60V9","A2WAADBO0ZF89K","37SDSEDIN9ORHL92Y0GV7TIFJ2X187","","null","<img src=""img/food3.png"" style=""width:200px;border:14px solid red;"">","null","","","","","","","","","",""
"","image-keyboard-response","95","45008","0.0-138.0","3AUQQEL7U6FR7SIR1CS7ALF1XP60V9","A2WAADBO0ZF89K","37SDSEDIN9ORHL92Y0GV7TIFJ2X187","","9","img/food3.png","74","10","1","0","false","1","2","1,0.5,0,1,0.5,0,0.5,0,1","0,1,0.5,0,1,0.5,1,0.5,0","3",""
"","html-keyboard-response","96","45310","0.0-139.0","3AUQQEL7U6FR7SIR1CS7ALF1XP60V9","A2WAADBO0ZF89K","37SDSEDIN9ORHL92Y0GV7TIFJ2X187","","null","<img src=""img/food3.png"" style=""width:200px;border:14px solid red;"">","null","","","","","","","","","",""
"","image-keyboard-response","97","45345","0.0-141.0","3AUQQEL7U6FR7SIR1CS7ALF1XP60V9","A2WAADBO0ZF89K","37SDSEDIN9ORHL92Y0GV7TIFJ2X187","","35","img/food3.png","76","35","3","0","false","1","2","1,0.5,0,1,0.5,0,0.5,0,1","0,1,0.5,0,1,0.5,1,0.5,0","3",""
"","html-keyboard-response","98","45647","0.0-142.0","3AUQQEL7U6FR7SIR1CS7ALF1XP60V9","A2WAADBO0ZF89K","37SDSEDIN9ORHL92Y0GV7TIFJ2X187","","null","<img src=""img/food3.png"" style=""width:200px;border:14px solid red;"">","null","","","","","","","","","",""
"","image-keyboard-response","99","45784","0.0-144.0","3AUQQEL7U6FR7SIR1CS7ALF1XP60V9","A2WAADBO0ZF89K","37SDSEDIN9ORHL92Y0GV7TIFJ2X187","","136","img/food3.png","76","137","3","1","false","1","2","1,0.5,0,1,0.5,0,0.5,0,1","0,1,0.5,0,1,0.5,1,0.5,0","3",""
"","html-keyboard-response","100","46087","0.0-145.0","3AUQQEL7U6FR7SIR1CS7ALF1XP60V9","A2WAADBO0ZF89K","37SDSEDIN9ORHL92Y0GV7TIFJ2X187","","null","<img src=""img/food3.png"" style=""width:200px; border:14px solid green;"">","null","","","","","","","","","",""
"","image-keyboard-response","101","46252","0.0-147.0","3AUQQEL7U6FR7SIR1CS7ALF1XP60V9","A2WAADBO0ZF89K","37SDSEDIN9ORHL92Y0GV7TIFJ2X187","","163","img/food1.png","76","165","3","0","false","3","2","1,0.5,0,1,0.5,0,0.5,0,1","0,1,0.5,0,1,0.5,1,0.5,0","3",""
"","html-keyboard-response","102","46553","0.0-148.0","3AUQQEL7U6FR7SIR1CS7ALF1XP60V9","A2WAADBO0ZF89K","37SDSEDIN9ORHL92Y0GV7TIFJ2X187","","null","<img src=""img/food1.png"" style=""width:200px;border:14px solid red;"">","null","","","","","","","","","",""
"","image-keyboard-response","103","46572","0.0-150.0","3AUQQEL7U6FR7SIR1CS7ALF1XP60V9","A2WAADBO0ZF89K","37SDSEDIN9ORHL92Y0GV7TIFJ2X187","","18","img/food3.png","76","19","3","1","false","1","2","1,0.5,0,1,0.5,0,0.5,0,1","0,1,0.5,0,1,0.5,1,0.5,0","3",""
"","html-keyboard-response","104","46874","0.0-151.0","3AUQQEL7U6FR7SIR1CS7ALF1XP60V9","A2WAADBO0ZF89K","37SDSEDIN9ORHL92Y0GV7TIFJ2X187","","null","<img src=""img/food3.png"" style=""width:200px; border:14px solid green;"">","null","","","","","","","","","",""
"","image-keyboard-response","105","47053","0.0-153.0","3AUQQEL7U6FR7SIR1CS7ALF1XP60V9","A2WAADBO0ZF89K","37SDSEDIN9ORHL92Y0GV7TIFJ2X187","","178","img/food1.png","76","179","3","0","false","3","2","1,0.5,0,1,0.5,0,0.5,0,1","0,1,0.5,0,1,0.5,1,0.5,0","3",""
"","html-keyboard-response","106","47354","0.0-154.0","3AUQQEL7U6FR7SIR1CS7ALF1XP60V9","A2WAADBO0ZF89K","37SDSEDIN9ORHL92Y0GV7TIFJ2X187","","null","<img src=""img/food1.png"" style=""width:200px;border:14px solid red;"">","null","","","","","","","","","",""
"","image-keyboard-response","107","47529","0.0-156.0","3AUQQEL7U6FR7SIR1CS7ALF1XP60V9","A2WAADBO0ZF89K","37SDSEDIN9ORHL92Y0GV7TIFJ2X187","","173","img/food5.png","74","175","1","0","false","2","2","1,0.5,0,1,0.5,0,0.5,0,1","0,1,0.5,0,1,0.5,1,0.5,0","3",""
"","html-keyboard-response","108","47829","0.0-157.0","3AUQQEL7U6FR7SIR1CS7ALF1XP60V9","A2WAADBO0ZF89K","37SDSEDIN9ORHL92Y0GV7TIFJ2X187","","null","<img src=""img/food5.png"" style=""width:200px;border:14px solid red;"">","null","","","","","","","","","",""
"","image-keyboard-response","109","47879","0.0-159.0","3AUQQEL7U6FR7SIR1CS7ALF1XP60V9","A2WAADBO0ZF89K","37SDSEDIN9ORHL92Y0GV7TIFJ2X187","","50","img/food1.png","75","51","2","1","false","3","2","1,0.5,0,1,0.5,0,0.5,0,1","0,1,0.5,0,1,0.5,1,0.5,0","3",""
"","html-keyboard-response","110","48182","0.0-160.0","3AUQQEL7U6FR7SIR1CS7ALF1XP60V9","A2WAADBO0ZF89K","37SDSEDIN9ORHL92Y0GV7TIFJ2X187","","null","<img src=""img/food1.png"" style=""width:200px; border:14px solid green;"">","null","","","","","","","","","",""
"","image-keyboard-response","111","48446","0.0-162.0","3AUQQEL7U6FR7SIR1CS7ALF1XP60V9","A2WAADBO0ZF89K","37SDSEDIN9ORHL92Y0GV7TIFJ2X187","","263","img/food3.png","76","264","3","1","false","1","2","1,0.5,0,1,0.5,0,0.5,0,1","0,1,0.5,0,1,0.5,1,0.5,0","3",""
"","html-keyboard-response","112","48747","0.0-163.0","3AUQQEL7U6FR7SIR1CS7ALF1XP60V9","A2WAADBO0ZF89K","37SDSEDIN9ORHL92Y0GV7TIFJ2X187","","null","<img src=""img/food3.png"" style=""width:200px; border:14px solid green;"">","null","","","","","","","","","",""
"","image-keyboard-response","113","48773","0.0-165.0","3AUQQEL7U6FR7SIR1CS7ALF1XP60V9","A2WAADBO0ZF89K","37SDSEDIN9ORHL92Y0GV7TIFJ2X187","","25","img/food5.png","74","26","1","0","false","2","2","1,0.5,0,1,0.5,0,0.5,0,1","0,1,0.5,0,1,0.5,1,0.5,0","3",""
"","html-keyboard-response","114","49074","0.0-166.0","3AUQQEL7U6FR7SIR1CS7ALF1XP60V9","A2WAADBO0ZF89K","37SDSEDIN9ORHL92Y0GV7TIFJ2X187","","null","<img src=""img/food5.png"" style=""width:200px;border:14px solid red;"">","null","","","","","","","","","",""
"","image-keyboard-response","115","49209","0.0-168.0","3AUQQEL7U6FR7SIR1CS7ALF1XP60V9","A2WAADBO0ZF89K","37SDSEDIN9ORHL92Y0GV7TIFJ2X187","","135","img/food3.png","76","135","3","1","false","1","2","1,0.5,0,1,0.5,0,0.5,0,1","0,1,0.5,0,1,0.5,1,0.5,0","3",""
"","html-keyboard-response","116","49511","0.0-169.0","3AUQQEL7U6FR7SIR1CS7ALF1XP60V9","A2WAADBO0ZF89K","37SDSEDIN9ORHL92Y0GV7TIFJ2X187","","null","<img src=""img/food3.png"" style=""width:200px; border:14px solid green;"">","null","","","","","","","","","",""
"","image-keyboard-response","117","49681","0.0-171.0","3AUQQEL7U6FR7SIR1CS7ALF1XP60V9","A2WAADBO0ZF89K","37SDSEDIN9ORHL92Y0GV7TIFJ2X187","","169","img/food1.png","76","170","3","0","false","3","2","1,0.5,0,1,0.5,0,0.5,0,1","0,1,0.5,0,1,0.5,1,0.5,0","3",""
"","html-keyboard-response","118","49983","0.0-172.0","3AUQQEL7U6FR7SIR1CS7ALF1XP60V9","A2WAADBO0ZF89K","37SDSEDIN9ORHL92Y0GV7TIFJ2X187","","null","<img src=""img/food1.png"" style=""width:200px;border:14px solid red;"">","null","","","","","","","","","",""
"","image-keyboard-response","119","49988","0.0-174.0","3AUQQEL7U6FR7SIR1CS7ALF1XP60V9","A2WAADBO0ZF89K","37SDSEDIN9ORHL92Y0GV7TIFJ2X187","","4","img/food1.png","76","5","3","0","false","3","2","1,0.5,0,1,0.5,0,0.5,0,1","0,1,0.5,0,1,0.5,1,0.5,0","3",""
"","html-keyboard-response","120","50290","0.0-175.0","3AUQQEL7U6FR7SIR1CS7ALF1XP60V9","A2WAADBO0ZF89K","37SDSEDIN9ORHL92Y0GV7TIFJ2X187","","null","<img src=""img/food1.png"" style=""width:200px;border:14px solid red;"">","null","","","","","","","","","",""
"","image-keyboard-response","121","50305","0.0-177.0","3AUQQEL7U6FR7SIR1CS7ALF1XP60V9","A2WAADBO0ZF89K","37SDSEDIN9ORHL92Y0GV7TIFJ2X187","","14","img/food3.png","74","15","1","0","false","1","2","1,0.5,0,1,0.5,0,0.5,0,1","0,1,0.5,0,1,0.5,1,0.5,0","3",""
"","html-keyboard-response","122","50606","0.0-178.0","3AUQQEL7U6FR7SIR1CS7ALF1XP60V9","A2WAADBO0ZF89K","37SDSEDIN9ORHL92Y0GV7TIFJ2X187","","null","<img src=""img/food3.png"" style=""width:200px;border:14px solid red;"">","null","","","","","","","","","",""
"","image-keyboard-response","123","50739","0.0-180.0","3AUQQEL7U6FR7SIR1CS7ALF1XP60V9","A2WAADBO0ZF89K","37SDSEDIN9ORHL92Y0GV7TIFJ2X187","","132","img/food5.png","74","133","1","0","false","2","2","1,0.5,0,1,0.5,0,0.5,0,1","0,1,0.5,0,1,0.5,1,0.5,0","3",""
"","html-keyboard-response","124","51041","0.0-181.0","3AUQQEL7U6FR7SIR1CS7ALF1XP60V9","A2WAADBO0ZF89K","37SDSEDIN9ORHL92Y0GV7TIFJ2X187","","null","<img src=""img/food5.png"" style=""width:200px;border:14px solid red;"">","null","","","","","","","","","",""
"","image-keyboard-response","125","51047","0.0-183.0","3AUQQEL7U6FR7SIR1CS7ALF1XP60V9","A2WAADBO0ZF89K","37SDSEDIN9ORHL92Y0GV7TIFJ2X187","","5","img/food3.png","75","6","2","1","false","1","2","1,0.5,0,1,0.5,0,0.5,0,1","0,1,0.5,0,1,0.5,1,0.5,0","3",""
"","html-keyboard-response","126","51349","0.0-184.0","3AUQQEL7U6FR7SIR1CS7ALF1XP60V9","A2WAADBO0ZF89K","37SDSEDIN9ORHL92Y0GV7TIFJ2X187","","null","<img src=""img/food3.png"" style=""width:200px; border:14px solid green;"">","null","","","","","","","","","",""
"","image-keyboard-response","127","51368","0.0-186.0","3AUQQEL7U6FR7SIR1CS7ALF1XP60V9","A2WAADBO0ZF89K","37SDSEDIN9ORHL92Y0GV7TIFJ2X187","","19","img/food3.png","75","19","2","1","false","1","2","1,0.5,0,1,0.5,0,0.5,0,1","0,1,0.5,0,1,0.5,1,0.5,0","3",""
"","html-keyboard-response","128","51670","0.0-187.0","3AUQQEL7U6FR7SIR1CS7ALF1XP60V9","A2WAADBO0ZF89K","37SDSEDIN9ORHL92Y0GV7TIFJ2X187","","null","<img src=""img/food3.png"" style=""width:200px; border:14px solid green;"">","null","","","","","","","","","",""
"","image-keyboard-response","129","51671","0.0-189.0","3AUQQEL7U6FR7SIR1CS7ALF1XP60V9","A2WAADBO0ZF89K","37SDSEDIN9ORHL92Y0GV7TIFJ2X187","","0","img/food3.png","75","0","2","1","false","1","2","1,0.5,0,1,0.5,0,0.5,0,1","0,1,0.5,0,1,0.5,1,0.5,0","3",""
"","html-keyboard-response","130","51973","0.0-190.0","3AUQQEL7U6FR7SIR1CS7ALF1XP60V9","A2WAADBO0ZF89K","37SDSEDIN9ORHL92Y0GV7TIFJ2X187","","null","<img src=""img/food3.png"" style=""width:200px; border:14px solid green;"">","null","","","","","","","","","",""
"","image-keyboard-response","131","52053","0.0-192.0","3AUQQEL7U6FR7SIR1CS7ALF1XP60V9","A2WAADBO0ZF89K","37SDSEDIN9ORHL92Y0GV7TIFJ2X187","","79","img/food1.png","76","80","3","0","false","3","2","1,0.5,0,1,0.5,0,0.5,0,1","0,1,0.5,0,1,0.5,1,0.5,0","3",""
"","html-keyboard-response","132","52355","0.0-193.0","3AUQQEL7U6FR7SIR1CS7ALF1XP60V9","A2WAADBO0ZF89K","37SDSEDIN9ORHL92Y0GV7TIFJ2X187","","null","<img src=""img/food1.png"" style=""width:200px;border:14px solid red;"">","null","","","","","","","","","",""
"","image-keyboard-response","133","52517","0.0-195.0","3AUQQEL7U6FR7SIR1CS7ALF1XP60V9","A2WAADBO0ZF89K","37SDSEDIN9ORHL92Y0GV7TIFJ2X187","","162","img/food5.png","76","162","3","1","false","2","2","1,0.5,0,1,0.5,0,0.5,0,1","0,1,0.5,0,1,0.5,1,0.5,0","3",""
"","html-keyboard-response","134","52818","0.0-196.0","3AUQQEL7U6FR7SIR1CS7ALF1XP60V9","A2WAADBO0ZF89K","37SDSEDIN9ORHL92Y0GV7TIFJ2X187","","null","<img src=""img/food5.png"" style=""width:200px; border:14px solid green;"">","null","","","","","","","","","",""
"","image-keyboard-response","135","53005","0.0-198.0","3AUQQEL7U6FR7SIR1CS7ALF1XP60V9","A2WAADBO0ZF89K","37SDSEDIN9ORHL92Y0GV7TIFJ2X187","","186","img/food5.png","76","188","3","0","false","2","2","1,0.5,0,1,0.5,0,0.5,0,1","0,1,0.5,0,1,0.5,1,0.5,0","3",""
"","html-keyboard-response","136","53308","0.0-199.0","3AUQQEL7U6FR7SIR1CS7ALF1XP60V9","A2WAADBO0ZF89K","37SDSEDIN9ORHL92Y0GV7TIFJ2X187","","null","<img src=""img/food5.png"" style=""width:200px;border:14px solid red;"">","null","","","","","","","","","",""
"","image-keyboard-response","137","53488","0.0-201.0","3AUQQEL7U6FR7SIR1CS7ALF1XP60V9","A2WAADBO0ZF89K","37SDSEDIN9ORHL92Y0GV7TIFJ2X187","","179","img/food5.png","75","180","2","1","false","2","2","1,0.5,0,1,0.5,0,0.5,0,1","0,1,0.5,0,1,0.5,1,0.5,0","3",""
"","html-keyboard-response","138","53788","0.0-202.0","3AUQQEL7U6FR7SIR1CS7ALF1XP60V9","A2WAADBO0ZF89K","37SDSEDIN9ORHL92Y0GV7TIFJ2X187","","null","<img src=""img/food5.png"" style=""width:200px; border:14px solid green;"">","null","","","","","","","","","",""
"","image-keyboard-response","139","53818","0.0-204.0","3AUQQEL7U6FR7SIR1CS7ALF1XP60V9","A2WAADBO0ZF89K","37SDSEDIN9ORHL92Y0GV7TIFJ2X187","","29","img/food5.png","75","29","2","1","false","2","2","1,0.5,0,1,0.5,0,0.5,0,1","0,1,0.5,0,1,0.5,1,0.5,0","3",""
"","html-keyboard-response","140","54119","0.0-205.0","3AUQQEL7U6FR7SIR1CS7ALF1XP60V9","A2WAADBO0ZF89K","37SDSEDIN9ORHL92Y0GV7TIFJ2X187","","null","<img src=""img/food5.png"" style=""width:200px; border:14px solid green;"">","null","","","","","","","","","",""
"","image-keyboard-response","141","54185","0.0-207.0","3AUQQEL7U6FR7SIR1CS7ALF1XP60V9","A2WAADBO0ZF89K","37SDSEDIN9ORHL92Y0GV7TIFJ2X187","","65","img/food5.png","74","65","1","0","false","2","2","1,0.5,0,1,0.5,0,0.5,0,1","0,1,0.5,0,1,0.5,1,0.5,0","3",""
"","html-keyboard-response","142","54487","0.0-208.0","3AUQQEL7U6FR7SIR1CS7ALF1XP60V9","A2WAADBO0ZF89K","37SDSEDIN9ORHL92Y0GV7TIFJ2X187","","null","<img src=""img/food5.png"" style=""width:200px;border:14px solid red;"">","null","","","","","","","","","",""
"","image-keyboard-response","143","54727","0.0-210.0","3AUQQEL7U6FR7SIR1CS7ALF1XP60V9","A2WAADBO0ZF89K","37SDSEDIN9ORHL92Y0GV7TIFJ2X187","","238","img/food5.png","76","239","3","1","false","2","2","1,0.5,0,1,0.5,0,0.5,0,1","0,1,0.5,0,1,0.5,1,0.5,0","3",""
"","html-keyboard-response","144","55029","0.0-211.0","3AUQQEL7U6FR7SIR1CS7ALF1XP60V9","A2WAADBO0ZF89K","37SDSEDIN9ORHL92Y0GV7TIFJ2X187","","null","<img src=""img/food5.png"" style=""width:200px; border:14px solid green;"">","null","","","","","","","","","",""
"","image-keyboard-response","145","55042","0.0-213.0","3AUQQEL7U6FR7SIR1CS7ALF1XP60V9","A2WAADBO0ZF89K","37SDSEDIN9ORHL92Y0GV7TIFJ2X187","","12","img/food1.png","76","13","3","0","false","3","2","1,0.5,0,1,0.5,0,0.5,0,1","0,1,0.5,0,1,0.5,1,0.5,0","3",""
"","html-keyboard-response","146","55344","0.0-214.0","3AUQQEL7U6FR7SIR1CS7ALF1XP60V9","A2WAADBO0ZF89K","37SDSEDIN9ORHL92Y0GV7TIFJ2X187","","null","<img src=""img/food1.png"" style=""width:200px;border:14px solid red;"">","null","","","","","","","","","",""
"","image-keyboard-response","147","55540","0.0-216.0","3AUQQEL7U6FR7SIR1CS7ALF1XP60V9","A2WAADBO0ZF89K","37SDSEDIN9ORHL92Y0GV7TIFJ2X187","","195","img/food1.png","74","196","1","1","false","3","2","1,0.5,0,1,0.5,0,0.5,0,1","0,1,0.5,0,1,0.5,1,0.5,0","3",""
"","html-keyboard-response","148","55841","0.0-217.0","3AUQQEL7U6FR7SIR1CS7ALF1XP60V9","A2WAADBO0ZF89K","37SDSEDIN9ORHL92Y0GV7TIFJ2X187","","null","<img src=""img/food1.png"" style=""width:200px; border:14px solid green;"">","null","","","","","","","","","",""
"","image-keyboard-response","149","55844","0.0-219.0","3AUQQEL7U6FR7SIR1CS7ALF1XP60V9","A2WAADBO0ZF89K","37SDSEDIN9ORHL92Y0GV7TIFJ2X187","","2","img/food3.png","75","3","2","1","false","1","2","1,0.5,0,1,0.5,0,0.5,0,1","0,1,0.5,0,1,0.5,1,0.5,0","3",""
"","html-keyboard-response","150","56146","0.0-220.0","3AUQQEL7U6FR7SIR1CS7ALF1XP60V9","A2WAADBO0ZF89K","37SDSEDIN9ORHL92Y0GV7TIFJ2X187","","null","<img src=""img/food3.png"" style=""width:200px; border:14px solid green;"">","null","","","","","","","","","",""
"","image-keyboard-response","151","56212","0.0-222.0","3AUQQEL7U6FR7SIR1CS7ALF1XP60V9","A2WAADBO0ZF89K","37SDSEDIN9ORHL92Y0GV7TIFJ2X187","","65","img/food1.png","75","66","2","0","false","3","2","1,0.5,0,1,0.5,0,0.5,0,1","0,1,0.5,0,1,0.5,1,0.5,0","3",""
"","html-keyboard-response","152","56514","0.0-223.0","3AUQQEL7U6FR7SIR1CS7ALF1XP60V9","A2WAADBO0ZF89K","37SDSEDIN9ORHL92Y0GV7TIFJ2X187","","null","<img src=""img/food1.png"" style=""width:200px;border:14px solid red;"">","null","","","","","","","","","",""
"","image-keyboard-response","153","56714","0.0-225.0","3AUQQEL7U6FR7SIR1CS7ALF1XP60V9","A2WAADBO0ZF89K","37SDSEDIN9ORHL92Y0GV7TIFJ2X187","","199","img/food5.png","76","200","3","1","false","2","2","1,0.5,0,1,0.5,0,0.5,0,1","0,1,0.5,0,1,0.5,1,0.5,0","3",""
"","html-keyboard-response","154","57016","0.0-226.0","3AUQQEL7U6FR7SIR1CS7ALF1XP60V9","A2WAADBO0ZF89K","37SDSEDIN9ORHL92Y0GV7TIFJ2X187","","null","<img src=""img/food5.png"" style=""width:200px; border:14px solid green;"">","null","","","","","","","","","",""
"","image-keyboard-response","155","57074","0.0-228.0","3AUQQEL7U6FR7SIR1CS7ALF1XP60V9","A2WAADBO0ZF89K","37SDSEDIN9ORHL92Y0GV7TIFJ2X187","","57","img/food3.png","76","58","3","1","false","1","2","1,0.5,0,1,0.5,0,0.5,0,1","0,1,0.5,0,1,0.5,1,0.5,0","3",""
"","html-keyboard-response","156","57375","0.0-229.0","3AUQQEL7U6FR7SIR1CS7ALF1XP60V9","A2WAADBO0ZF89K","37SDSEDIN9ORHL92Y0GV7TIFJ2X187","","null","<img src=""img/food3.png"" style=""width:200px; border:14px solid green;"">","null","","","","","","","","","",""
"","image-keyboard-response","157","57388","0.0-231.0","3AUQQEL7U6FR7SIR1CS7ALF1XP60V9","A2WAADBO0ZF89K","37SDSEDIN9ORHL92Y0GV7TIFJ2X187","","12","img/food3.png","76","13","3","0","false","1","2","1,0.5,0,1,0.5,0,0.5,0,1","0,1,0.5,0,1,0.5,1,0.5,0","3",""
"","html-keyboard-response","158","57689","0.0-232.0","3AUQQEL7U6FR7SIR1CS7ALF1XP60V9","A2WAADBO0ZF89K","37SDSEDIN9ORHL92Y0GV7TIFJ2X187","","null","<img src=""img/food3.png"" style=""width:200px;border:14px solid red;"">","null","","","","","","","","","",""
"","image-keyboard-response","159","57812","0.0-234.0","3AUQQEL7U6FR7SIR1CS7ALF1XP60V9","A2WAADBO0ZF89K","37SDSEDIN9ORHL92Y0GV7TIFJ2X187","","122","img/food1.png","74","123","1","1","false","3","2","1,0.5,0,1,0.5,0,0.5,0,1","0,1,0.5,0,1,0.5,1,0.5,0","3",""
"","html-keyboard-response","160","58117","0.0-235.0","3AUQQEL7U6FR7SIR1CS7ALF1XP60V9","A2WAADBO0ZF89K","37SDSEDIN9ORHL92Y0GV7TIFJ2X187","","null","<img src=""img/food1.png"" style=""width:200px; border:14px solid green;"">","null","","","","","","","","","",""
"","image-keyboard-response","161","58240","0.0-237.0","3AUQQEL7U6FR7SIR1CS7ALF1XP60V9","A2WAADBO0ZF89K","37SDSEDIN9ORHL92Y0GV7TIFJ2X187","","122","img/food1.png","75","122","2","0","false","3","2","1,0.5,0,1,0.5,0,0.5,0,1","0,1,0.5,0,1,0.5,1,0.5,0","3",""
"","html-keyboard-response","162","58542","0.0-238.0","3AUQQEL7U6FR7SIR1CS7ALF1XP60V9","A2WAADBO0ZF89K","37SDSEDIN9ORHL92Y0GV7TIFJ2X187","","null","<img src=""img/food1.png"" style=""width:200px;border:14px solid red;"">","null","","","","","","","","","",""
"","image-keyboard-response","163","58705","0.0-240.0","3AUQQEL7U6FR7SIR1CS7ALF1XP60V9","A2WAADBO0ZF89K","37SDSEDIN9ORHL92Y0GV7TIFJ2X187","","162","img/food3.png","76","163","3","0","false","1","2","1,0.5,0,1,0.5,0,0.5,0,1","0,1,0.5,0,1,0.5,1,0.5,0","3",""
"","html-keyboard-response","164","59006","0.0-241.0","3AUQQEL7U6FR7SIR1CS7ALF1XP60V9","A2WAADBO0ZF89K","37SDSEDIN9ORHL92Y0GV7TIFJ2X187","","null","<img src=""img/food3.png"" style=""width:200px;border:14px solid red;"">","null","","","","","","","","","",""
"","image-keyboard-response","165","59152","0.0-243.0","3AUQQEL7U6FR7SIR1CS7ALF1XP60V9","A2WAADBO0ZF89K","37SDSEDIN9ORHL92Y0GV7TIFJ2X187","","144","img/food3.png","76","144","3","1","false","1","2","1,0.5,0,1,0.5,0,0.5,0,1","0,1,0.5,0,1,0.5,1,0.5,0","3",""
"","html-keyboard-response","166","59453","0.0-244.0","3AUQQEL7U6FR7SIR1CS7ALF1XP60V9","A2WAADBO0ZF89K","37SDSEDIN9ORHL92Y0GV7TIFJ2X187","","null","<img src=""img/food3.png"" style=""width:200px; border:14px solid green;"">","null","","","","","","","","","",""
"","image-keyboard-response","167","59513","0.0-246.0","3AUQQEL7U6FR7SIR1CS7ALF1XP60V9","A2WAADBO0ZF89K","37SDSEDIN9ORHL92Y0GV7TIFJ2X187","","58","img/food5.png","76","60","3","1","false","2","2","1,0.5,0,1,0.5,0,0.5,0,1","0,1,0.5,0,1,0.5,1,0.5,0","3",""
"","html-keyboard-response","168","59813","0.0-247.0","3AUQQEL7U6FR7SIR1CS7ALF1XP60V9","A2WAADBO0ZF89K","37SDSEDIN9ORHL92Y0GV7TIFJ2X187","","null","<img src=""img/food5.png"" style=""width:200px; border:14px solid green;"">","null","","","","","","","","","",""
"","image-keyboard-response","169","59818","0.0-249.0","3AUQQEL7U6FR7SIR1CS7ALF1XP60V9","A2WAADBO0ZF89K","37SDSEDIN9ORHL92Y0GV7TIFJ2X187","","4","img/food5.png","76","5","3","0","false","2","2","1,0.5,0,1,0.5,0,0.5,0,1","0,1,0.5,0,1,0.5,1,0.5,0","3",""
"","html-keyboard-response","170","60119","0.0-250.0","3AUQQEL7U6FR7SIR1CS7ALF1XP60V9","A2WAADBO0ZF89K","37SDSEDIN9ORHL92Y0GV7TIFJ2X187","","null","<img src=""img/food5.png"" style=""width:200px;border:14px solid red;"">","null","","","","","","","","","",""
"","image-keyboard-response","171","60214","0.0-252.0","3AUQQEL7U6FR7SIR1CS7ALF1XP60V9","A2WAADBO0ZF89K","37SDSEDIN9ORHL92Y0GV7TIFJ2X187","","93","img/food1.png","76","95","3","0","false","3","2","1,0.5,0,1,0.5,0,0.5,0,1","0,1,0.5,0,1,0.5,1,0.5,0","3",""
"","html-keyboard-response","172","60515","0.0-253.0","3AUQQEL7U6FR7SIR1CS7ALF1XP60V9","A2WAADBO0ZF89K","37SDSEDIN9ORHL92Y0GV7TIFJ2X187","","null","<img src=""img/food1.png"" style=""width:200px;border:14px solid red;"">","null","","","","","","","","","",""
"","image-keyboard-response","173","60683","0.0-255.0","3AUQQEL7U6FR7SIR1CS7ALF1XP60V9","A2WAADBO0ZF89K","37SDSEDIN9ORHL92Y0GV7TIFJ2X187","","165","img/food1.png","76","168","3","0","false","3","2","1,0.5,0,1,0.5,0,0.5,0,1","0,1,0.5,0,1,0.5,1,0.5,0","3",""
"","html-keyboard-response","174","60984","0.0-256.0","3AUQQEL7U6FR7SIR1CS7ALF1XP60V9","A2WAADBO0ZF89K","37SDSEDIN9ORHL92Y0GV7TIFJ2X187","","null","<img src=""img/food1.png"" style=""width:200px;border:14px solid red;"">","null","","","","","","","","","",""
"","image-keyboard-response","175","61237","0.0-258.0","3AUQQEL7U6FR7SIR1CS7ALF1XP60V9","A2WAADBO0ZF89K","37SDSEDIN9ORHL92Y0GV7TIFJ2X187","","253","img/food1.png","75","253","2","0","false","3","2","1,0.5,0,1,0.5,0,0.5,0,1","0,1,0.5,0,1,0.5,1,0.5,0","3",""
"","html-keyboard-response","176","61538","0.0-259.0","3AUQQEL7U6FR7SIR1CS7ALF1XP60V9","A2WAADBO0ZF89K","37SDSEDIN9ORHL92Y0GV7TIFJ2X187","","null","<img src=""img/food1.png"" style=""width:200px;border:14px solid red;"">","null","","","","","","","","","",""
"","image-keyboard-response","177","61767","0.0-261.0","3AUQQEL7U6FR7SIR1CS7ALF1XP60V9","A2WAADBO0ZF89K","37SDSEDIN9ORHL92Y0GV7TIFJ2X187","","227","img/food5.png","75","229","2","1","false","2","2","1,0.5,0,1,0.5,0,0.5,0,1","0,1,0.5,0,1,0.5,1,0.5,0","3",""
"","html-keyboard-response","178","62068","0.0-262.0","3AUQQEL7U6FR7SIR1CS7ALF1XP60V9","A2WAADBO0ZF89K","37SDSEDIN9ORHL92Y0GV7TIFJ2X187","","null","<img src=""img/food5.png"" style=""width:200px; border:14px solid green;"">","null","","","","","","","","","",""
"","image-keyboard-response","179","62073","0.0-264.0","3AUQQEL7U6FR7SIR1CS7ALF1XP60V9","A2WAADBO0ZF89K","37SDSEDIN9ORHL92Y0GV7TIFJ2X187","","3","img/food1.png","75","5","2","0","false","3","2","1,0.5,0,1,0.5,0,0.5,0,1","0,1,0.5,0,1,0.5,1,0.5,0","3",""
"","html-keyboard-response","180","62373","0.0-265.0","3AUQQEL7U6FR7SIR1CS7ALF1XP60V9","A2WAADBO0ZF89K","37SDSEDIN9ORHL92Y0GV7TIFJ2X187","","null","<img src=""img/food1.png"" style=""width:200px;border:14px solid red;"">","null","","","","","","","","","",""
"","image-keyboard-response","181","62477","0.0-267.0","3AUQQEL7U6FR7SIR1CS7ALF1XP60V9","A2WAADBO0ZF89K","37SDSEDIN9ORHL92Y0GV7TIFJ2X187","","103","img/food3.png","74","104","1","0","false","1","2","1,0.5,0,1,0.5,0,0.5,0,1","0,1,0.5,0,1,0.5,1,0.5,0","3",""
"","html-keyboard-response","182","62778","0.0-268.0","3AUQQEL7U6FR7SIR1CS7ALF1XP60V9","A2WAADBO0ZF89K","37SDSEDIN9ORHL92Y0GV7TIFJ2X187","","null","<img src=""img/food3.png"" style=""width:200px;border:14px solid red;"">","null","","","","","","","","","",""
"","image-keyboard-response","183","62787","0.0-270.0","3AUQQEL7U6FR7SIR1CS7ALF1XP60V9","A2WAADBO0ZF89K","37SDSEDIN9ORHL92Y0GV7TIFJ2X187","","7","img/food1.png","75","8","2","0","false","3","2","1,0.5,0,1,0.5,0,0.5,0,1","0,1,0.5,0,1,0.5,1,0.5,0","3",""
"","html-keyboard-response","184","63089","0.0-271.0","3AUQQEL7U6FR7SIR1CS7ALF1XP60V9","A2WAADBO0ZF89K","37SDSEDIN9ORHL92Y0GV7TIFJ2X187","","null","<img src=""img/food1.png"" style=""width:200px;border:14px solid red;"">","null","","","","","","","","","",""
"","instructions","185","67418","0.0-273.0","3AUQQEL7U6FR7SIR1CS7ALF1XP60V9","A2WAADBO0ZF89K","37SDSEDIN9ORHL92Y0GV7TIFJ2X187","[{""page_index"":0,""viewing_time"":2690},{""page_index"":1,""viewing_time"":1638}]","4328","","","","","","","","","","","",""
"","image-keyboard-response","186","68166","0.0-274.0","3AUQQEL7U6FR7SIR1CS7ALF1XP60V9","A2WAADBO0ZF89K","37SDSEDIN9ORHL92Y0GV7TIFJ2X187","","746","img/food4.png","76","747","3","1","","2","1","1,0.5,0,1,0.5,0,0.5,0,1","0,1,0.5,0,1,0.5,1,0.5,0","3",""
"","html-keyboard-response","187","68467","0.0-275.0","3AUQQEL7U6FR7SIR1CS7ALF1XP60V9","A2WAADBO0ZF89K","37SDSEDIN9ORHL92Y0GV7TIFJ2X187","","null","<img src=""img/food4.png"" style=""width:200px; border:14px solid green;"">","null","","","","","","","","","",""
"","image-keyboard-response","188","68495","0.0-276.0","3AUQQEL7U6FR7SIR1CS7ALF1XP60V9","A2WAADBO0ZF89K","37SDSEDIN9ORHL92Y0GV7TIFJ2X187","","27","img/food6.png","74","28","1","0","","1","1","1,0.5,0,1,0.5,0,0.5,0,1","0,1,0.5,0,1,0.5,1,0.5,0","3",""
"","html-keyboard-response","189","68796","0.0-277.0","3AUQQEL7U6FR7SIR1CS7ALF1XP60V9","A2WAADBO0ZF89K","37SDSEDIN9ORHL92Y0GV7TIFJ2X187","","null","<img src=""img/food6.png"" style=""width:200px;border:14px solid red;"">","null","","","","","","","","","",""
"","image-keyboard-response","190","68828","0.0-278.0","3AUQQEL7U6FR7SIR1CS7ALF1XP60V9","A2WAADBO0ZF89K","37SDSEDIN9ORHL92Y0GV7TIFJ2X187","","32","img/food6.png","74","32","1","0","","1","1","1,0.5,0,1,0.5,0,0.5,0,1","0,1,0.5,0,1,0.5,1,0.5,0","3",""
"","html-keyboard-response","191","69130","0.0-279.0","3AUQQEL7U6FR7SIR1CS7ALF1XP60V9","A2WAADBO0ZF89K","37SDSEDIN9ORHL92Y0GV7TIFJ2X187","","null","<img src=""img/food6.png"" style=""width:200px;border:14px solid red;"">","null","","","","","","","","","",""
"","image-keyboard-response","192","69184","0.0-280.0","3AUQQEL7U6FR7SIR1CS7ALF1XP60V9","A2WAADBO0ZF89K","37SDSEDIN9ORHL92Y0GV7TIFJ2X187","","53","img/food4.png","75","54","2","1","","2","1","1,0.5,0,1,0.5,0,0.5,0,1","0,1,0.5,0,1,0.5,1,0.5,0","3",""
"","html-keyboard-response","193","69486","0.0-281.0","3AUQQEL7U6FR7SIR1CS7ALF1XP60V9","A2WAADBO0ZF89K","37SDSEDIN9ORHL92Y0GV7TIFJ2X187","","null","<img src=""img/food4.png"" style=""width:200px; border:14px solid green;"">","null","","","","","","","","","",""
"","image-keyboard-response","194","69571","0.0-282.0","3AUQQEL7U6FR7SIR1CS7ALF1XP60V9","A2WAADBO0ZF89K","37SDSEDIN9ORHL92Y0GV7TIFJ2X187","","85","img/food6.png","76","85","3","1","","1","1","1,0.5,0,1,0.5,0,0.5,0,1","0,1,0.5,0,1,0.5,1,0.5,0","3",""
"","html-keyboard-response","195","69872","0.0-283.0","3AUQQEL7U6FR7SIR1CS7ALF1XP60V9","A2WAADBO0ZF89K","37SDSEDIN9ORHL92Y0GV7TIFJ2X187","","null","<img src=""img/food6.png"" style=""width:200px; border:14px solid green;"">","null","","","","","","","","","",""
"","image-keyboard-response","196","70005","0.0-284.0","3AUQQEL7U6FR7SIR1CS7ALF1XP60V9","A2WAADBO0ZF89K","37SDSEDIN9ORHL92Y0GV7TIFJ2X187","","133","img/food2.png","74","133","1","1","","3","1","1,0.5,0,1,0.5,0,0.5,0,1","0,1,0.5,0,1,0.5,1,0.5,0","3",""
"","html-keyboard-response","197","70307","0.0-285.0","3AUQQEL7U6FR7SIR1CS7ALF1XP60V9","A2WAADBO0ZF89K","37SDSEDIN9ORHL92Y0GV7TIFJ2X187","","null","<img src=""img/food2.png"" style=""width:200px; border:14px solid green;"">","null","","","","","","","","","",""
"","image-keyboard-response","198","70428","0.0-286.0","3AUQQEL7U6FR7SIR1CS7ALF1XP60V9","A2WAADBO0ZF89K","37SDSEDIN9ORHL92Y0GV7TIFJ2X187","","121","img/food2.png","76","121","3","0","","3","1","1,0.5,0,1,0.5,0,0.5,0,1","0,1,0.5,0,1,0.5,1,0.5,0","3",""
"","html-keyboard-response","199","70730","0.0-287.0","3AUQQEL7U6FR7SIR1CS7ALF1XP60V9","A2WAADBO0ZF89K","37SDSEDIN9ORHL92Y0GV7TIFJ2X187","","null","<img src=""img/food2.png"" style=""width:200px;border:14px solid red;"">","null","","","","","","","","","",""
"","image-keyboard-response","200","70734","0.0-288.0","3AUQQEL7U6FR7SIR1CS7ALF1XP60V9","A2WAADBO0ZF89K","37SDSEDIN9ORHL92Y0GV7TIFJ2X187","","4","img/food4.png","76","4","3","0","","2","1","1,0.5,0,1,0.5,0,0.5,0,1","0,1,0.5,0,1,0.5,1,0.5,0","3",""
"","html-keyboard-response","201","71036","0.0-289.0","3AUQQEL7U6FR7SIR1CS7ALF1XP60V9","A2WAADBO0ZF89K","37SDSEDIN9ORHL92Y0GV7TIFJ2X187","","null","<img src=""img/food4.png"" style=""width:200px;border:14px solid red;"">","null","","","","","","","","","",""
"","image-keyboard-response","202","71174","0.0-290.0","3AUQQEL7U6FR7SIR1CS7ALF1XP60V9","A2WAADBO0ZF89K","37SDSEDIN9ORHL92Y0GV7TIFJ2X187","","137","img/food4.png","74","138","1","0","","2","1","1,0.5,0,1,0.5,0,0.5,0,1","0,1,0.5,0,1,0.5,1,0.5,0","3",""
"","html-keyboard-response","203","71475","0.0-291.0","3AUQQEL7U6FR7SIR1CS7ALF1XP60V9","A2WAADBO0ZF89K","37SDSEDIN9ORHL92Y0GV7TIFJ2X187","","null","<img src=""img/food4.png"" style=""width:200px;border:14px solid red;"">","null","","","","","","","","","",""
"","image-keyboard-response","204","71500","0.0-292.0","3AUQQEL7U6FR7SIR1CS7ALF1XP60V9","A2WAADBO0ZF89K","37SDSEDIN9ORHL92Y0GV7TIFJ2X187","","24","img/food4.png","74","25","1","0","","2","1","1,0.5,0,1,0.5,0,0.5,0,1","0,1,0.5,0,1,0.5,1,0.5,0","3",""
"","html-keyboard-response","205","71800","0.0-293.0","3AUQQEL7U6FR7SIR1CS7ALF1XP60V9","A2WAADBO0ZF89K","37SDSEDIN9ORHL92Y0GV7TIFJ2X187","","null","<img src=""img/food4.png"" style=""width:200px;border:14px solid red;"">","null","","","","","","","","","",""
"","image-keyboard-response","206","71812","0.0-294.0","3AUQQEL7U6FR7SIR1CS7ALF1XP60V9","A2WAADBO0ZF89K","37SDSEDIN9ORHL92Y0GV7TIFJ2X187","","12","img/food4.png","75","12","2","1","","2","1","1,0.5,0,1,0.5,0,0.5,0,1","0,1,0.5,0,1,0.5,1,0.5,0","3",""
"","html-keyboard-response","207","72113","0.0-295.0","3AUQQEL7U6FR7SIR1CS7ALF1XP60V9","A2WAADBO0ZF89K","37SDSEDIN9ORHL92Y0GV7TIFJ2X187","","null","<img src=""img/food4.png"" style=""width:200px; border:14px solid green;"">","null","","","","","","","","","",""
"","image-keyboard-response","208","72321","0.0-296.0","3AUQQEL7U6FR7SIR1CS7ALF1XP60V9","A2WAADBO0ZF89K","37SDSEDIN9ORHL92Y0GV7TIFJ2X187","","208","img/food6.png","75","208","2","1","","1","1","1,0.5,0,1,0.5,0,0.5,0,1","0,1,0.5,0,1,0.5,1,0.5,0","3",""
"","html-keyboard-response","209","72622","0.0-297.0","3AUQQEL7U6FR7SIR1CS7ALF1XP60V9","A2WAADBO0ZF89K","37SDSEDIN9ORHL92Y0GV7TIFJ2X187","","null","<img src=""img/food6.png"" style=""width:200px; border:14px solid green;"">","null","","","","","","","","","",""
"","image-keyboard-response","210","72717","0.0-298.0","3AUQQEL7U6FR7SIR1CS7ALF1XP60V9","A2WAADBO0ZF89K","37SDSEDIN9ORHL92Y0GV7TIFJ2X187","","94","img/food6.png","74","95","1","0","","1","1","1,0.5,0,1,0.5,0,0.5,0,1","0,1,0.5,0,1,0.5,1,0.5,0","3",""
"","html-keyboard-response","211","73018","0.0-299.0","3AUQQEL7U6FR7SIR1CS7ALF1XP60V9","A2WAADBO0ZF89K","37SDSEDIN9ORHL92Y0GV7TIFJ2X187","","null","<img src=""img/food6.png"" style=""width:200px;border:14px solid red;"">","null","","","","","","","","","",""
"","image-keyboard-response","212","73057","0.0-300.0","3AUQQEL7U6FR7SIR1CS7ALF1XP60V9","A2WAADBO0ZF89K","37SDSEDIN9ORHL92Y0GV7TIFJ2X187","","38","img/food4.png","74","38","1","0","","2","1","1,0.5,0,1,0.5,0,0.5,0,1","0,1,0.5,0,1,0.5,1,0.5,0","3",""
"","html-keyboard-response","213","73358","0.0-301.0","3AUQQEL7U6FR7SIR1CS7ALF1XP60V9","A2WAADBO0ZF89K","37SDSEDIN9ORHL92Y0GV7TIFJ2X187","","null","<img src=""img/food4.png"" style=""width:200px;border:14px solid red;"">","null","","","","","","","","","",""
"","image-keyboard-response","214","73557","0.0-302.0","3AUQQEL7U6FR7SIR1CS7ALF1XP60V9","A2WAADBO0ZF89K","37SDSEDIN9ORHL92Y0GV7TIFJ2X187","","199","img/food6.png","74","199","1","0","","1","1","1,0.5,0,1,0.5,0,0.5,0,1","0,1,0.5,0,1,0.5,1,0.5,0","3",""
"","html-keyboard-response","215","73859","0.0-303.0","3AUQQEL7U6FR7SIR1CS7ALF1XP60V9","A2WAADBO0ZF89K","37SDSEDIN9ORHL92Y0GV7TIFJ2X187","","null","<img src=""img/food6.png"" style=""width:200px;border:14px solid red;"">","null","","","","","","","","","",""
"","image-keyboard-response","216","73874","0.0-304.0","3AUQQEL7U6FR7SIR1CS7ALF1XP60V9","A2WAADBO0ZF89K","37SDSEDIN9ORHL92Y0GV7TIFJ2X187","","14","img/food2.png","75","14","2","0","","3","1","1,0.5,0,1,0.5,0,0.5,0,1","0,1,0.5,0,1,0.5,1,0.5,0","3",""
"","html-keyboard-response","217","74174","0.0-305.0","3AUQQEL7U6FR7SIR1CS7ALF1XP60V9","A2WAADBO0ZF89K","37SDSEDIN9ORHL92Y0GV7TIFJ2X187","","null","<img src=""img/food2.png"" style=""width:200px;border:14px solid red;"">","null","","","","","","","","","",""
"","image-keyboard-response","218","74201","0.0-306.0","3AUQQEL7U6FR7SIR1CS7ALF1XP60V9","A2WAADBO0ZF89K","37SDSEDIN9ORHL92Y0GV7TIFJ2X187","","26","img/food2.png","74","28","1","1","","3","1","1,0.5,0,1,0.5,0,0.5,0,1","0,1,0.5,0,1,0.5,1,0.5,0","3",""
"","html-keyboard-response","219","74502","0.0-307.0","3AUQQEL7U6FR7SIR1CS7ALF1XP60V9","A2WAADBO0ZF89K","37SDSEDIN9ORHL92Y0GV7TIFJ2X187","","null","<img src=""img/food2.png"" style=""width:200px; border:14px solid green;"">","null","","","","","","","","","",""
"","image-keyboard-response","220","74548","0.0-308.0","3AUQQEL7U6FR7SIR1CS7ALF1XP60V9","A2WAADBO0ZF89K","37SDSEDIN9ORHL92Y0GV7TIFJ2X187","","44","img/food2.png","74","45","1","1","","3","1","1,0.5,0,1,0.5,0,0.5,0,1","0,1,0.5,0,1,0.5,1,0.5,0","3",""
"","html-keyboard-response","221","74849","0.0-309.0","3AUQQEL7U6FR7SIR1CS7ALF1XP60V9","A2WAADBO0ZF89K","37SDSEDIN9ORHL92Y0GV7TIFJ2X187","","null","<img src=""img/food2.png"" style=""width:200px; border:14px solid green;"">","null","","","","","","","","","",""
"","image-keyboard-response","222","74884","0.0-310.0","3AUQQEL7U6FR7SIR1CS7ALF1XP60V9","A2WAADBO0ZF89K","37SDSEDIN9ORHL92Y0GV7TIFJ2X187","","34","img/food2.png","75","35","2","0","","3","1","1,0.5,0,1,0.5,0,0.5,0,1","0,1,0.5,0,1,0.5,1,0.5,0","3",""
"","html-keyboard-response","223","75185","0.0-311.0","3AUQQEL7U6FR7SIR1CS7ALF1XP60V9","A2WAADBO0ZF89K","37SDSEDIN9ORHL92Y0GV7TIFJ2X187","","null","<img src=""img/food2.png"" style=""width:200px;border:14px solid red;"">","null","","","","","","","","","",""
"","image-keyboard-response","224","75228","0.0-312.0","3AUQQEL7U6FR7SIR1CS7ALF1XP60V9","A2WAADBO0ZF89K","37SDSEDIN9ORHL92Y0GV7TIFJ2X187","","42","img/food2.png","76","43","3","0","","3","1","1,0.5,0,1,0.5,0,0.5,0,1","0,1,0.5,0,1,0.5,1,0.5,0","3",""
"","html-keyboard-response","225","75529","0.0-313.0","3AUQQEL7U6FR7SIR1CS7ALF1XP60V9","A2WAADBO0ZF89K","37SDSEDIN9ORHL92Y0GV7TIFJ2X187","","null","<img src=""img/food2.png"" style=""width:200px;border:14px solid red;"">","null","","","","","","","","","",""
"","image-keyboard-response","226","75715","0.0-314.0","3AUQQEL7U6FR7SIR1CS7ALF1XP60V9","A2WAADBO0ZF89K","37SDSEDIN9ORHL92Y0GV7TIFJ2X187","","184","img/food6.png","74","186","1","0","","1","1","1,0.5,0,1,0.5,0,0.5,0,1","0,1,0.5,0,1,0.5,1,0.5,0","3",""
"","html-keyboard-response","227","76017","0.0-315.0","3AUQQEL7U6FR7SIR1CS7ALF1XP60V9","A2WAADBO0ZF89K","37SDSEDIN9ORHL92Y0GV7TIFJ2X187","","null","<img src=""img/food6.png"" style=""width:200px;border:14px solid red;"">","null","","","","","","","","","",""
"","image-keyboard-response","228","76018","0.0-316.0","3AUQQEL7U6FR7SIR1CS7ALF1XP60V9","A2WAADBO0ZF89K","37SDSEDIN9ORHL92Y0GV7TIFJ2X187","","0","img/food6.png","76","1","3","0","","1","1","1,0.5,0,1,0.5,0,0.5,0,1","0,1,0.5,0,1,0.5,1,0.5,0","3",""
"","html-keyboard-response","229","76318","0.0-317.0","3AUQQEL7U6FR7SIR1CS7ALF1XP60V9","A2WAADBO0ZF89K","37SDSEDIN9ORHL92Y0GV7TIFJ2X187","","null","<img src=""img/food6.png"" style=""width:200px;border:14px solid red;"">","null","","","","","","","","","",""
"","image-keyboard-response","230","76383","0.0-318.0","3AUQQEL7U6FR7SIR1CS7ALF1XP60V9","A2WAADBO0ZF89K","37SDSEDIN9ORHL92Y0GV7TIFJ2X187","","65","img/food6.png","74","65","1","0","","1","1","1,0.5,0,1,0.5,0,0.5,0,1","0,1,0.5,0,1,0.5,1,0.5,0","3",""
"","html-keyboard-response","231","76685","0.0-319.0","3AUQQEL7U6FR7SIR1CS7ALF1XP60V9","A2WAADBO0ZF89K","37SDSEDIN9ORHL92Y0GV7TIFJ2X187","","null","<img src=""img/food6.png"" style=""width:200px;border:14px solid red;"">","null","","","","","","","","","",""
"","image-keyboard-response","232","76712","0.0-320.0","3AUQQEL7U6FR7SIR1CS7ALF1XP60V9","A2WAADBO0ZF89K","37SDSEDIN9ORHL92Y0GV7TIFJ2X187","","27","img/food4.png","74","27","1","0","","2","1","1,0.5,0,1,0.5,0,0.5,0,1","0,1,0.5,0,1,0.5,1,0.5,0","3",""
"","html-keyboard-response","233","77014","0.0-321.0","3AUQQEL7U6FR7SIR1CS7ALF1XP60V9","A2WAADBO0ZF89K","37SDSEDIN9ORHL92Y0GV7TIFJ2X187","","null","<img src=""img/food4.png"" style=""width:200px;border:14px solid red;"">","null","","","","","","","","","",""
"","image-keyboard-response","234","77073","0.0-322.0","3AUQQEL7U6FR7SIR1CS7ALF1XP60V9","A2WAADBO0ZF89K","37SDSEDIN9ORHL92Y0GV7TIFJ2X187","","59","img/food6.png","74","59","1","0","","1","1","1,0.5,0,1,0.5,0,0.5,0,1","0,1,0.5,0,1,0.5,1,0.5,0","3",""
"","html-keyboard-response","235","77375","0.0-323.0","3AUQQEL7U6FR7SIR1CS7ALF1XP60V9","A2WAADBO0ZF89K","37SDSEDIN9ORHL92Y0GV7TIFJ2X187","","null","<img src=""img/food6.png"" style=""width:200px;border:14px solid red;"">","null","","","","","","","","","",""
"","image-keyboard-response","236","77392","0.0-324.0","3AUQQEL7U6FR7SIR1CS7ALF1XP60V9","A2WAADBO0ZF89K","37SDSEDIN9ORHL92Y0GV7TIFJ2X187","","16","img/food4.png","75","17","2","1","","2","1","1,0.5,0,1,0.5,0,0.5,0,1","0,1,0.5,0,1,0.5,1,0.5,0","3",""
"","html-keyboard-response","237","77694","0.0-325.0","3AUQQEL7U6FR7SIR1CS7ALF1XP60V9","A2WAADBO0ZF89K","37SDSEDIN9ORHL92Y0GV7TIFJ2X187","","null","<img src=""img/food4.png"" style=""width:200px; border:14px solid green;"">","null","","","","","","","","","",""
"","image-keyboard-response","238","77751","0.0-326.0","3AUQQEL7U6FR7SIR1CS7ALF1XP60V9","A2WAADBO0ZF89K","37SDSEDIN9ORHL92Y0GV7TIFJ2X187","","57","img/food6.png","75","57","2","1","","1","1","1,0.5,0,1,0.5,0,0.5,0,1","0,1,0.5,0,1,0.5,1,0.5,0","3",""
"","html-keyboard-response","239","78052","0.0-327.0","3AUQQEL7U6FR7SIR1CS7ALF1XP60V9","A2WAADBO0ZF89K","37SDSEDIN9ORHL92Y0GV7TIFJ2X187","","null","<img src=""img/food6.png"" style=""width:200px; border:14px solid green;"">","null","","","","","","","","","",""
"","image-keyboard-response","240","78275","0.0-328.0","3AUQQEL7U6FR7SIR1CS7ALF1XP60V9","A2WAADBO0ZF89K","37SDSEDIN9ORHL92Y0GV7TIFJ2X187","","223","img/food6.png","76","223","3","1","","1","1","1,0.5,0,1,0.5,0,0.5,0,1","0,1,0.5,0,1,0.5,1,0.5,0","3",""
"","html-keyboard-response","241","78576","0.0-329.0","3AUQQEL7U6FR7SIR1CS7ALF1XP60V9","A2WAADBO0ZF89K","37SDSEDIN9ORHL92Y0GV7TIFJ2X187","","null","<img src=""img/food6.png"" style=""width:200px; border:14px solid green;"">","null","","","","","","","","","",""
"","image-keyboard-response","242","78650","0.0-330.0","3AUQQEL7U6FR7SIR1CS7ALF1XP60V9","A2WAADBO0ZF89K","37SDSEDIN9ORHL92Y0GV7TIFJ2X187","","74","img/food6.png","75","74","2","1","","1","1","1,0.5,0,1,0.5,0,0.5,0,1","0,1,0.5,0,1,0.5,1,0.5,0","3",""
"","html-keyboard-response","243","78952","0.0-331.0","3AUQQEL7U6FR7SIR1CS7ALF1XP60V9","A2WAADBO0ZF89K","37SDSEDIN9ORHL92Y0GV7TIFJ2X187","","null","<img src=""img/food6.png"" style=""width:200px; border:14px solid green;"">","null","","","","","","","","","",""
"","image-keyboard-response","244","78984","0.0-332.0","3AUQQEL7U6FR7SIR1CS7ALF1XP60V9","A2WAADBO0ZF89K","37SDSEDIN9ORHL92Y0GV7TIFJ2X187","","32","img/food4.png","74","32","1","0","","2","1","1,0.5,0,1,0.5,0,0.5,0,1","0,1,0.5,0,1,0.5,1,0.5,0","3",""
"","html-keyboard-response","245","79285","0.0-333.0","3AUQQEL7U6FR7SIR1CS7ALF1XP60V9","A2WAADBO0ZF89K","37SDSEDIN9ORHL92Y0GV7TIFJ2X187","","null","<img src=""img/food4.png"" style=""width:200px;border:14px solid red;"">","null","","","","","","","","","",""
"","image-keyboard-response","246","79447","0.0-334.0","3AUQQEL7U6FR7SIR1CS7ALF1XP60V9","A2WAADBO0ZF89K","37SDSEDIN9ORHL92Y0GV7TIFJ2X187","","161","img/food4.png","76","162","3","0","","2","1","1,0.5,0,1,0.5,0,0.5,0,1","0,1,0.5,0,1,0.5,1,0.5,0","3",""
"","html-keyboard-response","247","79748","0.0-335.0","3AUQQEL7U6FR7SIR1CS7ALF1XP60V9","A2WAADBO0ZF89K","37SDSEDIN9ORHL92Y0GV7TIFJ2X187","","null","<img src=""img/food4.png"" style=""width:200px;border:14px solid red;"">","null","","","","","","","","","",""
"","image-keyboard-response","248","79902","0.0-336.0","3AUQQEL7U6FR7SIR1CS7ALF1XP60V9","A2WAADBO0ZF89K","37SDSEDIN9ORHL92Y0GV7TIFJ2X187","","153","img/food2.png","76","155","3","0","","3","1","1,0.5,0,1,0.5,0,0.5,0,1","0,1,0.5,0,1,0.5,1,0.5,0","3",""
"","html-keyboard-response","249","80204","0.0-337.0","3AUQQEL7U6FR7SIR1CS7ALF1XP60V9","A2WAADBO0ZF89K","37SDSEDIN9ORHL92Y0GV7TIFJ2X187","","null","<img src=""img/food2.png"" style=""width:200px;border:14px solid red;"">","null","","","","","","","","","",""
"","image-keyboard-response","250","80342","0.0-338.0","3AUQQEL7U6FR7SIR1CS7ALF1XP60V9","A2WAADBO0ZF89K","37SDSEDIN9ORHL92Y0GV7TIFJ2X187","","137","img/food4.png","75","138","2","1","","2","1","1,0.5,0,1,0.5,0,0.5,0,1","0,1,0.5,0,1,0.5,1,0.5,0","3",""
"","html-keyboard-response","251","80643","0.0-339.0","3AUQQEL7U6FR7SIR1CS7ALF1XP60V9","A2WAADBO0ZF89K","37SDSEDIN9ORHL92Y0GV7TIFJ2X187","","null","<img src=""img/food4.png"" style=""width:200px; border:14px solid green;"">","null","","","","","","","","","",""
"","image-keyboard-response","252","80734","0.0-340.0","3AUQQEL7U6FR7SIR1CS7ALF1XP60V9","A2WAADBO0ZF89K","37SDSEDIN9ORHL92Y0GV7TIFJ2X187","","91","img/food4.png","76","91","3","0","","2","1","1,0.5,0,1,0.5,0,0.5,0,1","0,1,0.5,0,1,0.5,1,0.5,0","3",""
"","html-keyboard-response","253","81036","0.0-341.0","3AUQQEL7U6FR7SIR1CS7ALF1XP60V9","A2WAADBO0ZF89K","37SDSEDIN9ORHL92Y0GV7TIFJ2X187","","null","<img src=""img/food4.png"" style=""width:200px;border:14px solid red;"">","null","","","","","","","","","",""
"","image-keyboard-response","254","81081","0.0-342.0","3AUQQEL7U6FR7SIR1CS7ALF1XP60V9","A2WAADBO0ZF89K","37SDSEDIN9ORHL92Y0GV7TIFJ2X187","","45","img/food2.png","76","45","3","0","","3","1","1,0.5,0,1,0.5,0,0.5,0,1","0,1,0.5,0,1,0.5,1,0.5,0","3",""
"","html-keyboard-response","255","81382","0.0-343.0","3AUQQEL7U6FR7SIR1CS7ALF1XP60V9","A2WAADBO0ZF89K","37SDSEDIN9ORHL92Y0GV7TIFJ2X187","","null","<img src=""img/food2.png"" style=""width:200px;border:14px solid red;"">","null","","","","","","","","","",""
"","image-keyboard-response","256","81572","0.0-344.0","3AUQQEL7U6FR7SIR1CS7ALF1XP60V9","A2WAADBO0ZF89K","37SDSEDIN9ORHL92Y0GV7TIFJ2X187","","189","img/food2.png","76","190","3","0","","3","1","1,0.5,0,1,0.5,0,0.5,0,1","0,1,0.5,0,1,0.5,1,0.5,0","3",""
"","html-keyboard-response","257","81872","0.0-345.0","3AUQQEL7U6FR7SIR1CS7ALF1XP60V9","A2WAADBO0ZF89K","37SDSEDIN9ORHL92Y0GV7TIFJ2X187","","null","<img src=""img/food2.png"" style=""width:200px;border:14px solid red;"">","null","","","","","","","","","",""
"","image-keyboard-response","258","82033","0.0-346.0","3AUQQEL7U6FR7SIR1CS7ALF1XP60V9","A2WAADBO0ZF89K","37SDSEDIN9ORHL92Y0GV7TIFJ2X187","","161","img/food2.png","76","161","3","0","","3","1","1,0.5,0,1,0.5,0,0.5,0,1","0,1,0.5,0,1,0.5,1,0.5,0","3",""
"","html-keyboard-response","259","82340","0.0-347.0","3AUQQEL7U6FR7SIR1CS7ALF1XP60V9","A2WAADBO0ZF89K","37SDSEDIN9ORHL92Y0GV7TIFJ2X187","","null","<img src=""img/food2.png"" style=""width:200px;border:14px solid red;"">","null","","","","","","","","","",""
"","image-keyboard-response","260","82438","0.0-348.0","3AUQQEL7U6FR7SIR1CS7ALF1XP60V9","A2WAADBO0ZF89K","37SDSEDIN9ORHL92Y0GV7TIFJ2X187","","97","img/food4.png","76","97","3","1","","2","1","1,0.5,0,1,0.5,0,0.5,0,1","0,1,0.5,0,1,0.5,1,0.5,0","3",""
"","html-keyboard-response","261","82740","0.0-349.0","3AUQQEL7U6FR7SIR1CS7ALF1XP60V9","A2WAADBO0ZF89K","37SDSEDIN9ORHL92Y0GV7TIFJ2X187","","null","<img src=""img/food4.png"" style=""width:200px; border:14px solid green;"">","null","","","","","","","","","",""
"","image-keyboard-response","262","82790","0.0-350.0","3AUQQEL7U6FR7SIR1CS7ALF1XP60V9","A2WAADBO0ZF89K","37SDSEDIN9ORHL92Y0GV7TIFJ2X187","","49","img/food4.png","76","50","3","0","","2","1","1,0.5,0,1,0.5,0,0.5,0,1","0,1,0.5,0,1,0.5,1,0.5,0","3",""
"","html-keyboard-response","263","83091","0.0-351.0","3AUQQEL7U6FR7SIR1CS7ALF1XP60V9","A2WAADBO0ZF89K","37SDSEDIN9ORHL92Y0GV7TIFJ2X187","","null","<img src=""img/food4.png"" style=""width:200px;border:14px solid red;"">","null","","","","","","","","","",""
"","image-keyboard-response","264","83125","0.0-352.0","3AUQQEL7U6FR7SIR1CS7ALF1XP60V9","A2WAADBO0ZF89K","37SDSEDIN9ORHL92Y0GV7TIFJ2X187","","34","img/food6.png","76","34","3","1","","1","1","1,0.5,0,1,0.5,0,0.5,0,1","0,1,0.5,0,1,0.5,1,0.5,0","3",""
"","html-keyboard-response","265","83427","0.0-353.0","3AUQQEL7U6FR7SIR1CS7ALF1XP60V9","A2WAADBO0ZF89K","37SDSEDIN9ORHL92Y0GV7TIFJ2X187","","null","<img src=""img/food6.png"" style=""width:200px; border:14px solid green;"">","null","","","","","","","","","",""
"","image-keyboard-response","266","83505","0.0-354.0","3AUQQEL7U6FR7SIR1CS7ALF1XP60V9","A2WAADBO0ZF89K","37SDSEDIN9ORHL92Y0GV7TIFJ2X187","","77","img/food6.png","76","78","3","0","","1","1","1,0.5,0,1,0.5,0,0.5,0,1","0,1,0.5,0,1,0.5,1,0.5,0","3",""
"","html-keyboard-response","267","83808","0.0-355.0","3AUQQEL7U6FR7SIR1CS7ALF1XP60V9","A2WAADBO0ZF89K","37SDSEDIN9ORHL92Y0GV7TIFJ2X187","","null","<img src=""img/food6.png"" style=""width:200px;border:14px solid red;"">","null","","","","","","","","","",""
"","image-keyboard-response","268","84138","0.0-356.0","3AUQQEL7U6FR7SIR1CS7ALF1XP60V9","A2WAADBO0ZF89K","37SDSEDIN9ORHL92Y0GV7TIFJ2X187","","330","img/food4.png","76","330","3","0","","2","1","1,0.5,0,1,0.5,0,0.5,0,1","0,1,0.5,0,1,0.5,1,0.5,0","3",""
"","html-keyboard-response","269","84440","0.0-357.0","3AUQQEL7U6FR7SIR1CS7ALF1XP60V9","A2WAADBO0ZF89K","37SDSEDIN9ORHL92Y0GV7TIFJ2X187","","null","<img src=""img/food4.png"" style=""width:200px;border:14px solid red;"">","null","","","","","","","","","",""
"","image-keyboard-response","270","84505","0.0-358.0","3AUQQEL7U6FR7SIR1CS7ALF1XP60V9","A2WAADBO0ZF89K","37SDSEDIN9ORHL92Y0GV7TIFJ2X187","","65","img/food4.png","74","65","1","0","","2","1","1,0.5,0,1,0.5,0,0.5,0,1","0,1,0.5,0,1,0.5,1,0.5,0","3",""
"","html-keyboard-response","271","84807","0.0-359.0","3AUQQEL7U6FR7SIR1CS7ALF1XP60V9","A2WAADBO0ZF89K","37SDSEDIN9ORHL92Y0GV7TIFJ2X187","","null","<img src=""img/food4.png"" style=""width:200px;border:14px solid red;"">","null","","","","","","","","","",""
"","image-keyboard-response","272","84873","0.0-360.0","3AUQQEL7U6FR7SIR1CS7ALF1XP60V9","A2WAADBO0ZF89K","37SDSEDIN9ORHL92Y0GV7TIFJ2X187","","65","img/food6.png","76","66","3","0","","1","1","1,0.5,0,1,0.5,0,0.5,0,1","0,1,0.5,0,1,0.5,1,0.5,0","3",""
"","html-keyboard-response","273","85174","0.0-361.0","3AUQQEL7U6FR7SIR1CS7ALF1XP60V9","A2WAADBO0ZF89K","37SDSEDIN9ORHL92Y0GV7TIFJ2X187","","null","<img src=""img/food6.png"" style=""width:200px;border:14px solid red;"">","null","","","","","","","","","",""
"","image-keyboard-response","274","85194","0.0-362.0","3AUQQEL7U6FR7SIR1CS7ALF1XP60V9","A2WAADBO0ZF89K","37SDSEDIN9ORHL92Y0GV7TIFJ2X187","","19","img/food6.png","75","20","2","1","","1","1","1,0.5,0,1,0.5,0,0.5,0,1","0,1,0.5,0,1,0.5,1,0.5,0","3",""
"","html-keyboard-response","275","85496","0.0-363.0","3AUQQEL7U6FR7SIR1CS7ALF1XP60V9","A2WAADBO0ZF89K","37SDSEDIN9ORHL92Y0GV7TIFJ2X187","","null","<img src=""img/food6.png"" style=""width:200px; border:14px solid green;"">","null","","","","","","","","","",""
"","image-keyboard-response","276","85613","0.0-364.0","3AUQQEL7U6FR7SIR1CS7ALF1XP60V9","A2WAADBO0ZF89K","37SDSEDIN9ORHL92Y0GV7TIFJ2X187","","115","img/food2.png","74","117","1","1","","3","1","1,0.5,0,1,0.5,0,0.5,0,1","0,1,0.5,0,1,0.5,1,0.5,0","3",""
"","html-keyboard-response","277","85915","0.0-365.0","3AUQQEL7U6FR7SIR1CS7ALF1XP60V9","A2WAADBO0ZF89K","37SDSEDIN9ORHL92Y0GV7TIFJ2X187","","null","<img src=""img/food2.png"" style=""width:200px; border:14px solid green;"">","null","","","","","","","","","",""
"","image-keyboard-response","278","86149","0.0-366.0","3AUQQEL7U6FR7SIR1CS7ALF1XP60V9","A2WAADBO0ZF89K","37SDSEDIN9ORHL92Y0GV7TIFJ2X187","","234","img/food2.png","76","234","3","0","","3","1","1,0.5,0,1,0.5,0,0.5,0,1","0,1,0.5,0,1,0.5,1,0.5,0","3",""
"","html-keyboard-response","279","86450","0.0-367.0","3AUQQEL7U6FR7SIR1CS7ALF1XP60V9","A2WAADBO0ZF89K","37SDSEDIN9ORHL92Y0GV7TIFJ2X187","","null","<img src=""img/food2.png"" style=""width:200px;border:14px solid red;"">","null","","","","","","","","","",""
"","image-keyboard-response","280","86487","0.0-368.0","3AUQQEL7U6FR7SIR1CS7ALF1XP60V9","A2WAADBO0ZF89K","37SDSEDIN9ORHL92Y0GV7TIFJ2X187","","35","img/food4.png","76","37","3","1","","2","1","1,0.5,0,1,0.5,0,0.5,0,1","0,1,0.5,0,1,0.5,1,0.5,0","3",""
"","html-keyboard-response","281","86788","0.0-369.0","3AUQQEL7U6FR7SIR1CS7ALF1XP60V9","A2WAADBO0ZF89K","37SDSEDIN9ORHL92Y0GV7TIFJ2X187","","null","<img src=""img/food4.png"" style=""width:200px; border:14px solid green;"">","null","","","","","","","","","",""
"","image-keyboard-response","282","86961","0.0-370.0","3AUQQEL7U6FR7SIR1CS7ALF1XP60V9","A2WAADBO0ZF89K","37SDSEDIN9ORHL92Y0GV7TIFJ2X187","","172","img/food2.png","75","173","2","0","","3","1","1,0.5,0,1,0.5,0,0.5,0,1","0,1,0.5,0,1,0.5,1,0.5,0","3",""
"","html-keyboard-response","283","87263","0.0-371.0","3AUQQEL7U6FR7SIR1CS7ALF1XP60V9","A2WAADBO0ZF89K","37SDSEDIN9ORHL92Y0GV7TIFJ2X187","","null","<img src=""img/food2.png"" style=""width:200px;border:14px solid red;"">","null","","","","","","","","","",""
"","image-keyboard-response","284","87374","0.0-372.0","3AUQQEL7U6FR7SIR1CS7ALF1XP60V9","A2WAADBO0ZF89K","37SDSEDIN9ORHL92Y0GV7TIFJ2X187","","111","img/food4.png","76","111","3","0","","2","1","1,0.5,0,1,0.5,0,0.5,0,1","0,1,0.5,0,1,0.5,1,0.5,0","3",""
"","html-keyboard-response","285","87675","0.0-373.0","3AUQQEL7U6FR7SIR1CS7ALF1XP60V9","A2WAADBO0ZF89K","37SDSEDIN9ORHL92Y0GV7TIFJ2X187","","null","<img src=""img/food4.png"" style=""width:200px;border:14px solid red;"">","null","","","","","","","","","",""
"","image-keyboard-response","286","87892","0.0-374.0","3AUQQEL7U6FR7SIR1CS7ALF1XP60V9","A2WAADBO0ZF89K","37SDSEDIN9ORHL92Y0GV7TIFJ2X187","","216","img/food2.png","75","217","2","0","","3","1","1,0.5,0,1,0.5,0,0.5,0,1","0,1,0.5,0,1,0.5,1,0.5,0","3",""
"","html-keyboard-response","287","88193","0.0-375.0","3AUQQEL7U6FR7SIR1CS7ALF1XP60V9","A2WAADBO0ZF89K","37SDSEDIN9ORHL92Y0GV7TIFJ2X187","","null","<img src=""img/food2.png"" style=""width:200px;border:14px solid red;"">","null","","","","","","","","","",""
"","image-keyboard-response","288","88410","0.0-376.0","3AUQQEL7U6FR7SIR1CS7ALF1XP60V9","A2WAADBO0ZF89K","37SDSEDIN9ORHL92Y0GV7TIFJ2X187","","216","img/food2.png","75","218","2","1","","3","1","1,0.5,0,1,0.5,0,0.5,0,1","0,1,0.5,0,1,0.5,1,0.5,0","3",""
"","html-keyboard-response","289","88712","0.0-377.0","3AUQQEL7U6FR7SIR1CS7ALF1XP60V9","A2WAADBO0ZF89K","37SDSEDIN9ORHL92Y0GV7TIFJ2X187","","null","<img src=""img/food2.png"" style=""width:200px; border:14px solid green;"">","null","","","","","","","","","",""
"","image-keyboard-response","290","88989","0.0-378.0","3AUQQEL7U6FR7SIR1CS7ALF1XP60V9","A2WAADBO0ZF89K","37SDSEDIN9ORHL92Y0GV7TIFJ2X187","","276","img/food4.png","75","277","2","1","","2","1","1,0.5,0,1,0.5,0,0.5,0,1","0,1,0.5,0,1,0.5,1,0.5,0","3",""
"","html-keyboard-response","291","89290","0.0-379.0","3AUQQEL7U6FR7SIR1CS7ALF1XP60V9","A2WAADBO0ZF89K","37SDSEDIN9ORHL92Y0GV7TIFJ2X187","","null","<img src=""img/food4.png"" style=""width:200px; border:14px solid green;"">","null","","","","","","","","","",""
"","image-keyboard-response","292","89341","0.0-380.0","3AUQQEL7U6FR7SIR1CS7ALF1XP60V9","A2WAADBO0ZF89K","37SDSEDIN9ORHL92Y0GV7TIFJ2X187","","51","img/food6.png","75","51","2","1","","1","1","1,0.5,0,1,0.5,0,0.5,0,1","0,1,0.5,0,1,0.5,1,0.5,0","3",""
"","html-keyboard-response","293","89643","0.0-381.0","3AUQQEL7U6FR7SIR1CS7ALF1XP60V9","A2WAADBO0ZF89K","37SDSEDIN9ORHL92Y0GV7TIFJ2X187","","null","<img src=""img/food6.png"" style=""width:200px; border:14px solid green;"">","null","","","","","","","","","",""
"","image-keyboard-response","294","89715","0.0-382.0","3AUQQEL7U6FR7SIR1CS7ALF1XP60V9","A2WAADBO0ZF89K","37SDSEDIN9ORHL92Y0GV7TIFJ2X187","","71","img/food6.png","74","72","1","0","","1","1","1,0.5,0,1,0.5,0,0.5,0,1","0,1,0.5,0,1,0.5,1,0.5,0","3",""
"","html-keyboard-response","295","90017","0.0-383.0","3AUQQEL7U6FR7SIR1CS7ALF1XP60V9","A2WAADBO0ZF89K","37SDSEDIN9ORHL92Y0GV7TIFJ2X187","","null","<img src=""img/food6.png"" style=""width:200px;border:14px solid red;"">","null","","","","","","","","","",""
"","image-keyboard-response","296","90189","0.0-384.0","3AUQQEL7U6FR7SIR1CS7ALF1XP60V9","A2WAADBO0ZF89K","37SDSEDIN9ORHL92Y0GV7TIFJ2X187","","171","img/food2.png","74","171","1","1","","3","1","1,0.5,0,1,0.5,0,0.5,0,1","0,1,0.5,0,1,0.5,1,0.5,0","3",""
"","html-keyboard-response","297","90490","0.0-385.0","3AUQQEL7U6FR7SIR1CS7ALF1XP60V9","A2WAADBO0ZF89K","37SDSEDIN9ORHL92Y0GV7TIFJ2X187","","null","<img src=""img/food2.png"" style=""width:200px; border:14px solid green;"">","null","","","","","","","","","",""
"","image-keyboard-response","298","90501","0.0-386.0","3AUQQEL7U6FR7SIR1CS7ALF1XP60V9","A2WAADBO0ZF89K","37SDSEDIN9ORHL92Y0GV7TIFJ2X187","","10","img/food4.png","74","10","1","0","","2","1","1,0.5,0,1,0.5,0,0.5,0,1","0,1,0.5,0,1,0.5,1,0.5,0","3",""
"","html-keyboard-response","299","90802","0.0-387.0","3AUQQEL7U6FR7SIR1CS7ALF1XP60V9","A2WAADBO0ZF89K","37SDSEDIN9ORHL92Y0GV7TIFJ2X187","","null","<img src=""img/food4.png"" style=""width:200px;border:14px solid red;"">","null","","","","","","","","","",""
"","image-keyboard-response","300","90912","0.0-388.0","3AUQQEL7U6FR7SIR1CS7ALF1XP60V9","A2WAADBO0ZF89K","37SDSEDIN9ORHL92Y0GV7TIFJ2X187","","110","img/food6.png","75","110","2","1","","1","1","1,0.5,0,1,0.5,0,0.5,0,1","0,1,0.5,0,1,0.5,1,0.5,0","3",""
"","html-keyboard-response","301","91213","0.0-389.0","3AUQQEL7U6FR7SIR1CS7ALF1XP60V9","A2WAADBO0ZF89K","37SDSEDIN9ORHL92Y0GV7TIFJ2X187","","null","<img src=""img/food6.png"" style=""width:200px; border:14px solid green;"">","null","","","","","","","","","",""
"","image-keyboard-response","302","91241","0.0-390.0","3AUQQEL7U6FR7SIR1CS7ALF1XP60V9","A2WAADBO0ZF89K","37SDSEDIN9ORHL92Y0GV7TIFJ2X187","","28","img/food6.png","75","28","2","1","","1","1","1,0.5,0,1,0.5,0,0.5,0,1","0,1,0.5,0,1,0.5,1,0.5,0","3",""
"","html-keyboard-response","303","91542","0.0-391.0","3AUQQEL7U6FR7SIR1CS7ALF1XP60V9","A2WAADBO0ZF89K","37SDSEDIN9ORHL92Y0GV7TIFJ2X187","","null","<img src=""img/food6.png"" style=""width:200px; border:14px solid green;"">","null","","","","","","","","","",""
"","image-keyboard-response","304","91750","0.0-392.0","3AUQQEL7U6FR7SIR1CS7ALF1XP60V9","A2WAADBO0ZF89K","37SDSEDIN9ORHL92Y0GV7TIFJ2X187","","207","img/food6.png","75","208","2","1","","1","1","1,0.5,0,1,0.5,0,0.5,0,1","0,1,0.5,0,1,0.5,1,0.5,0","3",""
"","html-keyboard-response","305","92052","0.0-393.0","3AUQQEL7U6FR7SIR1CS7ALF1XP60V9","A2WAADBO0ZF89K","37SDSEDIN9ORHL92Y0GV7TIFJ2X187","","null","<img src=""img/food6.png"" style=""width:200px; border:14px solid green;"">","null","","","","","","","","","",""
"","image-keyboard-response","306","92262","0.0-394.0","3AUQQEL7U6FR7SIR1CS7ALF1XP60V9","A2WAADBO0ZF89K","37SDSEDIN9ORHL92Y0GV7TIFJ2X187","","209","img/food4.png","75","209","2","1","","2","1","1,0.5,0,1,0.5,0,0.5,0,1","0,1,0.5,0,1,0.5,1,0.5,0","3",""
"","html-keyboard-response","307","92563","0.0-395.0","3AUQQEL7U6FR7SIR1CS7ALF1XP60V9","A2WAADBO0ZF89K","37SDSEDIN9ORHL92Y0GV7TIFJ2X187","","null","<img src=""img/food4.png"" style=""width:200px; border:14px solid green;"">","null","","","","","","","","","",""
"","image-keyboard-response","308","92653","0.0-396.0","3AUQQEL7U6FR7SIR1CS7ALF1XP60V9","A2WAADBO0ZF89K","37SDSEDIN9ORHL92Y0GV7TIFJ2X187","","89","img/food6.png","76","90","3","0","","1","1","1,0.5,0,1,0.5,0,0.5,0,1","0,1,0.5,0,1,0.5,1,0.5,0","3",""
"","html-keyboard-response","309","92955","0.0-397.0","3AUQQEL7U6FR7SIR1CS7ALF1XP60V9","A2WAADBO0ZF89K","37SDSEDIN9ORHL92Y0GV7TIFJ2X187","","null","<img src=""img/food6.png"" style=""width:200px;border:14px solid red;"">","null","","","","","","","","","",""
"","image-keyboard-response","310","92987","0.0-398.0","3AUQQEL7U6FR7SIR1CS7ALF1XP60V9","A2WAADBO0ZF89K","37SDSEDIN9ORHL92Y0GV7TIFJ2X187","","31","img/food2.png","76","31","3","0","","3","1","1,0.5,0,1,0.5,0,0.5,0,1","0,1,0.5,0,1,0.5,1,0.5,0","3",""
"","html-keyboard-response","311","93289","0.0-399.0","3AUQQEL7U6FR7SIR1CS7ALF1XP60V9","A2WAADBO0ZF89K","37SDSEDIN9ORHL92Y0GV7TIFJ2X187","","null","<img src=""img/food2.png"" style=""width:200px;border:14px solid red;"">","null","","","","","","","","","",""
"","image-keyboard-response","312","93488","0.0-400.0","3AUQQEL7U6FR7SIR1CS7ALF1XP60V9","A2WAADBO0ZF89K","37SDSEDIN9ORHL92Y0GV7TIFJ2X187","","199","img/food2.png","75","199","2","0","","3","1","1,0.5,0,1,0.5,0,0.5,0,1","0,1,0.5,0,1,0.5,1,0.5,0","3",""
"","html-keyboard-response","313","93789","0.0-401.0","3AUQQEL7U6FR7SIR1CS7ALF1XP60V9","A2WAADBO0ZF89K","37SDSEDIN9ORHL92Y0GV7TIFJ2X187","","null","<img src=""img/food2.png"" style=""width:200px;border:14px solid red;"">","null","","","","","","","","","",""
"","image-keyboard-response","314","93968","0.0-402.0","3AUQQEL7U6FR7SIR1CS7ALF1XP60V9","A2WAADBO0ZF89K","37SDSEDIN9ORHL92Y0GV7TIFJ2X187","","177","img/food2.png","76","179","3","0","","3","1","1,0.5,0,1,0.5,0,0.5,0,1","0,1,0.5,0,1,0.5,1,0.5,0","3",""
"","html-keyboard-response","315","94269","0.0-403.0","3AUQQEL7U6FR7SIR1CS7ALF1XP60V9","A2WAADBO0ZF89K","37SDSEDIN9ORHL92Y0GV7TIFJ2X187","","null","<img src=""img/food2.png"" style=""width:200px;border:14px solid red;"">","null","","","","","","","","","",""
"","image-keyboard-response","316","94480","0.0-404.0","3AUQQEL7U6FR7SIR1CS7ALF1XP60V9","A2WAADBO0ZF89K","37SDSEDIN9ORHL92Y0GV7TIFJ2X187","","210","img/food2.png","75","211","2","0","","3","1","1,0.5,0,1,0.5,0,0.5,0,1","0,1,0.5,0,1,0.5,1,0.5,0","3",""
"","html-keyboard-response","317","94782","0.0-405.0","3AUQQEL7U6FR7SIR1CS7ALF1XP60V9","A2WAADBO0ZF89K","37SDSEDIN9ORHL92Y0GV7TIFJ2X187","","null","<img src=""img/food2.png"" style=""width:200px;border:14px solid red;"">","null","","","","","","","","","",""
"","image-keyboard-response","318","94804","0.0-406.0","3AUQQEL7U6FR7SIR1CS7ALF1XP60V9","A2WAADBO0ZF89K","37SDSEDIN9ORHL92Y0GV7TIFJ2X187","","21","img/food2.png","76","22","3","0","","3","1","1,0.5,0,1,0.5,0,0.5,0,1","0,1,0.5,0,1,0.5,1,0.5,0","3",""
"","html-keyboard-response","319","95106","0.0-407.0","3AUQQEL7U6FR7SIR1CS7ALF1XP60V9","A2WAADBO0ZF89K","37SDSEDIN9ORHL92Y0GV7TIFJ2X187","","null","<img src=""img/food2.png"" style=""width:200px;border:14px solid red;"">","null","","","","","","","","","",""
"","image-keyboard-response","320","95303","0.0-408.0","3AUQQEL7U6FR7SIR1CS7ALF1XP60V9","A2WAADBO0ZF89K","37SDSEDIN9ORHL92Y0GV7TIFJ2X187","","196","img/food2.png","75","197","2","0","","3","1","1,0.5,0,1,0.5,0,0.5,0,1","0,1,0.5,0,1,0.5,1,0.5,0","3",""
"","html-keyboard-response","321","95606","0.0-409.0","3AUQQEL7U6FR7SIR1CS7ALF1XP60V9","A2WAADBO0ZF89K","37SDSEDIN9ORHL92Y0GV7TIFJ2X187","","null","<img src=""img/food2.png"" style=""width:200px;border:14px solid red;"">","null","","","","","","","","","",""
"","image-keyboard-response","322","95781","0.0-410.0","3AUQQEL7U6FR7SIR1CS7ALF1XP60V9","A2WAADBO0ZF89K","37SDSEDIN9ORHL92Y0GV7TIFJ2X187","","173","img/food2.png","76","175","3","0","","3","1","1,0.5,0,1,0.5,0,0.5,0,1","0,1,0.5,0,1,0.5,1,0.5,0","3",""
"","html-keyboard-response","323","96081","0.0-411.0","3AUQQEL7U6FR7SIR1CS7ALF1XP60V9","A2WAADBO0ZF89K","37SDSEDIN9ORHL92Y0GV7TIFJ2X187","","null","<img src=""img/food2.png"" style=""width:200px;border:14px solid red;"">","null","","","","","","","","","",""
"","image-keyboard-response","324","96272","0.0-412.0","3AUQQEL7U6FR7SIR1CS7ALF1XP60V9","A2WAADBO0ZF89K","37SDSEDIN9ORHL92Y0GV7TIFJ2X187","","191","img/food4.png","75","191","2","1","","2","1","1,0.5,0,1,0.5,0,0.5,0,1","0,1,0.5,0,1,0.5,1,0.5,0","3",""
"","html-keyboard-response","325","96574","0.0-413.0","3AUQQEL7U6FR7SIR1CS7ALF1XP60V9","A2WAADBO0ZF89K","37SDSEDIN9ORHL92Y0GV7TIFJ2X187","","null","<img src=""img/food4.png"" style=""width:200px; border:14px solid green;"">","null","","","","","","","","","",""
"","image-keyboard-response","326","96801","0.0-414.0","3AUQQEL7U6FR7SIR1CS7ALF1XP60V9","A2WAADBO0ZF89K","37SDSEDIN9ORHL92Y0GV7TIFJ2X187","","227","img/food6.png","76","228","3","1","","1","1","1,0.5,0,1,0.5,0,0.5,0,1","0,1,0.5,0,1,0.5,1,0.5,0","3",""
"","html-keyboard-response","327","97102","0.0-415.0","3AUQQEL7U6FR7SIR1CS7ALF1XP60V9","A2WAADBO0ZF89K","37SDSEDIN9ORHL92Y0GV7TIFJ2X187","","null","<img src=""img/food6.png"" style=""width:200px; border:14px solid green;"">","null","","","","","","","","","",""
"","image-keyboard-response","328","97333","0.0-416.0","3AUQQEL7U6FR7SIR1CS7ALF1XP60V9","A2WAADBO0ZF89K","37SDSEDIN9ORHL92Y0GV7TIFJ2X187","","231","img/food4.png","76","231","3","0","","2","1","1,0.5,0,1,0.5,0,0.5,0,1","0,1,0.5,0,1,0.5,1,0.5,0","3",""
"","html-keyboard-response","329","97634","0.0-417.0","3AUQQEL7U6FR7SIR1CS7ALF1XP60V9","A2WAADBO0ZF89K","37SDSEDIN9ORHL92Y0GV7TIFJ2X187","","null","<img src=""img/food4.png"" style=""width:200px;border:14px solid red;"">","null","","","","","","","","","",""
"","image-keyboard-response","330","97764","0.0-418.0","3AUQQEL7U6FR7SIR1CS7ALF1XP60V9","A2WAADBO0ZF89K","37SDSEDIN9ORHL92Y0GV7TIFJ2X187","","129","img/food6.png","76","131","3","1","","1","1","1,0.5,0,1,0.5,0,0.5,0,1","0,1,0.5,0,1,0.5,1,0.5,0","3",""
"","html-keyboard-response","331","98065","0.0-419.0","3AUQQEL7U6FR7SIR1CS7ALF1XP60V9","A2WAADBO0ZF89K","37SDSEDIN9ORHL92Y0GV7TIFJ2X187","","null","<img src=""img/food6.png"" style=""width:200px; border:14px solid green;"">","null","","","","","","","","","",""
"","image-keyboard-response","332","98233","0.0-420.0","3AUQQEL7U6FR7SIR1CS7ALF1XP60V9","A2WAADBO0ZF89K","37SDSEDIN9ORHL92Y0GV7TIFJ2X187","","167","img/food2.png","75","169","2","1","","3","1","1,0.5,0,1,0.5,0,0.5,0,1","0,1,0.5,0,1,0.5,1,0.5,0","3",""
"","html-keyboard-response","333","98534","0.0-421.0","3AUQQEL7U6FR7SIR1CS7ALF1XP60V9","A2WAADBO0ZF89K","37SDSEDIN9ORHL92Y0GV7TIFJ2X187","","null","<img src=""img/food2.png"" style=""width:200px; border:14px solid green;"">","null","","","","","","","","","",""
"","image-keyboard-response","334","98642","0.0-422.0","3AUQQEL7U6FR7SIR1CS7ALF1XP60V9","A2WAADBO0ZF89K","37SDSEDIN9ORHL92Y0GV7TIFJ2X187","","106","img/food4.png","76","108","3","1","","2","1","1,0.5,0,1,0.5,0,0.5,0,1","0,1,0.5,0,1,0.5,1,0.5,0","3",""
"","html-keyboard-response","335","98943","0.0-423.0","3AUQQEL7U6FR7SIR1CS7ALF1XP60V9","A2WAADBO0ZF89K","37SDSEDIN9ORHL92Y0GV7TIFJ2X187","","null","<img src=""img/food4.png"" style=""width:200px; border:14px solid green;"">","null","","","","","","","","","",""
"","image-keyboard-response","336","99184","0.0-424.0","3AUQQEL7U6FR7SIR1CS7ALF1XP60V9","A2WAADBO0ZF89K","37SDSEDIN9ORHL92Y0GV7TIFJ2X187","","241","img/food2.png","75","241","2","0","","3","1","1,0.5,0,1,0.5,0,0.5,0,1","0,1,0.5,0,1,0.5,1,0.5,0","3",""
"","html-keyboard-response","337","99485","0.0-425.0","3AUQQEL7U6FR7SIR1CS7ALF1XP60V9","A2WAADBO0ZF89K","37SDSEDIN9ORHL92Y0GV7TIFJ2X187","","null","<img src=""img/food2.png"" style=""width:200px;border:14px solid red;"">","null","","","","","","","","","",""
"","image-keyboard-response","338","99538","0.0-426.0","3AUQQEL7U6FR7SIR1CS7ALF1XP60V9","A2WAADBO0ZF89K","37SDSEDIN9ORHL92Y0GV7TIFJ2X187","","49","img/food2.png","74","52","1","1","","3","1","1,0.5,0,1,0.5,0,0.5,0,1","0,1,0.5,0,1,0.5,1,0.5,0","3",""
"","html-keyboard-response","339","99840","0.0-427.0","3AUQQEL7U6FR7SIR1CS7ALF1XP60V9","A2WAADBO0ZF89K","37SDSEDIN9ORHL92Y0GV7TIFJ2X187","","null","<img src=""img/food2.png"" style=""width:200px; border:14px solid green;"">","null","","","","","","","","","",""
"","image-keyboard-response","340","99862","0.0-428.0","3AUQQEL7U6FR7SIR1CS7ALF1XP60V9","A2WAADBO0ZF89K","37SDSEDIN9ORHL92Y0GV7TIFJ2X187","","21","img/food6.png","76","21","3","0","","1","1","1,0.5,0,1,0.5,0,0.5,0,1","0,1,0.5,0,1,0.5,1,0.5,0","3",""
"","html-keyboard-response","341","100163","0.0-429.0","3AUQQEL7U6FR7SIR1CS7ALF1XP60V9","A2WAADBO0ZF89K","37SDSEDIN9ORHL92Y0GV7TIFJ2X187","","null","<img src=""img/food6.png"" style=""width:200px;border:14px solid red;"">","null","","","","","","","","","",""
"","image-keyboard-response","342","100271","0.0-430.0","3AUQQEL7U6FR7SIR1CS7ALF1XP60V9","A2WAADBO0ZF89K","37SDSEDIN9ORHL92Y0GV7TIFJ2X187","","107","img/food6.png","76","108","3","1","","1","1","1,0.5,0,1,0.5,0,0.5,0,1","0,1,0.5,0,1,0.5,1,0.5,0","3",""
"","html-keyboard-response","343","100571","0.0-431.0","3AUQQEL7U6FR7SIR1CS7ALF1XP60V9","A2WAADBO0ZF89K","37SDSEDIN9ORHL92Y0GV7TIFJ2X187","","null","<img src=""img/food6.png"" style=""width:200px; border:14px solid green;"">","null","","","","","","","","","",""
"","image-keyboard-response","344","100799","0.0-432.0","3AUQQEL7U6FR7SIR1CS7ALF1XP60V9","A2WAADBO0ZF89K","37SDSEDIN9ORHL92Y0GV7TIFJ2X187","","228","img/food2.png","75","228","2","1","","3","1","1,0.5,0,1,0.5,0,0.5,0,1","0,1,0.5,0,1,0.5,1,0.5,0","3",""
"","html-keyboard-response","345","101101","0.0-433.0","3AUQQEL7U6FR7SIR1CS7ALF1XP60V9","A2WAADBO0ZF89K","37SDSEDIN9ORHL92Y0GV7TIFJ2X187","","null","<img src=""img/food2.png"" style=""width:200px; border:14px solid green;"">","null","","","","","","","","","",""
"","image-keyboard-response","346","101119","0.0-434.0","3AUQQEL7U6FR7SIR1CS7ALF1XP60V9","A2WAADBO0ZF89K","37SDSEDIN9ORHL92Y0GV7TIFJ2X187","","18","img/food4.png","76","18","3","1","","2","1","1,0.5,0,1,0.5,0,0.5,0,1","0,1,0.5,0,1,0.5,1,0.5,0","3",""
"","html-keyboard-response","347","101419","0.0-435.0","3AUQQEL7U6FR7SIR1CS7ALF1XP60V9","A2WAADBO0ZF89K","37SDSEDIN9ORHL92Y0GV7TIFJ2X187","","null","<img src=""img/food4.png"" style=""width:200px; border:14px solid green;"">","null","","","","","","","","","",""
"","image-keyboard-response","348","101701","0.0-436.0","3AUQQEL7U6FR7SIR1CS7ALF1XP60V9","A2WAADBO0ZF89K","37SDSEDIN9ORHL92Y0GV7TIFJ2X187","","281","img/food2.png","76","283","3","0","","3","1","1,0.5,0,1,0.5,0,0.5,0,1","0,1,0.5,0,1,0.5,1,0.5,0","3",""
"","html-keyboard-response","349","102003","0.0-437.0","3AUQQEL7U6FR7SIR1CS7ALF1XP60V9","A2WAADBO0ZF89K","37SDSEDIN9ORHL92Y0GV7TIFJ2X187","","null","<img src=""img/food2.png"" style=""width:200px;border:14px solid red;"">","null","","","","","","","","","",""
"","image-keyboard-response","350","102095","0.0-438.0","3AUQQEL7U6FR7SIR1CS7ALF1XP60V9","A2WAADBO0ZF89K","37SDSEDIN9ORHL92Y0GV7TIFJ2X187","","90","img/food2.png","75","92","2","0","","3","1","1,0.5,0,1,0.5,0,0.5,0,1","0,1,0.5,0,1,0.5,1,0.5,0","3",""
"","html-keyboard-response","351","102397","0.0-439.0","3AUQQEL7U6FR7SIR1CS7ALF1XP60V9","A2WAADBO0ZF89K","37SDSEDIN9ORHL92Y0GV7TIFJ2X187","","null","<img src=""img/food2.png"" style=""width:200px;border:14px solid red;"">","null","","","","","","","","","",""
"","image-keyboard-response","352","102401","0.0-440.0","3AUQQEL7U6FR7SIR1CS7ALF1XP60V9","A2WAADBO0ZF89K","37SDSEDIN9ORHL92Y0GV7TIFJ2X187","","3","img/food6.png","76","5","3","1","","1","1","1,0.5,0,1,0.5,0,0.5,0,1","0,1,0.5,0,1,0.5,1,0.5,0","3",""
"","html-keyboard-response","353","102703","0.0-441.0","3AUQQEL7U6FR7SIR1CS7ALF1XP60V9","A2WAADBO0ZF89K","37SDSEDIN9ORHL92Y0GV7TIFJ2X187","","null","<img src=""img/food6.png"" style=""width:200px; border:14px solid green;"">","null","","","","","","","","","",""
"","image-keyboard-response","354","102704","0.0-442.0","3AUQQEL7U6FR7SIR1CS7ALF1XP60V9","A2WAADBO0ZF89K","37SDSEDIN9ORHL92Y0GV7TIFJ2X187","","0","img/food4.png","76","1","3","1","","2","1","1,0.5,0,1,0.5,0,0.5,0,1","0,1,0.5,0,1,0.5,1,0.5,0","3",""
"","html-keyboard-response","355","103006","0.0-443.0","3AUQQEL7U6FR7SIR1CS7ALF1XP60V9","A2WAADBO0ZF89K","37SDSEDIN9ORHL92Y0GV7TIFJ2X187","","null","<img src=""img/food4.png"" style=""width:200px; border:14px solid green;"">","null","","","","","","","","","",""
"","image-keyboard-response","356","103013","0.0-444.0","3AUQQEL7U6FR7SIR1CS7ALF1XP60V9","A2WAADBO0ZF89K","37SDSEDIN9ORHL92Y0GV7TIFJ2X187","","7","img/food6.png","75","7","2","1","","1","1","1,0.5,0,1,0.5,0,0.5,0,1","0,1,0.5,0,1,0.5,1,0.5,0","3",""
"","html-keyboard-response","357","103314","0.0-445.0","3AUQQEL7U6FR7SIR1CS7ALF1XP60V9","A2WAADBO0ZF89K","37SDSEDIN9ORHL92Y0GV7TIFJ2X187","","null","<img src=""img/food6.png"" style=""width:200px; border:14px solid green;"">","null","","","","","","","","","",""
"","image-keyboard-response","358","103539","0.0-446.0","3AUQQEL7U6FR7SIR1CS7ALF1XP60V9","A2WAADBO0ZF89K","37SDSEDIN9ORHL92Y0GV7TIFJ2X187","","223","img/food4.png","75","225","2","1","","2","1","1,0.5,0,1,0.5,0,0.5,0,1","0,1,0.5,0,1,0.5,1,0.5,0","3",""
"","html-keyboard-response","359","103841","0.0-447.0","3AUQQEL7U6FR7SIR1CS7ALF1XP60V9","A2WAADBO0ZF89K","37SDSEDIN9ORHL92Y0GV7TIFJ2X187","","null","<img src=""img/food4.png"" style=""width:200px; border:14px solid green;"">","null","","","","","","","","","",""
"","image-keyboard-response","360","103905","0.0-448.0","3AUQQEL7U6FR7SIR1CS7ALF1XP60V9","A2WAADBO0ZF89K","37SDSEDIN9ORHL92Y0GV7TIFJ2X187","","63","img/food4.png","76","64","3","0","","2","1","1,0.5,0,1,0.5,0,0.5,0,1","0,1,0.5,0,1,0.5,1,0.5,0","3",""
"","html-keyboard-response","361","104206","0.0-449.0","3AUQQEL7U6FR7SIR1CS7ALF1XP60V9","A2WAADBO0ZF89K","37SDSEDIN9ORHL92Y0GV7TIFJ2X187","","null","<img src=""img/food4.png"" style=""width:200px;border:14px solid red;"">","null","","","","","","","","","",""
"","image-keyboard-response","362","104528","0.0-450.0","3AUQQEL7U6FR7SIR1CS7ALF1XP60V9","A2WAADBO0ZF89K","37SDSEDIN9ORHL92Y0GV7TIFJ2X187","","321","img/food6.png","76","322","3","0","","1","1","1,0.5,0,1,0.5,0,0.5,0,1","0,1,0.5,0,1,0.5,1,0.5,0","3",""
"","html-keyboard-response","363","104830","0.0-451.0","3AUQQEL7U6FR7SIR1CS7ALF1XP60V9","A2WAADBO0ZF89K","37SDSEDIN9ORHL92Y0GV7TIFJ2X187","","null","<img src=""img/food6.png"" style=""width:200px;border:14px solid red;"">","null","","","","","","","","","",""
"","image-keyboard-response","364","104836","0.0-452.0","3AUQQEL7U6FR7SIR1CS7ALF1XP60V9","A2WAADBO0ZF89K","37SDSEDIN9ORHL92Y0GV7TIFJ2X187","","4","img/food4.png","76","6","3","0","","2","1","1,0.5,0,1,0.5,0,0.5,0,1","0,1,0.5,0,1,0.5,1,0.5,0","3",""
"","html-keyboard-response","365","105137","0.0-453.0","3AUQQEL7U6FR7SIR1CS7ALF1XP60V9","A2WAADBO0ZF89K","37SDSEDIN9ORHL92Y0GV7TIFJ2X187","","null","<img src=""img/food4.png"" style=""width:200px;border:14px solid red;"">","null","","","","","","","","","",""
"","html-keyboard-response","366","107657","0.0-454.0","3AUQQEL7U6FR7SIR1CS7ALF1XP60V9","A2WAADBO0ZF89K","37SDSEDIN9ORHL92Y0GV7TIFJ2X187","","","","","","","","","","","","","",""
"","instructions","367","109720","0.0-455.0","3AUQQEL7U6FR7SIR1CS7ALF1XP60V9","A2WAADBO0ZF89K","37SDSEDIN9ORHL92Y0GV7TIFJ2X187","[{""page_index"":0,""viewing_time"":2061}]","2061","","","","","","","","","","","",""
"","survey-text","368","114138","0.0-456.0","3AUQQEL7U6FR7SIR1CS7ALF1XP60V9","A2WAADBO0ZF89K","37SDSEDIN9ORHL92Y0GV7TIFJ2X187","","4415","","","","","","","","","","","","{""Q0"":""A2WAADBO0ZF89K""}"
