"success","trial_type","trial_index","time_elapsed","internal_node_id","assignmentID","mturkID","hitID","view_history","rt","stimulus","key_press","reactionTime","a","r","warning","s","cond","reward_cond","reward_cond_actual","reward_matrix_idx","responses"
"true","fullscreen","0","3995","0.0-0.0","","","","","","","","","","","","","","","","",""
"","instructions","1","13144","0.0-1.0","","","","[{""page_index"":0,""viewing_time"":887.3000000119209},{""page_index"":1,""viewing_time"":1033.2999999970198},{""page_index"":2,""viewing_time"":954.3999999910593},{""page_index"":3,""viewing_time"":2900.1000000089407},{""page_index"":4,""viewing_time"":1081.8999999910593},{""page_index"":5,""viewing_time"":1231.800000011921},{""page_index"":6,""viewing_time"":1058.2999999970198}]","9147.40000000596","","","","","","","","","","","",""
"","instructions","2","16726","0.0-2.0","","","","[{""page_index"":0,""viewing_time"":2706.8999999910593},{""page_index"":1,""viewing_time"":874}]","3581.0999999940395","","","","","","","","","","","",""
"","image-keyboard-response","3","17255","0.0-3.0","","","","","527.7999999970198","img/food3.png","74","528.7000000029802","1","0","false","2","2","1,0.7,0,1,0.7,0,0.7,0,1","0.7,0,1,0.7,0,1,0,1,0.7","2",""
"","html-keyboard-response","4","17557","0.0-4.0","","","","","null","<img src=""img/food3.png"" style=""width:200px;border:14px solid red;"">","null","","","","","","","","","",""
"","image-keyboard-response","5","18564","0.0-6.0","","","","","","img/food4.png","","1006.2000000029802","-1","0","true","3","2","1,0.7,0,1,0.7,0,0.7,0,1","0.7,0,1,0.7,0,1,0,1,0.7","2",""
"","html-keyboard-response","6","18869","0.0-7.0","","","","","null","<img src=""img/food4.png"" style=""width:200px;border:14px solid red;"">","null","","","","","","","","","",""
"","html-keyboard-response","7","22664","0.0-8.0-0.0","","","","","","","","","","","","","","","","",""
"","image-keyboard-response","8","23495","0.0-9.0","","","","","829.7000000029802","img/food2.png","75","830.5","2","0","false","1","2","1,0.7,0,1,0.7,0,0.7,0,1","0.7,0,1,0.7,0,1,0,1,0.7","2",""
"","html-keyboard-response","9","23797","0.0-10.0","","","","","null","<img src=""img/food2.png"" style=""width:200px;border:14px solid red;"">","null","","","","","","","","","",""
"","image-keyboard-response","10","24801","0.0-12.0","","","","","","img/food3.png","","1004.2000000029802","-1","0","true","2","2","1,0.7,0,1,0.7,0,0.7,0,1","0.7,0,1,0.7,0,1,0,1,0.7","2",""
"","html-keyboard-response","11","25104","0.0-13.0","","","","","null","<img src=""img/food3.png"" style=""width:200px;border:14px solid red;"">","null","","","","","","","","","",""
"","html-keyboard-response","12","25822","0.0-14.0-0.0","","","","","","","","","","","","","","","","",""
"","image-keyboard-response","13","26415","0.0-15.0","","","","","591.9000000059605","img/food4.png","76","592.6999999880791","3","1","false","3","2","1,0.7,0,1,0.7,0,0.7,0,1","0.7,0,1,0.7,0,1,0,1,0.7","2",""
"","html-keyboard-response","14","26717","0.0-16.0","","","","","null","<img src=""img/food4.png"" style=""width:200px; border:14px solid green;"">","null","","","","","","","","","",""
"","image-keyboard-response","15","27551","0.0-18.0","","","","","833.2000000029802","img/food2.png","76","833.9000000059605","3","1","false","1","2","1,0.7,0,1,0.7,0,0.7,0,1","0.7,0,1,0.7,0,1,0,1,0.7","2",""
"","html-keyboard-response","16","27853","0.0-19.0","","","","","null","<img src=""img/food2.png"" style=""width:200px; border:14px solid green;"">","null","","","","","","","","","",""
"","image-keyboard-response","17","28319","0.0-21.0","","","","","465.1000000089407","img/food3.png","76","465.79999999701977","3","1","false","2","2","1,0.7,0,1,0.7,0,0.7,0,1","0.7,0,1,0.7,0,1,0,1,0.7","2",""
"","html-keyboard-response","18","28622","0.0-22.0","","","","","null","<img src=""img/food3.png"" style=""width:200px; border:14px solid green;"">","null","","","","","","","","","",""
"","image-keyboard-response","19","28911","0.0-24.0","","","","","288.40000000596046","img/food2.png","76","289.09999999403954","3","1","false","1","2","1,0.7,0,1,0.7,0,0.7,0,1","0.7,0,1,0.7,0,1,0,1,0.7","2",""
"","html-keyboard-response","20","29214","0.0-25.0","","","","","null","<img src=""img/food2.png"" style=""width:200px; border:14px solid green;"">","null","","","","","","","","","",""
"","image-keyboard-response","21","29471","0.0-27.0","","","","","256","img/food2.png","76","256.6000000089407","3","1","false","1","2","1,0.7,0,1,0.7,0,0.7,0,1","0.7,0,1,0.7,0,1,0,1,0.7","2",""
"","html-keyboard-response","22","29772","0.0-28.0","","","","","null","<img src=""img/food2.png"" style=""width:200px; border:14px solid green;"">","null","","","","","","","","","",""
"","image-keyboard-response","23","30023","0.0-30.0","","","","","250.1000000089407","img/food3.png","76","250.79999999701977","3","1","false","2","2","1,0.7,0,1,0.7,0,0.7,0,1","0.7,0,1,0.7,0,1,0,1,0.7","2",""
"","html-keyboard-response","24","30324","0.0-31.0","","","","","null","<img src=""img/food3.png"" style=""width:200px; border:14px solid green;"">","null","","","","","","","","","",""
"","image-keyboard-response","25","30559","0.0-33.0","","","","","234.1000000089407","img/food3.png","76","234.79999999701977","3","1","false","2","2","1,0.7,0,1,0.7,0,0.7,0,1","0.7,0,1,0.7,0,1,0,1,0.7","2",""
"","html-keyboard-response","26","30863","0.0-34.0","","","","","null","<img src=""img/food3.png"" style=""width:200px; border:14px solid green;"">","null","","","","","","","","","",""
"","image-keyboard-response","27","31055","0.0-36.0","","","","","191.20000000298023","img/food2.png","76","191.79999999701977","3","1","false","1","2","1,0.7,0,1,0.7,0,0.7,0,1","0.7,0,1,0.7,0,1,0,1,0.7","2",""
"","html-keyboard-response","28","31357","0.0-37.0","","","","","null","<img src=""img/food2.png"" style=""width:200px; border:14px solid green;"">","null","","","","","","","","","",""
"","image-keyboard-response","29","31495","0.0-39.0","","","","","137.20000000298023","img/food2.png","76","137.79999999701977","3","1","false","1","2","1,0.7,0,1,0.7,0,0.7,0,1","0.7,0,1,0.7,0,1,0,1,0.7","2",""
"","html-keyboard-response","30","31799","0.0-40.0","","","","","null","<img src=""img/food2.png"" style=""width:200px; border:14px solid green;"">","null","","","","","","","","","",""
"","image-keyboard-response","31","31919","0.0-42.0","","","","","119.70000000298023","img/food2.png","76","120.09999999403954","3","1","false","1","2","1,0.7,0,1,0.7,0,0.7,0,1","0.7,0,1,0.7,0,1,0,1,0.7","2",""
"","html-keyboard-response","32","32221","0.0-43.0","","","","","null","<img src=""img/food2.png"" style=""width:200px; border:14px solid green;"">","null","","","","","","","","","",""
"","image-keyboard-response","33","32303","0.0-45.0","","","","","81.19999998807907","img/food3.png","76","81.70000000298023","3","1","false","2","2","1,0.7,0,1,0.7,0,0.7,0,1","0.7,0,1,0.7,0,1,0,1,0.7","2",""
"","html-keyboard-response","34","32605","0.0-46.0","","","","","null","<img src=""img/food3.png"" style=""width:200px; border:14px solid green;"">","null","","","","","","","","","",""
"","image-keyboard-response","35","32687","0.0-48.0","","","","","81.40000000596046","img/food4.png","76","82","3","0","false","3","2","1,0.7,0,1,0.7,0,0.7,0,1","0.7,0,1,0.7,0,1,0,1,0.7","2",""
"","html-keyboard-response","36","32989","0.0-49.0","","","","","null","<img src=""img/food4.png"" style=""width:200px;border:14px solid red;"">","null","","","","","","","","","",""
"","image-keyboard-response","37","33055","0.0-51.0","","","","","65.29999999701977","img/food3.png","76","65.90000000596046","3","1","false","2","2","1,0.7,0,1,0.7,0,0.7,0,1","0.7,0,1,0.7,0,1,0,1,0.7","2",""
"","html-keyboard-response","38","33357","0.0-52.0","","","","","null","<img src=""img/food3.png"" style=""width:200px; border:14px solid green;"">","null","","","","","","","","","",""
"","image-keyboard-response","39","33383","0.0-54.0","","","","","25.100000008940697","img/food3.png","76","25.80000001192093","3","1","false","2","2","1,0.7,0,1,0.7,0,0.7,0,1","0.7,0,1,0.7,0,1,0,1,0.7","2",""
"","html-keyboard-response","40","33689","0.0-55.0","","","","","null","<img src=""img/food3.png"" style=""width:200px; border:14px solid green;"">","null","","","","","","","","","",""
"","image-keyboard-response","41","33695","0.0-57.0","","","","","4.699999988079071","img/food3.png","76","5.399999991059303","3","1","false","2","2","1,0.7,0,1,0.7,0,0.7,0,1","0.7,0,1,0.7,0,1,0,1,0.7","2",""
"","html-keyboard-response","42","33999","0.0-58.0","","","","","null","<img src=""img/food3.png"" style=""width:200px; border:14px solid green;"">","null","","","","","","","","","",""
"","image-keyboard-response","43","34087","0.0-60.0","","","","","87.3999999910593","img/food4.png","76","88","3","1","false","3","2","1,0.7,0,1,0.7,0,0.7,0,1","0.7,0,1,0.7,0,1,0,1,0.7","2",""
"","html-keyboard-response","44","34389","0.0-61.0","","","","","null","<img src=""img/food4.png"" style=""width:200px; border:14px solid green;"">","null","","","","","","","","","",""
"","image-keyboard-response","45","34439","0.0-63.0","","","","","49.29999999701977","img/food4.png","76","49.900000005960464","3","1","false","3","2","1,0.7,0,1,0.7,0,0.7,0,1","0.7,0,1,0.7,0,1,0,1,0.7","2",""
"","html-keyboard-response","46","34741","0.0-64.0","","","","","null","<img src=""img/food4.png"" style=""width:200px; border:14px solid green;"">","null","","","","","","","","","",""
"","image-keyboard-response","47","34807","0.0-66.0","","","","","65.29999999701977","img/food2.png","76","65.8999999910593","3","1","false","1","2","1,0.7,0,1,0.7,0,0.7,0,1","0.7,0,1,0.7,0,1,0,1,0.7","2",""
"","html-keyboard-response","48","35109","0.0-67.0","","","","","null","<img src=""img/food2.png"" style=""width:200px; border:14px solid green;"">","null","","","","","","","","","",""
"","image-keyboard-response","49","35151","0.0-69.0","","","","","41.3999999910593","img/food4.png","76","42","3","0","false","3","2","1,0.7,0,1,0.7,0,0.7,0,1","0.7,0,1,0.7,0,1,0,1,0.7","2",""
"","html-keyboard-response","50","35456","0.0-70.0","","","","","null","<img src=""img/food4.png"" style=""width:200px;border:14px solid red;"">","null","","","","","","","","","",""
"","image-keyboard-response","51","35551","0.0-72.0","","","","","94.20000000298023","img/food3.png","76","94.90000000596046","3","1","false","2","2","1,0.7,0,1,0.7,0,0.7,0,1","0.7,0,1,0.7,0,1,0,1,0.7","2",""
"","html-keyboard-response","52","35853","0.0-73.0","","","","","null","<img src=""img/food3.png"" style=""width:200px; border:14px solid green;"">","null","","","","","","","","","",""
"","image-keyboard-response","53","35887","0.0-75.0","","","","","33","img/food3.png","76","33.599999994039536","3","1","false","2","2","1,0.7,0,1,0.7,0,0.7,0,1","0.7,0,1,0.7,0,1,0,1,0.7","2",""
"","html-keyboard-response","54","36193","0.0-76.0","","","","","null","<img src=""img/food3.png"" style=""width:200px; border:14px solid green;"">","null","","","","","","","","","",""
"","image-keyboard-response","55","36207","0.0-78.0","","","","","13.100000008940697","img/food4.png","76","13.700000002980232","3","1","false","3","2","1,0.7,0,1,0.7,0,0.7,0,1","0.7,0,1,0.7,0,1,0,1,0.7","2",""
"","html-keyboard-response","56","36513","0.0-79.0","","","","","null","<img src=""img/food4.png"" style=""width:200px; border:14px solid green;"">","null","","","","","","","","","",""
"","image-keyboard-response","57","36575","0.0-81.0","","","","","61.8999999910593","img/food4.png","76","62.599999994039536","3","1","false","3","2","1,0.7,0,1,0.7,0,0.7,0,1","0.7,0,1,0.7,0,1,0,1,0.7","2",""
"","html-keyboard-response","58","36878","0.0-82.0","","","","","null","<img src=""img/food4.png"" style=""width:200px; border:14px solid green;"">","null","","","","","","","","","",""
"","image-keyboard-response","59","36895","0.0-84.0","","","","","16.200000002980232","img/food4.png","76","16.799999997019768","3","1","false","3","2","1,0.7,0,1,0.7,0,0.7,0,1","0.7,0,1,0.7,0,1,0,1,0.7","2",""
"","html-keyboard-response","60","37197","0.0-85.0","","","","","null","<img src=""img/food4.png"" style=""width:200px; border:14px solid green;"">","null","","","","","","","","","",""
"","image-keyboard-response","61","37255","0.0-87.0","","","","","57.29999999701977","img/food2.png","76","57.80000001192093","3","1","false","1","2","1,0.7,0,1,0.7,0,0.7,0,1","0.7,0,1,0.7,0,1,0,1,0.7","2",""
"","html-keyboard-response","62","37558","0.0-88.0","","","","","null","<img src=""img/food2.png"" style=""width:200px; border:14px solid green;"">","null","","","","","","","","","",""
"","image-keyboard-response","63","37583","0.0-90.0","","","","","25","img/food3.png","76","25.69999998807907","3","1","false","2","2","1,0.7,0,1,0.7,0,0.7,0,1","0.7,0,1,0.7,0,1,0,1,0.7","2",""
"","html-keyboard-response","64","37888","0.0-91.0","","","","","null","<img src=""img/food3.png"" style=""width:200px; border:14px solid green;"">","null","","","","","","","","","",""
"","image-keyboard-response","65","37951","0.0-93.0","","","","","62.29999999701977","img/food3.png","76","62.70000000298023","3","1","false","2","2","1,0.7,0,1,0.7,0,0.7,0,1","0.7,0,1,0.7,0,1,0,1,0.7","2",""
"","html-keyboard-response","66","38253","0.0-94.0","","","","","null","<img src=""img/food3.png"" style=""width:200px; border:14px solid green;"">","null","","","","","","","","","",""
"","image-keyboard-response","67","38271","0.0-96.0","","","","","16.700000002980232","img/food4.png","76","17.399999991059303","3","1","false","3","2","1,0.7,0,1,0.7,0,0.7,0,1","0.7,0,1,0.7,0,1,0,1,0.7","2",""
"","html-keyboard-response","68","38573","0.0-97.0","","","","","null","<img src=""img/food4.png"" style=""width:200px; border:14px solid green;"">","null","","","","","","","","","",""
"","image-keyboard-response","69","38615","0.0-99.0","","","","","41.29999999701977","img/food4.png","76","41.900000005960464","3","1","false","3","2","1,0.7,0,1,0.7,0,0.7,0,1","0.7,0,1,0.7,0,1,0,1,0.7","2",""
"","html-keyboard-response","70","38918","0.0-100.0","","","","","null","<img src=""img/food4.png"" style=""width:200px; border:14px solid green;"">","null","","","","","","","","","",""
"","image-keyboard-response","71","38935","0.0-102.0","","","","","17","img/food3.png","76","17.700000002980232","3","1","false","2","2","1,0.7,0,1,0.7,0,0.7,0,1","0.7,0,1,0.7,0,1,0,1,0.7","2",""
"","html-keyboard-response","72","39241","0.0-103.0","","","","","null","<img src=""img/food3.png"" style=""width:200px; border:14px solid green;"">","null","","","","","","","","","",""
"","image-keyboard-response","73","39263","0.0-105.0","","","","","21.299999997019768","img/food2.png","76","22","3","1","false","1","2","1,0.7,0,1,0.7,0,0.7,0,1","0.7,0,1,0.7,0,1,0,1,0.7","2",""
"","html-keyboard-response","74","39565","0.0-106.0","","","","","null","<img src=""img/food2.png"" style=""width:200px; border:14px solid green;"">","null","","","","","","","","","",""
"","image-keyboard-response","75","39615","0.0-108.0","","","","","49.20000000298023","img/food3.png","76","49.70000000298023","3","1","false","2","2","1,0.7,0,1,0.7,0,0.7,0,1","0.7,0,1,0.7,0,1,0,1,0.7","2",""
"","html-keyboard-response","76","39920","0.0-109.0","","","","","null","<img src=""img/food3.png"" style=""width:200px; border:14px solid green;"">","null","","","","","","","","","",""
"","image-keyboard-response","77","39936","0.0-111.0","","","","","14.299999997019768","img/food2.png","76","15","3","1","false","1","2","1,0.7,0,1,0.7,0,0.7,0,1","0.7,0,1,0.7,0,1,0,1,0.7","2",""
"","html-keyboard-response","78","40240","0.0-112.0","","","","","null","<img src=""img/food2.png"" style=""width:200px; border:14px solid green;"">","null","","","","","","","","","",""
"","image-keyboard-response","79","40247","0.0-114.0","","","","","6.799999997019768","img/food2.png","76","7.4000000059604645","3","1","false","1","2","1,0.7,0,1,0.7,0,0.7,0,1","0.7,0,1,0.7,0,1,0,1,0.7","2",""
"","html-keyboard-response","80","40549","0.0-115.0","","","","","null","<img src=""img/food2.png"" style=""width:200px; border:14px solid green;"">","null","","","","","","","","","",""
"","image-keyboard-response","81","40551","0.0-117.0","","","","","1","img/food4.png","76","1.6000000089406967","3","0","false","3","2","1,0.7,0,1,0.7,0,0.7,0,1","0.7,0,1,0.7,0,1,0,1,0.7","2",""
"","html-keyboard-response","82","40855","0.0-118.0","","","","","null","<img src=""img/food4.png"" style=""width:200px;border:14px solid red;"">","null","","","","","","","","","",""
"","image-keyboard-response","83","40879","0.0-120.0","","","","","23.099999994039536","img/food2.png","76","23.700000002980232","3","1","false","1","2","1,0.7,0,1,0.7,0,0.7,0,1","0.7,0,1,0.7,0,1,0,1,0.7","2",""
"","html-keyboard-response","84","41180","0.0-121.0","","","","","null","<img src=""img/food2.png"" style=""width:200px; border:14px solid green;"">","null","","","","","","","","","",""
"","image-keyboard-response","85","41215","0.0-123.0","","","","","34.5","img/food3.png","76","35.19999998807907","3","1","false","2","2","1,0.7,0,1,0.7,0,0.7,0,1","0.7,0,1,0.7,0,1,0,1,0.7","2",""
"","html-keyboard-response","86","41517","0.0-124.0","","","","","null","<img src=""img/food3.png"" style=""width:200px; border:14px solid green;"">","null","","","","","","","","","",""
"","image-keyboard-response","87","41544","0.0-126.0","","","","","26.100000008940697","img/food4.png","76","26.599999994039536","3","1","false","3","2","1,0.7,0,1,0.7,0,0.7,0,1","0.7,0,1,0.7,0,1,0,1,0.7","2",""
"","html-keyboard-response","88","41847","0.0-127.0","","","","","null","<img src=""img/food4.png"" style=""width:200px; border:14px solid green;"">","null","","","","","","","","","",""
"","image-keyboard-response","89","41847","0.0-129.0","","","","","0.09999999403953552","img/food2.png","76","0.7000000029802322","3","1","false","1","2","1,0.7,0,1,0.7,0,0.7,0,1","0.7,0,1,0.7,0,1,0,1,0.7","2",""
"","html-keyboard-response","90","42149","0.0-130.0","","","","","null","<img src=""img/food2.png"" style=""width:200px; border:14px solid green;"">","null","","","","","","","","","",""
"","image-keyboard-response","91","42176","0.0-132.0","","","","","25.399999991059303","img/food3.png","76","25.900000005960464","3","1","false","2","2","1,0.7,0,1,0.7,0,0.7,0,1","0.7,0,1,0.7,0,1,0,1,0.7","2",""
"","html-keyboard-response","92","42480","0.0-133.0","","","","","null","<img src=""img/food3.png"" style=""width:200px; border:14px solid green;"">","null","","","","","","","","","",""
"","image-keyboard-response","93","42488","0.0-135.0","","","","","6.700000002980232","img/food2.png","76","7.200000002980232","3","1","false","1","2","1,0.7,0,1,0.7,0,0.7,0,1","0.7,0,1,0.7,0,1,0,1,0.7","2",""
"","html-keyboard-response","94","42790","0.0-136.0","","","","","null","<img src=""img/food2.png"" style=""width:200px; border:14px solid green;"">","null","","","","","","","","","",""
"","image-keyboard-response","95","42792","0.0-138.0","","","","","1.2000000029802322","img/food3.png","76","1.7999999970197678","3","1","false","2","2","1,0.7,0,1,0.7,0,0.7,0,1","0.7,0,1,0.7,0,1,0,1,0.7","2",""
"","html-keyboard-response","96","43095","0.0-139.0","","","","","null","<img src=""img/food3.png"" style=""width:200px; border:14px solid green;"">","null","","","","","","","","","",""
"","image-keyboard-response","97","43095","0.0-141.0","","","","","0.09999999403953552","img/food3.png","76","0.7000000029802322","3","1","false","2","2","1,0.7,0,1,0.7,0,0.7,0,1","0.7,0,1,0.7,0,1,0,1,0.7","2",""
"","html-keyboard-response","98","43398","0.0-142.0","","","","","null","<img src=""img/food3.png"" style=""width:200px; border:14px solid green;"">","null","","","","","","","","","",""
"","image-keyboard-response","99","43712","0.0-144.0","","","","","312.8999999910593","img/food2.png","76","313.40000000596046","3","1","false","1","2","1,0.7,0,1,0.7,0,0.7,0,1","0.7,0,1,0.7,0,1,0,1,0.7","2",""
"","html-keyboard-response","100","44013","0.0-145.0","","","","","null","<img src=""img/food2.png"" style=""width:200px; border:14px solid green;"">","null","","","","","","","","","",""
"","image-keyboard-response","101","44040","0.0-147.0","","","","","25.299999997019768","img/food3.png","76","25.900000005960464","3","1","false","2","2","1,0.7,0,1,0.7,0,0.7,0,1","0.7,0,1,0.7,0,1,0,1,0.7","2",""
"","html-keyboard-response","102","44344","0.0-148.0","","","","","null","<img src=""img/food3.png"" style=""width:200px; border:14px solid green;"">","null","","","","","","","","","",""
"","image-keyboard-response","103","44368","0.0-150.0","","","","","22.799999997019768","img/food2.png","76","23.400000005960464","3","1","false","1","2","1,0.7,0,1,0.7,0,0.7,0,1","0.7,0,1,0.7,0,1,0,1,0.7","2",""
"","html-keyboard-response","104","44669","0.0-151.0","","","","","null","<img src=""img/food2.png"" style=""width:200px; border:14px solid green;"">","null","","","","","","","","","",""
"","image-keyboard-response","105","44688","0.0-153.0","","","","","17.799999997019768","img/food4.png","76","18.5","3","1","false","3","2","1,0.7,0,1,0.7,0,0.7,0,1","0.7,0,1,0.7,0,1,0,1,0.7","2",""
"","html-keyboard-response","106","44992","0.0-154.0","","","","","null","<img src=""img/food4.png"" style=""width:200px; border:14px solid green;"">","null","","","","","","","","","",""
"","image-keyboard-response","107","45016","0.0-156.0","","","","","22.700000002980232","img/food3.png","76","23.400000005960464","3","1","false","2","2","1,0.7,0,1,0.7,0,0.7,0,1","0.7,0,1,0.7,0,1,0,1,0.7","2",""
"","html-keyboard-response","108","45319","0.0-157.0","","","","","null","<img src=""img/food3.png"" style=""width:200px; border:14px solid green;"">","null","","","","","","","","","",""
"","image-keyboard-response","109","45648","0.0-159.0","","","","","327.40000000596046","img/food4.png","76","328.20000000298023","3","1","false","3","2","1,0.7,0,1,0.7,0,0.7,0,1","0.7,0,1,0.7,0,1,0,1,0.7","2",""
"","html-keyboard-response","110","45952","0.0-160.0","","","","","null","<img src=""img/food4.png"" style=""width:200px; border:14px solid green;"">","null","","","","","","","","","",""
"","image-keyboard-response","111","45984","0.0-162.0","","","","","30.900000005960464","img/food4.png","76","31.700000002980232","3","1","false","3","2","1,0.7,0,1,0.7,0,0.7,0,1","0.7,0,1,0.7,0,1,0,1,0.7","2",""
"","html-keyboard-response","112","46286","0.0-163.0","","","","","null","<img src=""img/food4.png"" style=""width:200px; border:14px solid green;"">","null","","","","","","","","","",""
"","image-keyboard-response","113","46608","0.0-165.0","","","","","320.79999999701977","img/food2.png","76","321.40000000596046","3","1","false","1","2","1,0.7,0,1,0.7,0,0.7,0,1","0.7,0,1,0.7,0,1,0,1,0.7","2",""
"","html-keyboard-response","114","46910","0.0-166.0","","","","","null","<img src=""img/food2.png"" style=""width:200px; border:14px solid green;"">","null","","","","","","","","","",""
"","image-keyboard-response","115","46976","0.0-168.0","","","","","65.1000000089407","img/food4.png","76","65.6000000089407","3","0","false","3","2","1,0.7,0,1,0.7,0,0.7,0,1","0.7,0,1,0.7,0,1,0,1,0.7","2",""
"","html-keyboard-response","116","47278","0.0-169.0","","","","","null","<img src=""img/food4.png"" style=""width:200px;border:14px solid red;"">","null","","","","","","","","","",""
"","image-keyboard-response","117","47600","0.0-171.0","","","","","321.1000000089407","img/food3.png","76","321.79999999701977","3","1","false","2","2","1,0.7,0,1,0.7,0,0.7,0,1","0.7,0,1,0.7,0,1,0,1,0.7","2",""
"","html-keyboard-response","118","47902","0.0-172.0","","","","","null","<img src=""img/food3.png"" style=""width:200px; border:14px solid green;"">","null","","","","","","","","","",""
"","image-keyboard-response","119","47944","0.0-174.0","","","","","40.5","img/food2.png","76","41.099999994039536","3","1","false","1","2","1,0.7,0,1,0.7,0,0.7,0,1","0.7,0,1,0.7,0,1,0,1,0.7","2",""
"","html-keyboard-response","120","48245","0.0-175.0","","","","","null","<img src=""img/food2.png"" style=""width:200px; border:14px solid green;"">","null","","","","","","","","","",""
"","image-keyboard-response","121","48256","0.0-177.0","","","","","10","img/food4.png","76","10.699999988079071","3","1","false","3","2","1,0.7,0,1,0.7,0,0.7,0,1","0.7,0,1,0.7,0,1,0,1,0.7","2",""
"","html-keyboard-response","122","48558","0.0-178.0","","","","","null","<img src=""img/food4.png"" style=""width:200px; border:14px solid green;"">","null","","","","","","","","","",""
"","image-keyboard-response","123","48576","0.0-180.0","","","","","17.399999991059303","img/food2.png","76","18.099999994039536","3","1","false","1","2","1,0.7,0,1,0.7,0,0.7,0,1","0.7,0,1,0.7,0,1,0,1,0.7","2",""
"","html-keyboard-response","124","48878","0.0-181.0","","","","","null","<img src=""img/food2.png"" style=""width:200px; border:14px solid green;"">","null","","","","","","","","","",""
"","image-keyboard-response","125","48880","0.0-183.0","","","","","0.9000000059604645","img/food3.png","76","1.5999999940395355","3","1","false","2","2","1,0.7,0,1,0.7,0,0.7,0,1","0.7,0,1,0.7,0,1,0,1,0.7","2",""
"","html-keyboard-response","126","49185","0.0-184.0","","","","","null","<img src=""img/food3.png"" style=""width:200px; border:14px solid green;"">","null","","","","","","","","","",""
"","image-keyboard-response","127","49200","0.0-186.0","","","","","13.700000002980232","img/food3.png","76","14.200000002980232","3","1","false","2","2","1,0.7,0,1,0.7,0,0.7,0,1","0.7,0,1,0.7,0,1,0,1,0.7","2",""
"","html-keyboard-response","128","49505","0.0-187.0","","","","","null","<img src=""img/food3.png"" style=""width:200px; border:14px solid green;"">","null","","","","","","","","","",""
"","image-keyboard-response","129","49511","0.0-189.0","","","","","5.699999988079071","img/food4.png","76","6.399999991059303","3","1","false","3","2","1,0.7,0,1,0.7,0,0.7,0,1","0.7,0,1,0.7,0,1,0,1,0.7","2",""
"","html-keyboard-response","130","49812","0.0-190.0","","","","","null","<img src=""img/food4.png"" style=""width:200px; border:14px solid green;"">","null","","","","","","","","","",""
"","image-keyboard-response","131","49816","0.0-192.0","","","","","2.5","img/food4.png","76","3","3","0","false","3","2","1,0.7,0,1,0.7,0,0.7,0,1","0.7,0,1,0.7,0,1,0,1,0.7","2",""
"","html-keyboard-response","132","50118","0.0-193.0","","","","","null","<img src=""img/food4.png"" style=""width:200px;border:14px solid red;"">","null","","","","","","","","","",""
"","image-keyboard-response","133","50160","0.0-195.0","","","","","41.20000000298023","img/food3.png","76","41.79999999701977","3","1","false","2","2","1,0.7,0,1,0.7,0,0.7,0,1","0.7,0,1,0.7,0,1,0,1,0.7","2",""
"","html-keyboard-response","134","50462","0.0-196.0","","","","","null","<img src=""img/food3.png"" style=""width:200px; border:14px solid green;"">","null","","","","","","","","","",""
"","image-keyboard-response","135","50752","0.0-198.0","","","","","289.20000000298023","img/food2.png","76","290.20000000298023","3","1","false","1","2","1,0.7,0,1,0.7,0,0.7,0,1","0.7,0,1,0.7,0,1,0,1,0.7","2",""
"","html-keyboard-response","136","51055","0.0-199.0","","","","","null","<img src=""img/food2.png"" style=""width:200px; border:14px solid green;"">","null","","","","","","","","","",""
"","image-keyboard-response","137","51063","0.0-201.0","","","","","8.200000002980232","img/food4.png","76","8.700000002980232","3","1","false","3","2","1,0.7,0,1,0.7,0,0.7,0,1","0.7,0,1,0.7,0,1,0,1,0.7","2",""
"","html-keyboard-response","138","51367","0.0-202.0","","","","","null","<img src=""img/food4.png"" style=""width:200px; border:14px solid green;"">","null","","","","","","","","","",""
"","image-keyboard-response","139","51368","0.0-204.0","","","","","0.20000000298023224","img/food2.png","76","0.7000000029802322","3","1","false","1","2","1,0.7,0,1,0.7,0,0.7,0,1","0.7,0,1,0.7,0,1,0,1,0.7","2",""
"","html-keyboard-response","140","51670","0.0-205.0","","","","","null","<img src=""img/food2.png"" style=""width:200px; border:14px solid green;"">","null","","","","","","","","","",""
"","image-keyboard-response","141","51968","0.0-207.0","","","","","296.79999999701977","img/food2.png","76","297.30000001192093","3","1","false","1","2","1,0.7,0,1,0.7,0,0.7,0,1","0.7,0,1,0.7,0,1,0,1,0.7","2",""
"","html-keyboard-response","142","52274","0.0-208.0","","","","","null","<img src=""img/food2.png"" style=""width:200px; border:14px solid green;"">","null","","","","","","","","","",""
"","image-keyboard-response","143","52312","0.0-210.0","","","","","37.70000000298023","img/food4.png","76","38.19999998807907","3","0","false","3","2","1,0.7,0,1,0.7,0,0.7,0,1","0.7,0,1,0.7,0,1,0,1,0.7","2",""
"","html-keyboard-response","144","52616","0.0-211.0","","","","","null","<img src=""img/food4.png"" style=""width:200px;border:14px solid red;"">","null","","","","","","","","","",""
"","image-keyboard-response","145","52632","0.0-213.0","","","","","14.799999997019768","img/food3.png","76","15.300000011920929","3","1","false","2","2","1,0.7,0,1,0.7,0,0.7,0,1","0.7,0,1,0.7,0,1,0,1,0.7","2",""
"","html-keyboard-response","146","52934","0.0-214.0","","","","","null","<img src=""img/food3.png"" style=""width:200px; border:14px solid green;"">","null","","","","","","","","","",""
"","image-keyboard-response","147","52944","0.0-216.0","","","","","9.300000011920929","img/food2.png","76","9.799999997019768","3","1","false","1","2","1,0.7,0,1,0.7,0,0.7,0,1","0.7,0,1,0.7,0,1,0,1,0.7","2",""
"","html-keyboard-response","148","53246","0.0-217.0","","","","","null","<img src=""img/food2.png"" style=""width:200px; border:14px solid green;"">","null","","","","","","","","","",""
"","image-keyboard-response","149","53552","0.0-219.0","","","","","304.8999999910593","img/food4.png","76","305.5","3","1","false","3","2","1,0.7,0,1,0.7,0,0.7,0,1","0.7,0,1,0.7,0,1,0,1,0.7","2",""
"","html-keyboard-response","150","53853","0.0-220.0","","","","","null","<img src=""img/food4.png"" style=""width:200px; border:14px solid green;"">","null","","","","","","","","","",""
"","image-keyboard-response","151","53864","0.0-222.0","","","","","10.5","img/food4.png","76","11.200000002980232","3","1","false","3","2","1,0.7,0,1,0.7,0,0.7,0,1","0.7,0,1,0.7,0,1,0,1,0.7","2",""
"","html-keyboard-response","152","54166","0.0-223.0","","","","","null","<img src=""img/food4.png"" style=""width:200px; border:14px solid green;"">","null","","","","","","","","","",""
"","image-keyboard-response","153","54192","0.0-225.0","","","","","25.100000008940697","img/food3.png","76","25.900000005960464","3","1","false","2","2","1,0.7,0,1,0.7,0,0.7,0,1","0.7,0,1,0.7,0,1,0,1,0.7","2",""
"","html-keyboard-response","154","54496","0.0-226.0","","","","","null","<img src=""img/food3.png"" style=""width:200px; border:14px solid green;"">","null","","","","","","","","","",""
"","image-keyboard-response","155","54512","0.0-228.0","","","","","15.200000002980232","img/food4.png","76","15.600000008940697","3","1","false","3","2","1,0.7,0,1,0.7,0,0.7,0,1","0.7,0,1,0.7,0,1,0,1,0.7","2",""
"","html-keyboard-response","156","54814","0.0-229.0","","","","","null","<img src=""img/food4.png"" style=""width:200px; border:14px solid green;"">","null","","","","","","","","","",""
"","image-keyboard-response","157","55128","0.0-231.0","","","","","313","img/food4.png","76","313.70000000298023","3","0","false","3","2","1,0.7,0,1,0.7,0,0.7,0,1","0.7,0,1,0.7,0,1,0,1,0.7","2",""
"","html-keyboard-response","158","55430","0.0-232.0","","","","","null","<img src=""img/food4.png"" style=""width:200px;border:14px solid red;"">","null","","","","","","","","","",""
"","image-keyboard-response","159","55432","0.0-234.0","","","","","0.9000000059604645","img/food3.png","76","1.7000000029802322","3","1","false","2","2","1,0.7,0,1,0.7,0,0.7,0,1","0.7,0,1,0.7,0,1,0,1,0.7","2",""
"","html-keyboard-response","160","55734","0.0-235.0","","","","","null","<img src=""img/food3.png"" style=""width:200px; border:14px solid green;"">","null","","","","","","","","","",""
"","image-keyboard-response","161","55776","0.0-237.0","","","","","41.29999999701977","img/food2.png","76","42","3","1","false","1","2","1,0.7,0,1,0.7,0,0.7,0,1","0.7,0,1,0.7,0,1,0,1,0.7","2",""
"","html-keyboard-response","162","56078","0.0-238.0","","","","","null","<img src=""img/food2.png"" style=""width:200px; border:14px solid green;"">","null","","","","","","","","","",""
"","image-keyboard-response","163","56080","0.0-240.0","","","","","1","img/food2.png","76","1.699999988079071","3","1","false","1","2","1,0.7,0,1,0.7,0,0.7,0,1","0.7,0,1,0.7,0,1,0,1,0.7","2",""
"","html-keyboard-response","164","56386","0.0-241.0","","","","","null","<img src=""img/food2.png"" style=""width:200px; border:14px solid green;"">","null","","","","","","","","","",""
"","image-keyboard-response","165","56400","0.0-243.0","","","","","13.099999994039536","img/food2.png","76","13.700000002980232","3","1","false","1","2","1,0.7,0,1,0.7,0,0.7,0,1","0.7,0,1,0.7,0,1,0,1,0.7","2",""
"","html-keyboard-response","166","56704","0.0-244.0","","","","","null","<img src=""img/food2.png"" style=""width:200px; border:14px solid green;"">","null","","","","","","","","","",""
"","image-keyboard-response","167","56720","0.0-246.0","","","","","14.799999997019768","img/food3.png","76","15.399999991059303","3","1","false","2","2","1,0.7,0,1,0.7,0,0.7,0,1","0.7,0,1,0.7,0,1,0,1,0.7","2",""
"","html-keyboard-response","168","57022","0.0-247.0","","","","","null","<img src=""img/food3.png"" style=""width:200px; border:14px solid green;"">","null","","","","","","","","","",""
"","image-keyboard-response","169","57024","0.0-249.0","","","","","1","img/food3.png","76","1.5999999940395355","3","1","false","2","2","1,0.7,0,1,0.7,0,0.7,0,1","0.7,0,1,0.7,0,1,0,1,0.7","2",""
"","html-keyboard-response","170","57330","0.0-250.0","","","","","null","<img src=""img/food3.png"" style=""width:200px; border:14px solid green;"">","null","","","","","","","","","",""
"","image-keyboard-response","171","57360","0.0-252.0","","","","","29.30000001192093","img/food2.png","76","29.899999991059303","3","1","false","1","2","1,0.7,0,1,0.7,0,0.7,0,1","0.7,0,1,0.7,0,1,0,1,0.7","2",""
"","html-keyboard-response","172","57662","0.0-253.0","","","","","null","<img src=""img/food2.png"" style=""width:200px; border:14px solid green;"">","null","","","","","","","","","",""
"","image-keyboard-response","173","57968","0.0-255.0","","","","","305.1000000089407","img/food4.png","76","305.80000001192093","3","0","false","3","2","1,0.7,0,1,0.7,0,0.7,0,1","0.7,0,1,0.7,0,1,0,1,0.7","2",""
"","html-keyboard-response","174","58270","0.0-256.0","","","","","null","<img src=""img/food4.png"" style=""width:200px;border:14px solid red;"">","null","","","","","","","","","",""
"","image-keyboard-response","175","58272","0.0-258.0","","","","","1","img/food2.png","76","1.5999999940395355","3","1","false","1","2","1,0.7,0,1,0.7,0,0.7,0,1","0.7,0,1,0.7,0,1,0,1,0.7","2",""
"","html-keyboard-response","176","58578","0.0-259.0","","","","","null","<img src=""img/food2.png"" style=""width:200px; border:14px solid green;"">","null","","","","","","","","","",""
"","image-keyboard-response","177","58584","0.0-261.0","","","","","5","img/food4.png","76","5.600000008940697","3","1","false","3","2","1,0.7,0,1,0.7,0,0.7,0,1","0.7,0,1,0.7,0,1,0,1,0.7","2",""
"","html-keyboard-response","178","58886","0.0-262.0","","","","","null","<img src=""img/food4.png"" style=""width:200px; border:14px solid green;"">","null","","","","","","","","","",""
"","image-keyboard-response","179","58896","0.0-264.0","","","","","9.5","img/food2.png","76","10.199999988079071","3","1","false","1","2","1,0.7,0,1,0.7,0,0.7,0,1","0.7,0,1,0.7,0,1,0,1,0.7","2",""
"","html-keyboard-response","180","59198","0.0-265.0","","","","","null","<img src=""img/food2.png"" style=""width:200px; border:14px solid green;"">","null","","","","","","","","","",""
"","image-keyboard-response","181","59216","0.0-267.0","","","","","17.30000001192093","img/food4.png","76","17.799999997019768","3","1","false","3","2","1,0.7,0,1,0.7,0,0.7,0,1","0.7,0,1,0.7,0,1,0,1,0.7","2",""
"","html-keyboard-response","182","59518","0.0-268.0","","","","","null","<img src=""img/food4.png"" style=""width:200px; border:14px solid green;"">","null","","","","","","","","","",""
"","image-keyboard-response","183","59808","0.0-270.0","","","","","289.30000001192093","img/food4.png","76","290","3","1","false","3","2","1,0.7,0,1,0.7,0,0.7,0,1","0.7,0,1,0.7,0,1,0,1,0.7","2",""
"","html-keyboard-response","184","60110","0.0-271.0","","","","","null","<img src=""img/food4.png"" style=""width:200px; border:14px solid green;"">","null","","","","","","","","","",""
"","instructions","185","64852","0.0-273.0","","","","[{""page_index"":0,""viewing_time"":4010.7999999970198},{""page_index"":1,""viewing_time"":730}]","4741","","","","","","","","","","","",""
"","image-keyboard-response","186","65464","0.0-274.0","","","","","611.7000000029802","img/food6.png","75","612.5","2","0","","2","1","1,0.7,0,1,0.7,0,0.7,0,1","1,0.7,0,1,0.7,0,0.7,0,1","1",""
"","html-keyboard-response","187","65770","0.0-275.0","","","","","null","<img src=""img/food6.png"" style=""width:200px;border:14px solid red;"">","null","","","","","","","","","",""
"","image-keyboard-response","188","66264","0.0-276.0","","","","","492.90000000596046","img/food6.png","76","493.5","3","0","","2","1","1,0.7,0,1,0.7,0,0.7,0,1","1,0.7,0,1,0.7,0,0.7,0,1","1",""
"","html-keyboard-response","189","66566","0.0-277.0","","","","","null","<img src=""img/food6.png"" style=""width:200px;border:14px solid red;"">","null","","","","","","","","","",""
"","image-keyboard-response","190","67304","0.0-278.0","","","","","737.4000000059605","img/food5.png","75","737.9000000059605","2","0","","3","1","1,0.7,0,1,0.7,0,0.7,0,1","1,0.7,0,1,0.7,0,0.7,0,1","1",""
"","html-keyboard-response","191","67611","0.0-279.0","","","","","null","<img src=""img/food5.png"" style=""width:200px;border:14px solid red;"">","null","","","","","","","","","",""
"","image-keyboard-response","192","68016","0.0-280.0","","","","","404.8999999910593","img/food6.png","74","405.69999998807907","1","1","","2","1","1,0.7,0,1,0.7,0,0.7,0,1","1,0.7,0,1,0.7,0,0.7,0,1","1",""
"","html-keyboard-response","193","68319","0.0-281.0","","","","","null","<img src=""img/food6.png"" style=""width:200px; border:14px solid green;"">","null","","","","","","","","","",""
"","image-keyboard-response","194","68664","0.0-282.0","","","","","344.5","img/food6.png","74","345","1","1","","2","1","1,0.7,0,1,0.7,0,0.7,0,1","1,0.7,0,1,0.7,0,0.7,0,1","1",""
"","html-keyboard-response","195","68969","0.0-283.0","","","","","null","<img src=""img/food6.png"" style=""width:200px; border:14px solid green;"">","null","","","","","","","","","",""
"","image-keyboard-response","196","69280","0.0-284.0","","","","","310","img/food6.png","74","310.70000000298023","1","1","","2","1","1,0.7,0,1,0.7,0,0.7,0,1","1,0.7,0,1,0.7,0,0.7,0,1","1",""
"","html-keyboard-response","197","69584","0.0-285.0","","","","","null","<img src=""img/food6.png"" style=""width:200px; border:14px solid green;"">","null","","","","","","","","","",""
"","image-keyboard-response","198","69840","0.0-286.0","","","","","255.5","img/food6.png","74","256","1","1","","2","1","1,0.7,0,1,0.7,0,0.7,0,1","1,0.7,0,1,0.7,0,0.7,0,1","1",""
"","html-keyboard-response","199","70142","0.0-287.0","","","","","null","<img src=""img/food6.png"" style=""width:200px; border:14px solid green;"">","null","","","","","","","","","",""
"","image-keyboard-response","200","70336","0.0-288.0","","","","","193.5","img/food1.png","74","194","1","1","","1","1","1,0.7,0,1,0.7,0,0.7,0,1","1,0.7,0,1,0.7,0,0.7,0,1","1",""
"","html-keyboard-response","201","70641","0.0-289.0","","","","","null","<img src=""img/food1.png"" style=""width:200px; border:14px solid green;"">","null","","","","","","","","","",""
"","image-keyboard-response","202","70760","0.0-290.0","","","","","118.79999999701977","img/food1.png","74","119.5","1","1","","1","1","1,0.7,0,1,0.7,0,0.7,0,1","1,0.7,0,1,0.7,0,0.7,0,1","1",""
"","html-keyboard-response","203","71065","0.0-291.0","","","","","null","<img src=""img/food1.png"" style=""width:200px; border:14px solid green;"">","null","","","","","","","","","",""
"","image-keyboard-response","204","71184","0.0-292.0","","","","","119","img/food5.png","74","119.59999999403954","1","0","","3","1","1,0.7,0,1,0.7,0,0.7,0,1","1,0.7,0,1,0.7,0,0.7,0,1","1",""
"","html-keyboard-response","205","71489","0.0-293.0","","","","","null","<img src=""img/food5.png"" style=""width:200px;border:14px solid red;"">","null","","","","","","","","","",""
"","image-keyboard-response","206","72032","0.0-294.0","","","","","542.7999999970198","img/food5.png","75","543.5999999940395","2","0","","3","1","1,0.7,0,1,0.7,0,0.7,0,1","1,0.7,0,1,0.7,0,0.7,0,1","1",""
"","html-keyboard-response","207","72336","0.0-295.0","","","","","null","<img src=""img/food5.png"" style=""width:200px;border:14px solid red;"">","null","","","","","","","","","",""
"","image-keyboard-response","208","72496","0.0-296.0","","","","","159.29999999701977","img/food6.png","76","159.90000000596046","3","0","","2","1","1,0.7,0,1,0.7,0,0.7,0,1","1,0.7,0,1,0.7,0,0.7,0,1","1",""
"","html-keyboard-response","209","72801","0.0-297.0","","","","","null","<img src=""img/food6.png"" style=""width:200px;border:14px solid red;"">","null","","","","","","","","","",""
"","image-keyboard-response","210","72984","0.0-298.0","","","","","182.8999999910593","img/food5.png","74","183.5","1","0","","3","1","1,0.7,0,1,0.7,0,0.7,0,1","1,0.7,0,1,0.7,0,0.7,0,1","1",""
"","html-keyboard-response","211","73286","0.0-299.0","","","","","null","<img src=""img/food5.png"" style=""width:200px;border:14px solid red;"">","null","","","","","","","","","",""
"","image-keyboard-response","212","73856","0.0-300.0","","","","","569.2000000029802","img/food1.png","74","569.9000000059605","1","1","","1","1","1,0.7,0,1,0.7,0,0.7,0,1","1,0.7,0,1,0.7,0,0.7,0,1","1",""
"","html-keyboard-response","213","74160","0.0-301.0","","","","","null","<img src=""img/food1.png"" style=""width:200px; border:14px solid green;"">","null","","","","","","","","","",""
"","image-keyboard-response","214","74569","0.0-302.0","","","","","407.59999999403954","img/food6.png","74","408.29999999701977","1","1","","2","1","1,0.7,0,1,0.7,0,0.7,0,1","1,0.7,0,1,0.7,0,0.7,0,1","1",""
"","html-keyboard-response","215","74870","0.0-303.0","","","","","null","<img src=""img/food6.png"" style=""width:200px; border:14px solid green;"">","null","","","","","","","","","",""
"","image-keyboard-response","216","75233","0.0-304.0","","","","","361.3999999910593","img/food6.png","74","362.09999999403954","1","1","","2","1","1,0.7,0,1,0.7,0,0.7,0,1","1,0.7,0,1,0.7,0,0.7,0,1","1",""
"","html-keyboard-response","217","75535","0.0-305.0","","","","","null","<img src=""img/food6.png"" style=""width:200px; border:14px solid green;"">","null","","","","","","","","","",""
"","image-keyboard-response","218","76169","0.0-306.0","","","","","632.8999999910593","img/food1.png","74","633.4000000059605","1","1","","1","1","1,0.7,0,1,0.7,0,0.7,0,1","1,0.7,0,1,0.7,0,0.7,0,1","1",""
"","html-keyboard-response","219","76470","0.0-307.0","","","","","null","<img src=""img/food1.png"" style=""width:200px; border:14px solid green;"">","null","","","","","","","","","",""
"","image-keyboard-response","220","76897","0.0-308.0","","","","","425.3999999910593","img/food6.png","74","426","1","1","","2","1","1,0.7,0,1,0.7,0,0.7,0,1","1,0.7,0,1,0.7,0,0.7,0,1","1",""
"","html-keyboard-response","221","77201","0.0-309.0","","","","","null","<img src=""img/food6.png"" style=""width:200px; border:14px solid green;"">","null","","","","","","","","","",""
"","image-keyboard-response","222","77553","0.0-310.0","","","","","350.79999999701977","img/food6.png","74","351.40000000596046","1","1","","2","1","1,0.7,0,1,0.7,0,0.7,0,1","1,0.7,0,1,0.7,0,0.7,0,1","1",""
"","html-keyboard-response","223","77857","0.0-311.0","","","","","null","<img src=""img/food6.png"" style=""width:200px; border:14px solid green;"">","null","","","","","","","","","",""
"","image-keyboard-response","224","78169","0.0-312.0","","","","","310.70000000298023","img/food6.png","74","311.5","1","1","","2","1","1,0.7,0,1,0.7,0,0.7,0,1","1,0.7,0,1,0.7,0,0.7,0,1","1",""
"","html-keyboard-response","225","78472","0.0-313.0","","","","","null","<img src=""img/food6.png"" style=""width:200px; border:14px solid green;"">","null","","","","","","","","","",""
"","image-keyboard-response","226","78761","0.0-314.0","","","","","287.5","img/food6.png","74","288.19999998807907","1","1","","2","1","1,0.7,0,1,0.7,0,0.7,0,1","1,0.7,0,1,0.7,0,0.7,0,1","1",""
"","html-keyboard-response","227","79063","0.0-315.0","","","","","null","<img src=""img/food6.png"" style=""width:200px; border:14px solid green;"">","null","","","","","","","","","",""
"","image-keyboard-response","228","79529","0.0-316.0","","","","","465.40000000596046","img/food1.png","74","466","1","1","","1","1","1,0.7,0,1,0.7,0,0.7,0,1","1,0.7,0,1,0.7,0,0.7,0,1","1",""
"","html-keyboard-response","229","79831","0.0-317.0","","","","","null","<img src=""img/food1.png"" style=""width:200px; border:14px solid green;"">","null","","","","","","","","","",""
"","image-keyboard-response","230","80265","0.0-318.0","","","","","433.20000000298023","img/food6.png","74","433.80000001192093","1","1","","2","1","1,0.7,0,1,0.7,0,0.7,0,1","1,0.7,0,1,0.7,0,0.7,0,1","1",""
"","html-keyboard-response","231","80567","0.0-319.0","","","","","null","<img src=""img/food6.png"" style=""width:200px; border:14px solid green;"">","null","","","","","","","","","",""
"","image-keyboard-response","232","80921","0.0-320.0","","","","","353.20000000298023","img/food6.png","74","353.80000001192093","1","1","","2","1","1,0.7,0,1,0.7,0,0.7,0,1","1,0.7,0,1,0.7,0,0.7,0,1","1",""
"","html-keyboard-response","233","81223","0.0-321.0","","","","","null","<img src=""img/food6.png"" style=""width:200px; border:14px solid green;"">","null","","","","","","","","","",""
"","image-keyboard-response","234","81697","0.0-322.0","","","","","472.8999999910593","img/food1.png","74","473.5","1","1","","1","1","1,0.7,0,1,0.7,0,0.7,0,1","1,0.7,0,1,0.7,0,0.7,0,1","1",""
"","html-keyboard-response","235","81999","0.0-323.0","","","","","null","<img src=""img/food1.png"" style=""width:200px; border:14px solid green;"">","null","","","","","","","","","",""
"","image-keyboard-response","236","82337","0.0-324.0","","","","","337.3999999910593","img/food1.png","74","338","1","1","","1","1","1,0.7,0,1,0.7,0,0.7,0,1","1,0.7,0,1,0.7,0,0.7,0,1","1",""
"","html-keyboard-response","237","82640","0.0-325.0","","","","","null","<img src=""img/food1.png"" style=""width:200px; border:14px solid green;"">","null","","","","","","","","","",""
"","image-keyboard-response","238","82953","0.0-326.0","","","","","311.5","img/food1.png","74","312.09999999403954","1","1","","1","1","1,0.7,0,1,0.7,0,0.7,0,1","1,0.7,0,1,0.7,0,0.7,0,1","1",""
"","html-keyboard-response","239","83256","0.0-327.0","","","","","null","<img src=""img/food1.png"" style=""width:200px; border:14px solid green;"">","null","","","","","","","","","",""
"","image-keyboard-response","240","83569","0.0-328.0","","","","","312.09999999403954","img/food1.png","74","312.79999999701977","1","1","","1","1","1,0.7,0,1,0.7,0,0.7,0,1","1,0.7,0,1,0.7,0,0.7,0,1","1",""
"","html-keyboard-response","241","83871","0.0-329.0","","","","","null","<img src=""img/food1.png"" style=""width:200px; border:14px solid green;"">","null","","","","","","","","","",""
"","image-keyboard-response","242","84193","0.0-330.0","","","","","321.29999999701977","img/food1.png","74","321.90000000596046","1","1","","1","1","1,0.7,0,1,0.7,0,0.7,0,1","1,0.7,0,1,0.7,0,0.7,0,1","1",""
"","html-keyboard-response","243","84495","0.0-331.0","","","","","null","<img src=""img/food1.png"" style=""width:200px; border:14px solid green;"">","null","","","","","","","","","",""
"","image-keyboard-response","244","84929","0.0-332.0","","","","","433.59999999403954","img/food5.png","74","434.20000000298023","1","1","","3","1","1,0.7,0,1,0.7,0,0.7,0,1","1,0.7,0,1,0.7,0,0.7,0,1","1",""
"","html-keyboard-response","245","85235","0.0-333.0","","","","","null","<img src=""img/food5.png"" style=""width:200px; border:14px solid green;"">","null","","","","","","","","","",""
"","image-keyboard-response","246","85513","0.0-334.0","","","","","277.5","img/food5.png","74","278","1","1","","3","1","1,0.7,0,1,0.7,0,0.7,0,1","1,0.7,0,1,0.7,0,0.7,0,1","1",""
"","html-keyboard-response","247","85816","0.0-335.0","","","","","null","<img src=""img/food5.png"" style=""width:200px; border:14px solid green;"">","null","","","","","","","","","",""
"","image-keyboard-response","248","86017","0.0-336.0","","","","","200.20000000298023","img/food5.png","74","200.79999999701977","1","1","","3","1","1,0.7,0,1,0.7,0,0.7,0,1","1,0.7,0,1,0.7,0,0.7,0,1","1",""
"","html-keyboard-response","249","86321","0.0-337.0","","","","","null","<img src=""img/food5.png"" style=""width:200px; border:14px solid green;"">","null","","","","","","","","","",""
"","image-keyboard-response","250","86409","0.0-338.0","","","","","87","img/food5.png","74","87.79999999701977","1","1","","3","1","1,0.7,0,1,0.7,0,0.7,0,1","1,0.7,0,1,0.7,0,0.7,0,1","1",""
"","html-keyboard-response","251","86711","0.0-339.0","","","","","null","<img src=""img/food5.png"" style=""width:200px; border:14px solid green;"">","null","","","","","","","","","",""
"","image-keyboard-response","252","86777","0.0-340.0","","","","","65.29999999701977","img/food5.png","74","65.90000000596046","1","1","","3","1","1,0.7,0,1,0.7,0,0.7,0,1","1,0.7,0,1,0.7,0,0.7,0,1","1",""
"","html-keyboard-response","253","87078","0.0-341.0","","","","","null","<img src=""img/food5.png"" style=""width:200px; border:14px solid green;"">","null","","","","","","","","","",""
"","image-keyboard-response","254","87113","0.0-342.0","","","","","34","img/food6.png","74","34.70000000298023","1","1","","2","1","1,0.7,0,1,0.7,0,0.7,0,1","1,0.7,0,1,0.7,0,0.7,0,1","1",""
"","html-keyboard-response","255","87415","0.0-343.0","","","","","null","<img src=""img/food6.png"" style=""width:200px; border:14px solid green;"">","null","","","","","","","","","",""
"","image-keyboard-response","256","87473","0.0-344.0","","","","","57.20000000298023","img/food1.png","74","57.900000005960464","1","1","","1","1","1,0.7,0,1,0.7,0,0.7,0,1","1,0.7,0,1,0.7,0,0.7,0,1","1",""
"","html-keyboard-response","257","87775","0.0-345.0","","","","","null","<img src=""img/food1.png"" style=""width:200px; border:14px solid green;"">","null","","","","","","","","","",""
"","image-keyboard-response","258","88065","0.0-346.0","","","","","289.19999998807907","img/food6.png","74","289.80000001192093","1","1","","2","1","1,0.7,0,1,0.7,0,0.7,0,1","1,0.7,0,1,0.7,0,0.7,0,1","1",""
"","html-keyboard-response","259","88369","0.0-347.0","","","","","null","<img src=""img/food6.png"" style=""width:200px; border:14px solid green;"">","null","","","","","","","","","",""
"","image-keyboard-response","260","88641","0.0-348.0","","","","","270.8999999910593","img/food5.png","74","271.5","1","0","","3","1","1,0.7,0,1,0.7,0,0.7,0,1","1,0.7,0,1,0.7,0,0.7,0,1","1",""
"","html-keyboard-response","261","88943","0.0-349.0","","","","","null","<img src=""img/food5.png"" style=""width:200px;border:14px solid red;"">","null","","","","","","","","","",""
"","image-keyboard-response","262","89185","0.0-350.0","","","","","241.20000000298023","img/food6.png","74","241.70000000298023","1","1","","2","1","1,0.7,0,1,0.7,0,0.7,0,1","1,0.7,0,1,0.7,0,0.7,0,1","1",""
"","html-keyboard-response","263","89487","0.0-351.0","","","","","null","<img src=""img/food6.png"" style=""width:200px; border:14px solid green;"">","null","","","","","","","","","",""
"","image-keyboard-response","264","89729","0.0-352.0","","","","","241.40000000596046","img/food6.png","74","242","1","1","","2","1","1,0.7,0,1,0.7,0,0.7,0,1","1,0.7,0,1,0.7,0,0.7,0,1","1",""
"","html-keyboard-response","265","90030","0.0-353.0","","","","","null","<img src=""img/food6.png"" style=""width:200px; border:14px solid green;"">","null","","","","","","","","","",""
"","image-keyboard-response","266","90313","0.0-354.0","","","","","281.70000000298023","img/food1.png","74","282.3999999910593","1","1","","1","1","1,0.7,0,1,0.7,0,0.7,0,1","1,0.7,0,1,0.7,0,0.7,0,1","1",""
"","html-keyboard-response","267","90617","0.0-355.0","","","","","null","<img src=""img/food1.png"" style=""width:200px; border:14px solid green;"">","null","","","","","","","","","",""
"","image-keyboard-response","268","90857","0.0-356.0","","","","","239.29999999701977","img/food6.png","74","239.8999999910593","1","1","","2","1","1,0.7,0,1,0.7,0,0.7,0,1","1,0.7,0,1,0.7,0,0.7,0,1","1",""
"","html-keyboard-response","269","91159","0.0-357.0","","","","","null","<img src=""img/food6.png"" style=""width:200px; border:14px solid green;"">","null","","","","","","","","","",""
"","image-keyboard-response","270","91385","0.0-358.0","","","","","225.5","img/food1.png","74","226.09999999403954","1","1","","1","1","1,0.7,0,1,0.7,0,0.7,0,1","1,0.7,0,1,0.7,0,0.7,0,1","1",""
"","html-keyboard-response","271","91687","0.0-359.0","","","","","null","<img src=""img/food1.png"" style=""width:200px; border:14px solid green;"">","null","","","","","","","","","",""
"","image-keyboard-response","272","91921","0.0-360.0","","","","","233.1000000089407","img/food5.png","74","233.79999999701977","1","1","","3","1","1,0.7,0,1,0.7,0,0.7,0,1","1,0.7,0,1,0.7,0,0.7,0,1","1",""
"","html-keyboard-response","273","92223","0.0-361.0","","","","","null","<img src=""img/food5.png"" style=""width:200px; border:14px solid green;"">","null","","","","","","","","","",""
"","image-keyboard-response","274","92457","0.0-362.0","","","","","233.20000000298023","img/food5.png","74","233.90000000596046","1","1","","3","1","1,0.7,0,1,0.7,0,0.7,0,1","1,0.7,0,1,0.7,0,0.7,0,1","1",""
"","html-keyboard-response","275","92759","0.0-363.0","","","","","null","<img src=""img/food5.png"" style=""width:200px; border:14px solid green;"">","null","","","","","","","","","",""
"","image-keyboard-response","276","93009","0.0-364.0","","","","","249.20000000298023","img/food5.png","74","249.90000000596046","1","0","","3","1","1,0.7,0,1,0.7,0,0.7,0,1","1,0.7,0,1,0.7,0,0.7,0,1","1",""
"","html-keyboard-response","277","93315","0.0-365.0","","","","","null","<img src=""img/food5.png"" style=""width:200px;border:14px solid red;"">","null","","","","","","","","","",""
"","image-keyboard-response","278","93593","0.0-366.0","","","","","277.20000000298023","img/food6.png","74","277.6000000089407","1","1","","2","1","1,0.7,0,1,0.7,0,0.7,0,1","1,0.7,0,1,0.7,0,0.7,0,1","1",""
"","html-keyboard-response","279","93895","0.0-367.0","","","","","null","<img src=""img/food6.png"" style=""width:200px; border:14px solid green;"">","null","","","","","","","","","",""
"","image-keyboard-response","280","94137","0.0-368.0","","","","","241.20000000298023","img/food1.png","74","241.70000000298023","1","1","","1","1","1,0.7,0,1,0.7,0,0.7,0,1","1,0.7,0,1,0.7,0,0.7,0,1","1",""
"","html-keyboard-response","281","94439","0.0-369.0","","","","","null","<img src=""img/food1.png"" style=""width:200px; border:14px solid green;"">","null","","","","","","","","","",""
"","image-keyboard-response","282","94705","0.0-370.0","","","","","265.1000000089407","img/food5.png","74","265.80000001192093","1","1","","3","1","1,0.7,0,1,0.7,0,0.7,0,1","1,0.7,0,1,0.7,0,0.7,0,1","1",""
"","html-keyboard-response","283","95008","0.0-371.0","","","","","null","<img src=""img/food5.png"" style=""width:200px; border:14px solid green;"">","null","","","","","","","","","",""
"","image-keyboard-response","284","95225","0.0-372.0","","","","","215.8999999910593","img/food5.png","74","216.69999998807907","1","0","","3","1","1,0.7,0,1,0.7,0,0.7,0,1","1,0.7,0,1,0.7,0,0.7,0,1","1",""
"","html-keyboard-response","285","95528","0.0-373.0","","","","","null","<img src=""img/food5.png"" style=""width:200px;border:14px solid red;"">","null","","","","","","","","","",""
"","image-keyboard-response","286","95777","0.0-374.0","","","","","248.3999999910593","img/food5.png","74","249","1","0","","3","1","1,0.7,0,1,0.7,0,0.7,0,1","1,0.7,0,1,0.7,0,0.7,0,1","1",""
"","html-keyboard-response","287","96079","0.0-375.0","","","","","null","<img src=""img/food5.png"" style=""width:200px;border:14px solid red;"">","null","","","","","","","","","",""
"","image-keyboard-response","288","96337","0.0-376.0","","","","","256.79999999701977","img/food5.png","74","257.5","1","1","","3","1","1,0.7,0,1,0.7,0,0.7,0,1","1,0.7,0,1,0.7,0,0.7,0,1","1",""
"","html-keyboard-response","289","96643","0.0-377.0","","","","","null","<img src=""img/food5.png"" style=""width:200px; border:14px solid green;"">","null","","","","","","","","","",""
"","image-keyboard-response","290","96825","0.0-378.0","","","","","181.59999999403954","img/food6.png","74","182.30000001192093","1","1","","2","1","1,0.7,0,1,0.7,0,0.7,0,1","1,0.7,0,1,0.7,0,0.7,0,1","1",""
"","html-keyboard-response","291","97127","0.0-379.0","","","","","null","<img src=""img/food6.png"" style=""width:200px; border:14px solid green;"">","null","","","","","","","","","",""
"","image-keyboard-response","292","97129","0.0-380.0","","","","","1.7000000029802322","img/food5.png","74","2.4000000059604645","1","0","","3","1","1,0.7,0,1,0.7,0,0.7,0,1","1,0.7,0,1,0.7,0,0.7,0,1","1",""
"","html-keyboard-response","293","97432","0.0-381.0","","","","","null","<img src=""img/food5.png"" style=""width:200px;border:14px solid red;"">","null","","","","","","","","","",""
"","image-keyboard-response","294","97929","0.0-382.0","","","","","496.29999999701977","img/food1.png","74","497","1","1","","1","1","1,0.7,0,1,0.7,0,0.7,0,1","1,0.7,0,1,0.7,0,0.7,0,1","1",""
"","html-keyboard-response","295","98233","0.0-383.0","","","","","null","<img src=""img/food1.png"" style=""width:200px; border:14px solid green;"">","null","","","","","","","","","",""
"","image-keyboard-response","296","98257","0.0-384.0","","","","","23.299999997019768","img/food1.png","74","24","1","1","","1","1","1,0.7,0,1,0.7,0,0.7,0,1","1,0.7,0,1,0.7,0,0.7,0,1","1",""
"","html-keyboard-response","297","98559","0.0-385.0","","","","","null","<img src=""img/food1.png"" style=""width:200px; border:14px solid green;"">","null","","","","","","","","","",""
"","image-keyboard-response","298","98593","0.0-386.0","","","","","33.20000000298023","img/food1.png","74","33.79999999701977","1","1","","1","1","1,0.7,0,1,0.7,0,0.7,0,1","1,0.7,0,1,0.7,0,0.7,0,1","1",""
"","html-keyboard-response","299","98895","0.0-387.0","","","","","null","<img src=""img/food1.png"" style=""width:200px; border:14px solid green;"">","null","","","","","","","","","",""
"","image-keyboard-response","300","98977","0.0-388.0","","","","","81.79999999701977","img/food1.png","74","82.5","1","1","","1","1","1,0.7,0,1,0.7,0,0.7,0,1","1,0.7,0,1,0.7,0,0.7,0,1","1",""
"","html-keyboard-response","301","99282","0.0-389.0","","","","","null","<img src=""img/food1.png"" style=""width:200px; border:14px solid green;"">","null","","","","","","","","","",""
"","image-keyboard-response","302","99369","0.0-390.0","","","","","86.79999999701977","img/food5.png","74","87.5","1","0","","3","1","1,0.7,0,1,0.7,0,0.7,0,1","1,0.7,0,1,0.7,0,0.7,0,1","1",""
"","html-keyboard-response","303","99673","0.0-391.0","","","","","null","<img src=""img/food5.png"" style=""width:200px;border:14px solid red;"">","null","","","","","","","","","",""
"","image-keyboard-response","304","100249","0.0-392.0","","","","","575.7000000029802","img/food5.png","76","576.2999999970198","3","1","","3","1","1,0.7,0,1,0.7,0,0.7,0,1","1,0.7,0,1,0.7,0,0.7,0,1","1",""
"","html-keyboard-response","305","100551","0.0-393.0","","","","","null","<img src=""img/food5.png"" style=""width:200px; border:14px solid green;"">","null","","","","","","","","","",""
"","image-keyboard-response","306","101025","0.0-394.0","","","","","473.29999999701977","img/food1.png","74","474","1","1","","1","1","1,0.7,0,1,0.7,0,0.7,0,1","1,0.7,0,1,0.7,0,0.7,0,1","1",""
"","html-keyboard-response","307","101330","0.0-395.0","","","","","null","<img src=""img/food1.png"" style=""width:200px; border:14px solid green;"">","null","","","","","","","","","",""
"","image-keyboard-response","308","101689","0.0-396.0","","","","","359.20000000298023","img/food1.png","74","359.59999999403954","1","1","","1","1","1,0.7,0,1,0.7,0,0.7,0,1","1,0.7,0,1,0.7,0,0.7,0,1","1",""
"","html-keyboard-response","309","101995","0.0-397.0","","","","","null","<img src=""img/food1.png"" style=""width:200px; border:14px solid green;"">","null","","","","","","","","","",""
"","image-keyboard-response","310","102441","0.0-398.0","","","","","445.6000000089407","img/food5.png","76","446.29999999701977","3","1","","3","1","1,0.7,0,1,0.7,0,0.7,0,1","1,0.7,0,1,0.7,0,0.7,0,1","1",""
"","html-keyboard-response","311","102743","0.0-399.0","","","","","null","<img src=""img/food5.png"" style=""width:200px; border:14px solid green;"">","null","","","","","","","","","",""
"","image-keyboard-response","312","103177","0.0-400.0","","","","","433.29999999701977","img/food1.png","74","433.79999999701977","1","1","","1","1","1,0.7,0,1,0.7,0,0.7,0,1","1,0.7,0,1,0.7,0,0.7,0,1","1",""
"","html-keyboard-response","313","103479","0.0-401.0","","","","","null","<img src=""img/food1.png"" style=""width:200px; border:14px solid green;"">","null","","","","","","","","","",""
"","image-keyboard-response","314","103849","0.0-402.0","","","","","369.29999999701977","img/food1.png","74","369.90000000596046","1","1","","1","1","1,0.7,0,1,0.7,0,0.7,0,1","1,0.7,0,1,0.7,0,0.7,0,1","1",""
"","html-keyboard-response","315","104154","0.0-403.0","","","","","null","<img src=""img/food1.png"" style=""width:200px; border:14px solid green;"">","null","","","","","","","","","",""
"","image-keyboard-response","316","104481","0.0-404.0","","","","","326.20000000298023","img/food1.png","74","326.70000000298023","1","1","","1","1","1,0.7,0,1,0.7,0,0.7,0,1","1,0.7,0,1,0.7,0,0.7,0,1","1",""
"","html-keyboard-response","317","104783","0.0-405.0","","","","","null","<img src=""img/food1.png"" style=""width:200px; border:14px solid green;"">","null","","","","","","","","","",""
"","image-keyboard-response","318","105265","0.0-406.0","","","","","481.40000000596046","img/food6.png","74","482.09999999403954","1","1","","2","1","1,0.7,0,1,0.7,0,0.7,0,1","1,0.7,0,1,0.7,0,0.7,0,1","1",""
"","html-keyboard-response","319","105566","0.0-407.0","","","","","null","<img src=""img/food6.png"" style=""width:200px; border:14px solid green;"">","null","","","","","","","","","",""
"","image-keyboard-response","320","106001","0.0-408.0","","","","","434.20000000298023","img/food1.png","74","434.8999999910593","1","1","","1","1","1,0.7,0,1,0.7,0,0.7,0,1","1,0.7,0,1,0.7,0,0.7,0,1","1",""
"","html-keyboard-response","321","106308","0.0-409.0","","","","","null","<img src=""img/food1.png"" style=""width:200px; border:14px solid green;"">","null","","","","","","","","","",""
"","image-keyboard-response","322","106674","0.0-410.0","","","","","364.90000000596046","img/food6.png","74","365.3999999910593","1","1","","2","1","1,0.7,0,1,0.7,0,0.7,0,1","1,0.7,0,1,0.7,0,0.7,0,1","1",""
"","html-keyboard-response","323","106975","0.0-411.0","","","","","null","<img src=""img/food6.png"" style=""width:200px; border:14px solid green;"">","null","","","","","","","","","",""
"","image-keyboard-response","324","107289","0.0-412.0","","","","","313.29999999701977","img/food1.png","74","313.80000001192093","1","1","","1","1","1,0.7,0,1,0.7,0,0.7,0,1","1,0.7,0,1,0.7,0,0.7,0,1","1",""
"","html-keyboard-response","325","107591","0.0-413.0","","","","","null","<img src=""img/food1.png"" style=""width:200px; border:14px solid green;"">","null","","","","","","","","","",""
"","image-keyboard-response","326","108017","0.0-414.0","","","","","425.5","img/food5.png","76","426.29999999701977","3","1","","3","1","1,0.7,0,1,0.7,0,0.7,0,1","1,0.7,0,1,0.7,0,0.7,0,1","1",""
"","html-keyboard-response","327","108319","0.0-415.0","","","","","null","<img src=""img/food5.png"" style=""width:200px; border:14px solid green;"">","null","","","","","","","","","",""
"","image-keyboard-response","328","108801","0.0-416.0","","","","","481.09999999403954","img/food6.png","74","481.90000000596046","1","1","","2","1","1,0.7,0,1,0.7,0,0.7,0,1","1,0.7,0,1,0.7,0,0.7,0,1","1",""
"","html-keyboard-response","329","109106","0.0-417.0","","","","","null","<img src=""img/food6.png"" style=""width:200px; border:14px solid green;"">","null","","","","","","","","","",""
"","image-keyboard-response","330","109402","0.0-418.0","","","","","294.59999999403954","img/food6.png","74","295.20000000298023","1","1","","2","1","1,0.7,0,1,0.7,0,0.7,0,1","1,0.7,0,1,0.7,0,0.7,0,1","1",""
"","html-keyboard-response","331","109704","0.0-419.0","","","","","null","<img src=""img/food6.png"" style=""width:200px; border:14px solid green;"">","null","","","","","","","","","",""
"","image-keyboard-response","332","110122","0.0-420.0","","","","","417.1000000089407","img/food5.png","76","417.79999999701977","3","1","","3","1","1,0.7,0,1,0.7,0,0.7,0,1","1,0.7,0,1,0.7,0,0.7,0,1","1",""
"","html-keyboard-response","333","110424","0.0-421.0","","","","","null","<img src=""img/food5.png"" style=""width:200px; border:14px solid green;"">","null","","","","","","","","","",""
"","image-keyboard-response","334","110834","0.0-422.0","","","","","408.79999999701977","img/food6.png","74","409.40000000596046","1","1","","2","1","1,0.7,0,1,0.7,0,0.7,0,1","1,0.7,0,1,0.7,0,0.7,0,1","1",""
"","html-keyboard-response","335","111137","0.0-423.0","","","","","null","<img src=""img/food6.png"" style=""width:200px; border:14px solid green;"">","null","","","","","","","","","",""
"","image-keyboard-response","336","111514","0.0-424.0","","","","","376","img/food1.png","74","376.69999998807907","1","1","","1","1","1,0.7,0,1,0.7,0,0.7,0,1","1,0.7,0,1,0.7,0,0.7,0,1","1",""
"","html-keyboard-response","337","111816","0.0-425.0","","","","","null","<img src=""img/food1.png"" style=""width:200px; border:14px solid green;"">","null","","","","","","","","","",""
"","image-keyboard-response","338","112210","0.0-426.0","","","","","393.20000000298023","img/food6.png","74","394","1","1","","2","1","1,0.7,0,1,0.7,0,0.7,0,1","1,0.7,0,1,0.7,0,0.7,0,1","1",""
"","html-keyboard-response","339","112512","0.0-427.0","","","","","null","<img src=""img/food6.png"" style=""width:200px; border:14px solid green;"">","null","","","","","","","","","",""
"","image-keyboard-response","340","112986","0.0-428.0","","","","","473.1000000089407","img/food5.png","76","473.90000000596046","3","1","","3","1","1,0.7,0,1,0.7,0,0.7,0,1","1,0.7,0,1,0.7,0,0.7,0,1","1",""
"","html-keyboard-response","341","113292","0.0-429.0","","","","","null","<img src=""img/food5.png"" style=""width:200px; border:14px solid green;"">","null","","","","","","","","","",""
"","image-keyboard-response","342","113650","0.0-430.0","","","","","357.20000000298023","img/food1.png","74","357.8999999910593","1","1","","1","1","1,0.7,0,1,0.7,0,0.7,0,1","1,0.7,0,1,0.7,0,0.7,0,1","1",""
"","html-keyboard-response","343","113954","0.0-431.0","","","","","null","<img src=""img/food1.png"" style=""width:200px; border:14px solid green;"">","null","","","","","","","","","",""
"","image-keyboard-response","344","114354","0.0-432.0","","","","","399.29999999701977","img/food5.png","74","399.90000000596046","1","1","","3","1","1,0.7,0,1,0.7,0,0.7,0,1","1,0.7,0,1,0.7,0,0.7,0,1","1",""
"","html-keyboard-response","345","114656","0.0-433.0","","","","","null","<img src=""img/food5.png"" style=""width:200px; border:14px solid green;"">","null","","","","","","","","","",""
"","image-keyboard-response","346","115226","0.0-434.0","","","","","568.7999999970198","img/food5.png","76","569.3999999910593","3","1","","3","1","1,0.7,0,1,0.7,0,0.7,0,1","1,0.7,0,1,0.7,0,0.7,0,1","1",""
"","html-keyboard-response","347","115532","0.0-435.0","","","","","null","<img src=""img/food5.png"" style=""width:200px; border:14px solid green;"">","null","","","","","","","","","",""
"","image-keyboard-response","348","115874","0.0-436.0","","","","","341","img/food5.png","76","341.6000000089407","3","1","","3","1","1,0.7,0,1,0.7,0,0.7,0,1","1,0.7,0,1,0.7,0,0.7,0,1","1",""
"","html-keyboard-response","349","116177","0.0-437.0","","","","","null","<img src=""img/food5.png"" style=""width:200px; border:14px solid green;"">","null","","","","","","","","","",""
"","image-keyboard-response","350","116482","0.0-438.0","","","","","304.29999999701977","img/food5.png","76","304.80000001192093","3","1","","3","1","1,0.7,0,1,0.7,0,0.7,0,1","1,0.7,0,1,0.7,0,0.7,0,1","1",""
"","html-keyboard-response","351","116787","0.0-439.0","","","","","null","<img src=""img/food5.png"" style=""width:200px; border:14px solid green;"">","null","","","","","","","","","",""
"","image-keyboard-response","352","117194","0.0-440.0","","","","","406.3999999910593","img/food1.png","74","407.09999999403954","1","1","","1","1","1,0.7,0,1,0.7,0,0.7,0,1","1,0.7,0,1,0.7,0,0.7,0,1","1",""
"","html-keyboard-response","353","117495","0.0-441.0","","","","","null","<img src=""img/food1.png"" style=""width:200px; border:14px solid green;"">","null","","","","","","","","","",""
"","image-keyboard-response","354","117842","0.0-442.0","","","","","346.1000000089407","img/food1.png","74","346.69999998807907","1","1","","1","1","1,0.7,0,1,0.7,0,0.7,0,1","1,0.7,0,1,0.7,0,0.7,0,1","1",""
"","html-keyboard-response","355","118144","0.0-443.0","","","","","null","<img src=""img/food1.png"" style=""width:200px; border:14px solid green;"">","null","","","","","","","","","",""
"","image-keyboard-response","356","118586","0.0-444.0","","","","","441.20000000298023","img/food5.png","76","441.90000000596046","3","1","","3","1","1,0.7,0,1,0.7,0,0.7,0,1","1,0.7,0,1,0.7,0,0.7,0,1","1",""
"","html-keyboard-response","357","118892","0.0-445.0","","","","","null","<img src=""img/food5.png"" style=""width:200px; border:14px solid green;"">","null","","","","","","","","","",""
"","image-keyboard-response","358","119322","0.0-446.0","","","","","428.8999999910593","img/food1.png","74","429.5","1","1","","1","1","1,0.7,0,1,0.7,0,0.7,0,1","1,0.7,0,1,0.7,0,0.7,0,1","1",""
"","html-keyboard-response","359","119625","0.0-447.0","","","","","null","<img src=""img/food1.png"" style=""width:200px; border:14px solid green;"">","null","","","","","","","","","",""
"","image-keyboard-response","360","120274","0.0-448.0","","","","","647.8999999910593","img/food5.png","76","648.5","3","1","","3","1","1,0.7,0,1,0.7,0,0.7,0,1","1,0.7,0,1,0.7,0,0.7,0,1","1",""
"","html-keyboard-response","361","120580","0.0-449.0","","","","","null","<img src=""img/food5.png"" style=""width:200px; border:14px solid green;"">","null","","","","","","","","","",""
"","image-keyboard-response","362","120978","0.0-450.0","","","","","397","img/food6.png","74","397.5","1","1","","2","1","1,0.7,0,1,0.7,0,0.7,0,1","1,0.7,0,1,0.7,0,0.7,0,1","1",""
"","html-keyboard-response","363","121280","0.0-451.0","","","","","null","<img src=""img/food6.png"" style=""width:200px; border:14px solid green;"">","null","","","","","","","","","",""
"","image-keyboard-response","364","121610","0.0-452.0","","","","","329.5","img/food6.png","74","330.19999998807907","1","1","","2","1","1,0.7,0,1,0.7,0,0.7,0,1","1,0.7,0,1,0.7,0,0.7,0,1","1",""
"","html-keyboard-response","365","121911","0.0-453.0","","","","","null","<img src=""img/food6.png"" style=""width:200px; border:14px solid green;"">","null","","","","","","","","","",""
"","html-keyboard-response","366","122791","0.0-454.0","","","","","","","","","","","","","","","","",""
"","instructions","367","124153","0.0-455.0","","","","[{""page_index"":0,""viewing_time"":1361.2999999970198}]","1361.5","","","","","","","","","","","",""
"","survey-text","368","127222","0.0-456.0","","","","","3065.6000000089407","","","","","","","","","","","","{""Q0"":""A2XS49LRNX8PD4""}"
