"success","trial_type","trial_index","time_elapsed","internal_node_id","assignmentID","mturkID","hitID","view_history","rt","stimulus","key_press","reactionTime","a","r","s","reward_cond","responses"
"true","fullscreen","0","4453","0.0-0.0","352YTHGROWZ3OF58FOY57NE5271H48","A2Y7L7R5UTQ5R2","3FW4EL5A3LANKRP91N782LFHPY722Q","","","","","","","","","",""
"","instructions","1","28332","0.0-1.0","352YTHGROWZ3OF58FOY57NE5271H48","A2Y7L7R5UTQ5R2","3FW4EL5A3LANKRP91N782LFHPY722Q","[{""page_index"":0,""viewing_time"":6631},{""page_index"":1,""viewing_time"":1304},{""page_index"":2,""viewing_time"":982},{""page_index"":3,""viewing_time"":4889},{""page_index"":4,""viewing_time"":4693},{""page_index"":5,""viewing_time"":3542},{""page_index"":6,""viewing_time"":1834}]","23877","","","","","","","",""
"","image-keyboard-response","2","31035","0.0-2.0","352YTHGROWZ3OF58FOY57NE5271H48","A2Y7L7R5UTQ5R2","3FW4EL5A3LANKRP91N782LFHPY722Q","","2699","img/food3.png","74","2702","1","1","2","0,0.5,0.8,0.5,0,0.8,0,0.5,0.8,0,0.8,0.5",""
"","html-keyboard-response","3","31339","0.0-3.0","352YTHGROWZ3OF58FOY57NE5271H48","A2Y7L7R5UTQ5R2","3FW4EL5A3LANKRP91N782LFHPY722Q","","null","<img src=""img/food3.png"" style=""width:200px; border:14px solid green;"">","null","","","","","",""
"","image-keyboard-response","4","32083","0.0-4.0","352YTHGROWZ3OF58FOY57NE5271H48","A2Y7L7R5UTQ5R2","3FW4EL5A3LANKRP91N782LFHPY722Q","","743","img/food4.png","75","744","2","0","1","0,0.5,0.8,0.5,0,0.8,0,0.5,0.8,0,0.8,0.5",""
"","html-keyboard-response","5","32385","0.0-5.0","352YTHGROWZ3OF58FOY57NE5271H48","A2Y7L7R5UTQ5R2","3FW4EL5A3LANKRP91N782LFHPY722Q","","null","<img src=""img/food4.png"" style=""width:200px;border:14px solid red;"">","null","","","","","",""
"","image-keyboard-response","6","32967","0.0-6.0","352YTHGROWZ3OF58FOY57NE5271H48","A2Y7L7R5UTQ5R2","3FW4EL5A3LANKRP91N782LFHPY722Q","","580","img/food3.png","76","582","3","1","2","0,0.5,0.8,0.5,0,0.8,0,0.5,0.8,0,0.8,0.5",""
"","html-keyboard-response","7","33268","0.0-7.0","352YTHGROWZ3OF58FOY57NE5271H48","A2Y7L7R5UTQ5R2","3FW4EL5A3LANKRP91N782LFHPY722Q","","null","<img src=""img/food3.png"" style=""width:200px; border:14px solid green;"">","null","","","","","",""
"","image-keyboard-response","8","34038","0.0-8.0","352YTHGROWZ3OF58FOY57NE5271H48","A2Y7L7R5UTQ5R2","3FW4EL5A3LANKRP91N782LFHPY722Q","","769","img/food1.png","75","770","2","0","3","0,0.5,0.8,0.5,0,0.8,0,0.5,0.8,0,0.8,0.5",""
"","html-keyboard-response","9","34340","0.0-9.0","352YTHGROWZ3OF58FOY57NE5271H48","A2Y7L7R5UTQ5R2","3FW4EL5A3LANKRP91N782LFHPY722Q","","null","<img src=""img/food1.png"" style=""width:200px;border:14px solid red;"">","null","","","","","",""
"","image-keyboard-response","10","35313","0.0-10.0","352YTHGROWZ3OF58FOY57NE5271H48","A2Y7L7R5UTQ5R2","3FW4EL5A3LANKRP91N782LFHPY722Q","","971","img/food1.png","74","973","1","0","3","0,0.5,0.8,0.5,0,0.8,0,0.5,0.8,0,0.8,0.5",""
"","html-keyboard-response","11","35614","0.0-11.0","352YTHGROWZ3OF58FOY57NE5271H48","A2Y7L7R5UTQ5R2","3FW4EL5A3LANKRP91N782LFHPY722Q","","null","<img src=""img/food1.png"" style=""width:200px;border:14px solid red;"">","null","","","","","",""
"","image-keyboard-response","12","36214","0.0-12.0","352YTHGROWZ3OF58FOY57NE5271H48","A2Y7L7R5UTQ5R2","3FW4EL5A3LANKRP91N782LFHPY722Q","","599","img/food4.png","75","599","2","1","1","0,0.5,0.8,0.5,0,0.8,0,0.5,0.8,0,0.8,0.5",""
"","html-keyboard-response","13","36515","0.0-13.0","352YTHGROWZ3OF58FOY57NE5271H48","A2Y7L7R5UTQ5R2","3FW4EL5A3LANKRP91N782LFHPY722Q","","null","<img src=""img/food4.png"" style=""width:200px; border:14px solid green;"">","null","","","","","",""
"","image-keyboard-response","14","37809","0.0-14.0","352YTHGROWZ3OF58FOY57NE5271H48","A2Y7L7R5UTQ5R2","3FW4EL5A3LANKRP91N782LFHPY722Q","","1293","img/food1.png","75","1294","2","0","3","0,0.5,0.8,0.5,0,0.8,0,0.5,0.8,0,0.8,0.5",""
"","html-keyboard-response","15","38111","0.0-15.0","352YTHGROWZ3OF58FOY57NE5271H48","A2Y7L7R5UTQ5R2","3FW4EL5A3LANKRP91N782LFHPY722Q","","null","<img src=""img/food1.png"" style=""width:200px;border:14px solid red;"">","null","","","","","",""
"","image-keyboard-response","16","38743","0.0-16.0","352YTHGROWZ3OF58FOY57NE5271H48","A2Y7L7R5UTQ5R2","3FW4EL5A3LANKRP91N782LFHPY722Q","","631","img/food1.png","74","632","1","0","3","0,0.5,0.8,0.5,0,0.8,0,0.5,0.8,0,0.8,0.5",""
"","html-keyboard-response","17","39045","0.0-17.0","352YTHGROWZ3OF58FOY57NE5271H48","A2Y7L7R5UTQ5R2","3FW4EL5A3LANKRP91N782LFHPY722Q","","null","<img src=""img/food1.png"" style=""width:200px;border:14px solid red;"">","null","","","","","",""
"","image-keyboard-response","18","39538","0.0-18.0","352YTHGROWZ3OF58FOY57NE5271H48","A2Y7L7R5UTQ5R2","3FW4EL5A3LANKRP91N782LFHPY722Q","","491","img/food4.png","75","493","2","1","1","0,0.5,0.8,0.5,0,0.8,0,0.5,0.8,0,0.8,0.5",""
"","html-keyboard-response","19","39840","0.0-19.0","352YTHGROWZ3OF58FOY57NE5271H48","A2Y7L7R5UTQ5R2","3FW4EL5A3LANKRP91N782LFHPY722Q","","null","<img src=""img/food4.png"" style=""width:200px; border:14px solid green;"">","null","","","","","",""
"","image-keyboard-response","20","40441","0.0-20.0","352YTHGROWZ3OF58FOY57NE5271H48","A2Y7L7R5UTQ5R2","3FW4EL5A3LANKRP91N782LFHPY722Q","","599","img/food3.png","76","601","3","1","2","0,0.5,0.8,0.5,0,0.8,0,0.5,0.8,0,0.8,0.5",""
"","html-keyboard-response","21","40742","0.0-21.0","352YTHGROWZ3OF58FOY57NE5271H48","A2Y7L7R5UTQ5R2","3FW4EL5A3LANKRP91N782LFHPY722Q","","null","<img src=""img/food3.png"" style=""width:200px; border:14px solid green;"">","null","","","","","",""
"","image-keyboard-response","22","41123","0.0-22.0","352YTHGROWZ3OF58FOY57NE5271H48","A2Y7L7R5UTQ5R2","3FW4EL5A3LANKRP91N782LFHPY722Q","","380","img/food4.png","75","381","2","1","1","0,0.5,0.8,0.5,0,0.8,0,0.5,0.8,0,0.8,0.5",""
"","html-keyboard-response","23","41425","0.0-23.0","352YTHGROWZ3OF58FOY57NE5271H48","A2Y7L7R5UTQ5R2","3FW4EL5A3LANKRP91N782LFHPY722Q","","null","<img src=""img/food4.png"" style=""width:200px; border:14px solid green;"">","null","","","","","",""
"","image-keyboard-response","24","41946","0.0-24.0","352YTHGROWZ3OF58FOY57NE5271H48","A2Y7L7R5UTQ5R2","3FW4EL5A3LANKRP91N782LFHPY722Q","","520","img/food1.png","74","521","1","0","3","0,0.5,0.8,0.5,0,0.8,0,0.5,0.8,0,0.8,0.5",""
"","html-keyboard-response","25","42248","0.0-25.0","352YTHGROWZ3OF58FOY57NE5271H48","A2Y7L7R5UTQ5R2","3FW4EL5A3LANKRP91N782LFHPY722Q","","null","<img src=""img/food1.png"" style=""width:200px;border:14px solid red;"">","null","","","","","",""
"","image-keyboard-response","26","42597","0.0-26.0","352YTHGROWZ3OF58FOY57NE5271H48","A2Y7L7R5UTQ5R2","3FW4EL5A3LANKRP91N782LFHPY722Q","","349","img/food3.png","75","349","2","0","2","0,0.5,0.8,0.5,0,0.8,0,0.5,0.8,0,0.8,0.5",""
"","html-keyboard-response","27","42899","0.0-27.0","352YTHGROWZ3OF58FOY57NE5271H48","A2Y7L7R5UTQ5R2","3FW4EL5A3LANKRP91N782LFHPY722Q","","null","<img src=""img/food3.png"" style=""width:200px;border:14px solid red;"">","null","","","","","",""
"","image-keyboard-response","28","44387","0.0-28.0","352YTHGROWZ3OF58FOY57NE5271H48","A2Y7L7R5UTQ5R2","3FW4EL5A3LANKRP91N782LFHPY722Q","","1488","img/food3.png","75","1488","2","0","2","0,0.5,0.8,0.5,0,0.8,0,0.5,0.8,0,0.8,0.5",""
"","html-keyboard-response","29","44689","0.0-29.0","352YTHGROWZ3OF58FOY57NE5271H48","A2Y7L7R5UTQ5R2","3FW4EL5A3LANKRP91N782LFHPY722Q","","null","<img src=""img/food3.png"" style=""width:200px;border:14px solid red;"">","null","","","","","",""
"","image-keyboard-response","30","45081","0.0-30.0","352YTHGROWZ3OF58FOY57NE5271H48","A2Y7L7R5UTQ5R2","3FW4EL5A3LANKRP91N782LFHPY722Q","","391","img/food1.png","75","392","2","0","3","0,0.5,0.8,0.5,0,0.8,0,0.5,0.8,0,0.8,0.5",""
"","html-keyboard-response","31","45383","0.0-31.0","352YTHGROWZ3OF58FOY57NE5271H48","A2Y7L7R5UTQ5R2","3FW4EL5A3LANKRP91N782LFHPY722Q","","null","<img src=""img/food1.png"" style=""width:200px;border:14px solid red;"">","null","","","","","",""
"","image-keyboard-response","32","45856","0.0-32.0","352YTHGROWZ3OF58FOY57NE5271H48","A2Y7L7R5UTQ5R2","3FW4EL5A3LANKRP91N782LFHPY722Q","","472","img/food3.png","74","473","1","1","2","0,0.5,0.8,0.5,0,0.8,0,0.5,0.8,0,0.8,0.5",""
"","html-keyboard-response","33","46158","0.0-33.0","352YTHGROWZ3OF58FOY57NE5271H48","A2Y7L7R5UTQ5R2","3FW4EL5A3LANKRP91N782LFHPY722Q","","null","<img src=""img/food3.png"" style=""width:200px; border:14px solid green;"">","null","","","","","",""
"","image-keyboard-response","34","46573","0.0-34.0","352YTHGROWZ3OF58FOY57NE5271H48","A2Y7L7R5UTQ5R2","3FW4EL5A3LANKRP91N782LFHPY722Q","","414","img/food3.png","74","415","1","1","2","0,0.5,0.8,0.5,0,0.8,0,0.5,0.8,0,0.8,0.5",""
"","html-keyboard-response","35","46875","0.0-35.0","352YTHGROWZ3OF58FOY57NE5271H48","A2Y7L7R5UTQ5R2","3FW4EL5A3LANKRP91N782LFHPY722Q","","null","<img src=""img/food3.png"" style=""width:200px; border:14px solid green;"">","null","","","","","",""
"","image-keyboard-response","36","47297","0.0-36.0","352YTHGROWZ3OF58FOY57NE5271H48","A2Y7L7R5UTQ5R2","3FW4EL5A3LANKRP91N782LFHPY722Q","","420","img/food3.png","74","422","1","1","2","0,0.5,0.8,0.5,0,0.8,0,0.5,0.8,0,0.8,0.5",""
"","html-keyboard-response","37","47600","0.0-37.0","352YTHGROWZ3OF58FOY57NE5271H48","A2Y7L7R5UTQ5R2","3FW4EL5A3LANKRP91N782LFHPY722Q","","null","<img src=""img/food3.png"" style=""width:200px; border:14px solid green;"">","null","","","","","",""
"","image-keyboard-response","38","47869","0.0-38.0","352YTHGROWZ3OF58FOY57NE5271H48","A2Y7L7R5UTQ5R2","3FW4EL5A3LANKRP91N782LFHPY722Q","","264","img/food1.png","74","269","1","0","3","0,0.5,0.8,0.5,0,0.8,0,0.5,0.8,0,0.8,0.5",""
"","html-keyboard-response","39","48170","0.0-39.0","352YTHGROWZ3OF58FOY57NE5271H48","A2Y7L7R5UTQ5R2","3FW4EL5A3LANKRP91N782LFHPY722Q","","null","<img src=""img/food1.png"" style=""width:200px;border:14px solid red;"">","null","","","","","",""
"","image-keyboard-response","40","48479","0.0-40.0","352YTHGROWZ3OF58FOY57NE5271H48","A2Y7L7R5UTQ5R2","3FW4EL5A3LANKRP91N782LFHPY722Q","","309","img/food1.png","75","309","2","0","3","0,0.5,0.8,0.5,0,0.8,0,0.5,0.8,0,0.8,0.5",""
"","html-keyboard-response","41","48780","0.0-41.0","352YTHGROWZ3OF58FOY57NE5271H48","A2Y7L7R5UTQ5R2","3FW4EL5A3LANKRP91N782LFHPY722Q","","null","<img src=""img/food1.png"" style=""width:200px;border:14px solid red;"">","null","","","","","",""
"","image-keyboard-response","42","48968","0.0-42.0","352YTHGROWZ3OF58FOY57NE5271H48","A2Y7L7R5UTQ5R2","3FW4EL5A3LANKRP91N782LFHPY722Q","","186","img/food3.png","74","188","1","0","2","0,0.5,0.8,0.5,0,0.8,0,0.5,0.8,0,0.8,0.5",""
"","html-keyboard-response","43","49268","0.0-43.0","352YTHGROWZ3OF58FOY57NE5271H48","A2Y7L7R5UTQ5R2","3FW4EL5A3LANKRP91N782LFHPY722Q","","null","<img src=""img/food3.png"" style=""width:200px;border:14px solid red;"">","null","","","","","",""
"","image-keyboard-response","44","49344","0.0-44.0","352YTHGROWZ3OF58FOY57NE5271H48","A2Y7L7R5UTQ5R2","3FW4EL5A3LANKRP91N782LFHPY722Q","","75","img/food4.png","74","76","1","0","1","0,0.5,0.8,0.5,0,0.8,0,0.5,0.8,0,0.8,0.5",""
"","html-keyboard-response","45","49647","0.0-45.0","352YTHGROWZ3OF58FOY57NE5271H48","A2Y7L7R5UTQ5R2","3FW4EL5A3LANKRP91N782LFHPY722Q","","null","<img src=""img/food4.png"" style=""width:200px;border:14px solid red;"">","null","","","","","",""
"","image-keyboard-response","46","50027","0.0-46.0","352YTHGROWZ3OF58FOY57NE5271H48","A2Y7L7R5UTQ5R2","3FW4EL5A3LANKRP91N782LFHPY722Q","","380","img/food1.png","74","380","1","0","3","0,0.5,0.8,0.5,0,0.8,0,0.5,0.8,0,0.8,0.5",""
"","html-keyboard-response","47","50356","0.0-47.0","352YTHGROWZ3OF58FOY57NE5271H48","A2Y7L7R5UTQ5R2","3FW4EL5A3LANKRP91N782LFHPY722Q","","null","<img src=""img/food1.png"" style=""width:200px;border:14px solid red;"">","null","","","","","",""
"","image-keyboard-response","48","50884","0.0-48.0","352YTHGROWZ3OF58FOY57NE5271H48","A2Y7L7R5UTQ5R2","3FW4EL5A3LANKRP91N782LFHPY722Q","","527","img/food1.png","74","528","1","0","3","0,0.5,0.8,0.5,0,0.8,0,0.5,0.8,0,0.8,0.5",""
"","html-keyboard-response","49","51186","0.0-49.0","352YTHGROWZ3OF58FOY57NE5271H48","A2Y7L7R5UTQ5R2","3FW4EL5A3LANKRP91N782LFHPY722Q","","null","<img src=""img/food1.png"" style=""width:200px;border:14px solid red;"">","null","","","","","",""
"","image-keyboard-response","50","51656","0.0-50.0","352YTHGROWZ3OF58FOY57NE5271H48","A2Y7L7R5UTQ5R2","3FW4EL5A3LANKRP91N782LFHPY722Q","","468","img/food4.png","75","470","2","1","1","0,0.5,0.8,0.5,0,0.8,0,0.5,0.8,0,0.8,0.5",""
"","html-keyboard-response","51","51958","0.0-51.0","352YTHGROWZ3OF58FOY57NE5271H48","A2Y7L7R5UTQ5R2","3FW4EL5A3LANKRP91N782LFHPY722Q","","null","<img src=""img/food4.png"" style=""width:200px; border:14px solid green;"">","null","","","","","",""
"","image-keyboard-response","52","52433","0.0-52.0","352YTHGROWZ3OF58FOY57NE5271H48","A2Y7L7R5UTQ5R2","3FW4EL5A3LANKRP91N782LFHPY722Q","","474","img/food4.png","76","475","3","1","1","0,0.5,0.8,0.5,0,0.8,0,0.5,0.8,0,0.8,0.5",""
"","html-keyboard-response","53","52735","0.0-53.0","352YTHGROWZ3OF58FOY57NE5271H48","A2Y7L7R5UTQ5R2","3FW4EL5A3LANKRP91N782LFHPY722Q","","null","<img src=""img/food4.png"" style=""width:200px; border:14px solid green;"">","null","","","","","",""
"","image-keyboard-response","54","53148","0.0-54.0","352YTHGROWZ3OF58FOY57NE5271H48","A2Y7L7R5UTQ5R2","3FW4EL5A3LANKRP91N782LFHPY722Q","","411","img/food4.png","76","413","3","1","1","0,0.5,0.8,0.5,0,0.8,0,0.5,0.8,0,0.8,0.5",""
"","html-keyboard-response","55","53449","0.0-55.0","352YTHGROWZ3OF58FOY57NE5271H48","A2Y7L7R5UTQ5R2","3FW4EL5A3LANKRP91N782LFHPY722Q","","null","<img src=""img/food4.png"" style=""width:200px; border:14px solid green;"">","null","","","","","",""
"","image-keyboard-response","56","53756","0.0-56.0","352YTHGROWZ3OF58FOY57NE5271H48","A2Y7L7R5UTQ5R2","3FW4EL5A3LANKRP91N782LFHPY722Q","","304","img/food3.png","74","306","1","0","2","0,0.5,0.8,0.5,0,0.8,0,0.5,0.8,0,0.8,0.5",""
"","html-keyboard-response","57","54059","0.0-57.0","352YTHGROWZ3OF58FOY57NE5271H48","A2Y7L7R5UTQ5R2","3FW4EL5A3LANKRP91N782LFHPY722Q","","null","<img src=""img/food3.png"" style=""width:200px;border:14px solid red;"">","null","","","","","",""
"","image-keyboard-response","58","54542","0.0-58.0","352YTHGROWZ3OF58FOY57NE5271H48","A2Y7L7R5UTQ5R2","3FW4EL5A3LANKRP91N782LFHPY722Q","","470","img/food1.png","74","471","1","0","3","0,0.5,0.8,0.5,0,0.8,0,0.5,0.8,0,0.8,0.5",""
"","html-keyboard-response","59","54844","0.0-59.0","352YTHGROWZ3OF58FOY57NE5271H48","A2Y7L7R5UTQ5R2","3FW4EL5A3LANKRP91N782LFHPY722Q","","null","<img src=""img/food1.png"" style=""width:200px;border:14px solid red;"">","null","","","","","",""
"","image-keyboard-response","60","55331","0.0-60.0","352YTHGROWZ3OF58FOY57NE5271H48","A2Y7L7R5UTQ5R2","3FW4EL5A3LANKRP91N782LFHPY722Q","","486","img/food4.png","74","488","1","0","1","0,0.5,0.8,0.5,0,0.8,0,0.5,0.8,0,0.8,0.5",""
"","html-keyboard-response","61","55633","0.0-61.0","352YTHGROWZ3OF58FOY57NE5271H48","A2Y7L7R5UTQ5R2","3FW4EL5A3LANKRP91N782LFHPY722Q","","null","<img src=""img/food4.png"" style=""width:200px;border:14px solid red;"">","null","","","","","",""
"","image-keyboard-response","62","56262","0.0-62.0","352YTHGROWZ3OF58FOY57NE5271H48","A2Y7L7R5UTQ5R2","3FW4EL5A3LANKRP91N782LFHPY722Q","","629","img/food4.png","75","629","2","0","1","0,0.5,0.8,0.5,0,0.8,0,0.5,0.8,0,0.8,0.5",""
"","html-keyboard-response","63","56564","0.0-63.0","352YTHGROWZ3OF58FOY57NE5271H48","A2Y7L7R5UTQ5R2","3FW4EL5A3LANKRP91N782LFHPY722Q","","null","<img src=""img/food4.png"" style=""width:200px;border:14px solid red;"">","null","","","","","",""
"","image-keyboard-response","64","57087","0.0-64.0","352YTHGROWZ3OF58FOY57NE5271H48","A2Y7L7R5UTQ5R2","3FW4EL5A3LANKRP91N782LFHPY722Q","","523","img/food3.png","76","523","3","1","2","0,0.5,0.8,0.5,0,0.8,0,0.5,0.8,0,0.8,0.5",""
"","html-keyboard-response","65","57389","0.0-65.0","352YTHGROWZ3OF58FOY57NE5271H48","A2Y7L7R5UTQ5R2","3FW4EL5A3LANKRP91N782LFHPY722Q","","null","<img src=""img/food3.png"" style=""width:200px; border:14px solid green;"">","null","","","","","",""
"","image-keyboard-response","66","57916","0.0-66.0","352YTHGROWZ3OF58FOY57NE5271H48","A2Y7L7R5UTQ5R2","3FW4EL5A3LANKRP91N782LFHPY722Q","","526","img/food4.png","75","527","2","1","1","0,0.5,0.8,0.5,0,0.8,0,0.5,0.8,0,0.8,0.5",""
"","html-keyboard-response","67","58218","0.0-67.0","352YTHGROWZ3OF58FOY57NE5271H48","A2Y7L7R5UTQ5R2","3FW4EL5A3LANKRP91N782LFHPY722Q","","null","<img src=""img/food4.png"" style=""width:200px; border:14px solid green;"">","null","","","","","",""
"","image-keyboard-response","68","58694","0.0-68.0","352YTHGROWZ3OF58FOY57NE5271H48","A2Y7L7R5UTQ5R2","3FW4EL5A3LANKRP91N782LFHPY722Q","","475","img/food4.png","74","476","1","0","1","0,0.5,0.8,0.5,0,0.8,0,0.5,0.8,0,0.8,0.5",""
"","html-keyboard-response","69","58996","0.0-69.0","352YTHGROWZ3OF58FOY57NE5271H48","A2Y7L7R5UTQ5R2","3FW4EL5A3LANKRP91N782LFHPY722Q","","null","<img src=""img/food4.png"" style=""width:200px;border:14px solid red;"">","null","","","","","",""
"","image-keyboard-response","70","59657","0.0-70.0","352YTHGROWZ3OF58FOY57NE5271H48","A2Y7L7R5UTQ5R2","3FW4EL5A3LANKRP91N782LFHPY722Q","","659","img/food1.png","74","661","1","0","3","0,0.5,0.8,0.5,0,0.8,0,0.5,0.8,0,0.8,0.5",""
"","html-keyboard-response","71","59957","0.0-71.0","352YTHGROWZ3OF58FOY57NE5271H48","A2Y7L7R5UTQ5R2","3FW4EL5A3LANKRP91N782LFHPY722Q","","null","<img src=""img/food1.png"" style=""width:200px;border:14px solid red;"">","null","","","","","",""
"","image-keyboard-response","72","60338","0.0-72.0","352YTHGROWZ3OF58FOY57NE5271H48","A2Y7L7R5UTQ5R2","3FW4EL5A3LANKRP91N782LFHPY722Q","","380","img/food1.png","74","381","1","0","3","0,0.5,0.8,0.5,0,0.8,0,0.5,0.8,0,0.8,0.5",""
"","html-keyboard-response","73","60639","0.0-73.0","352YTHGROWZ3OF58FOY57NE5271H48","A2Y7L7R5UTQ5R2","3FW4EL5A3LANKRP91N782LFHPY722Q","","null","<img src=""img/food1.png"" style=""width:200px;border:14px solid red;"">","null","","","","","",""
"","image-keyboard-response","74","60835","0.0-74.0","352YTHGROWZ3OF58FOY57NE5271H48","A2Y7L7R5UTQ5R2","3FW4EL5A3LANKRP91N782LFHPY722Q","","195","img/food4.png","75","196","2","1","1","0,0.5,0.8,0.5,0,0.8,0,0.5,0.8,0,0.8,0.5",""
"","html-keyboard-response","75","61136","0.0-75.0","352YTHGROWZ3OF58FOY57NE5271H48","A2Y7L7R5UTQ5R2","3FW4EL5A3LANKRP91N782LFHPY722Q","","null","<img src=""img/food4.png"" style=""width:200px; border:14px solid green;"">","null","","","","","",""
"","image-keyboard-response","76","61425","0.0-76.0","352YTHGROWZ3OF58FOY57NE5271H48","A2Y7L7R5UTQ5R2","3FW4EL5A3LANKRP91N782LFHPY722Q","","288","img/food1.png","76","289","3","1","3","0,0.5,0.8,0.5,0,0.8,0,0.5,0.8,0,0.8,0.5",""
"","html-keyboard-response","77","61726","0.0-77.0","352YTHGROWZ3OF58FOY57NE5271H48","A2Y7L7R5UTQ5R2","3FW4EL5A3LANKRP91N782LFHPY722Q","","null","<img src=""img/food1.png"" style=""width:200px; border:14px solid green;"">","null","","","","","",""
"","image-keyboard-response","78","62105","0.0-78.0","352YTHGROWZ3OF58FOY57NE5271H48","A2Y7L7R5UTQ5R2","3FW4EL5A3LANKRP91N782LFHPY722Q","","377","img/food1.png","75","379","2","1","3","0,0.5,0.8,0.5,0,0.8,0,0.5,0.8,0,0.8,0.5",""
"","html-keyboard-response","79","62407","0.0-79.0","352YTHGROWZ3OF58FOY57NE5271H48","A2Y7L7R5UTQ5R2","3FW4EL5A3LANKRP91N782LFHPY722Q","","null","<img src=""img/food1.png"" style=""width:200px; border:14px solid green;"">","null","","","","","",""
"","image-keyboard-response","80","62561","0.0-80.0","352YTHGROWZ3OF58FOY57NE5271H48","A2Y7L7R5UTQ5R2","3FW4EL5A3LANKRP91N782LFHPY722Q","","153","img/food4.png","74","154","1","0","1","0,0.5,0.8,0.5,0,0.8,0,0.5,0.8,0,0.8,0.5",""
"","html-keyboard-response","81","62863","0.0-81.0","352YTHGROWZ3OF58FOY57NE5271H48","A2Y7L7R5UTQ5R2","3FW4EL5A3LANKRP91N782LFHPY722Q","","null","<img src=""img/food4.png"" style=""width:200px;border:14px solid red;"">","null","","","","","",""
"","image-keyboard-response","82","63169","0.0-82.0","352YTHGROWZ3OF58FOY57NE5271H48","A2Y7L7R5UTQ5R2","3FW4EL5A3LANKRP91N782LFHPY722Q","","304","img/food1.png","75","306","2","1","3","0,0.5,0.8,0.5,0,0.8,0,0.5,0.8,0,0.8,0.5",""
"","html-keyboard-response","83","63470","0.0-83.0","352YTHGROWZ3OF58FOY57NE5271H48","A2Y7L7R5UTQ5R2","3FW4EL5A3LANKRP91N782LFHPY722Q","","null","<img src=""img/food1.png"" style=""width:200px; border:14px solid green;"">","null","","","","","",""
"","image-keyboard-response","84","63880","0.0-84.0","352YTHGROWZ3OF58FOY57NE5271H48","A2Y7L7R5UTQ5R2","3FW4EL5A3LANKRP91N782LFHPY722Q","","410","img/food3.png","76","410","3","1","2","0,0.5,0.8,0.5,0,0.8,0,0.5,0.8,0,0.8,0.5",""
"","html-keyboard-response","85","64181","0.0-85.0","352YTHGROWZ3OF58FOY57NE5271H48","A2Y7L7R5UTQ5R2","3FW4EL5A3LANKRP91N782LFHPY722Q","","null","<img src=""img/food3.png"" style=""width:200px; border:14px solid green;"">","null","","","","","",""
"","image-keyboard-response","86","64501","0.0-86.0","352YTHGROWZ3OF58FOY57NE5271H48","A2Y7L7R5UTQ5R2","3FW4EL5A3LANKRP91N782LFHPY722Q","","319","img/food1.png","75","320","2","0","3","0,0.5,0.8,0.5,0,0.8,0,0.5,0.8,0,0.8,0.5",""
"","html-keyboard-response","87","64802","0.0-87.0","352YTHGROWZ3OF58FOY57NE5271H48","A2Y7L7R5UTQ5R2","3FW4EL5A3LANKRP91N782LFHPY722Q","","null","<img src=""img/food1.png"" style=""width:200px;border:14px solid red;"">","null","","","","","",""
"","image-keyboard-response","88","65116","0.0-88.0","352YTHGROWZ3OF58FOY57NE5271H48","A2Y7L7R5UTQ5R2","3FW4EL5A3LANKRP91N782LFHPY722Q","","312","img/food3.png","74","314","1","1","2","0,0.5,0.8,0.5,0,0.8,0,0.5,0.8,0,0.8,0.5",""
"","html-keyboard-response","89","65416","0.0-89.0","352YTHGROWZ3OF58FOY57NE5271H48","A2Y7L7R5UTQ5R2","3FW4EL5A3LANKRP91N782LFHPY722Q","","null","<img src=""img/food3.png"" style=""width:200px; border:14px solid green;"">","null","","","","","",""
"","image-keyboard-response","90","65594","0.0-90.0","352YTHGROWZ3OF58FOY57NE5271H48","A2Y7L7R5UTQ5R2","3FW4EL5A3LANKRP91N782LFHPY722Q","","175","img/food4.png","75","178","2","0","1","0,0.5,0.8,0.5,0,0.8,0,0.5,0.8,0,0.8,0.5",""
"","html-keyboard-response","91","65895","0.0-91.0","352YTHGROWZ3OF58FOY57NE5271H48","A2Y7L7R5UTQ5R2","3FW4EL5A3LANKRP91N782LFHPY722Q","","null","<img src=""img/food4.png"" style=""width:200px;border:14px solid red;"">","null","","","","","",""
"","image-keyboard-response","92","66197","0.0-92.0","352YTHGROWZ3OF58FOY57NE5271H48","A2Y7L7R5UTQ5R2","3FW4EL5A3LANKRP91N782LFHPY722Q","","301","img/food1.png","76","302","3","1","3","0,0.5,0.8,0.5,0,0.8,0,0.5,0.8,0,0.8,0.5",""
"","html-keyboard-response","93","66498","0.0-93.0","352YTHGROWZ3OF58FOY57NE5271H48","A2Y7L7R5UTQ5R2","3FW4EL5A3LANKRP91N782LFHPY722Q","","null","<img src=""img/food1.png"" style=""width:200px; border:14px solid green;"">","null","","","","","",""
"","image-keyboard-response","94","66659","0.0-94.0","352YTHGROWZ3OF58FOY57NE5271H48","A2Y7L7R5UTQ5R2","3FW4EL5A3LANKRP91N782LFHPY722Q","","159","img/food4.png","75","161","2","1","1","0,0.5,0.8,0.5,0,0.8,0,0.5,0.8,0,0.8,0.5",""
"","html-keyboard-response","95","66959","0.0-95.0","352YTHGROWZ3OF58FOY57NE5271H48","A2Y7L7R5UTQ5R2","3FW4EL5A3LANKRP91N782LFHPY722Q","","null","<img src=""img/food4.png"" style=""width:200px; border:14px solid green;"">","null","","","","","",""
"","image-keyboard-response","96","67271","0.0-96.0","352YTHGROWZ3OF58FOY57NE5271H48","A2Y7L7R5UTQ5R2","3FW4EL5A3LANKRP91N782LFHPY722Q","","311","img/food1.png","74","312","1","0","3","0,0.5,0.8,0.5,0,0.8,0,0.5,0.8,0,0.8,0.5",""
"","html-keyboard-response","97","67573","0.0-97.0","352YTHGROWZ3OF58FOY57NE5271H48","A2Y7L7R5UTQ5R2","3FW4EL5A3LANKRP91N782LFHPY722Q","","null","<img src=""img/food1.png"" style=""width:200px;border:14px solid red;"">","null","","","","","",""
"","image-keyboard-response","98","67728","0.0-98.0","352YTHGROWZ3OF58FOY57NE5271H48","A2Y7L7R5UTQ5R2","3FW4EL5A3LANKRP91N782LFHPY722Q","","153","img/food3.png","75","155","2","0","2","0,0.5,0.8,0.5,0,0.8,0,0.5,0.8,0,0.8,0.5",""
"","html-keyboard-response","99","68028","0.0-99.0","352YTHGROWZ3OF58FOY57NE5271H48","A2Y7L7R5UTQ5R2","3FW4EL5A3LANKRP91N782LFHPY722Q","","null","<img src=""img/food3.png"" style=""width:200px;border:14px solid red;"">","null","","","","","",""
"","image-keyboard-response","100","68377","0.0-100.0","352YTHGROWZ3OF58FOY57NE5271H48","A2Y7L7R5UTQ5R2","3FW4EL5A3LANKRP91N782LFHPY722Q","","347","img/food4.png","76","349","3","1","1","0,0.5,0.8,0.5,0,0.8,0,0.5,0.8,0,0.8,0.5",""
"","html-keyboard-response","101","68677","0.0-101.0","352YTHGROWZ3OF58FOY57NE5271H48","A2Y7L7R5UTQ5R2","3FW4EL5A3LANKRP91N782LFHPY722Q","","null","<img src=""img/food4.png"" style=""width:200px; border:14px solid green;"">","null","","","","","",""
"","image-keyboard-response","102","68905","0.0-102.0","352YTHGROWZ3OF58FOY57NE5271H48","A2Y7L7R5UTQ5R2","3FW4EL5A3LANKRP91N782LFHPY722Q","","227","img/food4.png","75","228","2","1","1","0,0.5,0.8,0.5,0,0.8,0,0.5,0.8,0,0.8,0.5",""
"","html-keyboard-response","103","69206","0.0-103.0","352YTHGROWZ3OF58FOY57NE5271H48","A2Y7L7R5UTQ5R2","3FW4EL5A3LANKRP91N782LFHPY722Q","","null","<img src=""img/food4.png"" style=""width:200px; border:14px solid green;"">","null","","","","","",""
"","image-keyboard-response","104","69334","0.0-104.0","352YTHGROWZ3OF58FOY57NE5271H48","A2Y7L7R5UTQ5R2","3FW4EL5A3LANKRP91N782LFHPY722Q","","127","img/food1.png","74","128","1","0","3","0,0.5,0.8,0.5,0,0.8,0,0.5,0.8,0,0.8,0.5",""
"","html-keyboard-response","105","69636","0.0-105.0","352YTHGROWZ3OF58FOY57NE5271H48","A2Y7L7R5UTQ5R2","3FW4EL5A3LANKRP91N782LFHPY722Q","","null","<img src=""img/food1.png"" style=""width:200px;border:14px solid red;"">","null","","","","","",""
"","image-keyboard-response","106","69986","0.0-106.0","352YTHGROWZ3OF58FOY57NE5271H48","A2Y7L7R5UTQ5R2","3FW4EL5A3LANKRP91N782LFHPY722Q","","348","img/food3.png","75","350","2","0","2","0,0.5,0.8,0.5,0,0.8,0,0.5,0.8,0,0.8,0.5",""
"","html-keyboard-response","107","70406","0.0-107.0","352YTHGROWZ3OF58FOY57NE5271H48","A2Y7L7R5UTQ5R2","3FW4EL5A3LANKRP91N782LFHPY722Q","","null","<img src=""img/food3.png"" style=""width:200px;border:14px solid red;"">","null","","","","","",""
"","image-keyboard-response","108","71096","0.0-108.0","352YTHGROWZ3OF58FOY57NE5271H48","A2Y7L7R5UTQ5R2","3FW4EL5A3LANKRP91N782LFHPY722Q","","687","img/food4.png","74","690","1","0","1","0,0.5,0.8,0.5,0,0.8,0,0.5,0.8,0,0.8,0.5",""
"","html-keyboard-response","109","71397","0.0-109.0","352YTHGROWZ3OF58FOY57NE5271H48","A2Y7L7R5UTQ5R2","3FW4EL5A3LANKRP91N782LFHPY722Q","","null","<img src=""img/food4.png"" style=""width:200px;border:14px solid red;"">","null","","","","","",""
"","image-keyboard-response","110","74104","0.0-110.0","352YTHGROWZ3OF58FOY57NE5271H48","A2Y7L7R5UTQ5R2","3FW4EL5A3LANKRP91N782LFHPY722Q","","2705","img/food3.png","76","2707","3","0","2","0,0.5,0.8,0.5,0,0.8,0,0.5,0.8,0,0.8,0.5",""
"","html-keyboard-response","111","74404","0.0-111.0","352YTHGROWZ3OF58FOY57NE5271H48","A2Y7L7R5UTQ5R2","3FW4EL5A3LANKRP91N782LFHPY722Q","","null","<img src=""img/food3.png"" style=""width:200px;border:14px solid red;"">","null","","","","","",""
"","image-keyboard-response","112","75129","0.0-112.0","352YTHGROWZ3OF58FOY57NE5271H48","A2Y7L7R5UTQ5R2","3FW4EL5A3LANKRP91N782LFHPY722Q","","723","img/food3.png","75","725","2","0","2","0,0.5,0.8,0.5,0,0.8,0,0.5,0.8,0,0.8,0.5",""
"","html-keyboard-response","113","75429","0.0-113.0","352YTHGROWZ3OF58FOY57NE5271H48","A2Y7L7R5UTQ5R2","3FW4EL5A3LANKRP91N782LFHPY722Q","","null","<img src=""img/food3.png"" style=""width:200px;border:14px solid red;"">","null","","","","","",""
"","image-keyboard-response","114","75997","0.0-114.0","352YTHGROWZ3OF58FOY57NE5271H48","A2Y7L7R5UTQ5R2","3FW4EL5A3LANKRP91N782LFHPY722Q","","566","img/food4.png","74","568","1","0","1","0,0.5,0.8,0.5,0,0.8,0,0.5,0.8,0,0.8,0.5",""
"","html-keyboard-response","115","76299","0.0-115.0","352YTHGROWZ3OF58FOY57NE5271H48","A2Y7L7R5UTQ5R2","3FW4EL5A3LANKRP91N782LFHPY722Q","","null","<img src=""img/food4.png"" style=""width:200px;border:14px solid red;"">","null","","","","","",""
"","image-keyboard-response","116","76820","0.0-116.0","352YTHGROWZ3OF58FOY57NE5271H48","A2Y7L7R5UTQ5R2","3FW4EL5A3LANKRP91N782LFHPY722Q","","521","img/food4.png","75","521","2","1","1","0,0.5,0.8,0.5,0,0.8,0,0.5,0.8,0,0.8,0.5",""
"","html-keyboard-response","117","77120","0.0-117.0","352YTHGROWZ3OF58FOY57NE5271H48","A2Y7L7R5UTQ5R2","3FW4EL5A3LANKRP91N782LFHPY722Q","","null","<img src=""img/food4.png"" style=""width:200px; border:14px solid green;"">","null","","","","","",""
"","image-keyboard-response","118","77399","0.0-118.0","352YTHGROWZ3OF58FOY57NE5271H48","A2Y7L7R5UTQ5R2","3FW4EL5A3LANKRP91N782LFHPY722Q","","277","img/food3.png","76","279","3","1","2","0,0.5,0.8,0.5,0,0.8,0,0.5,0.8,0,0.8,0.5",""
"","html-keyboard-response","119","77700","0.0-119.0","352YTHGROWZ3OF58FOY57NE5271H48","A2Y7L7R5UTQ5R2","3FW4EL5A3LANKRP91N782LFHPY722Q","","null","<img src=""img/food3.png"" style=""width:200px; border:14px solid green;"">","null","","","","","",""
"","image-keyboard-response","120","77958","0.0-120.0","352YTHGROWZ3OF58FOY57NE5271H48","A2Y7L7R5UTQ5R2","3FW4EL5A3LANKRP91N782LFHPY722Q","","257","img/food3.png","75","257","2","0","2","0,0.5,0.8,0.5,0,0.8,0,0.5,0.8,0,0.8,0.5",""
"","html-keyboard-response","121","78260","0.0-121.0","352YTHGROWZ3OF58FOY57NE5271H48","A2Y7L7R5UTQ5R2","3FW4EL5A3LANKRP91N782LFHPY722Q","","null","<img src=""img/food3.png"" style=""width:200px;border:14px solid red;"">","null","","","","","",""
"","image-keyboard-response","122","78335","0.0-122.0","352YTHGROWZ3OF58FOY57NE5271H48","A2Y7L7R5UTQ5R2","3FW4EL5A3LANKRP91N782LFHPY722Q","","74","img/food1.png","74","75","1","0","3","0,0.5,0.8,0.5,0,0.8,0,0.5,0.8,0,0.8,0.5",""
"","html-keyboard-response","123","78636","0.0-123.0","352YTHGROWZ3OF58FOY57NE5271H48","A2Y7L7R5UTQ5R2","3FW4EL5A3LANKRP91N782LFHPY722Q","","null","<img src=""img/food1.png"" style=""width:200px;border:14px solid red;"">","null","","","","","",""
"","image-keyboard-response","124","78976","0.0-124.0","352YTHGROWZ3OF58FOY57NE5271H48","A2Y7L7R5UTQ5R2","3FW4EL5A3LANKRP91N782LFHPY722Q","","339","img/food4.png","74","339","1","0","1","0,0.5,0.8,0.5,0,0.8,0,0.5,0.8,0,0.8,0.5",""
"","html-keyboard-response","125","79278","0.0-125.0","352YTHGROWZ3OF58FOY57NE5271H48","A2Y7L7R5UTQ5R2","3FW4EL5A3LANKRP91N782LFHPY722Q","","null","<img src=""img/food4.png"" style=""width:200px;border:14px solid red;"">","null","","","","","",""
"","image-keyboard-response","126","79457","0.0-126.0","352YTHGROWZ3OF58FOY57NE5271H48","A2Y7L7R5UTQ5R2","3FW4EL5A3LANKRP91N782LFHPY722Q","","176","img/food3.png","75","177","2","0","2","0,0.5,0.8,0.5,0,0.8,0,0.5,0.8,0,0.8,0.5",""
"","html-keyboard-response","127","79758","0.0-127.0","352YTHGROWZ3OF58FOY57NE5271H48","A2Y7L7R5UTQ5R2","3FW4EL5A3LANKRP91N782LFHPY722Q","","null","<img src=""img/food3.png"" style=""width:200px;border:14px solid red;"">","null","","","","","",""
"","image-keyboard-response","128","79884","0.0-128.0","352YTHGROWZ3OF58FOY57NE5271H48","A2Y7L7R5UTQ5R2","3FW4EL5A3LANKRP91N782LFHPY722Q","","126","img/food3.png","76","126","3","1","2","0,0.5,0.8,0.5,0,0.8,0,0.5,0.8,0,0.8,0.5",""
"","html-keyboard-response","129","80185","0.0-129.0","352YTHGROWZ3OF58FOY57NE5271H48","A2Y7L7R5UTQ5R2","3FW4EL5A3LANKRP91N782LFHPY722Q","","null","<img src=""img/food3.png"" style=""width:200px; border:14px solid green;"">","null","","","","","",""
"","image-keyboard-response","130","80248","0.0-130.0","352YTHGROWZ3OF58FOY57NE5271H48","A2Y7L7R5UTQ5R2","3FW4EL5A3LANKRP91N782LFHPY722Q","","42","img/food1.png","75","64","2","0","3","0,0.5,0.8,0.5,0,0.8,0,0.5,0.8,0,0.8,0.5",""
"","html-keyboard-response","131","80549","0.0-131.0","352YTHGROWZ3OF58FOY57NE5271H48","A2Y7L7R5UTQ5R2","3FW4EL5A3LANKRP91N782LFHPY722Q","","null","<img src=""img/food1.png"" style=""width:200px;border:14px solid red;"">","null","","","","","",""
"","image-keyboard-response","132","80699","0.0-132.0","352YTHGROWZ3OF58FOY57NE5271H48","A2Y7L7R5UTQ5R2","3FW4EL5A3LANKRP91N782LFHPY722Q","","148","img/food4.png","74","150","1","0","1","0,0.5,0.8,0.5,0,0.8,0,0.5,0.8,0,0.8,0.5",""
"","html-keyboard-response","133","81000","0.0-133.0","352YTHGROWZ3OF58FOY57NE5271H48","A2Y7L7R5UTQ5R2","3FW4EL5A3LANKRP91N782LFHPY722Q","","null","<img src=""img/food4.png"" style=""width:200px;border:14px solid red;"">","null","","","","","",""
"","image-keyboard-response","134","81171","0.0-134.0","352YTHGROWZ3OF58FOY57NE5271H48","A2Y7L7R5UTQ5R2","3FW4EL5A3LANKRP91N782LFHPY722Q","","159","img/food1.png","75","160","2","0","3","0,0.5,0.8,0.5,0,0.8,0,0.5,0.8,0,0.8,0.5",""
"","html-keyboard-response","135","81473","0.0-135.0","352YTHGROWZ3OF58FOY57NE5271H48","A2Y7L7R5UTQ5R2","3FW4EL5A3LANKRP91N782LFHPY722Q","","null","<img src=""img/food1.png"" style=""width:200px;border:14px solid red;"">","null","","","","","",""
"","image-keyboard-response","136","81733","0.0-136.0","352YTHGROWZ3OF58FOY57NE5271H48","A2Y7L7R5UTQ5R2","3FW4EL5A3LANKRP91N782LFHPY722Q","","259","img/food3.png","74","260","1","1","2","0,0.5,0.8,0.5,0,0.8,0,0.5,0.8,0,0.8,0.5",""
"","html-keyboard-response","137","82034","0.0-137.0","352YTHGROWZ3OF58FOY57NE5271H48","A2Y7L7R5UTQ5R2","3FW4EL5A3LANKRP91N782LFHPY722Q","","null","<img src=""img/food3.png"" style=""width:200px; border:14px solid green;"">","null","","","","","",""
"","image-keyboard-response","138","82203","0.0-138.0","352YTHGROWZ3OF58FOY57NE5271H48","A2Y7L7R5UTQ5R2","3FW4EL5A3LANKRP91N782LFHPY722Q","","169","img/food4.png","76","169","3","1","1","0,0.5,0.8,0.5,0,0.8,0,0.5,0.8,0,0.8,0.5",""
"","html-keyboard-response","139","82505","0.0-139.0","352YTHGROWZ3OF58FOY57NE5271H48","A2Y7L7R5UTQ5R2","3FW4EL5A3LANKRP91N782LFHPY722Q","","null","<img src=""img/food4.png"" style=""width:200px; border:14px solid green;"">","null","","","","","",""
"","image-keyboard-response","140","82663","0.0-140.0","352YTHGROWZ3OF58FOY57NE5271H48","A2Y7L7R5UTQ5R2","3FW4EL5A3LANKRP91N782LFHPY722Q","","157","img/food1.png","75","158","2","1","3","0,0.5,0.8,0.5,0,0.8,0,0.5,0.8,0,0.8,0.5",""
"","html-keyboard-response","141","82965","0.0-141.0","352YTHGROWZ3OF58FOY57NE5271H48","A2Y7L7R5UTQ5R2","3FW4EL5A3LANKRP91N782LFHPY722Q","","null","<img src=""img/food1.png"" style=""width:200px; border:14px solid green;"">","null","","","","","",""
"","image-keyboard-response","142","83090","0.0-142.0","352YTHGROWZ3OF58FOY57NE5271H48","A2Y7L7R5UTQ5R2","3FW4EL5A3LANKRP91N782LFHPY722Q","","124","img/food4.png","74","125","1","0","1","0,0.5,0.8,0.5,0,0.8,0,0.5,0.8,0,0.8,0.5",""
"","html-keyboard-response","143","83390","0.0-143.0","352YTHGROWZ3OF58FOY57NE5271H48","A2Y7L7R5UTQ5R2","3FW4EL5A3LANKRP91N782LFHPY722Q","","null","<img src=""img/food4.png"" style=""width:200px;border:14px solid red;"">","null","","","","","",""
"","image-keyboard-response","144","83973","0.0-144.0","352YTHGROWZ3OF58FOY57NE5271H48","A2Y7L7R5UTQ5R2","3FW4EL5A3LANKRP91N782LFHPY722Q","","581","img/food3.png","75","583","2","0","2","0,0.5,0.8,0.5,0,0.8,0,0.5,0.8,0,0.8,0.5",""
"","html-keyboard-response","145","84273","0.0-145.0","352YTHGROWZ3OF58FOY57NE5271H48","A2Y7L7R5UTQ5R2","3FW4EL5A3LANKRP91N782LFHPY722Q","","null","<img src=""img/food3.png"" style=""width:200px;border:14px solid red;"">","null","","","","","",""
"","image-keyboard-response","146","84560","0.0-146.0","352YTHGROWZ3OF58FOY57NE5271H48","A2Y7L7R5UTQ5R2","3FW4EL5A3LANKRP91N782LFHPY722Q","","286","img/food1.png","74","287","1","0","3","0,0.5,0.8,0.5,0,0.8,0,0.5,0.8,0,0.8,0.5",""
"","html-keyboard-response","147","84861","0.0-147.0","352YTHGROWZ3OF58FOY57NE5271H48","A2Y7L7R5UTQ5R2","3FW4EL5A3LANKRP91N782LFHPY722Q","","null","<img src=""img/food1.png"" style=""width:200px;border:14px solid red;"">","null","","","","","",""
"","image-keyboard-response","148","85091","0.0-148.0","352YTHGROWZ3OF58FOY57NE5271H48","A2Y7L7R5UTQ5R2","3FW4EL5A3LANKRP91N782LFHPY722Q","","229","img/food4.png","75","231","2","0","1","0,0.5,0.8,0.5,0,0.8,0,0.5,0.8,0,0.8,0.5",""
"","html-keyboard-response","149","85392","0.0-149.0","352YTHGROWZ3OF58FOY57NE5271H48","A2Y7L7R5UTQ5R2","3FW4EL5A3LANKRP91N782LFHPY722Q","","null","<img src=""img/food4.png"" style=""width:200px;border:14px solid red;"">","null","","","","","",""
"","image-keyboard-response","150","85797","0.0-150.0","352YTHGROWZ3OF58FOY57NE5271H48","A2Y7L7R5UTQ5R2","3FW4EL5A3LANKRP91N782LFHPY722Q","","403","img/food3.png","76","405","3","0","2","0,0.5,0.8,0.5,0,0.8,0,0.5,0.8,0,0.8,0.5",""
"","html-keyboard-response","151","86097","0.0-151.0","352YTHGROWZ3OF58FOY57NE5271H48","A2Y7L7R5UTQ5R2","3FW4EL5A3LANKRP91N782LFHPY722Q","","null","<img src=""img/food3.png"" style=""width:200px;border:14px solid red;"">","null","","","","","",""
"","image-keyboard-response","152","86423","0.0-152.0","352YTHGROWZ3OF58FOY57NE5271H48","A2Y7L7R5UTQ5R2","3FW4EL5A3LANKRP91N782LFHPY722Q","","325","img/food3.png","76","326","3","0","2","0,0.5,0.8,0.5,0,0.8,0,0.5,0.8,0,0.8,0.5",""
"","html-keyboard-response","153","86724","0.0-153.0","352YTHGROWZ3OF58FOY57NE5271H48","A2Y7L7R5UTQ5R2","3FW4EL5A3LANKRP91N782LFHPY722Q","","null","<img src=""img/food3.png"" style=""width:200px;border:14px solid red;"">","null","","","","","",""
"","image-keyboard-response","154","86764","0.0-154.0","352YTHGROWZ3OF58FOY57NE5271H48","A2Y7L7R5UTQ5R2","3FW4EL5A3LANKRP91N782LFHPY722Q","","39","img/food3.png","75","40","2","0","2","0,0.5,0.8,0.5,0,0.8,0,0.5,0.8,0,0.8,0.5",""
"","html-keyboard-response","155","87073","0.0-155.0","352YTHGROWZ3OF58FOY57NE5271H48","A2Y7L7R5UTQ5R2","3FW4EL5A3LANKRP91N782LFHPY722Q","","null","<img src=""img/food3.png"" style=""width:200px;border:14px solid red;"">","null","","","","","",""
"","image-keyboard-response","156","87230","0.0-156.0","352YTHGROWZ3OF58FOY57NE5271H48","A2Y7L7R5UTQ5R2","3FW4EL5A3LANKRP91N782LFHPY722Q","","157","img/food3.png","74","157","1","1","2","0,0.5,0.8,0.5,0,0.8,0,0.5,0.8,0,0.8,0.5",""
"","html-keyboard-response","157","87533","0.0-157.0","352YTHGROWZ3OF58FOY57NE5271H48","A2Y7L7R5UTQ5R2","3FW4EL5A3LANKRP91N782LFHPY722Q","","null","<img src=""img/food3.png"" style=""width:200px; border:14px solid green;"">","null","","","","","",""
"","image-keyboard-response","158","87595","0.0-158.0","352YTHGROWZ3OF58FOY57NE5271H48","A2Y7L7R5UTQ5R2","3FW4EL5A3LANKRP91N782LFHPY722Q","","61","img/food1.png","75","62","2","1","3","0,0.5,0.8,0.5,0,0.8,0,0.5,0.8,0,0.8,0.5",""
"","html-keyboard-response","159","87898","0.0-159.0","352YTHGROWZ3OF58FOY57NE5271H48","A2Y7L7R5UTQ5R2","3FW4EL5A3LANKRP91N782LFHPY722Q","","null","<img src=""img/food1.png"" style=""width:200px; border:14px solid green;"">","null","","","","","",""
"","image-keyboard-response","160","87993","0.0-160.0","352YTHGROWZ3OF58FOY57NE5271H48","A2Y7L7R5UTQ5R2","3FW4EL5A3LANKRP91N782LFHPY722Q","","94","img/food4.png","76","95","3","1","1","0,0.5,0.8,0.5,0,0.8,0,0.5,0.8,0,0.8,0.5",""
"","html-keyboard-response","161","88294","0.0-161.0","352YTHGROWZ3OF58FOY57NE5271H48","A2Y7L7R5UTQ5R2","3FW4EL5A3LANKRP91N782LFHPY722Q","","null","<img src=""img/food4.png"" style=""width:200px; border:14px solid green;"">","null","","","","","",""
"","image-keyboard-response","162","88363","0.0-162.0","352YTHGROWZ3OF58FOY57NE5271H48","A2Y7L7R5UTQ5R2","3FW4EL5A3LANKRP91N782LFHPY722Q","","67","img/food3.png","75","69","2","0","2","0,0.5,0.8,0.5,0,0.8,0,0.5,0.8,0,0.8,0.5",""
"","html-keyboard-response","163","88665","0.0-163.0","352YTHGROWZ3OF58FOY57NE5271H48","A2Y7L7R5UTQ5R2","3FW4EL5A3LANKRP91N782LFHPY722Q","","null","<img src=""img/food3.png"" style=""width:200px;border:14px solid red;"">","null","","","","","",""
"","image-keyboard-response","164","88830","0.0-164.0","352YTHGROWZ3OF58FOY57NE5271H48","A2Y7L7R5UTQ5R2","3FW4EL5A3LANKRP91N782LFHPY722Q","","164","img/food1.png","74","165","1","0","3","0,0.5,0.8,0.5,0,0.8,0,0.5,0.8,0,0.8,0.5",""
"","html-keyboard-response","165","89131","0.0-165.0","352YTHGROWZ3OF58FOY57NE5271H48","A2Y7L7R5UTQ5R2","3FW4EL5A3LANKRP91N782LFHPY722Q","","null","<img src=""img/food1.png"" style=""width:200px;border:14px solid red;"">","null","","","","","",""
"","image-keyboard-response","166","89270","0.0-166.0","352YTHGROWZ3OF58FOY57NE5271H48","A2Y7L7R5UTQ5R2","3FW4EL5A3LANKRP91N782LFHPY722Q","","137","img/food4.png","76","139","3","1","1","0,0.5,0.8,0.5,0,0.8,0,0.5,0.8,0,0.8,0.5",""
"","html-keyboard-response","167","89572","0.0-167.0","352YTHGROWZ3OF58FOY57NE5271H48","A2Y7L7R5UTQ5R2","3FW4EL5A3LANKRP91N782LFHPY722Q","","null","<img src=""img/food4.png"" style=""width:200px; border:14px solid green;"">","null","","","","","",""
"","image-keyboard-response","168","89944","0.0-168.0","352YTHGROWZ3OF58FOY57NE5271H48","A2Y7L7R5UTQ5R2","3FW4EL5A3LANKRP91N782LFHPY722Q","","371","img/food4.png","75","372","2","0","1","0,0.5,0.8,0.5,0,0.8,0,0.5,0.8,0,0.8,0.5",""
"","html-keyboard-response","169","90306","0.0-169.0","352YTHGROWZ3OF58FOY57NE5271H48","A2Y7L7R5UTQ5R2","3FW4EL5A3LANKRP91N782LFHPY722Q","","null","<img src=""img/food4.png"" style=""width:200px;border:14px solid red;"">","null","","","","","",""
"","image-keyboard-response","170","90435","0.0-170.0","352YTHGROWZ3OF58FOY57NE5271H48","A2Y7L7R5UTQ5R2","3FW4EL5A3LANKRP91N782LFHPY722Q","","128","img/food1.png","75","129","2","1","3","0,0.5,0.8,0.5,0,0.8,0,0.5,0.8,0,0.8,0.5",""
"","html-keyboard-response","171","90736","0.0-171.0","352YTHGROWZ3OF58FOY57NE5271H48","A2Y7L7R5UTQ5R2","3FW4EL5A3LANKRP91N782LFHPY722Q","","null","<img src=""img/food1.png"" style=""width:200px; border:14px solid green;"">","null","","","","","",""
"","image-keyboard-response","172","91080","0.0-172.0","352YTHGROWZ3OF58FOY57NE5271H48","A2Y7L7R5UTQ5R2","3FW4EL5A3LANKRP91N782LFHPY722Q","","343","img/food1.png","75","344","2","1","3","0,0.5,0.8,0.5,0,0.8,0,0.5,0.8,0,0.8,0.5",""
"","html-keyboard-response","173","91381","0.0-173.0","352YTHGROWZ3OF58FOY57NE5271H48","A2Y7L7R5UTQ5R2","3FW4EL5A3LANKRP91N782LFHPY722Q","","null","<img src=""img/food1.png"" style=""width:200px; border:14px solid green;"">","null","","","","","",""
"","image-keyboard-response","174","91611","0.0-174.0","352YTHGROWZ3OF58FOY57NE5271H48","A2Y7L7R5UTQ5R2","3FW4EL5A3LANKRP91N782LFHPY722Q","","229","img/food3.png","76","230","3","1","2","0,0.5,0.8,0.5,0,0.8,0,0.5,0.8,0,0.8,0.5",""
"","html-keyboard-response","175","91913","0.0-175.0","352YTHGROWZ3OF58FOY57NE5271H48","A2Y7L7R5UTQ5R2","3FW4EL5A3LANKRP91N782LFHPY722Q","","null","<img src=""img/food3.png"" style=""width:200px; border:14px solid green;"">","null","","","","","",""
"","image-keyboard-response","176","92261","0.0-176.0","352YTHGROWZ3OF58FOY57NE5271H48","A2Y7L7R5UTQ5R2","3FW4EL5A3LANKRP91N782LFHPY722Q","","347","img/food1.png","75","348","2","0","3","0,0.5,0.8,0.5,0,0.8,0,0.5,0.8,0,0.8,0.5",""
"","html-keyboard-response","177","92562","0.0-177.0","352YTHGROWZ3OF58FOY57NE5271H48","A2Y7L7R5UTQ5R2","3FW4EL5A3LANKRP91N782LFHPY722Q","","null","<img src=""img/food1.png"" style=""width:200px;border:14px solid red;"">","null","","","","","",""
"","image-keyboard-response","178","93007","0.0-178.0","352YTHGROWZ3OF58FOY57NE5271H48","A2Y7L7R5UTQ5R2","3FW4EL5A3LANKRP91N782LFHPY722Q","","444","img/food4.png","76","445","3","1","1","0,0.5,0.8,0.5,0,0.8,0,0.5,0.8,0,0.8,0.5",""
"","html-keyboard-response","179","93308","0.0-179.0","352YTHGROWZ3OF58FOY57NE5271H48","A2Y7L7R5UTQ5R2","3FW4EL5A3LANKRP91N782LFHPY722Q","","null","<img src=""img/food4.png"" style=""width:200px; border:14px solid green;"">","null","","","","","",""
"","image-keyboard-response","180","93331","0.0-180.0","352YTHGROWZ3OF58FOY57NE5271H48","A2Y7L7R5UTQ5R2","3FW4EL5A3LANKRP91N782LFHPY722Q","","22","img/food3.png","75","23","2","0","2","0,0.5,0.8,0.5,0,0.8,0,0.5,0.8,0,0.8,0.5",""
"","html-keyboard-response","181","93633","0.0-181.0","352YTHGROWZ3OF58FOY57NE5271H48","A2Y7L7R5UTQ5R2","3FW4EL5A3LANKRP91N782LFHPY722Q","","null","<img src=""img/food3.png"" style=""width:200px;border:14px solid red;"">","null","","","","","",""
"","html-keyboard-response","182","97163","0.0-182.0","352YTHGROWZ3OF58FOY57NE5271H48","A2Y7L7R5UTQ5R2","3FW4EL5A3LANKRP91N782LFHPY722Q","","","","","","","","","",""
"","image-keyboard-response","183","99311","0.0-183.0","352YTHGROWZ3OF58FOY57NE5271H48","A2Y7L7R5UTQ5R2","3FW4EL5A3LANKRP91N782LFHPY722Q","","2146","img/food5.png","76","2148","3","0","1","0.8,0.5,0,0.8,0,0.5,0.5,0.8,0,0,0.8,0.5",""
"","html-keyboard-response","184","99613","0.0-184.0","352YTHGROWZ3OF58FOY57NE5271H48","A2Y7L7R5UTQ5R2","3FW4EL5A3LANKRP91N782LFHPY722Q","","null","<img src=""img/food5.png"" style=""width:200px;border:14px solid red;"">","null","","","","","",""
"","image-keyboard-response","185","99765","0.0-185.0","352YTHGROWZ3OF58FOY57NE5271H48","A2Y7L7R5UTQ5R2","3FW4EL5A3LANKRP91N782LFHPY722Q","","150","img/food6.png","74","152","1","1","2","0.8,0.5,0,0.8,0,0.5,0.5,0.8,0,0,0.8,0.5",""
"","html-keyboard-response","186","100065","0.0-186.0","352YTHGROWZ3OF58FOY57NE5271H48","A2Y7L7R5UTQ5R2","3FW4EL5A3LANKRP91N782LFHPY722Q","","null","<img src=""img/food6.png"" style=""width:200px; border:14px solid green;"">","null","","","","","",""
"","image-keyboard-response","187","100193","0.0-187.0","352YTHGROWZ3OF58FOY57NE5271H48","A2Y7L7R5UTQ5R2","3FW4EL5A3LANKRP91N782LFHPY722Q","","128","img/food5.png","75","128","2","0","1","0.8,0.5,0,0.8,0,0.5,0.5,0.8,0,0,0.8,0.5",""
"","html-keyboard-response","188","100494","0.0-188.0","352YTHGROWZ3OF58FOY57NE5271H48","A2Y7L7R5UTQ5R2","3FW4EL5A3LANKRP91N782LFHPY722Q","","null","<img src=""img/food5.png"" style=""width:200px;border:14px solid red;"">","null","","","","","",""
"","image-keyboard-response","189","100703","0.0-189.0","352YTHGROWZ3OF58FOY57NE5271H48","A2Y7L7R5UTQ5R2","3FW4EL5A3LANKRP91N782LFHPY722Q","","207","img/food2.png","76","208","3","0","3","0.8,0.5,0,0.8,0,0.5,0.5,0.8,0,0,0.8,0.5",""
"","html-keyboard-response","190","101005","0.0-190.0","352YTHGROWZ3OF58FOY57NE5271H48","A2Y7L7R5UTQ5R2","3FW4EL5A3LANKRP91N782LFHPY722Q","","null","<img src=""img/food2.png"" style=""width:200px;border:14px solid red;"">","null","","","","","",""
"","image-keyboard-response","191","101095","0.0-191.0","352YTHGROWZ3OF58FOY57NE5271H48","A2Y7L7R5UTQ5R2","3FW4EL5A3LANKRP91N782LFHPY722Q","","89","img/food5.png","75","90","2","0","1","0.8,0.5,0,0.8,0,0.5,0.5,0.8,0,0,0.8,0.5",""
"","html-keyboard-response","192","101398","0.0-192.0","352YTHGROWZ3OF58FOY57NE5271H48","A2Y7L7R5UTQ5R2","3FW4EL5A3LANKRP91N782LFHPY722Q","","null","<img src=""img/food5.png"" style=""width:200px;border:14px solid red;"">","null","","","","","",""
"","image-keyboard-response","193","101436","0.0-193.0","352YTHGROWZ3OF58FOY57NE5271H48","A2Y7L7R5UTQ5R2","3FW4EL5A3LANKRP91N782LFHPY722Q","","37","img/food6.png","74","37","1","1","2","0.8,0.5,0,0.8,0,0.5,0.5,0.8,0,0,0.8,0.5",""
"","html-keyboard-response","194","101736","0.0-194.0","352YTHGROWZ3OF58FOY57NE5271H48","A2Y7L7R5UTQ5R2","3FW4EL5A3LANKRP91N782LFHPY722Q","","null","<img src=""img/food6.png"" style=""width:200px; border:14px solid green;"">","null","","","","","",""
"","image-keyboard-response","195","101933","0.0-195.0","352YTHGROWZ3OF58FOY57NE5271H48","A2Y7L7R5UTQ5R2","3FW4EL5A3LANKRP91N782LFHPY722Q","","196","img/food2.png","75","197","2","1","3","0.8,0.5,0,0.8,0,0.5,0.5,0.8,0,0,0.8,0.5",""
"","html-keyboard-response","196","102234","0.0-196.0","352YTHGROWZ3OF58FOY57NE5271H48","A2Y7L7R5UTQ5R2","3FW4EL5A3LANKRP91N782LFHPY722Q","","null","<img src=""img/food2.png"" style=""width:200px; border:14px solid green;"">","null","","","","","",""
"","image-keyboard-response","197","102397","0.0-197.0","352YTHGROWZ3OF58FOY57NE5271H48","A2Y7L7R5UTQ5R2","3FW4EL5A3LANKRP91N782LFHPY722Q","","162","img/food5.png","74","163","1","0","1","0.8,0.5,0,0.8,0,0.5,0.5,0.8,0,0,0.8,0.5",""
"","html-keyboard-response","198","102699","0.0-198.0","352YTHGROWZ3OF58FOY57NE5271H48","A2Y7L7R5UTQ5R2","3FW4EL5A3LANKRP91N782LFHPY722Q","","null","<img src=""img/food5.png"" style=""width:200px;border:14px solid red;"">","null","","","","","",""
"","image-keyboard-response","199","102780","0.0-199.0","352YTHGROWZ3OF58FOY57NE5271H48","A2Y7L7R5UTQ5R2","3FW4EL5A3LANKRP91N782LFHPY722Q","","79","img/food5.png","75","81","2","1","1","0.8,0.5,0,0.8,0,0.5,0.5,0.8,0,0,0.8,0.5",""
"","html-keyboard-response","200","103080","0.0-200.0","352YTHGROWZ3OF58FOY57NE5271H48","A2Y7L7R5UTQ5R2","3FW4EL5A3LANKRP91N782LFHPY722Q","","null","<img src=""img/food5.png"" style=""width:200px; border:14px solid green;"">","null","","","","","",""
"","image-keyboard-response","201","103143","0.0-201.0","352YTHGROWZ3OF58FOY57NE5271H48","A2Y7L7R5UTQ5R2","3FW4EL5A3LANKRP91N782LFHPY722Q","","62","img/food2.png","74","63","1","1","3","0.8,0.5,0,0.8,0,0.5,0.5,0.8,0,0,0.8,0.5",""
"","html-keyboard-response","202","103444","0.0-202.0","352YTHGROWZ3OF58FOY57NE5271H48","A2Y7L7R5UTQ5R2","3FW4EL5A3LANKRP91N782LFHPY722Q","","null","<img src=""img/food2.png"" style=""width:200px; border:14px solid green;"">","null","","","","","",""
"","image-keyboard-response","203","103622","0.0-203.0","352YTHGROWZ3OF58FOY57NE5271H48","A2Y7L7R5UTQ5R2","3FW4EL5A3LANKRP91N782LFHPY722Q","","177","img/food2.png","75","178","2","1","3","0.8,0.5,0,0.8,0,0.5,0.5,0.8,0,0,0.8,0.5",""
"","html-keyboard-response","204","103925","0.0-204.0","352YTHGROWZ3OF58FOY57NE5271H48","A2Y7L7R5UTQ5R2","3FW4EL5A3LANKRP91N782LFHPY722Q","","null","<img src=""img/food2.png"" style=""width:200px; border:14px solid green;"">","null","","","","","",""
"","image-keyboard-response","205","104071","0.0-205.0","352YTHGROWZ3OF58FOY57NE5271H48","A2Y7L7R5UTQ5R2","3FW4EL5A3LANKRP91N782LFHPY722Q","","144","img/food5.png","76","146","3","0","1","0.8,0.5,0,0.8,0,0.5,0.5,0.8,0,0,0.8,0.5",""
"","html-keyboard-response","206","104371","0.0-206.0","352YTHGROWZ3OF58FOY57NE5271H48","A2Y7L7R5UTQ5R2","3FW4EL5A3LANKRP91N782LFHPY722Q","","null","<img src=""img/food5.png"" style=""width:200px;border:14px solid red;"">","null","","","","","",""
"","image-keyboard-response","207","104416","0.0-207.0","352YTHGROWZ3OF58FOY57NE5271H48","A2Y7L7R5UTQ5R2","3FW4EL5A3LANKRP91N782LFHPY722Q","","44","img/food2.png","75","45","2","1","3","0.8,0.5,0,0.8,0,0.5,0.5,0.8,0,0,0.8,0.5",""
"","html-keyboard-response","208","104718","0.0-208.0","352YTHGROWZ3OF58FOY57NE5271H48","A2Y7L7R5UTQ5R2","3FW4EL5A3LANKRP91N782LFHPY722Q","","null","<img src=""img/food2.png"" style=""width:200px; border:14px solid green;"">","null","","","","","",""
"","image-keyboard-response","209","104965","0.0-209.0","352YTHGROWZ3OF58FOY57NE5271H48","A2Y7L7R5UTQ5R2","3FW4EL5A3LANKRP91N782LFHPY722Q","","246","img/food2.png","74","247","1","0","3","0.8,0.5,0,0.8,0,0.5,0.5,0.8,0,0,0.8,0.5",""
"","html-keyboard-response","210","105266","0.0-210.0","352YTHGROWZ3OF58FOY57NE5271H48","A2Y7L7R5UTQ5R2","3FW4EL5A3LANKRP91N782LFHPY722Q","","null","<img src=""img/food2.png"" style=""width:200px;border:14px solid red;"">","null","","","","","",""
"","image-keyboard-response","211","105402","0.0-211.0","352YTHGROWZ3OF58FOY57NE5271H48","A2Y7L7R5UTQ5R2","3FW4EL5A3LANKRP91N782LFHPY722Q","","135","img/food5.png","74","136","1","1","1","0.8,0.5,0,0.8,0,0.5,0.5,0.8,0,0,0.8,0.5",""
"","html-keyboard-response","212","105704","0.0-212.0","352YTHGROWZ3OF58FOY57NE5271H48","A2Y7L7R5UTQ5R2","3FW4EL5A3LANKRP91N782LFHPY722Q","","null","<img src=""img/food5.png"" style=""width:200px; border:14px solid green;"">","null","","","","","",""
"","image-keyboard-response","213","105771","0.0-213.0","352YTHGROWZ3OF58FOY57NE5271H48","A2Y7L7R5UTQ5R2","3FW4EL5A3LANKRP91N782LFHPY722Q","","65","img/food6.png","74","67","1","1","2","0.8,0.5,0,0.8,0,0.5,0.5,0.8,0,0,0.8,0.5",""
"","html-keyboard-response","214","106073","0.0-214.0","352YTHGROWZ3OF58FOY57NE5271H48","A2Y7L7R5UTQ5R2","3FW4EL5A3LANKRP91N782LFHPY722Q","","null","<img src=""img/food6.png"" style=""width:200px; border:14px solid green;"">","null","","","","","",""
"","image-keyboard-response","215","106143","0.0-215.0","352YTHGROWZ3OF58FOY57NE5271H48","A2Y7L7R5UTQ5R2","3FW4EL5A3LANKRP91N782LFHPY722Q","","69","img/food6.png","75","70","2","0","2","0.8,0.5,0,0.8,0,0.5,0.5,0.8,0,0,0.8,0.5",""
"","html-keyboard-response","216","106445","0.0-216.0","352YTHGROWZ3OF58FOY57NE5271H48","A2Y7L7R5UTQ5R2","3FW4EL5A3LANKRP91N782LFHPY722Q","","null","<img src=""img/food6.png"" style=""width:200px;border:14px solid red;"">","null","","","","","",""
"","image-keyboard-response","217","106596","0.0-217.0","352YTHGROWZ3OF58FOY57NE5271H48","A2Y7L7R5UTQ5R2","3FW4EL5A3LANKRP91N782LFHPY722Q","","149","img/food6.png","76","151","3","1","2","0.8,0.5,0,0.8,0,0.5,0.5,0.8,0,0,0.8,0.5",""
"","html-keyboard-response","218","106897","0.0-218.0","352YTHGROWZ3OF58FOY57NE5271H48","A2Y7L7R5UTQ5R2","3FW4EL5A3LANKRP91N782LFHPY722Q","","null","<img src=""img/food6.png"" style=""width:200px; border:14px solid green;"">","null","","","","","",""
"","image-keyboard-response","219","106914","0.0-219.0","352YTHGROWZ3OF58FOY57NE5271H48","A2Y7L7R5UTQ5R2","3FW4EL5A3LANKRP91N782LFHPY722Q","","16","img/food6.png","76","17","3","1","2","0.8,0.5,0,0.8,0,0.5,0.5,0.8,0,0,0.8,0.5",""
"","html-keyboard-response","220","107217","0.0-220.0","352YTHGROWZ3OF58FOY57NE5271H48","A2Y7L7R5UTQ5R2","3FW4EL5A3LANKRP91N782LFHPY722Q","","null","<img src=""img/food6.png"" style=""width:200px; border:14px solid green;"">","null","","","","","",""
"","image-keyboard-response","221","107234","0.0-221.0","352YTHGROWZ3OF58FOY57NE5271H48","A2Y7L7R5UTQ5R2","3FW4EL5A3LANKRP91N782LFHPY722Q","","17","img/food6.png","76","17","3","0","2","0.8,0.5,0,0.8,0,0.5,0.5,0.8,0,0,0.8,0.5",""
"","html-keyboard-response","222","107535","0.0-222.0","352YTHGROWZ3OF58FOY57NE5271H48","A2Y7L7R5UTQ5R2","3FW4EL5A3LANKRP91N782LFHPY722Q","","null","<img src=""img/food6.png"" style=""width:200px;border:14px solid red;"">","null","","","","","",""
"","image-keyboard-response","223","107973","0.0-223.0","352YTHGROWZ3OF58FOY57NE5271H48","A2Y7L7R5UTQ5R2","3FW4EL5A3LANKRP91N782LFHPY722Q","","437","img/food2.png","75","438","2","0","3","0.8,0.5,0,0.8,0,0.5,0.5,0.8,0,0,0.8,0.5",""
"","html-keyboard-response","224","108274","0.0-224.0","352YTHGROWZ3OF58FOY57NE5271H48","A2Y7L7R5UTQ5R2","3FW4EL5A3LANKRP91N782LFHPY722Q","","null","<img src=""img/food2.png"" style=""width:200px;border:14px solid red;"">","null","","","","","",""
"","image-keyboard-response","225","108368","0.0-225.0","352YTHGROWZ3OF58FOY57NE5271H48","A2Y7L7R5UTQ5R2","3FW4EL5A3LANKRP91N782LFHPY722Q","","93","img/food2.png","75","94","2","1","3","0.8,0.5,0,0.8,0,0.5,0.5,0.8,0,0,0.8,0.5",""
"","html-keyboard-response","226","108669","0.0-226.0","352YTHGROWZ3OF58FOY57NE5271H48","A2Y7L7R5UTQ5R2","3FW4EL5A3LANKRP91N782LFHPY722Q","","null","<img src=""img/food2.png"" style=""width:200px; border:14px solid green;"">","null","","","","","",""
"","image-keyboard-response","227","108689","0.0-227.0","352YTHGROWZ3OF58FOY57NE5271H48","A2Y7L7R5UTQ5R2","3FW4EL5A3LANKRP91N782LFHPY722Q","","17","img/food2.png","74","19","1","0","3","0.8,0.5,0,0.8,0,0.5,0.5,0.8,0,0,0.8,0.5",""
"","html-keyboard-response","228","108990","0.0-228.0","352YTHGROWZ3OF58FOY57NE5271H48","A2Y7L7R5UTQ5R2","3FW4EL5A3LANKRP91N782LFHPY722Q","","null","<img src=""img/food2.png"" style=""width:200px;border:14px solid red;"">","null","","","","","",""
"","image-keyboard-response","229","109614","0.0-229.0","352YTHGROWZ3OF58FOY57NE5271H48","A2Y7L7R5UTQ5R2","3FW4EL5A3LANKRP91N782LFHPY722Q","","623","img/food6.png","76","624","3","0","2","0.8,0.5,0,0.8,0,0.5,0.5,0.8,0,0,0.8,0.5",""
"","html-keyboard-response","230","109916","0.0-230.0","352YTHGROWZ3OF58FOY57NE5271H48","A2Y7L7R5UTQ5R2","3FW4EL5A3LANKRP91N782LFHPY722Q","","null","<img src=""img/food6.png"" style=""width:200px;border:14px solid red;"">","null","","","","","",""
"","image-keyboard-response","231","110000","0.0-231.0","352YTHGROWZ3OF58FOY57NE5271H48","A2Y7L7R5UTQ5R2","3FW4EL5A3LANKRP91N782LFHPY722Q","","84","img/food6.png","75","84","2","0","2","0.8,0.5,0,0.8,0,0.5,0.5,0.8,0,0,0.8,0.5",""
"","html-keyboard-response","232","110319","0.0-232.0","352YTHGROWZ3OF58FOY57NE5271H48","A2Y7L7R5UTQ5R2","3FW4EL5A3LANKRP91N782LFHPY722Q","","null","<img src=""img/food6.png"" style=""width:200px;border:14px solid red;"">","null","","","","","",""
"","image-keyboard-response","233","110351","0.0-233.0","352YTHGROWZ3OF58FOY57NE5271H48","A2Y7L7R5UTQ5R2","3FW4EL5A3LANKRP91N782LFHPY722Q","","31","img/food6.png","75","32","2","0","2","0.8,0.5,0,0.8,0,0.5,0.5,0.8,0,0,0.8,0.5",""
"","html-keyboard-response","234","110654","0.0-234.0","352YTHGROWZ3OF58FOY57NE5271H48","A2Y7L7R5UTQ5R2","3FW4EL5A3LANKRP91N782LFHPY722Q","","null","<img src=""img/food6.png"" style=""width:200px;border:14px solid red;"">","null","","","","","",""
"","image-keyboard-response","235","110971","0.0-235.0","352YTHGROWZ3OF58FOY57NE5271H48","A2Y7L7R5UTQ5R2","3FW4EL5A3LANKRP91N782LFHPY722Q","","316","img/food6.png","74","317","1","1","2","0.8,0.5,0,0.8,0,0.5,0.5,0.8,0,0,0.8,0.5",""
"","html-keyboard-response","236","111273","0.0-236.0","352YTHGROWZ3OF58FOY57NE5271H48","A2Y7L7R5UTQ5R2","3FW4EL5A3LANKRP91N782LFHPY722Q","","null","<img src=""img/food6.png"" style=""width:200px; border:14px solid green;"">","null","","","","","",""
"","image-keyboard-response","237","111440","0.0-237.0","352YTHGROWZ3OF58FOY57NE5271H48","A2Y7L7R5UTQ5R2","3FW4EL5A3LANKRP91N782LFHPY722Q","","165","img/food2.png","75","167","2","0","3","0.8,0.5,0,0.8,0,0.5,0.5,0.8,0,0,0.8,0.5",""
"","html-keyboard-response","238","111742","0.0-238.0","352YTHGROWZ3OF58FOY57NE5271H48","A2Y7L7R5UTQ5R2","3FW4EL5A3LANKRP91N782LFHPY722Q","","null","<img src=""img/food2.png"" style=""width:200px;border:14px solid red;"">","null","","","","","",""
"","image-keyboard-response","239","112088","0.0-239.0","352YTHGROWZ3OF58FOY57NE5271H48","A2Y7L7R5UTQ5R2","3FW4EL5A3LANKRP91N782LFHPY722Q","","345","img/food5.png","74","346","1","1","1","0.8,0.5,0,0.8,0,0.5,0.5,0.8,0,0,0.8,0.5",""
"","html-keyboard-response","240","112388","0.0-240.0","352YTHGROWZ3OF58FOY57NE5271H48","A2Y7L7R5UTQ5R2","3FW4EL5A3LANKRP91N782LFHPY722Q","","null","<img src=""img/food5.png"" style=""width:200px; border:14px solid green;"">","null","","","","","",""
"","image-keyboard-response","241","112701","0.0-241.0","352YTHGROWZ3OF58FOY57NE5271H48","A2Y7L7R5UTQ5R2","3FW4EL5A3LANKRP91N782LFHPY722Q","","312","img/food5.png","75","313","2","0","1","0.8,0.5,0,0.8,0,0.5,0.5,0.8,0,0,0.8,0.5",""
"","html-keyboard-response","242","113003","0.0-242.0","352YTHGROWZ3OF58FOY57NE5271H48","A2Y7L7R5UTQ5R2","3FW4EL5A3LANKRP91N782LFHPY722Q","","null","<img src=""img/food5.png"" style=""width:200px;border:14px solid red;"">","null","","","","","",""
"","image-keyboard-response","243","113034","0.0-243.0","352YTHGROWZ3OF58FOY57NE5271H48","A2Y7L7R5UTQ5R2","3FW4EL5A3LANKRP91N782LFHPY722Q","","14","img/food6.png","76","32","3","0","2","0.8,0.5,0,0.8,0,0.5,0.5,0.8,0,0,0.8,0.5",""
"","html-keyboard-response","244","113336","0.0-244.0","352YTHGROWZ3OF58FOY57NE5271H48","A2Y7L7R5UTQ5R2","3FW4EL5A3LANKRP91N782LFHPY722Q","","null","<img src=""img/food6.png"" style=""width:200px;border:14px solid red;"">","null","","","","","",""
"","image-keyboard-response","245","113428","0.0-245.0","352YTHGROWZ3OF58FOY57NE5271H48","A2Y7L7R5UTQ5R2","3FW4EL5A3LANKRP91N782LFHPY722Q","","89","img/food2.png","75","91","2","1","3","0.8,0.5,0,0.8,0,0.5,0.5,0.8,0,0,0.8,0.5",""
"","html-keyboard-response","246","113731","0.0-246.0","352YTHGROWZ3OF58FOY57NE5271H48","A2Y7L7R5UTQ5R2","3FW4EL5A3LANKRP91N782LFHPY722Q","","null","<img src=""img/food2.png"" style=""width:200px; border:14px solid green;"">","null","","","","","",""
"","image-keyboard-response","247","113956","0.0-247.0","352YTHGROWZ3OF58FOY57NE5271H48","A2Y7L7R5UTQ5R2","3FW4EL5A3LANKRP91N782LFHPY722Q","","224","img/food6.png","74","225","1","1","2","0.8,0.5,0,0.8,0,0.5,0.5,0.8,0,0,0.8,0.5",""
"","html-keyboard-response","248","114257","0.0-248.0","352YTHGROWZ3OF58FOY57NE5271H48","A2Y7L7R5UTQ5R2","3FW4EL5A3LANKRP91N782LFHPY722Q","","null","<img src=""img/food6.png"" style=""width:200px; border:14px solid green;"">","null","","","","","",""
"","image-keyboard-response","249","114514","0.0-249.0","352YTHGROWZ3OF58FOY57NE5271H48","A2Y7L7R5UTQ5R2","3FW4EL5A3LANKRP91N782LFHPY722Q","","256","img/food6.png","75","258","2","0","2","0.8,0.5,0,0.8,0,0.5,0.5,0.8,0,0,0.8,0.5",""
"","html-keyboard-response","250","114816","0.0-250.0","352YTHGROWZ3OF58FOY57NE5271H48","A2Y7L7R5UTQ5R2","3FW4EL5A3LANKRP91N782LFHPY722Q","","null","<img src=""img/food6.png"" style=""width:200px;border:14px solid red;"">","null","","","","","",""
"","image-keyboard-response","251","114855","0.0-251.0","352YTHGROWZ3OF58FOY57NE5271H48","A2Y7L7R5UTQ5R2","3FW4EL5A3LANKRP91N782LFHPY722Q","","38","img/food6.png","76","39","3","1","2","0.8,0.5,0,0.8,0,0.5,0.5,0.8,0,0,0.8,0.5",""
"","html-keyboard-response","252","115157","0.0-252.0","352YTHGROWZ3OF58FOY57NE5271H48","A2Y7L7R5UTQ5R2","3FW4EL5A3LANKRP91N782LFHPY722Q","","null","<img src=""img/food6.png"" style=""width:200px; border:14px solid green;"">","null","","","","","",""
"","image-keyboard-response","253","115584","0.0-253.0","352YTHGROWZ3OF58FOY57NE5271H48","A2Y7L7R5UTQ5R2","3FW4EL5A3LANKRP91N782LFHPY722Q","","427","img/food5.png","75","428","2","1","1","0.8,0.5,0,0.8,0,0.5,0.5,0.8,0,0,0.8,0.5",""
"","html-keyboard-response","254","115886","0.0-254.0","352YTHGROWZ3OF58FOY57NE5271H48","A2Y7L7R5UTQ5R2","3FW4EL5A3LANKRP91N782LFHPY722Q","","null","<img src=""img/food5.png"" style=""width:200px; border:14px solid green;"">","null","","","","","",""
"","image-keyboard-response","255","116026","0.0-255.0","352YTHGROWZ3OF58FOY57NE5271H48","A2Y7L7R5UTQ5R2","3FW4EL5A3LANKRP91N782LFHPY722Q","","139","img/food6.png","75","140","2","0","2","0.8,0.5,0,0.8,0,0.5,0.5,0.8,0,0,0.8,0.5",""
"","html-keyboard-response","256","116328","0.0-256.0","352YTHGROWZ3OF58FOY57NE5271H48","A2Y7L7R5UTQ5R2","3FW4EL5A3LANKRP91N782LFHPY722Q","","null","<img src=""img/food6.png"" style=""width:200px;border:14px solid red;"">","null","","","","","",""
"","image-keyboard-response","257","116707","0.0-257.0","352YTHGROWZ3OF58FOY57NE5271H48","A2Y7L7R5UTQ5R2","3FW4EL5A3LANKRP91N782LFHPY722Q","","379","img/food2.png","75","379","2","1","3","0.8,0.5,0,0.8,0,0.5,0.5,0.8,0,0,0.8,0.5",""
"","html-keyboard-response","258","117009","0.0-258.0","352YTHGROWZ3OF58FOY57NE5271H48","A2Y7L7R5UTQ5R2","3FW4EL5A3LANKRP91N782LFHPY722Q","","null","<img src=""img/food2.png"" style=""width:200px; border:14px solid green;"">","null","","","","","",""
"","image-keyboard-response","259","117026","0.0-259.0","352YTHGROWZ3OF58FOY57NE5271H48","A2Y7L7R5UTQ5R2","3FW4EL5A3LANKRP91N782LFHPY722Q","","17","img/food5.png","75","18","2","1","1","0.8,0.5,0,0.8,0,0.5,0.5,0.8,0,0,0.8,0.5",""
"","html-keyboard-response","260","117328","0.0-260.0","352YTHGROWZ3OF58FOY57NE5271H48","A2Y7L7R5UTQ5R2","3FW4EL5A3LANKRP91N782LFHPY722Q","","null","<img src=""img/food5.png"" style=""width:200px; border:14px solid green;"">","null","","","","","",""
"","image-keyboard-response","261","117794","0.0-261.0","352YTHGROWZ3OF58FOY57NE5271H48","A2Y7L7R5UTQ5R2","3FW4EL5A3LANKRP91N782LFHPY722Q","","465","img/food5.png","75","466","2","1","1","0.8,0.5,0,0.8,0,0.5,0.5,0.8,0,0,0.8,0.5",""
"","html-keyboard-response","262","118096","0.0-262.0","352YTHGROWZ3OF58FOY57NE5271H48","A2Y7L7R5UTQ5R2","3FW4EL5A3LANKRP91N782LFHPY722Q","","null","<img src=""img/food5.png"" style=""width:200px; border:14px solid green;"">","null","","","","","",""
"","image-keyboard-response","263","118235","0.0-263.0","352YTHGROWZ3OF58FOY57NE5271H48","A2Y7L7R5UTQ5R2","3FW4EL5A3LANKRP91N782LFHPY722Q","","137","img/food2.png","76","139","3","0","3","0.8,0.5,0,0.8,0,0.5,0.5,0.8,0,0,0.8,0.5",""
"","html-keyboard-response","264","118537","0.0-264.0","352YTHGROWZ3OF58FOY57NE5271H48","A2Y7L7R5UTQ5R2","3FW4EL5A3LANKRP91N782LFHPY722Q","","null","<img src=""img/food2.png"" style=""width:200px;border:14px solid red;"">","null","","","","","",""
"","image-keyboard-response","265","118546","0.0-265.0","352YTHGROWZ3OF58FOY57NE5271H48","A2Y7L7R5UTQ5R2","3FW4EL5A3LANKRP91N782LFHPY722Q","","8","img/food2.png","75","9","2","1","3","0.8,0.5,0,0.8,0,0.5,0.5,0.8,0,0,0.8,0.5",""
"","html-keyboard-response","266","118847","0.0-266.0","352YTHGROWZ3OF58FOY57NE5271H48","A2Y7L7R5UTQ5R2","3FW4EL5A3LANKRP91N782LFHPY722Q","","null","<img src=""img/food2.png"" style=""width:200px; border:14px solid green;"">","null","","","","","",""
"","image-keyboard-response","267","118902","0.0-267.0","352YTHGROWZ3OF58FOY57NE5271H48","A2Y7L7R5UTQ5R2","3FW4EL5A3LANKRP91N782LFHPY722Q","","54","img/food2.png","74","55","1","0","3","0.8,0.5,0,0.8,0,0.5,0.5,0.8,0,0,0.8,0.5",""
"","html-keyboard-response","268","119204","0.0-268.0","352YTHGROWZ3OF58FOY57NE5271H48","A2Y7L7R5UTQ5R2","3FW4EL5A3LANKRP91N782LFHPY722Q","","null","<img src=""img/food2.png"" style=""width:200px;border:14px solid red;"">","null","","","","","",""
"","image-keyboard-response","269","119275","0.0-269.0","352YTHGROWZ3OF58FOY57NE5271H48","A2Y7L7R5UTQ5R2","3FW4EL5A3LANKRP91N782LFHPY722Q","","69","img/food2.png","75","70","2","1","3","0.8,0.5,0,0.8,0,0.5,0.5,0.8,0,0,0.8,0.5",""
"","html-keyboard-response","270","119576","0.0-270.0","352YTHGROWZ3OF58FOY57NE5271H48","A2Y7L7R5UTQ5R2","3FW4EL5A3LANKRP91N782LFHPY722Q","","null","<img src=""img/food2.png"" style=""width:200px; border:14px solid green;"">","null","","","","","",""
"","image-keyboard-response","271","119723","0.0-271.0","352YTHGROWZ3OF58FOY57NE5271H48","A2Y7L7R5UTQ5R2","3FW4EL5A3LANKRP91N782LFHPY722Q","","146","img/food2.png","76","148","3","0","3","0.8,0.5,0,0.8,0,0.5,0.5,0.8,0,0,0.8,0.5",""
"","html-keyboard-response","272","120025","0.0-272.0","352YTHGROWZ3OF58FOY57NE5271H48","A2Y7L7R5UTQ5R2","3FW4EL5A3LANKRP91N782LFHPY722Q","","null","<img src=""img/food2.png"" style=""width:200px;border:14px solid red;"">","null","","","","","",""
"","image-keyboard-response","273","120055","0.0-273.0","352YTHGROWZ3OF58FOY57NE5271H48","A2Y7L7R5UTQ5R2","3FW4EL5A3LANKRP91N782LFHPY722Q","","28","img/food6.png","75","29","2","0","2","0.8,0.5,0,0.8,0,0.5,0.5,0.8,0,0,0.8,0.5",""
"","html-keyboard-response","274","120356","0.0-274.0","352YTHGROWZ3OF58FOY57NE5271H48","A2Y7L7R5UTQ5R2","3FW4EL5A3LANKRP91N782LFHPY722Q","","null","<img src=""img/food6.png"" style=""width:200px;border:14px solid red;"">","null","","","","","",""
"","image-keyboard-response","275","120424","0.0-275.0","352YTHGROWZ3OF58FOY57NE5271H48","A2Y7L7R5UTQ5R2","3FW4EL5A3LANKRP91N782LFHPY722Q","","67","img/food5.png","74","68","1","1","1","0.8,0.5,0,0.8,0,0.5,0.5,0.8,0,0,0.8,0.5",""
"","html-keyboard-response","276","120725","0.0-276.0","352YTHGROWZ3OF58FOY57NE5271H48","A2Y7L7R5UTQ5R2","3FW4EL5A3LANKRP91N782LFHPY722Q","","null","<img src=""img/food5.png"" style=""width:200px; border:14px solid green;"">","null","","","","","",""
"","image-keyboard-response","277","120794","0.0-277.0","352YTHGROWZ3OF58FOY57NE5271H48","A2Y7L7R5UTQ5R2","3FW4EL5A3LANKRP91N782LFHPY722Q","","67","img/food5.png","75","69","2","0","1","0.8,0.5,0,0.8,0,0.5,0.5,0.8,0,0,0.8,0.5",""
"","html-keyboard-response","278","121095","0.0-278.0","352YTHGROWZ3OF58FOY57NE5271H48","A2Y7L7R5UTQ5R2","3FW4EL5A3LANKRP91N782LFHPY722Q","","null","<img src=""img/food5.png"" style=""width:200px;border:14px solid red;"">","null","","","","","",""
"","image-keyboard-response","279","121162","0.0-279.0","352YTHGROWZ3OF58FOY57NE5271H48","A2Y7L7R5UTQ5R2","3FW4EL5A3LANKRP91N782LFHPY722Q","","66","img/food2.png","76","68","3","0","3","0.8,0.5,0,0.8,0,0.5,0.5,0.8,0,0,0.8,0.5",""
"","html-keyboard-response","280","121463","0.0-280.0","352YTHGROWZ3OF58FOY57NE5271H48","A2Y7L7R5UTQ5R2","3FW4EL5A3LANKRP91N782LFHPY722Q","","null","<img src=""img/food2.png"" style=""width:200px;border:14px solid red;"">","null","","","","","",""
"","image-keyboard-response","281","122380","0.0-281.0","352YTHGROWZ3OF58FOY57NE5271H48","A2Y7L7R5UTQ5R2","3FW4EL5A3LANKRP91N782LFHPY722Q","","915","img/food6.png","74","917","1","0","2","0.8,0.5,0,0.8,0,0.5,0.5,0.8,0,0,0.8,0.5",""
"","html-keyboard-response","282","122682","0.0-282.0","352YTHGROWZ3OF58FOY57NE5271H48","A2Y7L7R5UTQ5R2","3FW4EL5A3LANKRP91N782LFHPY722Q","","null","<img src=""img/food6.png"" style=""width:200px;border:14px solid red;"">","null","","","","","",""
"","image-keyboard-response","283","122983","0.0-283.0","352YTHGROWZ3OF58FOY57NE5271H48","A2Y7L7R5UTQ5R2","3FW4EL5A3LANKRP91N782LFHPY722Q","","300","img/food5.png","75","301","2","0","1","0.8,0.5,0,0.8,0,0.5,0.5,0.8,0,0,0.8,0.5",""
"","html-keyboard-response","284","123284","0.0-284.0","352YTHGROWZ3OF58FOY57NE5271H48","A2Y7L7R5UTQ5R2","3FW4EL5A3LANKRP91N782LFHPY722Q","","null","<img src=""img/food5.png"" style=""width:200px;border:14px solid red;"">","null","","","","","",""
"","image-keyboard-response","285","123505","0.0-285.0","352YTHGROWZ3OF58FOY57NE5271H48","A2Y7L7R5UTQ5R2","3FW4EL5A3LANKRP91N782LFHPY722Q","","220","img/food5.png","74","221","1","1","1","0.8,0.5,0,0.8,0,0.5,0.5,0.8,0,0,0.8,0.5",""
"","html-keyboard-response","286","123806","0.0-286.0","352YTHGROWZ3OF58FOY57NE5271H48","A2Y7L7R5UTQ5R2","3FW4EL5A3LANKRP91N782LFHPY722Q","","null","<img src=""img/food5.png"" style=""width:200px; border:14px solid green;"">","null","","","","","",""
"","image-keyboard-response","287","124068","0.0-287.0","352YTHGROWZ3OF58FOY57NE5271H48","A2Y7L7R5UTQ5R2","3FW4EL5A3LANKRP91N782LFHPY722Q","","261","img/food6.png","76","262","3","1","2","0.8,0.5,0,0.8,0,0.5,0.5,0.8,0,0,0.8,0.5",""
"","html-keyboard-response","288","124368","0.0-288.0","352YTHGROWZ3OF58FOY57NE5271H48","A2Y7L7R5UTQ5R2","3FW4EL5A3LANKRP91N782LFHPY722Q","","null","<img src=""img/food6.png"" style=""width:200px; border:14px solid green;"">","null","","","","","",""
"","image-keyboard-response","289","124486","0.0-289.0","352YTHGROWZ3OF58FOY57NE5271H48","A2Y7L7R5UTQ5R2","3FW4EL5A3LANKRP91N782LFHPY722Q","","116","img/food6.png","75","118","2","0","2","0.8,0.5,0,0.8,0,0.5,0.5,0.8,0,0,0.8,0.5",""
"","html-keyboard-response","290","124788","0.0-290.0","352YTHGROWZ3OF58FOY57NE5271H48","A2Y7L7R5UTQ5R2","3FW4EL5A3LANKRP91N782LFHPY722Q","","null","<img src=""img/food6.png"" style=""width:200px;border:14px solid red;"">","null","","","","","",""
"","image-keyboard-response","291","124952","0.0-291.0","352YTHGROWZ3OF58FOY57NE5271H48","A2Y7L7R5UTQ5R2","3FW4EL5A3LANKRP91N782LFHPY722Q","","161","img/food5.png","75","164","2","0","1","0.8,0.5,0,0.8,0,0.5,0.5,0.8,0,0,0.8,0.5",""
"","html-keyboard-response","292","125253","0.0-292.0","352YTHGROWZ3OF58FOY57NE5271H48","A2Y7L7R5UTQ5R2","3FW4EL5A3LANKRP91N782LFHPY722Q","","null","<img src=""img/food5.png"" style=""width:200px;border:14px solid red;"">","null","","","","","",""
"","image-keyboard-response","293","125636","0.0-293.0","352YTHGROWZ3OF58FOY57NE5271H48","A2Y7L7R5UTQ5R2","3FW4EL5A3LANKRP91N782LFHPY722Q","","381","img/food2.png","74","383","1","1","3","0.8,0.5,0,0.8,0,0.5,0.5,0.8,0,0,0.8,0.5",""
"","html-keyboard-response","294","125936","0.0-294.0","352YTHGROWZ3OF58FOY57NE5271H48","A2Y7L7R5UTQ5R2","3FW4EL5A3LANKRP91N782LFHPY722Q","","null","<img src=""img/food2.png"" style=""width:200px; border:14px solid green;"">","null","","","","","",""
"","image-keyboard-response","295","126222","0.0-295.0","352YTHGROWZ3OF58FOY57NE5271H48","A2Y7L7R5UTQ5R2","3FW4EL5A3LANKRP91N782LFHPY722Q","","284","img/food2.png","75","286","2","1","3","0.8,0.5,0,0.8,0,0.5,0.5,0.8,0,0,0.8,0.5",""
"","html-keyboard-response","296","126522","0.0-296.0","352YTHGROWZ3OF58FOY57NE5271H48","A2Y7L7R5UTQ5R2","3FW4EL5A3LANKRP91N782LFHPY722Q","","null","<img src=""img/food2.png"" style=""width:200px; border:14px solid green;"">","null","","","","","",""
"","image-keyboard-response","297","126701","0.0-297.0","352YTHGROWZ3OF58FOY57NE5271H48","A2Y7L7R5UTQ5R2","3FW4EL5A3LANKRP91N782LFHPY722Q","","178","img/food2.png","74","179","1","1","3","0.8,0.5,0,0.8,0,0.5,0.5,0.8,0,0,0.8,0.5",""
"","html-keyboard-response","298","127003","0.0-298.0","352YTHGROWZ3OF58FOY57NE5271H48","A2Y7L7R5UTQ5R2","3FW4EL5A3LANKRP91N782LFHPY722Q","","null","<img src=""img/food2.png"" style=""width:200px; border:14px solid green;"">","null","","","","","",""
"","image-keyboard-response","299","127677","0.0-299.0","352YTHGROWZ3OF58FOY57NE5271H48","A2Y7L7R5UTQ5R2","3FW4EL5A3LANKRP91N782LFHPY722Q","","671","img/food2.png","76","673","3","0","3","0.8,0.5,0,0.8,0,0.5,0.5,0.8,0,0,0.8,0.5",""
"","html-keyboard-response","300","127981","0.0-300.0","352YTHGROWZ3OF58FOY57NE5271H48","A2Y7L7R5UTQ5R2","3FW4EL5A3LANKRP91N782LFHPY722Q","","null","<img src=""img/food2.png"" style=""width:200px;border:14px solid red;"">","null","","","","","",""
"","image-keyboard-response","301","128460","0.0-301.0","352YTHGROWZ3OF58FOY57NE5271H48","A2Y7L7R5UTQ5R2","3FW4EL5A3LANKRP91N782LFHPY722Q","","477","img/food5.png","74","479","1","1","1","0.8,0.5,0,0.8,0,0.5,0.5,0.8,0,0,0.8,0.5",""
"","html-keyboard-response","302","128760","0.0-302.0","352YTHGROWZ3OF58FOY57NE5271H48","A2Y7L7R5UTQ5R2","3FW4EL5A3LANKRP91N782LFHPY722Q","","null","<img src=""img/food5.png"" style=""width:200px; border:14px solid green;"">","null","","","","","",""
"","image-keyboard-response","303","128864","0.0-303.0","352YTHGROWZ3OF58FOY57NE5271H48","A2Y7L7R5UTQ5R2","3FW4EL5A3LANKRP91N782LFHPY722Q","","103","img/food6.png","75","104","2","0","2","0.8,0.5,0,0.8,0,0.5,0.5,0.8,0,0,0.8,0.5",""
"","html-keyboard-response","304","129165","0.0-304.0","352YTHGROWZ3OF58FOY57NE5271H48","A2Y7L7R5UTQ5R2","3FW4EL5A3LANKRP91N782LFHPY722Q","","null","<img src=""img/food6.png"" style=""width:200px;border:14px solid red;"">","null","","","","","",""
"","image-keyboard-response","305","129230","0.0-305.0","352YTHGROWZ3OF58FOY57NE5271H48","A2Y7L7R5UTQ5R2","3FW4EL5A3LANKRP91N782LFHPY722Q","","64","img/food6.png","76","65","3","0","2","0.8,0.5,0,0.8,0,0.5,0.5,0.8,0,0,0.8,0.5",""
"","html-keyboard-response","306","129532","0.0-306.0","352YTHGROWZ3OF58FOY57NE5271H48","A2Y7L7R5UTQ5R2","3FW4EL5A3LANKRP91N782LFHPY722Q","","null","<img src=""img/food6.png"" style=""width:200px;border:14px solid red;"">","null","","","","","",""
"","image-keyboard-response","307","129557","0.0-307.0","352YTHGROWZ3OF58FOY57NE5271H48","A2Y7L7R5UTQ5R2","3FW4EL5A3LANKRP91N782LFHPY722Q","","24","img/food6.png","75","25","2","0","2","0.8,0.5,0,0.8,0,0.5,0.5,0.8,0,0,0.8,0.5",""
"","html-keyboard-response","308","129857","0.0-308.0","352YTHGROWZ3OF58FOY57NE5271H48","A2Y7L7R5UTQ5R2","3FW4EL5A3LANKRP91N782LFHPY722Q","","null","<img src=""img/food6.png"" style=""width:200px;border:14px solid red;"">","null","","","","","",""
"","image-keyboard-response","309","130175","0.0-309.0","352YTHGROWZ3OF58FOY57NE5271H48","A2Y7L7R5UTQ5R2","3FW4EL5A3LANKRP91N782LFHPY722Q","","315","img/food6.png","74","318","1","1","2","0.8,0.5,0,0.8,0,0.5,0.5,0.8,0,0,0.8,0.5",""
"","html-keyboard-response","310","130477","0.0-310.0","352YTHGROWZ3OF58FOY57NE5271H48","A2Y7L7R5UTQ5R2","3FW4EL5A3LANKRP91N782LFHPY722Q","","null","<img src=""img/food6.png"" style=""width:200px; border:14px solid green;"">","null","","","","","",""
"","image-keyboard-response","311","130902","0.0-311.0","352YTHGROWZ3OF58FOY57NE5271H48","A2Y7L7R5UTQ5R2","3FW4EL5A3LANKRP91N782LFHPY722Q","","423","img/food5.png","74","425","1","1","1","0.8,0.5,0,0.8,0,0.5,0.5,0.8,0,0,0.8,0.5",""
"","html-keyboard-response","312","131204","0.0-312.0","352YTHGROWZ3OF58FOY57NE5271H48","A2Y7L7R5UTQ5R2","3FW4EL5A3LANKRP91N782LFHPY722Q","","null","<img src=""img/food5.png"" style=""width:200px; border:14px solid green;"">","null","","","","","",""
"","image-keyboard-response","313","131377","0.0-313.0","352YTHGROWZ3OF58FOY57NE5271H48","A2Y7L7R5UTQ5R2","3FW4EL5A3LANKRP91N782LFHPY722Q","","171","img/food6.png","75","173","2","0","2","0.8,0.5,0,0.8,0,0.5,0.5,0.8,0,0,0.8,0.5",""
"","html-keyboard-response","314","131678","0.0-314.0","352YTHGROWZ3OF58FOY57NE5271H48","A2Y7L7R5UTQ5R2","3FW4EL5A3LANKRP91N782LFHPY722Q","","null","<img src=""img/food6.png"" style=""width:200px;border:14px solid red;"">","null","","","","","",""
"","image-keyboard-response","315","132538","0.0-315.0","352YTHGROWZ3OF58FOY57NE5271H48","A2Y7L7R5UTQ5R2","3FW4EL5A3LANKRP91N782LFHPY722Q","","859","img/food2.png","76","860","3","0","3","0.8,0.5,0,0.8,0,0.5,0.5,0.8,0,0,0.8,0.5",""
"","html-keyboard-response","316","132839","0.0-316.0","352YTHGROWZ3OF58FOY57NE5271H48","A2Y7L7R5UTQ5R2","3FW4EL5A3LANKRP91N782LFHPY722Q","","null","<img src=""img/food2.png"" style=""width:200px;border:14px solid red;"">","null","","","","","",""
"","image-keyboard-response","317","133036","0.0-317.0","352YTHGROWZ3OF58FOY57NE5271H48","A2Y7L7R5UTQ5R2","3FW4EL5A3LANKRP91N782LFHPY722Q","","195","img/food6.png","76","197","3","0","2","0.8,0.5,0,0.8,0,0.5,0.5,0.8,0,0,0.8,0.5",""
"","html-keyboard-response","318","133337","0.0-318.0","352YTHGROWZ3OF58FOY57NE5271H48","A2Y7L7R5UTQ5R2","3FW4EL5A3LANKRP91N782LFHPY722Q","","null","<img src=""img/food6.png"" style=""width:200px;border:14px solid red;"">","null","","","","","",""
"","image-keyboard-response","319","133476","0.0-319.0","352YTHGROWZ3OF58FOY57NE5271H48","A2Y7L7R5UTQ5R2","3FW4EL5A3LANKRP91N782LFHPY722Q","","137","img/food5.png","75","139","2","1","1","0.8,0.5,0,0.8,0,0.5,0.5,0.8,0,0,0.8,0.5",""
"","html-keyboard-response","320","133778","0.0-320.0","352YTHGROWZ3OF58FOY57NE5271H48","A2Y7L7R5UTQ5R2","3FW4EL5A3LANKRP91N782LFHPY722Q","","null","<img src=""img/food5.png"" style=""width:200px; border:14px solid green;"">","null","","","","","",""
"","image-keyboard-response","321","134171","0.0-321.0","352YTHGROWZ3OF58FOY57NE5271H48","A2Y7L7R5UTQ5R2","3FW4EL5A3LANKRP91N782LFHPY722Q","","390","img/food2.png","74","392","1","0","3","0.8,0.5,0,0.8,0,0.5,0.5,0.8,0,0,0.8,0.5",""
"","html-keyboard-response","322","134472","0.0-322.0","352YTHGROWZ3OF58FOY57NE5271H48","A2Y7L7R5UTQ5R2","3FW4EL5A3LANKRP91N782LFHPY722Q","","null","<img src=""img/food2.png"" style=""width:200px;border:14px solid red;"">","null","","","","","",""
"","image-keyboard-response","323","134600","0.0-323.0","352YTHGROWZ3OF58FOY57NE5271H48","A2Y7L7R5UTQ5R2","3FW4EL5A3LANKRP91N782LFHPY722Q","","127","img/food5.png","74","127","1","1","1","0.8,0.5,0,0.8,0,0.5,0.5,0.8,0,0,0.8,0.5",""
"","html-keyboard-response","324","134901","0.0-324.0","352YTHGROWZ3OF58FOY57NE5271H48","A2Y7L7R5UTQ5R2","3FW4EL5A3LANKRP91N782LFHPY722Q","","null","<img src=""img/food5.png"" style=""width:200px; border:14px solid green;"">","null","","","","","",""
"","image-keyboard-response","325","135023","0.0-325.0","352YTHGROWZ3OF58FOY57NE5271H48","A2Y7L7R5UTQ5R2","3FW4EL5A3LANKRP91N782LFHPY722Q","","121","img/food5.png","74","122","1","1","1","0.8,0.5,0,0.8,0,0.5,0.5,0.8,0,0,0.8,0.5",""
"","html-keyboard-response","326","135325","0.0-326.0","352YTHGROWZ3OF58FOY57NE5271H48","A2Y7L7R5UTQ5R2","3FW4EL5A3LANKRP91N782LFHPY722Q","","null","<img src=""img/food5.png"" style=""width:200px; border:14px solid green;"">","null","","","","","",""
"","image-keyboard-response","327","135627","0.0-327.0","352YTHGROWZ3OF58FOY57NE5271H48","A2Y7L7R5UTQ5R2","3FW4EL5A3LANKRP91N782LFHPY722Q","","300","img/food5.png","75","302","2","0","1","0.8,0.5,0,0.8,0,0.5,0.5,0.8,0,0,0.8,0.5",""
"","html-keyboard-response","328","135927","0.0-328.0","352YTHGROWZ3OF58FOY57NE5271H48","A2Y7L7R5UTQ5R2","3FW4EL5A3LANKRP91N782LFHPY722Q","","null","<img src=""img/food5.png"" style=""width:200px;border:14px solid red;"">","null","","","","","",""
"","image-keyboard-response","329","136461","0.0-329.0","352YTHGROWZ3OF58FOY57NE5271H48","A2Y7L7R5UTQ5R2","3FW4EL5A3LANKRP91N782LFHPY722Q","","532","img/food5.png","76","534","3","0","1","0.8,0.5,0,0.8,0,0.5,0.5,0.8,0,0,0.8,0.5",""
"","html-keyboard-response","330","136763","0.0-330.0","352YTHGROWZ3OF58FOY57NE5271H48","A2Y7L7R5UTQ5R2","3FW4EL5A3LANKRP91N782LFHPY722Q","","null","<img src=""img/food5.png"" style=""width:200px;border:14px solid red;"">","null","","","","","",""
"","image-keyboard-response","331","136842","0.0-331.0","352YTHGROWZ3OF58FOY57NE5271H48","A2Y7L7R5UTQ5R2","3FW4EL5A3LANKRP91N782LFHPY722Q","","77","img/food2.png","75","79","2","0","3","0.8,0.5,0,0.8,0,0.5,0.5,0.8,0,0,0.8,0.5",""
"","html-keyboard-response","332","137143","0.0-332.0","352YTHGROWZ3OF58FOY57NE5271H48","A2Y7L7R5UTQ5R2","3FW4EL5A3LANKRP91N782LFHPY722Q","","null","<img src=""img/food2.png"" style=""width:200px;border:14px solid red;"">","null","","","","","",""
"","image-keyboard-response","333","137276","0.0-333.0","352YTHGROWZ3OF58FOY57NE5271H48","A2Y7L7R5UTQ5R2","3FW4EL5A3LANKRP91N782LFHPY722Q","","132","img/food5.png","74","133","1","1","1","0.8,0.5,0,0.8,0,0.5,0.5,0.8,0,0,0.8,0.5",""
"","html-keyboard-response","334","137579","0.0-334.0","352YTHGROWZ3OF58FOY57NE5271H48","A2Y7L7R5UTQ5R2","3FW4EL5A3LANKRP91N782LFHPY722Q","","null","<img src=""img/food5.png"" style=""width:200px; border:14px solid green;"">","null","","","","","",""
"","image-keyboard-response","335","137683","0.0-335.0","352YTHGROWZ3OF58FOY57NE5271H48","A2Y7L7R5UTQ5R2","3FW4EL5A3LANKRP91N782LFHPY722Q","","103","img/food6.png","75","104","2","0","2","0.8,0.5,0,0.8,0,0.5,0.5,0.8,0,0,0.8,0.5",""
"","html-keyboard-response","336","137984","0.0-336.0","352YTHGROWZ3OF58FOY57NE5271H48","A2Y7L7R5UTQ5R2","3FW4EL5A3LANKRP91N782LFHPY722Q","","null","<img src=""img/food6.png"" style=""width:200px;border:14px solid red;"">","null","","","","","",""
"","image-keyboard-response","337","138263","0.0-337.0","352YTHGROWZ3OF58FOY57NE5271H48","A2Y7L7R5UTQ5R2","3FW4EL5A3LANKRP91N782LFHPY722Q","","278","img/food2.png","76","279","3","0","3","0.8,0.5,0,0.8,0,0.5,0.5,0.8,0,0,0.8,0.5",""
"","html-keyboard-response","338","138564","0.0-338.0","352YTHGROWZ3OF58FOY57NE5271H48","A2Y7L7R5UTQ5R2","3FW4EL5A3LANKRP91N782LFHPY722Q","","null","<img src=""img/food2.png"" style=""width:200px;border:14px solid red;"">","null","","","","","",""
"","image-keyboard-response","339","138929","0.0-339.0","352YTHGROWZ3OF58FOY57NE5271H48","A2Y7L7R5UTQ5R2","3FW4EL5A3LANKRP91N782LFHPY722Q","","363","img/food5.png","75","365","2","0","1","0.8,0.5,0,0.8,0,0.5,0.5,0.8,0,0,0.8,0.5",""
"","html-keyboard-response","340","139230","0.0-340.0","352YTHGROWZ3OF58FOY57NE5271H48","A2Y7L7R5UTQ5R2","3FW4EL5A3LANKRP91N782LFHPY722Q","","null","<img src=""img/food5.png"" style=""width:200px;border:14px solid red;"">","null","","","","","",""
"","image-keyboard-response","341","139466","0.0-341.0","352YTHGROWZ3OF58FOY57NE5271H48","A2Y7L7R5UTQ5R2","3FW4EL5A3LANKRP91N782LFHPY722Q","","235","img/food6.png","74","236","1","1","2","0.8,0.5,0,0.8,0,0.5,0.5,0.8,0,0,0.8,0.5",""
"","html-keyboard-response","342","139768","0.0-342.0","352YTHGROWZ3OF58FOY57NE5271H48","A2Y7L7R5UTQ5R2","3FW4EL5A3LANKRP91N782LFHPY722Q","","null","<img src=""img/food6.png"" style=""width:200px; border:14px solid green;"">","null","","","","","",""
"","image-keyboard-response","343","139786","0.0-343.0","352YTHGROWZ3OF58FOY57NE5271H48","A2Y7L7R5UTQ5R2","3FW4EL5A3LANKRP91N782LFHPY722Q","","17","img/food2.png","74","18","1","0","3","0.8,0.5,0,0.8,0,0.5,0.5,0.8,0,0,0.8,0.5",""
"","html-keyboard-response","344","140087","0.0-344.0","352YTHGROWZ3OF58FOY57NE5271H48","A2Y7L7R5UTQ5R2","3FW4EL5A3LANKRP91N782LFHPY722Q","","null","<img src=""img/food2.png"" style=""width:200px;border:14px solid red;"">","null","","","","","",""
"","image-keyboard-response","345","140215","0.0-345.0","352YTHGROWZ3OF58FOY57NE5271H48","A2Y7L7R5UTQ5R2","3FW4EL5A3LANKRP91N782LFHPY722Q","","126","img/food5.png","75","127","2","0","1","0.8,0.5,0,0.8,0,0.5,0.5,0.8,0,0,0.8,0.5",""
"","html-keyboard-response","346","140516","0.0-346.0","352YTHGROWZ3OF58FOY57NE5271H48","A2Y7L7R5UTQ5R2","3FW4EL5A3LANKRP91N782LFHPY722Q","","null","<img src=""img/food5.png"" style=""width:200px;border:14px solid red;"">","null","","","","","",""
"","image-keyboard-response","347","140830","0.0-347.0","352YTHGROWZ3OF58FOY57NE5271H48","A2Y7L7R5UTQ5R2","3FW4EL5A3LANKRP91N782LFHPY722Q","","312","img/food2.png","76","314","3","0","3","0.8,0.5,0,0.8,0,0.5,0.5,0.8,0,0,0.8,0.5",""
"","html-keyboard-response","348","141130","0.0-348.0","352YTHGROWZ3OF58FOY57NE5271H48","A2Y7L7R5UTQ5R2","3FW4EL5A3LANKRP91N782LFHPY722Q","","null","<img src=""img/food2.png"" style=""width:200px;border:14px solid red;"">","null","","","","","",""
"","image-keyboard-response","349","141195","0.0-349.0","352YTHGROWZ3OF58FOY57NE5271H48","A2Y7L7R5UTQ5R2","3FW4EL5A3LANKRP91N782LFHPY722Q","","63","img/food5.png","75","65","2","1","1","0.8,0.5,0,0.8,0,0.5,0.5,0.8,0,0,0.8,0.5",""
"","html-keyboard-response","350","141496","0.0-350.0","352YTHGROWZ3OF58FOY57NE5271H48","A2Y7L7R5UTQ5R2","3FW4EL5A3LANKRP91N782LFHPY722Q","","null","<img src=""img/food5.png"" style=""width:200px; border:14px solid green;"">","null","","","","","",""
"","image-keyboard-response","351","141631","0.0-351.0","352YTHGROWZ3OF58FOY57NE5271H48","A2Y7L7R5UTQ5R2","3FW4EL5A3LANKRP91N782LFHPY722Q","","134","img/food5.png","74","134","1","0","1","0.8,0.5,0,0.8,0,0.5,0.5,0.8,0,0,0.8,0.5",""
"","html-keyboard-response","352","141946","0.0-352.0","352YTHGROWZ3OF58FOY57NE5271H48","A2Y7L7R5UTQ5R2","3FW4EL5A3LANKRP91N782LFHPY722Q","","null","<img src=""img/food5.png"" style=""width:200px;border:14px solid red;"">","null","","","","","",""
"","image-keyboard-response","353","142203","0.0-353.0","352YTHGROWZ3OF58FOY57NE5271H48","A2Y7L7R5UTQ5R2","3FW4EL5A3LANKRP91N782LFHPY722Q","","256","img/food2.png","75","256","2","1","3","0.8,0.5,0,0.8,0,0.5,0.5,0.8,0,0,0.8,0.5",""
"","html-keyboard-response","354","142505","0.0-354.0","352YTHGROWZ3OF58FOY57NE5271H48","A2Y7L7R5UTQ5R2","3FW4EL5A3LANKRP91N782LFHPY722Q","","null","<img src=""img/food2.png"" style=""width:200px; border:14px solid green;"">","null","","","","","",""
"","image-keyboard-response","355","142640","0.0-355.0","352YTHGROWZ3OF58FOY57NE5271H48","A2Y7L7R5UTQ5R2","3FW4EL5A3LANKRP91N782LFHPY722Q","","134","img/food2.png","76","135","3","0","3","0.8,0.5,0,0.8,0,0.5,0.5,0.8,0,0,0.8,0.5",""
"","html-keyboard-response","356","142941","0.0-356.0","352YTHGROWZ3OF58FOY57NE5271H48","A2Y7L7R5UTQ5R2","3FW4EL5A3LANKRP91N782LFHPY722Q","","null","<img src=""img/food2.png"" style=""width:200px;border:14px solid red;"">","null","","","","","",""
"","image-keyboard-response","357","142987","0.0-357.0","352YTHGROWZ3OF58FOY57NE5271H48","A2Y7L7R5UTQ5R2","3FW4EL5A3LANKRP91N782LFHPY722Q","","45","img/food5.png","75","45","2","1","1","0.8,0.5,0,0.8,0,0.5,0.5,0.8,0,0,0.8,0.5",""
"","html-keyboard-response","358","143289","0.0-358.0","352YTHGROWZ3OF58FOY57NE5271H48","A2Y7L7R5UTQ5R2","3FW4EL5A3LANKRP91N782LFHPY722Q","","null","<img src=""img/food5.png"" style=""width:200px; border:14px solid green;"">","null","","","","","",""
"","image-keyboard-response","359","143494","0.0-359.0","352YTHGROWZ3OF58FOY57NE5271H48","A2Y7L7R5UTQ5R2","3FW4EL5A3LANKRP91N782LFHPY722Q","","203","img/food6.png","74","205","1","1","2","0.8,0.5,0,0.8,0,0.5,0.5,0.8,0,0,0.8,0.5",""
"","html-keyboard-response","360","143805","0.0-360.0","352YTHGROWZ3OF58FOY57NE5271H48","A2Y7L7R5UTQ5R2","3FW4EL5A3LANKRP91N782LFHPY722Q","","null","<img src=""img/food6.png"" style=""width:200px; border:14px solid green;"">","null","","","","","",""
"","image-keyboard-response","361","143813","0.0-361.0","352YTHGROWZ3OF58FOY57NE5271H48","A2Y7L7R5UTQ5R2","3FW4EL5A3LANKRP91N782LFHPY722Q","","7","img/food6.png","75","7","2","0","2","0.8,0.5,0,0.8,0,0.5,0.5,0.8,0,0,0.8,0.5",""
"","html-keyboard-response","362","144121","0.0-362.0","352YTHGROWZ3OF58FOY57NE5271H48","A2Y7L7R5UTQ5R2","3FW4EL5A3LANKRP91N782LFHPY722Q","","null","<img src=""img/food6.png"" style=""width:200px;border:14px solid red;"">","null","","","","","",""
"","instructions","363","146656","0.0-363.0","352YTHGROWZ3OF58FOY57NE5271H48","A2Y7L7R5UTQ5R2","3FW4EL5A3LANKRP91N782LFHPY722Q","[{""page_index"":0,""viewing_time"":2535}]","2535","","","","","","","",""
"","survey-text","364","160425","0.0-364.0","352YTHGROWZ3OF58FOY57NE5271H48","A2Y7L7R5UTQ5R2","3FW4EL5A3LANKRP91N782LFHPY722Q","","13765","","","","","","","","{""Q0"":""A2Y7L7R5UTQ5R2""}"
