"success","trial_type","trial_index","time_elapsed","internal_node_id","assignmentID","mturkID","hitID","view_history","rt","stimulus","key_press","reactionTime","a","r","warning","s","cond","reward_cond","reward_cond_actual","reward_matrix_idx","responses"
"true","fullscreen","0","2336","0.0-0.0","3W8CV64QJ3L4LLBKWJUWOVPLS7Z9H0","A2ZL5GAZK6S0H1","3D1UCPY6GGVNRONHL4UEVMXCHLT38H","","","","","","","","","","","","","",""
"","instructions","1","14928","0.0-1.0","3W8CV64QJ3L4LLBKWJUWOVPLS7Z9H0","A2ZL5GAZK6S0H1","3D1UCPY6GGVNRONHL4UEVMXCHLT38H","[{""page_index"":0,""viewing_time"":2631.4000005722046},{""page_index"":1,""viewing_time"":1715.5},{""page_index"":2,""viewing_time"":1412.8999996185303},{""page_index"":3,""viewing_time"":1838},{""page_index"":4,""viewing_time"":988.6999998092651},{""page_index"":5,""viewing_time"":2962.1000003814697},{""page_index"":6,""viewing_time"":1033.1000003814697}]","12583.10000038147","","","","","","","","","","","",""
"","instructions","2","26426","0.0-2.0","3W8CV64QJ3L4LLBKWJUWOVPLS7Z9H0","A2ZL5GAZK6S0H1","3D1UCPY6GGVNRONHL4UEVMXCHLT38H","[{""page_index"":0,""viewing_time"":4643.10000038147},{""page_index"":1,""viewing_time"":6849.799999237061}]","11493.800000190735","","","","","","","","","","","",""
"","image-keyboard-response","3","26934","0.0-3.0","3W8CV64QJ3L4LLBKWJUWOVPLS7Z9H0","A2ZL5GAZK6S0H1","3D1UCPY6GGVNRONHL4UEVMXCHLT38H","","501.80000019073486","img/food3.png","74","506.30000019073486","1","0","false","1","2","1,0.5,0,1,0.5,0,0.5,0,1","0,1,0.5,0,1,0.5,1,0.5,0","3",""
"","html-keyboard-response","4","27241","0.0-4.0","3W8CV64QJ3L4LLBKWJUWOVPLS7Z9H0","A2ZL5GAZK6S0H1","3D1UCPY6GGVNRONHL4UEVMXCHLT38H","","null","<img src=""img/food3.png"" style=""width:200px;border:14px solid red;"">","null","","","","","","","","","",""
"","image-keyboard-response","5","27496","0.0-6.0","3W8CV64QJ3L4LLBKWJUWOVPLS7Z9H0","A2ZL5GAZK6S0H1","3D1UCPY6GGVNRONHL4UEVMXCHLT38H","","246.30000019073486","img/food5.png","75","253","2","1","false","2","2","1,0.5,0,1,0.5,0,0.5,0,1","0,1,0.5,0,1,0.5,1,0.5,0","3",""
"","html-keyboard-response","6","27817","0.0-7.0","3W8CV64QJ3L4LLBKWJUWOVPLS7Z9H0","A2ZL5GAZK6S0H1","3D1UCPY6GGVNRONHL4UEVMXCHLT38H","","null","<img src=""img/food5.png"" style=""width:200px; border:14px solid green;"">","null","","","","","","","","","",""
"","image-keyboard-response","7","27998","0.0-9.0","3W8CV64QJ3L4LLBKWJUWOVPLS7Z9H0","A2ZL5GAZK6S0H1","3D1UCPY6GGVNRONHL4UEVMXCHLT38H","","169.9000005722046","img/food5.png","74","175.10000038146973","1","0","false","2","2","1,0.5,0,1,0.5,0,0.5,0,1","0,1,0.5,0,1,0.5,1,0.5,0","3",""
"","html-keyboard-response","8","28307","0.0-10.0","3W8CV64QJ3L4LLBKWJUWOVPLS7Z9H0","A2ZL5GAZK6S0H1","3D1UCPY6GGVNRONHL4UEVMXCHLT38H","","null","<img src=""img/food5.png"" style=""width:200px;border:14px solid red;"">","null","","","","","","","","","",""
"","image-keyboard-response","9","28571","0.0-12.0","3W8CV64QJ3L4LLBKWJUWOVPLS7Z9H0","A2ZL5GAZK6S0H1","3D1UCPY6GGVNRONHL4UEVMXCHLT38H","","254.5","img/food5.png","75","260.3999996185303","2","1","false","2","2","1,0.5,0,1,0.5,0,0.5,0,1","0,1,0.5,0,1,0.5,1,0.5,0","3",""
"","html-keyboard-response","10","28887","0.0-13.0","3W8CV64QJ3L4LLBKWJUWOVPLS7Z9H0","A2ZL5GAZK6S0H1","3D1UCPY6GGVNRONHL4UEVMXCHLT38H","","null","<img src=""img/food5.png"" style=""width:200px; border:14px solid green;"">","null","","","","","","","","","",""
"","image-keyboard-response","11","29087","0.0-15.0","3W8CV64QJ3L4LLBKWJUWOVPLS7Z9H0","A2ZL5GAZK6S0H1","3D1UCPY6GGVNRONHL4UEVMXCHLT38H","","196.0999994277954","img/food5.png","76","200.19999980926514","3","0","false","2","2","1,0.5,0,1,0.5,0,0.5,0,1","0,1,0.5,0,1,0.5,1,0.5,0","3",""
"","html-keyboard-response","12","29404","0.0-16.0","3W8CV64QJ3L4LLBKWJUWOVPLS7Z9H0","A2ZL5GAZK6S0H1","3D1UCPY6GGVNRONHL4UEVMXCHLT38H","","null","<img src=""img/food5.png"" style=""width:200px;border:14px solid red;"">","null","","","","","","","","","",""
"","image-keyboard-response","13","29609","0.0-18.0","3W8CV64QJ3L4LLBKWJUWOVPLS7Z9H0","A2ZL5GAZK6S0H1","3D1UCPY6GGVNRONHL4UEVMXCHLT38H","","196.30000019073486","img/food3.png","75","200.9000005722046","2","1","false","1","2","1,0.5,0,1,0.5,0,0.5,0,1","0,1,0.5,0,1,0.5,1,0.5,0","3",""
"","html-keyboard-response","14","29914","0.0-19.0","3W8CV64QJ3L4LLBKWJUWOVPLS7Z9H0","A2ZL5GAZK6S0H1","3D1UCPY6GGVNRONHL4UEVMXCHLT38H","","null","<img src=""img/food3.png"" style=""width:200px; border:14px solid green;"">","null","","","","","","","","","",""
"","image-keyboard-response","15","30142","0.0-21.0","3W8CV64QJ3L4LLBKWJUWOVPLS7Z9H0","A2ZL5GAZK6S0H1","3D1UCPY6GGVNRONHL4UEVMXCHLT38H","","222.70000076293945","img/food4.png","74","226.39999961853027","1","1","false","3","2","1,0.5,0,1,0.5,0,0.5,0,1","0,1,0.5,0,1,0.5,1,0.5,0","3",""
"","html-keyboard-response","16","30452","0.0-22.0","3W8CV64QJ3L4LLBKWJUWOVPLS7Z9H0","A2ZL5GAZK6S0H1","3D1UCPY6GGVNRONHL4UEVMXCHLT38H","","null","<img src=""img/food4.png"" style=""width:200px; border:14px solid green;"">","null","","","","","","","","","",""
"","image-keyboard-response","17","30660","0.0-24.0","3W8CV64QJ3L4LLBKWJUWOVPLS7Z9H0","A2ZL5GAZK6S0H1","3D1UCPY6GGVNRONHL4UEVMXCHLT38H","","199.19999980926514","img/food5.png","75","206.10000038146973","2","1","false","2","2","1,0.5,0,1,0.5,0,0.5,0,1","0,1,0.5,0,1,0.5,1,0.5,0","3",""
"","html-keyboard-response","18","30966","0.0-25.0","3W8CV64QJ3L4LLBKWJUWOVPLS7Z9H0","A2ZL5GAZK6S0H1","3D1UCPY6GGVNRONHL4UEVMXCHLT38H","","null","<img src=""img/food5.png"" style=""width:200px; border:14px solid green;"">","null","","","","","","","","","",""
"","image-keyboard-response","19","31174","0.0-27.0","3W8CV64QJ3L4LLBKWJUWOVPLS7Z9H0","A2ZL5GAZK6S0H1","3D1UCPY6GGVNRONHL4UEVMXCHLT38H","","197.39999961853027","img/food5.png","74","204.60000038146973","1","0","false","2","2","1,0.5,0,1,0.5,0,0.5,0,1","0,1,0.5,0,1,0.5,1,0.5,0","3",""
"","html-keyboard-response","20","31485","0.0-28.0","3W8CV64QJ3L4LLBKWJUWOVPLS7Z9H0","A2ZL5GAZK6S0H1","3D1UCPY6GGVNRONHL4UEVMXCHLT38H","","null","<img src=""img/food5.png"" style=""width:200px;border:14px solid red;"">","null","","","","","","","","","",""
"","image-keyboard-response","21","31698","0.0-30.0","3W8CV64QJ3L4LLBKWJUWOVPLS7Z9H0","A2ZL5GAZK6S0H1","3D1UCPY6GGVNRONHL4UEVMXCHLT38H","","203.10000038146973","img/food4.png","75","210.19999980926514","2","1","false","3","2","1,0.5,0,1,0.5,0,0.5,0,1","0,1,0.5,0,1,0.5,1,0.5,0","3",""
"","html-keyboard-response","22","32009","0.0-31.0","3W8CV64QJ3L4LLBKWJUWOVPLS7Z9H0","A2ZL5GAZK6S0H1","3D1UCPY6GGVNRONHL4UEVMXCHLT38H","","null","<img src=""img/food4.png"" style=""width:200px; border:14px solid green;"">","null","","","","","","","","","",""
"","image-keyboard-response","23","32212","0.0-33.0","3W8CV64QJ3L4LLBKWJUWOVPLS7Z9H0","A2ZL5GAZK6S0H1","3D1UCPY6GGVNRONHL4UEVMXCHLT38H","","194.5","img/food3.png","76","200.9000005722046","3","0","false","1","2","1,0.5,0,1,0.5,0,0.5,0,1","0,1,0.5,0,1,0.5,1,0.5,0","3",""
"","html-keyboard-response","24","32522","0.0-34.0","3W8CV64QJ3L4LLBKWJUWOVPLS7Z9H0","A2ZL5GAZK6S0H1","3D1UCPY6GGVNRONHL4UEVMXCHLT38H","","null","<img src=""img/food3.png"" style=""width:200px;border:14px solid red;"">","null","","","","","","","","","",""
"","image-keyboard-response","25","32699","0.0-36.0","3W8CV64QJ3L4LLBKWJUWOVPLS7Z9H0","A2ZL5GAZK6S0H1","3D1UCPY6GGVNRONHL4UEVMXCHLT38H","","168","img/food4.png","75","174.19999980926514","2","0","false","3","2","1,0.5,0,1,0.5,0,0.5,0,1","0,1,0.5,0,1,0.5,1,0.5,0","3",""
"","html-keyboard-response","26","33008","0.0-37.0","3W8CV64QJ3L4LLBKWJUWOVPLS7Z9H0","A2ZL5GAZK6S0H1","3D1UCPY6GGVNRONHL4UEVMXCHLT38H","","null","<img src=""img/food4.png"" style=""width:200px;border:14px solid red;"">","null","","","","","","","","","",""
"","image-keyboard-response","27","33246","0.0-39.0","3W8CV64QJ3L4LLBKWJUWOVPLS7Z9H0","A2ZL5GAZK6S0H1","3D1UCPY6GGVNRONHL4UEVMXCHLT38H","","229.10000038146973","img/food3.png","74","234.80000019073486","1","0","false","1","2","1,0.5,0,1,0.5,0,0.5,0,1","0,1,0.5,0,1,0.5,1,0.5,0","3",""
"","html-keyboard-response","28","33556","0.0-40.0","3W8CV64QJ3L4LLBKWJUWOVPLS7Z9H0","A2ZL5GAZK6S0H1","3D1UCPY6GGVNRONHL4UEVMXCHLT38H","","null","<img src=""img/food3.png"" style=""width:200px;border:14px solid red;"">","null","","","","","","","","","",""
"","image-keyboard-response","29","33764","0.0-42.0","3W8CV64QJ3L4LLBKWJUWOVPLS7Z9H0","A2ZL5GAZK6S0H1","3D1UCPY6GGVNRONHL4UEVMXCHLT38H","","201","img/food4.png","75","205.5","2","0","false","3","2","1,0.5,0,1,0.5,0,0.5,0,1","0,1,0.5,0,1,0.5,1,0.5,0","3",""
"","html-keyboard-response","30","34072","0.0-43.0","3W8CV64QJ3L4LLBKWJUWOVPLS7Z9H0","A2ZL5GAZK6S0H1","3D1UCPY6GGVNRONHL4UEVMXCHLT38H","","null","<img src=""img/food4.png"" style=""width:200px;border:14px solid red;"">","null","","","","","","","","","",""
"","image-keyboard-response","31","34279","0.0-45.0","3W8CV64QJ3L4LLBKWJUWOVPLS7Z9H0","A2ZL5GAZK6S0H1","3D1UCPY6GGVNRONHL4UEVMXCHLT38H","","199","img/food3.png","76","205","3","1","false","1","2","1,0.5,0,1,0.5,0,0.5,0,1","0,1,0.5,0,1,0.5,1,0.5,0","3",""
"","html-keyboard-response","32","34590","0.0-46.0","3W8CV64QJ3L4LLBKWJUWOVPLS7Z9H0","A2ZL5GAZK6S0H1","3D1UCPY6GGVNRONHL4UEVMXCHLT38H","","null","<img src=""img/food3.png"" style=""width:200px; border:14px solid green;"">","null","","","","","","","","","",""
"","image-keyboard-response","33","34807","0.0-48.0","3W8CV64QJ3L4LLBKWJUWOVPLS7Z9H0","A2ZL5GAZK6S0H1","3D1UCPY6GGVNRONHL4UEVMXCHLT38H","","210.5999994277954","img/food4.png","75","215.79999923706055","2","1","false","3","2","1,0.5,0,1,0.5,0,0.5,0,1","0,1,0.5,0,1,0.5,1,0.5,0","3",""
"","html-keyboard-response","34","35116","0.0-49.0","3W8CV64QJ3L4LLBKWJUWOVPLS7Z9H0","A2ZL5GAZK6S0H1","3D1UCPY6GGVNRONHL4UEVMXCHLT38H","","null","<img src=""img/food4.png"" style=""width:200px; border:14px solid green;"">","null","","","","","","","","","",""
"","image-keyboard-response","35","35322","0.0-51.0","3W8CV64QJ3L4LLBKWJUWOVPLS7Z9H0","A2ZL5GAZK6S0H1","3D1UCPY6GGVNRONHL4UEVMXCHLT38H","","196.69999980926514","img/food3.png","76","205.19999980926514","3","1","false","1","2","1,0.5,0,1,0.5,0,0.5,0,1","0,1,0.5,0,1,0.5,1,0.5,0","3",""
"","html-keyboard-response","36","35635","0.0-52.0","3W8CV64QJ3L4LLBKWJUWOVPLS7Z9H0","A2ZL5GAZK6S0H1","3D1UCPY6GGVNRONHL4UEVMXCHLT38H","","null","<img src=""img/food3.png"" style=""width:200px; border:14px solid green;"">","null","","","","","","","","","",""
"","image-keyboard-response","37","35816","0.0-54.0","3W8CV64QJ3L4LLBKWJUWOVPLS7Z9H0","A2ZL5GAZK6S0H1","3D1UCPY6GGVNRONHL4UEVMXCHLT38H","","174.69999980926514","img/food3.png","75","180.10000038146973","2","1","false","1","2","1,0.5,0,1,0.5,0,0.5,0,1","0,1,0.5,0,1,0.5,1,0.5,0","3",""
"","html-keyboard-response","38","36126","0.0-55.0","3W8CV64QJ3L4LLBKWJUWOVPLS7Z9H0","A2ZL5GAZK6S0H1","3D1UCPY6GGVNRONHL4UEVMXCHLT38H","","null","<img src=""img/food3.png"" style=""width:200px; border:14px solid green;"">","null","","","","","","","","","",""
"","image-keyboard-response","39","36310","0.0-57.0","3W8CV64QJ3L4LLBKWJUWOVPLS7Z9H0","A2ZL5GAZK6S0H1","3D1UCPY6GGVNRONHL4UEVMXCHLT38H","","176.39999961853027","img/food4.png","76","181.69999980926514","3","0","false","3","2","1,0.5,0,1,0.5,0,0.5,0,1","0,1,0.5,0,1,0.5,1,0.5,0","3",""
"","html-keyboard-response","40","36615","0.0-58.0","3W8CV64QJ3L4LLBKWJUWOVPLS7Z9H0","A2ZL5GAZK6S0H1","3D1UCPY6GGVNRONHL4UEVMXCHLT38H","","null","<img src=""img/food4.png"" style=""width:200px;border:14px solid red;"">","null","","","","","","","","","",""
"","image-keyboard-response","41","36848","0.0-60.0","3W8CV64QJ3L4LLBKWJUWOVPLS7Z9H0","A2ZL5GAZK6S0H1","3D1UCPY6GGVNRONHL4UEVMXCHLT38H","","228.89999961853027","img/food5.png","76","232.5999994277954","3","1","false","2","2","1,0.5,0,1,0.5,0,0.5,0,1","0,1,0.5,0,1,0.5,1,0.5,0","3",""
"","html-keyboard-response","42","37157","0.0-61.0","3W8CV64QJ3L4LLBKWJUWOVPLS7Z9H0","A2ZL5GAZK6S0H1","3D1UCPY6GGVNRONHL4UEVMXCHLT38H","","null","<img src=""img/food5.png"" style=""width:200px; border:14px solid green;"">","null","","","","","","","","","",""
"","image-keyboard-response","43","37348","0.0-63.0","3W8CV64QJ3L4LLBKWJUWOVPLS7Z9H0","A2ZL5GAZK6S0H1","3D1UCPY6GGVNRONHL4UEVMXCHLT38H","","182.10000038146973","img/food5.png","75","188","2","1","false","2","2","1,0.5,0,1,0.5,0,0.5,0,1","0,1,0.5,0,1,0.5,1,0.5,0","3",""
"","html-keyboard-response","44","37657","0.0-64.0","3W8CV64QJ3L4LLBKWJUWOVPLS7Z9H0","A2ZL5GAZK6S0H1","3D1UCPY6GGVNRONHL4UEVMXCHLT38H","","null","<img src=""img/food5.png"" style=""width:200px; border:14px solid green;"">","null","","","","","","","","","",""
"","image-keyboard-response","45","37864","0.0-66.0","3W8CV64QJ3L4LLBKWJUWOVPLS7Z9H0","A2ZL5GAZK6S0H1","3D1UCPY6GGVNRONHL4UEVMXCHLT38H","","202.69999980926514","img/food3.png","76","206.5","3","1","false","1","2","1,0.5,0,1,0.5,0,0.5,0,1","0,1,0.5,0,1,0.5,1,0.5,0","3",""
"","html-keyboard-response","46","38174","0.0-67.0","3W8CV64QJ3L4LLBKWJUWOVPLS7Z9H0","A2ZL5GAZK6S0H1","3D1UCPY6GGVNRONHL4UEVMXCHLT38H","","null","<img src=""img/food3.png"" style=""width:200px; border:14px solid green;"">","null","","","","","","","","","",""
"","image-keyboard-response","47","38442","0.0-69.0","3W8CV64QJ3L4LLBKWJUWOVPLS7Z9H0","A2ZL5GAZK6S0H1","3D1UCPY6GGVNRONHL4UEVMXCHLT38H","","261.1000003814697","img/food5.png","76","266.3999996185303","3","0","false","2","2","1,0.5,0,1,0.5,0,0.5,0,1","0,1,0.5,0,1,0.5,1,0.5,0","3",""
"","html-keyboard-response","48","38750","0.0-70.0","3W8CV64QJ3L4LLBKWJUWOVPLS7Z9H0","A2ZL5GAZK6S0H1","3D1UCPY6GGVNRONHL4UEVMXCHLT38H","","null","<img src=""img/food5.png"" style=""width:200px;border:14px solid red;"">","null","","","","","","","","","",""
"","image-keyboard-response","49","38913","0.0-72.0","3W8CV64QJ3L4LLBKWJUWOVPLS7Z9H0","A2ZL5GAZK6S0H1","3D1UCPY6GGVNRONHL4UEVMXCHLT38H","","159.20000076293945","img/food3.png","75","163","2","1","false","1","2","1,0.5,0,1,0.5,0,0.5,0,1","0,1,0.5,0,1,0.5,1,0.5,0","3",""
"","html-keyboard-response","50","39226","0.0-73.0","3W8CV64QJ3L4LLBKWJUWOVPLS7Z9H0","A2ZL5GAZK6S0H1","3D1UCPY6GGVNRONHL4UEVMXCHLT38H","","null","<img src=""img/food3.png"" style=""width:200px; border:14px solid green;"">","null","","","","","","","","","",""
"","image-keyboard-response","51","39459","0.0-75.0","3W8CV64QJ3L4LLBKWJUWOVPLS7Z9H0","A2ZL5GAZK6S0H1","3D1UCPY6GGVNRONHL4UEVMXCHLT38H","","227","img/food5.png","75","231.60000038146973","2","1","false","2","2","1,0.5,0,1,0.5,0,0.5,0,1","0,1,0.5,0,1,0.5,1,0.5,0","3",""
"","html-keyboard-response","52","39767","0.0-76.0","3W8CV64QJ3L4LLBKWJUWOVPLS7Z9H0","A2ZL5GAZK6S0H1","3D1UCPY6GGVNRONHL4UEVMXCHLT38H","","null","<img src=""img/food5.png"" style=""width:200px; border:14px solid green;"">","null","","","","","","","","","",""
"","image-keyboard-response","53","39933","0.0-78.0","3W8CV64QJ3L4LLBKWJUWOVPLS7Z9H0","A2ZL5GAZK6S0H1","3D1UCPY6GGVNRONHL4UEVMXCHLT38H","","156.30000019073486","img/food3.png","74","162.80000019073486","1","0","false","1","2","1,0.5,0,1,0.5,0,0.5,0,1","0,1,0.5,0,1,0.5,1,0.5,0","3",""
"","html-keyboard-response","54","40244","0.0-79.0","3W8CV64QJ3L4LLBKWJUWOVPLS7Z9H0","A2ZL5GAZK6S0H1","3D1UCPY6GGVNRONHL4UEVMXCHLT38H","","null","<img src=""img/food3.png"" style=""width:200px;border:14px solid red;"">","null","","","","","","","","","",""
"","image-keyboard-response","55","40496","0.0-81.0","3W8CV64QJ3L4LLBKWJUWOVPLS7Z9H0","A2ZL5GAZK6S0H1","3D1UCPY6GGVNRONHL4UEVMXCHLT38H","","243.80000019073486","img/food4.png","74","250","1","1","false","3","2","1,0.5,0,1,0.5,0,0.5,0,1","0,1,0.5,0,1,0.5,1,0.5,0","3",""
"","html-keyboard-response","56","40804","0.0-82.0","3W8CV64QJ3L4LLBKWJUWOVPLS7Z9H0","A2ZL5GAZK6S0H1","3D1UCPY6GGVNRONHL4UEVMXCHLT38H","","null","<img src=""img/food4.png"" style=""width:200px; border:14px solid green;"">","null","","","","","","","","","",""
"","image-keyboard-response","57","40999","0.0-84.0","3W8CV64QJ3L4LLBKWJUWOVPLS7Z9H0","A2ZL5GAZK6S0H1","3D1UCPY6GGVNRONHL4UEVMXCHLT38H","","191","img/food4.png","75","193.9000005722046","2","1","false","3","2","1,0.5,0,1,0.5,0,0.5,0,1","0,1,0.5,0,1,0.5,1,0.5,0","3",""
"","html-keyboard-response","58","41305","0.0-85.0","3W8CV64QJ3L4LLBKWJUWOVPLS7Z9H0","A2ZL5GAZK6S0H1","3D1UCPY6GGVNRONHL4UEVMXCHLT38H","","null","<img src=""img/food4.png"" style=""width:200px; border:14px solid green;"">","null","","","","","","","","","",""
"","image-keyboard-response","59","41601","0.0-87.0","3W8CV64QJ3L4LLBKWJUWOVPLS7Z9H0","A2ZL5GAZK6S0H1","3D1UCPY6GGVNRONHL4UEVMXCHLT38H","","288.19999980926514","img/food4.png","76","292.69999980926514","3","0","false","3","2","1,0.5,0,1,0.5,0,0.5,0,1","0,1,0.5,0,1,0.5,1,0.5,0","3",""
"","html-keyboard-response","60","41906","0.0-88.0","3W8CV64QJ3L4LLBKWJUWOVPLS7Z9H0","A2ZL5GAZK6S0H1","3D1UCPY6GGVNRONHL4UEVMXCHLT38H","","null","<img src=""img/food4.png"" style=""width:200px;border:14px solid red;"">","null","","","","","","","","","",""
"","image-keyboard-response","61","42196","0.0-90.0","3W8CV64QJ3L4LLBKWJUWOVPLS7Z9H0","A2ZL5GAZK6S0H1","3D1UCPY6GGVNRONHL4UEVMXCHLT38H","","283.5","img/food4.png","75","287.3999996185303","2","1","false","3","2","1,0.5,0,1,0.5,0,0.5,0,1","0,1,0.5,0,1,0.5,1,0.5,0","3",""
"","html-keyboard-response","62","42504","0.0-91.0","3W8CV64QJ3L4LLBKWJUWOVPLS7Z9H0","A2ZL5GAZK6S0H1","3D1UCPY6GGVNRONHL4UEVMXCHLT38H","","null","<img src=""img/food4.png"" style=""width:200px; border:14px solid green;"">","null","","","","","","","","","",""
"","image-keyboard-response","63","42809","0.0-93.0","3W8CV64QJ3L4LLBKWJUWOVPLS7Z9H0","A2ZL5GAZK6S0H1","3D1UCPY6GGVNRONHL4UEVMXCHLT38H","","297.30000019073486","img/food4.png","74","302.6000003814697","1","1","false","3","2","1,0.5,0,1,0.5,0,0.5,0,1","0,1,0.5,0,1,0.5,1,0.5,0","3",""
"","html-keyboard-response","64","43123","0.0-94.0","3W8CV64QJ3L4LLBKWJUWOVPLS7Z9H0","A2ZL5GAZK6S0H1","3D1UCPY6GGVNRONHL4UEVMXCHLT38H","","null","<img src=""img/food4.png"" style=""width:200px; border:14px solid green;"">","null","","","","","","","","","",""
"","image-keyboard-response","65","43346","0.0-96.0","3W8CV64QJ3L4LLBKWJUWOVPLS7Z9H0","A2ZL5GAZK6S0H1","3D1UCPY6GGVNRONHL4UEVMXCHLT38H","","210.69999980926514","img/food4.png","75","219.60000038146973","2","1","false","3","2","1,0.5,0,1,0.5,0,0.5,0,1","0,1,0.5,0,1,0.5,1,0.5,0","3",""
"","html-keyboard-response","66","43653","0.0-97.0","3W8CV64QJ3L4LLBKWJUWOVPLS7Z9H0","A2ZL5GAZK6S0H1","3D1UCPY6GGVNRONHL4UEVMXCHLT38H","","null","<img src=""img/food4.png"" style=""width:200px; border:14px solid green;"">","null","","","","","","","","","",""
"","image-keyboard-response","67","44080","0.0-99.0","3W8CV64QJ3L4LLBKWJUWOVPLS7Z9H0","A2ZL5GAZK6S0H1","3D1UCPY6GGVNRONHL4UEVMXCHLT38H","","421.8999996185303","img/food5.png","75","426.1000003814697","2","1","false","2","2","1,0.5,0,1,0.5,0,0.5,0,1","0,1,0.5,0,1,0.5,1,0.5,0","3",""
"","html-keyboard-response","68","44391","0.0-100.0","3W8CV64QJ3L4LLBKWJUWOVPLS7Z9H0","A2ZL5GAZK6S0H1","3D1UCPY6GGVNRONHL4UEVMXCHLT38H","","null","<img src=""img/food5.png"" style=""width:200px; border:14px solid green;"">","null","","","","","","","","","",""
"","image-keyboard-response","69","44648","0.0-102.0","3W8CV64QJ3L4LLBKWJUWOVPLS7Z9H0","A2ZL5GAZK6S0H1","3D1UCPY6GGVNRONHL4UEVMXCHLT38H","","249.79999923706055","img/food5.png","76","254.30000019073486","3","0","false","2","2","1,0.5,0,1,0.5,0,0.5,0,1","0,1,0.5,0,1,0.5,1,0.5,0","3",""
"","html-keyboard-response","70","44953","0.0-103.0","3W8CV64QJ3L4LLBKWJUWOVPLS7Z9H0","A2ZL5GAZK6S0H1","3D1UCPY6GGVNRONHL4UEVMXCHLT38H","","null","<img src=""img/food5.png"" style=""width:200px;border:14px solid red;"">","null","","","","","","","","","",""
"","image-keyboard-response","71","45216","0.0-105.0","3W8CV64QJ3L4LLBKWJUWOVPLS7Z9H0","A2ZL5GAZK6S0H1","3D1UCPY6GGVNRONHL4UEVMXCHLT38H","","256.19999980926514","img/food5.png","76","259.30000019073486","3","1","false","2","2","1,0.5,0,1,0.5,0,0.5,0,1","0,1,0.5,0,1,0.5,1,0.5,0","3",""
"","html-keyboard-response","72","45520","0.0-106.0","3W8CV64QJ3L4LLBKWJUWOVPLS7Z9H0","A2ZL5GAZK6S0H1","3D1UCPY6GGVNRONHL4UEVMXCHLT38H","","null","<img src=""img/food5.png"" style=""width:200px; border:14px solid green;"">","null","","","","","","","","","",""
"","image-keyboard-response","73","45794","0.0-108.0","3W8CV64QJ3L4LLBKWJUWOVPLS7Z9H0","A2ZL5GAZK6S0H1","3D1UCPY6GGVNRONHL4UEVMXCHLT38H","","266.9000005722046","img/food4.png","76","272","3","0","false","3","2","1,0.5,0,1,0.5,0,0.5,0,1","0,1,0.5,0,1,0.5,1,0.5,0","3",""
"","html-keyboard-response","74","46101","0.0-109.0","3W8CV64QJ3L4LLBKWJUWOVPLS7Z9H0","A2ZL5GAZK6S0H1","3D1UCPY6GGVNRONHL4UEVMXCHLT38H","","null","<img src=""img/food4.png"" style=""width:200px;border:14px solid red;"">","null","","","","","","","","","",""
"","image-keyboard-response","75","46273","0.0-111.0","3W8CV64QJ3L4LLBKWJUWOVPLS7Z9H0","A2ZL5GAZK6S0H1","3D1UCPY6GGVNRONHL4UEVMXCHLT38H","","164.29999923706055","img/food5.png","74","170.4000005722046","1","0","false","2","2","1,0.5,0,1,0.5,0,0.5,0,1","0,1,0.5,0,1,0.5,1,0.5,0","3",""
"","html-keyboard-response","76","46587","0.0-112.0","3W8CV64QJ3L4LLBKWJUWOVPLS7Z9H0","A2ZL5GAZK6S0H1","3D1UCPY6GGVNRONHL4UEVMXCHLT38H","","null","<img src=""img/food5.png"" style=""width:200px;border:14px solid red;"">","null","","","","","","","","","",""
"","image-keyboard-response","77","46895","0.0-114.0","3W8CV64QJ3L4LLBKWJUWOVPLS7Z9H0","A2ZL5GAZK6S0H1","3D1UCPY6GGVNRONHL4UEVMXCHLT38H","","301","img/food5.png","74","305.19999980926514","1","0","false","2","2","1,0.5,0,1,0.5,0,0.5,0,1","0,1,0.5,0,1,0.5,1,0.5,0","3",""
"","html-keyboard-response","78","47203","0.0-115.0","3W8CV64QJ3L4LLBKWJUWOVPLS7Z9H0","A2ZL5GAZK6S0H1","3D1UCPY6GGVNRONHL4UEVMXCHLT38H","","null","<img src=""img/food5.png"" style=""width:200px;border:14px solid red;"">","null","","","","","","","","","",""
"","image-keyboard-response","79","47405","0.0-117.0","3W8CV64QJ3L4LLBKWJUWOVPLS7Z9H0","A2ZL5GAZK6S0H1","3D1UCPY6GGVNRONHL4UEVMXCHLT38H","","192.4000005722046","img/food5.png","75","198.9000005722046","2","1","false","2","2","1,0.5,0,1,0.5,0,0.5,0,1","0,1,0.5,0,1,0.5,1,0.5,0","3",""
"","html-keyboard-response","80","47716","0.0-118.0","3W8CV64QJ3L4LLBKWJUWOVPLS7Z9H0","A2ZL5GAZK6S0H1","3D1UCPY6GGVNRONHL4UEVMXCHLT38H","","null","<img src=""img/food5.png"" style=""width:200px; border:14px solid green;"">","null","","","","","","","","","",""
"","image-keyboard-response","81","47914","0.0-120.0","3W8CV64QJ3L4LLBKWJUWOVPLS7Z9H0","A2ZL5GAZK6S0H1","3D1UCPY6GGVNRONHL4UEVMXCHLT38H","","181","img/food4.png","74","185.80000019073486","1","1","false","3","2","1,0.5,0,1,0.5,0,0.5,0,1","0,1,0.5,0,1,0.5,1,0.5,0","3",""
"","html-keyboard-response","82","48225","0.0-121.0","3W8CV64QJ3L4LLBKWJUWOVPLS7Z9H0","A2ZL5GAZK6S0H1","3D1UCPY6GGVNRONHL4UEVMXCHLT38H","","null","<img src=""img/food4.png"" style=""width:200px; border:14px solid green;"">","null","","","","","","","","","",""
"","image-keyboard-response","83","48413","0.0-123.0","3W8CV64QJ3L4LLBKWJUWOVPLS7Z9H0","A2ZL5GAZK6S0H1","3D1UCPY6GGVNRONHL4UEVMXCHLT38H","","178.29999923706055","img/food4.png","76","185.30000019073486","3","0","false","3","2","1,0.5,0,1,0.5,0,0.5,0,1","0,1,0.5,0,1,0.5,1,0.5,0","3",""
"","html-keyboard-response","84","48723","0.0-124.0","3W8CV64QJ3L4LLBKWJUWOVPLS7Z9H0","A2ZL5GAZK6S0H1","3D1UCPY6GGVNRONHL4UEVMXCHLT38H","","null","<img src=""img/food4.png"" style=""width:200px;border:14px solid red;"">","null","","","","","","","","","",""
"","image-keyboard-response","85","48934","0.0-126.0","3W8CV64QJ3L4LLBKWJUWOVPLS7Z9H0","A2ZL5GAZK6S0H1","3D1UCPY6GGVNRONHL4UEVMXCHLT38H","","202","img/food3.png","76","208.0999994277954","3","0","false","1","2","1,0.5,0,1,0.5,0,0.5,0,1","0,1,0.5,0,1,0.5,1,0.5,0","3",""
"","html-keyboard-response","86","49243","0.0-127.0","3W8CV64QJ3L4LLBKWJUWOVPLS7Z9H0","A2ZL5GAZK6S0H1","3D1UCPY6GGVNRONHL4UEVMXCHLT38H","","null","<img src=""img/food3.png"" style=""width:200px;border:14px solid red;"">","null","","","","","","","","","",""
"","image-keyboard-response","87","49482","0.0-129.0","3W8CV64QJ3L4LLBKWJUWOVPLS7Z9H0","A2ZL5GAZK6S0H1","3D1UCPY6GGVNRONHL4UEVMXCHLT38H","","232.69999980926514","img/food3.png","75","237.39999961853027","2","1","false","1","2","1,0.5,0,1,0.5,0,0.5,0,1","0,1,0.5,0,1,0.5,1,0.5,0","3",""
"","html-keyboard-response","88","49790","0.0-130.0","3W8CV64QJ3L4LLBKWJUWOVPLS7Z9H0","A2ZL5GAZK6S0H1","3D1UCPY6GGVNRONHL4UEVMXCHLT38H","","null","<img src=""img/food3.png"" style=""width:200px; border:14px solid green;"">","null","","","","","","","","","",""
"","image-keyboard-response","89","50040","0.0-132.0","3W8CV64QJ3L4LLBKWJUWOVPLS7Z9H0","A2ZL5GAZK6S0H1","3D1UCPY6GGVNRONHL4UEVMXCHLT38H","","240.5","img/food5.png","76","245","3","0","false","2","2","1,0.5,0,1,0.5,0,0.5,0,1","0,1,0.5,0,1,0.5,1,0.5,0","3",""
"","html-keyboard-response","90","50346","0.0-133.0","3W8CV64QJ3L4LLBKWJUWOVPLS7Z9H0","A2ZL5GAZK6S0H1","3D1UCPY6GGVNRONHL4UEVMXCHLT38H","","null","<img src=""img/food5.png"" style=""width:200px;border:14px solid red;"">","null","","","","","","","","","",""
"","image-keyboard-response","91","50597","0.0-135.0","3W8CV64QJ3L4LLBKWJUWOVPLS7Z9H0","A2ZL5GAZK6S0H1","3D1UCPY6GGVNRONHL4UEVMXCHLT38H","","244.10000038146973","img/food3.png","74","248.4000005722046","1","0","false","1","2","1,0.5,0,1,0.5,0,0.5,0,1","0,1,0.5,0,1,0.5,1,0.5,0","3",""
"","html-keyboard-response","92","50912","0.0-136.0","3W8CV64QJ3L4LLBKWJUWOVPLS7Z9H0","A2ZL5GAZK6S0H1","3D1UCPY6GGVNRONHL4UEVMXCHLT38H","","null","<img src=""img/food3.png"" style=""width:200px;border:14px solid red;"">","null","","","","","","","","","",""
"","image-keyboard-response","93","51181","0.0-138.0","3W8CV64QJ3L4LLBKWJUWOVPLS7Z9H0","A2ZL5GAZK6S0H1","3D1UCPY6GGVNRONHL4UEVMXCHLT38H","","265.19999980926514","img/food4.png","74","267.30000019073486","1","1","false","3","2","1,0.5,0,1,0.5,0,0.5,0,1","0,1,0.5,0,1,0.5,1,0.5,0","3",""
"","html-keyboard-response","94","51487","0.0-139.0","3W8CV64QJ3L4LLBKWJUWOVPLS7Z9H0","A2ZL5GAZK6S0H1","3D1UCPY6GGVNRONHL4UEVMXCHLT38H","","null","<img src=""img/food4.png"" style=""width:200px; border:14px solid green;"">","null","","","","","","","","","",""
"","image-keyboard-response","95","51728","0.0-141.0","3W8CV64QJ3L4LLBKWJUWOVPLS7Z9H0","A2ZL5GAZK6S0H1","3D1UCPY6GGVNRONHL4UEVMXCHLT38H","","232.5","img/food4.png","75","238.10000038146973","2","1","false","3","2","1,0.5,0,1,0.5,0,0.5,0,1","0,1,0.5,0,1,0.5,1,0.5,0","3",""
"","html-keyboard-response","96","52036","0.0-142.0","3W8CV64QJ3L4LLBKWJUWOVPLS7Z9H0","A2ZL5GAZK6S0H1","3D1UCPY6GGVNRONHL4UEVMXCHLT38H","","null","<img src=""img/food4.png"" style=""width:200px; border:14px solid green;"">","null","","","","","","","","","",""
"","image-keyboard-response","97","52299","0.0-144.0","3W8CV64QJ3L4LLBKWJUWOVPLS7Z9H0","A2ZL5GAZK6S0H1","3D1UCPY6GGVNRONHL4UEVMXCHLT38H","","252.89999961853027","img/food5.png","74","259.3999996185303","1","0","false","2","2","1,0.5,0,1,0.5,0,0.5,0,1","0,1,0.5,0,1,0.5,1,0.5,0","3",""
"","html-keyboard-response","98","52607","0.0-145.0","3W8CV64QJ3L4LLBKWJUWOVPLS7Z9H0","A2ZL5GAZK6S0H1","3D1UCPY6GGVNRONHL4UEVMXCHLT38H","","null","<img src=""img/food5.png"" style=""width:200px;border:14px solid red;"">","null","","","","","","","","","",""
"","image-keyboard-response","99","52883","0.0-147.0","3W8CV64QJ3L4LLBKWJUWOVPLS7Z9H0","A2ZL5GAZK6S0H1","3D1UCPY6GGVNRONHL4UEVMXCHLT38H","","270.19999980926514","img/food3.png","76","274.0999994277954","3","1","false","1","2","1,0.5,0,1,0.5,0,0.5,0,1","0,1,0.5,0,1,0.5,1,0.5,0","3",""
"","html-keyboard-response","100","53192","0.0-148.0","3W8CV64QJ3L4LLBKWJUWOVPLS7Z9H0","A2ZL5GAZK6S0H1","3D1UCPY6GGVNRONHL4UEVMXCHLT38H","","null","<img src=""img/food3.png"" style=""width:200px; border:14px solid green;"">","null","","","","","","","","","",""
"","image-keyboard-response","101","53470","0.0-150.0","3W8CV64QJ3L4LLBKWJUWOVPLS7Z9H0","A2ZL5GAZK6S0H1","3D1UCPY6GGVNRONHL4UEVMXCHLT38H","","274.5","img/food4.png","75","277.8999996185303","2","1","false","3","2","1,0.5,0,1,0.5,0,0.5,0,1","0,1,0.5,0,1,0.5,1,0.5,0","3",""
"","html-keyboard-response","102","53780","0.0-151.0","3W8CV64QJ3L4LLBKWJUWOVPLS7Z9H0","A2ZL5GAZK6S0H1","3D1UCPY6GGVNRONHL4UEVMXCHLT38H","","null","<img src=""img/food4.png"" style=""width:200px; border:14px solid green;"">","null","","","","","","","","","",""
"","image-keyboard-response","103","54012","0.0-153.0","3W8CV64QJ3L4LLBKWJUWOVPLS7Z9H0","A2ZL5GAZK6S0H1","3D1UCPY6GGVNRONHL4UEVMXCHLT38H","","224.80000019073486","img/food5.png","76","230.19999980926514","3","0","false","2","2","1,0.5,0,1,0.5,0,0.5,0,1","0,1,0.5,0,1,0.5,1,0.5,0","3",""
"","html-keyboard-response","104","54319","0.0-154.0","3W8CV64QJ3L4LLBKWJUWOVPLS7Z9H0","A2ZL5GAZK6S0H1","3D1UCPY6GGVNRONHL4UEVMXCHLT38H","","null","<img src=""img/food5.png"" style=""width:200px;border:14px solid red;"">","null","","","","","","","","","",""
"","image-keyboard-response","105","54566","0.0-156.0","3W8CV64QJ3L4LLBKWJUWOVPLS7Z9H0","A2ZL5GAZK6S0H1","3D1UCPY6GGVNRONHL4UEVMXCHLT38H","","241.9000005722046","img/food5.png","75","245.89999961853027","2","1","false","2","2","1,0.5,0,1,0.5,0,0.5,0,1","0,1,0.5,0,1,0.5,1,0.5,0","3",""
"","html-keyboard-response","106","54872","0.0-157.0","3W8CV64QJ3L4LLBKWJUWOVPLS7Z9H0","A2ZL5GAZK6S0H1","3D1UCPY6GGVNRONHL4UEVMXCHLT38H","","null","<img src=""img/food5.png"" style=""width:200px; border:14px solid green;"">","null","","","","","","","","","",""
"","image-keyboard-response","107","55078","0.0-159.0","3W8CV64QJ3L4LLBKWJUWOVPLS7Z9H0","A2ZL5GAZK6S0H1","3D1UCPY6GGVNRONHL4UEVMXCHLT38H","","197.19999980926514","img/food5.png","76","203.10000038146973","3","1","false","2","2","1,0.5,0,1,0.5,0,0.5,0,1","0,1,0.5,0,1,0.5,1,0.5,0","3",""
"","html-keyboard-response","108","55387","0.0-160.0","3W8CV64QJ3L4LLBKWJUWOVPLS7Z9H0","A2ZL5GAZK6S0H1","3D1UCPY6GGVNRONHL4UEVMXCHLT38H","","null","<img src=""img/food5.png"" style=""width:200px; border:14px solid green;"">","null","","","","","","","","","",""
"","image-keyboard-response","109","55636","0.0-162.0","3W8CV64QJ3L4LLBKWJUWOVPLS7Z9H0","A2ZL5GAZK6S0H1","3D1UCPY6GGVNRONHL4UEVMXCHLT38H","","242.89999961853027","img/food4.png","74","247.30000019073486","1","1","false","3","2","1,0.5,0,1,0.5,0,0.5,0,1","0,1,0.5,0,1,0.5,1,0.5,0","3",""
"","html-keyboard-response","110","55943","0.0-163.0","3W8CV64QJ3L4LLBKWJUWOVPLS7Z9H0","A2ZL5GAZK6S0H1","3D1UCPY6GGVNRONHL4UEVMXCHLT38H","","null","<img src=""img/food4.png"" style=""width:200px; border:14px solid green;"">","null","","","","","","","","","",""
"","image-keyboard-response","111","56197","0.0-165.0","3W8CV64QJ3L4LLBKWJUWOVPLS7Z9H0","A2ZL5GAZK6S0H1","3D1UCPY6GGVNRONHL4UEVMXCHLT38H","","245.89999961853027","img/food4.png","74","252.19999980926514","1","1","false","3","2","1,0.5,0,1,0.5,0,0.5,0,1","0,1,0.5,0,1,0.5,1,0.5,0","3",""
"","html-keyboard-response","112","56507","0.0-166.0","3W8CV64QJ3L4LLBKWJUWOVPLS7Z9H0","A2ZL5GAZK6S0H1","3D1UCPY6GGVNRONHL4UEVMXCHLT38H","","null","<img src=""img/food4.png"" style=""width:200px; border:14px solid green;"">","null","","","","","","","","","",""
"","image-keyboard-response","113","56835","0.0-168.0","3W8CV64QJ3L4LLBKWJUWOVPLS7Z9H0","A2ZL5GAZK6S0H1","3D1UCPY6GGVNRONHL4UEVMXCHLT38H","","318.1000003814697","img/food4.png","76","324.9000005722046","3","0","false","3","2","1,0.5,0,1,0.5,0,0.5,0,1","0,1,0.5,0,1,0.5,1,0.5,0","3",""
"","html-keyboard-response","114","57140","0.0-169.0","3W8CV64QJ3L4LLBKWJUWOVPLS7Z9H0","A2ZL5GAZK6S0H1","3D1UCPY6GGVNRONHL4UEVMXCHLT38H","","null","<img src=""img/food4.png"" style=""width:200px;border:14px solid red;"">","null","","","","","","","","","",""
"","image-keyboard-response","115","57850","0.0-171.0","3W8CV64QJ3L4LLBKWJUWOVPLS7Z9H0","A2ZL5GAZK6S0H1","3D1UCPY6GGVNRONHL4UEVMXCHLT38H","","701.8000001907349","img/food3.png","76","707.1000003814697","3","0","false","1","2","1,0.5,0,1,0.5,0,0.5,0,1","0,1,0.5,0,1,0.5,1,0.5,0","3",""
"","html-keyboard-response","116","58156","0.0-172.0","3W8CV64QJ3L4LLBKWJUWOVPLS7Z9H0","A2ZL5GAZK6S0H1","3D1UCPY6GGVNRONHL4UEVMXCHLT38H","","null","<img src=""img/food3.png"" style=""width:200px;border:14px solid red;"">","null","","","","","","","","","",""
"","image-keyboard-response","117","58611","0.0-174.0","3W8CV64QJ3L4LLBKWJUWOVPLS7Z9H0","A2ZL5GAZK6S0H1","3D1UCPY6GGVNRONHL4UEVMXCHLT38H","","445.80000019073486","img/food4.png","74","452.30000019073486","1","1","false","3","2","1,0.5,0,1,0.5,0,0.5,0,1","0,1,0.5,0,1,0.5,1,0.5,0","3",""
"","html-keyboard-response","118","58917","0.0-175.0","3W8CV64QJ3L4LLBKWJUWOVPLS7Z9H0","A2ZL5GAZK6S0H1","3D1UCPY6GGVNRONHL4UEVMXCHLT38H","","null","<img src=""img/food4.png"" style=""width:200px; border:14px solid green;"">","null","","","","","","","","","",""
"","image-keyboard-response","119","59220","0.0-177.0","3W8CV64QJ3L4LLBKWJUWOVPLS7Z9H0","A2ZL5GAZK6S0H1","3D1UCPY6GGVNRONHL4UEVMXCHLT38H","","293.5","img/food3.png","75","299.69999980926514","2","1","false","1","2","1,0.5,0,1,0.5,0,0.5,0,1","0,1,0.5,0,1,0.5,1,0.5,0","3",""
"","html-keyboard-response","120","59526","0.0-178.0","3W8CV64QJ3L4LLBKWJUWOVPLS7Z9H0","A2ZL5GAZK6S0H1","3D1UCPY6GGVNRONHL4UEVMXCHLT38H","","null","<img src=""img/food3.png"" style=""width:200px; border:14px solid green;"">","null","","","","","","","","","",""
"","image-keyboard-response","121","60340","0.0-180.0","3W8CV64QJ3L4LLBKWJUWOVPLS7Z9H0","A2ZL5GAZK6S0H1","3D1UCPY6GGVNRONHL4UEVMXCHLT38H","","806.8999996185303","img/food5.png","75","811.3999996185303","2","1","false","2","2","1,0.5,0,1,0.5,0,0.5,0,1","0,1,0.5,0,1,0.5,1,0.5,0","3",""
"","html-keyboard-response","122","60645","0.0-181.0","3W8CV64QJ3L4LLBKWJUWOVPLS7Z9H0","A2ZL5GAZK6S0H1","3D1UCPY6GGVNRONHL4UEVMXCHLT38H","","null","<img src=""img/food5.png"" style=""width:200px; border:14px solid green;"">","null","","","","","","","","","",""
"","image-keyboard-response","123","61544","0.0-183.0","3W8CV64QJ3L4LLBKWJUWOVPLS7Z9H0","A2ZL5GAZK6S0H1","3D1UCPY6GGVNRONHL4UEVMXCHLT38H","","894.3999996185303","img/food5.png","76","898.3000001907349","3","1","false","2","2","1,0.5,0,1,0.5,0,0.5,0,1","0,1,0.5,0,1,0.5,1,0.5,0","3",""
"","html-keyboard-response","124","61855","0.0-184.0","3W8CV64QJ3L4LLBKWJUWOVPLS7Z9H0","A2ZL5GAZK6S0H1","3D1UCPY6GGVNRONHL4UEVMXCHLT38H","","null","<img src=""img/food5.png"" style=""width:200px; border:14px solid green;"">","null","","","","","","","","","",""
"","image-keyboard-response","125","62612","0.0-186.0","3W8CV64QJ3L4LLBKWJUWOVPLS7Z9H0","A2ZL5GAZK6S0H1","3D1UCPY6GGVNRONHL4UEVMXCHLT38H","","749.9000005722046","img/food5.png","76","754.3999996185303","3","1","false","2","2","1,0.5,0,1,0.5,0,0.5,0,1","0,1,0.5,0,1,0.5,1,0.5,0","3",""
"","html-keyboard-response","126","62918","0.0-187.0","3W8CV64QJ3L4LLBKWJUWOVPLS7Z9H0","A2ZL5GAZK6S0H1","3D1UCPY6GGVNRONHL4UEVMXCHLT38H","","null","<img src=""img/food5.png"" style=""width:200px; border:14px solid green;"">","null","","","","","","","","","",""
"","image-keyboard-response","127","63650","0.0-189.0","3W8CV64QJ3L4LLBKWJUWOVPLS7Z9H0","A2ZL5GAZK6S0H1","3D1UCPY6GGVNRONHL4UEVMXCHLT38H","","722.6999998092651","img/food5.png","76","730.2999992370605","3","1","false","2","2","1,0.5,0,1,0.5,0,0.5,0,1","0,1,0.5,0,1,0.5,1,0.5,0","3",""
"","html-keyboard-response","128","63956","0.0-190.0","3W8CV64QJ3L4LLBKWJUWOVPLS7Z9H0","A2ZL5GAZK6S0H1","3D1UCPY6GGVNRONHL4UEVMXCHLT38H","","null","<img src=""img/food5.png"" style=""width:200px; border:14px solid green;"">","null","","","","","","","","","",""
"","image-keyboard-response","129","64620","0.0-192.0","3W8CV64QJ3L4LLBKWJUWOVPLS7Z9H0","A2ZL5GAZK6S0H1","3D1UCPY6GGVNRONHL4UEVMXCHLT38H","","658","img/food3.png","74","662.2999992370605","1","0","false","1","2","1,0.5,0,1,0.5,0,0.5,0,1","0,1,0.5,0,1,0.5,1,0.5,0","3",""
"","html-keyboard-response","130","64927","0.0-193.0","3W8CV64QJ3L4LLBKWJUWOVPLS7Z9H0","A2ZL5GAZK6S0H1","3D1UCPY6GGVNRONHL4UEVMXCHLT38H","","null","<img src=""img/food3.png"" style=""width:200px;border:14px solid red;"">","null","","","","","","","","","",""
"","image-keyboard-response","131","65083","0.0-195.0","3W8CV64QJ3L4LLBKWJUWOVPLS7Z9H0","A2ZL5GAZK6S0H1","3D1UCPY6GGVNRONHL4UEVMXCHLT38H","","148.19999980926514","img/food3.png","75","152.60000038146973","2","1","false","1","2","1,0.5,0,1,0.5,0,0.5,0,1","0,1,0.5,0,1,0.5,1,0.5,0","3",""
"","html-keyboard-response","132","65389","0.0-196.0","3W8CV64QJ3L4LLBKWJUWOVPLS7Z9H0","A2ZL5GAZK6S0H1","3D1UCPY6GGVNRONHL4UEVMXCHLT38H","","null","<img src=""img/food3.png"" style=""width:200px; border:14px solid green;"">","null","","","","","","","","","",""
"","image-keyboard-response","133","65783","0.0-198.0","3W8CV64QJ3L4LLBKWJUWOVPLS7Z9H0","A2ZL5GAZK6S0H1","3D1UCPY6GGVNRONHL4UEVMXCHLT38H","","386.69999980926514","img/food3.png","75","392.69999980926514","2","1","false","1","2","1,0.5,0,1,0.5,0,0.5,0,1","0,1,0.5,0,1,0.5,1,0.5,0","3",""
"","html-keyboard-response","134","66093","0.0-199.0","3W8CV64QJ3L4LLBKWJUWOVPLS7Z9H0","A2ZL5GAZK6S0H1","3D1UCPY6GGVNRONHL4UEVMXCHLT38H","","null","<img src=""img/food3.png"" style=""width:200px; border:14px solid green;"">","null","","","","","","","","","",""
"","image-keyboard-response","135","67104","0.0-201.0","3W8CV64QJ3L4LLBKWJUWOVPLS7Z9H0","A2ZL5GAZK6S0H1","3D1UCPY6GGVNRONHL4UEVMXCHLT38H","","","img/food5.png","","1008.1999998092651","-1","0","true","2","2","1,0.5,0,1,0.5,0,0.5,0,1","0,1,0.5,0,1,0.5,1,0.5,0","3",""
"","html-keyboard-response","136","67413","0.0-202.0","3W8CV64QJ3L4LLBKWJUWOVPLS7Z9H0","A2ZL5GAZK6S0H1","3D1UCPY6GGVNRONHL4UEVMXCHLT38H","","null","<img src=""img/food5.png"" style=""width:200px;border:14px solid red;"">","null","","","","","","","","","",""
"","html-keyboard-response","137","79814","0.0-203.0-0.0","3W8CV64QJ3L4LLBKWJUWOVPLS7Z9H0","A2ZL5GAZK6S0H1","3D1UCPY6GGVNRONHL4UEVMXCHLT38H","","","","","","","","","","","","","",""
"","image-keyboard-response","138","80670","0.0-204.0","3W8CV64QJ3L4LLBKWJUWOVPLS7Z9H0","A2ZL5GAZK6S0H1","3D1UCPY6GGVNRONHL4UEVMXCHLT38H","","850.5999994277954","img/food3.png","74","855.3000001907349","1","0","false","1","2","1,0.5,0,1,0.5,0,0.5,0,1","0,1,0.5,0,1,0.5,1,0.5,0","3",""
"","html-keyboard-response","139","80980","0.0-205.0","3W8CV64QJ3L4LLBKWJUWOVPLS7Z9H0","A2ZL5GAZK6S0H1","3D1UCPY6GGVNRONHL4UEVMXCHLT38H","","null","<img src=""img/food3.png"" style=""width:200px;border:14px solid red;"">","null","","","","","","","","","",""
"","image-keyboard-response","140","80994","0.0-207.0","3W8CV64QJ3L4LLBKWJUWOVPLS7Z9H0","A2ZL5GAZK6S0H1","3D1UCPY6GGVNRONHL4UEVMXCHLT38H","","5.800000190734863","img/food5.png","74","11.399999618530273","1","0","false","2","2","1,0.5,0,1,0.5,0,0.5,0,1","0,1,0.5,0,1,0.5,1,0.5,0","3",""
"","html-keyboard-response","141","81303","0.0-208.0","3W8CV64QJ3L4LLBKWJUWOVPLS7Z9H0","A2ZL5GAZK6S0H1","3D1UCPY6GGVNRONHL4UEVMXCHLT38H","","null","<img src=""img/food5.png"" style=""width:200px;border:14px solid red;"">","null","","","","","","","","","",""
"","image-keyboard-response","142","81378","0.0-210.0","3W8CV64QJ3L4LLBKWJUWOVPLS7Z9H0","A2ZL5GAZK6S0H1","3D1UCPY6GGVNRONHL4UEVMXCHLT38H","","66","img/food4.png","76","71.19999980926514","3","0","false","3","2","1,0.5,0,1,0.5,0,0.5,0,1","0,1,0.5,0,1,0.5,1,0.5,0","3",""
"","html-keyboard-response","143","81684","0.0-211.0","3W8CV64QJ3L4LLBKWJUWOVPLS7Z9H0","A2ZL5GAZK6S0H1","3D1UCPY6GGVNRONHL4UEVMXCHLT38H","","null","<img src=""img/food4.png"" style=""width:200px;border:14px solid red;"">","null","","","","","","","","","",""
"","image-keyboard-response","144","82006","0.0-213.0","3W8CV64QJ3L4LLBKWJUWOVPLS7Z9H0","A2ZL5GAZK6S0H1","3D1UCPY6GGVNRONHL4UEVMXCHLT38H","","317.69999980926514","img/food5.png","74","321.9000005722046","1","0","false","2","2","1,0.5,0,1,0.5,0,0.5,0,1","0,1,0.5,0,1,0.5,1,0.5,0","3",""
"","html-keyboard-response","145","82315","0.0-214.0","3W8CV64QJ3L4LLBKWJUWOVPLS7Z9H0","A2ZL5GAZK6S0H1","3D1UCPY6GGVNRONHL4UEVMXCHLT38H","","null","<img src=""img/food5.png"" style=""width:200px;border:14px solid red;"">","null","","","","","","","","","",""
"","image-keyboard-response","146","82579","0.0-216.0","3W8CV64QJ3L4LLBKWJUWOVPLS7Z9H0","A2ZL5GAZK6S0H1","3D1UCPY6GGVNRONHL4UEVMXCHLT38H","","255.39999961853027","img/food3.png","74","262","1","0","false","1","2","1,0.5,0,1,0.5,0,0.5,0,1","0,1,0.5,0,1,0.5,1,0.5,0","3",""
"","html-keyboard-response","147","82893","0.0-217.0","3W8CV64QJ3L4LLBKWJUWOVPLS7Z9H0","A2ZL5GAZK6S0H1","3D1UCPY6GGVNRONHL4UEVMXCHLT38H","","null","<img src=""img/food3.png"" style=""width:200px;border:14px solid red;"">","null","","","","","","","","","",""
"","image-keyboard-response","148","83350","0.0-219.0","3W8CV64QJ3L4LLBKWJUWOVPLS7Z9H0","A2ZL5GAZK6S0H1","3D1UCPY6GGVNRONHL4UEVMXCHLT38H","","447.4000005722046","img/food3.png","74","453.8999996185303","1","0","false","1","2","1,0.5,0,1,0.5,0,0.5,0,1","0,1,0.5,0,1,0.5,1,0.5,0","3",""
"","html-keyboard-response","149","83659","0.0-220.0","3W8CV64QJ3L4LLBKWJUWOVPLS7Z9H0","A2ZL5GAZK6S0H1","3D1UCPY6GGVNRONHL4UEVMXCHLT38H","","null","<img src=""img/food3.png"" style=""width:200px;border:14px solid red;"">","null","","","","","","","","","",""
"","image-keyboard-response","150","83985","0.0-222.0","3W8CV64QJ3L4LLBKWJUWOVPLS7Z9H0","A2ZL5GAZK6S0H1","3D1UCPY6GGVNRONHL4UEVMXCHLT38H","","319.79999923706055","img/food5.png","74","325","1","0","false","2","2","1,0.5,0,1,0.5,0,0.5,0,1","0,1,0.5,0,1,0.5,1,0.5,0","3",""
"","html-keyboard-response","151","84297","0.0-223.0","3W8CV64QJ3L4LLBKWJUWOVPLS7Z9H0","A2ZL5GAZK6S0H1","3D1UCPY6GGVNRONHL4UEVMXCHLT38H","","null","<img src=""img/food5.png"" style=""width:200px;border:14px solid red;"">","null","","","","","","","","","",""
"","image-keyboard-response","152","84642","0.0-225.0","3W8CV64QJ3L4LLBKWJUWOVPLS7Z9H0","A2ZL5GAZK6S0H1","3D1UCPY6GGVNRONHL4UEVMXCHLT38H","","337.20000076293945","img/food4.png","74","341.8999996185303","1","1","false","3","2","1,0.5,0,1,0.5,0,0.5,0,1","0,1,0.5,0,1,0.5,1,0.5,0","3",""
"","html-keyboard-response","153","84948","0.0-226.0","3W8CV64QJ3L4LLBKWJUWOVPLS7Z9H0","A2ZL5GAZK6S0H1","3D1UCPY6GGVNRONHL4UEVMXCHLT38H","","null","<img src=""img/food4.png"" style=""width:200px; border:14px solid green;"">","null","","","","","","","","","",""
"","image-keyboard-response","154","85256","0.0-228.0","3W8CV64QJ3L4LLBKWJUWOVPLS7Z9H0","A2ZL5GAZK6S0H1","3D1UCPY6GGVNRONHL4UEVMXCHLT38H","","300","img/food3.png","74","306","1","0","false","1","2","1,0.5,0,1,0.5,0,0.5,0,1","0,1,0.5,0,1,0.5,1,0.5,0","3",""
"","html-keyboard-response","155","85574","0.0-229.0","3W8CV64QJ3L4LLBKWJUWOVPLS7Z9H0","A2ZL5GAZK6S0H1","3D1UCPY6GGVNRONHL4UEVMXCHLT38H","","null","<img src=""img/food3.png"" style=""width:200px;border:14px solid red;"">","null","","","","","","","","","",""
"","image-keyboard-response","156","85910","0.0-231.0","3W8CV64QJ3L4LLBKWJUWOVPLS7Z9H0","A2ZL5GAZK6S0H1","3D1UCPY6GGVNRONHL4UEVMXCHLT38H","","325.5","img/food4.png","74","332","1","1","false","3","2","1,0.5,0,1,0.5,0,0.5,0,1","0,1,0.5,0,1,0.5,1,0.5,0","3",""
"","html-keyboard-response","157","86219","0.0-232.0","3W8CV64QJ3L4LLBKWJUWOVPLS7Z9H0","A2ZL5GAZK6S0H1","3D1UCPY6GGVNRONHL4UEVMXCHLT38H","","null","<img src=""img/food4.png"" style=""width:200px; border:14px solid green;"">","null","","","","","","","","","",""
"","image-keyboard-response","158","86559","0.0-234.0","3W8CV64QJ3L4LLBKWJUWOVPLS7Z9H0","A2ZL5GAZK6S0H1","3D1UCPY6GGVNRONHL4UEVMXCHLT38H","","329.80000019073486","img/food3.png","74","336.5","1","0","false","1","2","1,0.5,0,1,0.5,0,0.5,0,1","0,1,0.5,0,1,0.5,1,0.5,0","3",""
"","html-keyboard-response","159","86870","0.0-235.0","3W8CV64QJ3L4LLBKWJUWOVPLS7Z9H0","A2ZL5GAZK6S0H1","3D1UCPY6GGVNRONHL4UEVMXCHLT38H","","null","<img src=""img/food3.png"" style=""width:200px;border:14px solid red;"">","null","","","","","","","","","",""
"","image-keyboard-response","160","87259","0.0-237.0","3W8CV64QJ3L4LLBKWJUWOVPLS7Z9H0","A2ZL5GAZK6S0H1","3D1UCPY6GGVNRONHL4UEVMXCHLT38H","","380.19999980926514","img/food3.png","74","386.1000003814697","1","0","false","1","2","1,0.5,0,1,0.5,0,0.5,0,1","0,1,0.5,0,1,0.5,1,0.5,0","3",""
"","html-keyboard-response","161","87569","0.0-238.0","3W8CV64QJ3L4LLBKWJUWOVPLS7Z9H0","A2ZL5GAZK6S0H1","3D1UCPY6GGVNRONHL4UEVMXCHLT38H","","null","<img src=""img/food3.png"" style=""width:200px;border:14px solid red;"">","null","","","","","","","","","",""
"","image-keyboard-response","162","87869","0.0-240.0","3W8CV64QJ3L4LLBKWJUWOVPLS7Z9H0","A2ZL5GAZK6S0H1","3D1UCPY6GGVNRONHL4UEVMXCHLT38H","","290.80000019073486","img/food4.png","74","296.0999994277954","1","1","false","3","2","1,0.5,0,1,0.5,0,0.5,0,1","0,1,0.5,0,1,0.5,1,0.5,0","3",""
"","html-keyboard-response","163","88179","0.0-241.0","3W8CV64QJ3L4LLBKWJUWOVPLS7Z9H0","A2ZL5GAZK6S0H1","3D1UCPY6GGVNRONHL4UEVMXCHLT38H","","null","<img src=""img/food4.png"" style=""width:200px; border:14px solid green;"">","null","","","","","","","","","",""
"","image-keyboard-response","164","88464","0.0-243.0","3W8CV64QJ3L4LLBKWJUWOVPLS7Z9H0","A2ZL5GAZK6S0H1","3D1UCPY6GGVNRONHL4UEVMXCHLT38H","","275.79999923706055","img/food3.png","74","282.69999980926514","1","0","false","1","2","1,0.5,0,1,0.5,0,0.5,0,1","0,1,0.5,0,1,0.5,1,0.5,0","3",""
"","html-keyboard-response","165","88774","0.0-244.0","3W8CV64QJ3L4LLBKWJUWOVPLS7Z9H0","A2ZL5GAZK6S0H1","3D1UCPY6GGVNRONHL4UEVMXCHLT38H","","null","<img src=""img/food3.png"" style=""width:200px;border:14px solid red;"">","null","","","","","","","","","",""
"","image-keyboard-response","166","89057","0.0-246.0","3W8CV64QJ3L4LLBKWJUWOVPLS7Z9H0","A2ZL5GAZK6S0H1","3D1UCPY6GGVNRONHL4UEVMXCHLT38H","","276.1000003814697","img/food4.png","74","280.5999994277954","1","1","false","3","2","1,0.5,0,1,0.5,0,0.5,0,1","0,1,0.5,0,1,0.5,1,0.5,0","3",""
"","html-keyboard-response","167","89362","0.0-247.0","3W8CV64QJ3L4LLBKWJUWOVPLS7Z9H0","A2ZL5GAZK6S0H1","3D1UCPY6GGVNRONHL4UEVMXCHLT38H","","null","<img src=""img/food4.png"" style=""width:200px; border:14px solid green;"">","null","","","","","","","","","",""
"","image-keyboard-response","168","89708","0.0-249.0","3W8CV64QJ3L4LLBKWJUWOVPLS7Z9H0","A2ZL5GAZK6S0H1","3D1UCPY6GGVNRONHL4UEVMXCHLT38H","","341.19999980926514","img/food3.png","75","344.69999980926514","2","1","false","1","2","1,0.5,0,1,0.5,0,0.5,0,1","0,1,0.5,0,1,0.5,1,0.5,0","3",""
"","html-keyboard-response","169","90017","0.0-250.0","3W8CV64QJ3L4LLBKWJUWOVPLS7Z9H0","A2ZL5GAZK6S0H1","3D1UCPY6GGVNRONHL4UEVMXCHLT38H","","null","<img src=""img/food3.png"" style=""width:200px; border:14px solid green;"">","null","","","","","","","","","",""
"","image-keyboard-response","170","90349","0.0-252.0","3W8CV64QJ3L4LLBKWJUWOVPLS7Z9H0","A2ZL5GAZK6S0H1","3D1UCPY6GGVNRONHL4UEVMXCHLT38H","","322.1000003814697","img/food3.png","74","329.5","1","0","false","1","2","1,0.5,0,1,0.5,0,0.5,0,1","0,1,0.5,0,1,0.5,1,0.5,0","3",""
"","html-keyboard-response","171","90658","0.0-253.0","3W8CV64QJ3L4LLBKWJUWOVPLS7Z9H0","A2ZL5GAZK6S0H1","3D1UCPY6GGVNRONHL4UEVMXCHLT38H","","null","<img src=""img/food3.png"" style=""width:200px;border:14px solid red;"">","null","","","","","","","","","",""
"","image-keyboard-response","172","90948","0.0-255.0","3W8CV64QJ3L4LLBKWJUWOVPLS7Z9H0","A2ZL5GAZK6S0H1","3D1UCPY6GGVNRONHL4UEVMXCHLT38H","","284.5","img/food4.png","74","289.1000003814697","1","1","false","3","2","1,0.5,0,1,0.5,0,0.5,0,1","0,1,0.5,0,1,0.5,1,0.5,0","3",""
"","html-keyboard-response","173","91258","0.0-256.0","3W8CV64QJ3L4LLBKWJUWOVPLS7Z9H0","A2ZL5GAZK6S0H1","3D1UCPY6GGVNRONHL4UEVMXCHLT38H","","null","<img src=""img/food4.png"" style=""width:200px; border:14px solid green;"">","null","","","","","","","","","",""
"","image-keyboard-response","174","91486","0.0-258.0","3W8CV64QJ3L4LLBKWJUWOVPLS7Z9H0","A2ZL5GAZK6S0H1","3D1UCPY6GGVNRONHL4UEVMXCHLT38H","","223.30000019073486","img/food4.png","74","227.30000019073486","1","1","false","3","2","1,0.5,0,1,0.5,0,0.5,0,1","0,1,0.5,0,1,0.5,1,0.5,0","3",""
"","html-keyboard-response","175","91796","0.0-259.0","3W8CV64QJ3L4LLBKWJUWOVPLS7Z9H0","A2ZL5GAZK6S0H1","3D1UCPY6GGVNRONHL4UEVMXCHLT38H","","null","<img src=""img/food4.png"" style=""width:200px; border:14px solid green;"">","null","","","","","","","","","",""
"","image-keyboard-response","176","92061","0.0-261.0","3W8CV64QJ3L4LLBKWJUWOVPLS7Z9H0","A2ZL5GAZK6S0H1","3D1UCPY6GGVNRONHL4UEVMXCHLT38H","","253.89999961853027","img/food5.png","74","260.79999923706055","1","0","false","2","2","1,0.5,0,1,0.5,0,0.5,0,1","0,1,0.5,0,1,0.5,1,0.5,0","3",""
"","html-keyboard-response","177","92374","0.0-262.0","3W8CV64QJ3L4LLBKWJUWOVPLS7Z9H0","A2ZL5GAZK6S0H1","3D1UCPY6GGVNRONHL4UEVMXCHLT38H","","null","<img src=""img/food5.png"" style=""width:200px;border:14px solid red;"">","null","","","","","","","","","",""
"","image-keyboard-response","178","92664","0.0-264.0","3W8CV64QJ3L4LLBKWJUWOVPLS7Z9H0","A2ZL5GAZK6S0H1","3D1UCPY6GGVNRONHL4UEVMXCHLT38H","","280.3999996185303","img/food3.png","74","286.80000019073486","1","0","false","1","2","1,0.5,0,1,0.5,0,0.5,0,1","0,1,0.5,0,1,0.5,1,0.5,0","3",""
"","html-keyboard-response","179","92974","0.0-265.0","3W8CV64QJ3L4LLBKWJUWOVPLS7Z9H0","A2ZL5GAZK6S0H1","3D1UCPY6GGVNRONHL4UEVMXCHLT38H","","null","<img src=""img/food3.png"" style=""width:200px;border:14px solid red;"">","null","","","","","","","","","",""
"","image-keyboard-response","180","93312","0.0-267.0","3W8CV64QJ3L4LLBKWJUWOVPLS7Z9H0","A2ZL5GAZK6S0H1","3D1UCPY6GGVNRONHL4UEVMXCHLT38H","","328.6000003814697","img/food4.png","74","335.3999996185303","1","1","false","3","2","1,0.5,0,1,0.5,0,0.5,0,1","0,1,0.5,0,1,0.5,1,0.5,0","3",""
"","html-keyboard-response","181","93620","0.0-268.0","3W8CV64QJ3L4LLBKWJUWOVPLS7Z9H0","A2ZL5GAZK6S0H1","3D1UCPY6GGVNRONHL4UEVMXCHLT38H","","null","<img src=""img/food4.png"" style=""width:200px; border:14px solid green;"">","null","","","","","","","","","",""
"","image-keyboard-response","182","93922","0.0-270.0","3W8CV64QJ3L4LLBKWJUWOVPLS7Z9H0","A2ZL5GAZK6S0H1","3D1UCPY6GGVNRONHL4UEVMXCHLT38H","","296.69999980926514","img/food3.png","75","301","2","1","false","1","2","1,0.5,0,1,0.5,0,0.5,0,1","0,1,0.5,0,1,0.5,1,0.5,0","3",""
"","html-keyboard-response","183","94231","0.0-271.0","3W8CV64QJ3L4LLBKWJUWOVPLS7Z9H0","A2ZL5GAZK6S0H1","3D1UCPY6GGVNRONHL4UEVMXCHLT38H","","null","<img src=""img/food3.png"" style=""width:200px; border:14px solid green;"">","null","","","","","","","","","",""
"","instructions","184","99136","0.0-273.0","3W8CV64QJ3L4LLBKWJUWOVPLS7Z9H0","A2ZL5GAZK6S0H1","3D1UCPY6GGVNRONHL4UEVMXCHLT38H","[{""page_index"":0,""viewing_time"":3404.5},{""page_index"":1,""viewing_time"":1496.8999996185303}]","4902.199999809265","","","","","","","","","","","",""
"","image-keyboard-response","185","100106","0.0-274.0","3W8CV64QJ3L4LLBKWJUWOVPLS7Z9H0","A2ZL5GAZK6S0H1","3D1UCPY6GGVNRONHL4UEVMXCHLT38H","","964.6999998092651","img/food6.png","74","969.7000007629395","1","1","","2","1","1,0.5,0,1,0.5,0,0.5,0,1","1,0.5,0,1,0.5,0,0.5,0,1","1",""
"","html-keyboard-response","186","100412","0.0-275.0","3W8CV64QJ3L4LLBKWJUWOVPLS7Z9H0","A2ZL5GAZK6S0H1","3D1UCPY6GGVNRONHL4UEVMXCHLT38H","","null","<img src=""img/food6.png"" style=""width:200px; border:14px solid green;"">","null","","","","","","","","","",""
"","image-keyboard-response","187","100898","0.0-276.0","3W8CV64QJ3L4LLBKWJUWOVPLS7Z9H0","A2ZL5GAZK6S0H1","3D1UCPY6GGVNRONHL4UEVMXCHLT38H","","482.4000005722046","img/food6.png","74","485.5","1","1","","2","1","1,0.5,0,1,0.5,0,0.5,0,1","1,0.5,0,1,0.5,0,0.5,0,1","1",""
"","html-keyboard-response","188","101203","0.0-277.0","3W8CV64QJ3L4LLBKWJUWOVPLS7Z9H0","A2ZL5GAZK6S0H1","3D1UCPY6GGVNRONHL4UEVMXCHLT38H","","null","<img src=""img/food6.png"" style=""width:200px; border:14px solid green;"">","null","","","","","","","","","",""
"","image-keyboard-response","189","102186","0.0-278.0","3W8CV64QJ3L4LLBKWJUWOVPLS7Z9H0","A2ZL5GAZK6S0H1","3D1UCPY6GGVNRONHL4UEVMXCHLT38H","","979.3000001907349","img/food2.png","75","982.0999994277954","2","1","","1","1","1,0.5,0,1,0.5,0,0.5,0,1","1,0.5,0,1,0.5,0,0.5,0,1","1",""
"","html-keyboard-response","190","102492","0.0-279.0","3W8CV64QJ3L4LLBKWJUWOVPLS7Z9H0","A2ZL5GAZK6S0H1","3D1UCPY6GGVNRONHL4UEVMXCHLT38H","","null","<img src=""img/food2.png"" style=""width:200px; border:14px solid green;"">","null","","","","","","","","","",""
"","image-keyboard-response","191","102935","0.0-280.0","3W8CV64QJ3L4LLBKWJUWOVPLS7Z9H0","A2ZL5GAZK6S0H1","3D1UCPY6GGVNRONHL4UEVMXCHLT38H","","440","img/food1.png","74","442.69999980926514","1","0","","3","1","1,0.5,0,1,0.5,0,0.5,0,1","1,0.5,0,1,0.5,0,0.5,0,1","1",""
"","html-keyboard-response","192","103239","0.0-281.0","3W8CV64QJ3L4LLBKWJUWOVPLS7Z9H0","A2ZL5GAZK6S0H1","3D1UCPY6GGVNRONHL4UEVMXCHLT38H","","null","<img src=""img/food1.png"" style=""width:200px;border:14px solid red;"">","null","","","","","","","","","",""
"","image-keyboard-response","193","103730","0.0-282.0","3W8CV64QJ3L4LLBKWJUWOVPLS7Z9H0","A2ZL5GAZK6S0H1","3D1UCPY6GGVNRONHL4UEVMXCHLT38H","","487","img/food2.png","75","490.4000005722046","2","1","","1","1","1,0.5,0,1,0.5,0,0.5,0,1","1,0.5,0,1,0.5,0,0.5,0,1","1",""
"","html-keyboard-response","194","104039","0.0-283.0","3W8CV64QJ3L4LLBKWJUWOVPLS7Z9H0","A2ZL5GAZK6S0H1","3D1UCPY6GGVNRONHL4UEVMXCHLT38H","","null","<img src=""img/food2.png"" style=""width:200px; border:14px solid green;"">","null","","","","","","","","","",""
"","image-keyboard-response","195","104461","0.0-284.0","3W8CV64QJ3L4LLBKWJUWOVPLS7Z9H0","A2ZL5GAZK6S0H1","3D1UCPY6GGVNRONHL4UEVMXCHLT38H","","414.1000003814697","img/food2.png","76","420.4000005722046","3","0","","1","1","1,0.5,0,1,0.5,0,0.5,0,1","1,0.5,0,1,0.5,0,0.5,0,1","1",""
"","html-keyboard-response","196","104772","0.0-285.0","3W8CV64QJ3L4LLBKWJUWOVPLS7Z9H0","A2ZL5GAZK6S0H1","3D1UCPY6GGVNRONHL4UEVMXCHLT38H","","null","<img src=""img/food2.png"" style=""width:200px;border:14px solid red;"">","null","","","","","","","","","",""
"","image-keyboard-response","197","105279","0.0-286.0","3W8CV64QJ3L4LLBKWJUWOVPLS7Z9H0","A2ZL5GAZK6S0H1","3D1UCPY6GGVNRONHL4UEVMXCHLT38H","","498.5999994277954","img/food2.png","76","504.8999996185303","3","0","","1","1","1,0.5,0,1,0.5,0,0.5,0,1","1,0.5,0,1,0.5,0,0.5,0,1","1",""
"","html-keyboard-response","198","105589","0.0-287.0","3W8CV64QJ3L4LLBKWJUWOVPLS7Z9H0","A2ZL5GAZK6S0H1","3D1UCPY6GGVNRONHL4UEVMXCHLT38H","","null","<img src=""img/food2.png"" style=""width:200px;border:14px solid red;"">","null","","","","","","","","","",""
"","image-keyboard-response","199","106063","0.0-288.0","3W8CV64QJ3L4LLBKWJUWOVPLS7Z9H0","A2ZL5GAZK6S0H1","3D1UCPY6GGVNRONHL4UEVMXCHLT38H","","468.79999923706055","img/food6.png","74","473.19999980926514","1","1","","2","1","1,0.5,0,1,0.5,0,0.5,0,1","1,0.5,0,1,0.5,0,0.5,0,1","1",""
"","html-keyboard-response","200","106376","0.0-289.0","3W8CV64QJ3L4LLBKWJUWOVPLS7Z9H0","A2ZL5GAZK6S0H1","3D1UCPY6GGVNRONHL4UEVMXCHLT38H","","null","<img src=""img/food6.png"" style=""width:200px; border:14px solid green;"">","null","","","","","","","","","",""
"","image-keyboard-response","201","106782","0.0-290.0","3W8CV64QJ3L4LLBKWJUWOVPLS7Z9H0","A2ZL5GAZK6S0H1","3D1UCPY6GGVNRONHL4UEVMXCHLT38H","","401.0999994277954","img/food6.png","74","405","1","1","","2","1","1,0.5,0,1,0.5,0,0.5,0,1","1,0.5,0,1,0.5,0,0.5,0,1","1",""
"","html-keyboard-response","202","107092","0.0-291.0","3W8CV64QJ3L4LLBKWJUWOVPLS7Z9H0","A2ZL5GAZK6S0H1","3D1UCPY6GGVNRONHL4UEVMXCHLT38H","","null","<img src=""img/food6.png"" style=""width:200px; border:14px solid green;"">","null","","","","","","","","","",""
"","image-keyboard-response","203","107462","0.0-292.0","3W8CV64QJ3L4LLBKWJUWOVPLS7Z9H0","A2ZL5GAZK6S0H1","3D1UCPY6GGVNRONHL4UEVMXCHLT38H","","362.20000076293945","img/food2.png","75","368.3999996185303","2","1","","1","1","1,0.5,0,1,0.5,0,0.5,0,1","1,0.5,0,1,0.5,0,0.5,0,1","1",""
"","html-keyboard-response","204","107777","0.0-293.0","3W8CV64QJ3L4LLBKWJUWOVPLS7Z9H0","A2ZL5GAZK6S0H1","3D1UCPY6GGVNRONHL4UEVMXCHLT38H","","null","<img src=""img/food2.png"" style=""width:200px; border:14px solid green;"">","null","","","","","","","","","",""
"","image-keyboard-response","205","108338","0.0-294.0","3W8CV64QJ3L4LLBKWJUWOVPLS7Z9H0","A2ZL5GAZK6S0H1","3D1UCPY6GGVNRONHL4UEVMXCHLT38H","","554.5","img/food2.png","74","561.6999998092651","1","1","","1","1","1,0.5,0,1,0.5,0,0.5,0,1","1,0.5,0,1,0.5,0,0.5,0,1","1",""
"","html-keyboard-response","206","108645","0.0-295.0","3W8CV64QJ3L4LLBKWJUWOVPLS7Z9H0","A2ZL5GAZK6S0H1","3D1UCPY6GGVNRONHL4UEVMXCHLT38H","","null","<img src=""img/food2.png"" style=""width:200px; border:14px solid green;"">","null","","","","","","","","","",""
"","image-keyboard-response","207","109106","0.0-296.0","3W8CV64QJ3L4LLBKWJUWOVPLS7Z9H0","A2ZL5GAZK6S0H1","3D1UCPY6GGVNRONHL4UEVMXCHLT38H","","456.6000003814697","img/food1.png","75","460.8999996185303","2","0","","3","1","1,0.5,0,1,0.5,0,0.5,0,1","1,0.5,0,1,0.5,0,0.5,0,1","1",""
"","html-keyboard-response","208","109418","0.0-297.0","3W8CV64QJ3L4LLBKWJUWOVPLS7Z9H0","A2ZL5GAZK6S0H1","3D1UCPY6GGVNRONHL4UEVMXCHLT38H","","null","<img src=""img/food1.png"" style=""width:200px;border:14px solid red;"">","null","","","","","","","","","",""
"","image-keyboard-response","209","109785","0.0-298.0","3W8CV64QJ3L4LLBKWJUWOVPLS7Z9H0","A2ZL5GAZK6S0H1","3D1UCPY6GGVNRONHL4UEVMXCHLT38H","","352.0999994277954","img/food6.png","76","362.6000003814697","3","0","","2","1","1,0.5,0,1,0.5,0,0.5,0,1","1,0.5,0,1,0.5,0,0.5,0,1","1",""
"","html-keyboard-response","210","110095","0.0-299.0","3W8CV64QJ3L4LLBKWJUWOVPLS7Z9H0","A2ZL5GAZK6S0H1","3D1UCPY6GGVNRONHL4UEVMXCHLT38H","","null","<img src=""img/food6.png"" style=""width:200px;border:14px solid red;"">","null","","","","","","","","","",""
"","image-keyboard-response","211","110535","0.0-300.0","3W8CV64QJ3L4LLBKWJUWOVPLS7Z9H0","A2ZL5GAZK6S0H1","3D1UCPY6GGVNRONHL4UEVMXCHLT38H","","434.19999980926514","img/food6.png","76","438.5","3","0","","2","1","1,0.5,0,1,0.5,0,0.5,0,1","1,0.5,0,1,0.5,0,0.5,0,1","1",""
"","html-keyboard-response","212","110844","0.0-301.0","3W8CV64QJ3L4LLBKWJUWOVPLS7Z9H0","A2ZL5GAZK6S0H1","3D1UCPY6GGVNRONHL4UEVMXCHLT38H","","null","<img src=""img/food6.png"" style=""width:200px;border:14px solid red;"">","null","","","","","","","","","",""
"","image-keyboard-response","213","111262","0.0-302.0","3W8CV64QJ3L4LLBKWJUWOVPLS7Z9H0","A2ZL5GAZK6S0H1","3D1UCPY6GGVNRONHL4UEVMXCHLT38H","","412.30000019073486","img/food6.png","75","416.69999980926514","2","1","","2","1","1,0.5,0,1,0.5,0,0.5,0,1","1,0.5,0,1,0.5,0,0.5,0,1","1",""
"","html-keyboard-response","214","111569","0.0-303.0","3W8CV64QJ3L4LLBKWJUWOVPLS7Z9H0","A2ZL5GAZK6S0H1","3D1UCPY6GGVNRONHL4UEVMXCHLT38H","","null","<img src=""img/food6.png"" style=""width:200px; border:14px solid green;"">","null","","","","","","","","","",""
"","image-keyboard-response","215","111992","0.0-304.0","3W8CV64QJ3L4LLBKWJUWOVPLS7Z9H0","A2ZL5GAZK6S0H1","3D1UCPY6GGVNRONHL4UEVMXCHLT38H","","414.69999980926514","img/food2.png","74","419.80000019073486","1","1","","1","1","1,0.5,0,1,0.5,0,0.5,0,1","1,0.5,0,1,0.5,0,0.5,0,1","1",""
"","html-keyboard-response","216","112300","0.0-305.0","3W8CV64QJ3L4LLBKWJUWOVPLS7Z9H0","A2ZL5GAZK6S0H1","3D1UCPY6GGVNRONHL4UEVMXCHLT38H","","null","<img src=""img/food2.png"" style=""width:200px; border:14px solid green;"">","null","","","","","","","","","",""
"","image-keyboard-response","217","112730","0.0-306.0","3W8CV64QJ3L4LLBKWJUWOVPLS7Z9H0","A2ZL5GAZK6S0H1","3D1UCPY6GGVNRONHL4UEVMXCHLT38H","","421.30000019073486","img/food1.png","75","427.79999923706055","2","0","","3","1","1,0.5,0,1,0.5,0,0.5,0,1","1,0.5,0,1,0.5,0,0.5,0,1","1",""
"","html-keyboard-response","218","113040","0.0-307.0","3W8CV64QJ3L4LLBKWJUWOVPLS7Z9H0","A2ZL5GAZK6S0H1","3D1UCPY6GGVNRONHL4UEVMXCHLT38H","","null","<img src=""img/food1.png"" style=""width:200px;border:14px solid red;"">","null","","","","","","","","","",""
"","image-keyboard-response","219","113421","0.0-308.0","3W8CV64QJ3L4LLBKWJUWOVPLS7Z9H0","A2ZL5GAZK6S0H1","3D1UCPY6GGVNRONHL4UEVMXCHLT38H","","375.79999923706055","img/food6.png","75","380.69999980926514","2","0","","2","1","1,0.5,0,1,0.5,0,0.5,0,1","1,0.5,0,1,0.5,0,0.5,0,1","1",""
"","html-keyboard-response","220","113730","0.0-309.0","3W8CV64QJ3L4LLBKWJUWOVPLS7Z9H0","A2ZL5GAZK6S0H1","3D1UCPY6GGVNRONHL4UEVMXCHLT38H","","null","<img src=""img/food6.png"" style=""width:200px;border:14px solid red;"">","null","","","","","","","","","",""
"","image-keyboard-response","221","114131","0.0-310.0","3W8CV64QJ3L4LLBKWJUWOVPLS7Z9H0","A2ZL5GAZK6S0H1","3D1UCPY6GGVNRONHL4UEVMXCHLT38H","","393.6000003814697","img/food2.png","76","399.6000003814697","3","0","","1","1","1,0.5,0,1,0.5,0,0.5,0,1","1,0.5,0,1,0.5,0,0.5,0,1","1",""
"","html-keyboard-response","222","114440","0.0-311.0","3W8CV64QJ3L4LLBKWJUWOVPLS7Z9H0","A2ZL5GAZK6S0H1","3D1UCPY6GGVNRONHL4UEVMXCHLT38H","","null","<img src=""img/food2.png"" style=""width:200px;border:14px solid red;"">","null","","","","","","","","","",""
"","image-keyboard-response","223","114829","0.0-312.0","3W8CV64QJ3L4LLBKWJUWOVPLS7Z9H0","A2ZL5GAZK6S0H1","3D1UCPY6GGVNRONHL4UEVMXCHLT38H","","381.80000019073486","img/food1.png","76","388.30000019073486","3","1","","3","1","1,0.5,0,1,0.5,0,0.5,0,1","1,0.5,0,1,0.5,0,0.5,0,1","1",""
"","html-keyboard-response","224","115136","0.0-313.0","3W8CV64QJ3L4LLBKWJUWOVPLS7Z9H0","A2ZL5GAZK6S0H1","3D1UCPY6GGVNRONHL4UEVMXCHLT38H","","null","<img src=""img/food1.png"" style=""width:200px; border:14px solid green;"">","null","","","","","","","","","",""
"","image-keyboard-response","225","115585","0.0-314.0","3W8CV64QJ3L4LLBKWJUWOVPLS7Z9H0","A2ZL5GAZK6S0H1","3D1UCPY6GGVNRONHL4UEVMXCHLT38H","","445.69999980926514","img/food2.png","74","448","1","1","","1","1","1,0.5,0,1,0.5,0,0.5,0,1","1,0.5,0,1,0.5,0,0.5,0,1","1",""
"","html-keyboard-response","226","115892","0.0-315.0","3W8CV64QJ3L4LLBKWJUWOVPLS7Z9H0","A2ZL5GAZK6S0H1","3D1UCPY6GGVNRONHL4UEVMXCHLT38H","","null","<img src=""img/food2.png"" style=""width:200px; border:14px solid green;"">","null","","","","","","","","","",""
"","image-keyboard-response","227","116328","0.0-316.0","3W8CV64QJ3L4LLBKWJUWOVPLS7Z9H0","A2ZL5GAZK6S0H1","3D1UCPY6GGVNRONHL4UEVMXCHLT38H","","428.69999980926514","img/food1.png","74","435","1","1","","3","1","1,0.5,0,1,0.5,0,0.5,0,1","1,0.5,0,1,0.5,0,0.5,0,1","1",""
"","html-keyboard-response","228","116639","0.0-317.0","3W8CV64QJ3L4LLBKWJUWOVPLS7Z9H0","A2ZL5GAZK6S0H1","3D1UCPY6GGVNRONHL4UEVMXCHLT38H","","null","<img src=""img/food1.png"" style=""width:200px; border:14px solid green;"">","null","","","","","","","","","",""
"","image-keyboard-response","229","117234","0.0-318.0","3W8CV64QJ3L4LLBKWJUWOVPLS7Z9H0","A2ZL5GAZK6S0H1","3D1UCPY6GGVNRONHL4UEVMXCHLT38H","","591.8000001907349","img/food1.png","74","594.3000001907349","1","1","","3","1","1,0.5,0,1,0.5,0,0.5,0,1","1,0.5,0,1,0.5,0,0.5,0,1","1",""
"","html-keyboard-response","230","117539","0.0-319.0","3W8CV64QJ3L4LLBKWJUWOVPLS7Z9H0","A2ZL5GAZK6S0H1","3D1UCPY6GGVNRONHL4UEVMXCHLT38H","","null","<img src=""img/food1.png"" style=""width:200px; border:14px solid green;"">","null","","","","","","","","","",""
"","image-keyboard-response","231","117926","0.0-320.0","3W8CV64QJ3L4LLBKWJUWOVPLS7Z9H0","A2ZL5GAZK6S0H1","3D1UCPY6GGVNRONHL4UEVMXCHLT38H","","378.70000076293945","img/food2.png","74","385.20000076293945","1","1","","1","1","1,0.5,0,1,0.5,0,0.5,0,1","1,0.5,0,1,0.5,0,0.5,0,1","1",""
"","html-keyboard-response","232","118234","0.0-321.0","3W8CV64QJ3L4LLBKWJUWOVPLS7Z9H0","A2ZL5GAZK6S0H1","3D1UCPY6GGVNRONHL4UEVMXCHLT38H","","null","<img src=""img/food2.png"" style=""width:200px; border:14px solid green;"">","null","","","","","","","","","",""
"","image-keyboard-response","233","118642","0.0-322.0","3W8CV64QJ3L4LLBKWJUWOVPLS7Z9H0","A2ZL5GAZK6S0H1","3D1UCPY6GGVNRONHL4UEVMXCHLT38H","","400.80000019073486","img/food6.png","75","406.0999994277954","2","1","","2","1","1,0.5,0,1,0.5,0,0.5,0,1","1,0.5,0,1,0.5,0,0.5,0,1","1",""
"","html-keyboard-response","234","118948","0.0-323.0","3W8CV64QJ3L4LLBKWJUWOVPLS7Z9H0","A2ZL5GAZK6S0H1","3D1UCPY6GGVNRONHL4UEVMXCHLT38H","","null","<img src=""img/food6.png"" style=""width:200px; border:14px solid green;"">","null","","","","","","","","","",""
"","image-keyboard-response","235","119453","0.0-324.0","3W8CV64QJ3L4LLBKWJUWOVPLS7Z9H0","A2ZL5GAZK6S0H1","3D1UCPY6GGVNRONHL4UEVMXCHLT38H","","500","img/food1.png","75","504.19999980926514","2","0","","3","1","1,0.5,0,1,0.5,0,0.5,0,1","1,0.5,0,1,0.5,0,0.5,0,1","1",""
"","html-keyboard-response","236","119763","0.0-325.0","3W8CV64QJ3L4LLBKWJUWOVPLS7Z9H0","A2ZL5GAZK6S0H1","3D1UCPY6GGVNRONHL4UEVMXCHLT38H","","null","<img src=""img/food1.png"" style=""width:200px;border:14px solid red;"">","null","","","","","","","","","",""
"","image-keyboard-response","237","120241","0.0-326.0","3W8CV64QJ3L4LLBKWJUWOVPLS7Z9H0","A2ZL5GAZK6S0H1","3D1UCPY6GGVNRONHL4UEVMXCHLT38H","","474","img/food1.png","76","477.69999980926514","3","1","","3","1","1,0.5,0,1,0.5,0,0.5,0,1","1,0.5,0,1,0.5,0,0.5,0,1","1",""
"","html-keyboard-response","238","120549","0.0-327.0","3W8CV64QJ3L4LLBKWJUWOVPLS7Z9H0","A2ZL5GAZK6S0H1","3D1UCPY6GGVNRONHL4UEVMXCHLT38H","","null","<img src=""img/food1.png"" style=""width:200px; border:14px solid green;"">","null","","","","","","","","","",""
"","image-keyboard-response","239","121169","0.0-328.0","3W8CV64QJ3L4LLBKWJUWOVPLS7Z9H0","A2ZL5GAZK6S0H1","3D1UCPY6GGVNRONHL4UEVMXCHLT38H","","610.8999996185303","img/food6.png","76","618.1999998092651","3","0","","2","1","1,0.5,0,1,0.5,0,0.5,0,1","1,0.5,0,1,0.5,0,0.5,0,1","1",""
"","html-keyboard-response","240","121475","0.0-329.0","3W8CV64QJ3L4LLBKWJUWOVPLS7Z9H0","A2ZL5GAZK6S0H1","3D1UCPY6GGVNRONHL4UEVMXCHLT38H","","null","<img src=""img/food6.png"" style=""width:200px;border:14px solid red;"">","null","","","","","","","","","",""
"","image-keyboard-response","241","121884","0.0-330.0","3W8CV64QJ3L4LLBKWJUWOVPLS7Z9H0","A2ZL5GAZK6S0H1","3D1UCPY6GGVNRONHL4UEVMXCHLT38H","","404.8999996185303","img/food2.png","76","409.0999994277954","3","0","","1","1","1,0.5,0,1,0.5,0,0.5,0,1","1,0.5,0,1,0.5,0,0.5,0,1","1",""
"","html-keyboard-response","242","122194","0.0-331.0","3W8CV64QJ3L4LLBKWJUWOVPLS7Z9H0","A2ZL5GAZK6S0H1","3D1UCPY6GGVNRONHL4UEVMXCHLT38H","","null","<img src=""img/food2.png"" style=""width:200px;border:14px solid red;"">","null","","","","","","","","","",""
"","image-keyboard-response","243","122518","0.0-332.0","3W8CV64QJ3L4LLBKWJUWOVPLS7Z9H0","A2ZL5GAZK6S0H1","3D1UCPY6GGVNRONHL4UEVMXCHLT38H","","315.69999980926514","img/food1.png","75","322.1000003814697","2","0","","3","1","1,0.5,0,1,0.5,0,0.5,0,1","1,0.5,0,1,0.5,0,0.5,0,1","1",""
"","html-keyboard-response","244","122827","0.0-333.0","3W8CV64QJ3L4LLBKWJUWOVPLS7Z9H0","A2ZL5GAZK6S0H1","3D1UCPY6GGVNRONHL4UEVMXCHLT38H","","null","<img src=""img/food1.png"" style=""width:200px;border:14px solid red;"">","null","","","","","","","","","",""
"","image-keyboard-response","245","123221","0.0-334.0","3W8CV64QJ3L4LLBKWJUWOVPLS7Z9H0","A2ZL5GAZK6S0H1","3D1UCPY6GGVNRONHL4UEVMXCHLT38H","","387","img/food2.png","75","393.3999996185303","2","1","","1","1","1,0.5,0,1,0.5,0,0.5,0,1","1,0.5,0,1,0.5,0,0.5,0,1","1",""
"","html-keyboard-response","246","123530","0.0-335.0","3W8CV64QJ3L4LLBKWJUWOVPLS7Z9H0","A2ZL5GAZK6S0H1","3D1UCPY6GGVNRONHL4UEVMXCHLT38H","","null","<img src=""img/food2.png"" style=""width:200px; border:14px solid green;"">","null","","","","","","","","","",""
"","image-keyboard-response","247","123823","0.0-336.0","3W8CV64QJ3L4LLBKWJUWOVPLS7Z9H0","A2ZL5GAZK6S0H1","3D1UCPY6GGVNRONHL4UEVMXCHLT38H","","285.29999923706055","img/food6.png","74","291.6000003814697","1","1","","2","1","1,0.5,0,1,0.5,0,0.5,0,1","1,0.5,0,1,0.5,0,0.5,0,1","1",""
"","html-keyboard-response","248","124132","0.0-337.0","3W8CV64QJ3L4LLBKWJUWOVPLS7Z9H0","A2ZL5GAZK6S0H1","3D1UCPY6GGVNRONHL4UEVMXCHLT38H","","null","<img src=""img/food6.png"" style=""width:200px; border:14px solid green;"">","null","","","","","","","","","",""
"","image-keyboard-response","249","124491","0.0-338.0","3W8CV64QJ3L4LLBKWJUWOVPLS7Z9H0","A2ZL5GAZK6S0H1","3D1UCPY6GGVNRONHL4UEVMXCHLT38H","","348.8999996185303","img/food6.png","74","357.69999980926514","1","1","","2","1","1,0.5,0,1,0.5,0,0.5,0,1","1,0.5,0,1,0.5,0,0.5,0,1","1",""
"","html-keyboard-response","250","124799","0.0-339.0","3W8CV64QJ3L4LLBKWJUWOVPLS7Z9H0","A2ZL5GAZK6S0H1","3D1UCPY6GGVNRONHL4UEVMXCHLT38H","","null","<img src=""img/food6.png"" style=""width:200px; border:14px solid green;"">","null","","","","","","","","","",""
"","image-keyboard-response","251","125135","0.0-340.0","3W8CV64QJ3L4LLBKWJUWOVPLS7Z9H0","A2ZL5GAZK6S0H1","3D1UCPY6GGVNRONHL4UEVMXCHLT38H","","326.5","img/food2.png","75","333.80000019073486","2","0","","1","1","1,0.5,0,1,0.5,0,0.5,0,1","1,0.5,0,1,0.5,0,0.5,0,1","1",""
"","html-keyboard-response","252","125445","0.0-341.0","3W8CV64QJ3L4LLBKWJUWOVPLS7Z9H0","A2ZL5GAZK6S0H1","3D1UCPY6GGVNRONHL4UEVMXCHLT38H","","null","<img src=""img/food2.png"" style=""width:200px;border:14px solid red;"">","null","","","","","","","","","",""
"","image-keyboard-response","253","125885","0.0-342.0","3W8CV64QJ3L4LLBKWJUWOVPLS7Z9H0","A2ZL5GAZK6S0H1","3D1UCPY6GGVNRONHL4UEVMXCHLT38H","","432.30000019073486","img/food6.png","74","438.5999994277954","1","1","","2","1","1,0.5,0,1,0.5,0,0.5,0,1","1,0.5,0,1,0.5,0,0.5,0,1","1",""
"","html-keyboard-response","254","126196","0.0-343.0","3W8CV64QJ3L4LLBKWJUWOVPLS7Z9H0","A2ZL5GAZK6S0H1","3D1UCPY6GGVNRONHL4UEVMXCHLT38H","","null","<img src=""img/food6.png"" style=""width:200px; border:14px solid green;"">","null","","","","","","","","","",""
"","image-keyboard-response","255","126719","0.0-344.0","3W8CV64QJ3L4LLBKWJUWOVPLS7Z9H0","A2ZL5GAZK6S0H1","3D1UCPY6GGVNRONHL4UEVMXCHLT38H","","515.4000005722046","img/food2.png","74","521.6999998092651","1","1","","1","1","1,0.5,0,1,0.5,0,0.5,0,1","1,0.5,0,1,0.5,0,0.5,0,1","1",""
"","html-keyboard-response","256","127029","0.0-345.0","3W8CV64QJ3L4LLBKWJUWOVPLS7Z9H0","A2ZL5GAZK6S0H1","3D1UCPY6GGVNRONHL4UEVMXCHLT38H","","null","<img src=""img/food2.png"" style=""width:200px; border:14px solid green;"">","null","","","","","","","","","",""
"","image-keyboard-response","257","127459","0.0-346.0","3W8CV64QJ3L4LLBKWJUWOVPLS7Z9H0","A2ZL5GAZK6S0H1","3D1UCPY6GGVNRONHL4UEVMXCHLT38H","","425.69999980926514","img/food6.png","74","429.80000019073486","1","1","","2","1","1,0.5,0,1,0.5,0,0.5,0,1","1,0.5,0,1,0.5,0,0.5,0,1","1",""
"","html-keyboard-response","258","127768","0.0-347.0","3W8CV64QJ3L4LLBKWJUWOVPLS7Z9H0","A2ZL5GAZK6S0H1","3D1UCPY6GGVNRONHL4UEVMXCHLT38H","","null","<img src=""img/food6.png"" style=""width:200px; border:14px solid green;"">","null","","","","","","","","","",""
"","image-keyboard-response","259","128328","0.0-348.0","3W8CV64QJ3L4LLBKWJUWOVPLS7Z9H0","A2ZL5GAZK6S0H1","3D1UCPY6GGVNRONHL4UEVMXCHLT38H","","551","img/food1.png","76","558","3","1","","3","1","1,0.5,0,1,0.5,0,0.5,0,1","1,0.5,0,1,0.5,0,0.5,0,1","1",""
"","html-keyboard-response","260","128635","0.0-349.0","3W8CV64QJ3L4LLBKWJUWOVPLS7Z9H0","A2ZL5GAZK6S0H1","3D1UCPY6GGVNRONHL4UEVMXCHLT38H","","null","<img src=""img/food1.png"" style=""width:200px; border:14px solid green;"">","null","","","","","","","","","",""
"","image-keyboard-response","261","129081","0.0-350.0","3W8CV64QJ3L4LLBKWJUWOVPLS7Z9H0","A2ZL5GAZK6S0H1","3D1UCPY6GGVNRONHL4UEVMXCHLT38H","","439.6000003814697","img/food2.png","75","445.5999994277954","2","1","","1","1","1,0.5,0,1,0.5,0,0.5,0,1","1,0.5,0,1,0.5,0,0.5,0,1","1",""
"","html-keyboard-response","262","129390","0.0-351.0","3W8CV64QJ3L4LLBKWJUWOVPLS7Z9H0","A2ZL5GAZK6S0H1","3D1UCPY6GGVNRONHL4UEVMXCHLT38H","","null","<img src=""img/food2.png"" style=""width:200px; border:14px solid green;"">","null","","","","","","","","","",""
"","image-keyboard-response","263","129778","0.0-352.0","3W8CV64QJ3L4LLBKWJUWOVPLS7Z9H0","A2ZL5GAZK6S0H1","3D1UCPY6GGVNRONHL4UEVMXCHLT38H","","380.0999994277954","img/food1.png","76","386.5","3","1","","3","1","1,0.5,0,1,0.5,0,0.5,0,1","1,0.5,0,1,0.5,0,0.5,0,1","1",""
"","html-keyboard-response","264","130088","0.0-353.0","3W8CV64QJ3L4LLBKWJUWOVPLS7Z9H0","A2ZL5GAZK6S0H1","3D1UCPY6GGVNRONHL4UEVMXCHLT38H","","null","<img src=""img/food1.png"" style=""width:200px; border:14px solid green;"">","null","","","","","","","","","",""
"","image-keyboard-response","265","130476","0.0-354.0","3W8CV64QJ3L4LLBKWJUWOVPLS7Z9H0","A2ZL5GAZK6S0H1","3D1UCPY6GGVNRONHL4UEVMXCHLT38H","","380.69999980926514","img/food1.png","76","386.80000019073486","3","1","","3","1","1,0.5,0,1,0.5,0,0.5,0,1","1,0.5,0,1,0.5,0,0.5,0,1","1",""
"","html-keyboard-response","266","130785","0.0-355.0","3W8CV64QJ3L4LLBKWJUWOVPLS7Z9H0","A2ZL5GAZK6S0H1","3D1UCPY6GGVNRONHL4UEVMXCHLT38H","","null","<img src=""img/food1.png"" style=""width:200px; border:14px solid green;"">","null","","","","","","","","","",""
"","image-keyboard-response","267","131190","0.0-356.0","3W8CV64QJ3L4LLBKWJUWOVPLS7Z9H0","A2ZL5GAZK6S0H1","3D1UCPY6GGVNRONHL4UEVMXCHLT38H","","396.8999996185303","img/food1.png","74","401.4000005722046","1","1","","3","1","1,0.5,0,1,0.5,0,0.5,0,1","1,0.5,0,1,0.5,0,0.5,0,1","1",""
"","html-keyboard-response","268","131497","0.0-357.0","3W8CV64QJ3L4LLBKWJUWOVPLS7Z9H0","A2ZL5GAZK6S0H1","3D1UCPY6GGVNRONHL4UEVMXCHLT38H","","null","<img src=""img/food1.png"" style=""width:200px; border:14px solid green;"">","null","","","","","","","","","",""
"","image-keyboard-response","269","131921","0.0-358.0","3W8CV64QJ3L4LLBKWJUWOVPLS7Z9H0","A2ZL5GAZK6S0H1","3D1UCPY6GGVNRONHL4UEVMXCHLT38H","","416.30000019073486","img/food6.png","75","422.6000003814697","2","1","","2","1","1,0.5,0,1,0.5,0,0.5,0,1","1,0.5,0,1,0.5,0,0.5,0,1","1",""
"","html-keyboard-response","270","132228","0.0-359.0","3W8CV64QJ3L4LLBKWJUWOVPLS7Z9H0","A2ZL5GAZK6S0H1","3D1UCPY6GGVNRONHL4UEVMXCHLT38H","","null","<img src=""img/food6.png"" style=""width:200px; border:14px solid green;"">","null","","","","","","","","","",""
"","image-keyboard-response","271","132656","0.0-360.0","3W8CV64QJ3L4LLBKWJUWOVPLS7Z9H0","A2ZL5GAZK6S0H1","3D1UCPY6GGVNRONHL4UEVMXCHLT38H","","421.29999923706055","img/food1.png","74","426.19999980926514","1","1","","3","1","1,0.5,0,1,0.5,0,0.5,0,1","1,0.5,0,1,0.5,0,0.5,0,1","1",""
"","html-keyboard-response","272","132962","0.0-361.0","3W8CV64QJ3L4LLBKWJUWOVPLS7Z9H0","A2ZL5GAZK6S0H1","3D1UCPY6GGVNRONHL4UEVMXCHLT38H","","null","<img src=""img/food1.png"" style=""width:200px; border:14px solid green;"">","null","","","","","","","","","",""
"","image-keyboard-response","273","133262","0.0-362.0","3W8CV64QJ3L4LLBKWJUWOVPLS7Z9H0","A2ZL5GAZK6S0H1","3D1UCPY6GGVNRONHL4UEVMXCHLT38H","","293.30000019073486","img/food2.png","75","297.80000019073486","2","0","","1","1","1,0.5,0,1,0.5,0,0.5,0,1","1,0.5,0,1,0.5,0,0.5,0,1","1",""
"","html-keyboard-response","274","133569","0.0-363.0","3W8CV64QJ3L4LLBKWJUWOVPLS7Z9H0","A2ZL5GAZK6S0H1","3D1UCPY6GGVNRONHL4UEVMXCHLT38H","","null","<img src=""img/food2.png"" style=""width:200px;border:14px solid red;"">","null","","","","","","","","","",""
"","image-keyboard-response","275","133994","0.0-364.0","3W8CV64QJ3L4LLBKWJUWOVPLS7Z9H0","A2ZL5GAZK6S0H1","3D1UCPY6GGVNRONHL4UEVMXCHLT38H","","415.3999996185303","img/food6.png","75","421.69999980926514","2","1","","2","1","1,0.5,0,1,0.5,0,0.5,0,1","1,0.5,0,1,0.5,0,0.5,0,1","1",""
"","html-keyboard-response","276","134304","0.0-365.0","3W8CV64QJ3L4LLBKWJUWOVPLS7Z9H0","A2ZL5GAZK6S0H1","3D1UCPY6GGVNRONHL4UEVMXCHLT38H","","null","<img src=""img/food6.png"" style=""width:200px; border:14px solid green;"">","null","","","","","","","","","",""
"","image-keyboard-response","277","134581","0.0-366.0","3W8CV64QJ3L4LLBKWJUWOVPLS7Z9H0","A2ZL5GAZK6S0H1","3D1UCPY6GGVNRONHL4UEVMXCHLT38H","","270.6000003814697","img/food1.png","76","275","3","1","","3","1","1,0.5,0,1,0.5,0,0.5,0,1","1,0.5,0,1,0.5,0,0.5,0,1","1",""
"","html-keyboard-response","278","134889","0.0-367.0","3W8CV64QJ3L4LLBKWJUWOVPLS7Z9H0","A2ZL5GAZK6S0H1","3D1UCPY6GGVNRONHL4UEVMXCHLT38H","","null","<img src=""img/food1.png"" style=""width:200px; border:14px solid green;"">","null","","","","","","","","","",""
"","image-keyboard-response","279","135389","0.0-368.0","3W8CV64QJ3L4LLBKWJUWOVPLS7Z9H0","A2ZL5GAZK6S0H1","3D1UCPY6GGVNRONHL4UEVMXCHLT38H","","492","img/food6.png","76","498.29999923706055","3","0","","2","1","1,0.5,0,1,0.5,0,0.5,0,1","1,0.5,0,1,0.5,0,0.5,0,1","1",""
"","html-keyboard-response","280","135697","0.0-369.0","3W8CV64QJ3L4LLBKWJUWOVPLS7Z9H0","A2ZL5GAZK6S0H1","3D1UCPY6GGVNRONHL4UEVMXCHLT38H","","null","<img src=""img/food6.png"" style=""width:200px;border:14px solid red;"">","null","","","","","","","","","",""
"","image-keyboard-response","281","136080","0.0-370.0","3W8CV64QJ3L4LLBKWJUWOVPLS7Z9H0","A2ZL5GAZK6S0H1","3D1UCPY6GGVNRONHL4UEVMXCHLT38H","","377.1000003814697","img/food6.png","74","382.4000005722046","1","1","","2","1","1,0.5,0,1,0.5,0,0.5,0,1","1,0.5,0,1,0.5,0,0.5,0,1","1",""
"","html-keyboard-response","282","136389","0.0-371.0","3W8CV64QJ3L4LLBKWJUWOVPLS7Z9H0","A2ZL5GAZK6S0H1","3D1UCPY6GGVNRONHL4UEVMXCHLT38H","","null","<img src=""img/food6.png"" style=""width:200px; border:14px solid green;"">","null","","","","","","","","","",""
"","image-keyboard-response","283","136815","0.0-372.0","3W8CV64QJ3L4LLBKWJUWOVPLS7Z9H0","A2ZL5GAZK6S0H1","3D1UCPY6GGVNRONHL4UEVMXCHLT38H","","420.70000076293945","img/food6.png","74","426.20000076293945","1","1","","2","1","1,0.5,0,1,0.5,0,0.5,0,1","1,0.5,0,1,0.5,0,0.5,0,1","1",""
"","html-keyboard-response","284","137126","0.0-373.0","3W8CV64QJ3L4LLBKWJUWOVPLS7Z9H0","A2ZL5GAZK6S0H1","3D1UCPY6GGVNRONHL4UEVMXCHLT38H","","null","<img src=""img/food6.png"" style=""width:200px; border:14px solid green;"">","null","","","","","","","","","",""
"","image-keyboard-response","285","137552","0.0-374.0","3W8CV64QJ3L4LLBKWJUWOVPLS7Z9H0","A2ZL5GAZK6S0H1","3D1UCPY6GGVNRONHL4UEVMXCHLT38H","","419.0999994277954","img/food1.png","75","424.5","2","0","","3","1","1,0.5,0,1,0.5,0,0.5,0,1","1,0.5,0,1,0.5,0,0.5,0,1","1",""
"","html-keyboard-response","286","137869","0.0-375.0","3W8CV64QJ3L4LLBKWJUWOVPLS7Z9H0","A2ZL5GAZK6S0H1","3D1UCPY6GGVNRONHL4UEVMXCHLT38H","","null","<img src=""img/food1.png"" style=""width:200px;border:14px solid red;"">","null","","","","","","","","","",""
"","image-keyboard-response","287","138242","0.0-376.0","3W8CV64QJ3L4LLBKWJUWOVPLS7Z9H0","A2ZL5GAZK6S0H1","3D1UCPY6GGVNRONHL4UEVMXCHLT38H","","363.6000003814697","img/food2.png","74","370.19999980926514","1","1","","1","1","1,0.5,0,1,0.5,0,0.5,0,1","1,0.5,0,1,0.5,0,0.5,0,1","1",""
"","html-keyboard-response","288","138560","0.0-377.0","3W8CV64QJ3L4LLBKWJUWOVPLS7Z9H0","A2ZL5GAZK6S0H1","3D1UCPY6GGVNRONHL4UEVMXCHLT38H","","null","<img src=""img/food2.png"" style=""width:200px; border:14px solid green;"">","null","","","","","","","","","",""
"","image-keyboard-response","289","139325","0.0-378.0","3W8CV64QJ3L4LLBKWJUWOVPLS7Z9H0","A2ZL5GAZK6S0H1","3D1UCPY6GGVNRONHL4UEVMXCHLT38H","","762.5","img/food2.png","75","764.6000003814697","2","1","","1","1","1,0.5,0,1,0.5,0,0.5,0,1","1,0.5,0,1,0.5,0,0.5,0,1","1",""
"","html-keyboard-response","290","139647","0.0-379.0","3W8CV64QJ3L4LLBKWJUWOVPLS7Z9H0","A2ZL5GAZK6S0H1","3D1UCPY6GGVNRONHL4UEVMXCHLT38H","","null","<img src=""img/food2.png"" style=""width:200px; border:14px solid green;"">","null","","","","","","","","","",""
"","image-keyboard-response","291","140079","0.0-380.0","3W8CV64QJ3L4LLBKWJUWOVPLS7Z9H0","A2ZL5GAZK6S0H1","3D1UCPY6GGVNRONHL4UEVMXCHLT38H","","421.69999980926514","img/food2.png","76","427.8999996185303","3","0","","1","1","1,0.5,0,1,0.5,0,0.5,0,1","1,0.5,0,1,0.5,0,0.5,0,1","1",""
"","html-keyboard-response","292","140389","0.0-381.0","3W8CV64QJ3L4LLBKWJUWOVPLS7Z9H0","A2ZL5GAZK6S0H1","3D1UCPY6GGVNRONHL4UEVMXCHLT38H","","null","<img src=""img/food2.png"" style=""width:200px;border:14px solid red;"">","null","","","","","","","","","",""
"","image-keyboard-response","293","140783","0.0-382.0","3W8CV64QJ3L4LLBKWJUWOVPLS7Z9H0","A2ZL5GAZK6S0H1","3D1UCPY6GGVNRONHL4UEVMXCHLT38H","","382.3999996185303","img/food1.png","76","391.20000076293945","3","1","","3","1","1,0.5,0,1,0.5,0,0.5,0,1","1,0.5,0,1,0.5,0,0.5,0,1","1",""
"","html-keyboard-response","294","141095","0.0-383.0","3W8CV64QJ3L4LLBKWJUWOVPLS7Z9H0","A2ZL5GAZK6S0H1","3D1UCPY6GGVNRONHL4UEVMXCHLT38H","","null","<img src=""img/food1.png"" style=""width:200px; border:14px solid green;"">","null","","","","","","","","","",""
"","image-keyboard-response","295","141676","0.0-384.0","3W8CV64QJ3L4LLBKWJUWOVPLS7Z9H0","A2ZL5GAZK6S0H1","3D1UCPY6GGVNRONHL4UEVMXCHLT38H","","574.8000001907349","img/food6.png","76","579.2999992370605","3","0","","2","1","1,0.5,0,1,0.5,0,0.5,0,1","1,0.5,0,1,0.5,0,0.5,0,1","1",""
"","html-keyboard-response","296","141982","0.0-385.0","3W8CV64QJ3L4LLBKWJUWOVPLS7Z9H0","A2ZL5GAZK6S0H1","3D1UCPY6GGVNRONHL4UEVMXCHLT38H","","null","<img src=""img/food6.png"" style=""width:200px;border:14px solid red;"">","null","","","","","","","","","",""
"","image-keyboard-response","297","143094","0.0-386.0","3W8CV64QJ3L4LLBKWJUWOVPLS7Z9H0","A2ZL5GAZK6S0H1","3D1UCPY6GGVNRONHL4UEVMXCHLT38H","","1104.5","img/food2.png","75","1111.1000003814697","2","0","","1","1","1,0.5,0,1,0.5,0,0.5,0,1","1,0.5,0,1,0.5,0,0.5,0,1","1",""
"","html-keyboard-response","298","143406","0.0-387.0","3W8CV64QJ3L4LLBKWJUWOVPLS7Z9H0","A2ZL5GAZK6S0H1","3D1UCPY6GGVNRONHL4UEVMXCHLT38H","","null","<img src=""img/food2.png"" style=""width:200px;border:14px solid red;"">","null","","","","","","","","","",""
"","image-keyboard-response","299","144129","0.0-388.0","3W8CV64QJ3L4LLBKWJUWOVPLS7Z9H0","A2ZL5GAZK6S0H1","3D1UCPY6GGVNRONHL4UEVMXCHLT38H","","717.9000005722046","img/food6.png","74","723.9000005722046","1","1","","2","1","1,0.5,0,1,0.5,0,0.5,0,1","1,0.5,0,1,0.5,0,0.5,0,1","1",""
"","html-keyboard-response","300","144443","0.0-389.0","3W8CV64QJ3L4LLBKWJUWOVPLS7Z9H0","A2ZL5GAZK6S0H1","3D1UCPY6GGVNRONHL4UEVMXCHLT38H","","null","<img src=""img/food6.png"" style=""width:200px; border:14px solid green;"">","null","","","","","","","","","",""
"","image-keyboard-response","301","145843","0.0-390.0","3W8CV64QJ3L4LLBKWJUWOVPLS7Z9H0","A2ZL5GAZK6S0H1","3D1UCPY6GGVNRONHL4UEVMXCHLT38H","","1392.7000007629395","img/food2.png","74","1398.8999996185303","1","1","","1","1","1,0.5,0,1,0.5,0,0.5,0,1","1,0.5,0,1,0.5,0,0.5,0,1","1",""
"","html-keyboard-response","302","146154","0.0-391.0","3W8CV64QJ3L4LLBKWJUWOVPLS7Z9H0","A2ZL5GAZK6S0H1","3D1UCPY6GGVNRONHL4UEVMXCHLT38H","","null","<img src=""img/food2.png"" style=""width:200px; border:14px solid green;"">","null","","","","","","","","","",""
"","image-keyboard-response","303","146518","0.0-392.0","3W8CV64QJ3L4LLBKWJUWOVPLS7Z9H0","A2ZL5GAZK6S0H1","3D1UCPY6GGVNRONHL4UEVMXCHLT38H","","357.1000003814697","img/food2.png","75","362.29999923706055","2","0","","1","1","1,0.5,0,1,0.5,0,0.5,0,1","1,0.5,0,1,0.5,0,0.5,0,1","1",""
"","html-keyboard-response","304","146827","0.0-393.0","3W8CV64QJ3L4LLBKWJUWOVPLS7Z9H0","A2ZL5GAZK6S0H1","3D1UCPY6GGVNRONHL4UEVMXCHLT38H","","null","<img src=""img/food2.png"" style=""width:200px;border:14px solid red;"">","null","","","","","","","","","",""
"","image-keyboard-response","305","148836","0.0-394.0","3W8CV64QJ3L4LLBKWJUWOVPLS7Z9H0","A2ZL5GAZK6S0H1","3D1UCPY6GGVNRONHL4UEVMXCHLT38H","","","img/food1.png","","2007.8000001907349","-1","0","","3","1","1,0.5,0,1,0.5,0,0.5,0,1","1,0.5,0,1,0.5,0,0.5,0,1","1",""
"","html-keyboard-response","306","149147","0.0-395.0","3W8CV64QJ3L4LLBKWJUWOVPLS7Z9H0","A2ZL5GAZK6S0H1","3D1UCPY6GGVNRONHL4UEVMXCHLT38H","","null","<img src=""img/food1.png"" style=""width:200px;border:14px solid red;"">","null","","","","","","","","","",""
"","image-keyboard-response","307","149937","0.0-396.0","3W8CV64QJ3L4LLBKWJUWOVPLS7Z9H0","A2ZL5GAZK6S0H1","3D1UCPY6GGVNRONHL4UEVMXCHLT38H","","782.0999994277954","img/food1.png","76","788.6000003814697","3","1","","3","1","1,0.5,0,1,0.5,0,0.5,0,1","1,0.5,0,1,0.5,0,0.5,0,1","1",""
"","html-keyboard-response","308","150245","0.0-397.0","3W8CV64QJ3L4LLBKWJUWOVPLS7Z9H0","A2ZL5GAZK6S0H1","3D1UCPY6GGVNRONHL4UEVMXCHLT38H","","null","<img src=""img/food1.png"" style=""width:200px; border:14px solid green;"">","null","","","","","","","","","",""
"","image-keyboard-response","309","150739","0.0-398.0","3W8CV64QJ3L4LLBKWJUWOVPLS7Z9H0","A2ZL5GAZK6S0H1","3D1UCPY6GGVNRONHL4UEVMXCHLT38H","","488.8999996185303","img/food2.png","75","493.5","2","1","","1","1","1,0.5,0,1,0.5,0,0.5,0,1","1,0.5,0,1,0.5,0,0.5,0,1","1",""
"","html-keyboard-response","310","151049","0.0-399.0","3W8CV64QJ3L4LLBKWJUWOVPLS7Z9H0","A2ZL5GAZK6S0H1","3D1UCPY6GGVNRONHL4UEVMXCHLT38H","","null","<img src=""img/food2.png"" style=""width:200px; border:14px solid green;"">","null","","","","","","","","","",""
"","image-keyboard-response","311","151472","0.0-400.0","3W8CV64QJ3L4LLBKWJUWOVPLS7Z9H0","A2ZL5GAZK6S0H1","3D1UCPY6GGVNRONHL4UEVMXCHLT38H","","414.4000005722046","img/food1.png","75","421.9000005722046","2","0","","3","1","1,0.5,0,1,0.5,0,0.5,0,1","1,0.5,0,1,0.5,0,0.5,0,1","1",""
"","html-keyboard-response","312","151781","0.0-401.0","3W8CV64QJ3L4LLBKWJUWOVPLS7Z9H0","A2ZL5GAZK6S0H1","3D1UCPY6GGVNRONHL4UEVMXCHLT38H","","null","<img src=""img/food1.png"" style=""width:200px;border:14px solid red;"">","null","","","","","","","","","",""
"","image-keyboard-response","313","152066","0.0-402.0","3W8CV64QJ3L4LLBKWJUWOVPLS7Z9H0","A2ZL5GAZK6S0H1","3D1UCPY6GGVNRONHL4UEVMXCHLT38H","","278.19999980926514","img/food6.png","74","282.9000005722046","1","1","","2","1","1,0.5,0,1,0.5,0,0.5,0,1","1,0.5,0,1,0.5,0,0.5,0,1","1",""
"","html-keyboard-response","314","152372","0.0-403.0","3W8CV64QJ3L4LLBKWJUWOVPLS7Z9H0","A2ZL5GAZK6S0H1","3D1UCPY6GGVNRONHL4UEVMXCHLT38H","","null","<img src=""img/food6.png"" style=""width:200px; border:14px solid green;"">","null","","","","","","","","","",""
"","image-keyboard-response","315","153486","0.0-404.0","3W8CV64QJ3L4LLBKWJUWOVPLS7Z9H0","A2ZL5GAZK6S0H1","3D1UCPY6GGVNRONHL4UEVMXCHLT38H","","1106.6000003814697","img/food1.png","74","1112.3999996185303","1","1","","3","1","1,0.5,0,1,0.5,0,0.5,0,1","1,0.5,0,1,0.5,0,0.5,0,1","1",""
"","html-keyboard-response","316","153796","0.0-405.0","3W8CV64QJ3L4LLBKWJUWOVPLS7Z9H0","A2ZL5GAZK6S0H1","3D1UCPY6GGVNRONHL4UEVMXCHLT38H","","null","<img src=""img/food1.png"" style=""width:200px; border:14px solid green;"">","null","","","","","","","","","",""
"","image-keyboard-response","317","154810","0.0-406.0","3W8CV64QJ3L4LLBKWJUWOVPLS7Z9H0","A2ZL5GAZK6S0H1","3D1UCPY6GGVNRONHL4UEVMXCHLT38H","","1006.2000007629395","img/food6.png","76","1012.5999994277954","3","0","","2","1","1,0.5,0,1,0.5,0,0.5,0,1","1,0.5,0,1,0.5,0,0.5,0,1","1",""
"","html-keyboard-response","318","155119","0.0-407.0","3W8CV64QJ3L4LLBKWJUWOVPLS7Z9H0","A2ZL5GAZK6S0H1","3D1UCPY6GGVNRONHL4UEVMXCHLT38H","","null","<img src=""img/food6.png"" style=""width:200px;border:14px solid red;"">","null","","","","","","","","","",""
"","image-keyboard-response","319","156397","0.0-408.0","3W8CV64QJ3L4LLBKWJUWOVPLS7Z9H0","A2ZL5GAZK6S0H1","3D1UCPY6GGVNRONHL4UEVMXCHLT38H","","1270","img/food1.png","74","1275.8999996185303","1","1","","3","1","1,0.5,0,1,0.5,0,0.5,0,1","1,0.5,0,1,0.5,0,0.5,0,1","1",""
"","html-keyboard-response","320","156708","0.0-409.0","3W8CV64QJ3L4LLBKWJUWOVPLS7Z9H0","A2ZL5GAZK6S0H1","3D1UCPY6GGVNRONHL4UEVMXCHLT38H","","null","<img src=""img/food1.png"" style=""width:200px; border:14px solid green;"">","null","","","","","","","","","",""
"","image-keyboard-response","321","157720","0.0-410.0","3W8CV64QJ3L4LLBKWJUWOVPLS7Z9H0","A2ZL5GAZK6S0H1","3D1UCPY6GGVNRONHL4UEVMXCHLT38H","","1004.3000001907349","img/food1.png","74","1011.9000005722046","1","1","","3","1","1,0.5,0,1,0.5,0,0.5,0,1","1,0.5,0,1,0.5,0,0.5,0,1","1",""
"","html-keyboard-response","322","158031","0.0-411.0","3W8CV64QJ3L4LLBKWJUWOVPLS7Z9H0","A2ZL5GAZK6S0H1","3D1UCPY6GGVNRONHL4UEVMXCHLT38H","","null","<img src=""img/food1.png"" style=""width:200px; border:14px solid green;"">","null","","","","","","","","","",""
"","image-keyboard-response","323","158568","0.0-412.0","3W8CV64QJ3L4LLBKWJUWOVPLS7Z9H0","A2ZL5GAZK6S0H1","3D1UCPY6GGVNRONHL4UEVMXCHLT38H","","528.1999998092651","img/food6.png","75","534.7000007629395","2","1","","2","1","1,0.5,0,1,0.5,0,0.5,0,1","1,0.5,0,1,0.5,0,0.5,0,1","1",""
"","html-keyboard-response","324","158877","0.0-413.0","3W8CV64QJ3L4LLBKWJUWOVPLS7Z9H0","A2ZL5GAZK6S0H1","3D1UCPY6GGVNRONHL4UEVMXCHLT38H","","null","<img src=""img/food6.png"" style=""width:200px; border:14px solid green;"">","null","","","","","","","","","",""
"","image-keyboard-response","325","159399","0.0-414.0","3W8CV64QJ3L4LLBKWJUWOVPLS7Z9H0","A2ZL5GAZK6S0H1","3D1UCPY6GGVNRONHL4UEVMXCHLT38H","","515","img/food1.png","76","520.5999994277954","3","1","","3","1","1,0.5,0,1,0.5,0,0.5,0,1","1,0.5,0,1,0.5,0,0.5,0,1","1",""
"","html-keyboard-response","326","159709","0.0-415.0","3W8CV64QJ3L4LLBKWJUWOVPLS7Z9H0","A2ZL5GAZK6S0H1","3D1UCPY6GGVNRONHL4UEVMXCHLT38H","","null","<img src=""img/food1.png"" style=""width:200px; border:14px solid green;"">","null","","","","","","","","","",""
"","image-keyboard-response","327","160141","0.0-416.0","3W8CV64QJ3L4LLBKWJUWOVPLS7Z9H0","A2ZL5GAZK6S0H1","3D1UCPY6GGVNRONHL4UEVMXCHLT38H","","423.9000005722046","img/food6.png","75","429.80000019073486","2","0","","2","1","1,0.5,0,1,0.5,0,0.5,0,1","1,0.5,0,1,0.5,0,0.5,0,1","1",""
"","html-keyboard-response","328","160448","0.0-417.0","3W8CV64QJ3L4LLBKWJUWOVPLS7Z9H0","A2ZL5GAZK6S0H1","3D1UCPY6GGVNRONHL4UEVMXCHLT38H","","null","<img src=""img/food6.png"" style=""width:200px;border:14px solid red;"">","null","","","","","","","","","",""
"","image-keyboard-response","329","161028","0.0-418.0","3W8CV64QJ3L4LLBKWJUWOVPLS7Z9H0","A2ZL5GAZK6S0H1","3D1UCPY6GGVNRONHL4UEVMXCHLT38H","","573.7000007629395","img/food2.png","76","578.1999998092651","3","0","","1","1","1,0.5,0,1,0.5,0,0.5,0,1","1,0.5,0,1,0.5,0,0.5,0,1","1",""
"","html-keyboard-response","330","161333","0.0-419.0","3W8CV64QJ3L4LLBKWJUWOVPLS7Z9H0","A2ZL5GAZK6S0H1","3D1UCPY6GGVNRONHL4UEVMXCHLT38H","","null","<img src=""img/food2.png"" style=""width:200px;border:14px solid red;"">","null","","","","","","","","","",""
"","image-keyboard-response","331","161783","0.0-420.0","3W8CV64QJ3L4LLBKWJUWOVPLS7Z9H0","A2ZL5GAZK6S0H1","3D1UCPY6GGVNRONHL4UEVMXCHLT38H","","440.19999980926514","img/food1.png","76","448.3999996185303","3","1","","3","1","1,0.5,0,1,0.5,0,0.5,0,1","1,0.5,0,1,0.5,0,0.5,0,1","1",""
"","html-keyboard-response","332","162093","0.0-421.0","3W8CV64QJ3L4LLBKWJUWOVPLS7Z9H0","A2ZL5GAZK6S0H1","3D1UCPY6GGVNRONHL4UEVMXCHLT38H","","null","<img src=""img/food1.png"" style=""width:200px; border:14px solid green;"">","null","","","","","","","","","",""
"","image-keyboard-response","333","162614","0.0-422.0","3W8CV64QJ3L4LLBKWJUWOVPLS7Z9H0","A2ZL5GAZK6S0H1","3D1UCPY6GGVNRONHL4UEVMXCHLT38H","","516.6999998092651","img/food6.png","75","520.0999994277954","2","1","","2","1","1,0.5,0,1,0.5,0,0.5,0,1","1,0.5,0,1,0.5,0,0.5,0,1","1",""
"","html-keyboard-response","334","162921","0.0-423.0","3W8CV64QJ3L4LLBKWJUWOVPLS7Z9H0","A2ZL5GAZK6S0H1","3D1UCPY6GGVNRONHL4UEVMXCHLT38H","","null","<img src=""img/food6.png"" style=""width:200px; border:14px solid green;"">","null","","","","","","","","","",""
"","image-keyboard-response","335","164868","0.0-424.0","3W8CV64QJ3L4LLBKWJUWOVPLS7Z9H0","A2ZL5GAZK6S0H1","3D1UCPY6GGVNRONHL4UEVMXCHLT38H","","1941.8999996185303","img/food1.png","75","1946.8999996185303","2","0","","3","1","1,0.5,0,1,0.5,0,0.5,0,1","1,0.5,0,1,0.5,0,0.5,0,1","1",""
"","html-keyboard-response","336","165178","0.0-425.0","3W8CV64QJ3L4LLBKWJUWOVPLS7Z9H0","A2ZL5GAZK6S0H1","3D1UCPY6GGVNRONHL4UEVMXCHLT38H","","null","<img src=""img/food1.png"" style=""width:200px;border:14px solid red;"">","null","","","","","","","","","",""
"","image-keyboard-response","337","165645","0.0-426.0","3W8CV64QJ3L4LLBKWJUWOVPLS7Z9H0","A2ZL5GAZK6S0H1","3D1UCPY6GGVNRONHL4UEVMXCHLT38H","","460.6000003814697","img/food1.png","74","465.30000019073486","1","0","","3","1","1,0.5,0,1,0.5,0,0.5,0,1","1,0.5,0,1,0.5,0,0.5,0,1","1",""
"","html-keyboard-response","338","165957","0.0-427.0","3W8CV64QJ3L4LLBKWJUWOVPLS7Z9H0","A2ZL5GAZK6S0H1","3D1UCPY6GGVNRONHL4UEVMXCHLT38H","","null","<img src=""img/food1.png"" style=""width:200px;border:14px solid red;"">","null","","","","","","","","","",""
"","image-keyboard-response","339","167701","0.0-428.0","3W8CV64QJ3L4LLBKWJUWOVPLS7Z9H0","A2ZL5GAZK6S0H1","3D1UCPY6GGVNRONHL4UEVMXCHLT38H","","1725.5","img/food1.png","74","1742.6000003814697","1","0","","3","1","1,0.5,0,1,0.5,0,0.5,0,1","1,0.5,0,1,0.5,0,0.5,0,1","1",""
"","html-keyboard-response","340","168013","0.0-429.0","3W8CV64QJ3L4LLBKWJUWOVPLS7Z9H0","A2ZL5GAZK6S0H1","3D1UCPY6GGVNRONHL4UEVMXCHLT38H","","null","<img src=""img/food1.png"" style=""width:200px;border:14px solid red;"">","null","","","","","","","","","",""
"","image-keyboard-response","341","168442","0.0-430.0","3W8CV64QJ3L4LLBKWJUWOVPLS7Z9H0","A2ZL5GAZK6S0H1","3D1UCPY6GGVNRONHL4UEVMXCHLT38H","","423.1000003814697","img/food1.png","75","427.69999980926514","2","0","","3","1","1,0.5,0,1,0.5,0,0.5,0,1","1,0.5,0,1,0.5,0,0.5,0,1","1",""
"","html-keyboard-response","342","168747","0.0-431.0","3W8CV64QJ3L4LLBKWJUWOVPLS7Z9H0","A2ZL5GAZK6S0H1","3D1UCPY6GGVNRONHL4UEVMXCHLT38H","","null","<img src=""img/food1.png"" style=""width:200px;border:14px solid red;"">","null","","","","","","","","","",""
"","image-keyboard-response","343","169174","0.0-432.0","3W8CV64QJ3L4LLBKWJUWOVPLS7Z9H0","A2ZL5GAZK6S0H1","3D1UCPY6GGVNRONHL4UEVMXCHLT38H","","418.80000019073486","img/food2.png","74","424.69999980926514","1","1","","1","1","1,0.5,0,1,0.5,0,0.5,0,1","1,0.5,0,1,0.5,0,0.5,0,1","1",""
"","html-keyboard-response","344","169482","0.0-433.0","3W8CV64QJ3L4LLBKWJUWOVPLS7Z9H0","A2ZL5GAZK6S0H1","3D1UCPY6GGVNRONHL4UEVMXCHLT38H","","null","<img src=""img/food2.png"" style=""width:200px; border:14px solid green;"">","null","","","","","","","","","",""
"","image-keyboard-response","345","169915","0.0-434.0","3W8CV64QJ3L4LLBKWJUWOVPLS7Z9H0","A2ZL5GAZK6S0H1","3D1UCPY6GGVNRONHL4UEVMXCHLT38H","","430.0999994277954","img/food6.png","75","433.30000019073486","2","0","","2","1","1,0.5,0,1,0.5,0,0.5,0,1","1,0.5,0,1,0.5,0,0.5,0,1","1",""
"","html-keyboard-response","346","170222","0.0-435.0","3W8CV64QJ3L4LLBKWJUWOVPLS7Z9H0","A2ZL5GAZK6S0H1","3D1UCPY6GGVNRONHL4UEVMXCHLT38H","","null","<img src=""img/food6.png"" style=""width:200px;border:14px solid red;"">","null","","","","","","","","","",""
"","image-keyboard-response","347","170606","0.0-436.0","3W8CV64QJ3L4LLBKWJUWOVPLS7Z9H0","A2ZL5GAZK6S0H1","3D1UCPY6GGVNRONHL4UEVMXCHLT38H","","378","img/food6.png","76","382.19999980926514","3","0","","2","1","1,0.5,0,1,0.5,0,0.5,0,1","1,0.5,0,1,0.5,0,0.5,0,1","1",""
"","html-keyboard-response","348","170914","0.0-437.0","3W8CV64QJ3L4LLBKWJUWOVPLS7Z9H0","A2ZL5GAZK6S0H1","3D1UCPY6GGVNRONHL4UEVMXCHLT38H","","null","<img src=""img/food6.png"" style=""width:200px;border:14px solid red;"">","null","","","","","","","","","",""
"","image-keyboard-response","349","171393","0.0-438.0","3W8CV64QJ3L4LLBKWJUWOVPLS7Z9H0","A2ZL5GAZK6S0H1","3D1UCPY6GGVNRONHL4UEVMXCHLT38H","","471.30000019073486","img/food6.png","76","476.6000003814697","3","0","","2","1","1,0.5,0,1,0.5,0,0.5,0,1","1,0.5,0,1,0.5,0,0.5,0,1","1",""
"","html-keyboard-response","350","171702","0.0-439.0","3W8CV64QJ3L4LLBKWJUWOVPLS7Z9H0","A2ZL5GAZK6S0H1","3D1UCPY6GGVNRONHL4UEVMXCHLT38H","","null","<img src=""img/food6.png"" style=""width:200px;border:14px solid red;"">","null","","","","","","","","","",""
"","image-keyboard-response","351","172050","0.0-440.0","3W8CV64QJ3L4LLBKWJUWOVPLS7Z9H0","A2ZL5GAZK6S0H1","3D1UCPY6GGVNRONHL4UEVMXCHLT38H","","339.4000005722046","img/food6.png","74","346.8999996185303","1","1","","2","1","1,0.5,0,1,0.5,0,0.5,0,1","1,0.5,0,1,0.5,0,0.5,0,1","1",""
"","html-keyboard-response","352","172361","0.0-441.0","3W8CV64QJ3L4LLBKWJUWOVPLS7Z9H0","A2ZL5GAZK6S0H1","3D1UCPY6GGVNRONHL4UEVMXCHLT38H","","null","<img src=""img/food6.png"" style=""width:200px; border:14px solid green;"">","null","","","","","","","","","",""
"","image-keyboard-response","353","172659","0.0-442.0","3W8CV64QJ3L4LLBKWJUWOVPLS7Z9H0","A2ZL5GAZK6S0H1","3D1UCPY6GGVNRONHL4UEVMXCHLT38H","","291.0999994277954","img/food2.png","75","297.20000076293945","2","0","","1","1","1,0.5,0,1,0.5,0,0.5,0,1","1,0.5,0,1,0.5,0,0.5,0,1","1",""
"","html-keyboard-response","354","172968","0.0-443.0","3W8CV64QJ3L4LLBKWJUWOVPLS7Z9H0","A2ZL5GAZK6S0H1","3D1UCPY6GGVNRONHL4UEVMXCHLT38H","","null","<img src=""img/food2.png"" style=""width:200px;border:14px solid red;"">","null","","","","","","","","","",""
"","image-keyboard-response","355","173267","0.0-444.0","3W8CV64QJ3L4LLBKWJUWOVPLS7Z9H0","A2ZL5GAZK6S0H1","3D1UCPY6GGVNRONHL4UEVMXCHLT38H","","290.6000003814697","img/food2.png","74","296.19999980926514","1","1","","1","1","1,0.5,0,1,0.5,0,0.5,0,1","1,0.5,0,1,0.5,0,0.5,0,1","1",""
"","html-keyboard-response","356","173578","0.0-445.0","3W8CV64QJ3L4LLBKWJUWOVPLS7Z9H0","A2ZL5GAZK6S0H1","3D1UCPY6GGVNRONHL4UEVMXCHLT38H","","null","<img src=""img/food2.png"" style=""width:200px; border:14px solid green;"">","null","","","","","","","","","",""
"","image-keyboard-response","357","173967","0.0-446.0","3W8CV64QJ3L4LLBKWJUWOVPLS7Z9H0","A2ZL5GAZK6S0H1","3D1UCPY6GGVNRONHL4UEVMXCHLT38H","","384.5","img/food2.png","74","388.80000019073486","1","1","","1","1","1,0.5,0,1,0.5,0,0.5,0,1","1,0.5,0,1,0.5,0,0.5,0,1","1",""
"","html-keyboard-response","358","174277","0.0-447.0","3W8CV64QJ3L4LLBKWJUWOVPLS7Z9H0","A2ZL5GAZK6S0H1","3D1UCPY6GGVNRONHL4UEVMXCHLT38H","","null","<img src=""img/food2.png"" style=""width:200px; border:14px solid green;"">","null","","","","","","","","","",""
"","image-keyboard-response","359","174610","0.0-448.0","3W8CV64QJ3L4LLBKWJUWOVPLS7Z9H0","A2ZL5GAZK6S0H1","3D1UCPY6GGVNRONHL4UEVMXCHLT38H","","327.80000019073486","img/food2.png","74","331.8999996185303","1","1","","1","1","1,0.5,0,1,0.5,0,0.5,0,1","1,0.5,0,1,0.5,0,0.5,0,1","1",""
"","html-keyboard-response","360","174922","0.0-449.0","3W8CV64QJ3L4LLBKWJUWOVPLS7Z9H0","A2ZL5GAZK6S0H1","3D1UCPY6GGVNRONHL4UEVMXCHLT38H","","null","<img src=""img/food2.png"" style=""width:200px; border:14px solid green;"">","null","","","","","","","","","",""
"","image-keyboard-response","361","175415","0.0-450.0","3W8CV64QJ3L4LLBKWJUWOVPLS7Z9H0","A2ZL5GAZK6S0H1","3D1UCPY6GGVNRONHL4UEVMXCHLT38H","","484.1000003814697","img/food1.png","74","490.1000003814697","1","1","","3","1","1,0.5,0,1,0.5,0,0.5,0,1","1,0.5,0,1,0.5,0,0.5,0,1","1",""
"","html-keyboard-response","362","175728","0.0-451.0","3W8CV64QJ3L4LLBKWJUWOVPLS7Z9H0","A2ZL5GAZK6S0H1","3D1UCPY6GGVNRONHL4UEVMXCHLT38H","","null","<img src=""img/food1.png"" style=""width:200px; border:14px solid green;"">","null","","","","","","","","","",""
"","image-keyboard-response","363","176070","0.0-452.0","3W8CV64QJ3L4LLBKWJUWOVPLS7Z9H0","A2ZL5GAZK6S0H1","3D1UCPY6GGVNRONHL4UEVMXCHLT38H","","332.6000003814697","img/food2.png","76","340.5999994277954","3","0","","1","1","1,0.5,0,1,0.5,0,0.5,0,1","1,0.5,0,1,0.5,0,0.5,0,1","1",""
"","html-keyboard-response","364","176376","0.0-453.0","3W8CV64QJ3L4LLBKWJUWOVPLS7Z9H0","A2ZL5GAZK6S0H1","3D1UCPY6GGVNRONHL4UEVMXCHLT38H","","null","<img src=""img/food2.png"" style=""width:200px;border:14px solid red;"">","null","","","","","","","","","",""
"","html-keyboard-response","365","179762","0.0-454.0","3W8CV64QJ3L4LLBKWJUWOVPLS7Z9H0","A2ZL5GAZK6S0H1","3D1UCPY6GGVNRONHL4UEVMXCHLT38H","","","","","","","","","","","","","",""
"","instructions","366","181663","0.0-455.0","3W8CV64QJ3L4LLBKWJUWOVPLS7Z9H0","A2ZL5GAZK6S0H1","3D1UCPY6GGVNRONHL4UEVMXCHLT38H","[{""page_index"":0,""viewing_time"":1897.1999998092651}]","1898","","","","","","","","","","","",""
"","survey-text","367","185222","0.0-456.0","3W8CV64QJ3L4LLBKWJUWOVPLS7Z9H0","A2ZL5GAZK6S0H1","3D1UCPY6GGVNRONHL4UEVMXCHLT38H","","3543.5999994277954","","","","","","","","","","","","{""Q0"":""A2ZL5GAZK6S0H1""}"
