"success","trial_type","trial_index","time_elapsed","internal_node_id","assignmentID","mturkID","hitID","view_history","rt","stimulus","key_press","reactionTime","a","r","warning","s","cond","reward_cond","reward_cond_actual","reward_matrix_idx","responses"
"true","fullscreen","0","3488","0.0-0.0","3AZHRG4CU567VJG8H2M1RQNI58S03W","A2ZSL0EDN3H4AT","32XN26MTXZ5MP383W6LZYTLBY7P0LI","","","","","","","","","","","","","",""
"","instructions","1","22936","0.0-1.0","3AZHRG4CU567VJG8H2M1RQNI58S03W","A2ZSL0EDN3H4AT","32XN26MTXZ5MP383W6LZYTLBY7P0LI","[{""page_index"":0,""viewing_time"":5485.200000000186},{""page_index"":1,""viewing_time"":2208.399999999907},{""page_index"":2,""viewing_time"":1037.5},{""page_index"":3,""viewing_time"":3580.2999999998137},{""page_index"":4,""viewing_time"":3668.2000000001863},{""page_index"":5,""viewing_time"":2094.100000000093},{""page_index"":6,""viewing_time"":1373.6999999997206}]","19448.299999999814","","","","","","","","","","","",""
"","instructions","2","25936","0.0-2.0","3AZHRG4CU567VJG8H2M1RQNI58S03W","A2ZSL0EDN3H4AT","32XN26MTXZ5MP383W6LZYTLBY7P0LI","[{""page_index"":0,""viewing_time"":1738.3999999999069},{""page_index"":1,""viewing_time"":1260.3999999999069}]","2998.899999999907","","","","","","","","","","","",""
"","image-keyboard-response","3","26943","0.0-3.0","3AZHRG4CU567VJG8H2M1RQNI58S03W","A2ZSL0EDN3H4AT","32XN26MTXZ5MP383W6LZYTLBY7P0LI","","","img/food3.png","","1007.5999999996275","-1","0","true","3","2","1,0.7,0,1,0.7,0,0.7,0,1","1,0.7,0,1,0.7,0,0.7,0,1","1",""
"","html-keyboard-response","4","27255","0.0-4.0","3AZHRG4CU567VJG8H2M1RQNI58S03W","A2ZSL0EDN3H4AT","32XN26MTXZ5MP383W6LZYTLBY7P0LI","","null","<img src=""img/food3.png"" style=""width:200px;border:14px solid red;"">","null","","","","","","","","","",""
"","html-keyboard-response","5","29753","0.0-5.0-0.0","3AZHRG4CU567VJG8H2M1RQNI58S03W","A2ZSL0EDN3H4AT","32XN26MTXZ5MP383W6LZYTLBY7P0LI","","","","","","","","","","","","","",""
"","image-keyboard-response","6","30428","0.0-6.0","3AZHRG4CU567VJG8H2M1RQNI58S03W","A2ZSL0EDN3H4AT","32XN26MTXZ5MP383W6LZYTLBY7P0LI","","674.1000000000931","img/food6.png","75","674.8000000002794","2","1","false","2","2","1,0.7,0,1,0.7,0,0.7,0,1","1,0.7,0,1,0.7,0,0.7,0,1","1",""
"","html-keyboard-response","7","30735","0.0-7.0","3AZHRG4CU567VJG8H2M1RQNI58S03W","A2ZSL0EDN3H4AT","32XN26MTXZ5MP383W6LZYTLBY7P0LI","","null","<img src=""img/food6.png"" style=""width:200px; border:14px solid green;"">","null","","","","","","","","","",""
"","image-keyboard-response","8","31445","0.0-9.0","3AZHRG4CU567VJG8H2M1RQNI58S03W","A2ZSL0EDN3H4AT","32XN26MTXZ5MP383W6LZYTLBY7P0LI","","709.2999999998137","img/food3.png","74","709.7000000001863","1","0","false","3","2","1,0.7,0,1,0.7,0,0.7,0,1","1,0.7,0,1,0.7,0,0.7,0,1","1",""
"","html-keyboard-response","9","31747","0.0-10.0","3AZHRG4CU567VJG8H2M1RQNI58S03W","A2ZSL0EDN3H4AT","32XN26MTXZ5MP383W6LZYTLBY7P0LI","","null","<img src=""img/food3.png"" style=""width:200px;border:14px solid red;"">","null","","","","","","","","","",""
"","image-keyboard-response","10","32384","0.0-12.0","3AZHRG4CU567VJG8H2M1RQNI58S03W","A2ZSL0EDN3H4AT","32XN26MTXZ5MP383W6LZYTLBY7P0LI","","635.5999999996275","img/food2.png","76","636.3999999999069","3","0","false","1","2","1,0.7,0,1,0.7,0,0.7,0,1","1,0.7,0,1,0.7,0,0.7,0,1","1",""
"","html-keyboard-response","11","32695","0.0-13.0","3AZHRG4CU567VJG8H2M1RQNI58S03W","A2ZSL0EDN3H4AT","32XN26MTXZ5MP383W6LZYTLBY7P0LI","","null","<img src=""img/food2.png"" style=""width:200px;border:14px solid red;"">","null","","","","","","","","","",""
"","image-keyboard-response","12","33358","0.0-15.0","3AZHRG4CU567VJG8H2M1RQNI58S03W","A2ZSL0EDN3H4AT","32XN26MTXZ5MP383W6LZYTLBY7P0LI","","662.7999999998137","img/food2.png","76","663.2999999998137","3","0","false","1","2","1,0.7,0,1,0.7,0,0.7,0,1","1,0.7,0,1,0.7,0,0.7,0,1","1",""
"","html-keyboard-response","13","33666","0.0-16.0","3AZHRG4CU567VJG8H2M1RQNI58S03W","A2ZSL0EDN3H4AT","32XN26MTXZ5MP383W6LZYTLBY7P0LI","","null","<img src=""img/food2.png"" style=""width:200px;border:14px solid red;"">","null","","","","","","","","","",""
"","image-keyboard-response","14","34087","0.0-18.0","3AZHRG4CU567VJG8H2M1RQNI58S03W","A2ZSL0EDN3H4AT","32XN26MTXZ5MP383W6LZYTLBY7P0LI","","419.59999999962747","img/food6.png","75","420.29999999981374","2","0","false","2","2","1,0.7,0,1,0.7,0,0.7,0,1","1,0.7,0,1,0.7,0,0.7,0,1","1",""
"","html-keyboard-response","15","34399","0.0-19.0","3AZHRG4CU567VJG8H2M1RQNI58S03W","A2ZSL0EDN3H4AT","32XN26MTXZ5MP383W6LZYTLBY7P0LI","","null","<img src=""img/food6.png"" style=""width:200px;border:14px solid red;"">","null","","","","","","","","","",""
"","image-keyboard-response","16","34678","0.0-21.0","3AZHRG4CU567VJG8H2M1RQNI58S03W","A2ZSL0EDN3H4AT","32XN26MTXZ5MP383W6LZYTLBY7P0LI","","278.79999999981374","img/food6.png","74","279.10000000009313","1","1","false","2","2","1,0.7,0,1,0.7,0,0.7,0,1","1,0.7,0,1,0.7,0,0.7,0,1","1",""
"","html-keyboard-response","17","34988","0.0-22.0","3AZHRG4CU567VJG8H2M1RQNI58S03W","A2ZSL0EDN3H4AT","32XN26MTXZ5MP383W6LZYTLBY7P0LI","","null","<img src=""img/food6.png"" style=""width:200px; border:14px solid green;"">","null","","","","","","","","","",""
"","image-keyboard-response","18","35748","0.0-24.0","3AZHRG4CU567VJG8H2M1RQNI58S03W","A2ZSL0EDN3H4AT","32XN26MTXZ5MP383W6LZYTLBY7P0LI","","759.8999999999069","img/food3.png","75","760.5","2","0","false","3","2","1,0.7,0,1,0.7,0,0.7,0,1","1,0.7,0,1,0.7,0,0.7,0,1","1",""
"","html-keyboard-response","19","36055","0.0-25.0","3AZHRG4CU567VJG8H2M1RQNI58S03W","A2ZSL0EDN3H4AT","32XN26MTXZ5MP383W6LZYTLBY7P0LI","","null","<img src=""img/food3.png"" style=""width:200px;border:14px solid red;"">","null","","","","","","","","","",""
"","image-keyboard-response","20","36386","0.0-27.0","3AZHRG4CU567VJG8H2M1RQNI58S03W","A2ZSL0EDN3H4AT","32XN26MTXZ5MP383W6LZYTLBY7P0LI","","329.3000000002794","img/food3.png","74","330.09999999962747","1","0","false","3","2","1,0.7,0,1,0.7,0,0.7,0,1","1,0.7,0,1,0.7,0,0.7,0,1","1",""
"","html-keyboard-response","21","36692","0.0-28.0","3AZHRG4CU567VJG8H2M1RQNI58S03W","A2ZSL0EDN3H4AT","32XN26MTXZ5MP383W6LZYTLBY7P0LI","","null","<img src=""img/food3.png"" style=""width:200px;border:14px solid red;"">","null","","","","","","","","","",""
"","image-keyboard-response","22","37547","0.0-30.0","3AZHRG4CU567VJG8H2M1RQNI58S03W","A2ZSL0EDN3H4AT","32XN26MTXZ5MP383W6LZYTLBY7P0LI","","852.6000000000931","img/food6.png","75","854.1000000000931","2","0","false","2","2","1,0.7,0,1,0.7,0,0.7,0,1","1,0.7,0,1,0.7,0,0.7,0,1","1",""
"","html-keyboard-response","23","37854","0.0-31.0","3AZHRG4CU567VJG8H2M1RQNI58S03W","A2ZSL0EDN3H4AT","32XN26MTXZ5MP383W6LZYTLBY7P0LI","","null","<img src=""img/food6.png"" style=""width:200px;border:14px solid red;"">","null","","","","","","","","","",""
"","image-keyboard-response","24","38203","0.0-33.0","3AZHRG4CU567VJG8H2M1RQNI58S03W","A2ZSL0EDN3H4AT","32XN26MTXZ5MP383W6LZYTLBY7P0LI","","348.20000000018626","img/food2.png","76","349","3","0","false","1","2","1,0.7,0,1,0.7,0,0.7,0,1","1,0.7,0,1,0.7,0,0.7,0,1","1",""
"","html-keyboard-response","25","38511","0.0-34.0","3AZHRG4CU567VJG8H2M1RQNI58S03W","A2ZSL0EDN3H4AT","32XN26MTXZ5MP383W6LZYTLBY7P0LI","","null","<img src=""img/food2.png"" style=""width:200px;border:14px solid red;"">","null","","","","","","","","","",""
"","image-keyboard-response","26","39197","0.0-36.0","3AZHRG4CU567VJG8H2M1RQNI58S03W","A2ZSL0EDN3H4AT","32XN26MTXZ5MP383W6LZYTLBY7P0LI","","685.3999999999069","img/food3.png","74","686","1","0","false","3","2","1,0.7,0,1,0.7,0,0.7,0,1","1,0.7,0,1,0.7,0,0.7,0,1","1",""
"","html-keyboard-response","27","39509","0.0-37.0","3AZHRG4CU567VJG8H2M1RQNI58S03W","A2ZSL0EDN3H4AT","32XN26MTXZ5MP383W6LZYTLBY7P0LI","","null","<img src=""img/food3.png"" style=""width:200px;border:14px solid red;"">","null","","","","","","","","","",""
"","image-keyboard-response","28","39885","0.0-39.0","3AZHRG4CU567VJG8H2M1RQNI58S03W","A2ZSL0EDN3H4AT","32XN26MTXZ5MP383W6LZYTLBY7P0LI","","374.89999999990687","img/food2.png","75","375.29999999981374","2","1","false","1","2","1,0.7,0,1,0.7,0,0.7,0,1","1,0.7,0,1,0.7,0,0.7,0,1","1",""
"","html-keyboard-response","29","40190","0.0-40.0","3AZHRG4CU567VJG8H2M1RQNI58S03W","A2ZSL0EDN3H4AT","32XN26MTXZ5MP383W6LZYTLBY7P0LI","","null","<img src=""img/food2.png"" style=""width:200px; border:14px solid green;"">","null","","","","","","","","","",""
"","image-keyboard-response","30","41033","0.0-42.0","3AZHRG4CU567VJG8H2M1RQNI58S03W","A2ZSL0EDN3H4AT","32XN26MTXZ5MP383W6LZYTLBY7P0LI","","842.5","img/food3.png","76","842.6999999997206","3","1","false","3","2","1,0.7,0,1,0.7,0,0.7,0,1","1,0.7,0,1,0.7,0,0.7,0,1","1",""
"","html-keyboard-response","31","41339","0.0-43.0","3AZHRG4CU567VJG8H2M1RQNI58S03W","A2ZSL0EDN3H4AT","32XN26MTXZ5MP383W6LZYTLBY7P0LI","","null","<img src=""img/food3.png"" style=""width:200px; border:14px solid green;"">","null","","","","","","","","","",""
"","image-keyboard-response","32","42347","0.0-45.0","3AZHRG4CU567VJG8H2M1RQNI58S03W","A2ZSL0EDN3H4AT","32XN26MTXZ5MP383W6LZYTLBY7P0LI","","","img/food2.png","","1008","-1","0","true","1","2","1,0.7,0,1,0.7,0,0.7,0,1","1,0.7,0,1,0.7,0,0.7,0,1","1",""
"","html-keyboard-response","33","42655","0.0-46.0","3AZHRG4CU567VJG8H2M1RQNI58S03W","A2ZSL0EDN3H4AT","32XN26MTXZ5MP383W6LZYTLBY7P0LI","","null","<img src=""img/food2.png"" style=""width:200px;border:14px solid red;"">","null","","","","","","","","","",""
"","html-keyboard-response","34","44451","0.0-47.0-0.0","3AZHRG4CU567VJG8H2M1RQNI58S03W","A2ZSL0EDN3H4AT","32XN26MTXZ5MP383W6LZYTLBY7P0LI","","","","","","","","","","","","","",""
"","image-keyboard-response","35","45108","0.0-48.0","3AZHRG4CU567VJG8H2M1RQNI58S03W","A2ZSL0EDN3H4AT","32XN26MTXZ5MP383W6LZYTLBY7P0LI","","655.8999999999069","img/food6.png","75","656.5","2","1","false","2","2","1,0.7,0,1,0.7,0,0.7,0,1","1,0.7,0,1,0.7,0,0.7,0,1","1",""
"","html-keyboard-response","36","45410","0.0-49.0","3AZHRG4CU567VJG8H2M1RQNI58S03W","A2ZSL0EDN3H4AT","32XN26MTXZ5MP383W6LZYTLBY7P0LI","","null","<img src=""img/food6.png"" style=""width:200px; border:14px solid green;"">","null","","","","","","","","","",""
"","image-keyboard-response","37","45911","0.0-51.0","3AZHRG4CU567VJG8H2M1RQNI58S03W","A2ZSL0EDN3H4AT","32XN26MTXZ5MP383W6LZYTLBY7P0LI","","500.89999999990687","img/food6.png","75","501.5","2","0","false","2","2","1,0.7,0,1,0.7,0,0.7,0,1","1,0.7,0,1,0.7,0,0.7,0,1","1",""
"","html-keyboard-response","38","46219","0.0-52.0","3AZHRG4CU567VJG8H2M1RQNI58S03W","A2ZSL0EDN3H4AT","32XN26MTXZ5MP383W6LZYTLBY7P0LI","","null","<img src=""img/food6.png"" style=""width:200px;border:14px solid red;"">","null","","","","","","","","","",""
"","image-keyboard-response","39","46516","0.0-54.0","3AZHRG4CU567VJG8H2M1RQNI58S03W","A2ZSL0EDN3H4AT","32XN26MTXZ5MP383W6LZYTLBY7P0LI","","294.39999999990687","img/food6.png","76","296.29999999981374","3","0","false","2","2","1,0.7,0,1,0.7,0,0.7,0,1","1,0.7,0,1,0.7,0,0.7,0,1","1",""
"","html-keyboard-response","40","46826","0.0-55.0","3AZHRG4CU567VJG8H2M1RQNI58S03W","A2ZSL0EDN3H4AT","32XN26MTXZ5MP383W6LZYTLBY7P0LI","","null","<img src=""img/food6.png"" style=""width:200px;border:14px solid red;"">","null","","","","","","","","","",""
"","image-keyboard-response","41","46921","0.0-57.0","3AZHRG4CU567VJG8H2M1RQNI58S03W","A2ZSL0EDN3H4AT","32XN26MTXZ5MP383W6LZYTLBY7P0LI","","93","img/food3.png","74","94.29999999981374","1","1","false","3","2","1,0.7,0,1,0.7,0,0.7,0,1","1,0.7,0,1,0.7,0,0.7,0,1","1",""
"","html-keyboard-response","42","47230","0.0-58.0","3AZHRG4CU567VJG8H2M1RQNI58S03W","A2ZSL0EDN3H4AT","32XN26MTXZ5MP383W6LZYTLBY7P0LI","","null","<img src=""img/food3.png"" style=""width:200px; border:14px solid green;"">","null","","","","","","","","","",""
"","image-keyboard-response","43","47584","0.0-60.0","3AZHRG4CU567VJG8H2M1RQNI58S03W","A2ZSL0EDN3H4AT","32XN26MTXZ5MP383W6LZYTLBY7P0LI","","353.10000000009313","img/food6.png","76","353.8000000002794","3","0","false","2","2","1,0.7,0,1,0.7,0,0.7,0,1","1,0.7,0,1,0.7,0,0.7,0,1","1",""
"","html-keyboard-response","44","47890","0.0-61.0","3AZHRG4CU567VJG8H2M1RQNI58S03W","A2ZSL0EDN3H4AT","32XN26MTXZ5MP383W6LZYTLBY7P0LI","","null","<img src=""img/food6.png"" style=""width:200px;border:14px solid red;"">","null","","","","","","","","","",""
"","image-keyboard-response","45","48040","0.0-63.0","3AZHRG4CU567VJG8H2M1RQNI58S03W","A2ZSL0EDN3H4AT","32XN26MTXZ5MP383W6LZYTLBY7P0LI","","149.39999999990687","img/food3.png","75","149.8000000002794","2","0","false","3","2","1,0.7,0,1,0.7,0,0.7,0,1","1,0.7,0,1,0.7,0,0.7,0,1","1",""
"","html-keyboard-response","46","48351","0.0-64.0","3AZHRG4CU567VJG8H2M1RQNI58S03W","A2ZSL0EDN3H4AT","32XN26MTXZ5MP383W6LZYTLBY7P0LI","","null","<img src=""img/food3.png"" style=""width:200px;border:14px solid red;"">","null","","","","","","","","","",""
"","image-keyboard-response","47","48532","0.0-66.0","3AZHRG4CU567VJG8H2M1RQNI58S03W","A2ZSL0EDN3H4AT","32XN26MTXZ5MP383W6LZYTLBY7P0LI","","181","img/food3.png","74","181.1999999997206","1","0","false","3","2","1,0.7,0,1,0.7,0,0.7,0,1","1,0.7,0,1,0.7,0,0.7,0,1","1",""
"","html-keyboard-response","48","48839","0.0-67.0","3AZHRG4CU567VJG8H2M1RQNI58S03W","A2ZSL0EDN3H4AT","32XN26MTXZ5MP383W6LZYTLBY7P0LI","","null","<img src=""img/food3.png"" style=""width:200px;border:14px solid red;"">","null","","","","","","","","","",""
"","image-keyboard-response","49","48909","0.0-69.0","3AZHRG4CU567VJG8H2M1RQNI58S03W","A2ZSL0EDN3H4AT","32XN26MTXZ5MP383W6LZYTLBY7P0LI","","69.1999999997206","img/food2.png","75","69.70000000018626","2","1","false","1","2","1,0.7,0,1,0.7,0,0.7,0,1","1,0.7,0,1,0.7,0,0.7,0,1","1",""
"","html-keyboard-response","50","49214","0.0-70.0","3AZHRG4CU567VJG8H2M1RQNI58S03W","A2ZSL0EDN3H4AT","32XN26MTXZ5MP383W6LZYTLBY7P0LI","","null","<img src=""img/food2.png"" style=""width:200px; border:14px solid green;"">","null","","","","","","","","","",""
"","image-keyboard-response","51","49266","0.0-72.0","3AZHRG4CU567VJG8H2M1RQNI58S03W","A2ZSL0EDN3H4AT","32XN26MTXZ5MP383W6LZYTLBY7P0LI","","51.200000000186265","img/food3.png","75","51.5","2","0","false","3","2","1,0.7,0,1,0.7,0,0.7,0,1","1,0.7,0,1,0.7,0,0.7,0,1","1",""
"","html-keyboard-response","52","49570","0.0-73.0","3AZHRG4CU567VJG8H2M1RQNI58S03W","A2ZSL0EDN3H4AT","32XN26MTXZ5MP383W6LZYTLBY7P0LI","","null","<img src=""img/food3.png"" style=""width:200px;border:14px solid red;"">","null","","","","","","","","","",""
"","image-keyboard-response","53","49617","0.0-75.0","3AZHRG4CU567VJG8H2M1RQNI58S03W","A2ZSL0EDN3H4AT","32XN26MTXZ5MP383W6LZYTLBY7P0LI","","46.799999999813735","img/food6.png","75","47.200000000186265","2","1","false","2","2","1,0.7,0,1,0.7,0,0.7,0,1","1,0.7,0,1,0.7,0,0.7,0,1","1",""
"","html-keyboard-response","54","49925","0.0-76.0","3AZHRG4CU567VJG8H2M1RQNI58S03W","A2ZSL0EDN3H4AT","32XN26MTXZ5MP383W6LZYTLBY7P0LI","","null","<img src=""img/food6.png"" style=""width:200px; border:14px solid green;"">","null","","","","","","","","","",""
"","image-keyboard-response","55","49946","0.0-78.0","3AZHRG4CU567VJG8H2M1RQNI58S03W","A2ZSL0EDN3H4AT","32XN26MTXZ5MP383W6LZYTLBY7P0LI","","20.200000000186265","img/food2.png","75","21","2","0","false","1","2","1,0.7,0,1,0.7,0,0.7,0,1","1,0.7,0,1,0.7,0,0.7,0,1","1",""
"","html-keyboard-response","56","50254","0.0-79.0","3AZHRG4CU567VJG8H2M1RQNI58S03W","A2ZSL0EDN3H4AT","32XN26MTXZ5MP383W6LZYTLBY7P0LI","","null","<img src=""img/food2.png"" style=""width:200px;border:14px solid red;"">","null","","","","","","","","","",""
"","image-keyboard-response","57","50307","0.0-81.0","3AZHRG4CU567VJG8H2M1RQNI58S03W","A2ZSL0EDN3H4AT","32XN26MTXZ5MP383W6LZYTLBY7P0LI","","50.700000000186265","img/food6.png","75","52.200000000186265","2","1","false","2","2","1,0.7,0,1,0.7,0,0.7,0,1","1,0.7,0,1,0.7,0,0.7,0,1","1",""
"","html-keyboard-response","58","50614","0.0-82.0","3AZHRG4CU567VJG8H2M1RQNI58S03W","A2ZSL0EDN3H4AT","32XN26MTXZ5MP383W6LZYTLBY7P0LI","","null","<img src=""img/food6.png"" style=""width:200px; border:14px solid green;"">","null","","","","","","","","","",""
"","image-keyboard-response","59","50645","0.0-84.0","3AZHRG4CU567VJG8H2M1RQNI58S03W","A2ZSL0EDN3H4AT","32XN26MTXZ5MP383W6LZYTLBY7P0LI","","29.399999999906868","img/food6.png","75","30.300000000279397","2","0","false","2","2","1,0.7,0,1,0.7,0,0.7,0,1","1,0.7,0,1,0.7,0,0.7,0,1","1",""
"","html-keyboard-response","60","50958","0.0-85.0","3AZHRG4CU567VJG8H2M1RQNI58S03W","A2ZSL0EDN3H4AT","32XN26MTXZ5MP383W6LZYTLBY7P0LI","","null","<img src=""img/food6.png"" style=""width:200px;border:14px solid red;"">","null","","","","","","","","","",""
"","image-keyboard-response","61","50986","0.0-87.0","3AZHRG4CU567VJG8H2M1RQNI58S03W","A2ZSL0EDN3H4AT","32XN26MTXZ5MP383W6LZYTLBY7P0LI","","26.399999999906868","img/food6.png","75","27.199999999720603","2","1","false","2","2","1,0.7,0,1,0.7,0,0.7,0,1","1,0.7,0,1,0.7,0,0.7,0,1","1",""
"","html-keyboard-response","62","51291","0.0-88.0","3AZHRG4CU567VJG8H2M1RQNI58S03W","A2ZSL0EDN3H4AT","32XN26MTXZ5MP383W6LZYTLBY7P0LI","","null","<img src=""img/food6.png"" style=""width:200px; border:14px solid green;"">","null","","","","","","","","","",""
"","image-keyboard-response","63","51344","0.0-90.0","3AZHRG4CU567VJG8H2M1RQNI58S03W","A2ZSL0EDN3H4AT","32XN26MTXZ5MP383W6LZYTLBY7P0LI","","51.5","img/food3.png","74","53.10000000009313","1","1","false","3","2","1,0.7,0,1,0.7,0,0.7,0,1","1,0.7,0,1,0.7,0,0.7,0,1","1",""
"","html-keyboard-response","64","51650","0.0-91.0","3AZHRG4CU567VJG8H2M1RQNI58S03W","A2ZSL0EDN3H4AT","32XN26MTXZ5MP383W6LZYTLBY7P0LI","","null","<img src=""img/food3.png"" style=""width:200px; border:14px solid green;"">","null","","","","","","","","","",""
"","image-keyboard-response","65","51651","0.0-93.0","3AZHRG4CU567VJG8H2M1RQNI58S03W","A2ZSL0EDN3H4AT","32XN26MTXZ5MP383W6LZYTLBY7P0LI","","0.5","img/food2.png","76","0.8999999999068677","3","0","false","1","2","1,0.7,0,1,0.7,0,0.7,0,1","1,0.7,0,1,0.7,0,0.7,0,1","1",""
"","html-keyboard-response","66","51955","0.0-94.0","3AZHRG4CU567VJG8H2M1RQNI58S03W","A2ZSL0EDN3H4AT","32XN26MTXZ5MP383W6LZYTLBY7P0LI","","null","<img src=""img/food2.png"" style=""width:200px;border:14px solid red;"">","null","","","","","","","","","",""
"","image-keyboard-response","67","51983","0.0-96.0","3AZHRG4CU567VJG8H2M1RQNI58S03W","A2ZSL0EDN3H4AT","32XN26MTXZ5MP383W6LZYTLBY7P0LI","","27.699999999720603","img/food2.png","76","28","3","0","false","1","2","1,0.7,0,1,0.7,0,0.7,0,1","1,0.7,0,1,0.7,0,0.7,0,1","1",""
"","html-keyboard-response","68","52294","0.0-97.0","3AZHRG4CU567VJG8H2M1RQNI58S03W","A2ZSL0EDN3H4AT","32XN26MTXZ5MP383W6LZYTLBY7P0LI","","null","<img src=""img/food2.png"" style=""width:200px;border:14px solid red;"">","null","","","","","","","","","",""
"","image-keyboard-response","69","52311","0.0-99.0","3AZHRG4CU567VJG8H2M1RQNI58S03W","A2ZSL0EDN3H4AT","32XN26MTXZ5MP383W6LZYTLBY7P0LI","","16.699999999720603","img/food3.png","75","17.200000000186265","2","0","false","3","2","1,0.7,0,1,0.7,0,0.7,0,1","1,0.7,0,1,0.7,0,0.7,0,1","1",""
"","html-keyboard-response","70","52622","0.0-100.0","3AZHRG4CU567VJG8H2M1RQNI58S03W","A2ZSL0EDN3H4AT","32XN26MTXZ5MP383W6LZYTLBY7P0LI","","null","<img src=""img/food3.png"" style=""width:200px;border:14px solid red;"">","null","","","","","","","","","",""
"","image-keyboard-response","71","52657","0.0-102.0","3AZHRG4CU567VJG8H2M1RQNI58S03W","A2ZSL0EDN3H4AT","32XN26MTXZ5MP383W6LZYTLBY7P0LI","","34.3000000002794","img/food2.png","75","34.6999999997206","2","1","false","1","2","1,0.7,0,1,0.7,0,0.7,0,1","1,0.7,0,1,0.7,0,0.7,0,1","1",""
"","html-keyboard-response","72","52963","0.0-103.0","3AZHRG4CU567VJG8H2M1RQNI58S03W","A2ZSL0EDN3H4AT","32XN26MTXZ5MP383W6LZYTLBY7P0LI","","null","<img src=""img/food2.png"" style=""width:200px; border:14px solid green;"">","null","","","","","","","","","",""
"","image-keyboard-response","73","53003","0.0-105.0","3AZHRG4CU567VJG8H2M1RQNI58S03W","A2ZSL0EDN3H4AT","32XN26MTXZ5MP383W6LZYTLBY7P0LI","","38.700000000186265","img/food2.png","75","39.10000000009313","2","1","false","1","2","1,0.7,0,1,0.7,0,0.7,0,1","1,0.7,0,1,0.7,0,0.7,0,1","1",""
"","html-keyboard-response","74","53311","0.0-106.0","3AZHRG4CU567VJG8H2M1RQNI58S03W","A2ZSL0EDN3H4AT","32XN26MTXZ5MP383W6LZYTLBY7P0LI","","null","<img src=""img/food2.png"" style=""width:200px; border:14px solid green;"">","null","","","","","","","","","",""
"","image-keyboard-response","75","53342","0.0-108.0","3AZHRG4CU567VJG8H2M1RQNI58S03W","A2ZSL0EDN3H4AT","32XN26MTXZ5MP383W6LZYTLBY7P0LI","","30.90000000037253","img/food3.png","75","31.399999999906868","2","0","false","3","2","1,0.7,0,1,0.7,0,0.7,0,1","1,0.7,0,1,0.7,0,0.7,0,1","1",""
"","html-keyboard-response","76","53652","0.0-109.0","3AZHRG4CU567VJG8H2M1RQNI58S03W","A2ZSL0EDN3H4AT","32XN26MTXZ5MP383W6LZYTLBY7P0LI","","null","<img src=""img/food3.png"" style=""width:200px;border:14px solid red;"">","null","","","","","","","","","",""
"","image-keyboard-response","77","53659","0.0-111.0","3AZHRG4CU567VJG8H2M1RQNI58S03W","A2ZSL0EDN3H4AT","32XN26MTXZ5MP383W6LZYTLBY7P0LI","","6.300000000279397","img/food2.png","75","6.7999999998137355","2","0","false","1","2","1,0.7,0,1,0.7,0,0.7,0,1","1,0.7,0,1,0.7,0,0.7,0,1","1",""
"","html-keyboard-response","78","53962","0.0-112.0","3AZHRG4CU567VJG8H2M1RQNI58S03W","A2ZSL0EDN3H4AT","32XN26MTXZ5MP383W6LZYTLBY7P0LI","","null","<img src=""img/food2.png"" style=""width:200px;border:14px solid red;"">","null","","","","","","","","","",""
"","image-keyboard-response","79","53976","0.0-114.0","3AZHRG4CU567VJG8H2M1RQNI58S03W","A2ZSL0EDN3H4AT","32XN26MTXZ5MP383W6LZYTLBY7P0LI","","13.399999999906868","img/food3.png","75","13.700000000186265","2","0","false","3","2","1,0.7,0,1,0.7,0,0.7,0,1","1,0.7,0,1,0.7,0,0.7,0,1","1",""
"","html-keyboard-response","80","54282","0.0-115.0","3AZHRG4CU567VJG8H2M1RQNI58S03W","A2ZSL0EDN3H4AT","32XN26MTXZ5MP383W6LZYTLBY7P0LI","","null","<img src=""img/food3.png"" style=""width:200px;border:14px solid red;"">","null","","","","","","","","","",""
"","image-keyboard-response","81","54400","0.0-117.0","3AZHRG4CU567VJG8H2M1RQNI58S03W","A2ZSL0EDN3H4AT","32XN26MTXZ5MP383W6LZYTLBY7P0LI","","117.60000000009313","img/food6.png","76","117.79999999981374","3","0","false","2","2","1,0.7,0,1,0.7,0,0.7,0,1","1,0.7,0,1,0.7,0,0.7,0,1","1",""
"","html-keyboard-response","82","54709","0.0-118.0","3AZHRG4CU567VJG8H2M1RQNI58S03W","A2ZSL0EDN3H4AT","32XN26MTXZ5MP383W6LZYTLBY7P0LI","","null","<img src=""img/food6.png"" style=""width:200px;border:14px solid red;"">","null","","","","","","","","","",""
"","image-keyboard-response","83","54725","0.0-120.0","3AZHRG4CU567VJG8H2M1RQNI58S03W","A2ZSL0EDN3H4AT","32XN26MTXZ5MP383W6LZYTLBY7P0LI","","15.099999999627471","img/food6.png","74","15.5","1","1","false","2","2","1,0.7,0,1,0.7,0,0.7,0,1","1,0.7,0,1,0.7,0,0.7,0,1","1",""
"","html-keyboard-response","84","55030","0.0-121.0","3AZHRG4CU567VJG8H2M1RQNI58S03W","A2ZSL0EDN3H4AT","32XN26MTXZ5MP383W6LZYTLBY7P0LI","","null","<img src=""img/food6.png"" style=""width:200px; border:14px solid green;"">","null","","","","","","","","","",""
"","image-keyboard-response","85","55139","0.0-123.0","3AZHRG4CU567VJG8H2M1RQNI58S03W","A2ZSL0EDN3H4AT","32XN26MTXZ5MP383W6LZYTLBY7P0LI","","109","img/food6.png","75","109.5","2","1","false","2","2","1,0.7,0,1,0.7,0,0.7,0,1","1,0.7,0,1,0.7,0,0.7,0,1","1",""
"","html-keyboard-response","86","55445","0.0-124.0","3AZHRG4CU567VJG8H2M1RQNI58S03W","A2ZSL0EDN3H4AT","32XN26MTXZ5MP383W6LZYTLBY7P0LI","","null","<img src=""img/food6.png"" style=""width:200px; border:14px solid green;"">","null","","","","","","","","","",""
"","image-keyboard-response","87","55480","0.0-126.0","3AZHRG4CU567VJG8H2M1RQNI58S03W","A2ZSL0EDN3H4AT","32XN26MTXZ5MP383W6LZYTLBY7P0LI","","35","img/food2.png","75","35.5","2","1","false","1","2","1,0.7,0,1,0.7,0,0.7,0,1","1,0.7,0,1,0.7,0,0.7,0,1","1",""
"","html-keyboard-response","88","55790","0.0-127.0","3AZHRG4CU567VJG8H2M1RQNI58S03W","A2ZSL0EDN3H4AT","32XN26MTXZ5MP383W6LZYTLBY7P0LI","","null","<img src=""img/food2.png"" style=""width:200px; border:14px solid green;"">","null","","","","","","","","","",""
"","image-keyboard-response","89","55841","0.0-129.0","3AZHRG4CU567VJG8H2M1RQNI58S03W","A2ZSL0EDN3H4AT","32XN26MTXZ5MP383W6LZYTLBY7P0LI","","50","img/food3.png","76","50.89999999990687","3","1","false","3","2","1,0.7,0,1,0.7,0,0.7,0,1","1,0.7,0,1,0.7,0,0.7,0,1","1",""
"","html-keyboard-response","90","56149","0.0-130.0","3AZHRG4CU567VJG8H2M1RQNI58S03W","A2ZSL0EDN3H4AT","32XN26MTXZ5MP383W6LZYTLBY7P0LI","","null","<img src=""img/food3.png"" style=""width:200px; border:14px solid green;"">","null","","","","","","","","","",""
"","image-keyboard-response","91","56234","0.0-132.0","3AZHRG4CU567VJG8H2M1RQNI58S03W","A2ZSL0EDN3H4AT","32XN26MTXZ5MP383W6LZYTLBY7P0LI","","83.39999999990687","img/food6.png","76","84","3","0","false","2","2","1,0.7,0,1,0.7,0,0.7,0,1","1,0.7,0,1,0.7,0,0.7,0,1","1",""
"","html-keyboard-response","92","56537","0.0-133.0","3AZHRG4CU567VJG8H2M1RQNI58S03W","A2ZSL0EDN3H4AT","32XN26MTXZ5MP383W6LZYTLBY7P0LI","","null","<img src=""img/food6.png"" style=""width:200px;border:14px solid red;"">","null","","","","","","","","","",""
"","image-keyboard-response","93","56631","0.0-135.0","3AZHRG4CU567VJG8H2M1RQNI58S03W","A2ZSL0EDN3H4AT","32XN26MTXZ5MP383W6LZYTLBY7P0LI","","92.79999999981374","img/food2.png","75","93.29999999981374","2","0","false","1","2","1,0.7,0,1,0.7,0,0.7,0,1","1,0.7,0,1,0.7,0,0.7,0,1","1",""
"","html-keyboard-response","94","56943","0.0-136.0","3AZHRG4CU567VJG8H2M1RQNI58S03W","A2ZSL0EDN3H4AT","32XN26MTXZ5MP383W6LZYTLBY7P0LI","","null","<img src=""img/food2.png"" style=""width:200px;border:14px solid red;"">","null","","","","","","","","","",""
"","image-keyboard-response","95","56979","0.0-138.0","3AZHRG4CU567VJG8H2M1RQNI58S03W","A2ZSL0EDN3H4AT","32XN26MTXZ5MP383W6LZYTLBY7P0LI","","35.6999999997206","img/food2.png","75","36.10000000009313","2","1","false","1","2","1,0.7,0,1,0.7,0,0.7,0,1","1,0.7,0,1,0.7,0,0.7,0,1","1",""
"","html-keyboard-response","96","57285","0.0-139.0","3AZHRG4CU567VJG8H2M1RQNI58S03W","A2ZSL0EDN3H4AT","32XN26MTXZ5MP383W6LZYTLBY7P0LI","","null","<img src=""img/food2.png"" style=""width:200px; border:14px solid green;"">","null","","","","","","","","","",""
"","image-keyboard-response","97","57333","0.0-141.0","3AZHRG4CU567VJG8H2M1RQNI58S03W","A2ZSL0EDN3H4AT","32XN26MTXZ5MP383W6LZYTLBY7P0LI","","48.3000000002794","img/food2.png","75","48.6999999997206","2","1","false","1","2","1,0.7,0,1,0.7,0,0.7,0,1","1,0.7,0,1,0.7,0,0.7,0,1","1",""
"","html-keyboard-response","98","57642","0.0-142.0","3AZHRG4CU567VJG8H2M1RQNI58S03W","A2ZSL0EDN3H4AT","32XN26MTXZ5MP383W6LZYTLBY7P0LI","","null","<img src=""img/food2.png"" style=""width:200px; border:14px solid green;"">","null","","","","","","","","","",""
"","image-keyboard-response","99","57681","0.0-144.0","3AZHRG4CU567VJG8H2M1RQNI58S03W","A2ZSL0EDN3H4AT","32XN26MTXZ5MP383W6LZYTLBY7P0LI","","38.39999999990687","img/food3.png","75","38.8000000002794","2","0","false","3","2","1,0.7,0,1,0.7,0,0.7,0,1","1,0.7,0,1,0.7,0,0.7,0,1","1",""
"","html-keyboard-response","100","57989","0.0-145.0","3AZHRG4CU567VJG8H2M1RQNI58S03W","A2ZSL0EDN3H4AT","32XN26MTXZ5MP383W6LZYTLBY7P0LI","","null","<img src=""img/food3.png"" style=""width:200px;border:14px solid red;"">","null","","","","","","","","","",""
"","image-keyboard-response","101","58039","0.0-147.0","3AZHRG4CU567VJG8H2M1RQNI58S03W","A2ZSL0EDN3H4AT","32XN26MTXZ5MP383W6LZYTLBY7P0LI","","47.89999999990687","img/food3.png","75","48.5","2","0","false","3","2","1,0.7,0,1,0.7,0,0.7,0,1","1,0.7,0,1,0.7,0,0.7,0,1","1",""
"","html-keyboard-response","102","58350","0.0-148.0","3AZHRG4CU567VJG8H2M1RQNI58S03W","A2ZSL0EDN3H4AT","32XN26MTXZ5MP383W6LZYTLBY7P0LI","","null","<img src=""img/food3.png"" style=""width:200px;border:14px solid red;"">","null","","","","","","","","","",""
"","image-keyboard-response","103","58420","0.0-150.0","3AZHRG4CU567VJG8H2M1RQNI58S03W","A2ZSL0EDN3H4AT","32XN26MTXZ5MP383W6LZYTLBY7P0LI","","69.60000000009313","img/food2.png","76","70","3","0","false","1","2","1,0.7,0,1,0.7,0,0.7,0,1","1,0.7,0,1,0.7,0,0.7,0,1","1",""
"","html-keyboard-response","104","58726","0.0-151.0","3AZHRG4CU567VJG8H2M1RQNI58S03W","A2ZSL0EDN3H4AT","32XN26MTXZ5MP383W6LZYTLBY7P0LI","","null","<img src=""img/food2.png"" style=""width:200px;border:14px solid red;"">","null","","","","","","","","","",""
"","image-keyboard-response","105","58777","0.0-153.0","3AZHRG4CU567VJG8H2M1RQNI58S03W","A2ZSL0EDN3H4AT","32XN26MTXZ5MP383W6LZYTLBY7P0LI","","51","img/food6.png","75","51.39999999990687","2","1","false","2","2","1,0.7,0,1,0.7,0,0.7,0,1","1,0.7,0,1,0.7,0,0.7,0,1","1",""
"","html-keyboard-response","106","59086","0.0-154.0","3AZHRG4CU567VJG8H2M1RQNI58S03W","A2ZSL0EDN3H4AT","32XN26MTXZ5MP383W6LZYTLBY7P0LI","","null","<img src=""img/food6.png"" style=""width:200px; border:14px solid green;"">","null","","","","","","","","","",""
"","image-keyboard-response","107","59137","0.0-156.0","3AZHRG4CU567VJG8H2M1RQNI58S03W","A2ZSL0EDN3H4AT","32XN26MTXZ5MP383W6LZYTLBY7P0LI","","50.700000000186265","img/food2.png","75","51.200000000186265","2","1","false","1","2","1,0.7,0,1,0.7,0,0.7,0,1","1,0.7,0,1,0.7,0,0.7,0,1","1",""
"","html-keyboard-response","108","59443","0.0-157.0","3AZHRG4CU567VJG8H2M1RQNI58S03W","A2ZSL0EDN3H4AT","32XN26MTXZ5MP383W6LZYTLBY7P0LI","","null","<img src=""img/food2.png"" style=""width:200px; border:14px solid green;"">","null","","","","","","","","","",""
"","image-keyboard-response","109","59510","0.0-159.0","3AZHRG4CU567VJG8H2M1RQNI58S03W","A2ZSL0EDN3H4AT","32XN26MTXZ5MP383W6LZYTLBY7P0LI","","65.8000000002794","img/food3.png","74","66.09999999962747","1","0","false","3","2","1,0.7,0,1,0.7,0,0.7,0,1","1,0.7,0,1,0.7,0,0.7,0,1","1",""
"","html-keyboard-response","110","59822","0.0-160.0","3AZHRG4CU567VJG8H2M1RQNI58S03W","A2ZSL0EDN3H4AT","32XN26MTXZ5MP383W6LZYTLBY7P0LI","","null","<img src=""img/food3.png"" style=""width:200px;border:14px solid red;"">","null","","","","","","","","","",""
"","image-keyboard-response","111","59890","0.0-162.0","3AZHRG4CU567VJG8H2M1RQNI58S03W","A2ZSL0EDN3H4AT","32XN26MTXZ5MP383W6LZYTLBY7P0LI","","67.1999999997206","img/food3.png","75","67.89999999990687","2","0","false","3","2","1,0.7,0,1,0.7,0,0.7,0,1","1,0.7,0,1,0.7,0,0.7,0,1","1",""
"","html-keyboard-response","112","60197","0.0-163.0","3AZHRG4CU567VJG8H2M1RQNI58S03W","A2ZSL0EDN3H4AT","32XN26MTXZ5MP383W6LZYTLBY7P0LI","","null","<img src=""img/food3.png"" style=""width:200px;border:14px solid red;"">","null","","","","","","","","","",""
"","image-keyboard-response","113","60263","0.0-165.0","3AZHRG4CU567VJG8H2M1RQNI58S03W","A2ZSL0EDN3H4AT","32XN26MTXZ5MP383W6LZYTLBY7P0LI","","64.5","img/food3.png","74","65.8000000002794","1","1","false","3","2","1,0.7,0,1,0.7,0,0.7,0,1","1,0.7,0,1,0.7,0,0.7,0,1","1",""
"","html-keyboard-response","114","60567","0.0-166.0","3AZHRG4CU567VJG8H2M1RQNI58S03W","A2ZSL0EDN3H4AT","32XN26MTXZ5MP383W6LZYTLBY7P0LI","","null","<img src=""img/food3.png"" style=""width:200px; border:14px solid green;"">","null","","","","","","","","","",""
"","image-keyboard-response","115","60668","0.0-168.0","3AZHRG4CU567VJG8H2M1RQNI58S03W","A2ZSL0EDN3H4AT","32XN26MTXZ5MP383W6LZYTLBY7P0LI","","100.89999999990687","img/food6.png","76","101.3000000002794","3","0","false","2","2","1,0.7,0,1,0.7,0,0.7,0,1","1,0.7,0,1,0.7,0,0.7,0,1","1",""
"","html-keyboard-response","116","60969","0.0-169.0","3AZHRG4CU567VJG8H2M1RQNI58S03W","A2ZSL0EDN3H4AT","32XN26MTXZ5MP383W6LZYTLBY7P0LI","","null","<img src=""img/food6.png"" style=""width:200px;border:14px solid red;"">","null","","","","","","","","","",""
"","image-keyboard-response","117","60983","0.0-171.0","3AZHRG4CU567VJG8H2M1RQNI58S03W","A2ZSL0EDN3H4AT","32XN26MTXZ5MP383W6LZYTLBY7P0LI","","12.799999999813735","img/food2.png","74","13.300000000279397","1","1","false","1","2","1,0.7,0,1,0.7,0,0.7,0,1","1,0.7,0,1,0.7,0,0.7,0,1","1",""
"","html-keyboard-response","118","61288","0.0-172.0","3AZHRG4CU567VJG8H2M1RQNI58S03W","A2ZSL0EDN3H4AT","32XN26MTXZ5MP383W6LZYTLBY7P0LI","","null","<img src=""img/food2.png"" style=""width:200px; border:14px solid green;"">","null","","","","","","","","","",""
"","image-keyboard-response","119","61379","0.0-174.0","3AZHRG4CU567VJG8H2M1RQNI58S03W","A2ZSL0EDN3H4AT","32XN26MTXZ5MP383W6LZYTLBY7P0LI","","90.09999999962747","img/food6.png","75","90.39999999990687","2","1","false","2","2","1,0.7,0,1,0.7,0,0.7,0,1","1,0.7,0,1,0.7,0,0.7,0,1","1",""
"","html-keyboard-response","120","61682","0.0-175.0","3AZHRG4CU567VJG8H2M1RQNI58S03W","A2ZSL0EDN3H4AT","32XN26MTXZ5MP383W6LZYTLBY7P0LI","","null","<img src=""img/food6.png"" style=""width:200px; border:14px solid green;"">","null","","","","","","","","","",""
"","image-keyboard-response","121","61755","0.0-177.0","3AZHRG4CU567VJG8H2M1RQNI58S03W","A2ZSL0EDN3H4AT","32XN26MTXZ5MP383W6LZYTLBY7P0LI","","73.20000000018626","img/food6.png","75","73.5","2","0","false","2","2","1,0.7,0,1,0.7,0,0.7,0,1","1,0.7,0,1,0.7,0,0.7,0,1","1",""
"","html-keyboard-response","122","62061","0.0-178.0","3AZHRG4CU567VJG8H2M1RQNI58S03W","A2ZSL0EDN3H4AT","32XN26MTXZ5MP383W6LZYTLBY7P0LI","","null","<img src=""img/food6.png"" style=""width:200px;border:14px solid red;"">","null","","","","","","","","","",""
"","image-keyboard-response","123","62121","0.0-180.0","3AZHRG4CU567VJG8H2M1RQNI58S03W","A2ZSL0EDN3H4AT","32XN26MTXZ5MP383W6LZYTLBY7P0LI","","59.39999999990687","img/food6.png","75","60.1999999997206","2","1","false","2","2","1,0.7,0,1,0.7,0,0.7,0,1","1,0.7,0,1,0.7,0,0.7,0,1","1",""
"","html-keyboard-response","124","62429","0.0-181.0","3AZHRG4CU567VJG8H2M1RQNI58S03W","A2ZSL0EDN3H4AT","32XN26MTXZ5MP383W6LZYTLBY7P0LI","","null","<img src=""img/food6.png"" style=""width:200px; border:14px solid green;"">","null","","","","","","","","","",""
"","image-keyboard-response","125","62467","0.0-183.0","3AZHRG4CU567VJG8H2M1RQNI58S03W","A2ZSL0EDN3H4AT","32XN26MTXZ5MP383W6LZYTLBY7P0LI","","38","img/food6.png","74","38.3000000002794","1","1","false","2","2","1,0.7,0,1,0.7,0,0.7,0,1","1,0.7,0,1,0.7,0,0.7,0,1","1",""
"","html-keyboard-response","126","62772","0.0-184.0","3AZHRG4CU567VJG8H2M1RQNI58S03W","A2ZSL0EDN3H4AT","32XN26MTXZ5MP383W6LZYTLBY7P0LI","","null","<img src=""img/food6.png"" style=""width:200px; border:14px solid green;"">","null","","","","","","","","","",""
"","image-keyboard-response","127","62861","0.0-186.0","3AZHRG4CU567VJG8H2M1RQNI58S03W","A2ZSL0EDN3H4AT","32XN26MTXZ5MP383W6LZYTLBY7P0LI","","88.10000000009313","img/food3.png","75","88.60000000009313","2","0","false","3","2","1,0.7,0,1,0.7,0,0.7,0,1","1,0.7,0,1,0.7,0,0.7,0,1","1",""
"","html-keyboard-response","128","63172","0.0-187.0","3AZHRG4CU567VJG8H2M1RQNI58S03W","A2ZSL0EDN3H4AT","32XN26MTXZ5MP383W6LZYTLBY7P0LI","","null","<img src=""img/food3.png"" style=""width:200px;border:14px solid red;"">","null","","","","","","","","","",""
"","image-keyboard-response","129","63240","0.0-189.0","3AZHRG4CU567VJG8H2M1RQNI58S03W","A2ZSL0EDN3H4AT","32XN26MTXZ5MP383W6LZYTLBY7P0LI","","67","img/food3.png","75","67.39999999990687","2","0","false","3","2","1,0.7,0,1,0.7,0,0.7,0,1","1,0.7,0,1,0.7,0,0.7,0,1","1",""
"","html-keyboard-response","130","63551","0.0-190.0","3AZHRG4CU567VJG8H2M1RQNI58S03W","A2ZSL0EDN3H4AT","32XN26MTXZ5MP383W6LZYTLBY7P0LI","","null","<img src=""img/food3.png"" style=""width:200px;border:14px solid red;"">","null","","","","","","","","","",""
"","image-keyboard-response","131","63576","0.0-192.0","3AZHRG4CU567VJG8H2M1RQNI58S03W","A2ZSL0EDN3H4AT","32XN26MTXZ5MP383W6LZYTLBY7P0LI","","25.200000000186265","img/food2.png","74","25.799999999813735","1","1","false","1","2","1,0.7,0,1,0.7,0,0.7,0,1","1,0.7,0,1,0.7,0,0.7,0,1","1",""
"","html-keyboard-response","132","63884","0.0-193.0","3AZHRG4CU567VJG8H2M1RQNI58S03W","A2ZSL0EDN3H4AT","32XN26MTXZ5MP383W6LZYTLBY7P0LI","","null","<img src=""img/food2.png"" style=""width:200px; border:14px solid green;"">","null","","","","","","","","","",""
"","image-keyboard-response","133","64014","0.0-195.0","3AZHRG4CU567VJG8H2M1RQNI58S03W","A2ZSL0EDN3H4AT","32XN26MTXZ5MP383W6LZYTLBY7P0LI","","129","img/food2.png","75","129.40000000037253","2","1","false","1","2","1,0.7,0,1,0.7,0,0.7,0,1","1,0.7,0,1,0.7,0,0.7,0,1","1",""
"","html-keyboard-response","134","64316","0.0-196.0","3AZHRG4CU567VJG8H2M1RQNI58S03W","A2ZSL0EDN3H4AT","32XN26MTXZ5MP383W6LZYTLBY7P0LI","","null","<img src=""img/food2.png"" style=""width:200px; border:14px solid green;"">","null","","","","","","","","","",""
"","image-keyboard-response","135","64373","0.0-198.0","3AZHRG4CU567VJG8H2M1RQNI58S03W","A2ZSL0EDN3H4AT","32XN26MTXZ5MP383W6LZYTLBY7P0LI","","55.799999999813735","img/food6.png","75","56.200000000186265","2","0","false","2","2","1,0.7,0,1,0.7,0,0.7,0,1","1,0.7,0,1,0.7,0,0.7,0,1","1",""
"","html-keyboard-response","136","64682","0.0-199.0","3AZHRG4CU567VJG8H2M1RQNI58S03W","A2ZSL0EDN3H4AT","32XN26MTXZ5MP383W6LZYTLBY7P0LI","","null","<img src=""img/food6.png"" style=""width:200px;border:14px solid red;"">","null","","","","","","","","","",""
"","image-keyboard-response","137","64745","0.0-201.0","3AZHRG4CU567VJG8H2M1RQNI58S03W","A2ZSL0EDN3H4AT","32XN26MTXZ5MP383W6LZYTLBY7P0LI","","61.89999999990687","img/food2.png","74","62.200000000186265","1","1","false","1","2","1,0.7,0,1,0.7,0,0.7,0,1","1,0.7,0,1,0.7,0,0.7,0,1","1",""
"","html-keyboard-response","138","65049","0.0-202.0","3AZHRG4CU567VJG8H2M1RQNI58S03W","A2ZSL0EDN3H4AT","32XN26MTXZ5MP383W6LZYTLBY7P0LI","","null","<img src=""img/food2.png"" style=""width:200px; border:14px solid green;"">","null","","","","","","","","","",""
"","image-keyboard-response","139","65174","0.0-204.0","3AZHRG4CU567VJG8H2M1RQNI58S03W","A2ZSL0EDN3H4AT","32XN26MTXZ5MP383W6LZYTLBY7P0LI","","124.60000000009313","img/food3.png","76","125.09999999962747","3","1","false","3","2","1,0.7,0,1,0.7,0,0.7,0,1","1,0.7,0,1,0.7,0,0.7,0,1","1",""
"","html-keyboard-response","140","65482","0.0-205.0","3AZHRG4CU567VJG8H2M1RQNI58S03W","A2ZSL0EDN3H4AT","32XN26MTXZ5MP383W6LZYTLBY7P0LI","","null","<img src=""img/food3.png"" style=""width:200px; border:14px solid green;"">","null","","","","","","","","","",""
"","image-keyboard-response","141","65537","0.0-207.0","3AZHRG4CU567VJG8H2M1RQNI58S03W","A2ZSL0EDN3H4AT","32XN26MTXZ5MP383W6LZYTLBY7P0LI","","54.8000000002794","img/food6.png","76","55.200000000186265","3","0","false","2","2","1,0.7,0,1,0.7,0,0.7,0,1","1,0.7,0,1,0.7,0,0.7,0,1","1",""
"","html-keyboard-response","142","65846","0.0-208.0","3AZHRG4CU567VJG8H2M1RQNI58S03W","A2ZSL0EDN3H4AT","32XN26MTXZ5MP383W6LZYTLBY7P0LI","","null","<img src=""img/food6.png"" style=""width:200px;border:14px solid red;"">","null","","","","","","","","","",""
"","image-keyboard-response","143","65906","0.0-210.0","3AZHRG4CU567VJG8H2M1RQNI58S03W","A2ZSL0EDN3H4AT","32XN26MTXZ5MP383W6LZYTLBY7P0LI","","58.89999999990687","img/food6.png","76","59.200000000186265","3","0","false","2","2","1,0.7,0,1,0.7,0,0.7,0,1","1,0.7,0,1,0.7,0,0.7,0,1","1",""
"","html-keyboard-response","144","66212","0.0-211.0","3AZHRG4CU567VJG8H2M1RQNI58S03W","A2ZSL0EDN3H4AT","32XN26MTXZ5MP383W6LZYTLBY7P0LI","","null","<img src=""img/food6.png"" style=""width:200px;border:14px solid red;"">","null","","","","","","","","","",""
"","image-keyboard-response","145","66285","0.0-213.0","3AZHRG4CU567VJG8H2M1RQNI58S03W","A2ZSL0EDN3H4AT","32XN26MTXZ5MP383W6LZYTLBY7P0LI","","72.09999999962747","img/food6.png","76","72.39999999990687","3","0","false","2","2","1,0.7,0,1,0.7,0,0.7,0,1","1,0.7,0,1,0.7,0,0.7,0,1","1",""
"","html-keyboard-response","146","66590","0.0-214.0","3AZHRG4CU567VJG8H2M1RQNI58S03W","A2ZSL0EDN3H4AT","32XN26MTXZ5MP383W6LZYTLBY7P0LI","","null","<img src=""img/food6.png"" style=""width:200px;border:14px solid red;"">","null","","","","","","","","","",""
"","image-keyboard-response","147","66629","0.0-216.0","3AZHRG4CU567VJG8H2M1RQNI58S03W","A2ZSL0EDN3H4AT","32XN26MTXZ5MP383W6LZYTLBY7P0LI","","39.1999999997206","img/food3.png","74","39.60000000009313","1","0","false","3","2","1,0.7,0,1,0.7,0,0.7,0,1","1,0.7,0,1,0.7,0,0.7,0,1","1",""
"","html-keyboard-response","148","66937","0.0-217.0","3AZHRG4CU567VJG8H2M1RQNI58S03W","A2ZSL0EDN3H4AT","32XN26MTXZ5MP383W6LZYTLBY7P0LI","","null","<img src=""img/food3.png"" style=""width:200px;border:14px solid red;"">","null","","","","","","","","","",""
"","image-keyboard-response","149","67086","0.0-219.0","3AZHRG4CU567VJG8H2M1RQNI58S03W","A2ZSL0EDN3H4AT","32XN26MTXZ5MP383W6LZYTLBY7P0LI","","147.60000000009313","img/food2.png","75","148","2","1","false","1","2","1,0.7,0,1,0.7,0,0.7,0,1","1,0.7,0,1,0.7,0,0.7,0,1","1",""
"","html-keyboard-response","150","67398","0.0-220.0","3AZHRG4CU567VJG8H2M1RQNI58S03W","A2ZSL0EDN3H4AT","32XN26MTXZ5MP383W6LZYTLBY7P0LI","","null","<img src=""img/food2.png"" style=""width:200px; border:14px solid green;"">","null","","","","","","","","","",""
"","image-keyboard-response","151","67454","0.0-222.0","3AZHRG4CU567VJG8H2M1RQNI58S03W","A2ZSL0EDN3H4AT","32XN26MTXZ5MP383W6LZYTLBY7P0LI","","54.8000000002794","img/food3.png","74","55.5","1","1","false","3","2","1,0.7,0,1,0.7,0,0.7,0,1","1,0.7,0,1,0.7,0,0.7,0,1","1",""
"","html-keyboard-response","152","67765","0.0-223.0","3AZHRG4CU567VJG8H2M1RQNI58S03W","A2ZSL0EDN3H4AT","32XN26MTXZ5MP383W6LZYTLBY7P0LI","","null","<img src=""img/food3.png"" style=""width:200px; border:14px solid green;"">","null","","","","","","","","","",""
"","image-keyboard-response","153","67794","0.0-225.0","3AZHRG4CU567VJG8H2M1RQNI58S03W","A2ZSL0EDN3H4AT","32XN26MTXZ5MP383W6LZYTLBY7P0LI","","28.40000000037253","img/food6.png","74","28.5","1","1","false","2","2","1,0.7,0,1,0.7,0,0.7,0,1","1,0.7,0,1,0.7,0,0.7,0,1","1",""
"","html-keyboard-response","154","68102","0.0-226.0","3AZHRG4CU567VJG8H2M1RQNI58S03W","A2ZSL0EDN3H4AT","32XN26MTXZ5MP383W6LZYTLBY7P0LI","","null","<img src=""img/food6.png"" style=""width:200px; border:14px solid green;"">","null","","","","","","","","","",""
"","image-keyboard-response","155","68253","0.0-228.0","3AZHRG4CU567VJG8H2M1RQNI58S03W","A2ZSL0EDN3H4AT","32XN26MTXZ5MP383W6LZYTLBY7P0LI","","148.79999999981374","img/food2.png","75","150.8000000002794","2","1","false","1","2","1,0.7,0,1,0.7,0,0.7,0,1","1,0.7,0,1,0.7,0,0.7,0,1","1",""
"","html-keyboard-response","156","68563","0.0-229.0","3AZHRG4CU567VJG8H2M1RQNI58S03W","A2ZSL0EDN3H4AT","32XN26MTXZ5MP383W6LZYTLBY7P0LI","","null","<img src=""img/food2.png"" style=""width:200px; border:14px solid green;"">","null","","","","","","","","","",""
"","image-keyboard-response","157","68630","0.0-231.0","3AZHRG4CU567VJG8H2M1RQNI58S03W","A2ZSL0EDN3H4AT","32XN26MTXZ5MP383W6LZYTLBY7P0LI","","65.3000000002794","img/food6.png","75","66.60000000009313","2","1","false","2","2","1,0.7,0,1,0.7,0,0.7,0,1","1,0.7,0,1,0.7,0,0.7,0,1","1",""
"","html-keyboard-response","158","68942","0.0-232.0","3AZHRG4CU567VJG8H2M1RQNI58S03W","A2ZSL0EDN3H4AT","32XN26MTXZ5MP383W6LZYTLBY7P0LI","","null","<img src=""img/food6.png"" style=""width:200px; border:14px solid green;"">","null","","","","","","","","","",""
"","image-keyboard-response","159","68950","0.0-234.0","3AZHRG4CU567VJG8H2M1RQNI58S03W","A2ZSL0EDN3H4AT","32XN26MTXZ5MP383W6LZYTLBY7P0LI","","6.2000000001862645","img/food3.png","74","7.099999999627471","1","0","false","3","2","1,0.7,0,1,0.7,0,0.7,0,1","1,0.7,0,1,0.7,0,0.7,0,1","1",""
"","html-keyboard-response","160","69262","0.0-235.0","3AZHRG4CU567VJG8H2M1RQNI58S03W","A2ZSL0EDN3H4AT","32XN26MTXZ5MP383W6LZYTLBY7P0LI","","null","<img src=""img/food3.png"" style=""width:200px;border:14px solid red;"">","null","","","","","","","","","",""
"","image-keyboard-response","161","69344","0.0-237.0","3AZHRG4CU567VJG8H2M1RQNI58S03W","A2ZSL0EDN3H4AT","32XN26MTXZ5MP383W6LZYTLBY7P0LI","","81.60000000009313","img/food2.png","74","82.20000000018626","1","1","false","1","2","1,0.7,0,1,0.7,0,0.7,0,1","1,0.7,0,1,0.7,0,0.7,0,1","1",""
"","html-keyboard-response","162","69651","0.0-238.0","3AZHRG4CU567VJG8H2M1RQNI58S03W","A2ZSL0EDN3H4AT","32XN26MTXZ5MP383W6LZYTLBY7P0LI","","null","<img src=""img/food2.png"" style=""width:200px; border:14px solid green;"">","null","","","","","","","","","",""
"","image-keyboard-response","163","69735","0.0-240.0","3AZHRG4CU567VJG8H2M1RQNI58S03W","A2ZSL0EDN3H4AT","32XN26MTXZ5MP383W6LZYTLBY7P0LI","","83.60000000009313","img/food3.png","74","84.3000000002794","1","1","false","3","2","1,0.7,0,1,0.7,0,0.7,0,1","1,0.7,0,1,0.7,0,0.7,0,1","1",""
"","html-keyboard-response","164","70043","0.0-241.0","3AZHRG4CU567VJG8H2M1RQNI58S03W","A2ZSL0EDN3H4AT","32XN26MTXZ5MP383W6LZYTLBY7P0LI","","null","<img src=""img/food3.png"" style=""width:200px; border:14px solid green;"">","null","","","","","","","","","",""
"","image-keyboard-response","165","70133","0.0-243.0","3AZHRG4CU567VJG8H2M1RQNI58S03W","A2ZSL0EDN3H4AT","32XN26MTXZ5MP383W6LZYTLBY7P0LI","","89.79999999981374","img/food6.png","75","90.20000000018626","2","1","false","2","2","1,0.7,0,1,0.7,0,0.7,0,1","1,0.7,0,1,0.7,0,0.7,0,1","1",""
"","html-keyboard-response","166","70437","0.0-244.0","3AZHRG4CU567VJG8H2M1RQNI58S03W","A2ZSL0EDN3H4AT","32XN26MTXZ5MP383W6LZYTLBY7P0LI","","null","<img src=""img/food6.png"" style=""width:200px; border:14px solid green;"">","null","","","","","","","","","",""
"","image-keyboard-response","167","70519","0.0-246.0","3AZHRG4CU567VJG8H2M1RQNI58S03W","A2ZSL0EDN3H4AT","32XN26MTXZ5MP383W6LZYTLBY7P0LI","","81.39999999990687","img/food6.png","75","82","2","1","false","2","2","1,0.7,0,1,0.7,0,0.7,0,1","1,0.7,0,1,0.7,0,0.7,0,1","1",""
"","html-keyboard-response","168","70830","0.0-247.0","3AZHRG4CU567VJG8H2M1RQNI58S03W","A2ZSL0EDN3H4AT","32XN26MTXZ5MP383W6LZYTLBY7P0LI","","null","<img src=""img/food6.png"" style=""width:200px; border:14px solid green;"">","null","","","","","","","","","",""
"","image-keyboard-response","169","70895","0.0-249.0","3AZHRG4CU567VJG8H2M1RQNI58S03W","A2ZSL0EDN3H4AT","32XN26MTXZ5MP383W6LZYTLBY7P0LI","","65","img/food3.png","75","65.39999999990687","2","0","false","3","2","1,0.7,0,1,0.7,0,0.7,0,1","1,0.7,0,1,0.7,0,0.7,0,1","1",""
"","html-keyboard-response","170","71202","0.0-250.0","3AZHRG4CU567VJG8H2M1RQNI58S03W","A2ZSL0EDN3H4AT","32XN26MTXZ5MP383W6LZYTLBY7P0LI","","null","<img src=""img/food3.png"" style=""width:200px;border:14px solid red;"">","null","","","","","","","","","",""
"","image-keyboard-response","171","71284","0.0-252.0","3AZHRG4CU567VJG8H2M1RQNI58S03W","A2ZSL0EDN3H4AT","32XN26MTXZ5MP383W6LZYTLBY7P0LI","","81","img/food2.png","75","81.39999999990687","2","1","false","1","2","1,0.7,0,1,0.7,0,0.7,0,1","1,0.7,0,1,0.7,0,0.7,0,1","1",""
"","html-keyboard-response","172","71593","0.0-253.0","3AZHRG4CU567VJG8H2M1RQNI58S03W","A2ZSL0EDN3H4AT","32XN26MTXZ5MP383W6LZYTLBY7P0LI","","null","<img src=""img/food2.png"" style=""width:200px; border:14px solid green;"">","null","","","","","","","","","",""
"","image-keyboard-response","173","71659","0.0-255.0","3AZHRG4CU567VJG8H2M1RQNI58S03W","A2ZSL0EDN3H4AT","32XN26MTXZ5MP383W6LZYTLBY7P0LI","","65","img/food3.png","74","65.39999999990687","1","1","false","3","2","1,0.7,0,1,0.7,0,0.7,0,1","1,0.7,0,1,0.7,0,0.7,0,1","1",""
"","html-keyboard-response","174","71966","0.0-256.0","3AZHRG4CU567VJG8H2M1RQNI58S03W","A2ZSL0EDN3H4AT","32XN26MTXZ5MP383W6LZYTLBY7P0LI","","null","<img src=""img/food3.png"" style=""width:200px; border:14px solid green;"">","null","","","","","","","","","",""
"","image-keyboard-response","175","72052","0.0-258.0","3AZHRG4CU567VJG8H2M1RQNI58S03W","A2ZSL0EDN3H4AT","32XN26MTXZ5MP383W6LZYTLBY7P0LI","","85.90000000037253","img/food2.png","75","86.29999999981374","2","1","false","1","2","1,0.7,0,1,0.7,0,0.7,0,1","1,0.7,0,1,0.7,0,0.7,0,1","1",""
"","html-keyboard-response","176","72362","0.0-259.0","3AZHRG4CU567VJG8H2M1RQNI58S03W","A2ZSL0EDN3H4AT","32XN26MTXZ5MP383W6LZYTLBY7P0LI","","null","<img src=""img/food2.png"" style=""width:200px; border:14px solid green;"">","null","","","","","","","","","",""
"","image-keyboard-response","177","72402","0.0-261.0","3AZHRG4CU567VJG8H2M1RQNI58S03W","A2ZSL0EDN3H4AT","32XN26MTXZ5MP383W6LZYTLBY7P0LI","","39.60000000009313","img/food2.png","75","40.5","2","1","false","1","2","1,0.7,0,1,0.7,0,0.7,0,1","1,0.7,0,1,0.7,0,0.7,0,1","1",""
"","html-keyboard-response","178","72707","0.0-262.0","3AZHRG4CU567VJG8H2M1RQNI58S03W","A2ZSL0EDN3H4AT","32XN26MTXZ5MP383W6LZYTLBY7P0LI","","null","<img src=""img/food2.png"" style=""width:200px; border:14px solid green;"">","null","","","","","","","","","",""
"","image-keyboard-response","179","72768","0.0-264.0","3AZHRG4CU567VJG8H2M1RQNI58S03W","A2ZSL0EDN3H4AT","32XN26MTXZ5MP383W6LZYTLBY7P0LI","","61.10000000009313","img/food2.png","75","61.5","2","1","false","1","2","1,0.7,0,1,0.7,0,0.7,0,1","1,0.7,0,1,0.7,0,0.7,0,1","1",""
"","html-keyboard-response","180","73078","0.0-265.0","3AZHRG4CU567VJG8H2M1RQNI58S03W","A2ZSL0EDN3H4AT","32XN26MTXZ5MP383W6LZYTLBY7P0LI","","null","<img src=""img/food2.png"" style=""width:200px; border:14px solid green;"">","null","","","","","","","","","",""
"","image-keyboard-response","181","73142","0.0-267.0","3AZHRG4CU567VJG8H2M1RQNI58S03W","A2ZSL0EDN3H4AT","32XN26MTXZ5MP383W6LZYTLBY7P0LI","","63.799999999813735","img/food3.png","75","64.10000000009313","2","0","false","3","2","1,0.7,0,1,0.7,0,0.7,0,1","1,0.7,0,1,0.7,0,0.7,0,1","1",""
"","html-keyboard-response","182","73453","0.0-268.0","3AZHRG4CU567VJG8H2M1RQNI58S03W","A2ZSL0EDN3H4AT","32XN26MTXZ5MP383W6LZYTLBY7P0LI","","null","<img src=""img/food3.png"" style=""width:200px;border:14px solid red;"">","null","","","","","","","","","",""
"","image-keyboard-response","183","73522","0.0-270.0","3AZHRG4CU567VJG8H2M1RQNI58S03W","A2ZSL0EDN3H4AT","32XN26MTXZ5MP383W6LZYTLBY7P0LI","","67.89999999990687","img/food2.png","75","68.39999999990687","2","1","false","1","2","1,0.7,0,1,0.7,0,0.7,0,1","1,0.7,0,1,0.7,0,0.7,0,1","1",""
"","html-keyboard-response","184","73828","0.0-271.0","3AZHRG4CU567VJG8H2M1RQNI58S03W","A2ZSL0EDN3H4AT","32XN26MTXZ5MP383W6LZYTLBY7P0LI","","null","<img src=""img/food2.png"" style=""width:200px; border:14px solid green;"">","null","","","","","","","","","",""
"","instructions","185","84350","0.0-273.0","3AZHRG4CU567VJG8H2M1RQNI58S03W","A2ZSL0EDN3H4AT","32XN26MTXZ5MP383W6LZYTLBY7P0LI","[{""page_index"":0,""viewing_time"":9424.80000000028},{""page_index"":1,""viewing_time"":1096.5}]","10521.399999999907","","","","","","","","","","","",""
"","image-keyboard-response","186","85531","0.0-274.0","3AZHRG4CU567VJG8H2M1RQNI58S03W","A2ZSL0EDN3H4AT","32XN26MTXZ5MP383W6LZYTLBY7P0LI","","1179.8999999999069","img/food4.png","75","1180.8000000002794","2","1","","3","1","1,0.7,0,1,0.7,0,0.7,0,1","0.7,0,1,0.7,0,1,0,1,0.7","2",""
"","html-keyboard-response","187","85838","0.0-275.0","3AZHRG4CU567VJG8H2M1RQNI58S03W","A2ZSL0EDN3H4AT","32XN26MTXZ5MP383W6LZYTLBY7P0LI","","null","<img src=""img/food4.png"" style=""width:200px; border:14px solid green;"">","null","","","","","","","","","",""
"","image-keyboard-response","188","86595","0.0-276.0","3AZHRG4CU567VJG8H2M1RQNI58S03W","A2ZSL0EDN3H4AT","32XN26MTXZ5MP383W6LZYTLBY7P0LI","","756.5","img/food5.png","74","756.7999999998137","1","1","","2","1","1,0.7,0,1,0.7,0,0.7,0,1","0.7,0,1,0.7,0,1,0,1,0.7","2",""
"","html-keyboard-response","189","86903","0.0-277.0","3AZHRG4CU567VJG8H2M1RQNI58S03W","A2ZSL0EDN3H4AT","32XN26MTXZ5MP383W6LZYTLBY7P0LI","","null","<img src=""img/food5.png"" style=""width:200px; border:14px solid green;"">","null","","","","","","","","","",""
"","image-keyboard-response","190","87716","0.0-278.0","3AZHRG4CU567VJG8H2M1RQNI58S03W","A2ZSL0EDN3H4AT","32XN26MTXZ5MP383W6LZYTLBY7P0LI","","812.5","img/food1.png","76","813.1000000000931","3","1","","1","1","1,0.7,0,1,0.7,0,0.7,0,1","0.7,0,1,0.7,0,1,0,1,0.7","2",""
"","html-keyboard-response","191","88021","0.0-279.0","3AZHRG4CU567VJG8H2M1RQNI58S03W","A2ZSL0EDN3H4AT","32XN26MTXZ5MP383W6LZYTLBY7P0LI","","null","<img src=""img/food1.png"" style=""width:200px; border:14px solid green;"">","null","","","","","","","","","",""
"","image-keyboard-response","192","89026","0.0-280.0","3AZHRG4CU567VJG8H2M1RQNI58S03W","A2ZSL0EDN3H4AT","32XN26MTXZ5MP383W6LZYTLBY7P0LI","","1003.8999999999069","img/food4.png","76","1005.1000000000931","3","0","","3","1","1,0.7,0,1,0.7,0,0.7,0,1","0.7,0,1,0.7,0,1,0,1,0.7","2",""
"","html-keyboard-response","193","89336","0.0-281.0","3AZHRG4CU567VJG8H2M1RQNI58S03W","A2ZSL0EDN3H4AT","32XN26MTXZ5MP383W6LZYTLBY7P0LI","","null","<img src=""img/food4.png"" style=""width:200px;border:14px solid red;"">","null","","","","","","","","","",""
"","image-keyboard-response","194","89927","0.0-282.0","3AZHRG4CU567VJG8H2M1RQNI58S03W","A2ZSL0EDN3H4AT","32XN26MTXZ5MP383W6LZYTLBY7P0LI","","589.6000000000931","img/food5.png","75","591","2","0","","2","1","1,0.7,0,1,0.7,0,0.7,0,1","0.7,0,1,0.7,0,1,0,1,0.7","2",""
"","html-keyboard-response","195","90234","0.0-283.0","3AZHRG4CU567VJG8H2M1RQNI58S03W","A2ZSL0EDN3H4AT","32XN26MTXZ5MP383W6LZYTLBY7P0LI","","null","<img src=""img/food5.png"" style=""width:200px;border:14px solid red;"">","null","","","","","","","","","",""
"","image-keyboard-response","196","90569","0.0-284.0","3AZHRG4CU567VJG8H2M1RQNI58S03W","A2ZSL0EDN3H4AT","32XN26MTXZ5MP383W6LZYTLBY7P0LI","","334","img/food5.png","74","334.6999999997206","1","1","","2","1","1,0.7,0,1,0.7,0,0.7,0,1","0.7,0,1,0.7,0,1,0,1,0.7","2",""
"","html-keyboard-response","197","90876","0.0-285.0","3AZHRG4CU567VJG8H2M1RQNI58S03W","A2ZSL0EDN3H4AT","32XN26MTXZ5MP383W6LZYTLBY7P0LI","","null","<img src=""img/food5.png"" style=""width:200px; border:14px solid green;"">","null","","","","","","","","","",""
"","image-keyboard-response","198","91467","0.0-286.0","3AZHRG4CU567VJG8H2M1RQNI58S03W","A2ZSL0EDN3H4AT","32XN26MTXZ5MP383W6LZYTLBY7P0LI","","590.2000000001863","img/food5.png","74","590.6999999997206","1","1","","2","1","1,0.7,0,1,0.7,0,0.7,0,1","0.7,0,1,0.7,0,1,0,1,0.7","2",""
"","html-keyboard-response","199","91776","0.0-287.0","3AZHRG4CU567VJG8H2M1RQNI58S03W","A2ZSL0EDN3H4AT","32XN26MTXZ5MP383W6LZYTLBY7P0LI","","null","<img src=""img/food5.png"" style=""width:200px; border:14px solid green;"">","null","","","","","","","","","",""
"","image-keyboard-response","200","92348","0.0-288.0","3AZHRG4CU567VJG8H2M1RQNI58S03W","A2ZSL0EDN3H4AT","32XN26MTXZ5MP383W6LZYTLBY7P0LI","","571.3999999999069","img/food5.png","74","571.7999999998137","1","1","","2","1","1,0.7,0,1,0.7,0,0.7,0,1","0.7,0,1,0.7,0,1,0,1,0.7","2",""
"","html-keyboard-response","201","92656","0.0-289.0","3AZHRG4CU567VJG8H2M1RQNI58S03W","A2ZSL0EDN3H4AT","32XN26MTXZ5MP383W6LZYTLBY7P0LI","","null","<img src=""img/food5.png"" style=""width:200px; border:14px solid green;"">","null","","","","","","","","","",""
"","image-keyboard-response","202","93266","0.0-290.0","3AZHRG4CU567VJG8H2M1RQNI58S03W","A2ZSL0EDN3H4AT","32XN26MTXZ5MP383W6LZYTLBY7P0LI","","607.3999999999069","img/food5.png","74","609.5","1","1","","2","1","1,0.7,0,1,0.7,0,0.7,0,1","0.7,0,1,0.7,0,1,0,1,0.7","2",""
"","html-keyboard-response","203","93575","0.0-291.0","3AZHRG4CU567VJG8H2M1RQNI58S03W","A2ZSL0EDN3H4AT","32XN26MTXZ5MP383W6LZYTLBY7P0LI","","null","<img src=""img/food5.png"" style=""width:200px; border:14px solid green;"">","null","","","","","","","","","",""
"","image-keyboard-response","204","94278","0.0-292.0","3AZHRG4CU567VJG8H2M1RQNI58S03W","A2ZSL0EDN3H4AT","32XN26MTXZ5MP383W6LZYTLBY7P0LI","","701.8999999999069","img/food1.png","76","703.3000000002794","3","1","","1","1","1,0.7,0,1,0.7,0,0.7,0,1","0.7,0,1,0.7,0,1,0,1,0.7","2",""
"","html-keyboard-response","205","94588","0.0-293.0","3AZHRG4CU567VJG8H2M1RQNI58S03W","A2ZSL0EDN3H4AT","32XN26MTXZ5MP383W6LZYTLBY7P0LI","","null","<img src=""img/food1.png"" style=""width:200px; border:14px solid green;"">","null","","","","","","","","","",""
"","image-keyboard-response","206","95371","0.0-294.0","3AZHRG4CU567VJG8H2M1RQNI58S03W","A2ZSL0EDN3H4AT","32XN26MTXZ5MP383W6LZYTLBY7P0LI","","782.3999999999069","img/food4.png","75","782.9000000003725","2","1","","3","1","1,0.7,0,1,0.7,0,0.7,0,1","0.7,0,1,0.7,0,1,0,1,0.7","2",""
"","html-keyboard-response","207","95680","0.0-295.0","3AZHRG4CU567VJG8H2M1RQNI58S03W","A2ZSL0EDN3H4AT","32XN26MTXZ5MP383W6LZYTLBY7P0LI","","null","<img src=""img/food4.png"" style=""width:200px; border:14px solid green;"">","null","","","","","","","","","",""
"","image-keyboard-response","208","96258","0.0-296.0","3AZHRG4CU567VJG8H2M1RQNI58S03W","A2ZSL0EDN3H4AT","32XN26MTXZ5MP383W6LZYTLBY7P0LI","","577.6999999997206","img/food4.png","75","578","2","1","","3","1","1,0.7,0,1,0.7,0,0.7,0,1","0.7,0,1,0.7,0,1,0,1,0.7","2",""
"","html-keyboard-response","209","96564","0.0-297.0","3AZHRG4CU567VJG8H2M1RQNI58S03W","A2ZSL0EDN3H4AT","32XN26MTXZ5MP383W6LZYTLBY7P0LI","","null","<img src=""img/food4.png"" style=""width:200px; border:14px solid green;"">","null","","","","","","","","","",""
"","image-keyboard-response","210","97136","0.0-298.0","3AZHRG4CU567VJG8H2M1RQNI58S03W","A2ZSL0EDN3H4AT","32XN26MTXZ5MP383W6LZYTLBY7P0LI","","571.1000000000931","img/food4.png","75","571.7999999998137","2","1","","3","1","1,0.7,0,1,0.7,0,0.7,0,1","0.7,0,1,0.7,0,1,0,1,0.7","2",""
"","html-keyboard-response","211","97445","0.0-299.0","3AZHRG4CU567VJG8H2M1RQNI58S03W","A2ZSL0EDN3H4AT","32XN26MTXZ5MP383W6LZYTLBY7P0LI","","null","<img src=""img/food4.png"" style=""width:200px; border:14px solid green;"">","null","","","","","","","","","",""
"","image-keyboard-response","212","97977","0.0-300.0","3AZHRG4CU567VJG8H2M1RQNI58S03W","A2ZSL0EDN3H4AT","32XN26MTXZ5MP383W6LZYTLBY7P0LI","","530.3999999999069","img/food4.png","75","531.8000000002794","2","1","","3","1","1,0.7,0,1,0.7,0,0.7,0,1","0.7,0,1,0.7,0,1,0,1,0.7","2",""
"","html-keyboard-response","213","98284","0.0-301.0","3AZHRG4CU567VJG8H2M1RQNI58S03W","A2ZSL0EDN3H4AT","32XN26MTXZ5MP383W6LZYTLBY7P0LI","","null","<img src=""img/food4.png"" style=""width:200px; border:14px solid green;"">","null","","","","","","","","","",""
"","image-keyboard-response","214","99196","0.0-302.0","3AZHRG4CU567VJG8H2M1RQNI58S03W","A2ZSL0EDN3H4AT","32XN26MTXZ5MP383W6LZYTLBY7P0LI","","909.9000000003725","img/food1.png","74","911.3999999999069","1","1","","1","1","1,0.7,0,1,0.7,0,0.7,0,1","0.7,0,1,0.7,0,1,0,1,0.7","2",""
"","html-keyboard-response","215","99501","0.0-303.0","3AZHRG4CU567VJG8H2M1RQNI58S03W","A2ZSL0EDN3H4AT","32XN26MTXZ5MP383W6LZYTLBY7P0LI","","null","<img src=""img/food1.png"" style=""width:200px; border:14px solid green;"">","null","","","","","","","","","",""
"","image-keyboard-response","216","100055","0.0-304.0","3AZHRG4CU567VJG8H2M1RQNI58S03W","A2ZSL0EDN3H4AT","32XN26MTXZ5MP383W6LZYTLBY7P0LI","","553.2999999998137","img/food1.png","74","553.7000000001863","1","1","","1","1","1,0.7,0,1,0.7,0,0.7,0,1","0.7,0,1,0.7,0,1,0,1,0.7","2",""
"","html-keyboard-response","217","100369","0.0-305.0","3AZHRG4CU567VJG8H2M1RQNI58S03W","A2ZSL0EDN3H4AT","32XN26MTXZ5MP383W6LZYTLBY7P0LI","","null","<img src=""img/food1.png"" style=""width:200px; border:14px solid green;"">","null","","","","","","","","","",""
"","image-keyboard-response","218","101338","0.0-306.0","3AZHRG4CU567VJG8H2M1RQNI58S03W","A2ZSL0EDN3H4AT","32XN26MTXZ5MP383W6LZYTLBY7P0LI","","968.8999999999069","img/food5.png","74","969.3000000002794","1","1","","2","1","1,0.7,0,1,0.7,0,0.7,0,1","0.7,0,1,0.7,0,1,0,1,0.7","2",""
"","html-keyboard-response","219","101649","0.0-307.0","3AZHRG4CU567VJG8H2M1RQNI58S03W","A2ZSL0EDN3H4AT","32XN26MTXZ5MP383W6LZYTLBY7P0LI","","null","<img src=""img/food5.png"" style=""width:200px; border:14px solid green;"">","null","","","","","","","","","",""
"","image-keyboard-response","220","102549","0.0-308.0","3AZHRG4CU567VJG8H2M1RQNI58S03W","A2ZSL0EDN3H4AT","32XN26MTXZ5MP383W6LZYTLBY7P0LI","","898.1000000000931","img/food4.png","76","900.1000000000931","3","1","","3","1","1,0.7,0,1,0.7,0,0.7,0,1","0.7,0,1,0.7,0,1,0,1,0.7","2",""
"","html-keyboard-response","221","102855","0.0-309.0","3AZHRG4CU567VJG8H2M1RQNI58S03W","A2ZSL0EDN3H4AT","32XN26MTXZ5MP383W6LZYTLBY7P0LI","","null","<img src=""img/food4.png"" style=""width:200px; border:14px solid green;"">","null","","","","","","","","","",""
"","image-keyboard-response","222","103650","0.0-310.0","3AZHRG4CU567VJG8H2M1RQNI58S03W","A2ZSL0EDN3H4AT","32XN26MTXZ5MP383W6LZYTLBY7P0LI","","794.2999999998137","img/food5.png","74","795","1","0","","2","1","1,0.7,0,1,0.7,0,0.7,0,1","0.7,0,1,0.7,0,1,0,1,0.7","2",""
"","html-keyboard-response","223","103959","0.0-311.0","3AZHRG4CU567VJG8H2M1RQNI58S03W","A2ZSL0EDN3H4AT","32XN26MTXZ5MP383W6LZYTLBY7P0LI","","null","<img src=""img/food5.png"" style=""width:200px;border:14px solid red;"">","null","","","","","","","","","",""
"","image-keyboard-response","224","104669","0.0-312.0","3AZHRG4CU567VJG8H2M1RQNI58S03W","A2ZSL0EDN3H4AT","32XN26MTXZ5MP383W6LZYTLBY7P0LI","","709","img/food1.png","75","709.3999999999069","2","0","","1","1","1,0.7,0,1,0.7,0,0.7,0,1","0.7,0,1,0.7,0,1,0,1,0.7","2",""
"","html-keyboard-response","225","104973","0.0-313.0","3AZHRG4CU567VJG8H2M1RQNI58S03W","A2ZSL0EDN3H4AT","32XN26MTXZ5MP383W6LZYTLBY7P0LI","","null","<img src=""img/food1.png"" style=""width:200px;border:14px solid red;"">","null","","","","","","","","","",""
"","image-keyboard-response","226","105464","0.0-314.0","3AZHRG4CU567VJG8H2M1RQNI58S03W","A2ZSL0EDN3H4AT","32XN26MTXZ5MP383W6LZYTLBY7P0LI","","490.60000000009313","img/food5.png","76","491.10000000009313","3","1","","2","1","1,0.7,0,1,0.7,0,0.7,0,1","0.7,0,1,0.7,0,1,0,1,0.7","2",""
"","html-keyboard-response","227","105767","0.0-315.0","3AZHRG4CU567VJG8H2M1RQNI58S03W","A2ZSL0EDN3H4AT","32XN26MTXZ5MP383W6LZYTLBY7P0LI","","null","<img src=""img/food5.png"" style=""width:200px; border:14px solid green;"">","null","","","","","","","","","",""
"","image-keyboard-response","228","106888","0.0-316.0","3AZHRG4CU567VJG8H2M1RQNI58S03W","A2ZSL0EDN3H4AT","32XN26MTXZ5MP383W6LZYTLBY7P0LI","","1120.1999999997206","img/food1.png","74","1120.8999999999069","1","0","","1","1","1,0.7,0,1,0.7,0,0.7,0,1","0.7,0,1,0.7,0,1,0,1,0.7","2",""
"","html-keyboard-response","229","107200","0.0-317.0","3AZHRG4CU567VJG8H2M1RQNI58S03W","A2ZSL0EDN3H4AT","32XN26MTXZ5MP383W6LZYTLBY7P0LI","","null","<img src=""img/food1.png"" style=""width:200px;border:14px solid red;"">","null","","","","","","","","","",""
"","image-keyboard-response","230","107609","0.0-318.0","3AZHRG4CU567VJG8H2M1RQNI58S03W","A2ZSL0EDN3H4AT","32XN26MTXZ5MP383W6LZYTLBY7P0LI","","407.60000000009313","img/food5.png","75","408.70000000018626","2","0","","2","1","1,0.7,0,1,0.7,0,0.7,0,1","0.7,0,1,0.7,0,1,0,1,0.7","2",""
"","html-keyboard-response","231","107916","0.0-319.0","3AZHRG4CU567VJG8H2M1RQNI58S03W","A2ZSL0EDN3H4AT","32XN26MTXZ5MP383W6LZYTLBY7P0LI","","null","<img src=""img/food5.png"" style=""width:200px;border:14px solid red;"">","null","","","","","","","","","",""
"","image-keyboard-response","232","108193","0.0-320.0","3AZHRG4CU567VJG8H2M1RQNI58S03W","A2ZSL0EDN3H4AT","32XN26MTXZ5MP383W6LZYTLBY7P0LI","","276.59999999962747","img/food4.png","76","277","3","1","","3","1","1,0.7,0,1,0.7,0,0.7,0,1","0.7,0,1,0.7,0,1,0,1,0.7","2",""
"","html-keyboard-response","233","108503","0.0-321.0","3AZHRG4CU567VJG8H2M1RQNI58S03W","A2ZSL0EDN3H4AT","32XN26MTXZ5MP383W6LZYTLBY7P0LI","","null","<img src=""img/food4.png"" style=""width:200px; border:14px solid green;"">","null","","","","","","","","","",""
"","image-keyboard-response","234","109230","0.0-322.0","3AZHRG4CU567VJG8H2M1RQNI58S03W","A2ZSL0EDN3H4AT","32XN26MTXZ5MP383W6LZYTLBY7P0LI","","726.2999999998137","img/food5.png","76","726.8000000002794","3","1","","2","1","1,0.7,0,1,0.7,0,0.7,0,1","0.7,0,1,0.7,0,1,0,1,0.7","2",""
"","html-keyboard-response","235","109538","0.0-323.0","3AZHRG4CU567VJG8H2M1RQNI58S03W","A2ZSL0EDN3H4AT","32XN26MTXZ5MP383W6LZYTLBY7P0LI","","null","<img src=""img/food5.png"" style=""width:200px; border:14px solid green;"">","null","","","","","","","","","",""
"","image-keyboard-response","236","109993","0.0-324.0","3AZHRG4CU567VJG8H2M1RQNI58S03W","A2ZSL0EDN3H4AT","32XN26MTXZ5MP383W6LZYTLBY7P0LI","","455","img/food5.png","76","455.59999999962747","3","1","","2","1","1,0.7,0,1,0.7,0,0.7,0,1","0.7,0,1,0.7,0,1,0,1,0.7","2",""
"","html-keyboard-response","237","110301","0.0-325.0","3AZHRG4CU567VJG8H2M1RQNI58S03W","A2ZSL0EDN3H4AT","32XN26MTXZ5MP383W6LZYTLBY7P0LI","","null","<img src=""img/food5.png"" style=""width:200px; border:14px solid green;"">","null","","","","","","","","","",""
"","image-keyboard-response","238","111187","0.0-326.0","3AZHRG4CU567VJG8H2M1RQNI58S03W","A2ZSL0EDN3H4AT","32XN26MTXZ5MP383W6LZYTLBY7P0LI","","884.8999999999069","img/food1.png","74","886.1999999997206","1","1","","1","1","1,0.7,0,1,0.7,0,0.7,0,1","0.7,0,1,0.7,0,1,0,1,0.7","2",""
"","html-keyboard-response","239","111496","0.0-327.0","3AZHRG4CU567VJG8H2M1RQNI58S03W","A2ZSL0EDN3H4AT","32XN26MTXZ5MP383W6LZYTLBY7P0LI","","null","<img src=""img/food1.png"" style=""width:200px; border:14px solid green;"">","null","","","","","","","","","",""
"","image-keyboard-response","240","112106","0.0-328.0","3AZHRG4CU567VJG8H2M1RQNI58S03W","A2ZSL0EDN3H4AT","32XN26MTXZ5MP383W6LZYTLBY7P0LI","","609.8000000002794","img/food1.png","74","610.1999999997206","1","1","","1","1","1,0.7,0,1,0.7,0,0.7,0,1","0.7,0,1,0.7,0,1,0,1,0.7","2",""
"","html-keyboard-response","241","112413","0.0-329.0","3AZHRG4CU567VJG8H2M1RQNI58S03W","A2ZSL0EDN3H4AT","32XN26MTXZ5MP383W6LZYTLBY7P0LI","","null","<img src=""img/food1.png"" style=""width:200px; border:14px solid green;"">","null","","","","","","","","","",""
"","image-keyboard-response","242","113193","0.0-330.0","3AZHRG4CU567VJG8H2M1RQNI58S03W","A2ZSL0EDN3H4AT","32XN26MTXZ5MP383W6LZYTLBY7P0LI","","779","img/food5.png","76","779.7999999998137","3","1","","2","1","1,0.7,0,1,0.7,0,0.7,0,1","0.7,0,1,0.7,0,1,0,1,0.7","2",""
"","html-keyboard-response","243","113502","0.0-331.0","3AZHRG4CU567VJG8H2M1RQNI58S03W","A2ZSL0EDN3H4AT","32XN26MTXZ5MP383W6LZYTLBY7P0LI","","null","<img src=""img/food5.png"" style=""width:200px; border:14px solid green;"">","null","","","","","","","","","",""
"","image-keyboard-response","244","113926","0.0-332.0","3AZHRG4CU567VJG8H2M1RQNI58S03W","A2ZSL0EDN3H4AT","32XN26MTXZ5MP383W6LZYTLBY7P0LI","","423.10000000009313","img/food5.png","76","423.5","3","1","","2","1","1,0.7,0,1,0.7,0,0.7,0,1","0.7,0,1,0.7,0,1,0,1,0.7","2",""
"","html-keyboard-response","245","114233","0.0-333.0","3AZHRG4CU567VJG8H2M1RQNI58S03W","A2ZSL0EDN3H4AT","32XN26MTXZ5MP383W6LZYTLBY7P0LI","","null","<img src=""img/food5.png"" style=""width:200px; border:14px solid green;"">","null","","","","","","","","","",""
"","image-keyboard-response","246","114815","0.0-334.0","3AZHRG4CU567VJG8H2M1RQNI58S03W","A2ZSL0EDN3H4AT","32XN26MTXZ5MP383W6LZYTLBY7P0LI","","581.4000000003725","img/food5.png","76","581.7999999998137","3","1","","2","1","1,0.7,0,1,0.7,0,0.7,0,1","0.7,0,1,0.7,0,1,0,1,0.7","2",""
"","html-keyboard-response","247","115117","0.0-335.0","3AZHRG4CU567VJG8H2M1RQNI58S03W","A2ZSL0EDN3H4AT","32XN26MTXZ5MP383W6LZYTLBY7P0LI","","null","<img src=""img/food5.png"" style=""width:200px; border:14px solid green;"">","null","","","","","","","","","",""
"","image-keyboard-response","248","115879","0.0-336.0","3AZHRG4CU567VJG8H2M1RQNI58S03W","A2ZSL0EDN3H4AT","32XN26MTXZ5MP383W6LZYTLBY7P0LI","","761.2000000001863","img/food4.png","75","761.6000000000931","2","1","","3","1","1,0.7,0,1,0.7,0,0.7,0,1","0.7,0,1,0.7,0,1,0,1,0.7","2",""
"","html-keyboard-response","249","116181","0.0-337.0","3AZHRG4CU567VJG8H2M1RQNI58S03W","A2ZSL0EDN3H4AT","32XN26MTXZ5MP383W6LZYTLBY7P0LI","","null","<img src=""img/food4.png"" style=""width:200px; border:14px solid green;"">","null","","","","","","","","","",""
"","image-keyboard-response","250","116969","0.0-338.0","3AZHRG4CU567VJG8H2M1RQNI58S03W","A2ZSL0EDN3H4AT","32XN26MTXZ5MP383W6LZYTLBY7P0LI","","787.1000000000931","img/food1.png","74","787.7000000001863","1","0","","1","1","1,0.7,0,1,0.7,0,0.7,0,1","0.7,0,1,0.7,0,1,0,1,0.7","2",""
"","html-keyboard-response","251","117277","0.0-339.0","3AZHRG4CU567VJG8H2M1RQNI58S03W","A2ZSL0EDN3H4AT","32XN26MTXZ5MP383W6LZYTLBY7P0LI","","null","<img src=""img/food1.png"" style=""width:200px;border:14px solid red;"">","null","","","","","","","","","",""
"","image-keyboard-response","252","117607","0.0-340.0","3AZHRG4CU567VJG8H2M1RQNI58S03W","A2ZSL0EDN3H4AT","32XN26MTXZ5MP383W6LZYTLBY7P0LI","","329.39999999990687","img/food5.png","76","329.8000000002794","3","1","","2","1","1,0.7,0,1,0.7,0,0.7,0,1","0.7,0,1,0.7,0,1,0,1,0.7","2",""
"","html-keyboard-response","253","117914","0.0-341.0","3AZHRG4CU567VJG8H2M1RQNI58S03W","A2ZSL0EDN3H4AT","32XN26MTXZ5MP383W6LZYTLBY7P0LI","","null","<img src=""img/food5.png"" style=""width:200px; border:14px solid green;"">","null","","","","","","","","","",""
"","image-keyboard-response","254","118660","0.0-342.0","3AZHRG4CU567VJG8H2M1RQNI58S03W","A2ZSL0EDN3H4AT","32XN26MTXZ5MP383W6LZYTLBY7P0LI","","745.5","img/food4.png","74","746","1","0","","3","1","1,0.7,0,1,0.7,0,0.7,0,1","0.7,0,1,0.7,0,1,0,1,0.7","2",""
"","html-keyboard-response","255","118969","0.0-343.0","3AZHRG4CU567VJG8H2M1RQNI58S03W","A2ZSL0EDN3H4AT","32XN26MTXZ5MP383W6LZYTLBY7P0LI","","null","<img src=""img/food4.png"" style=""width:200px;border:14px solid red;"">","null","","","","","","","","","",""
"","image-keyboard-response","256","119754","0.0-344.0","3AZHRG4CU567VJG8H2M1RQNI58S03W","A2ZSL0EDN3H4AT","32XN26MTXZ5MP383W6LZYTLBY7P0LI","","783.8000000002794","img/food1.png","74","784.3999999999069","1","1","","1","1","1,0.7,0,1,0.7,0,0.7,0,1","0.7,0,1,0.7,0,1,0,1,0.7","2",""
"","html-keyboard-response","257","120061","0.0-345.0","3AZHRG4CU567VJG8H2M1RQNI58S03W","A2ZSL0EDN3H4AT","32XN26MTXZ5MP383W6LZYTLBY7P0LI","","null","<img src=""img/food1.png"" style=""width:200px; border:14px solid green;"">","null","","","","","","","","","",""
"","image-keyboard-response","258","120802","0.0-346.0","3AZHRG4CU567VJG8H2M1RQNI58S03W","A2ZSL0EDN3H4AT","32XN26MTXZ5MP383W6LZYTLBY7P0LI","","740.4000000003725","img/food4.png","76","740.8999999999069","3","1","","3","1","1,0.7,0,1,0.7,0,0.7,0,1","0.7,0,1,0.7,0,1,0,1,0.7","2",""
"","html-keyboard-response","259","121113","0.0-347.0","3AZHRG4CU567VJG8H2M1RQNI58S03W","A2ZSL0EDN3H4AT","32XN26MTXZ5MP383W6LZYTLBY7P0LI","","null","<img src=""img/food4.png"" style=""width:200px; border:14px solid green;"">","null","","","","","","","","","",""
"","image-keyboard-response","260","121859","0.0-348.0","3AZHRG4CU567VJG8H2M1RQNI58S03W","A2ZSL0EDN3H4AT","32XN26MTXZ5MP383W6LZYTLBY7P0LI","","745.3999999999069","img/food5.png","76","745.7000000001863","3","1","","2","1","1,0.7,0,1,0.7,0,0.7,0,1","0.7,0,1,0.7,0,1,0,1,0.7","2",""
"","html-keyboard-response","261","122168","0.0-349.0","3AZHRG4CU567VJG8H2M1RQNI58S03W","A2ZSL0EDN3H4AT","32XN26MTXZ5MP383W6LZYTLBY7P0LI","","null","<img src=""img/food5.png"" style=""width:200px; border:14px solid green;"">","null","","","","","","","","","",""
"","image-keyboard-response","262","122805","0.0-350.0","3AZHRG4CU567VJG8H2M1RQNI58S03W","A2ZSL0EDN3H4AT","32XN26MTXZ5MP383W6LZYTLBY7P0LI","","636.6000000000931","img/food5.png","76","637.1000000000931","3","1","","2","1","1,0.7,0,1,0.7,0,0.7,0,1","0.7,0,1,0.7,0,1,0,1,0.7","2",""
"","html-keyboard-response","263","123114","0.0-351.0","3AZHRG4CU567VJG8H2M1RQNI58S03W","A2ZSL0EDN3H4AT","32XN26MTXZ5MP383W6LZYTLBY7P0LI","","null","<img src=""img/food5.png"" style=""width:200px; border:14px solid green;"">","null","","","","","","","","","",""
"","image-keyboard-response","264","123691","0.0-352.0","3AZHRG4CU567VJG8H2M1RQNI58S03W","A2ZSL0EDN3H4AT","32XN26MTXZ5MP383W6LZYTLBY7P0LI","","576.8999999999069","img/food5.png","76","577.3000000002794","3","1","","2","1","1,0.7,0,1,0.7,0,0.7,0,1","0.7,0,1,0.7,0,1,0,1,0.7","2",""
"","html-keyboard-response","265","124002","0.0-353.0","3AZHRG4CU567VJG8H2M1RQNI58S03W","A2ZSL0EDN3H4AT","32XN26MTXZ5MP383W6LZYTLBY7P0LI","","null","<img src=""img/food5.png"" style=""width:200px; border:14px solid green;"">","null","","","","","","","","","",""
"","image-keyboard-response","266","124609","0.0-354.0","3AZHRG4CU567VJG8H2M1RQNI58S03W","A2ZSL0EDN3H4AT","32XN26MTXZ5MP383W6LZYTLBY7P0LI","","606.1999999997206","img/food4.png","74","607.2000000001863","1","0","","3","1","1,0.7,0,1,0.7,0,0.7,0,1","0.7,0,1,0.7,0,1,0,1,0.7","2",""
"","html-keyboard-response","267","124920","0.0-355.0","3AZHRG4CU567VJG8H2M1RQNI58S03W","A2ZSL0EDN3H4AT","32XN26MTXZ5MP383W6LZYTLBY7P0LI","","null","<img src=""img/food4.png"" style=""width:200px;border:14px solid red;"">","null","","","","","","","","","",""
"","image-keyboard-response","268","125599","0.0-356.0","3AZHRG4CU567VJG8H2M1RQNI58S03W","A2ZSL0EDN3H4AT","32XN26MTXZ5MP383W6LZYTLBY7P0LI","","677.8999999999069","img/food4.png","75","679.1000000000931","2","1","","3","1","1,0.7,0,1,0.7,0,0.7,0,1","0.7,0,1,0.7,0,1,0,1,0.7","2",""
"","html-keyboard-response","269","125912","0.0-357.0","3AZHRG4CU567VJG8H2M1RQNI58S03W","A2ZSL0EDN3H4AT","32XN26MTXZ5MP383W6LZYTLBY7P0LI","","null","<img src=""img/food4.png"" style=""width:200px; border:14px solid green;"">","null","","","","","","","","","",""
"","image-keyboard-response","270","126519","0.0-358.0","3AZHRG4CU567VJG8H2M1RQNI58S03W","A2ZSL0EDN3H4AT","32XN26MTXZ5MP383W6LZYTLBY7P0LI","","606.6000000000931","img/food4.png","75","607","2","1","","3","1","1,0.7,0,1,0.7,0,0.7,0,1","0.7,0,1,0.7,0,1,0,1,0.7","2",""
"","html-keyboard-response","271","126824","0.0-359.0","3AZHRG4CU567VJG8H2M1RQNI58S03W","A2ZSL0EDN3H4AT","32XN26MTXZ5MP383W6LZYTLBY7P0LI","","null","<img src=""img/food4.png"" style=""width:200px; border:14px solid green;"">","null","","","","","","","","","",""
"","image-keyboard-response","272","127339","0.0-360.0","3AZHRG4CU567VJG8H2M1RQNI58S03W","A2ZSL0EDN3H4AT","32XN26MTXZ5MP383W6LZYTLBY7P0LI","","514.3999999999069","img/food4.png","75","514.8000000002794","2","1","","3","1","1,0.7,0,1,0.7,0,0.7,0,1","0.7,0,1,0.7,0,1,0,1,0.7","2",""
"","html-keyboard-response","273","127649","0.0-361.0","3AZHRG4CU567VJG8H2M1RQNI58S03W","A2ZSL0EDN3H4AT","32XN26MTXZ5MP383W6LZYTLBY7P0LI","","null","<img src=""img/food4.png"" style=""width:200px; border:14px solid green;"">","null","","","","","","","","","",""
"","image-keyboard-response","274","128144","0.0-362.0","3AZHRG4CU567VJG8H2M1RQNI58S03W","A2ZSL0EDN3H4AT","32XN26MTXZ5MP383W6LZYTLBY7P0LI","","494.79999999981374","img/food4.png","75","494.89999999990687","2","1","","3","1","1,0.7,0,1,0.7,0,0.7,0,1","0.7,0,1,0.7,0,1,0,1,0.7","2",""
"","html-keyboard-response","275","128458","0.0-363.0","3AZHRG4CU567VJG8H2M1RQNI58S03W","A2ZSL0EDN3H4AT","32XN26MTXZ5MP383W6LZYTLBY7P0LI","","null","<img src=""img/food4.png"" style=""width:200px; border:14px solid green;"">","null","","","","","","","","","",""
"","image-keyboard-response","276","129227","0.0-364.0","3AZHRG4CU567VJG8H2M1RQNI58S03W","A2ZSL0EDN3H4AT","32XN26MTXZ5MP383W6LZYTLBY7P0LI","","768.5","img/food1.png","74","769.7999999998137","1","0","","1","1","1,0.7,0,1,0.7,0,0.7,0,1","0.7,0,1,0.7,0,1,0,1,0.7","2",""
"","html-keyboard-response","277","129533","0.0-365.0","3AZHRG4CU567VJG8H2M1RQNI58S03W","A2ZSL0EDN3H4AT","32XN26MTXZ5MP383W6LZYTLBY7P0LI","","null","<img src=""img/food1.png"" style=""width:200px;border:14px solid red;"">","null","","","","","","","","","",""
"","image-keyboard-response","278","129810","0.0-366.0","3AZHRG4CU567VJG8H2M1RQNI58S03W","A2ZSL0EDN3H4AT","32XN26MTXZ5MP383W6LZYTLBY7P0LI","","276.10000000009313","img/food5.png","76","276.89999999990687","3","1","","2","1","1,0.7,0,1,0.7,0,0.7,0,1","0.7,0,1,0.7,0,1,0,1,0.7","2",""
"","html-keyboard-response","279","130122","0.0-367.0","3AZHRG4CU567VJG8H2M1RQNI58S03W","A2ZSL0EDN3H4AT","32XN26MTXZ5MP383W6LZYTLBY7P0LI","","null","<img src=""img/food5.png"" style=""width:200px; border:14px solid green;"">","null","","","","","","","","","",""
"","image-keyboard-response","280","130945","0.0-368.0","3AZHRG4CU567VJG8H2M1RQNI58S03W","A2ZSL0EDN3H4AT","32XN26MTXZ5MP383W6LZYTLBY7P0LI","","820.8999999999069","img/food1.png","76","822.2000000001863","3","1","","1","1","1,0.7,0,1,0.7,0,0.7,0,1","0.7,0,1,0.7,0,1,0,1,0.7","2",""
"","html-keyboard-response","281","131255","0.0-369.0","3AZHRG4CU567VJG8H2M1RQNI58S03W","A2ZSL0EDN3H4AT","32XN26MTXZ5MP383W6LZYTLBY7P0LI","","null","<img src=""img/food1.png"" style=""width:200px; border:14px solid green;"">","null","","","","","","","","","",""
"","image-keyboard-response","282","131735","0.0-370.0","3AZHRG4CU567VJG8H2M1RQNI58S03W","A2ZSL0EDN3H4AT","32XN26MTXZ5MP383W6LZYTLBY7P0LI","","479.6999999997206","img/food1.png","76","480.10000000009313","3","1","","1","1","1,0.7,0,1,0.7,0,0.7,0,1","0.7,0,1,0.7,0,1,0,1,0.7","2",""
"","html-keyboard-response","283","132041","0.0-371.0","3AZHRG4CU567VJG8H2M1RQNI58S03W","A2ZSL0EDN3H4AT","32XN26MTXZ5MP383W6LZYTLBY7P0LI","","null","<img src=""img/food1.png"" style=""width:200px; border:14px solid green;"">","null","","","","","","","","","",""
"","image-keyboard-response","284","132662","0.0-372.0","3AZHRG4CU567VJG8H2M1RQNI58S03W","A2ZSL0EDN3H4AT","32XN26MTXZ5MP383W6LZYTLBY7P0LI","","620.5","img/food1.png","76","621","3","1","","1","1","1,0.7,0,1,0.7,0,0.7,0,1","0.7,0,1,0.7,0,1,0,1,0.7","2",""
"","html-keyboard-response","285","132968","0.0-373.0","3AZHRG4CU567VJG8H2M1RQNI58S03W","A2ZSL0EDN3H4AT","32XN26MTXZ5MP383W6LZYTLBY7P0LI","","null","<img src=""img/food1.png"" style=""width:200px; border:14px solid green;"">","null","","","","","","","","","",""
"","image-keyboard-response","286","133469","0.0-374.0","3AZHRG4CU567VJG8H2M1RQNI58S03W","A2ZSL0EDN3H4AT","32XN26MTXZ5MP383W6LZYTLBY7P0LI","","500.39999999990687","img/food5.png","76","500.8000000002794","3","1","","2","1","1,0.7,0,1,0.7,0,0.7,0,1","0.7,0,1,0.7,0,1,0,1,0.7","2",""
"","html-keyboard-response","287","133773","0.0-375.0","3AZHRG4CU567VJG8H2M1RQNI58S03W","A2ZSL0EDN3H4AT","32XN26MTXZ5MP383W6LZYTLBY7P0LI","","null","<img src=""img/food5.png"" style=""width:200px; border:14px solid green;"">","null","","","","","","","","","",""
"","image-keyboard-response","288","134266","0.0-376.0","3AZHRG4CU567VJG8H2M1RQNI58S03W","A2ZSL0EDN3H4AT","32XN26MTXZ5MP383W6LZYTLBY7P0LI","","491.60000000009313","img/food1.png","76","493.09999999962747","3","1","","1","1","1,0.7,0,1,0.7,0,0.7,0,1","0.7,0,1,0.7,0,1,0,1,0.7","2",""
"","html-keyboard-response","289","134578","0.0-377.0","3AZHRG4CU567VJG8H2M1RQNI58S03W","A2ZSL0EDN3H4AT","32XN26MTXZ5MP383W6LZYTLBY7P0LI","","null","<img src=""img/food1.png"" style=""width:200px; border:14px solid green;"">","null","","","","","","","","","",""
"","image-keyboard-response","290","135019","0.0-378.0","3AZHRG4CU567VJG8H2M1RQNI58S03W","A2ZSL0EDN3H4AT","32XN26MTXZ5MP383W6LZYTLBY7P0LI","","439.5","img/food1.png","76","440.5","3","1","","1","1","1,0.7,0,1,0.7,0,0.7,0,1","0.7,0,1,0.7,0,1,0,1,0.7","2",""
"","html-keyboard-response","291","135329","0.0-379.0","3AZHRG4CU567VJG8H2M1RQNI58S03W","A2ZSL0EDN3H4AT","32XN26MTXZ5MP383W6LZYTLBY7P0LI","","null","<img src=""img/food1.png"" style=""width:200px; border:14px solid green;"">","null","","","","","","","","","",""
"","image-keyboard-response","292","135953","0.0-380.0","3AZHRG4CU567VJG8H2M1RQNI58S03W","A2ZSL0EDN3H4AT","32XN26MTXZ5MP383W6LZYTLBY7P0LI","","623.8999999999069","img/food1.png","76","624.3000000002794","3","1","","1","1","1,0.7,0,1,0.7,0,0.7,0,1","0.7,0,1,0.7,0,1,0,1,0.7","2",""
"","html-keyboard-response","293","136265","0.0-381.0","3AZHRG4CU567VJG8H2M1RQNI58S03W","A2ZSL0EDN3H4AT","32XN26MTXZ5MP383W6LZYTLBY7P0LI","","null","<img src=""img/food1.png"" style=""width:200px; border:14px solid green;"">","null","","","","","","","","","",""
"","image-keyboard-response","294","136922","0.0-382.0","3AZHRG4CU567VJG8H2M1RQNI58S03W","A2ZSL0EDN3H4AT","32XN26MTXZ5MP383W6LZYTLBY7P0LI","","656.2000000001863","img/food5.png","76","656.6999999997206","3","1","","2","1","1,0.7,0,1,0.7,0,0.7,0,1","0.7,0,1,0.7,0,1,0,1,0.7","2",""
"","html-keyboard-response","295","137233","0.0-383.0","3AZHRG4CU567VJG8H2M1RQNI58S03W","A2ZSL0EDN3H4AT","32XN26MTXZ5MP383W6LZYTLBY7P0LI","","null","<img src=""img/food5.png"" style=""width:200px; border:14px solid green;"">","null","","","","","","","","","",""
"","image-keyboard-response","296","137701","0.0-384.0","3AZHRG4CU567VJG8H2M1RQNI58S03W","A2ZSL0EDN3H4AT","32XN26MTXZ5MP383W6LZYTLBY7P0LI","","467.60000000009313","img/food1.png","76","468.10000000009313","3","1","","1","1","1,0.7,0,1,0.7,0,0.7,0,1","0.7,0,1,0.7,0,1,0,1,0.7","2",""
"","html-keyboard-response","297","138007","0.0-385.0","3AZHRG4CU567VJG8H2M1RQNI58S03W","A2ZSL0EDN3H4AT","32XN26MTXZ5MP383W6LZYTLBY7P0LI","","null","<img src=""img/food1.png"" style=""width:200px; border:14px solid green;"">","null","","","","","","","","","",""
"","image-keyboard-response","298","138430","0.0-386.0","3AZHRG4CU567VJG8H2M1RQNI58S03W","A2ZSL0EDN3H4AT","32XN26MTXZ5MP383W6LZYTLBY7P0LI","","422.60000000009313","img/food4.png","76","423.59999999962747","3","0","","3","1","1,0.7,0,1,0.7,0,0.7,0,1","0.7,0,1,0.7,0,1,0,1,0.7","2",""
"","html-keyboard-response","299","138734","0.0-387.0","3AZHRG4CU567VJG8H2M1RQNI58S03W","A2ZSL0EDN3H4AT","32XN26MTXZ5MP383W6LZYTLBY7P0LI","","null","<img src=""img/food4.png"" style=""width:200px;border:14px solid red;"">","null","","","","","","","","","",""
"","image-keyboard-response","300","139519","0.0-388.0","3AZHRG4CU567VJG8H2M1RQNI58S03W","A2ZSL0EDN3H4AT","32XN26MTXZ5MP383W6LZYTLBY7P0LI","","783.7000000001863","img/food4.png","75","784.0999999996275","2","1","","3","1","1,0.7,0,1,0.7,0,0.7,0,1","0.7,0,1,0.7,0,1,0,1,0.7","2",""
"","html-keyboard-response","301","139823","0.0-389.0","3AZHRG4CU567VJG8H2M1RQNI58S03W","A2ZSL0EDN3H4AT","32XN26MTXZ5MP383W6LZYTLBY7P0LI","","null","<img src=""img/food4.png"" style=""width:200px; border:14px solid green;"">","null","","","","","","","","","",""
"","image-keyboard-response","302","140404","0.0-390.0","3AZHRG4CU567VJG8H2M1RQNI58S03W","A2ZSL0EDN3H4AT","32XN26MTXZ5MP383W6LZYTLBY7P0LI","","580","img/food1.png","76","580.3999999999069","3","1","","1","1","1,0.7,0,1,0.7,0,0.7,0,1","0.7,0,1,0.7,0,1,0,1,0.7","2",""
"","html-keyboard-response","303","140708","0.0-391.0","3AZHRG4CU567VJG8H2M1RQNI58S03W","A2ZSL0EDN3H4AT","32XN26MTXZ5MP383W6LZYTLBY7P0LI","","null","<img src=""img/food1.png"" style=""width:200px; border:14px solid green;"">","null","","","","","","","","","",""
"","image-keyboard-response","304","141074","0.0-392.0","3AZHRG4CU567VJG8H2M1RQNI58S03W","A2ZSL0EDN3H4AT","32XN26MTXZ5MP383W6LZYTLBY7P0LI","","365.60000000009313","img/food1.png","76","366.09999999962747","3","1","","1","1","1,0.7,0,1,0.7,0,0.7,0,1","0.7,0,1,0.7,0,1,0,1,0.7","2",""
"","html-keyboard-response","305","141386","0.0-393.0","3AZHRG4CU567VJG8H2M1RQNI58S03W","A2ZSL0EDN3H4AT","32XN26MTXZ5MP383W6LZYTLBY7P0LI","","null","<img src=""img/food1.png"" style=""width:200px; border:14px solid green;"">","null","","","","","","","","","",""
"","image-keyboard-response","306","142307","0.0-394.0","3AZHRG4CU567VJG8H2M1RQNI58S03W","A2ZSL0EDN3H4AT","32XN26MTXZ5MP383W6LZYTLBY7P0LI","","920.6000000000931","img/food4.png","75","921.6000000000931","2","1","","3","1","1,0.7,0,1,0.7,0,0.7,0,1","0.7,0,1,0.7,0,1,0,1,0.7","2",""
"","html-keyboard-response","307","142615","0.0-395.0","3AZHRG4CU567VJG8H2M1RQNI58S03W","A2ZSL0EDN3H4AT","32XN26MTXZ5MP383W6LZYTLBY7P0LI","","null","<img src=""img/food4.png"" style=""width:200px; border:14px solid green;"">","null","","","","","","","","","",""
"","image-keyboard-response","308","143044","0.0-396.0","3AZHRG4CU567VJG8H2M1RQNI58S03W","A2ZSL0EDN3H4AT","32XN26MTXZ5MP383W6LZYTLBY7P0LI","","426.89999999990687","img/food4.png","75","428.3000000002794","2","1","","3","1","1,0.7,0,1,0.7,0,0.7,0,1","0.7,0,1,0.7,0,1,0,1,0.7","2",""
"","html-keyboard-response","309","143349","0.0-397.0","3AZHRG4CU567VJG8H2M1RQNI58S03W","A2ZSL0EDN3H4AT","32XN26MTXZ5MP383W6LZYTLBY7P0LI","","null","<img src=""img/food4.png"" style=""width:200px; border:14px solid green;"">","null","","","","","","","","","",""
"","image-keyboard-response","310","143862","0.0-398.0","3AZHRG4CU567VJG8H2M1RQNI58S03W","A2ZSL0EDN3H4AT","32XN26MTXZ5MP383W6LZYTLBY7P0LI","","513.2000000001863","img/food5.png","76","513.6999999997206","3","1","","2","1","1,0.7,0,1,0.7,0,0.7,0,1","0.7,0,1,0.7,0,1,0,1,0.7","2",""
"","html-keyboard-response","311","144165","0.0-399.0","3AZHRG4CU567VJG8H2M1RQNI58S03W","A2ZSL0EDN3H4AT","32XN26MTXZ5MP383W6LZYTLBY7P0LI","","null","<img src=""img/food5.png"" style=""width:200px; border:14px solid green;"">","null","","","","","","","","","",""
"","image-keyboard-response","312","144673","0.0-400.0","3AZHRG4CU567VJG8H2M1RQNI58S03W","A2ZSL0EDN3H4AT","32XN26MTXZ5MP383W6LZYTLBY7P0LI","","507.8000000002794","img/food4.png","76","508.1999999997206","3","1","","3","1","1,0.7,0,1,0.7,0,0.7,0,1","0.7,0,1,0.7,0,1,0,1,0.7","2",""
"","html-keyboard-response","313","144985","0.0-401.0","3AZHRG4CU567VJG8H2M1RQNI58S03W","A2ZSL0EDN3H4AT","32XN26MTXZ5MP383W6LZYTLBY7P0LI","","null","<img src=""img/food4.png"" style=""width:200px; border:14px solid green;"">","null","","","","","","","","","",""
"","image-keyboard-response","314","145623","0.0-402.0","3AZHRG4CU567VJG8H2M1RQNI58S03W","A2ZSL0EDN3H4AT","32XN26MTXZ5MP383W6LZYTLBY7P0LI","","636.8000000002794","img/food4.png","76","637.5","3","1","","3","1","1,0.7,0,1,0.7,0,0.7,0,1","0.7,0,1,0.7,0,1,0,1,0.7","2",""
"","html-keyboard-response","315","145929","0.0-403.0","3AZHRG4CU567VJG8H2M1RQNI58S03W","A2ZSL0EDN3H4AT","32XN26MTXZ5MP383W6LZYTLBY7P0LI","","null","<img src=""img/food4.png"" style=""width:200px; border:14px solid green;"">","null","","","","","","","","","",""
"","image-keyboard-response","316","146511","0.0-404.0","3AZHRG4CU567VJG8H2M1RQNI58S03W","A2ZSL0EDN3H4AT","32XN26MTXZ5MP383W6LZYTLBY7P0LI","","582","img/food5.png","76","582.6999999997206","3","1","","2","1","1,0.7,0,1,0.7,0,0.7,0,1","0.7,0,1,0.7,0,1,0,1,0.7","2",""
"","html-keyboard-response","317","146822","0.0-405.0","3AZHRG4CU567VJG8H2M1RQNI58S03W","A2ZSL0EDN3H4AT","32XN26MTXZ5MP383W6LZYTLBY7P0LI","","null","<img src=""img/food5.png"" style=""width:200px; border:14px solid green;"">","null","","","","","","","","","",""
"","image-keyboard-response","318","147297","0.0-406.0","3AZHRG4CU567VJG8H2M1RQNI58S03W","A2ZSL0EDN3H4AT","32XN26MTXZ5MP383W6LZYTLBY7P0LI","","474.5","img/food4.png","76","475.5","3","1","","3","1","1,0.7,0,1,0.7,0,0.7,0,1","0.7,0,1,0.7,0,1,0,1,0.7","2",""
"","html-keyboard-response","319","147610","0.0-407.0","3AZHRG4CU567VJG8H2M1RQNI58S03W","A2ZSL0EDN3H4AT","32XN26MTXZ5MP383W6LZYTLBY7P0LI","","null","<img src=""img/food4.png"" style=""width:200px; border:14px solid green;"">","null","","","","","","","","","",""
"","image-keyboard-response","320","148081","0.0-408.0","3AZHRG4CU567VJG8H2M1RQNI58S03W","A2ZSL0EDN3H4AT","32XN26MTXZ5MP383W6LZYTLBY7P0LI","","468.5","img/food5.png","76","470.59999999962747","3","1","","2","1","1,0.7,0,1,0.7,0,0.7,0,1","0.7,0,1,0.7,0,1,0,1,0.7","2",""
"","html-keyboard-response","321","148392","0.0-409.0","3AZHRG4CU567VJG8H2M1RQNI58S03W","A2ZSL0EDN3H4AT","32XN26MTXZ5MP383W6LZYTLBY7P0LI","","null","<img src=""img/food5.png"" style=""width:200px; border:14px solid green;"">","null","","","","","","","","","",""
"","image-keyboard-response","322","148781","0.0-410.0","3AZHRG4CU567VJG8H2M1RQNI58S03W","A2ZSL0EDN3H4AT","32XN26MTXZ5MP383W6LZYTLBY7P0LI","","386.70000000018626","img/food5.png","76","388.10000000009313","3","1","","2","1","1,0.7,0,1,0.7,0,0.7,0,1","0.7,0,1,0.7,0,1,0,1,0.7","2",""
"","html-keyboard-response","323","149086","0.0-411.0","3AZHRG4CU567VJG8H2M1RQNI58S03W","A2ZSL0EDN3H4AT","32XN26MTXZ5MP383W6LZYTLBY7P0LI","","null","<img src=""img/food5.png"" style=""width:200px; border:14px solid green;"">","null","","","","","","","","","",""
"","image-keyboard-response","324","149711","0.0-412.0","3AZHRG4CU567VJG8H2M1RQNI58S03W","A2ZSL0EDN3H4AT","32XN26MTXZ5MP383W6LZYTLBY7P0LI","","623.4000000003725","img/food1.png","76","624","3","1","","1","1","1,0.7,0,1,0.7,0,0.7,0,1","0.7,0,1,0.7,0,1,0,1,0.7","2",""
"","html-keyboard-response","325","150013","0.0-413.0","3AZHRG4CU567VJG8H2M1RQNI58S03W","A2ZSL0EDN3H4AT","32XN26MTXZ5MP383W6LZYTLBY7P0LI","","null","<img src=""img/food1.png"" style=""width:200px; border:14px solid green;"">","null","","","","","","","","","",""
"","image-keyboard-response","326","150830","0.0-414.0","3AZHRG4CU567VJG8H2M1RQNI58S03W","A2ZSL0EDN3H4AT","32XN26MTXZ5MP383W6LZYTLBY7P0LI","","816.6000000000931","img/food4.png","76","817","3","1","","3","1","1,0.7,0,1,0.7,0,0.7,0,1","0.7,0,1,0.7,0,1,0,1,0.7","2",""
"","html-keyboard-response","327","151133","0.0-415.0","3AZHRG4CU567VJG8H2M1RQNI58S03W","A2ZSL0EDN3H4AT","32XN26MTXZ5MP383W6LZYTLBY7P0LI","","null","<img src=""img/food4.png"" style=""width:200px; border:14px solid green;"">","null","","","","","","","","","",""
"","image-keyboard-response","328","151677","0.0-416.0","3AZHRG4CU567VJG8H2M1RQNI58S03W","A2ZSL0EDN3H4AT","32XN26MTXZ5MP383W6LZYTLBY7P0LI","","544","img/food5.png","76","544.5999999996275","3","1","","2","1","1,0.7,0,1,0.7,0,0.7,0,1","0.7,0,1,0.7,0,1,0,1,0.7","2",""
"","html-keyboard-response","329","151983","0.0-417.0","3AZHRG4CU567VJG8H2M1RQNI58S03W","A2ZSL0EDN3H4AT","32XN26MTXZ5MP383W6LZYTLBY7P0LI","","null","<img src=""img/food5.png"" style=""width:200px; border:14px solid green;"">","null","","","","","","","","","",""
"","image-keyboard-response","330","152557","0.0-418.0","3AZHRG4CU567VJG8H2M1RQNI58S03W","A2ZSL0EDN3H4AT","32XN26MTXZ5MP383W6LZYTLBY7P0LI","","572.6999999997206","img/food5.png","76","574.3000000002794","3","1","","2","1","1,0.7,0,1,0.7,0,0.7,0,1","0.7,0,1,0.7,0,1,0,1,0.7","2",""
"","html-keyboard-response","331","152865","0.0-419.0","3AZHRG4CU567VJG8H2M1RQNI58S03W","A2ZSL0EDN3H4AT","32XN26MTXZ5MP383W6LZYTLBY7P0LI","","null","<img src=""img/food5.png"" style=""width:200px; border:14px solid green;"">","null","","","","","","","","","",""
"","image-keyboard-response","332","153454","0.0-420.0","3AZHRG4CU567VJG8H2M1RQNI58S03W","A2ZSL0EDN3H4AT","32XN26MTXZ5MP383W6LZYTLBY7P0LI","","587.7999999998137","img/food4.png","76","589","3","1","","3","1","1,0.7,0,1,0.7,0,0.7,0,1","0.7,0,1,0.7,0,1,0,1,0.7","2",""
"","html-keyboard-response","333","153756","0.0-421.0","3AZHRG4CU567VJG8H2M1RQNI58S03W","A2ZSL0EDN3H4AT","32XN26MTXZ5MP383W6LZYTLBY7P0LI","","null","<img src=""img/food4.png"" style=""width:200px; border:14px solid green;"">","null","","","","","","","","","",""
"","image-keyboard-response","334","154387","0.0-422.0","3AZHRG4CU567VJG8H2M1RQNI58S03W","A2ZSL0EDN3H4AT","32XN26MTXZ5MP383W6LZYTLBY7P0LI","","630.2000000001863","img/food5.png","76","630.9000000003725","3","1","","2","1","1,0.7,0,1,0.7,0,0.7,0,1","0.7,0,1,0.7,0,1,0,1,0.7","2",""
"","html-keyboard-response","335","154697","0.0-423.0","3AZHRG4CU567VJG8H2M1RQNI58S03W","A2ZSL0EDN3H4AT","32XN26MTXZ5MP383W6LZYTLBY7P0LI","","null","<img src=""img/food5.png"" style=""width:200px; border:14px solid green;"">","null","","","","","","","","","",""
"","image-keyboard-response","336","155224","0.0-424.0","3AZHRG4CU567VJG8H2M1RQNI58S03W","A2ZSL0EDN3H4AT","32XN26MTXZ5MP383W6LZYTLBY7P0LI","","526.8000000002794","img/food4.png","76","527.5","3","0","","3","1","1,0.7,0,1,0.7,0,0.7,0,1","0.7,0,1,0.7,0,1,0,1,0.7","2",""
"","html-keyboard-response","337","155533","0.0-425.0","3AZHRG4CU567VJG8H2M1RQNI58S03W","A2ZSL0EDN3H4AT","32XN26MTXZ5MP383W6LZYTLBY7P0LI","","null","<img src=""img/food4.png"" style=""width:200px;border:14px solid red;"">","null","","","","","","","","","",""
"","image-keyboard-response","338","156165","0.0-426.0","3AZHRG4CU567VJG8H2M1RQNI58S03W","A2ZSL0EDN3H4AT","32XN26MTXZ5MP383W6LZYTLBY7P0LI","","631.5","img/food1.png","75","631.8999999999069","2","0","","1","1","1,0.7,0,1,0.7,0,0.7,0,1","0.7,0,1,0.7,0,1,0,1,0.7","2",""
"","html-keyboard-response","339","156471","0.0-427.0","3AZHRG4CU567VJG8H2M1RQNI58S03W","A2ZSL0EDN3H4AT","32XN26MTXZ5MP383W6LZYTLBY7P0LI","","null","<img src=""img/food1.png"" style=""width:200px;border:14px solid red;"">","null","","","","","","","","","",""
"","image-keyboard-response","340","156804","0.0-428.0","3AZHRG4CU567VJG8H2M1RQNI58S03W","A2ZSL0EDN3H4AT","32XN26MTXZ5MP383W6LZYTLBY7P0LI","","330.29999999981374","img/food1.png","76","332","3","1","","1","1","1,0.7,0,1,0.7,0,0.7,0,1","0.7,0,1,0.7,0,1,0,1,0.7","2",""
"","html-keyboard-response","341","157113","0.0-429.0","3AZHRG4CU567VJG8H2M1RQNI58S03W","A2ZSL0EDN3H4AT","32XN26MTXZ5MP383W6LZYTLBY7P0LI","","null","<img src=""img/food1.png"" style=""width:200px; border:14px solid green;"">","null","","","","","","","","","",""
"","image-keyboard-response","342","157912","0.0-430.0","3AZHRG4CU567VJG8H2M1RQNI58S03W","A2ZSL0EDN3H4AT","32XN26MTXZ5MP383W6LZYTLBY7P0LI","","798.3999999999069","img/food4.png","76","799.2000000001863","3","0","","3","1","1,0.7,0,1,0.7,0,0.7,0,1","0.7,0,1,0.7,0,1,0,1,0.7","2",""
"","html-keyboard-response","343","158225","0.0-431.0","3AZHRG4CU567VJG8H2M1RQNI58S03W","A2ZSL0EDN3H4AT","32XN26MTXZ5MP383W6LZYTLBY7P0LI","","null","<img src=""img/food4.png"" style=""width:200px;border:14px solid red;"">","null","","","","","","","","","",""
"","image-keyboard-response","344","158950","0.0-432.0","3AZHRG4CU567VJG8H2M1RQNI58S03W","A2ZSL0EDN3H4AT","32XN26MTXZ5MP383W6LZYTLBY7P0LI","","723.8999999999069","img/food5.png","75","724.5","2","0","","2","1","1,0.7,0,1,0.7,0,0.7,0,1","0.7,0,1,0.7,0,1,0,1,0.7","2",""
"","html-keyboard-response","345","159257","0.0-433.0","3AZHRG4CU567VJG8H2M1RQNI58S03W","A2ZSL0EDN3H4AT","32XN26MTXZ5MP383W6LZYTLBY7P0LI","","null","<img src=""img/food5.png"" style=""width:200px;border:14px solid red;"">","null","","","","","","","","","",""
"","image-keyboard-response","346","159889","0.0-434.0","3AZHRG4CU567VJG8H2M1RQNI58S03W","A2ZSL0EDN3H4AT","32XN26MTXZ5MP383W6LZYTLBY7P0LI","","631.8999999999069","img/food1.png","74","632.3000000002794","1","1","","1","1","1,0.7,0,1,0.7,0,0.7,0,1","0.7,0,1,0.7,0,1,0,1,0.7","2",""
"","html-keyboard-response","347","160198","0.0-435.0","3AZHRG4CU567VJG8H2M1RQNI58S03W","A2ZSL0EDN3H4AT","32XN26MTXZ5MP383W6LZYTLBY7P0LI","","null","<img src=""img/food1.png"" style=""width:200px; border:14px solid green;"">","null","","","","","","","","","",""
"","image-keyboard-response","348","160768","0.0-436.0","3AZHRG4CU567VJG8H2M1RQNI58S03W","A2ZSL0EDN3H4AT","32XN26MTXZ5MP383W6LZYTLBY7P0LI","","569.6000000000931","img/food1.png","74","570.1999999997206","1","1","","1","1","1,0.7,0,1,0.7,0,0.7,0,1","0.7,0,1,0.7,0,1,0,1,0.7","2",""
"","html-keyboard-response","349","161081","0.0-437.0","3AZHRG4CU567VJG8H2M1RQNI58S03W","A2ZSL0EDN3H4AT","32XN26MTXZ5MP383W6LZYTLBY7P0LI","","null","<img src=""img/food1.png"" style=""width:200px; border:14px solid green;"">","null","","","","","","","","","",""
"","image-keyboard-response","350","161723","0.0-438.0","3AZHRG4CU567VJG8H2M1RQNI58S03W","A2ZSL0EDN3H4AT","32XN26MTXZ5MP383W6LZYTLBY7P0LI","","640.8000000002794","img/food4.png","76","641.8999999999069","3","1","","3","1","1,0.7,0,1,0.7,0,0.7,0,1","0.7,0,1,0.7,0,1,0,1,0.7","2",""
"","html-keyboard-response","351","162029","0.0-439.0","3AZHRG4CU567VJG8H2M1RQNI58S03W","A2ZSL0EDN3H4AT","32XN26MTXZ5MP383W6LZYTLBY7P0LI","","null","<img src=""img/food4.png"" style=""width:200px; border:14px solid green;"">","null","","","","","","","","","",""
"","image-keyboard-response","352","162665","0.0-440.0","3AZHRG4CU567VJG8H2M1RQNI58S03W","A2ZSL0EDN3H4AT","32XN26MTXZ5MP383W6LZYTLBY7P0LI","","634.5","img/food1.png","74","635.5999999996275","1","0","","1","1","1,0.7,0,1,0.7,0,0.7,0,1","0.7,0,1,0.7,0,1,0,1,0.7","2",""
"","html-keyboard-response","353","162976","0.0-441.0","3AZHRG4CU567VJG8H2M1RQNI58S03W","A2ZSL0EDN3H4AT","32XN26MTXZ5MP383W6LZYTLBY7P0LI","","null","<img src=""img/food1.png"" style=""width:200px;border:14px solid red;"">","null","","","","","","","","","",""
"","image-keyboard-response","354","163523","0.0-442.0","3AZHRG4CU567VJG8H2M1RQNI58S03W","A2ZSL0EDN3H4AT","32XN26MTXZ5MP383W6LZYTLBY7P0LI","","546.2000000001863","img/food1.png","75","546.6000000000931","2","0","","1","1","1,0.7,0,1,0.7,0,0.7,0,1","0.7,0,1,0.7,0,1,0,1,0.7","2",""
"","html-keyboard-response","355","163833","0.0-443.0","3AZHRG4CU567VJG8H2M1RQNI58S03W","A2ZSL0EDN3H4AT","32XN26MTXZ5MP383W6LZYTLBY7P0LI","","null","<img src=""img/food1.png"" style=""width:200px;border:14px solid red;"">","null","","","","","","","","","",""
"","image-keyboard-response","356","164185","0.0-444.0","3AZHRG4CU567VJG8H2M1RQNI58S03W","A2ZSL0EDN3H4AT","32XN26MTXZ5MP383W6LZYTLBY7P0LI","","351.10000000009313","img/food1.png","76","351.39999999990687","3","1","","1","1","1,0.7,0,1,0.7,0,0.7,0,1","0.7,0,1,0.7,0,1,0,1,0.7","2",""
"","html-keyboard-response","357","164496","0.0-445.0","3AZHRG4CU567VJG8H2M1RQNI58S03W","A2ZSL0EDN3H4AT","32XN26MTXZ5MP383W6LZYTLBY7P0LI","","null","<img src=""img/food1.png"" style=""width:200px; border:14px solid green;"">","null","","","","","","","","","",""
"","image-keyboard-response","358","165085","0.0-446.0","3AZHRG4CU567VJG8H2M1RQNI58S03W","A2ZSL0EDN3H4AT","32XN26MTXZ5MP383W6LZYTLBY7P0LI","","588.6000000000931","img/food4.png","76","589","3","0","","3","1","1,0.7,0,1,0.7,0,0.7,0,1","0.7,0,1,0.7,0,1,0,1,0.7","2",""
"","html-keyboard-response","359","165388","0.0-447.0","3AZHRG4CU567VJG8H2M1RQNI58S03W","A2ZSL0EDN3H4AT","32XN26MTXZ5MP383W6LZYTLBY7P0LI","","null","<img src=""img/food4.png"" style=""width:200px;border:14px solid red;"">","null","","","","","","","","","",""
"","image-keyboard-response","360","165792","0.0-448.0","3AZHRG4CU567VJG8H2M1RQNI58S03W","A2ZSL0EDN3H4AT","32XN26MTXZ5MP383W6LZYTLBY7P0LI","","402.79999999981374","img/food1.png","74","403.20000000018626","1","0","","1","1","1,0.7,0,1,0.7,0,0.7,0,1","0.7,0,1,0.7,0,1,0,1,0.7","2",""
"","html-keyboard-response","361","166105","0.0-449.0","3AZHRG4CU567VJG8H2M1RQNI58S03W","A2ZSL0EDN3H4AT","32XN26MTXZ5MP383W6LZYTLBY7P0LI","","null","<img src=""img/food1.png"" style=""width:200px;border:14px solid red;"">","null","","","","","","","","","",""
"","image-keyboard-response","362","166608","0.0-450.0","3AZHRG4CU567VJG8H2M1RQNI58S03W","A2ZSL0EDN3H4AT","32XN26MTXZ5MP383W6LZYTLBY7P0LI","","501.10000000009313","img/food1.png","75","502.39999999990687","2","0","","1","1","1,0.7,0,1,0.7,0,0.7,0,1","0.7,0,1,0.7,0,1,0,1,0.7","2",""
"","html-keyboard-response","363","166918","0.0-451.0","3AZHRG4CU567VJG8H2M1RQNI58S03W","A2ZSL0EDN3H4AT","32XN26MTXZ5MP383W6LZYTLBY7P0LI","","null","<img src=""img/food1.png"" style=""width:200px;border:14px solid red;"">","null","","","","","","","","","",""
"","image-keyboard-response","364","167291","0.0-452.0","3AZHRG4CU567VJG8H2M1RQNI58S03W","A2ZSL0EDN3H4AT","32XN26MTXZ5MP383W6LZYTLBY7P0LI","","371.89999999990687","img/food4.png","76","372.39999999990687","3","1","","3","1","1,0.7,0,1,0.7,0,0.7,0,1","0.7,0,1,0.7,0,1,0,1,0.7","2",""
"","html-keyboard-response","365","167596","0.0-453.0","3AZHRG4CU567VJG8H2M1RQNI58S03W","A2ZSL0EDN3H4AT","32XN26MTXZ5MP383W6LZYTLBY7P0LI","","null","<img src=""img/food4.png"" style=""width:200px; border:14px solid green;"">","null","","","","","","","","","",""
"","html-keyboard-response","366","170132","0.0-454.0","3AZHRG4CU567VJG8H2M1RQNI58S03W","A2ZSL0EDN3H4AT","32XN26MTXZ5MP383W6LZYTLBY7P0LI","","","","","","","","","","","","","",""
"","instructions","367","173506","0.0-455.0","3AZHRG4CU567VJG8H2M1RQNI58S03W","A2ZSL0EDN3H4AT","32XN26MTXZ5MP383W6LZYTLBY7P0LI","[{""page_index"":0,""viewing_time"":3374.0999999996275}]","3374.2999999998137","","","","","","","","","","","",""
"","survey-text","368","177477","0.0-456.0","3AZHRG4CU567VJG8H2M1RQNI58S03W","A2ZSL0EDN3H4AT","32XN26MTXZ5MP383W6LZYTLBY7P0LI","","3969.100000000093","","","","","","","","","","","","{""Q0"":""A2ZSL0EDN3H4AT""}"
