"success","trial_type","trial_index","time_elapsed","internal_node_id","assignmentID","mturkID","hitID","view_history","rt","stimulus","key_press","reactionTime","a","r","warning","s","cond","reward_cond","reward_cond_actual","reward_matrix_idx","responses"
"true","fullscreen","0","3126","0.0-0.0","3SB5N7Y3O4Q8PVSWCHTLAKCRAAH0GJ","A307K1CZXGBN4L","3MXX6RQ9EVRTFC527Z18RDK8KW6P4R","","","","","","","","","","","","","",""
"","instructions","1","42612","0.0-1.0","3SB5N7Y3O4Q8PVSWCHTLAKCRAAH0GJ","A307K1CZXGBN4L","3MXX6RQ9EVRTFC527Z18RDK8KW6P4R","[{""page_index"":0,""viewing_time"":3547},{""page_index"":1,""viewing_time"":4381},{""page_index"":2,""viewing_time"":5235},{""page_index"":3,""viewing_time"":11127},{""page_index"":4,""viewing_time"":5061},{""page_index"":5,""viewing_time"":8899},{""page_index"":6,""viewing_time"":1231}]","39482","","","","","","","","","","","",""
"","instructions","2","56592","0.0-2.0","3SB5N7Y3O4Q8PVSWCHTLAKCRAAH0GJ","A307K1CZXGBN4L","3MXX6RQ9EVRTFC527Z18RDK8KW6P4R","[{""page_index"":0,""viewing_time"":12387},{""page_index"":1,""viewing_time"":1587}]","13974","","","","","","","","","","","",""
"","image-keyboard-response","3","56819","0.0-3.0","3SB5N7Y3O4Q8PVSWCHTLAKCRAAH0GJ","A307K1CZXGBN4L","3MXX6RQ9EVRTFC527Z18RDK8KW6P4R","","220","img/food3.png","74","225","1","0","false","3","2","1,0.5,0,1,0.5,0,0.5,0,1","1,0.5,0,1,0.5,0,0.5,0,1","1",""
"","html-keyboard-response","4","57124","0.0-4.0","3SB5N7Y3O4Q8PVSWCHTLAKCRAAH0GJ","A307K1CZXGBN4L","3MXX6RQ9EVRTFC527Z18RDK8KW6P4R","","null","<img src=""img/food3.png"" style=""width:200px;border:14px solid red;"">","null","","","","","","","","","",""
"","image-keyboard-response","5","57265","0.0-6.0","3SB5N7Y3O4Q8PVSWCHTLAKCRAAH0GJ","A307K1CZXGBN4L","3MXX6RQ9EVRTFC527Z18RDK8KW6P4R","","136","img/food4.png","74","139","1","1","false","1","2","1,0.5,0,1,0.5,0,0.5,0,1","1,0.5,0,1,0.5,0,0.5,0,1","1",""
"","html-keyboard-response","6","57569","0.0-7.0","3SB5N7Y3O4Q8PVSWCHTLAKCRAAH0GJ","A307K1CZXGBN4L","3MXX6RQ9EVRTFC527Z18RDK8KW6P4R","","null","<img src=""img/food4.png"" style=""width:200px; border:14px solid green;"">","null","","","","","","","","","",""
"","image-keyboard-response","7","57701","0.0-9.0","3SB5N7Y3O4Q8PVSWCHTLAKCRAAH0GJ","A307K1CZXGBN4L","3MXX6RQ9EVRTFC527Z18RDK8KW6P4R","","129","img/food4.png","74","131","1","1","false","1","2","1,0.5,0,1,0.5,0,0.5,0,1","1,0.5,0,1,0.5,0,0.5,0,1","1",""
"","html-keyboard-response","8","58004","0.0-10.0","3SB5N7Y3O4Q8PVSWCHTLAKCRAAH0GJ","A307K1CZXGBN4L","3MXX6RQ9EVRTFC527Z18RDK8KW6P4R","","null","<img src=""img/food4.png"" style=""width:200px; border:14px solid green;"">","null","","","","","","","","","",""
"","image-keyboard-response","9","58207","0.0-12.0","3SB5N7Y3O4Q8PVSWCHTLAKCRAAH0GJ","A307K1CZXGBN4L","3MXX6RQ9EVRTFC527Z18RDK8KW6P4R","","196","img/food4.png","74","202","1","1","false","1","2","1,0.5,0,1,0.5,0,0.5,0,1","1,0.5,0,1,0.5,0,0.5,0,1","1",""
"","html-keyboard-response","10","58510","0.0-13.0","3SB5N7Y3O4Q8PVSWCHTLAKCRAAH0GJ","A307K1CZXGBN4L","3MXX6RQ9EVRTFC527Z18RDK8KW6P4R","","null","<img src=""img/food4.png"" style=""width:200px; border:14px solid green;"">","null","","","","","","","","","",""
"","image-keyboard-response","11","58733","0.0-15.0","3SB5N7Y3O4Q8PVSWCHTLAKCRAAH0GJ","A307K1CZXGBN4L","3MXX6RQ9EVRTFC527Z18RDK8KW6P4R","","220","img/food3.png","74","222","1","0","false","3","2","1,0.5,0,1,0.5,0,0.5,0,1","1,0.5,0,1,0.5,0,0.5,0,1","1",""
"","html-keyboard-response","12","59036","0.0-16.0","3SB5N7Y3O4Q8PVSWCHTLAKCRAAH0GJ","A307K1CZXGBN4L","3MXX6RQ9EVRTFC527Z18RDK8KW6P4R","","null","<img src=""img/food3.png"" style=""width:200px;border:14px solid red;"">","null","","","","","","","","","",""
"","image-keyboard-response","13","59260","0.0-18.0","3SB5N7Y3O4Q8PVSWCHTLAKCRAAH0GJ","A307K1CZXGBN4L","3MXX6RQ9EVRTFC527Z18RDK8KW6P4R","","222","img/food3.png","74","223","1","0","false","3","2","1,0.5,0,1,0.5,0,0.5,0,1","1,0.5,0,1,0.5,0,0.5,0,1","1",""
"","html-keyboard-response","14","59562","0.0-19.0","3SB5N7Y3O4Q8PVSWCHTLAKCRAAH0GJ","A307K1CZXGBN4L","3MXX6RQ9EVRTFC527Z18RDK8KW6P4R","","null","<img src=""img/food3.png"" style=""width:200px;border:14px solid red;"">","null","","","","","","","","","",""
"","image-keyboard-response","15","59750","0.0-21.0","3SB5N7Y3O4Q8PVSWCHTLAKCRAAH0GJ","A307K1CZXGBN4L","3MXX6RQ9EVRTFC527Z18RDK8KW6P4R","","185","img/food3.png","74","186","1","1","false","3","2","1,0.5,0,1,0.5,0,0.5,0,1","1,0.5,0,1,0.5,0,0.5,0,1","1",""
"","html-keyboard-response","16","60053","0.0-22.0","3SB5N7Y3O4Q8PVSWCHTLAKCRAAH0GJ","A307K1CZXGBN4L","3MXX6RQ9EVRTFC527Z18RDK8KW6P4R","","null","<img src=""img/food3.png"" style=""width:200px; border:14px solid green;"">","null","","","","","","","","","",""
"","image-keyboard-response","17","60215","0.0-24.0","3SB5N7Y3O4Q8PVSWCHTLAKCRAAH0GJ","A307K1CZXGBN4L","3MXX6RQ9EVRTFC527Z18RDK8KW6P4R","","160","img/food5.png","74","161","1","1","false","2","2","1,0.5,0,1,0.5,0,0.5,0,1","1,0.5,0,1,0.5,0,0.5,0,1","1",""
"","html-keyboard-response","18","60516","0.0-25.0","3SB5N7Y3O4Q8PVSWCHTLAKCRAAH0GJ","A307K1CZXGBN4L","3MXX6RQ9EVRTFC527Z18RDK8KW6P4R","","null","<img src=""img/food5.png"" style=""width:200px; border:14px solid green;"">","null","","","","","","","","","",""
"","image-keyboard-response","19","60725","0.0-27.0","3SB5N7Y3O4Q8PVSWCHTLAKCRAAH0GJ","A307K1CZXGBN4L","3MXX6RQ9EVRTFC527Z18RDK8KW6P4R","","207","img/food3.png","74","208","1","1","false","3","2","1,0.5,0,1,0.5,0,0.5,0,1","1,0.5,0,1,0.5,0,0.5,0,1","1",""
"","html-keyboard-response","20","61027","0.0-28.0","3SB5N7Y3O4Q8PVSWCHTLAKCRAAH0GJ","A307K1CZXGBN4L","3MXX6RQ9EVRTFC527Z18RDK8KW6P4R","","null","<img src=""img/food3.png"" style=""width:200px; border:14px solid green;"">","null","","","","","","","","","",""
"","image-keyboard-response","21","61173","0.0-30.0","3SB5N7Y3O4Q8PVSWCHTLAKCRAAH0GJ","A307K1CZXGBN4L","3MXX6RQ9EVRTFC527Z18RDK8KW6P4R","","143","img/food5.png","74","145","1","1","false","2","2","1,0.5,0,1,0.5,0,0.5,0,1","1,0.5,0,1,0.5,0,0.5,0,1","1",""
"","html-keyboard-response","22","61476","0.0-31.0","3SB5N7Y3O4Q8PVSWCHTLAKCRAAH0GJ","A307K1CZXGBN4L","3MXX6RQ9EVRTFC527Z18RDK8KW6P4R","","null","<img src=""img/food5.png"" style=""width:200px; border:14px solid green;"">","null","","","","","","","","","",""
"","image-keyboard-response","23","61676","0.0-33.0","3SB5N7Y3O4Q8PVSWCHTLAKCRAAH0GJ","A307K1CZXGBN4L","3MXX6RQ9EVRTFC527Z18RDK8KW6P4R","","198","img/food3.png","74","200","1","0","false","3","2","1,0.5,0,1,0.5,0,0.5,0,1","1,0.5,0,1,0.5,0,0.5,0,1","1",""
"","html-keyboard-response","24","61979","0.0-34.0","3SB5N7Y3O4Q8PVSWCHTLAKCRAAH0GJ","A307K1CZXGBN4L","3MXX6RQ9EVRTFC527Z18RDK8KW6P4R","","null","<img src=""img/food3.png"" style=""width:200px;border:14px solid red;"">","null","","","","","","","","","",""
"","image-keyboard-response","25","62158","0.0-36.0","3SB5N7Y3O4Q8PVSWCHTLAKCRAAH0GJ","A307K1CZXGBN4L","3MXX6RQ9EVRTFC527Z18RDK8KW6P4R","","177","img/food5.png","74","179","1","1","false","2","2","1,0.5,0,1,0.5,0,0.5,0,1","1,0.5,0,1,0.5,0,0.5,0,1","1",""
"","html-keyboard-response","26","62461","0.0-37.0","3SB5N7Y3O4Q8PVSWCHTLAKCRAAH0GJ","A307K1CZXGBN4L","3MXX6RQ9EVRTFC527Z18RDK8KW6P4R","","null","<img src=""img/food5.png"" style=""width:200px; border:14px solid green;"">","null","","","","","","","","","",""
"","image-keyboard-response","27","62621","0.0-39.0","3SB5N7Y3O4Q8PVSWCHTLAKCRAAH0GJ","A307K1CZXGBN4L","3MXX6RQ9EVRTFC527Z18RDK8KW6P4R","","158","img/food4.png","74","159","1","1","false","1","2","1,0.5,0,1,0.5,0,0.5,0,1","1,0.5,0,1,0.5,0,0.5,0,1","1",""
"","html-keyboard-response","28","62924","0.0-40.0","3SB5N7Y3O4Q8PVSWCHTLAKCRAAH0GJ","A307K1CZXGBN4L","3MXX6RQ9EVRTFC527Z18RDK8KW6P4R","","null","<img src=""img/food4.png"" style=""width:200px; border:14px solid green;"">","null","","","","","","","","","",""
"","image-keyboard-response","29","63103","0.0-42.0","3SB5N7Y3O4Q8PVSWCHTLAKCRAAH0GJ","A307K1CZXGBN4L","3MXX6RQ9EVRTFC527Z18RDK8KW6P4R","","177","img/food3.png","74","179","1","0","false","3","2","1,0.5,0,1,0.5,0,0.5,0,1","1,0.5,0,1,0.5,0,0.5,0,1","1",""
"","html-keyboard-response","30","63408","0.0-43.0","3SB5N7Y3O4Q8PVSWCHTLAKCRAAH0GJ","A307K1CZXGBN4L","3MXX6RQ9EVRTFC527Z18RDK8KW6P4R","","null","<img src=""img/food3.png"" style=""width:200px;border:14px solid red;"">","null","","","","","","","","","",""
"","image-keyboard-response","31","63581","0.0-45.0","3SB5N7Y3O4Q8PVSWCHTLAKCRAAH0GJ","A307K1CZXGBN4L","3MXX6RQ9EVRTFC527Z18RDK8KW6P4R","","171","img/food3.png","74","173","1","1","false","3","2","1,0.5,0,1,0.5,0,0.5,0,1","1,0.5,0,1,0.5,0,0.5,0,1","1",""
"","html-keyboard-response","32","63883","0.0-46.0","3SB5N7Y3O4Q8PVSWCHTLAKCRAAH0GJ","A307K1CZXGBN4L","3MXX6RQ9EVRTFC527Z18RDK8KW6P4R","","null","<img src=""img/food3.png"" style=""width:200px; border:14px solid green;"">","null","","","","","","","","","",""
"","image-keyboard-response","33","64104","0.0-48.0","3SB5N7Y3O4Q8PVSWCHTLAKCRAAH0GJ","A307K1CZXGBN4L","3MXX6RQ9EVRTFC527Z18RDK8KW6P4R","","218","img/food3.png","74","219","1","1","false","3","2","1,0.5,0,1,0.5,0,0.5,0,1","1,0.5,0,1,0.5,0,0.5,0,1","1",""
"","html-keyboard-response","34","64406","0.0-49.0","3SB5N7Y3O4Q8PVSWCHTLAKCRAAH0GJ","A307K1CZXGBN4L","3MXX6RQ9EVRTFC527Z18RDK8KW6P4R","","null","<img src=""img/food3.png"" style=""width:200px; border:14px solid green;"">","null","","","","","","","","","",""
"","image-keyboard-response","35","64518","0.0-51.0","3SB5N7Y3O4Q8PVSWCHTLAKCRAAH0GJ","A307K1CZXGBN4L","3MXX6RQ9EVRTFC527Z18RDK8KW6P4R","","110","img/food3.png","74","112","1","0","false","3","2","1,0.5,0,1,0.5,0,0.5,0,1","1,0.5,0,1,0.5,0,0.5,0,1","1",""
"","html-keyboard-response","36","64821","0.0-52.0","3SB5N7Y3O4Q8PVSWCHTLAKCRAAH0GJ","A307K1CZXGBN4L","3MXX6RQ9EVRTFC527Z18RDK8KW6P4R","","null","<img src=""img/food3.png"" style=""width:200px;border:14px solid red;"">","null","","","","","","","","","",""
"","image-keyboard-response","37","65364","0.0-54.0","3SB5N7Y3O4Q8PVSWCHTLAKCRAAH0GJ","A307K1CZXGBN4L","3MXX6RQ9EVRTFC527Z18RDK8KW6P4R","","536","img/food3.png","74","537","1","1","false","3","2","1,0.5,0,1,0.5,0,0.5,0,1","1,0.5,0,1,0.5,0,0.5,0,1","1",""
"","html-keyboard-response","38","65666","0.0-55.0","3SB5N7Y3O4Q8PVSWCHTLAKCRAAH0GJ","A307K1CZXGBN4L","3MXX6RQ9EVRTFC527Z18RDK8KW6P4R","","null","<img src=""img/food3.png"" style=""width:200px; border:14px solid green;"">","null","","","","","","","","","",""
"","image-keyboard-response","39","65803","0.0-57.0","3SB5N7Y3O4Q8PVSWCHTLAKCRAAH0GJ","A307K1CZXGBN4L","3MXX6RQ9EVRTFC527Z18RDK8KW6P4R","","134","img/food5.png","74","136","1","1","false","2","2","1,0.5,0,1,0.5,0,0.5,0,1","1,0.5,0,1,0.5,0,0.5,0,1","1",""
"","html-keyboard-response","40","66105","0.0-58.0","3SB5N7Y3O4Q8PVSWCHTLAKCRAAH0GJ","A307K1CZXGBN4L","3MXX6RQ9EVRTFC527Z18RDK8KW6P4R","","null","<img src=""img/food5.png"" style=""width:200px; border:14px solid green;"">","null","","","","","","","","","",""
"","image-keyboard-response","41","66185","0.0-60.0","3SB5N7Y3O4Q8PVSWCHTLAKCRAAH0GJ","A307K1CZXGBN4L","3MXX6RQ9EVRTFC527Z18RDK8KW6P4R","","78","img/food4.png","74","79","1","1","false","1","2","1,0.5,0,1,0.5,0,0.5,0,1","1,0.5,0,1,0.5,0,0.5,0,1","1",""
"","html-keyboard-response","42","66487","0.0-61.0","3SB5N7Y3O4Q8PVSWCHTLAKCRAAH0GJ","A307K1CZXGBN4L","3MXX6RQ9EVRTFC527Z18RDK8KW6P4R","","null","<img src=""img/food4.png"" style=""width:200px; border:14px solid green;"">","null","","","","","","","","","",""
"","image-keyboard-response","43","66590","0.0-63.0","3SB5N7Y3O4Q8PVSWCHTLAKCRAAH0GJ","A307K1CZXGBN4L","3MXX6RQ9EVRTFC527Z18RDK8KW6P4R","","101","img/food4.png","74","102","1","1","false","1","2","1,0.5,0,1,0.5,0,0.5,0,1","1,0.5,0,1,0.5,0,0.5,0,1","1",""
"","html-keyboard-response","44","66892","0.0-64.0","3SB5N7Y3O4Q8PVSWCHTLAKCRAAH0GJ","A307K1CZXGBN4L","3MXX6RQ9EVRTFC527Z18RDK8KW6P4R","","null","<img src=""img/food4.png"" style=""width:200px; border:14px solid green;"">","null","","","","","","","","","",""
"","image-keyboard-response","45","67056","0.0-66.0","3SB5N7Y3O4Q8PVSWCHTLAKCRAAH0GJ","A307K1CZXGBN4L","3MXX6RQ9EVRTFC527Z18RDK8KW6P4R","","162","img/food3.png","74","164","1","0","false","3","2","1,0.5,0,1,0.5,0,0.5,0,1","1,0.5,0,1,0.5,0,0.5,0,1","1",""
"","html-keyboard-response","46","67359","0.0-67.0","3SB5N7Y3O4Q8PVSWCHTLAKCRAAH0GJ","A307K1CZXGBN4L","3MXX6RQ9EVRTFC527Z18RDK8KW6P4R","","null","<img src=""img/food3.png"" style=""width:200px;border:14px solid red;"">","null","","","","","","","","","",""
"","image-keyboard-response","47","67477","0.0-69.0","3SB5N7Y3O4Q8PVSWCHTLAKCRAAH0GJ","A307K1CZXGBN4L","3MXX6RQ9EVRTFC527Z18RDK8KW6P4R","","116","img/food3.png","74","117","1","1","false","3","2","1,0.5,0,1,0.5,0,0.5,0,1","1,0.5,0,1,0.5,0,0.5,0,1","1",""
"","html-keyboard-response","48","67780","0.0-70.0","3SB5N7Y3O4Q8PVSWCHTLAKCRAAH0GJ","A307K1CZXGBN4L","3MXX6RQ9EVRTFC527Z18RDK8KW6P4R","","null","<img src=""img/food3.png"" style=""width:200px; border:14px solid green;"">","null","","","","","","","","","",""
"","image-keyboard-response","49","67909","0.0-72.0","3SB5N7Y3O4Q8PVSWCHTLAKCRAAH0GJ","A307K1CZXGBN4L","3MXX6RQ9EVRTFC527Z18RDK8KW6P4R","","127","img/food3.png","74","129","1","0","false","3","2","1,0.5,0,1,0.5,0,0.5,0,1","1,0.5,0,1,0.5,0,0.5,0,1","1",""
"","html-keyboard-response","50","68212","0.0-73.0","3SB5N7Y3O4Q8PVSWCHTLAKCRAAH0GJ","A307K1CZXGBN4L","3MXX6RQ9EVRTFC527Z18RDK8KW6P4R","","null","<img src=""img/food3.png"" style=""width:200px;border:14px solid red;"">","null","","","","","","","","","",""
"","image-keyboard-response","51","68358","0.0-75.0","3SB5N7Y3O4Q8PVSWCHTLAKCRAAH0GJ","A307K1CZXGBN4L","3MXX6RQ9EVRTFC527Z18RDK8KW6P4R","","144","img/food4.png","74","146","1","1","false","1","2","1,0.5,0,1,0.5,0,0.5,0,1","1,0.5,0,1,0.5,0,0.5,0,1","1",""
"","html-keyboard-response","52","68661","0.0-76.0","3SB5N7Y3O4Q8PVSWCHTLAKCRAAH0GJ","A307K1CZXGBN4L","3MXX6RQ9EVRTFC527Z18RDK8KW6P4R","","null","<img src=""img/food4.png"" style=""width:200px; border:14px solid green;"">","null","","","","","","","","","",""
"","image-keyboard-response","53","68807","0.0-78.0","3SB5N7Y3O4Q8PVSWCHTLAKCRAAH0GJ","A307K1CZXGBN4L","3MXX6RQ9EVRTFC527Z18RDK8KW6P4R","","143","img/food4.png","74","144","1","1","false","1","2","1,0.5,0,1,0.5,0,0.5,0,1","1,0.5,0,1,0.5,0,0.5,0,1","1",""
"","html-keyboard-response","54","69110","0.0-79.0","3SB5N7Y3O4Q8PVSWCHTLAKCRAAH0GJ","A307K1CZXGBN4L","3MXX6RQ9EVRTFC527Z18RDK8KW6P4R","","null","<img src=""img/food4.png"" style=""width:200px; border:14px solid green;"">","null","","","","","","","","","",""
"","image-keyboard-response","55","69256","0.0-81.0","3SB5N7Y3O4Q8PVSWCHTLAKCRAAH0GJ","A307K1CZXGBN4L","3MXX6RQ9EVRTFC527Z18RDK8KW6P4R","","144","img/food5.png","74","145","1","1","false","2","2","1,0.5,0,1,0.5,0,0.5,0,1","1,0.5,0,1,0.5,0,0.5,0,1","1",""
"","html-keyboard-response","56","69557","0.0-82.0","3SB5N7Y3O4Q8PVSWCHTLAKCRAAH0GJ","A307K1CZXGBN4L","3MXX6RQ9EVRTFC527Z18RDK8KW6P4R","","null","<img src=""img/food5.png"" style=""width:200px; border:14px solid green;"">","null","","","","","","","","","",""
"","image-keyboard-response","57","69717","0.0-84.0","3SB5N7Y3O4Q8PVSWCHTLAKCRAAH0GJ","A307K1CZXGBN4L","3MXX6RQ9EVRTFC527Z18RDK8KW6P4R","","158","img/food3.png","74","159","1","0","false","3","2","1,0.5,0,1,0.5,0,0.5,0,1","1,0.5,0,1,0.5,0,0.5,0,1","1",""
"","html-keyboard-response","58","70021","0.0-85.0","3SB5N7Y3O4Q8PVSWCHTLAKCRAAH0GJ","A307K1CZXGBN4L","3MXX6RQ9EVRTFC527Z18RDK8KW6P4R","","null","<img src=""img/food3.png"" style=""width:200px;border:14px solid red;"">","null","","","","","","","","","",""
"","image-keyboard-response","59","70167","0.0-87.0","3SB5N7Y3O4Q8PVSWCHTLAKCRAAH0GJ","A307K1CZXGBN4L","3MXX6RQ9EVRTFC527Z18RDK8KW6P4R","","144","img/food5.png","74","144","1","1","false","2","2","1,0.5,0,1,0.5,0,0.5,0,1","1,0.5,0,1,0.5,0,0.5,0,1","1",""
"","html-keyboard-response","60","70469","0.0-88.0","3SB5N7Y3O4Q8PVSWCHTLAKCRAAH0GJ","A307K1CZXGBN4L","3MXX6RQ9EVRTFC527Z18RDK8KW6P4R","","null","<img src=""img/food5.png"" style=""width:200px; border:14px solid green;"">","null","","","","","","","","","",""
"","image-keyboard-response","61","70596","0.0-90.0","3SB5N7Y3O4Q8PVSWCHTLAKCRAAH0GJ","A307K1CZXGBN4L","3MXX6RQ9EVRTFC527Z18RDK8KW6P4R","","125","img/food4.png","74","126","1","1","false","1","2","1,0.5,0,1,0.5,0,0.5,0,1","1,0.5,0,1,0.5,0,0.5,0,1","1",""
"","html-keyboard-response","62","70899","0.0-91.0","3SB5N7Y3O4Q8PVSWCHTLAKCRAAH0GJ","A307K1CZXGBN4L","3MXX6RQ9EVRTFC527Z18RDK8KW6P4R","","null","<img src=""img/food4.png"" style=""width:200px; border:14px solid green;"">","null","","","","","","","","","",""
"","image-keyboard-response","63","71061","0.0-93.0","3SB5N7Y3O4Q8PVSWCHTLAKCRAAH0GJ","A307K1CZXGBN4L","3MXX6RQ9EVRTFC527Z18RDK8KW6P4R","","160","img/food5.png","74","162","1","1","false","2","2","1,0.5,0,1,0.5,0,0.5,0,1","1,0.5,0,1,0.5,0,0.5,0,1","1",""
"","html-keyboard-response","64","71364","0.0-94.0","3SB5N7Y3O4Q8PVSWCHTLAKCRAAH0GJ","A307K1CZXGBN4L","3MXX6RQ9EVRTFC527Z18RDK8KW6P4R","","null","<img src=""img/food5.png"" style=""width:200px; border:14px solid green;"">","null","","","","","","","","","",""
"","image-keyboard-response","65","71515","0.0-96.0","3SB5N7Y3O4Q8PVSWCHTLAKCRAAH0GJ","A307K1CZXGBN4L","3MXX6RQ9EVRTFC527Z18RDK8KW6P4R","","148","img/food5.png","74","149","1","1","false","2","2","1,0.5,0,1,0.5,0,0.5,0,1","1,0.5,0,1,0.5,0,0.5,0,1","1",""
"","html-keyboard-response","66","71817","0.0-97.0","3SB5N7Y3O4Q8PVSWCHTLAKCRAAH0GJ","A307K1CZXGBN4L","3MXX6RQ9EVRTFC527Z18RDK8KW6P4R","","null","<img src=""img/food5.png"" style=""width:200px; border:14px solid green;"">","null","","","","","","","","","",""
"","image-keyboard-response","67","71946","0.0-99.0","3SB5N7Y3O4Q8PVSWCHTLAKCRAAH0GJ","A307K1CZXGBN4L","3MXX6RQ9EVRTFC527Z18RDK8KW6P4R","","122","img/food3.png","74","123","1","0","false","3","2","1,0.5,0,1,0.5,0,0.5,0,1","1,0.5,0,1,0.5,0,0.5,0,1","1",""
"","html-keyboard-response","68","72248","0.0-100.0","3SB5N7Y3O4Q8PVSWCHTLAKCRAAH0GJ","A307K1CZXGBN4L","3MXX6RQ9EVRTFC527Z18RDK8KW6P4R","","null","<img src=""img/food3.png"" style=""width:200px;border:14px solid red;"">","null","","","","","","","","","",""
"","image-keyboard-response","69","72381","0.0-102.0","3SB5N7Y3O4Q8PVSWCHTLAKCRAAH0GJ","A307K1CZXGBN4L","3MXX6RQ9EVRTFC527Z18RDK8KW6P4R","","131","img/food5.png","74","132","1","1","false","2","2","1,0.5,0,1,0.5,0,0.5,0,1","1,0.5,0,1,0.5,0,0.5,0,1","1",""
"","html-keyboard-response","70","72688","0.0-103.0","3SB5N7Y3O4Q8PVSWCHTLAKCRAAH0GJ","A307K1CZXGBN4L","3MXX6RQ9EVRTFC527Z18RDK8KW6P4R","","null","<img src=""img/food5.png"" style=""width:200px; border:14px solid green;"">","null","","","","","","","","","",""
"","image-keyboard-response","71","72854","0.0-105.0","3SB5N7Y3O4Q8PVSWCHTLAKCRAAH0GJ","A307K1CZXGBN4L","3MXX6RQ9EVRTFC527Z18RDK8KW6P4R","","164","img/food4.png","74","166","1","1","false","1","2","1,0.5,0,1,0.5,0,0.5,0,1","1,0.5,0,1,0.5,0,0.5,0,1","1",""
"","html-keyboard-response","72","73159","0.0-106.0","3SB5N7Y3O4Q8PVSWCHTLAKCRAAH0GJ","A307K1CZXGBN4L","3MXX6RQ9EVRTFC527Z18RDK8KW6P4R","","null","<img src=""img/food4.png"" style=""width:200px; border:14px solid green;"">","null","","","","","","","","","",""
"","image-keyboard-response","73","73237","0.0-108.0","3SB5N7Y3O4Q8PVSWCHTLAKCRAAH0GJ","A307K1CZXGBN4L","3MXX6RQ9EVRTFC527Z18RDK8KW6P4R","","76","img/food3.png","74","77","1","1","false","3","2","1,0.5,0,1,0.5,0,0.5,0,1","1,0.5,0,1,0.5,0,0.5,0,1","1",""
"","html-keyboard-response","74","73539","0.0-109.0","3SB5N7Y3O4Q8PVSWCHTLAKCRAAH0GJ","A307K1CZXGBN4L","3MXX6RQ9EVRTFC527Z18RDK8KW6P4R","","null","<img src=""img/food3.png"" style=""width:200px; border:14px solid green;"">","null","","","","","","","","","",""
"","image-keyboard-response","75","73725","0.0-111.0","3SB5N7Y3O4Q8PVSWCHTLAKCRAAH0GJ","A307K1CZXGBN4L","3MXX6RQ9EVRTFC527Z18RDK8KW6P4R","","183","img/food4.png","74","184","1","1","false","1","2","1,0.5,0,1,0.5,0,0.5,0,1","1,0.5,0,1,0.5,0,0.5,0,1","1",""
"","html-keyboard-response","76","74026","0.0-112.0","3SB5N7Y3O4Q8PVSWCHTLAKCRAAH0GJ","A307K1CZXGBN4L","3MXX6RQ9EVRTFC527Z18RDK8KW6P4R","","null","<img src=""img/food4.png"" style=""width:200px; border:14px solid green;"">","null","","","","","","","","","",""
"","image-keyboard-response","77","74184","0.0-114.0","3SB5N7Y3O4Q8PVSWCHTLAKCRAAH0GJ","A307K1CZXGBN4L","3MXX6RQ9EVRTFC527Z18RDK8KW6P4R","","156","img/food4.png","74","157","1","1","false","1","2","1,0.5,0,1,0.5,0,0.5,0,1","1,0.5,0,1,0.5,0,0.5,0,1","1",""
"","html-keyboard-response","78","74486","0.0-115.0","3SB5N7Y3O4Q8PVSWCHTLAKCRAAH0GJ","A307K1CZXGBN4L","3MXX6RQ9EVRTFC527Z18RDK8KW6P4R","","null","<img src=""img/food4.png"" style=""width:200px; border:14px solid green;"">","null","","","","","","","","","",""
"","image-keyboard-response","79","74598","0.0-117.0","3SB5N7Y3O4Q8PVSWCHTLAKCRAAH0GJ","A307K1CZXGBN4L","3MXX6RQ9EVRTFC527Z18RDK8KW6P4R","","108","img/food5.png","74","110","1","1","false","2","2","1,0.5,0,1,0.5,0,0.5,0,1","1,0.5,0,1,0.5,0,0.5,0,1","1",""
"","html-keyboard-response","80","74900","0.0-118.0","3SB5N7Y3O4Q8PVSWCHTLAKCRAAH0GJ","A307K1CZXGBN4L","3MXX6RQ9EVRTFC527Z18RDK8KW6P4R","","null","<img src=""img/food5.png"" style=""width:200px; border:14px solid green;"">","null","","","","","","","","","",""
"","image-keyboard-response","81","75067","0.0-120.0","3SB5N7Y3O4Q8PVSWCHTLAKCRAAH0GJ","A307K1CZXGBN4L","3MXX6RQ9EVRTFC527Z18RDK8KW6P4R","","164","img/food5.png","74","167","1","1","false","2","2","1,0.5,0,1,0.5,0,0.5,0,1","1,0.5,0,1,0.5,0,0.5,0,1","1",""
"","html-keyboard-response","82","75369","0.0-121.0","3SB5N7Y3O4Q8PVSWCHTLAKCRAAH0GJ","A307K1CZXGBN4L","3MXX6RQ9EVRTFC527Z18RDK8KW6P4R","","null","<img src=""img/food5.png"" style=""width:200px; border:14px solid green;"">","null","","","","","","","","","",""
"","image-keyboard-response","83","75525","0.0-123.0","3SB5N7Y3O4Q8PVSWCHTLAKCRAAH0GJ","A307K1CZXGBN4L","3MXX6RQ9EVRTFC527Z18RDK8KW6P4R","","152","img/food3.png","74","155","1","1","false","3","2","1,0.5,0,1,0.5,0,0.5,0,1","1,0.5,0,1,0.5,0,0.5,0,1","1",""
"","html-keyboard-response","84","75828","0.0-124.0","3SB5N7Y3O4Q8PVSWCHTLAKCRAAH0GJ","A307K1CZXGBN4L","3MXX6RQ9EVRTFC527Z18RDK8KW6P4R","","null","<img src=""img/food3.png"" style=""width:200px; border:14px solid green;"">","null","","","","","","","","","",""
"","image-keyboard-response","85","75967","0.0-126.0","3SB5N7Y3O4Q8PVSWCHTLAKCRAAH0GJ","A307K1CZXGBN4L","3MXX6RQ9EVRTFC527Z18RDK8KW6P4R","","137","img/food4.png","74","139","1","1","false","1","2","1,0.5,0,1,0.5,0,0.5,0,1","1,0.5,0,1,0.5,0,0.5,0,1","1",""
"","html-keyboard-response","86","76270","0.0-127.0","3SB5N7Y3O4Q8PVSWCHTLAKCRAAH0GJ","A307K1CZXGBN4L","3MXX6RQ9EVRTFC527Z18RDK8KW6P4R","","null","<img src=""img/food4.png"" style=""width:200px; border:14px solid green;"">","null","","","","","","","","","",""
"","image-keyboard-response","87","76412","0.0-129.0","3SB5N7Y3O4Q8PVSWCHTLAKCRAAH0GJ","A307K1CZXGBN4L","3MXX6RQ9EVRTFC527Z18RDK8KW6P4R","","139","img/food4.png","74","141","1","1","false","1","2","1,0.5,0,1,0.5,0,0.5,0,1","1,0.5,0,1,0.5,0,0.5,0,1","1",""
"","html-keyboard-response","88","76714","0.0-130.0","3SB5N7Y3O4Q8PVSWCHTLAKCRAAH0GJ","A307K1CZXGBN4L","3MXX6RQ9EVRTFC527Z18RDK8KW6P4R","","null","<img src=""img/food4.png"" style=""width:200px; border:14px solid green;"">","null","","","","","","","","","",""
"","image-keyboard-response","89","76864","0.0-132.0","3SB5N7Y3O4Q8PVSWCHTLAKCRAAH0GJ","A307K1CZXGBN4L","3MXX6RQ9EVRTFC527Z18RDK8KW6P4R","","149","img/food3.png","74","150","1","0","false","3","2","1,0.5,0,1,0.5,0,0.5,0,1","1,0.5,0,1,0.5,0,0.5,0,1","1",""
"","html-keyboard-response","90","77167","0.0-133.0","3SB5N7Y3O4Q8PVSWCHTLAKCRAAH0GJ","A307K1CZXGBN4L","3MXX6RQ9EVRTFC527Z18RDK8KW6P4R","","null","<img src=""img/food3.png"" style=""width:200px;border:14px solid red;"">","null","","","","","","","","","",""
"","image-keyboard-response","91","77325","0.0-135.0","3SB5N7Y3O4Q8PVSWCHTLAKCRAAH0GJ","A307K1CZXGBN4L","3MXX6RQ9EVRTFC527Z18RDK8KW6P4R","","155","img/food4.png","74","157","1","1","false","1","2","1,0.5,0,1,0.5,0,0.5,0,1","1,0.5,0,1,0.5,0,0.5,0,1","1",""
"","html-keyboard-response","92","77626","0.0-136.0","3SB5N7Y3O4Q8PVSWCHTLAKCRAAH0GJ","A307K1CZXGBN4L","3MXX6RQ9EVRTFC527Z18RDK8KW6P4R","","null","<img src=""img/food4.png"" style=""width:200px; border:14px solid green;"">","null","","","","","","","","","",""
"","image-keyboard-response","93","77790","0.0-138.0","3SB5N7Y3O4Q8PVSWCHTLAKCRAAH0GJ","A307K1CZXGBN4L","3MXX6RQ9EVRTFC527Z18RDK8KW6P4R","","161","img/food5.png","74","162","1","1","false","2","2","1,0.5,0,1,0.5,0,0.5,0,1","1,0.5,0,1,0.5,0,0.5,0,1","1",""
"","html-keyboard-response","94","78093","0.0-139.0","3SB5N7Y3O4Q8PVSWCHTLAKCRAAH0GJ","A307K1CZXGBN4L","3MXX6RQ9EVRTFC527Z18RDK8KW6P4R","","null","<img src=""img/food5.png"" style=""width:200px; border:14px solid green;"">","null","","","","","","","","","",""
"","image-keyboard-response","95","78245","0.0-141.0","3SB5N7Y3O4Q8PVSWCHTLAKCRAAH0GJ","A307K1CZXGBN4L","3MXX6RQ9EVRTFC527Z18RDK8KW6P4R","","147","img/food3.png","74","151","1","0","false","3","2","1,0.5,0,1,0.5,0,0.5,0,1","1,0.5,0,1,0.5,0,0.5,0,1","1",""
"","html-keyboard-response","96","78548","0.0-142.0","3SB5N7Y3O4Q8PVSWCHTLAKCRAAH0GJ","A307K1CZXGBN4L","3MXX6RQ9EVRTFC527Z18RDK8KW6P4R","","null","<img src=""img/food3.png"" style=""width:200px;border:14px solid red;"">","null","","","","","","","","","",""
"","image-keyboard-response","97","78717","0.0-144.0","3SB5N7Y3O4Q8PVSWCHTLAKCRAAH0GJ","A307K1CZXGBN4L","3MXX6RQ9EVRTFC527Z18RDK8KW6P4R","","166","img/food3.png","74","168","1","1","false","3","2","1,0.5,0,1,0.5,0,0.5,0,1","1,0.5,0,1,0.5,0,0.5,0,1","1",""
"","html-keyboard-response","98","79020","0.0-145.0","3SB5N7Y3O4Q8PVSWCHTLAKCRAAH0GJ","A307K1CZXGBN4L","3MXX6RQ9EVRTFC527Z18RDK8KW6P4R","","null","<img src=""img/food3.png"" style=""width:200px; border:14px solid green;"">","null","","","","","","","","","",""
"","image-keyboard-response","99","79157","0.0-147.0","3SB5N7Y3O4Q8PVSWCHTLAKCRAAH0GJ","A307K1CZXGBN4L","3MXX6RQ9EVRTFC527Z18RDK8KW6P4R","","134","img/food5.png","74","136","1","1","false","2","2","1,0.5,0,1,0.5,0,0.5,0,1","1,0.5,0,1,0.5,0,0.5,0,1","1",""
"","html-keyboard-response","100","79460","0.0-148.0","3SB5N7Y3O4Q8PVSWCHTLAKCRAAH0GJ","A307K1CZXGBN4L","3MXX6RQ9EVRTFC527Z18RDK8KW6P4R","","null","<img src=""img/food5.png"" style=""width:200px; border:14px solid green;"">","null","","","","","","","","","",""
"","image-keyboard-response","101","79589","0.0-150.0","3SB5N7Y3O4Q8PVSWCHTLAKCRAAH0GJ","A307K1CZXGBN4L","3MXX6RQ9EVRTFC527Z18RDK8KW6P4R","","127","img/food3.png","74","129","1","1","false","3","2","1,0.5,0,1,0.5,0,0.5,0,1","1,0.5,0,1,0.5,0,0.5,0,1","1",""
"","html-keyboard-response","102","79891","0.0-151.0","3SB5N7Y3O4Q8PVSWCHTLAKCRAAH0GJ","A307K1CZXGBN4L","3MXX6RQ9EVRTFC527Z18RDK8KW6P4R","","null","<img src=""img/food3.png"" style=""width:200px; border:14px solid green;"">","null","","","","","","","","","",""
"","image-keyboard-response","103","80046","0.0-153.0","3SB5N7Y3O4Q8PVSWCHTLAKCRAAH0GJ","A307K1CZXGBN4L","3MXX6RQ9EVRTFC527Z18RDK8KW6P4R","","153","img/food5.png","74","155","1","1","false","2","2","1,0.5,0,1,0.5,0,0.5,0,1","1,0.5,0,1,0.5,0,0.5,0,1","1",""
"","html-keyboard-response","104","80349","0.0-154.0","3SB5N7Y3O4Q8PVSWCHTLAKCRAAH0GJ","A307K1CZXGBN4L","3MXX6RQ9EVRTFC527Z18RDK8KW6P4R","","null","<img src=""img/food5.png"" style=""width:200px; border:14px solid green;"">","null","","","","","","","","","",""
"","image-keyboard-response","105","80502","0.0-156.0","3SB5N7Y3O4Q8PVSWCHTLAKCRAAH0GJ","A307K1CZXGBN4L","3MXX6RQ9EVRTFC527Z18RDK8KW6P4R","","150","img/food4.png","74","152","1","1","false","1","2","1,0.5,0,1,0.5,0,0.5,0,1","1,0.5,0,1,0.5,0,0.5,0,1","1",""
"","html-keyboard-response","106","80804","0.0-157.0","3SB5N7Y3O4Q8PVSWCHTLAKCRAAH0GJ","A307K1CZXGBN4L","3MXX6RQ9EVRTFC527Z18RDK8KW6P4R","","null","<img src=""img/food4.png"" style=""width:200px; border:14px solid green;"">","null","","","","","","","","","",""
"","image-keyboard-response","107","80962","0.0-159.0","3SB5N7Y3O4Q8PVSWCHTLAKCRAAH0GJ","A307K1CZXGBN4L","3MXX6RQ9EVRTFC527Z18RDK8KW6P4R","","156","img/food5.png","74","157","1","1","false","2","2","1,0.5,0,1,0.5,0,0.5,0,1","1,0.5,0,1,0.5,0,0.5,0,1","1",""
"","html-keyboard-response","108","81265","0.0-160.0","3SB5N7Y3O4Q8PVSWCHTLAKCRAAH0GJ","A307K1CZXGBN4L","3MXX6RQ9EVRTFC527Z18RDK8KW6P4R","","null","<img src=""img/food5.png"" style=""width:200px; border:14px solid green;"">","null","","","","","","","","","",""
"","image-keyboard-response","109","81392","0.0-162.0","3SB5N7Y3O4Q8PVSWCHTLAKCRAAH0GJ","A307K1CZXGBN4L","3MXX6RQ9EVRTFC527Z18RDK8KW6P4R","","124","img/food5.png","74","127","1","1","false","2","2","1,0.5,0,1,0.5,0,0.5,0,1","1,0.5,0,1,0.5,0,0.5,0,1","1",""
"","html-keyboard-response","110","81694","0.0-163.0","3SB5N7Y3O4Q8PVSWCHTLAKCRAAH0GJ","A307K1CZXGBN4L","3MXX6RQ9EVRTFC527Z18RDK8KW6P4R","","null","<img src=""img/food5.png"" style=""width:200px; border:14px solid green;"">","null","","","","","","","","","",""
"","image-keyboard-response","111","81860","0.0-165.0","3SB5N7Y3O4Q8PVSWCHTLAKCRAAH0GJ","A307K1CZXGBN4L","3MXX6RQ9EVRTFC527Z18RDK8KW6P4R","","163","img/food5.png","74","165","1","1","false","2","2","1,0.5,0,1,0.5,0,0.5,0,1","1,0.5,0,1,0.5,0,0.5,0,1","1",""
"","html-keyboard-response","112","82172","0.0-166.0","3SB5N7Y3O4Q8PVSWCHTLAKCRAAH0GJ","A307K1CZXGBN4L","3MXX6RQ9EVRTFC527Z18RDK8KW6P4R","","null","<img src=""img/food5.png"" style=""width:200px; border:14px solid green;"">","null","","","","","","","","","",""
"","image-keyboard-response","113","82256","0.0-168.0","3SB5N7Y3O4Q8PVSWCHTLAKCRAAH0GJ","A307K1CZXGBN4L","3MXX6RQ9EVRTFC527Z18RDK8KW6P4R","","82","img/food3.png","74","83","1","0","false","3","2","1,0.5,0,1,0.5,0,0.5,0,1","1,0.5,0,1,0.5,0,0.5,0,1","1",""
"","html-keyboard-response","114","82558","0.0-169.0","3SB5N7Y3O4Q8PVSWCHTLAKCRAAH0GJ","A307K1CZXGBN4L","3MXX6RQ9EVRTFC527Z18RDK8KW6P4R","","null","<img src=""img/food3.png"" style=""width:200px;border:14px solid red;"">","null","","","","","","","","","",""
"","image-keyboard-response","115","82716","0.0-171.0","3SB5N7Y3O4Q8PVSWCHTLAKCRAAH0GJ","A307K1CZXGBN4L","3MXX6RQ9EVRTFC527Z18RDK8KW6P4R","","157","img/food5.png","74","159","1","1","false","2","2","1,0.5,0,1,0.5,0,0.5,0,1","1,0.5,0,1,0.5,0,0.5,0,1","1",""
"","html-keyboard-response","116","83019","0.0-172.0","3SB5N7Y3O4Q8PVSWCHTLAKCRAAH0GJ","A307K1CZXGBN4L","3MXX6RQ9EVRTFC527Z18RDK8KW6P4R","","null","<img src=""img/food5.png"" style=""width:200px; border:14px solid green;"">","null","","","","","","","","","",""
"","image-keyboard-response","117","83173","0.0-174.0","3SB5N7Y3O4Q8PVSWCHTLAKCRAAH0GJ","A307K1CZXGBN4L","3MXX6RQ9EVRTFC527Z18RDK8KW6P4R","","152","img/food5.png","74","153","1","1","false","2","2","1,0.5,0,1,0.5,0,0.5,0,1","1,0.5,0,1,0.5,0,0.5,0,1","1",""
"","html-keyboard-response","118","83476","0.0-175.0","3SB5N7Y3O4Q8PVSWCHTLAKCRAAH0GJ","A307K1CZXGBN4L","3MXX6RQ9EVRTFC527Z18RDK8KW6P4R","","null","<img src=""img/food5.png"" style=""width:200px; border:14px solid green;"">","null","","","","","","","","","",""
"","image-keyboard-response","119","83629","0.0-177.0","3SB5N7Y3O4Q8PVSWCHTLAKCRAAH0GJ","A307K1CZXGBN4L","3MXX6RQ9EVRTFC527Z18RDK8KW6P4R","","153","img/food4.png","74","153","1","1","false","1","2","1,0.5,0,1,0.5,0,0.5,0,1","1,0.5,0,1,0.5,0,0.5,0,1","1",""
"","html-keyboard-response","120","83932","0.0-178.0","3SB5N7Y3O4Q8PVSWCHTLAKCRAAH0GJ","A307K1CZXGBN4L","3MXX6RQ9EVRTFC527Z18RDK8KW6P4R","","null","<img src=""img/food4.png"" style=""width:200px; border:14px solid green;"">","null","","","","","","","","","",""
"","image-keyboard-response","121","84053","0.0-180.0","3SB5N7Y3O4Q8PVSWCHTLAKCRAAH0GJ","A307K1CZXGBN4L","3MXX6RQ9EVRTFC527Z18RDK8KW6P4R","","118","img/food4.png","74","120","1","1","false","1","2","1,0.5,0,1,0.5,0,0.5,0,1","1,0.5,0,1,0.5,0,0.5,0,1","1",""
"","html-keyboard-response","122","84355","0.0-181.0","3SB5N7Y3O4Q8PVSWCHTLAKCRAAH0GJ","A307K1CZXGBN4L","3MXX6RQ9EVRTFC527Z18RDK8KW6P4R","","null","<img src=""img/food4.png"" style=""width:200px; border:14px solid green;"">","null","","","","","","","","","",""
"","image-keyboard-response","123","84517","0.0-183.0","3SB5N7Y3O4Q8PVSWCHTLAKCRAAH0GJ","A307K1CZXGBN4L","3MXX6RQ9EVRTFC527Z18RDK8KW6P4R","","159","img/food3.png","74","161","1","0","false","3","2","1,0.5,0,1,0.5,0,0.5,0,1","1,0.5,0,1,0.5,0,0.5,0,1","1",""
"","html-keyboard-response","124","84821","0.0-184.0","3SB5N7Y3O4Q8PVSWCHTLAKCRAAH0GJ","A307K1CZXGBN4L","3MXX6RQ9EVRTFC527Z18RDK8KW6P4R","","null","<img src=""img/food3.png"" style=""width:200px;border:14px solid red;"">","null","","","","","","","","","",""
"","image-keyboard-response","125","84941","0.0-186.0","3SB5N7Y3O4Q8PVSWCHTLAKCRAAH0GJ","A307K1CZXGBN4L","3MXX6RQ9EVRTFC527Z18RDK8KW6P4R","","118","img/food3.png","74","120","1","1","false","3","2","1,0.5,0,1,0.5,0,0.5,0,1","1,0.5,0,1,0.5,0,0.5,0,1","1",""
"","html-keyboard-response","126","85243","0.0-187.0","3SB5N7Y3O4Q8PVSWCHTLAKCRAAH0GJ","A307K1CZXGBN4L","3MXX6RQ9EVRTFC527Z18RDK8KW6P4R","","null","<img src=""img/food3.png"" style=""width:200px; border:14px solid green;"">","null","","","","","","","","","",""
"","image-keyboard-response","127","85389","0.0-189.0","3SB5N7Y3O4Q8PVSWCHTLAKCRAAH0GJ","A307K1CZXGBN4L","3MXX6RQ9EVRTFC527Z18RDK8KW6P4R","","144","img/food3.png","74","145","1","0","false","3","2","1,0.5,0,1,0.5,0,0.5,0,1","1,0.5,0,1,0.5,0,0.5,0,1","1",""
"","html-keyboard-response","128","85691","0.0-190.0","3SB5N7Y3O4Q8PVSWCHTLAKCRAAH0GJ","A307K1CZXGBN4L","3MXX6RQ9EVRTFC527Z18RDK8KW6P4R","","null","<img src=""img/food3.png"" style=""width:200px;border:14px solid red;"">","null","","","","","","","","","",""
"","image-keyboard-response","129","85837","0.0-192.0","3SB5N7Y3O4Q8PVSWCHTLAKCRAAH0GJ","A307K1CZXGBN4L","3MXX6RQ9EVRTFC527Z18RDK8KW6P4R","","144","img/food4.png","74","146","1","1","false","1","2","1,0.5,0,1,0.5,0,0.5,0,1","1,0.5,0,1,0.5,0,0.5,0,1","1",""
"","html-keyboard-response","130","86139","0.0-193.0","3SB5N7Y3O4Q8PVSWCHTLAKCRAAH0GJ","A307K1CZXGBN4L","3MXX6RQ9EVRTFC527Z18RDK8KW6P4R","","null","<img src=""img/food4.png"" style=""width:200px; border:14px solid green;"">","null","","","","","","","","","",""
"","image-keyboard-response","131","86287","0.0-195.0","3SB5N7Y3O4Q8PVSWCHTLAKCRAAH0GJ","A307K1CZXGBN4L","3MXX6RQ9EVRTFC527Z18RDK8KW6P4R","","146","img/food5.png","74","147","1","1","false","2","2","1,0.5,0,1,0.5,0,0.5,0,1","1,0.5,0,1,0.5,0,0.5,0,1","1",""
"","html-keyboard-response","132","86589","0.0-196.0","3SB5N7Y3O4Q8PVSWCHTLAKCRAAH0GJ","A307K1CZXGBN4L","3MXX6RQ9EVRTFC527Z18RDK8KW6P4R","","null","<img src=""img/food5.png"" style=""width:200px; border:14px solid green;"">","null","","","","","","","","","",""
"","image-keyboard-response","133","86729","0.0-198.0","3SB5N7Y3O4Q8PVSWCHTLAKCRAAH0GJ","A307K1CZXGBN4L","3MXX6RQ9EVRTFC527Z18RDK8KW6P4R","","138","img/food5.png","74","139","1","1","false","2","2","1,0.5,0,1,0.5,0,0.5,0,1","1,0.5,0,1,0.5,0,0.5,0,1","1",""
"","html-keyboard-response","134","87032","0.0-199.0","3SB5N7Y3O4Q8PVSWCHTLAKCRAAH0GJ","A307K1CZXGBN4L","3MXX6RQ9EVRTFC527Z18RDK8KW6P4R","","null","<img src=""img/food5.png"" style=""width:200px; border:14px solid green;"">","null","","","","","","","","","",""
"","image-keyboard-response","135","87151","0.0-201.0","3SB5N7Y3O4Q8PVSWCHTLAKCRAAH0GJ","A307K1CZXGBN4L","3MXX6RQ9EVRTFC527Z18RDK8KW6P4R","","116","img/food4.png","74","118","1","1","false","1","2","1,0.5,0,1,0.5,0,0.5,0,1","1,0.5,0,1,0.5,0,0.5,0,1","1",""
"","html-keyboard-response","136","87453","0.0-202.0","3SB5N7Y3O4Q8PVSWCHTLAKCRAAH0GJ","A307K1CZXGBN4L","3MXX6RQ9EVRTFC527Z18RDK8KW6P4R","","null","<img src=""img/food4.png"" style=""width:200px; border:14px solid green;"">","null","","","","","","","","","",""
"","image-keyboard-response","137","87596","0.0-204.0","3SB5N7Y3O4Q8PVSWCHTLAKCRAAH0GJ","A307K1CZXGBN4L","3MXX6RQ9EVRTFC527Z18RDK8KW6P4R","","143","img/food5.png","74","144","1","1","false","2","2","1,0.5,0,1,0.5,0,0.5,0,1","1,0.5,0,1,0.5,0,0.5,0,1","1",""
"","html-keyboard-response","138","87899","0.0-205.0","3SB5N7Y3O4Q8PVSWCHTLAKCRAAH0GJ","A307K1CZXGBN4L","3MXX6RQ9EVRTFC527Z18RDK8KW6P4R","","null","<img src=""img/food5.png"" style=""width:200px; border:14px solid green;"">","null","","","","","","","","","",""
"","image-keyboard-response","139","88031","0.0-207.0","3SB5N7Y3O4Q8PVSWCHTLAKCRAAH0GJ","A307K1CZXGBN4L","3MXX6RQ9EVRTFC527Z18RDK8KW6P4R","","130","img/food3.png","74","131","1","1","false","3","2","1,0.5,0,1,0.5,0,0.5,0,1","1,0.5,0,1,0.5,0,0.5,0,1","1",""
"","html-keyboard-response","140","88334","0.0-208.0","3SB5N7Y3O4Q8PVSWCHTLAKCRAAH0GJ","A307K1CZXGBN4L","3MXX6RQ9EVRTFC527Z18RDK8KW6P4R","","null","<img src=""img/food3.png"" style=""width:200px; border:14px solid green;"">","null","","","","","","","","","",""
"","image-keyboard-response","141","88501","0.0-210.0","3SB5N7Y3O4Q8PVSWCHTLAKCRAAH0GJ","A307K1CZXGBN4L","3MXX6RQ9EVRTFC527Z18RDK8KW6P4R","","163","img/food4.png","74","165","1","1","false","1","2","1,0.5,0,1,0.5,0,0.5,0,1","1,0.5,0,1,0.5,0,0.5,0,1","1",""
"","html-keyboard-response","142","88802","0.0-211.0","3SB5N7Y3O4Q8PVSWCHTLAKCRAAH0GJ","A307K1CZXGBN4L","3MXX6RQ9EVRTFC527Z18RDK8KW6P4R","","null","<img src=""img/food4.png"" style=""width:200px; border:14px solid green;"">","null","","","","","","","","","",""
"","image-keyboard-response","143","88933","0.0-213.0","3SB5N7Y3O4Q8PVSWCHTLAKCRAAH0GJ","A307K1CZXGBN4L","3MXX6RQ9EVRTFC527Z18RDK8KW6P4R","","128","img/food5.png","74","130","1","1","false","2","2","1,0.5,0,1,0.5,0,0.5,0,1","1,0.5,0,1,0.5,0,0.5,0,1","1",""
"","html-keyboard-response","144","89235","0.0-214.0","3SB5N7Y3O4Q8PVSWCHTLAKCRAAH0GJ","A307K1CZXGBN4L","3MXX6RQ9EVRTFC527Z18RDK8KW6P4R","","null","<img src=""img/food5.png"" style=""width:200px; border:14px solid green;"">","null","","","","","","","","","",""
"","image-keyboard-response","145","89373","0.0-216.0","3SB5N7Y3O4Q8PVSWCHTLAKCRAAH0GJ","A307K1CZXGBN4L","3MXX6RQ9EVRTFC527Z18RDK8KW6P4R","","136","img/food4.png","74","138","1","1","false","1","2","1,0.5,0,1,0.5,0,0.5,0,1","1,0.5,0,1,0.5,0,0.5,0,1","1",""
"","html-keyboard-response","146","89676","0.0-217.0","3SB5N7Y3O4Q8PVSWCHTLAKCRAAH0GJ","A307K1CZXGBN4L","3MXX6RQ9EVRTFC527Z18RDK8KW6P4R","","null","<img src=""img/food4.png"" style=""width:200px; border:14px solid green;"">","null","","","","","","","","","",""
"","image-keyboard-response","147","89853","0.0-219.0","3SB5N7Y3O4Q8PVSWCHTLAKCRAAH0GJ","A307K1CZXGBN4L","3MXX6RQ9EVRTFC527Z18RDK8KW6P4R","","174","img/food4.png","74","176","1","1","false","1","2","1,0.5,0,1,0.5,0,0.5,0,1","1,0.5,0,1,0.5,0,0.5,0,1","1",""
"","html-keyboard-response","148","90156","0.0-220.0","3SB5N7Y3O4Q8PVSWCHTLAKCRAAH0GJ","A307K1CZXGBN4L","3MXX6RQ9EVRTFC527Z18RDK8KW6P4R","","null","<img src=""img/food4.png"" style=""width:200px; border:14px solid green;"">","null","","","","","","","","","",""
"","image-keyboard-response","149","90335","0.0-222.0","3SB5N7Y3O4Q8PVSWCHTLAKCRAAH0GJ","A307K1CZXGBN4L","3MXX6RQ9EVRTFC527Z18RDK8KW6P4R","","176","img/food4.png","74","178","1","1","false","1","2","1,0.5,0,1,0.5,0,0.5,0,1","1,0.5,0,1,0.5,0,0.5,0,1","1",""
"","html-keyboard-response","150","90637","0.0-223.0","3SB5N7Y3O4Q8PVSWCHTLAKCRAAH0GJ","A307K1CZXGBN4L","3MXX6RQ9EVRTFC527Z18RDK8KW6P4R","","null","<img src=""img/food4.png"" style=""width:200px; border:14px solid green;"">","null","","","","","","","","","",""
"","image-keyboard-response","151","90773","0.0-225.0","3SB5N7Y3O4Q8PVSWCHTLAKCRAAH0GJ","A307K1CZXGBN4L","3MXX6RQ9EVRTFC527Z18RDK8KW6P4R","","133","img/food4.png","74","136","1","1","false","1","2","1,0.5,0,1,0.5,0,0.5,0,1","1,0.5,0,1,0.5,0,0.5,0,1","1",""
"","html-keyboard-response","152","91076","0.0-226.0","3SB5N7Y3O4Q8PVSWCHTLAKCRAAH0GJ","A307K1CZXGBN4L","3MXX6RQ9EVRTFC527Z18RDK8KW6P4R","","null","<img src=""img/food4.png"" style=""width:200px; border:14px solid green;"">","null","","","","","","","","","",""
"","image-keyboard-response","153","91250","0.0-228.0","3SB5N7Y3O4Q8PVSWCHTLAKCRAAH0GJ","A307K1CZXGBN4L","3MXX6RQ9EVRTFC527Z18RDK8KW6P4R","","172","img/food5.png","74","173","1","1","false","2","2","1,0.5,0,1,0.5,0,0.5,0,1","1,0.5,0,1,0.5,0,0.5,0,1","1",""
"","html-keyboard-response","154","91553","0.0-229.0","3SB5N7Y3O4Q8PVSWCHTLAKCRAAH0GJ","A307K1CZXGBN4L","3MXX6RQ9EVRTFC527Z18RDK8KW6P4R","","null","<img src=""img/food5.png"" style=""width:200px; border:14px solid green;"">","null","","","","","","","","","",""
"","image-keyboard-response","155","91677","0.0-231.0","3SB5N7Y3O4Q8PVSWCHTLAKCRAAH0GJ","A307K1CZXGBN4L","3MXX6RQ9EVRTFC527Z18RDK8KW6P4R","","122","img/food4.png","74","123","1","1","false","1","2","1,0.5,0,1,0.5,0,0.5,0,1","1,0.5,0,1,0.5,0,0.5,0,1","1",""
"","html-keyboard-response","156","91981","0.0-232.0","3SB5N7Y3O4Q8PVSWCHTLAKCRAAH0GJ","A307K1CZXGBN4L","3MXX6RQ9EVRTFC527Z18RDK8KW6P4R","","null","<img src=""img/food4.png"" style=""width:200px; border:14px solid green;"">","null","","","","","","","","","",""
"","image-keyboard-response","157","92141","0.0-234.0","3SB5N7Y3O4Q8PVSWCHTLAKCRAAH0GJ","A307K1CZXGBN4L","3MXX6RQ9EVRTFC527Z18RDK8KW6P4R","","157","img/food4.png","74","159","1","1","false","1","2","1,0.5,0,1,0.5,0,0.5,0,1","1,0.5,0,1,0.5,0,0.5,0,1","1",""
"","html-keyboard-response","158","92444","0.0-235.0","3SB5N7Y3O4Q8PVSWCHTLAKCRAAH0GJ","A307K1CZXGBN4L","3MXX6RQ9EVRTFC527Z18RDK8KW6P4R","","null","<img src=""img/food4.png"" style=""width:200px; border:14px solid green;"">","null","","","","","","","","","",""
"","image-keyboard-response","159","92605","0.0-237.0","3SB5N7Y3O4Q8PVSWCHTLAKCRAAH0GJ","A307K1CZXGBN4L","3MXX6RQ9EVRTFC527Z18RDK8KW6P4R","","159","img/food5.png","74","161","1","1","false","2","2","1,0.5,0,1,0.5,0,0.5,0,1","1,0.5,0,1,0.5,0,0.5,0,1","1",""
"","html-keyboard-response","160","92907","0.0-238.0","3SB5N7Y3O4Q8PVSWCHTLAKCRAAH0GJ","A307K1CZXGBN4L","3MXX6RQ9EVRTFC527Z18RDK8KW6P4R","","null","<img src=""img/food5.png"" style=""width:200px; border:14px solid green;"">","null","","","","","","","","","",""
"","image-keyboard-response","161","93084","0.0-240.0","3SB5N7Y3O4Q8PVSWCHTLAKCRAAH0GJ","A307K1CZXGBN4L","3MXX6RQ9EVRTFC527Z18RDK8KW6P4R","","175","img/food4.png","74","176","1","1","false","1","2","1,0.5,0,1,0.5,0,0.5,0,1","1,0.5,0,1,0.5,0,0.5,0,1","1",""
"","html-keyboard-response","162","93387","0.0-241.0","3SB5N7Y3O4Q8PVSWCHTLAKCRAAH0GJ","A307K1CZXGBN4L","3MXX6RQ9EVRTFC527Z18RDK8KW6P4R","","null","<img src=""img/food4.png"" style=""width:200px; border:14px solid green;"">","null","","","","","","","","","",""
"","image-keyboard-response","163","93509","0.0-243.0","3SB5N7Y3O4Q8PVSWCHTLAKCRAAH0GJ","A307K1CZXGBN4L","3MXX6RQ9EVRTFC527Z18RDK8KW6P4R","","120","img/food4.png","74","121","1","1","false","1","2","1,0.5,0,1,0.5,0,0.5,0,1","1,0.5,0,1,0.5,0,0.5,0,1","1",""
"","html-keyboard-response","164","93811","0.0-244.0","3SB5N7Y3O4Q8PVSWCHTLAKCRAAH0GJ","A307K1CZXGBN4L","3MXX6RQ9EVRTFC527Z18RDK8KW6P4R","","null","<img src=""img/food4.png"" style=""width:200px; border:14px solid green;"">","null","","","","","","","","","",""
"","image-keyboard-response","165","93974","0.0-246.0","3SB5N7Y3O4Q8PVSWCHTLAKCRAAH0GJ","A307K1CZXGBN4L","3MXX6RQ9EVRTFC527Z18RDK8KW6P4R","","161","img/food3.png","74","161","1","0","false","3","2","1,0.5,0,1,0.5,0,0.5,0,1","1,0.5,0,1,0.5,0,0.5,0,1","1",""
"","html-keyboard-response","166","94276","0.0-247.0","3SB5N7Y3O4Q8PVSWCHTLAKCRAAH0GJ","A307K1CZXGBN4L","3MXX6RQ9EVRTFC527Z18RDK8KW6P4R","","null","<img src=""img/food3.png"" style=""width:200px;border:14px solid red;"">","null","","","","","","","","","",""
"","image-keyboard-response","167","94433","0.0-249.0","3SB5N7Y3O4Q8PVSWCHTLAKCRAAH0GJ","A307K1CZXGBN4L","3MXX6RQ9EVRTFC527Z18RDK8KW6P4R","","155","img/food5.png","74","156","1","1","false","2","2","1,0.5,0,1,0.5,0,0.5,0,1","1,0.5,0,1,0.5,0,0.5,0,1","1",""
"","html-keyboard-response","168","94736","0.0-250.0","3SB5N7Y3O4Q8PVSWCHTLAKCRAAH0GJ","A307K1CZXGBN4L","3MXX6RQ9EVRTFC527Z18RDK8KW6P4R","","null","<img src=""img/food5.png"" style=""width:200px; border:14px solid green;"">","null","","","","","","","","","",""
"","image-keyboard-response","169","94894","0.0-252.0","3SB5N7Y3O4Q8PVSWCHTLAKCRAAH0GJ","A307K1CZXGBN4L","3MXX6RQ9EVRTFC527Z18RDK8KW6P4R","","155","img/food5.png","74","158","1","1","false","2","2","1,0.5,0,1,0.5,0,0.5,0,1","1,0.5,0,1,0.5,0,0.5,0,1","1",""
"","html-keyboard-response","170","95196","0.0-253.0","3SB5N7Y3O4Q8PVSWCHTLAKCRAAH0GJ","A307K1CZXGBN4L","3MXX6RQ9EVRTFC527Z18RDK8KW6P4R","","null","<img src=""img/food5.png"" style=""width:200px; border:14px solid green;"">","null","","","","","","","","","",""
"","image-keyboard-response","171","95365","0.0-255.0","3SB5N7Y3O4Q8PVSWCHTLAKCRAAH0GJ","A307K1CZXGBN4L","3MXX6RQ9EVRTFC527Z18RDK8KW6P4R","","167","img/food4.png","74","169","1","1","false","1","2","1,0.5,0,1,0.5,0,0.5,0,1","1,0.5,0,1,0.5,0,0.5,0,1","1",""
"","html-keyboard-response","172","95668","0.0-256.0","3SB5N7Y3O4Q8PVSWCHTLAKCRAAH0GJ","A307K1CZXGBN4L","3MXX6RQ9EVRTFC527Z18RDK8KW6P4R","","null","<img src=""img/food4.png"" style=""width:200px; border:14px solid green;"">","null","","","","","","","","","",""
"","image-keyboard-response","173","95832","0.0-258.0","3SB5N7Y3O4Q8PVSWCHTLAKCRAAH0GJ","A307K1CZXGBN4L","3MXX6RQ9EVRTFC527Z18RDK8KW6P4R","","163","img/food3.png","74","164","1","0","false","3","2","1,0.5,0,1,0.5,0,0.5,0,1","1,0.5,0,1,0.5,0,0.5,0,1","1",""
"","html-keyboard-response","174","96136","0.0-259.0","3SB5N7Y3O4Q8PVSWCHTLAKCRAAH0GJ","A307K1CZXGBN4L","3MXX6RQ9EVRTFC527Z18RDK8KW6P4R","","null","<img src=""img/food3.png"" style=""width:200px;border:14px solid red;"">","null","","","","","","","","","",""
"","image-keyboard-response","175","96294","0.0-261.0","3SB5N7Y3O4Q8PVSWCHTLAKCRAAH0GJ","A307K1CZXGBN4L","3MXX6RQ9EVRTFC527Z18RDK8KW6P4R","","156","img/food5.png","74","159","1","1","false","2","2","1,0.5,0,1,0.5,0,0.5,0,1","1,0.5,0,1,0.5,0,0.5,0,1","1",""
"","html-keyboard-response","176","96598","0.0-262.0","3SB5N7Y3O4Q8PVSWCHTLAKCRAAH0GJ","A307K1CZXGBN4L","3MXX6RQ9EVRTFC527Z18RDK8KW6P4R","","null","<img src=""img/food5.png"" style=""width:200px; border:14px solid green;"">","null","","","","","","","","","",""
"","image-keyboard-response","177","96765","0.0-264.0","3SB5N7Y3O4Q8PVSWCHTLAKCRAAH0GJ","A307K1CZXGBN4L","3MXX6RQ9EVRTFC527Z18RDK8KW6P4R","","166","img/food5.png","74","167","1","1","false","2","2","1,0.5,0,1,0.5,0,0.5,0,1","1,0.5,0,1,0.5,0,0.5,0,1","1",""
"","html-keyboard-response","178","97067","0.0-265.0","3SB5N7Y3O4Q8PVSWCHTLAKCRAAH0GJ","A307K1CZXGBN4L","3MXX6RQ9EVRTFC527Z18RDK8KW6P4R","","null","<img src=""img/food5.png"" style=""width:200px; border:14px solid green;"">","null","","","","","","","","","",""
"","image-keyboard-response","179","97230","0.0-267.0","3SB5N7Y3O4Q8PVSWCHTLAKCRAAH0GJ","A307K1CZXGBN4L","3MXX6RQ9EVRTFC527Z18RDK8KW6P4R","","159","img/food5.png","74","161","1","1","false","2","2","1,0.5,0,1,0.5,0,0.5,0,1","1,0.5,0,1,0.5,0,0.5,0,1","1",""
"","html-keyboard-response","180","97532","0.0-268.0","3SB5N7Y3O4Q8PVSWCHTLAKCRAAH0GJ","A307K1CZXGBN4L","3MXX6RQ9EVRTFC527Z18RDK8KW6P4R","","null","<img src=""img/food5.png"" style=""width:200px; border:14px solid green;"">","null","","","","","","","","","",""
"","image-keyboard-response","181","97669","0.0-270.0","3SB5N7Y3O4Q8PVSWCHTLAKCRAAH0GJ","A307K1CZXGBN4L","3MXX6RQ9EVRTFC527Z18RDK8KW6P4R","","133","img/food3.png","74","136","1","0","false","3","2","1,0.5,0,1,0.5,0,0.5,0,1","1,0.5,0,1,0.5,0,0.5,0,1","1",""
"","html-keyboard-response","182","97972","0.0-271.0","3SB5N7Y3O4Q8PVSWCHTLAKCRAAH0GJ","A307K1CZXGBN4L","3MXX6RQ9EVRTFC527Z18RDK8KW6P4R","","null","<img src=""img/food3.png"" style=""width:200px;border:14px solid red;"">","null","","","","","","","","","",""
"","instructions","183","130156","0.0-273.0","3SB5N7Y3O4Q8PVSWCHTLAKCRAAH0GJ","A307K1CZXGBN4L","3MXX6RQ9EVRTFC527Z18RDK8KW6P4R","[{""page_index"":0,""viewing_time"":7622},{""page_index"":1,""viewing_time"":24561}]","32183","","","","","","","","","","","",""
"","image-keyboard-response","184","130750","0.0-274.0","3SB5N7Y3O4Q8PVSWCHTLAKCRAAH0GJ","A307K1CZXGBN4L","3MXX6RQ9EVRTFC527Z18RDK8KW6P4R","","588","img/food2.png","74","595","1","0","","2","1","1,0.5,0,1,0.5,0,0.5,0,1","0,1,0.5,0,1,0.5,1,0.5,0","3",""
"","html-keyboard-response","185","131053","0.0-275.0","3SB5N7Y3O4Q8PVSWCHTLAKCRAAH0GJ","A307K1CZXGBN4L","3MXX6RQ9EVRTFC527Z18RDK8KW6P4R","","null","<img src=""img/food2.png"" style=""width:200px;border:14px solid red;"">","null","","","","","","","","","",""
"","image-keyboard-response","186","131136","0.0-276.0","3SB5N7Y3O4Q8PVSWCHTLAKCRAAH0GJ","A307K1CZXGBN4L","3MXX6RQ9EVRTFC527Z18RDK8KW6P4R","","80","img/food6.png","74","82","1","0","","1","1","1,0.5,0,1,0.5,0,0.5,0,1","0,1,0.5,0,1,0.5,1,0.5,0","3",""
"","html-keyboard-response","187","131439","0.0-277.0","3SB5N7Y3O4Q8PVSWCHTLAKCRAAH0GJ","A307K1CZXGBN4L","3MXX6RQ9EVRTFC527Z18RDK8KW6P4R","","null","<img src=""img/food6.png"" style=""width:200px;border:14px solid red;"">","null","","","","","","","","","",""
"","image-keyboard-response","188","131973","0.0-278.0","3SB5N7Y3O4Q8PVSWCHTLAKCRAAH0GJ","A307K1CZXGBN4L","3MXX6RQ9EVRTFC527Z18RDK8KW6P4R","","534","img/food6.png","74","535","1","0","","1","1","1,0.5,0,1,0.5,0,0.5,0,1","0,1,0.5,0,1,0.5,1,0.5,0","3",""
"","html-keyboard-response","189","132277","0.0-279.0","3SB5N7Y3O4Q8PVSWCHTLAKCRAAH0GJ","A307K1CZXGBN4L","3MXX6RQ9EVRTFC527Z18RDK8KW6P4R","","null","<img src=""img/food6.png"" style=""width:200px;border:14px solid red;"">","null","","","","","","","","","",""
"","image-keyboard-response","190","132494","0.0-280.0","3SB5N7Y3O4Q8PVSWCHTLAKCRAAH0GJ","A307K1CZXGBN4L","3MXX6RQ9EVRTFC527Z18RDK8KW6P4R","","215","img/food6.png","75","217","2","1","","1","1","1,0.5,0,1,0.5,0,0.5,0,1","0,1,0.5,0,1,0.5,1,0.5,0","3",""
"","html-keyboard-response","191","132796","0.0-281.0","3SB5N7Y3O4Q8PVSWCHTLAKCRAAH0GJ","A307K1CZXGBN4L","3MXX6RQ9EVRTFC527Z18RDK8KW6P4R","","null","<img src=""img/food6.png"" style=""width:200px; border:14px solid green;"">","null","","","","","","","","","",""
"","image-keyboard-response","192","133014","0.0-282.0","3SB5N7Y3O4Q8PVSWCHTLAKCRAAH0GJ","A307K1CZXGBN4L","3MXX6RQ9EVRTFC527Z18RDK8KW6P4R","","216","img/food2.png","75","217","2","1","","2","1","1,0.5,0,1,0.5,0,0.5,0,1","0,1,0.5,0,1,0.5,1,0.5,0","3",""
"","html-keyboard-response","193","133317","0.0-283.0","3SB5N7Y3O4Q8PVSWCHTLAKCRAAH0GJ","A307K1CZXGBN4L","3MXX6RQ9EVRTFC527Z18RDK8KW6P4R","","null","<img src=""img/food2.png"" style=""width:200px; border:14px solid green;"">","null","","","","","","","","","",""
"","image-keyboard-response","194","133414","0.0-284.0","3SB5N7Y3O4Q8PVSWCHTLAKCRAAH0GJ","A307K1CZXGBN4L","3MXX6RQ9EVRTFC527Z18RDK8KW6P4R","","94","img/food2.png","75","97","2","1","","2","1","1,0.5,0,1,0.5,0,0.5,0,1","0,1,0.5,0,1,0.5,1,0.5,0","3",""
"","html-keyboard-response","195","133717","0.0-285.0","3SB5N7Y3O4Q8PVSWCHTLAKCRAAH0GJ","A307K1CZXGBN4L","3MXX6RQ9EVRTFC527Z18RDK8KW6P4R","","null","<img src=""img/food2.png"" style=""width:200px; border:14px solid green;"">","null","","","","","","","","","",""
"","image-keyboard-response","196","133872","0.0-286.0","3SB5N7Y3O4Q8PVSWCHTLAKCRAAH0GJ","A307K1CZXGBN4L","3MXX6RQ9EVRTFC527Z18RDK8KW6P4R","","152","img/food1.png","75","155","2","0","","3","1","1,0.5,0,1,0.5,0,0.5,0,1","0,1,0.5,0,1,0.5,1,0.5,0","3",""
"","html-keyboard-response","197","134178","0.0-287.0","3SB5N7Y3O4Q8PVSWCHTLAKCRAAH0GJ","A307K1CZXGBN4L","3MXX6RQ9EVRTFC527Z18RDK8KW6P4R","","null","<img src=""img/food1.png"" style=""width:200px;border:14px solid red;"">","null","","","","","","","","","",""
"","image-keyboard-response","198","134270","0.0-288.0","3SB5N7Y3O4Q8PVSWCHTLAKCRAAH0GJ","A307K1CZXGBN4L","3MXX6RQ9EVRTFC527Z18RDK8KW6P4R","","90","img/food1.png","75","91","2","1","","3","1","1,0.5,0,1,0.5,0,0.5,0,1","0,1,0.5,0,1,0.5,1,0.5,0","3",""
"","html-keyboard-response","199","134575","0.0-289.0","3SB5N7Y3O4Q8PVSWCHTLAKCRAAH0GJ","A307K1CZXGBN4L","3MXX6RQ9EVRTFC527Z18RDK8KW6P4R","","null","<img src=""img/food1.png"" style=""width:200px; border:14px solid green;"">","null","","","","","","","","","",""
"","image-keyboard-response","200","134734","0.0-290.0","3SB5N7Y3O4Q8PVSWCHTLAKCRAAH0GJ","A307K1CZXGBN4L","3MXX6RQ9EVRTFC527Z18RDK8KW6P4R","","158","img/food6.png","75","159","2","1","","1","1","1,0.5,0,1,0.5,0,0.5,0,1","0,1,0.5,0,1,0.5,1,0.5,0","3",""
"","html-keyboard-response","201","135036","0.0-291.0","3SB5N7Y3O4Q8PVSWCHTLAKCRAAH0GJ","A307K1CZXGBN4L","3MXX6RQ9EVRTFC527Z18RDK8KW6P4R","","null","<img src=""img/food6.png"" style=""width:200px; border:14px solid green;"">","null","","","","","","","","","",""
"","image-keyboard-response","202","135191","0.0-292.0","3SB5N7Y3O4Q8PVSWCHTLAKCRAAH0GJ","A307K1CZXGBN4L","3MXX6RQ9EVRTFC527Z18RDK8KW6P4R","","153","img/food1.png","75","155","2","0","","3","1","1,0.5,0,1,0.5,0,0.5,0,1","0,1,0.5,0,1,0.5,1,0.5,0","3",""
"","html-keyboard-response","203","135493","0.0-293.0","3SB5N7Y3O4Q8PVSWCHTLAKCRAAH0GJ","A307K1CZXGBN4L","3MXX6RQ9EVRTFC527Z18RDK8KW6P4R","","null","<img src=""img/food1.png"" style=""width:200px;border:14px solid red;"">","null","","","","","","","","","",""
"","image-keyboard-response","204","135534","0.0-294.0","3SB5N7Y3O4Q8PVSWCHTLAKCRAAH0GJ","A307K1CZXGBN4L","3MXX6RQ9EVRTFC527Z18RDK8KW6P4R","","37","img/food1.png","75","40","2","1","","3","1","1,0.5,0,1,0.5,0,0.5,0,1","0,1,0.5,0,1,0.5,1,0.5,0","3",""
"","html-keyboard-response","205","135837","0.0-295.0","3SB5N7Y3O4Q8PVSWCHTLAKCRAAH0GJ","A307K1CZXGBN4L","3MXX6RQ9EVRTFC527Z18RDK8KW6P4R","","null","<img src=""img/food1.png"" style=""width:200px; border:14px solid green;"">","null","","","","","","","","","",""
"","image-keyboard-response","206","136183","0.0-296.0","3SB5N7Y3O4Q8PVSWCHTLAKCRAAH0GJ","A307K1CZXGBN4L","3MXX6RQ9EVRTFC527Z18RDK8KW6P4R","","343","img/food6.png","75","345","2","1","","1","1","1,0.5,0,1,0.5,0,0.5,0,1","0,1,0.5,0,1,0.5,1,0.5,0","3",""
"","html-keyboard-response","207","136485","0.0-297.0","3SB5N7Y3O4Q8PVSWCHTLAKCRAAH0GJ","A307K1CZXGBN4L","3MXX6RQ9EVRTFC527Z18RDK8KW6P4R","","null","<img src=""img/food6.png"" style=""width:200px; border:14px solid green;"">","null","","","","","","","","","",""
"","image-keyboard-response","208","136557","0.0-298.0","3SB5N7Y3O4Q8PVSWCHTLAKCRAAH0GJ","A307K1CZXGBN4L","3MXX6RQ9EVRTFC527Z18RDK8KW6P4R","","72","img/food6.png","75","72","2","1","","1","1","1,0.5,0,1,0.5,0,0.5,0,1","0,1,0.5,0,1,0.5,1,0.5,0","3",""
"","html-keyboard-response","209","136859","0.0-299.0","3SB5N7Y3O4Q8PVSWCHTLAKCRAAH0GJ","A307K1CZXGBN4L","3MXX6RQ9EVRTFC527Z18RDK8KW6P4R","","null","<img src=""img/food6.png"" style=""width:200px; border:14px solid green;"">","null","","","","","","","","","",""
"","image-keyboard-response","210","136871","0.0-300.0","3SB5N7Y3O4Q8PVSWCHTLAKCRAAH0GJ","A307K1CZXGBN4L","3MXX6RQ9EVRTFC527Z18RDK8KW6P4R","","10","img/food2.png","75","11","2","1","","2","1","1,0.5,0,1,0.5,0,0.5,0,1","0,1,0.5,0,1,0.5,1,0.5,0","3",""
"","html-keyboard-response","211","137173","0.0-301.0","3SB5N7Y3O4Q8PVSWCHTLAKCRAAH0GJ","A307K1CZXGBN4L","3MXX6RQ9EVRTFC527Z18RDK8KW6P4R","","null","<img src=""img/food2.png"" style=""width:200px; border:14px solid green;"">","null","","","","","","","","","",""
"","image-keyboard-response","212","137254","0.0-302.0","3SB5N7Y3O4Q8PVSWCHTLAKCRAAH0GJ","A307K1CZXGBN4L","3MXX6RQ9EVRTFC527Z18RDK8KW6P4R","","79","img/food6.png","75","80","2","1","","1","1","1,0.5,0,1,0.5,0,0.5,0,1","0,1,0.5,0,1,0.5,1,0.5,0","3",""
"","html-keyboard-response","213","137557","0.0-303.0","3SB5N7Y3O4Q8PVSWCHTLAKCRAAH0GJ","A307K1CZXGBN4L","3MXX6RQ9EVRTFC527Z18RDK8KW6P4R","","null","<img src=""img/food6.png"" style=""width:200px; border:14px solid green;"">","null","","","","","","","","","",""
"","image-keyboard-response","214","137565","0.0-304.0","3SB5N7Y3O4Q8PVSWCHTLAKCRAAH0GJ","A307K1CZXGBN4L","3MXX6RQ9EVRTFC527Z18RDK8KW6P4R","","7","img/food6.png","75","8","2","1","","1","1","1,0.5,0,1,0.5,0,0.5,0,1","0,1,0.5,0,1,0.5,1,0.5,0","3",""
"","html-keyboard-response","215","137869","0.0-305.0","3SB5N7Y3O4Q8PVSWCHTLAKCRAAH0GJ","A307K1CZXGBN4L","3MXX6RQ9EVRTFC527Z18RDK8KW6P4R","","null","<img src=""img/food6.png"" style=""width:200px; border:14px solid green;"">","null","","","","","","","","","",""
"","image-keyboard-response","216","137871","0.0-306.0","3SB5N7Y3O4Q8PVSWCHTLAKCRAAH0GJ","A307K1CZXGBN4L","3MXX6RQ9EVRTFC527Z18RDK8KW6P4R","","1","img/food1.png","75","2","2","1","","3","1","1,0.5,0,1,0.5,0,0.5,0,1","0,1,0.5,0,1,0.5,1,0.5,0","3",""
"","html-keyboard-response","217","138175","0.0-307.0","3SB5N7Y3O4Q8PVSWCHTLAKCRAAH0GJ","A307K1CZXGBN4L","3MXX6RQ9EVRTFC527Z18RDK8KW6P4R","","null","<img src=""img/food1.png"" style=""width:200px; border:14px solid green;"">","null","","","","","","","","","",""
"","image-keyboard-response","218","138361","0.0-308.0","3SB5N7Y3O4Q8PVSWCHTLAKCRAAH0GJ","A307K1CZXGBN4L","3MXX6RQ9EVRTFC527Z18RDK8KW6P4R","","185","img/food1.png","75","186","2","1","","3","1","1,0.5,0,1,0.5,0,0.5,0,1","0,1,0.5,0,1,0.5,1,0.5,0","3",""
"","html-keyboard-response","219","138663","0.0-309.0","3SB5N7Y3O4Q8PVSWCHTLAKCRAAH0GJ","A307K1CZXGBN4L","3MXX6RQ9EVRTFC527Z18RDK8KW6P4R","","null","<img src=""img/food1.png"" style=""width:200px; border:14px solid green;"">","null","","","","","","","","","",""
"","image-keyboard-response","220","138864","0.0-310.0","3SB5N7Y3O4Q8PVSWCHTLAKCRAAH0GJ","A307K1CZXGBN4L","3MXX6RQ9EVRTFC527Z18RDK8KW6P4R","","197","img/food1.png","75","200","2","0","","3","1","1,0.5,0,1,0.5,0,0.5,0,1","0,1,0.5,0,1,0.5,1,0.5,0","3",""
"","html-keyboard-response","221","139166","0.0-311.0","3SB5N7Y3O4Q8PVSWCHTLAKCRAAH0GJ","A307K1CZXGBN4L","3MXX6RQ9EVRTFC527Z18RDK8KW6P4R","","null","<img src=""img/food1.png"" style=""width:200px;border:14px solid red;"">","null","","","","","","","","","",""
"","image-keyboard-response","222","139366","0.0-312.0","3SB5N7Y3O4Q8PVSWCHTLAKCRAAH0GJ","A307K1CZXGBN4L","3MXX6RQ9EVRTFC527Z18RDK8KW6P4R","","197","img/food6.png","75","198","2","1","","1","1","1,0.5,0,1,0.5,0,0.5,0,1","0,1,0.5,0,1,0.5,1,0.5,0","3",""
"","html-keyboard-response","223","139668","0.0-313.0","3SB5N7Y3O4Q8PVSWCHTLAKCRAAH0GJ","A307K1CZXGBN4L","3MXX6RQ9EVRTFC527Z18RDK8KW6P4R","","null","<img src=""img/food6.png"" style=""width:200px; border:14px solid green;"">","null","","","","","","","","","",""
"","image-keyboard-response","224","139894","0.0-314.0","3SB5N7Y3O4Q8PVSWCHTLAKCRAAH0GJ","A307K1CZXGBN4L","3MXX6RQ9EVRTFC527Z18RDK8KW6P4R","","224","img/food6.png","75","225","2","1","","1","1","1,0.5,0,1,0.5,0,0.5,0,1","0,1,0.5,0,1,0.5,1,0.5,0","3",""
"","html-keyboard-response","225","140197","0.0-315.0","3SB5N7Y3O4Q8PVSWCHTLAKCRAAH0GJ","A307K1CZXGBN4L","3MXX6RQ9EVRTFC527Z18RDK8KW6P4R","","null","<img src=""img/food6.png"" style=""width:200px; border:14px solid green;"">","null","","","","","","","","","",""
"","image-keyboard-response","226","140439","0.0-316.0","3SB5N7Y3O4Q8PVSWCHTLAKCRAAH0GJ","A307K1CZXGBN4L","3MXX6RQ9EVRTFC527Z18RDK8KW6P4R","","240","img/food6.png","75","242","2","1","","1","1","1,0.5,0,1,0.5,0,0.5,0,1","0,1,0.5,0,1,0.5,1,0.5,0","3",""
"","html-keyboard-response","227","140741","0.0-317.0","3SB5N7Y3O4Q8PVSWCHTLAKCRAAH0GJ","A307K1CZXGBN4L","3MXX6RQ9EVRTFC527Z18RDK8KW6P4R","","null","<img src=""img/food6.png"" style=""width:200px; border:14px solid green;"">","null","","","","","","","","","",""
"","image-keyboard-response","228","140958","0.0-318.0","3SB5N7Y3O4Q8PVSWCHTLAKCRAAH0GJ","A307K1CZXGBN4L","3MXX6RQ9EVRTFC527Z18RDK8KW6P4R","","215","img/food2.png","75","215","2","1","","2","1","1,0.5,0,1,0.5,0,0.5,0,1","0,1,0.5,0,1,0.5,1,0.5,0","3",""
"","html-keyboard-response","229","141259","0.0-319.0","3SB5N7Y3O4Q8PVSWCHTLAKCRAAH0GJ","A307K1CZXGBN4L","3MXX6RQ9EVRTFC527Z18RDK8KW6P4R","","null","<img src=""img/food2.png"" style=""width:200px; border:14px solid green;"">","null","","","","","","","","","",""
"","image-keyboard-response","230","141509","0.0-320.0","3SB5N7Y3O4Q8PVSWCHTLAKCRAAH0GJ","A307K1CZXGBN4L","3MXX6RQ9EVRTFC527Z18RDK8KW6P4R","","248","img/food2.png","75","249","2","1","","2","1","1,0.5,0,1,0.5,0,0.5,0,1","0,1,0.5,0,1,0.5,1,0.5,0","3",""
"","html-keyboard-response","231","141813","0.0-321.0","3SB5N7Y3O4Q8PVSWCHTLAKCRAAH0GJ","A307K1CZXGBN4L","3MXX6RQ9EVRTFC527Z18RDK8KW6P4R","","null","<img src=""img/food2.png"" style=""width:200px; border:14px solid green;"">","null","","","","","","","","","",""
"","image-keyboard-response","232","141988","0.0-322.0","3SB5N7Y3O4Q8PVSWCHTLAKCRAAH0GJ","A307K1CZXGBN4L","3MXX6RQ9EVRTFC527Z18RDK8KW6P4R","","173","img/food6.png","75","175","2","1","","1","1","1,0.5,0,1,0.5,0,0.5,0,1","0,1,0.5,0,1,0.5,1,0.5,0","3",""
"","html-keyboard-response","233","142291","0.0-323.0","3SB5N7Y3O4Q8PVSWCHTLAKCRAAH0GJ","A307K1CZXGBN4L","3MXX6RQ9EVRTFC527Z18RDK8KW6P4R","","null","<img src=""img/food6.png"" style=""width:200px; border:14px solid green;"">","null","","","","","","","","","",""
"","image-keyboard-response","234","142499","0.0-324.0","3SB5N7Y3O4Q8PVSWCHTLAKCRAAH0GJ","A307K1CZXGBN4L","3MXX6RQ9EVRTFC527Z18RDK8KW6P4R","","206","img/food6.png","75","208","2","1","","1","1","1,0.5,0,1,0.5,0,0.5,0,1","0,1,0.5,0,1,0.5,1,0.5,0","3",""
"","html-keyboard-response","235","142801","0.0-325.0","3SB5N7Y3O4Q8PVSWCHTLAKCRAAH0GJ","A307K1CZXGBN4L","3MXX6RQ9EVRTFC527Z18RDK8KW6P4R","","null","<img src=""img/food6.png"" style=""width:200px; border:14px solid green;"">","null","","","","","","","","","",""
"","image-keyboard-response","236","142950","0.0-326.0","3SB5N7Y3O4Q8PVSWCHTLAKCRAAH0GJ","A307K1CZXGBN4L","3MXX6RQ9EVRTFC527Z18RDK8KW6P4R","","145","img/food6.png","75","149","2","1","","1","1","1,0.5,0,1,0.5,0,0.5,0,1","0,1,0.5,0,1,0.5,1,0.5,0","3",""
"","html-keyboard-response","237","143252","0.0-327.0","3SB5N7Y3O4Q8PVSWCHTLAKCRAAH0GJ","A307K1CZXGBN4L","3MXX6RQ9EVRTFC527Z18RDK8KW6P4R","","null","<img src=""img/food6.png"" style=""width:200px; border:14px solid green;"">","null","","","","","","","","","",""
"","image-keyboard-response","238","143418","0.0-328.0","3SB5N7Y3O4Q8PVSWCHTLAKCRAAH0GJ","A307K1CZXGBN4L","3MXX6RQ9EVRTFC527Z18RDK8KW6P4R","","163","img/food1.png","75","165","2","0","","3","1","1,0.5,0,1,0.5,0,0.5,0,1","0,1,0.5,0,1,0.5,1,0.5,0","3",""
"","html-keyboard-response","239","143720","0.0-329.0","3SB5N7Y3O4Q8PVSWCHTLAKCRAAH0GJ","A307K1CZXGBN4L","3MXX6RQ9EVRTFC527Z18RDK8KW6P4R","","null","<img src=""img/food1.png"" style=""width:200px;border:14px solid red;"">","null","","","","","","","","","",""
"","image-keyboard-response","240","143862","0.0-330.0","3SB5N7Y3O4Q8PVSWCHTLAKCRAAH0GJ","A307K1CZXGBN4L","3MXX6RQ9EVRTFC527Z18RDK8KW6P4R","","141","img/food2.png","75","142","2","1","","2","1","1,0.5,0,1,0.5,0,0.5,0,1","0,1,0.5,0,1,0.5,1,0.5,0","3",""
"","html-keyboard-response","241","144164","0.0-331.0","3SB5N7Y3O4Q8PVSWCHTLAKCRAAH0GJ","A307K1CZXGBN4L","3MXX6RQ9EVRTFC527Z18RDK8KW6P4R","","null","<img src=""img/food2.png"" style=""width:200px; border:14px solid green;"">","null","","","","","","","","","",""
"","image-keyboard-response","242","144354","0.0-332.0","3SB5N7Y3O4Q8PVSWCHTLAKCRAAH0GJ","A307K1CZXGBN4L","3MXX6RQ9EVRTFC527Z18RDK8KW6P4R","","187","img/food1.png","75","189","2","1","","3","1","1,0.5,0,1,0.5,0,0.5,0,1","0,1,0.5,0,1,0.5,1,0.5,0","3",""
"","html-keyboard-response","243","144656","0.0-333.0","3SB5N7Y3O4Q8PVSWCHTLAKCRAAH0GJ","A307K1CZXGBN4L","3MXX6RQ9EVRTFC527Z18RDK8KW6P4R","","null","<img src=""img/food1.png"" style=""width:200px; border:14px solid green;"">","null","","","","","","","","","",""
"","image-keyboard-response","244","144837","0.0-334.0","3SB5N7Y3O4Q8PVSWCHTLAKCRAAH0GJ","A307K1CZXGBN4L","3MXX6RQ9EVRTFC527Z18RDK8KW6P4R","","179","img/food2.png","75","181","2","1","","2","1","1,0.5,0,1,0.5,0,0.5,0,1","0,1,0.5,0,1,0.5,1,0.5,0","3",""
"","html-keyboard-response","245","145140","0.0-335.0","3SB5N7Y3O4Q8PVSWCHTLAKCRAAH0GJ","A307K1CZXGBN4L","3MXX6RQ9EVRTFC527Z18RDK8KW6P4R","","null","<img src=""img/food2.png"" style=""width:200px; border:14px solid green;"">","null","","","","","","","","","",""
"","image-keyboard-response","246","145318","0.0-336.0","3SB5N7Y3O4Q8PVSWCHTLAKCRAAH0GJ","A307K1CZXGBN4L","3MXX6RQ9EVRTFC527Z18RDK8KW6P4R","","176","img/food2.png","75","177","2","1","","2","1","1,0.5,0,1,0.5,0,0.5,0,1","0,1,0.5,0,1,0.5,1,0.5,0","3",""
"","html-keyboard-response","247","145620","0.0-337.0","3SB5N7Y3O4Q8PVSWCHTLAKCRAAH0GJ","A307K1CZXGBN4L","3MXX6RQ9EVRTFC527Z18RDK8KW6P4R","","null","<img src=""img/food2.png"" style=""width:200px; border:14px solid green;"">","null","","","","","","","","","",""
"","image-keyboard-response","248","145831","0.0-338.0","3SB5N7Y3O4Q8PVSWCHTLAKCRAAH0GJ","A307K1CZXGBN4L","3MXX6RQ9EVRTFC527Z18RDK8KW6P4R","","207","img/food1.png","75","210","2","1","","3","1","1,0.5,0,1,0.5,0,0.5,0,1","0,1,0.5,0,1,0.5,1,0.5,0","3",""
"","html-keyboard-response","249","146133","0.0-339.0","3SB5N7Y3O4Q8PVSWCHTLAKCRAAH0GJ","A307K1CZXGBN4L","3MXX6RQ9EVRTFC527Z18RDK8KW6P4R","","null","<img src=""img/food1.png"" style=""width:200px; border:14px solid green;"">","null","","","","","","","","","",""
"","image-keyboard-response","250","146380","0.0-340.0","3SB5N7Y3O4Q8PVSWCHTLAKCRAAH0GJ","A307K1CZXGBN4L","3MXX6RQ9EVRTFC527Z18RDK8KW6P4R","","245","img/food6.png","75","246","2","1","","1","1","1,0.5,0,1,0.5,0,0.5,0,1","0,1,0.5,0,1,0.5,1,0.5,0","3",""
"","html-keyboard-response","251","146681","0.0-341.0","3SB5N7Y3O4Q8PVSWCHTLAKCRAAH0GJ","A307K1CZXGBN4L","3MXX6RQ9EVRTFC527Z18RDK8KW6P4R","","null","<img src=""img/food6.png"" style=""width:200px; border:14px solid green;"">","null","","","","","","","","","",""
"","image-keyboard-response","252","146879","0.0-342.0","3SB5N7Y3O4Q8PVSWCHTLAKCRAAH0GJ","A307K1CZXGBN4L","3MXX6RQ9EVRTFC527Z18RDK8KW6P4R","","195","img/food2.png","75","196","2","1","","2","1","1,0.5,0,1,0.5,0,0.5,0,1","0,1,0.5,0,1,0.5,1,0.5,0","3",""
"","html-keyboard-response","253","147181","0.0-343.0","3SB5N7Y3O4Q8PVSWCHTLAKCRAAH0GJ","A307K1CZXGBN4L","3MXX6RQ9EVRTFC527Z18RDK8KW6P4R","","null","<img src=""img/food2.png"" style=""width:200px; border:14px solid green;"">","null","","","","","","","","","",""
"","image-keyboard-response","254","147377","0.0-344.0","3SB5N7Y3O4Q8PVSWCHTLAKCRAAH0GJ","A307K1CZXGBN4L","3MXX6RQ9EVRTFC527Z18RDK8KW6P4R","","194","img/food6.png","75","196","2","1","","1","1","1,0.5,0,1,0.5,0,0.5,0,1","0,1,0.5,0,1,0.5,1,0.5,0","3",""
"","html-keyboard-response","255","147683","0.0-345.0","3SB5N7Y3O4Q8PVSWCHTLAKCRAAH0GJ","A307K1CZXGBN4L","3MXX6RQ9EVRTFC527Z18RDK8KW6P4R","","null","<img src=""img/food6.png"" style=""width:200px; border:14px solid green;"">","null","","","","","","","","","",""
"","image-keyboard-response","256","147903","0.0-346.0","3SB5N7Y3O4Q8PVSWCHTLAKCRAAH0GJ","A307K1CZXGBN4L","3MXX6RQ9EVRTFC527Z18RDK8KW6P4R","","217","img/food6.png","75","219","2","1","","1","1","1,0.5,0,1,0.5,0,0.5,0,1","0,1,0.5,0,1,0.5,1,0.5,0","3",""
"","html-keyboard-response","257","148205","0.0-347.0","3SB5N7Y3O4Q8PVSWCHTLAKCRAAH0GJ","A307K1CZXGBN4L","3MXX6RQ9EVRTFC527Z18RDK8KW6P4R","","null","<img src=""img/food6.png"" style=""width:200px; border:14px solid green;"">","null","","","","","","","","","",""
"","image-keyboard-response","258","148387","0.0-348.0","3SB5N7Y3O4Q8PVSWCHTLAKCRAAH0GJ","A307K1CZXGBN4L","3MXX6RQ9EVRTFC527Z18RDK8KW6P4R","","181","img/food2.png","75","182","2","1","","2","1","1,0.5,0,1,0.5,0,0.5,0,1","0,1,0.5,0,1,0.5,1,0.5,0","3",""
"","html-keyboard-response","259","148689","0.0-349.0","3SB5N7Y3O4Q8PVSWCHTLAKCRAAH0GJ","A307K1CZXGBN4L","3MXX6RQ9EVRTFC527Z18RDK8KW6P4R","","null","<img src=""img/food2.png"" style=""width:200px; border:14px solid green;"">","null","","","","","","","","","",""
"","image-keyboard-response","260","148817","0.0-350.0","3SB5N7Y3O4Q8PVSWCHTLAKCRAAH0GJ","A307K1CZXGBN4L","3MXX6RQ9EVRTFC527Z18RDK8KW6P4R","","124","img/food1.png","75","127","2","0","","3","1","1,0.5,0,1,0.5,0,0.5,0,1","0,1,0.5,0,1,0.5,1,0.5,0","3",""
"","html-keyboard-response","261","149119","0.0-351.0","3SB5N7Y3O4Q8PVSWCHTLAKCRAAH0GJ","A307K1CZXGBN4L","3MXX6RQ9EVRTFC527Z18RDK8KW6P4R","","null","<img src=""img/food1.png"" style=""width:200px;border:14px solid red;"">","null","","","","","","","","","",""
"","image-keyboard-response","262","149285","0.0-352.0","3SB5N7Y3O4Q8PVSWCHTLAKCRAAH0GJ","A307K1CZXGBN4L","3MXX6RQ9EVRTFC527Z18RDK8KW6P4R","","165","img/food2.png","75","165","2","1","","2","1","1,0.5,0,1,0.5,0,0.5,0,1","0,1,0.5,0,1,0.5,1,0.5,0","3",""
"","html-keyboard-response","263","149587","0.0-353.0","3SB5N7Y3O4Q8PVSWCHTLAKCRAAH0GJ","A307K1CZXGBN4L","3MXX6RQ9EVRTFC527Z18RDK8KW6P4R","","null","<img src=""img/food2.png"" style=""width:200px; border:14px solid green;"">","null","","","","","","","","","",""
"","image-keyboard-response","264","149767","0.0-354.0","3SB5N7Y3O4Q8PVSWCHTLAKCRAAH0GJ","A307K1CZXGBN4L","3MXX6RQ9EVRTFC527Z18RDK8KW6P4R","","178","img/food1.png","75","179","2","0","","3","1","1,0.5,0,1,0.5,0,0.5,0,1","0,1,0.5,0,1,0.5,1,0.5,0","3",""
"","html-keyboard-response","265","150070","0.0-355.0","3SB5N7Y3O4Q8PVSWCHTLAKCRAAH0GJ","A307K1CZXGBN4L","3MXX6RQ9EVRTFC527Z18RDK8KW6P4R","","null","<img src=""img/food1.png"" style=""width:200px;border:14px solid red;"">","null","","","","","","","","","",""
"","image-keyboard-response","266","150200","0.0-356.0","3SB5N7Y3O4Q8PVSWCHTLAKCRAAH0GJ","A307K1CZXGBN4L","3MXX6RQ9EVRTFC527Z18RDK8KW6P4R","","127","img/food1.png","75","128","2","0","","3","1","1,0.5,0,1,0.5,0,0.5,0,1","0,1,0.5,0,1,0.5,1,0.5,0","3",""
"","html-keyboard-response","267","150502","0.0-357.0","3SB5N7Y3O4Q8PVSWCHTLAKCRAAH0GJ","A307K1CZXGBN4L","3MXX6RQ9EVRTFC527Z18RDK8KW6P4R","","null","<img src=""img/food1.png"" style=""width:200px;border:14px solid red;"">","null","","","","","","","","","",""
"","image-keyboard-response","268","150631","0.0-358.0","3SB5N7Y3O4Q8PVSWCHTLAKCRAAH0GJ","A307K1CZXGBN4L","3MXX6RQ9EVRTFC527Z18RDK8KW6P4R","","126","img/food1.png","75","129","2","1","","3","1","1,0.5,0,1,0.5,0,0.5,0,1","0,1,0.5,0,1,0.5,1,0.5,0","3",""
"","html-keyboard-response","269","150936","0.0-359.0","3SB5N7Y3O4Q8PVSWCHTLAKCRAAH0GJ","A307K1CZXGBN4L","3MXX6RQ9EVRTFC527Z18RDK8KW6P4R","","null","<img src=""img/food1.png"" style=""width:200px; border:14px solid green;"">","null","","","","","","","","","",""
"","image-keyboard-response","270","151062","0.0-360.0","3SB5N7Y3O4Q8PVSWCHTLAKCRAAH0GJ","A307K1CZXGBN4L","3MXX6RQ9EVRTFC527Z18RDK8KW6P4R","","122","img/food6.png","75","124","2","1","","1","1","1,0.5,0,1,0.5,0,0.5,0,1","0,1,0.5,0,1,0.5,1,0.5,0","3",""
"","html-keyboard-response","271","151365","0.0-361.0","3SB5N7Y3O4Q8PVSWCHTLAKCRAAH0GJ","A307K1CZXGBN4L","3MXX6RQ9EVRTFC527Z18RDK8KW6P4R","","null","<img src=""img/food6.png"" style=""width:200px; border:14px solid green;"">","null","","","","","","","","","",""
"","image-keyboard-response","272","151477","0.0-362.0","3SB5N7Y3O4Q8PVSWCHTLAKCRAAH0GJ","A307K1CZXGBN4L","3MXX6RQ9EVRTFC527Z18RDK8KW6P4R","","110","img/food6.png","75","113","2","1","","1","1","1,0.5,0,1,0.5,0,0.5,0,1","0,1,0.5,0,1,0.5,1,0.5,0","3",""
"","html-keyboard-response","273","151780","0.0-363.0","3SB5N7Y3O4Q8PVSWCHTLAKCRAAH0GJ","A307K1CZXGBN4L","3MXX6RQ9EVRTFC527Z18RDK8KW6P4R","","null","<img src=""img/food6.png"" style=""width:200px; border:14px solid green;"">","null","","","","","","","","","",""
"","image-keyboard-response","274","151910","0.0-364.0","3SB5N7Y3O4Q8PVSWCHTLAKCRAAH0GJ","A307K1CZXGBN4L","3MXX6RQ9EVRTFC527Z18RDK8KW6P4R","","128","img/food1.png","75","129","2","1","","3","1","1,0.5,0,1,0.5,0,0.5,0,1","0,1,0.5,0,1,0.5,1,0.5,0","3",""
"","html-keyboard-response","275","152213","0.0-365.0","3SB5N7Y3O4Q8PVSWCHTLAKCRAAH0GJ","A307K1CZXGBN4L","3MXX6RQ9EVRTFC527Z18RDK8KW6P4R","","null","<img src=""img/food1.png"" style=""width:200px; border:14px solid green;"">","null","","","","","","","","","",""
"","image-keyboard-response","276","152302","0.0-366.0","3SB5N7Y3O4Q8PVSWCHTLAKCRAAH0GJ","A307K1CZXGBN4L","3MXX6RQ9EVRTFC527Z18RDK8KW6P4R","","87","img/food2.png","75","89","2","1","","2","1","1,0.5,0,1,0.5,0,0.5,0,1","0,1,0.5,0,1,0.5,1,0.5,0","3",""
"","html-keyboard-response","277","152604","0.0-367.0","3SB5N7Y3O4Q8PVSWCHTLAKCRAAH0GJ","A307K1CZXGBN4L","3MXX6RQ9EVRTFC527Z18RDK8KW6P4R","","null","<img src=""img/food2.png"" style=""width:200px; border:14px solid green;"">","null","","","","","","","","","",""
"","image-keyboard-response","278","152693","0.0-368.0","3SB5N7Y3O4Q8PVSWCHTLAKCRAAH0GJ","A307K1CZXGBN4L","3MXX6RQ9EVRTFC527Z18RDK8KW6P4R","","87","img/food2.png","75","90","2","1","","2","1","1,0.5,0,1,0.5,0,0.5,0,1","0,1,0.5,0,1,0.5,1,0.5,0","3",""
"","html-keyboard-response","279","152997","0.0-369.0","3SB5N7Y3O4Q8PVSWCHTLAKCRAAH0GJ","A307K1CZXGBN4L","3MXX6RQ9EVRTFC527Z18RDK8KW6P4R","","null","<img src=""img/food2.png"" style=""width:200px; border:14px solid green;"">","null","","","","","","","","","",""
"","image-keyboard-response","280","153093","0.0-370.0","3SB5N7Y3O4Q8PVSWCHTLAKCRAAH0GJ","A307K1CZXGBN4L","3MXX6RQ9EVRTFC527Z18RDK8KW6P4R","","94","img/food2.png","75","97","2","1","","2","1","1,0.5,0,1,0.5,0,0.5,0,1","0,1,0.5,0,1,0.5,1,0.5,0","3",""
"","html-keyboard-response","281","153396","0.0-371.0","3SB5N7Y3O4Q8PVSWCHTLAKCRAAH0GJ","A307K1CZXGBN4L","3MXX6RQ9EVRTFC527Z18RDK8KW6P4R","","null","<img src=""img/food2.png"" style=""width:200px; border:14px solid green;"">","null","","","","","","","","","",""
"","image-keyboard-response","282","153549","0.0-372.0","3SB5N7Y3O4Q8PVSWCHTLAKCRAAH0GJ","A307K1CZXGBN4L","3MXX6RQ9EVRTFC527Z18RDK8KW6P4R","","152","img/food2.png","75","153","2","1","","2","1","1,0.5,0,1,0.5,0,0.5,0,1","0,1,0.5,0,1,0.5,1,0.5,0","3",""
"","html-keyboard-response","283","153852","0.0-373.0","3SB5N7Y3O4Q8PVSWCHTLAKCRAAH0GJ","A307K1CZXGBN4L","3MXX6RQ9EVRTFC527Z18RDK8KW6P4R","","null","<img src=""img/food2.png"" style=""width:200px; border:14px solid green;"">","null","","","","","","","","","",""
"","image-keyboard-response","284","153966","0.0-374.0","3SB5N7Y3O4Q8PVSWCHTLAKCRAAH0GJ","A307K1CZXGBN4L","3MXX6RQ9EVRTFC527Z18RDK8KW6P4R","","112","img/food2.png","75","114","2","1","","2","1","1,0.5,0,1,0.5,0,0.5,0,1","0,1,0.5,0,1,0.5,1,0.5,0","3",""
"","html-keyboard-response","285","154274","0.0-375.0","3SB5N7Y3O4Q8PVSWCHTLAKCRAAH0GJ","A307K1CZXGBN4L","3MXX6RQ9EVRTFC527Z18RDK8KW6P4R","","null","<img src=""img/food2.png"" style=""width:200px; border:14px solid green;"">","null","","","","","","","","","",""
"","image-keyboard-response","286","154391","0.0-376.0","3SB5N7Y3O4Q8PVSWCHTLAKCRAAH0GJ","A307K1CZXGBN4L","3MXX6RQ9EVRTFC527Z18RDK8KW6P4R","","111","img/food1.png","75","114","2","0","","3","1","1,0.5,0,1,0.5,0,0.5,0,1","0,1,0.5,0,1,0.5,1,0.5,0","3",""
"","html-keyboard-response","287","154693","0.0-377.0","3SB5N7Y3O4Q8PVSWCHTLAKCRAAH0GJ","A307K1CZXGBN4L","3MXX6RQ9EVRTFC527Z18RDK8KW6P4R","","null","<img src=""img/food1.png"" style=""width:200px;border:14px solid red;"">","null","","","","","","","","","",""
"","image-keyboard-response","288","154853","0.0-378.0","3SB5N7Y3O4Q8PVSWCHTLAKCRAAH0GJ","A307K1CZXGBN4L","3MXX6RQ9EVRTFC527Z18RDK8KW6P4R","","160","img/food6.png","75","161","2","1","","1","1","1,0.5,0,1,0.5,0,0.5,0,1","0,1,0.5,0,1,0.5,1,0.5,0","3",""
"","html-keyboard-response","289","155156","0.0-379.0","3SB5N7Y3O4Q8PVSWCHTLAKCRAAH0GJ","A307K1CZXGBN4L","3MXX6RQ9EVRTFC527Z18RDK8KW6P4R","","null","<img src=""img/food6.png"" style=""width:200px; border:14px solid green;"">","null","","","","","","","","","",""
"","image-keyboard-response","290","155279","0.0-380.0","3SB5N7Y3O4Q8PVSWCHTLAKCRAAH0GJ","A307K1CZXGBN4L","3MXX6RQ9EVRTFC527Z18RDK8KW6P4R","","121","img/food6.png","75","123","2","1","","1","1","1,0.5,0,1,0.5,0,0.5,0,1","0,1,0.5,0,1,0.5,1,0.5,0","3",""
"","html-keyboard-response","291","155581","0.0-381.0","3SB5N7Y3O4Q8PVSWCHTLAKCRAAH0GJ","A307K1CZXGBN4L","3MXX6RQ9EVRTFC527Z18RDK8KW6P4R","","null","<img src=""img/food6.png"" style=""width:200px; border:14px solid green;"">","null","","","","","","","","","",""
"","image-keyboard-response","292","155742","0.0-382.0","3SB5N7Y3O4Q8PVSWCHTLAKCRAAH0GJ","A307K1CZXGBN4L","3MXX6RQ9EVRTFC527Z18RDK8KW6P4R","","158","img/food2.png","75","159","2","1","","2","1","1,0.5,0,1,0.5,0,0.5,0,1","0,1,0.5,0,1,0.5,1,0.5,0","3",""
"","html-keyboard-response","293","156045","0.0-383.0","3SB5N7Y3O4Q8PVSWCHTLAKCRAAH0GJ","A307K1CZXGBN4L","3MXX6RQ9EVRTFC527Z18RDK8KW6P4R","","null","<img src=""img/food2.png"" style=""width:200px; border:14px solid green;"">","null","","","","","","","","","",""
"","image-keyboard-response","294","156222","0.0-384.0","3SB5N7Y3O4Q8PVSWCHTLAKCRAAH0GJ","A307K1CZXGBN4L","3MXX6RQ9EVRTFC527Z18RDK8KW6P4R","","173","img/food2.png","75","176","2","1","","2","1","1,0.5,0,1,0.5,0,0.5,0,1","0,1,0.5,0,1,0.5,1,0.5,0","3",""
"","html-keyboard-response","295","156525","0.0-385.0","3SB5N7Y3O4Q8PVSWCHTLAKCRAAH0GJ","A307K1CZXGBN4L","3MXX6RQ9EVRTFC527Z18RDK8KW6P4R","","null","<img src=""img/food2.png"" style=""width:200px; border:14px solid green;"">","null","","","","","","","","","",""
"","image-keyboard-response","296","156703","0.0-386.0","3SB5N7Y3O4Q8PVSWCHTLAKCRAAH0GJ","A307K1CZXGBN4L","3MXX6RQ9EVRTFC527Z18RDK8KW6P4R","","175","img/food1.png","75","178","2","0","","3","1","1,0.5,0,1,0.5,0,0.5,0,1","0,1,0.5,0,1,0.5,1,0.5,0","3",""
"","html-keyboard-response","297","157005","0.0-387.0","3SB5N7Y3O4Q8PVSWCHTLAKCRAAH0GJ","A307K1CZXGBN4L","3MXX6RQ9EVRTFC527Z18RDK8KW6P4R","","null","<img src=""img/food1.png"" style=""width:200px;border:14px solid red;"">","null","","","","","","","","","",""
"","image-keyboard-response","298","157142","0.0-388.0","3SB5N7Y3O4Q8PVSWCHTLAKCRAAH0GJ","A307K1CZXGBN4L","3MXX6RQ9EVRTFC527Z18RDK8KW6P4R","","135","img/food1.png","75","137","2","1","","3","1","1,0.5,0,1,0.5,0,0.5,0,1","0,1,0.5,0,1,0.5,1,0.5,0","3",""
"","html-keyboard-response","299","157445","0.0-389.0","3SB5N7Y3O4Q8PVSWCHTLAKCRAAH0GJ","A307K1CZXGBN4L","3MXX6RQ9EVRTFC527Z18RDK8KW6P4R","","null","<img src=""img/food1.png"" style=""width:200px; border:14px solid green;"">","null","","","","","","","","","",""
"","image-keyboard-response","300","157590","0.0-390.0","3SB5N7Y3O4Q8PVSWCHTLAKCRAAH0GJ","A307K1CZXGBN4L","3MXX6RQ9EVRTFC527Z18RDK8KW6P4R","","143","img/food2.png","75","144","2","1","","2","1","1,0.5,0,1,0.5,0,0.5,0,1","0,1,0.5,0,1,0.5,1,0.5,0","3",""
"","html-keyboard-response","301","157892","0.0-391.0","3SB5N7Y3O4Q8PVSWCHTLAKCRAAH0GJ","A307K1CZXGBN4L","3MXX6RQ9EVRTFC527Z18RDK8KW6P4R","","null","<img src=""img/food2.png"" style=""width:200px; border:14px solid green;"">","null","","","","","","","","","",""
"","image-keyboard-response","302","158030","0.0-392.0","3SB5N7Y3O4Q8PVSWCHTLAKCRAAH0GJ","A307K1CZXGBN4L","3MXX6RQ9EVRTFC527Z18RDK8KW6P4R","","136","img/food2.png","75","137","2","1","","2","1","1,0.5,0,1,0.5,0,0.5,0,1","0,1,0.5,0,1,0.5,1,0.5,0","3",""
"","html-keyboard-response","303","158332","0.0-393.0","3SB5N7Y3O4Q8PVSWCHTLAKCRAAH0GJ","A307K1CZXGBN4L","3MXX6RQ9EVRTFC527Z18RDK8KW6P4R","","null","<img src=""img/food2.png"" style=""width:200px; border:14px solid green;"">","null","","","","","","","","","",""
"","image-keyboard-response","304","158478","0.0-394.0","3SB5N7Y3O4Q8PVSWCHTLAKCRAAH0GJ","A307K1CZXGBN4L","3MXX6RQ9EVRTFC527Z18RDK8KW6P4R","","143","img/food2.png","75","145","2","1","","2","1","1,0.5,0,1,0.5,0,0.5,0,1","0,1,0.5,0,1,0.5,1,0.5,0","3",""
"","html-keyboard-response","305","158780","0.0-395.0","3SB5N7Y3O4Q8PVSWCHTLAKCRAAH0GJ","A307K1CZXGBN4L","3MXX6RQ9EVRTFC527Z18RDK8KW6P4R","","null","<img src=""img/food2.png"" style=""width:200px; border:14px solid green;"">","null","","","","","","","","","",""
"","image-keyboard-response","306","158958","0.0-396.0","3SB5N7Y3O4Q8PVSWCHTLAKCRAAH0GJ","A307K1CZXGBN4L","3MXX6RQ9EVRTFC527Z18RDK8KW6P4R","","175","img/food2.png","75","177","2","1","","2","1","1,0.5,0,1,0.5,0,0.5,0,1","0,1,0.5,0,1,0.5,1,0.5,0","3",""
"","html-keyboard-response","307","159260","0.0-397.0","3SB5N7Y3O4Q8PVSWCHTLAKCRAAH0GJ","A307K1CZXGBN4L","3MXX6RQ9EVRTFC527Z18RDK8KW6P4R","","null","<img src=""img/food2.png"" style=""width:200px; border:14px solid green;"">","null","","","","","","","","","",""
"","image-keyboard-response","308","159438","0.0-398.0","3SB5N7Y3O4Q8PVSWCHTLAKCRAAH0GJ","A307K1CZXGBN4L","3MXX6RQ9EVRTFC527Z18RDK8KW6P4R","","176","img/food1.png","75","177","2","1","","3","1","1,0.5,0,1,0.5,0,0.5,0,1","0,1,0.5,0,1,0.5,1,0.5,0","3",""
"","html-keyboard-response","309","159740","0.0-399.0","3SB5N7Y3O4Q8PVSWCHTLAKCRAAH0GJ","A307K1CZXGBN4L","3MXX6RQ9EVRTFC527Z18RDK8KW6P4R","","null","<img src=""img/food1.png"" style=""width:200px; border:14px solid green;"">","null","","","","","","","","","",""
"","image-keyboard-response","310","159926","0.0-400.0","3SB5N7Y3O4Q8PVSWCHTLAKCRAAH0GJ","A307K1CZXGBN4L","3MXX6RQ9EVRTFC527Z18RDK8KW6P4R","","184","img/food2.png","75","186","2","1","","2","1","1,0.5,0,1,0.5,0,0.5,0,1","0,1,0.5,0,1,0.5,1,0.5,0","3",""
"","html-keyboard-response","311","160228","0.0-401.0","3SB5N7Y3O4Q8PVSWCHTLAKCRAAH0GJ","A307K1CZXGBN4L","3MXX6RQ9EVRTFC527Z18RDK8KW6P4R","","null","<img src=""img/food2.png"" style=""width:200px; border:14px solid green;"">","null","","","","","","","","","",""
"","image-keyboard-response","312","160366","0.0-402.0","3SB5N7Y3O4Q8PVSWCHTLAKCRAAH0GJ","A307K1CZXGBN4L","3MXX6RQ9EVRTFC527Z18RDK8KW6P4R","","136","img/food2.png","75","137","2","1","","2","1","1,0.5,0,1,0.5,0,0.5,0,1","0,1,0.5,0,1,0.5,1,0.5,0","3",""
"","html-keyboard-response","313","160668","0.0-403.0","3SB5N7Y3O4Q8PVSWCHTLAKCRAAH0GJ","A307K1CZXGBN4L","3MXX6RQ9EVRTFC527Z18RDK8KW6P4R","","null","<img src=""img/food2.png"" style=""width:200px; border:14px solid green;"">","null","","","","","","","","","",""
"","image-keyboard-response","314","160830","0.0-404.0","3SB5N7Y3O4Q8PVSWCHTLAKCRAAH0GJ","A307K1CZXGBN4L","3MXX6RQ9EVRTFC527Z18RDK8KW6P4R","","160","img/food2.png","75","161","2","1","","2","1","1,0.5,0,1,0.5,0,0.5,0,1","0,1,0.5,0,1,0.5,1,0.5,0","3",""
"","html-keyboard-response","315","161133","0.0-405.0","3SB5N7Y3O4Q8PVSWCHTLAKCRAAH0GJ","A307K1CZXGBN4L","3MXX6RQ9EVRTFC527Z18RDK8KW6P4R","","null","<img src=""img/food2.png"" style=""width:200px; border:14px solid green;"">","null","","","","","","","","","",""
"","image-keyboard-response","316","161304","0.0-406.0","3SB5N7Y3O4Q8PVSWCHTLAKCRAAH0GJ","A307K1CZXGBN4L","3MXX6RQ9EVRTFC527Z18RDK8KW6P4R","","169","img/food2.png","75","171","2","1","","2","1","1,0.5,0,1,0.5,0,0.5,0,1","0,1,0.5,0,1,0.5,1,0.5,0","3",""
"","html-keyboard-response","317","161605","0.0-407.0","3SB5N7Y3O4Q8PVSWCHTLAKCRAAH0GJ","A307K1CZXGBN4L","3MXX6RQ9EVRTFC527Z18RDK8KW6P4R","","null","<img src=""img/food2.png"" style=""width:200px; border:14px solid green;"">","null","","","","","","","","","",""
"","image-keyboard-response","318","161750","0.0-408.0","3SB5N7Y3O4Q8PVSWCHTLAKCRAAH0GJ","A307K1CZXGBN4L","3MXX6RQ9EVRTFC527Z18RDK8KW6P4R","","142","img/food1.png","75","144","2","1","","3","1","1,0.5,0,1,0.5,0,0.5,0,1","0,1,0.5,0,1,0.5,1,0.5,0","3",""
"","html-keyboard-response","319","162053","0.0-409.0","3SB5N7Y3O4Q8PVSWCHTLAKCRAAH0GJ","A307K1CZXGBN4L","3MXX6RQ9EVRTFC527Z18RDK8KW6P4R","","null","<img src=""img/food1.png"" style=""width:200px; border:14px solid green;"">","null","","","","","","","","","",""
"","image-keyboard-response","320","162191","0.0-410.0","3SB5N7Y3O4Q8PVSWCHTLAKCRAAH0GJ","A307K1CZXGBN4L","3MXX6RQ9EVRTFC527Z18RDK8KW6P4R","","136","img/food6.png","75","137","2","1","","1","1","1,0.5,0,1,0.5,0,0.5,0,1","0,1,0.5,0,1,0.5,1,0.5,0","3",""
"","html-keyboard-response","321","162493","0.0-411.0","3SB5N7Y3O4Q8PVSWCHTLAKCRAAH0GJ","A307K1CZXGBN4L","3MXX6RQ9EVRTFC527Z18RDK8KW6P4R","","null","<img src=""img/food6.png"" style=""width:200px; border:14px solid green;"">","null","","","","","","","","","",""
"","image-keyboard-response","322","162647","0.0-412.0","3SB5N7Y3O4Q8PVSWCHTLAKCRAAH0GJ","A307K1CZXGBN4L","3MXX6RQ9EVRTFC527Z18RDK8KW6P4R","","152","img/food6.png","75","153","2","1","","1","1","1,0.5,0,1,0.5,0,0.5,0,1","0,1,0.5,0,1,0.5,1,0.5,0","3",""
"","html-keyboard-response","323","162949","0.0-413.0","3SB5N7Y3O4Q8PVSWCHTLAKCRAAH0GJ","A307K1CZXGBN4L","3MXX6RQ9EVRTFC527Z18RDK8KW6P4R","","null","<img src=""img/food6.png"" style=""width:200px; border:14px solid green;"">","null","","","","","","","","","",""
"","image-keyboard-response","324","163102","0.0-414.0","3SB5N7Y3O4Q8PVSWCHTLAKCRAAH0GJ","A307K1CZXGBN4L","3MXX6RQ9EVRTFC527Z18RDK8KW6P4R","","149","img/food1.png","75","151","2","0","","3","1","1,0.5,0,1,0.5,0,0.5,0,1","0,1,0.5,0,1,0.5,1,0.5,0","3",""
"","html-keyboard-response","325","163405","0.0-415.0","3SB5N7Y3O4Q8PVSWCHTLAKCRAAH0GJ","A307K1CZXGBN4L","3MXX6RQ9EVRTFC527Z18RDK8KW6P4R","","null","<img src=""img/food1.png"" style=""width:200px;border:14px solid red;"">","null","","","","","","","","","",""
"","image-keyboard-response","326","163519","0.0-416.0","3SB5N7Y3O4Q8PVSWCHTLAKCRAAH0GJ","A307K1CZXGBN4L","3MXX6RQ9EVRTFC527Z18RDK8KW6P4R","","111","img/food2.png","75","113","2","1","","2","1","1,0.5,0,1,0.5,0,0.5,0,1","0,1,0.5,0,1,0.5,1,0.5,0","3",""
"","html-keyboard-response","327","163821","0.0-417.0","3SB5N7Y3O4Q8PVSWCHTLAKCRAAH0GJ","A307K1CZXGBN4L","3MXX6RQ9EVRTFC527Z18RDK8KW6P4R","","null","<img src=""img/food2.png"" style=""width:200px; border:14px solid green;"">","null","","","","","","","","","",""
"","image-keyboard-response","328","163974","0.0-418.0","3SB5N7Y3O4Q8PVSWCHTLAKCRAAH0GJ","A307K1CZXGBN4L","3MXX6RQ9EVRTFC527Z18RDK8KW6P4R","","150","img/food6.png","75","152","2","1","","1","1","1,0.5,0,1,0.5,0,0.5,0,1","0,1,0.5,0,1,0.5,1,0.5,0","3",""
"","html-keyboard-response","329","164276","0.0-419.0","3SB5N7Y3O4Q8PVSWCHTLAKCRAAH0GJ","A307K1CZXGBN4L","3MXX6RQ9EVRTFC527Z18RDK8KW6P4R","","null","<img src=""img/food6.png"" style=""width:200px; border:14px solid green;"">","null","","","","","","","","","",""
"","image-keyboard-response","330","164414","0.0-420.0","3SB5N7Y3O4Q8PVSWCHTLAKCRAAH0GJ","A307K1CZXGBN4L","3MXX6RQ9EVRTFC527Z18RDK8KW6P4R","","135","img/food1.png","75","138","2","0","","3","1","1,0.5,0,1,0.5,0,0.5,0,1","0,1,0.5,0,1,0.5,1,0.5,0","3",""
"","html-keyboard-response","331","164716","0.0-421.0","3SB5N7Y3O4Q8PVSWCHTLAKCRAAH0GJ","A307K1CZXGBN4L","3MXX6RQ9EVRTFC527Z18RDK8KW6P4R","","null","<img src=""img/food1.png"" style=""width:200px;border:14px solid red;"">","null","","","","","","","","","",""
"","image-keyboard-response","332","164849","0.0-422.0","3SB5N7Y3O4Q8PVSWCHTLAKCRAAH0GJ","A307K1CZXGBN4L","3MXX6RQ9EVRTFC527Z18RDK8KW6P4R","","130","img/food6.png","75","133","2","1","","1","1","1,0.5,0,1,0.5,0,0.5,0,1","0,1,0.5,0,1,0.5,1,0.5,0","3",""
"","html-keyboard-response","333","165151","0.0-423.0","3SB5N7Y3O4Q8PVSWCHTLAKCRAAH0GJ","A307K1CZXGBN4L","3MXX6RQ9EVRTFC527Z18RDK8KW6P4R","","null","<img src=""img/food6.png"" style=""width:200px; border:14px solid green;"">","null","","","","","","","","","",""
"","image-keyboard-response","334","165294","0.0-424.0","3SB5N7Y3O4Q8PVSWCHTLAKCRAAH0GJ","A307K1CZXGBN4L","3MXX6RQ9EVRTFC527Z18RDK8KW6P4R","","140","img/food1.png","75","141","2","0","","3","1","1,0.5,0,1,0.5,0,0.5,0,1","0,1,0.5,0,1,0.5,1,0.5,0","3",""
"","html-keyboard-response","335","165597","0.0-425.0","3SB5N7Y3O4Q8PVSWCHTLAKCRAAH0GJ","A307K1CZXGBN4L","3MXX6RQ9EVRTFC527Z18RDK8KW6P4R","","null","<img src=""img/food1.png"" style=""width:200px;border:14px solid red;"">","null","","","","","","","","","",""
"","image-keyboard-response","336","165755","0.0-426.0","3SB5N7Y3O4Q8PVSWCHTLAKCRAAH0GJ","A307K1CZXGBN4L","3MXX6RQ9EVRTFC527Z18RDK8KW6P4R","","155","img/food6.png","75","157","2","1","","1","1","1,0.5,0,1,0.5,0,0.5,0,1","0,1,0.5,0,1,0.5,1,0.5,0","3",""
"","html-keyboard-response","337","166061","0.0-427.0","3SB5N7Y3O4Q8PVSWCHTLAKCRAAH0GJ","A307K1CZXGBN4L","3MXX6RQ9EVRTFC527Z18RDK8KW6P4R","","null","<img src=""img/food6.png"" style=""width:200px; border:14px solid green;"">","null","","","","","","","","","",""
"","image-keyboard-response","338","166199","0.0-428.0","3SB5N7Y3O4Q8PVSWCHTLAKCRAAH0GJ","A307K1CZXGBN4L","3MXX6RQ9EVRTFC527Z18RDK8KW6P4R","","138","img/food1.png","75","140","2","0","","3","1","1,0.5,0,1,0.5,0,0.5,0,1","0,1,0.5,0,1,0.5,1,0.5,0","3",""
"","html-keyboard-response","339","166502","0.0-429.0","3SB5N7Y3O4Q8PVSWCHTLAKCRAAH0GJ","A307K1CZXGBN4L","3MXX6RQ9EVRTFC527Z18RDK8KW6P4R","","null","<img src=""img/food1.png"" style=""width:200px;border:14px solid red;"">","null","","","","","","","","","",""
"","image-keyboard-response","340","166631","0.0-430.0","3SB5N7Y3O4Q8PVSWCHTLAKCRAAH0GJ","A307K1CZXGBN4L","3MXX6RQ9EVRTFC527Z18RDK8KW6P4R","","127","img/food1.png","75","127","2","0","","3","1","1,0.5,0,1,0.5,0,0.5,0,1","0,1,0.5,0,1,0.5,1,0.5,0","3",""
"","html-keyboard-response","341","166934","0.0-431.0","3SB5N7Y3O4Q8PVSWCHTLAKCRAAH0GJ","A307K1CZXGBN4L","3MXX6RQ9EVRTFC527Z18RDK8KW6P4R","","null","<img src=""img/food1.png"" style=""width:200px;border:14px solid red;"">","null","","","","","","","","","",""
"","image-keyboard-response","342","167053","0.0-432.0","3SB5N7Y3O4Q8PVSWCHTLAKCRAAH0GJ","A307K1CZXGBN4L","3MXX6RQ9EVRTFC527Z18RDK8KW6P4R","","116","img/food1.png","75","118","2","0","","3","1","1,0.5,0,1,0.5,0,0.5,0,1","0,1,0.5,0,1,0.5,1,0.5,0","3",""
"","html-keyboard-response","343","167356","0.0-433.0","3SB5N7Y3O4Q8PVSWCHTLAKCRAAH0GJ","A307K1CZXGBN4L","3MXX6RQ9EVRTFC527Z18RDK8KW6P4R","","null","<img src=""img/food1.png"" style=""width:200px;border:14px solid red;"">","null","","","","","","","","","",""
"","image-keyboard-response","344","167531","0.0-434.0","3SB5N7Y3O4Q8PVSWCHTLAKCRAAH0GJ","A307K1CZXGBN4L","3MXX6RQ9EVRTFC527Z18RDK8KW6P4R","","173","img/food2.png","75","175","2","1","","2","1","1,0.5,0,1,0.5,0,0.5,0,1","0,1,0.5,0,1,0.5,1,0.5,0","3",""
"","html-keyboard-response","345","167833","0.0-435.0","3SB5N7Y3O4Q8PVSWCHTLAKCRAAH0GJ","A307K1CZXGBN4L","3MXX6RQ9EVRTFC527Z18RDK8KW6P4R","","null","<img src=""img/food2.png"" style=""width:200px; border:14px solid green;"">","null","","","","","","","","","",""
"","image-keyboard-response","346","167948","0.0-436.0","3SB5N7Y3O4Q8PVSWCHTLAKCRAAH0GJ","A307K1CZXGBN4L","3MXX6RQ9EVRTFC527Z18RDK8KW6P4R","","112","img/food1.png","75","114","2","1","","3","1","1,0.5,0,1,0.5,0,0.5,0,1","0,1,0.5,0,1,0.5,1,0.5,0","3",""
"","html-keyboard-response","347","168251","0.0-437.0","3SB5N7Y3O4Q8PVSWCHTLAKCRAAH0GJ","A307K1CZXGBN4L","3MXX6RQ9EVRTFC527Z18RDK8KW6P4R","","null","<img src=""img/food1.png"" style=""width:200px; border:14px solid green;"">","null","","","","","","","","","",""
"","image-keyboard-response","348","168375","0.0-438.0","3SB5N7Y3O4Q8PVSWCHTLAKCRAAH0GJ","A307K1CZXGBN4L","3MXX6RQ9EVRTFC527Z18RDK8KW6P4R","","121","img/food6.png","75","122","2","1","","1","1","1,0.5,0,1,0.5,0,0.5,0,1","0,1,0.5,0,1,0.5,1,0.5,0","3",""
"","html-keyboard-response","349","168677","0.0-439.0","3SB5N7Y3O4Q8PVSWCHTLAKCRAAH0GJ","A307K1CZXGBN4L","3MXX6RQ9EVRTFC527Z18RDK8KW6P4R","","null","<img src=""img/food6.png"" style=""width:200px; border:14px solid green;"">","null","","","","","","","","","",""
"","image-keyboard-response","350","168798","0.0-440.0","3SB5N7Y3O4Q8PVSWCHTLAKCRAAH0GJ","A307K1CZXGBN4L","3MXX6RQ9EVRTFC527Z18RDK8KW6P4R","","120","img/food1.png","75","122","2","1","","3","1","1,0.5,0,1,0.5,0,0.5,0,1","0,1,0.5,0,1,0.5,1,0.5,0","3",""
"","html-keyboard-response","351","169104","0.0-441.0","3SB5N7Y3O4Q8PVSWCHTLAKCRAAH0GJ","A307K1CZXGBN4L","3MXX6RQ9EVRTFC527Z18RDK8KW6P4R","","null","<img src=""img/food1.png"" style=""width:200px; border:14px solid green;"">","null","","","","","","","","","",""
"","image-keyboard-response","352","169246","0.0-442.0","3SB5N7Y3O4Q8PVSWCHTLAKCRAAH0GJ","A307K1CZXGBN4L","3MXX6RQ9EVRTFC527Z18RDK8KW6P4R","","139","img/food6.png","75","141","2","1","","1","1","1,0.5,0,1,0.5,0,0.5,0,1","0,1,0.5,0,1,0.5,1,0.5,0","3",""
"","html-keyboard-response","353","169549","0.0-443.0","3SB5N7Y3O4Q8PVSWCHTLAKCRAAH0GJ","A307K1CZXGBN4L","3MXX6RQ9EVRTFC527Z18RDK8KW6P4R","","null","<img src=""img/food6.png"" style=""width:200px; border:14px solid green;"">","null","","","","","","","","","",""
"","image-keyboard-response","354","169694","0.0-444.0","3SB5N7Y3O4Q8PVSWCHTLAKCRAAH0GJ","A307K1CZXGBN4L","3MXX6RQ9EVRTFC527Z18RDK8KW6P4R","","143","img/food6.png","75","145","2","1","","1","1","1,0.5,0,1,0.5,0,0.5,0,1","0,1,0.5,0,1,0.5,1,0.5,0","3",""
"","html-keyboard-response","355","169996","0.0-445.0","3SB5N7Y3O4Q8PVSWCHTLAKCRAAH0GJ","A307K1CZXGBN4L","3MXX6RQ9EVRTFC527Z18RDK8KW6P4R","","null","<img src=""img/food6.png"" style=""width:200px; border:14px solid green;"">","null","","","","","","","","","",""
"","image-keyboard-response","356","170119","0.0-446.0","3SB5N7Y3O4Q8PVSWCHTLAKCRAAH0GJ","A307K1CZXGBN4L","3MXX6RQ9EVRTFC527Z18RDK8KW6P4R","","121","img/food2.png","75","122","2","1","","2","1","1,0.5,0,1,0.5,0,0.5,0,1","0,1,0.5,0,1,0.5,1,0.5,0","3",""
"","html-keyboard-response","357","170421","0.0-447.0","3SB5N7Y3O4Q8PVSWCHTLAKCRAAH0GJ","A307K1CZXGBN4L","3MXX6RQ9EVRTFC527Z18RDK8KW6P4R","","null","<img src=""img/food2.png"" style=""width:200px; border:14px solid green;"">","null","","","","","","","","","",""
"","image-keyboard-response","358","170551","0.0-448.0","3SB5N7Y3O4Q8PVSWCHTLAKCRAAH0GJ","A307K1CZXGBN4L","3MXX6RQ9EVRTFC527Z18RDK8KW6P4R","","125","img/food1.png","75","127","2","0","","3","1","1,0.5,0,1,0.5,0,0.5,0,1","0,1,0.5,0,1,0.5,1,0.5,0","3",""
"","html-keyboard-response","359","170853","0.0-449.0","3SB5N7Y3O4Q8PVSWCHTLAKCRAAH0GJ","A307K1CZXGBN4L","3MXX6RQ9EVRTFC527Z18RDK8KW6P4R","","null","<img src=""img/food1.png"" style=""width:200px;border:14px solid red;"">","null","","","","","","","","","",""
"","image-keyboard-response","360","170959","0.0-450.0","3SB5N7Y3O4Q8PVSWCHTLAKCRAAH0GJ","A307K1CZXGBN4L","3MXX6RQ9EVRTFC527Z18RDK8KW6P4R","","103","img/food1.png","75","104","2","1","","3","1","1,0.5,0,1,0.5,0,0.5,0,1","0,1,0.5,0,1,0.5,1,0.5,0","3",""
"","html-keyboard-response","361","171260","0.0-451.0","3SB5N7Y3O4Q8PVSWCHTLAKCRAAH0GJ","A307K1CZXGBN4L","3MXX6RQ9EVRTFC527Z18RDK8KW6P4R","","null","<img src=""img/food1.png"" style=""width:200px; border:14px solid green;"">","null","","","","","","","","","",""
"","image-keyboard-response","362","171398","0.0-452.0","3SB5N7Y3O4Q8PVSWCHTLAKCRAAH0GJ","A307K1CZXGBN4L","3MXX6RQ9EVRTFC527Z18RDK8KW6P4R","","137","img/food6.png","75","138","2","1","","1","1","1,0.5,0,1,0.5,0,0.5,0,1","0,1,0.5,0,1,0.5,1,0.5,0","3",""
"","html-keyboard-response","363","171701","0.0-453.0","3SB5N7Y3O4Q8PVSWCHTLAKCRAAH0GJ","A307K1CZXGBN4L","3MXX6RQ9EVRTFC527Z18RDK8KW6P4R","","null","<img src=""img/food6.png"" style=""width:200px; border:14px solid green;"">","null","","","","","","","","","",""
"","html-keyboard-response","364","175787","0.0-454.0","3SB5N7Y3O4Q8PVSWCHTLAKCRAAH0GJ","A307K1CZXGBN4L","3MXX6RQ9EVRTFC527Z18RDK8KW6P4R","","","","","","","","","","","","","",""
"","instructions","365","180521","0.0-455.0","3SB5N7Y3O4Q8PVSWCHTLAKCRAAH0GJ","A307K1CZXGBN4L","3MXX6RQ9EVRTFC527Z18RDK8KW6P4R","[{""page_index"":0,""viewing_time"":4730}]","4731","","","","","","","","","","","",""
"","survey-text","366","188817","0.0-456.0","3SB5N7Y3O4Q8PVSWCHTLAKCRAAH0GJ","A307K1CZXGBN4L","3MXX6RQ9EVRTFC527Z18RDK8KW6P4R","","8284","","","","","","","","","","","","{""Q0"":""A307K1CZXGBN4L""}"
