"success","trial_type","trial_index","time_elapsed","internal_node_id","assignmentID","mturkID","hitID","view_history","rt","stimulus","key_press","reactionTime","a","r","s","cond","reward_cond","reward_cond_actual","reward_matrix_idx","warning","responses"
"true","fullscreen","0","10940","0.0-0.0","","","","","","","","","","","","","","","","",""
"","instructions","1","21417","0.0-1.0","","","","[{""page_index"":0,""viewing_time"":1889.9000000003725},{""page_index"":1,""viewing_time"":623.7999999998137},{""page_index"":2,""viewing_time"":545.3999999994412},{""page_index"":3,""viewing_time"":1582.4000000003725},{""page_index"":4,""viewing_time"":1984},{""page_index"":5,""viewing_time"":3096.0999999996275},{""page_index"":6,""viewing_time"":752}]","10474.099999999627","","","","","","","","","","","",""
"","image-keyboard-response","2","22017","0.0-2.0","","","","","598.0999999996275","img/food3.png","74","599.8000000007451","1","1","2","1","1,0.7,0,1,0.7,0,0.7,0,1","1,0.7,0,1,0.7,0,0.7,0,1","1","",""
"","html-keyboard-response","3","22320","0.0-3.0","","","","","null","<img src=""img/food3.png"" style=""width:200px; border:14px solid green;"">","null","","","","","","","","","",""
"","image-keyboard-response","4","22560","0.0-4.0","","","","","238.6000000005588","img/food1.png","75","239.70000000018626","2","1","1","1","1,0.7,0,1,0.7,0,0.7,0,1","1,0.7,0,1,0.7,0,0.7,0,1","1","",""
"","html-keyboard-response","5","22870","0.0-5.0","","","","","null","<img src=""img/food1.png"" style=""width:200px; border:14px solid green;"">","null","","","","","","","","","",""
"","image-keyboard-response","6","22960","0.0-6.0","","","","","89","img/food4.png","74","90.19999999925494","1","1","3","1","1,0.7,0,1,0.7,0,0.7,0,1","1,0.7,0,1,0.7,0,0.7,0,1","1","",""
"","html-keyboard-response","7","23280","0.0-7.0","","","","","null","<img src=""img/food4.png"" style=""width:200px; border:14px solid green;"">","null","","","","","","","","","",""
"","image-keyboard-response","8","23424","0.0-8.0","","","","","143.29999999981374","img/food1.png","75","144.5","2","0","1","1","1,0.7,0,1,0.7,0,0.7,0,1","1,0.7,0,1,0.7,0,0.7,0,1","1","",""
"","html-keyboard-response","9","23728","0.0-9.0","","","","","null","<img src=""img/food1.png"" style=""width:200px;border:14px solid red;"">","null","","","","","","","","","",""
"","image-keyboard-response","10","23808","0.0-10.0","","","","","79.29999999981374","img/food4.png","75","80.3999999994412","2","0","3","1","1,0.7,0,1,0.7,0,0.7,0,1","1,0.7,0,1,0.7,0,0.7,0,1","1","",""
"","html-keyboard-response","11","24110","0.0-11.0","","","","","null","<img src=""img/food4.png"" style=""width:200px;border:14px solid red;"">","null","","","","","","","","","",""
"","image-keyboard-response","12","24176","0.0-12.0","","","","","65.1000000005588","img/food1.png","74","66.1000000005588","1","1","1","1","1,0.7,0,1,0.7,0,0.7,0,1","1,0.7,0,1,0.7,0,0.7,0,1","1","",""
"","html-keyboard-response","13","24480","0.0-13.0","","","","","null","<img src=""img/food1.png"" style=""width:200px; border:14px solid green;"">","null","","","","","","","","","",""
"","image-keyboard-response","14","24496","0.0-14.0","","","","","15.399999999441206","img/food3.png","76","16.399999999441206","3","0","2","1","1,0.7,0,1,0.7,0,0.7,0,1","1,0.7,0,1,0.7,0,0.7,0,1","1","",""
"","html-keyboard-response","15","24800","0.0-15.0","","","","","null","<img src=""img/food3.png"" style=""width:200px;border:14px solid red;"">","null","","","","","","","","","",""
"","image-keyboard-response","16","24912","0.0-16.0","","","","","110.90000000037253","img/food1.png","75","111.79999999981374","2","1","1","1","1,0.7,0,1,0.7,0,0.7,0,1","1,0.7,0,1,0.7,0,0.7,0,1","1","",""
"","html-keyboard-response","17","25220","0.0-17.0","","","","","null","<img src=""img/food1.png"" style=""width:200px; border:14px solid green;"">","null","","","","","","","","","",""
"","image-keyboard-response","18","25232","0.0-18.0","","","","","11.5","img/food3.png","75","12.400000000372529","2","1","2","1","1,0.7,0,1,0.7,0,0.7,0,1","1,0.7,0,1,0.7,0,0.7,0,1","1","",""
"","html-keyboard-response","19","25550","0.0-19.0","","","","","null","<img src=""img/food3.png"" style=""width:200px; border:14px solid green;"">","null","","","","","","","","","",""
"","image-keyboard-response","20","25616","0.0-20.0","","","","","65.20000000018626","img/food4.png","76","66.19999999925494","3","1","3","1","1,0.7,0,1,0.7,0,0.7,0,1","1,0.7,0,1,0.7,0,0.7,0,1","1","",""
"","html-keyboard-response","21","25920","0.0-21.0","","","","","null","<img src=""img/food4.png"" style=""width:200px; border:14px solid green;"">","null","","","","","","","","","",""
"","image-keyboard-response","22","25968","0.0-22.0","","","","","47.299999999813735","img/food3.png","74","48.299999999813735","1","1","2","1","1,0.7,0,1,0.7,0,0.7,0,1","1,0.7,0,1,0.7,0,0.7,0,1","1","",""
"","html-keyboard-response","23","26269","0.0-23.0","","","","","null","<img src=""img/food3.png"" style=""width:200px; border:14px solid green;"">","null","","","","","","","","","",""
"","image-keyboard-response","24","26273","0.0-24.0","","","","","2.400000000372529","img/food1.png","75","3.2000000001862645","2","1","1","1","1,0.7,0,1,0.7,0,0.7,0,1","1,0.7,0,1,0.7,0,0.7,0,1","1","",""
"","html-keyboard-response","25","26580","0.0-25.0","","","","","null","<img src=""img/food1.png"" style=""width:200px; border:14px solid green;"">","null","","","","","","","","","",""
"","image-keyboard-response","26","26640","0.0-26.0","","","","","59.30000000074506","img/food1.png","75","60.200000000186265","2","0","1","1","1,0.7,0,1,0.7,0,0.7,0,1","1,0.7,0,1,0.7,0,0.7,0,1","1","",""
"","html-keyboard-response","27","26944","0.0-27.0","","","","","null","<img src=""img/food1.png"" style=""width:200px;border:14px solid red;"">","null","","","","","","","","","",""
"","image-keyboard-response","28","27088","0.0-28.0","","","","","143.20000000018626","img/food1.png","76","144.20000000018626","3","0","1","1","1,0.7,0,1,0.7,0,0.7,0,1","1,0.7,0,1,0.7,0,0.7,0,1","1","",""
"","html-keyboard-response","29","27390","0.0-29.0","","","","","null","<img src=""img/food1.png"" style=""width:200px;border:14px solid red;"">","null","","","","","","","","","",""
"","image-keyboard-response","30","27440","0.0-30.0","","","","","49.09999999962747","img/food4.png","76","50.200000000186265","3","1","3","1","1,0.7,0,1,0.7,0,0.7,0,1","1,0.7,0,1,0.7,0,0.7,0,1","1","",""
"","html-keyboard-response","31","27744","0.0-31.0","","","","","null","<img src=""img/food4.png"" style=""width:200px; border:14px solid green;"">","null","","","","","","","","","",""
"","image-keyboard-response","32","27824","0.0-32.0","","","","","78.69999999925494","img/food1.png","76","79.69999999925494","3","0","1","1","1,0.7,0,1,0.7,0,0.7,0,1","1,0.7,0,1,0.7,0,0.7,0,1","1","",""
"","html-keyboard-response","33","28140","0.0-33.0","","","","","null","<img src=""img/food1.png"" style=""width:200px;border:14px solid red;"">","null","","","","","","","","","",""
"","image-keyboard-response","34","28144","0.0-34.0","","","","","2.7999999998137355","img/food4.png","76","3.6000000005587935","3","1","3","1","1,0.7,0,1,0.7,0,0.7,0,1","1,0.7,0,1,0.7,0,0.7,0,1","1","",""
"","html-keyboard-response","35","28450","0.0-35.0","","","","","null","<img src=""img/food4.png"" style=""width:200px; border:14px solid green;"">","null","","","","","","","","","",""
"","image-keyboard-response","36","28464","0.0-36.0","","","","","13.100000000558794","img/food4.png","75","14","2","0","3","1","1,0.7,0,1,0.7,0,0.7,0,1","1,0.7,0,1,0.7,0,0.7,0,1","1","",""
"","html-keyboard-response","37","28770","0.0-37.0","","","","","null","<img src=""img/food4.png"" style=""width:200px;border:14px solid red;"">","null","","","","","","","","","",""
"","image-keyboard-response","38","28784","0.0-38.0","","","","","13.099999999627471","img/food3.png","76","14","3","0","2","1","1,0.7,0,1,0.7,0,0.7,0,1","1,0.7,0,1,0.7,0,0.7,0,1","1","",""
"","html-keyboard-response","39","29086","0.0-39.0","","","","","null","<img src=""img/food3.png"" style=""width:200px;border:14px solid red;"">","null","","","","","","","","","",""
"","image-keyboard-response","40","29105","0.0-40.0","","","","","17.09999999962747","img/food1.png","74","18.100000000558794","1","1","1","1","1,0.7,0,1,0.7,0,0.7,0,1","1,0.7,0,1,0.7,0,0.7,0,1","1","",""
"","html-keyboard-response","41","29407","0.0-41.0","","","","","null","<img src=""img/food1.png"" style=""width:200px; border:14px solid green;"">","null","","","","","","","","","",""
"","image-keyboard-response","42","29424","0.0-42.0","","","","","16.200000000186265","img/food1.png","76","17.09999999962747","3","0","1","1","1,0.7,0,1,0.7,0,0.7,0,1","1,0.7,0,1,0.7,0,0.7,0,1","1","",""
"","html-keyboard-response","43","29726","0.0-43.0","","","","","null","<img src=""img/food1.png"" style=""width:200px;border:14px solid red;"">","null","","","","","","","","","",""
"","image-keyboard-response","44","29760","0.0-44.0","","","","","33.200000000186265","img/food1.png","75","34.299999999813735","2","1","1","1","1,0.7,0,1,0.7,0,0.7,0,1","1,0.7,0,1,0.7,0,0.7,0,1","1","",""
"","html-keyboard-response","45","30063","0.0-45.0","","","","","null","<img src=""img/food1.png"" style=""width:200px; border:14px solid green;"">","null","","","","","","","","","",""
"","image-keyboard-response","46","30096","0.0-46.0","","","","","32.299999999813735","img/food3.png","76","33.299999999813735","3","0","2","1","1,0.7,0,1,0.7,0,0.7,0,1","1,0.7,0,1,0.7,0,0.7,0,1","1","",""
"","html-keyboard-response","47","30398","0.0-47.0","","","","","null","<img src=""img/food3.png"" style=""width:200px;border:14px solid red;"">","null","","","","","","","","","",""
"","image-keyboard-response","48","30400","0.0-48.0","","","","","1.5","img/food4.png","74","2.5","1","1","3","1","1,0.7,0,1,0.7,0,0.7,0,1","1,0.7,0,1,0.7,0,0.7,0,1","1","",""
"","html-keyboard-response","49","30704","0.0-49.0","","","","","null","<img src=""img/food4.png"" style=""width:200px; border:14px solid green;"">","null","","","","","","","","","",""
"","image-keyboard-response","50","30784","0.0-50.0","","","","","79.19999999925494","img/food1.png","76","80.19999999925494","3","0","1","1","1,0.7,0,1,0.7,0,0.7,0,1","1,0.7,0,1,0.7,0,0.7,0,1","1","",""
"","html-keyboard-response","51","31086","0.0-51.0","","","","","null","<img src=""img/food1.png"" style=""width:200px;border:14px solid red;"">","null","","","","","","","","","",""
"","image-keyboard-response","52","31104","0.0-52.0","","","","","16.700000000186265","img/food1.png","76","17.700000000186265","3","0","1","1","1,0.7,0,1,0.7,0,0.7,0,1","1,0.7,0,1,0.7,0,0.7,0,1","1","",""
"","html-keyboard-response","53","31406","0.0-53.0","","","","","null","<img src=""img/food1.png"" style=""width:200px;border:14px solid red;"">","null","","","","","","","","","",""
"","image-keyboard-response","54","31440","0.0-54.0","","","","","33.200000000186265","img/food3.png","76","34.09999999962747","3","0","2","1","1,0.7,0,1,0.7,0,0.7,0,1","1,0.7,0,1,0.7,0,0.7,0,1","1","",""
"","html-keyboard-response","55","31742","0.0-55.0","","","","","null","<img src=""img/food3.png"" style=""width:200px;border:14px solid red;"">","null","","","","","","","","","",""
"","image-keyboard-response","56","31808","0.0-56.0","","","","","65","img/food3.png","76","65.90000000037253","3","0","2","1","1,0.7,0,1,0.7,0,0.7,0,1","1,0.7,0,1,0.7,0,0.7,0,1","1","",""
"","html-keyboard-response","57","32110","0.0-57.0","","","","","null","<img src=""img/food3.png"" style=""width:200px;border:14px solid red;"">","null","","","","","","","","","",""
"","image-keyboard-response","58","32128","0.0-58.0","","","","","16.90000000037253","img/food3.png","74","17.799999999813735","1","1","2","1","1,0.7,0,1,0.7,0,0.7,0,1","1,0.7,0,1,0.7,0,0.7,0,1","1","",""
"","html-keyboard-response","59","32430","0.0-59.0","","","","","null","<img src=""img/food3.png"" style=""width:200px; border:14px solid green;"">","null","","","","","","","","","",""
"","image-keyboard-response","60","32528","0.0-60.0","","","","","97","img/food4.png","75","97.79999999981374","2","0","3","1","1,0.7,0,1,0.7,0,0.7,0,1","1,0.7,0,1,0.7,0,0.7,0,1","1","",""
"","html-keyboard-response","61","32832","0.0-61.0","","","","","null","<img src=""img/food4.png"" style=""width:200px;border:14px solid red;"">","null","","","","","","","","","",""
"","image-keyboard-response","62","32865","0.0-62.0","","","","","32.40000000037253","img/food1.png","76","33.299999999813735","3","0","1","1","1,0.7,0,1,0.7,0,0.7,0,1","1,0.7,0,1,0.7,0,0.7,0,1","1","",""
"","html-keyboard-response","63","33167","0.0-63.0","","","","","null","<img src=""img/food1.png"" style=""width:200px;border:14px solid red;"">","null","","","","","","","","","",""
"","image-keyboard-response","64","33248","0.0-64.0","","","","","79.29999999981374","img/food4.png","75","80.3999999994412","2","0","3","1","1,0.7,0,1,0.7,0,0.7,0,1","1,0.7,0,1,0.7,0,0.7,0,1","1","",""
"","html-keyboard-response","65","33552","0.0-65.0","","","","","null","<img src=""img/food4.png"" style=""width:200px;border:14px solid red;"">","null","","","","","","","","","",""
"","image-keyboard-response","66","33564","0.0-66.0","","","","","10.700000000186265","img/food4.png","75","11.600000000558794","2","0","3","1","1,0.7,0,1,0.7,0,0.7,0,1","1,0.7,0,1,0.7,0,0.7,0,1","1","",""
"","html-keyboard-response","67","33866","0.0-67.0","","","","","null","<img src=""img/food4.png"" style=""width:200px;border:14px solid red;"">","null","","","","","","","","","",""
"","image-keyboard-response","68","34048","0.0-68.0","","","","","180.79999999981374","img/food4.png","76","181.79999999981374","3","1","3","1","1,0.7,0,1,0.7,0,0.7,0,1","1,0.7,0,1,0.7,0,0.7,0,1","1","",""
"","html-keyboard-response","69","34350","0.0-69.0","","","","","null","<img src=""img/food4.png"" style=""width:200px; border:14px solid green;"">","null","","","","","","","","","",""
"","image-keyboard-response","70","34384","0.0-70.0","","","","","33.299999999813735","img/food1.png","76","34.200000000186265","3","0","1","1","1,0.7,0,1,0.7,0,0.7,0,1","1,0.7,0,1,0.7,0,0.7,0,1","1","",""
"","html-keyboard-response","71","34686","0.0-71.0","","","","","null","<img src=""img/food1.png"" style=""width:200px;border:14px solid red;"">","null","","","","","","","","","",""
"","image-keyboard-response","72","34736","0.0-72.0","","","","","48.700000000186265","img/food4.png","76","49.5","3","1","3","1","1,0.7,0,1,0.7,0,0.7,0,1","1,0.7,0,1,0.7,0,0.7,0,1","1","",""
"","html-keyboard-response","73","35037","0.0-73.0","","","","","null","<img src=""img/food4.png"" style=""width:200px; border:14px solid green;"">","null","","","","","","","","","",""
"","image-keyboard-response","74","35088","0.0-74.0","","","","","49.90000000037253","img/food4.png","76","50.700000000186265","3","1","3","1","1,0.7,0,1,0.7,0,0.7,0,1","1,0.7,0,1,0.7,0,0.7,0,1","1","",""
"","html-keyboard-response","75","35390","0.0-75.0","","","","","null","<img src=""img/food4.png"" style=""width:200px; border:14px solid green;"">","null","","","","","","","","","",""
"","image-keyboard-response","76","35424","0.0-76.0","","","","","33.5","img/food1.png","75","34.299999999813735","2","0","1","1","1,0.7,0,1,0.7,0,0.7,0,1","1,0.7,0,1,0.7,0,0.7,0,1","1","",""
"","html-keyboard-response","77","35726","0.0-77.0","","","","","null","<img src=""img/food1.png"" style=""width:200px;border:14px solid red;"">","null","","","","","","","","","",""
"","image-keyboard-response","78","35792","0.0-78.0","","","","","65","img/food1.png","75","66.1000000005588","2","1","1","1","1,0.7,0,1,0.7,0,0.7,0,1","1,0.7,0,1,0.7,0,0.7,0,1","1","",""
"","html-keyboard-response","79","36094","0.0-79.0","","","","","null","<img src=""img/food1.png"" style=""width:200px; border:14px solid green;"">","null","","","","","","","","","",""
"","image-keyboard-response","80","36160","0.0-80.0","","","","","64.5","img/food1.png","76","65.6000000005588","3","0","1","1","1,0.7,0,1,0.7,0,0.7,0,1","1,0.7,0,1,0.7,0,0.7,0,1","1","",""
"","html-keyboard-response","81","36463","0.0-81.0","","","","","null","<img src=""img/food1.png"" style=""width:200px;border:14px solid red;"">","null","","","","","","","","","",""
"","image-keyboard-response","82","36576","0.0-82.0","","","","","112.09999999962747","img/food3.png","76","113.1000000005588","3","0","2","1","1,0.7,0,1,0.7,0,0.7,0,1","1,0.7,0,1,0.7,0,0.7,0,1","1","",""
"","html-keyboard-response","83","36878","0.0-83.0","","","","","null","<img src=""img/food3.png"" style=""width:200px;border:14px solid red;"">","null","","","","","","","","","",""
"","image-keyboard-response","84","36992","0.0-84.0","","","","","112.29999999981374","img/food3.png","74","113.20000000018626","1","1","2","1","1,0.7,0,1,0.7,0,0.7,0,1","1,0.7,0,1,0.7,0,0.7,0,1","1","",""
"","html-keyboard-response","85","37294","0.0-85.0","","","","","null","<img src=""img/food3.png"" style=""width:200px; border:14px solid green;"">","null","","","","","","","","","",""
"","image-keyboard-response","86","37424","0.0-86.0","","","","","128.70000000018626","img/food4.png","76","129.5","3","1","3","1","1,0.7,0,1,0.7,0,0.7,0,1","1,0.7,0,1,0.7,0,0.7,0,1","1","",""
"","html-keyboard-response","87","37725","0.0-87.0","","","","","null","<img src=""img/food4.png"" style=""width:200px; border:14px solid green;"">","null","","","","","","","","","",""
"","image-keyboard-response","88","37856","0.0-88.0","","","","","129.5","img/food4.png","75","130.59999999962747","2","0","3","1","1,0.7,0,1,0.7,0,0.7,0,1","1,0.7,0,1,0.7,0,0.7,0,1","1","",""
"","html-keyboard-response","89","38157","0.0-89.0","","","","","null","<img src=""img/food4.png"" style=""width:200px;border:14px solid red;"">","null","","","","","","","","","",""
"","image-keyboard-response","90","38304","0.0-90.0","","","","","145.5","img/food3.png","74","146.3999999994412","1","1","2","1","1,0.7,0,1,0.7,0,0.7,0,1","1,0.7,0,1,0.7,0,0.7,0,1","1","",""
"","html-keyboard-response","91","38605","0.0-91.0","","","","","null","<img src=""img/food3.png"" style=""width:200px; border:14px solid green;"">","null","","","","","","","","","",""
"","image-keyboard-response","92","38768","0.0-92.0","","","","","162.1000000005588","img/food1.png","76","162.79999999981374","3","0","1","1","1,0.7,0,1,0.7,0,0.7,0,1","1,0.7,0,1,0.7,0,0.7,0,1","1","",""
"","html-keyboard-response","93","39070","0.0-93.0","","","","","null","<img src=""img/food1.png"" style=""width:200px;border:14px solid red;"">","null","","","","","","","","","",""
"","image-keyboard-response","94","39184","0.0-94.0","","","","","112.6000000005588","img/food3.png","74","113.59999999962747","1","1","2","1","1,0.7,0,1,0.7,0,0.7,0,1","1,0.7,0,1,0.7,0,0.7,0,1","1","",""
"","html-keyboard-response","95","39485","0.0-95.0","","","","","null","<img src=""img/food3.png"" style=""width:200px; border:14px solid green;"">","null","","","","","","","","","",""
"","image-keyboard-response","96","39600","0.0-96.0","","","","","113.69999999925494","img/food4.png","74","114.70000000018626","1","1","3","1","1,0.7,0,1,0.7,0,0.7,0,1","1,0.7,0,1,0.7,0,0.7,0,1","1","",""
"","html-keyboard-response","97","39902","0.0-97.0","","","","","null","<img src=""img/food4.png"" style=""width:200px; border:14px solid green;"">","null","","","","","","","","","",""
"","image-keyboard-response","98","39952","0.0-98.0","","","","","49.09999999962747","img/food1.png","74","49.90000000037253","1","1","1","1","1,0.7,0,1,0.7,0,0.7,0,1","1,0.7,0,1,0.7,0,0.7,0,1","1","",""
"","html-keyboard-response","99","40253","0.0-99.0","","","","","null","<img src=""img/food1.png"" style=""width:200px; border:14px solid green;"">","null","","","","","","","","","",""
"","image-keyboard-response","100","40257","0.0-100.0","","","","","2.5","img/food4.png","76","3.2000000001862645","3","1","3","1","1,0.7,0,1,0.7,0,0.7,0,1","1,0.7,0,1,0.7,0,0.7,0,1","1","",""
"","html-keyboard-response","101","40559","0.0-101.0","","","","","null","<img src=""img/food4.png"" style=""width:200px; border:14px solid green;"">","null","","","","","","","","","",""
"","image-keyboard-response","102","40640","0.0-102.0","","","","","79.90000000037253","img/food3.png","76","80.69999999925494","3","0","2","1","1,0.7,0,1,0.7,0,0.7,0,1","1,0.7,0,1,0.7,0,0.7,0,1","1","",""
"","html-keyboard-response","103","40942","0.0-103.0","","","","","null","<img src=""img/food3.png"" style=""width:200px;border:14px solid red;"">","null","","","","","","","","","",""
"","image-keyboard-response","104","41024","0.0-104.0","","","","","81","img/food3.png","75","81.70000000018626","2","0","2","1","1,0.7,0,1,0.7,0,0.7,0,1","1,0.7,0,1,0.7,0,0.7,0,1","1","",""
"","html-keyboard-response","105","41326","0.0-105.0","","","","","null","<img src=""img/food3.png"" style=""width:200px;border:14px solid red;"">","null","","","","","","","","","",""
"","image-keyboard-response","106","41408","0.0-106.0","","","","","81.3999999994412","img/food1.png","75","82.29999999981374","2","1","1","1","1,0.7,0,1,0.7,0,0.7,0,1","1,0.7,0,1,0.7,0,0.7,0,1","1","",""
"","html-keyboard-response","107","41710","0.0-107.0","","","","","null","<img src=""img/food1.png"" style=""width:200px; border:14px solid green;"">","null","","","","","","","","","",""
"","image-keyboard-response","108","41776","0.0-108.0","","","","","65","img/food1.png","75","65.90000000037253","2","1","1","1","1,0.7,0,1,0.7,0,0.7,0,1","1,0.7,0,1,0.7,0,0.7,0,1","1","",""
"","html-keyboard-response","109","42078","0.0-109.0","","","","","null","<img src=""img/food1.png"" style=""width:200px; border:14px solid green;"">","null","","","","","","","","","",""
"","image-keyboard-response","110","42112","0.0-110.0","","","","","32.700000000186265","img/food3.png","74","33.700000000186265","1","1","2","1","1,0.7,0,1,0.7,0,0.7,0,1","1,0.7,0,1,0.7,0,0.7,0,1","1","",""
"","html-keyboard-response","111","42414","0.0-111.0","","","","","null","<img src=""img/food3.png"" style=""width:200px; border:14px solid green;"">","null","","","","","","","","","",""
"","image-keyboard-response","112","42528","0.0-112.0","","","","","112.69999999925494","img/food1.png","74","113.79999999981374","1","1","1","1","1,0.7,0,1,0.7,0,0.7,0,1","1,0.7,0,1,0.7,0,0.7,0,1","1","",""
"","html-keyboard-response","113","42829","0.0-113.0","","","","","null","<img src=""img/food1.png"" style=""width:200px; border:14px solid green;"">","null","","","","","","","","","",""
"","image-keyboard-response","114","42880","0.0-114.0","","","","","49.40000000037253","img/food3.png","74","50.299999999813735","1","1","2","1","1,0.7,0,1,0.7,0,0.7,0,1","1,0.7,0,1,0.7,0,0.7,0,1","1","",""
"","html-keyboard-response","115","43182","0.0-115.0","","","","","null","<img src=""img/food3.png"" style=""width:200px; border:14px solid green;"">","null","","","","","","","","","",""
"","image-keyboard-response","116","43184","0.0-116.0","","","","","0.7999999998137355","img/food3.png","76","1.599999999627471","3","0","2","1","1,0.7,0,1,0.7,0,0.7,0,1","1,0.7,0,1,0.7,0,0.7,0,1","1","",""
"","html-keyboard-response","117","43485","0.0-117.0","","","","","null","<img src=""img/food3.png"" style=""width:200px;border:14px solid red;"">","null","","","","","","","","","",""
"","image-keyboard-response","118","43552","0.0-118.0","","","","","65.40000000037253","img/food4.png","76","66.29999999981374","3","1","3","1","1,0.7,0,1,0.7,0,0.7,0,1","1,0.7,0,1,0.7,0,0.7,0,1","1","",""
"","html-keyboard-response","119","43853","0.0-119.0","","","","","null","<img src=""img/food4.png"" style=""width:200px; border:14px solid green;"">","null","","","","","","","","","",""
"","image-keyboard-response","120","43936","0.0-120.0","","","","","82","img/food3.png","76","82.8999999994412","3","0","2","1","1,0.7,0,1,0.7,0,0.7,0,1","1,0.7,0,1,0.7,0,0.7,0,1","1","",""
"","html-keyboard-response","121","44238","0.0-121.0","","","","","null","<img src=""img/food3.png"" style=""width:200px;border:14px solid red;"">","null","","","","","","","","","",""
"","image-keyboard-response","122","44288","0.0-122.0","","","","","49","img/food3.png","76","49.89999999944121","3","0","2","1","1,0.7,0,1,0.7,0,0.7,0,1","1,0.7,0,1,0.7,0,0.7,0,1","1","",""
"","html-keyboard-response","123","44590","0.0-123.0","","","","","null","<img src=""img/food3.png"" style=""width:200px;border:14px solid red;"">","null","","","","","","","","","",""
"","image-keyboard-response","124","44593","0.0-124.0","","","","","2.3999999994412065","img/food4.png","75","3.099999999627471","2","0","3","1","1,0.7,0,1,0.7,0,0.7,0,1","1,0.7,0,1,0.7,0,0.7,0,1","1","",""
"","html-keyboard-response","125","44896","0.0-125.0","","","","","null","<img src=""img/food4.png"" style=""width:200px;border:14px solid red;"">","null","","","","","","","","","",""
"","image-keyboard-response","126","44959","0.0-126.0","","","","","62.700000000186265","img/food3.png","74","63.59999999962747","1","1","2","1","1,0.7,0,1,0.7,0,0.7,0,1","1,0.7,0,1,0.7,0,0.7,0,1","1","",""
"","html-keyboard-response","127","45261","0.0-127.0","","","","","null","<img src=""img/food3.png"" style=""width:200px; border:14px solid green;"">","null","","","","","","","","","",""
"","image-keyboard-response","128","45344","0.0-128.0","","","","","81.70000000018626","img/food1.png","74","82.70000000018626","1","1","1","1","1,0.7,0,1,0.7,0,0.7,0,1","1,0.7,0,1,0.7,0,0.7,0,1","1","",""
"","html-keyboard-response","129","45645","0.0-129.0","","","","","null","<img src=""img/food1.png"" style=""width:200px; border:14px solid green;"">","null","","","","","","","","","",""
"","image-keyboard-response","130","45744","0.0-130.0","","","","","97.09999999962747","img/food3.png","74","98","1","1","2","1","1,0.7,0,1,0.7,0,0.7,0,1","1,0.7,0,1,0.7,0,0.7,0,1","1","",""
"","html-keyboard-response","131","46045","0.0-131.0","","","","","null","<img src=""img/food3.png"" style=""width:200px; border:14px solid green;"">","null","","","","","","","","","",""
"","image-keyboard-response","132","46096","0.0-132.0","","","","","49.5","img/food3.png","74","50.5","1","1","2","1","1,0.7,0,1,0.7,0,0.7,0,1","1,0.7,0,1,0.7,0,0.7,0,1","1","",""
"","html-keyboard-response","133","46398","0.0-133.0","","","","","null","<img src=""img/food3.png"" style=""width:200px; border:14px solid green;"">","null","","","","","","","","","",""
"","image-keyboard-response","134","46512","0.0-134.0","","","","","112.80000000074506","img/food3.png","75","113.70000000018626","2","0","2","1","1,0.7,0,1,0.7,0,0.7,0,1","1,0.7,0,1,0.7,0,0.7,0,1","1","",""
"","html-keyboard-response","135","46813","0.0-135.0","","","","","null","<img src=""img/food3.png"" style=""width:200px;border:14px solid red;"">","null","","","","","","","","","",""
"","image-keyboard-response","136","46816","0.0-136.0","","","","","1.800000000745058","img/food1.png","76","2.7000000001862645","3","0","1","1","1,0.7,0,1,0.7,0,0.7,0,1","1,0.7,0,1,0.7,0,0.7,0,1","1","",""
"","html-keyboard-response","137","47119","0.0-137.0","","","","","null","<img src=""img/food1.png"" style=""width:200px;border:14px solid red;"">","null","","","","","","","","","",""
"","image-keyboard-response","138","47120","0.0-138.0","","","","","0.40000000037252903","img/food3.png","74","1.2000000001862645","1","1","2","1","1,0.7,0,1,0.7,0,0.7,0,1","1,0.7,0,1,0.7,0,0.7,0,1","1","",""
"","html-keyboard-response","139","47422","0.0-139.0","","","","","null","<img src=""img/food3.png"" style=""width:200px; border:14px solid green;"">","null","","","","","","","","","",""
"","image-keyboard-response","140","47504","0.0-140.0","","","","","80.70000000018626","img/food4.png","75","81.70000000018626","2","0","3","1","1,0.7,0,1,0.7,0,0.7,0,1","1,0.7,0,1,0.7,0,0.7,0,1","1","",""
"","html-keyboard-response","141","47805","0.0-141.0","","","","","null","<img src=""img/food4.png"" style=""width:200px;border:14px solid red;"">","null","","","","","","","","","",""
"","image-keyboard-response","142","47856","0.0-142.0","","","","","49.299999999813735","img/food4.png","74","50.200000000186265","1","0","3","1","1,0.7,0,1,0.7,0,0.7,0,1","1,0.7,0,1,0.7,0,0.7,0,1","1","",""
"","html-keyboard-response","143","48157","0.0-143.0","","","","","null","<img src=""img/food4.png"" style=""width:200px;border:14px solid red;"">","null","","","","","","","","","",""
"","image-keyboard-response","144","48224","0.0-144.0","","","","","65.79999999981374","img/food4.png","76","66.70000000018626","3","1","3","1","1,0.7,0,1,0.7,0,0.7,0,1","1,0.7,0,1,0.7,0,0.7,0,1","1","",""
"","html-keyboard-response","145","48525","0.0-145.0","","","","","null","<img src=""img/food4.png"" style=""width:200px; border:14px solid green;"">","null","","","","","","","","","",""
"","image-keyboard-response","146","48560","0.0-146.0","","","","","33.700000000186265","img/food4.png","76","34.700000000186265","3","1","3","1","1,0.7,0,1,0.7,0,0.7,0,1","1,0.7,0,1,0.7,0,0.7,0,1","1","",""
"","html-keyboard-response","147","48862","0.0-147.0","","","","","null","<img src=""img/food4.png"" style=""width:200px; border:14px solid green;"">","null","","","","","","","","","",""
"","image-keyboard-response","148","48880","0.0-148.0","","","","","16.40000000037253","img/food4.png","76","17.200000000186265","3","1","3","1","1,0.7,0,1,0.7,0,0.7,0,1","1,0.7,0,1,0.7,0,0.7,0,1","1","",""
"","html-keyboard-response","149","49181","0.0-149.0","","","","","null","<img src=""img/food4.png"" style=""width:200px; border:14px solid green;"">","null","","","","","","","","","",""
"","image-keyboard-response","150","49200","0.0-150.0","","","","","17.40000000037253","img/food4.png","75","18.200000000186265","2","0","3","1","1,0.7,0,1,0.7,0,0.7,0,1","1,0.7,0,1,0.7,0,0.7,0,1","1","",""
"","html-keyboard-response","151","49502","0.0-151.0","","","","","null","<img src=""img/food4.png"" style=""width:200px;border:14px solid red;"">","null","","","","","","","","","",""
"","image-keyboard-response","152","49520","0.0-152.0","","","","","16.799999999813735","img/food4.png","76","17.59999999962747","3","1","3","1","1,0.7,0,1,0.7,0,0.7,0,1","1,0.7,0,1,0.7,0,0.7,0,1","1","",""
"","html-keyboard-response","153","49821","0.0-153.0","","","","","null","<img src=""img/food4.png"" style=""width:200px; border:14px solid green;"">","null","","","","","","","","","",""
"","image-keyboard-response","154","49856","0.0-154.0","","","","","32.59999999962747","img/food1.png","76","33.39999999944121","3","0","1","1","1,0.7,0,1,0.7,0,0.7,0,1","1,0.7,0,1,0.7,0,0.7,0,1","1","",""
"","html-keyboard-response","155","50157","0.0-155.0","","","","","null","<img src=""img/food1.png"" style=""width:200px;border:14px solid red;"">","null","","","","","","","","","",""
"","image-keyboard-response","156","50208","0.0-156.0","","","","","49.5","img/food3.png","75","50.40000000037253","2","1","2","1","1,0.7,0,1,0.7,0,0.7,0,1","1,0.7,0,1,0.7,0,0.7,0,1","1","",""
"","html-keyboard-response","157","50510","0.0-157.0","","","","","null","<img src=""img/food3.png"" style=""width:200px; border:14px solid green;"">","null","","","","","","","","","",""
"","image-keyboard-response","158","50528","0.0-158.0","","","","","17.100000000558794","img/food1.png","76","18.200000000186265","3","0","1","1","1,0.7,0,1,0.7,0,0.7,0,1","1,0.7,0,1,0.7,0,0.7,0,1","1","",""
"","html-keyboard-response","159","50830","0.0-159.0","","","","","null","<img src=""img/food1.png"" style=""width:200px;border:14px solid red;"">","null","","","","","","","","","",""
"","image-keyboard-response","160","50880","0.0-160.0","","","","","48.30000000074506","img/food3.png","75","49.09999999962747","2","1","2","1","1,0.7,0,1,0.7,0,0.7,0,1","1,0.7,0,1,0.7,0,0.7,0,1","1","",""
"","html-keyboard-response","161","51182","0.0-161.0","","","","","null","<img src=""img/food3.png"" style=""width:200px; border:14px solid green;"">","null","","","","","","","","","",""
"","image-keyboard-response","162","51216","0.0-162.0","","","","","33.09999999962747","img/food1.png","75","34.19999999925494","2","1","1","1","1,0.7,0,1,0.7,0,0.7,0,1","1,0.7,0,1,0.7,0,0.7,0,1","1","",""
"","html-keyboard-response","163","51518","0.0-163.0","","","","","null","<img src=""img/food1.png"" style=""width:200px; border:14px solid green;"">","null","","","","","","","","","",""
"","image-keyboard-response","164","51520","0.0-164.0","","","","","0.6999999992549419","img/food1.png","74","1.599999999627471","1","1","1","1","1,0.7,0,1,0.7,0,0.7,0,1","1,0.7,0,1,0.7,0,0.7,0,1","1","",""
"","html-keyboard-response","165","51821","0.0-165.0","","","","","null","<img src=""img/food1.png"" style=""width:200px; border:14px solid green;"">","null","","","","","","","","","",""
"","image-keyboard-response","166","51904","0.0-166.0","","","","","81.5","img/food1.png","74","82.29999999981374","1","1","1","1","1,0.7,0,1,0.7,0,0.7,0,1","1,0.7,0,1,0.7,0,0.7,0,1","1","",""
"","html-keyboard-response","167","52205","0.0-167.0","","","","","null","<img src=""img/food1.png"" style=""width:200px; border:14px solid green;"">","null","","","","","","","","","",""
"","image-keyboard-response","168","52224","0.0-168.0","","","","","17.100000000558794","img/food4.png","76","18","3","1","3","1","1,0.7,0,1,0.7,0,0.7,0,1","1,0.7,0,1,0.7,0,0.7,0,1","1","",""
"","html-keyboard-response","169","52525","0.0-169.0","","","","","null","<img src=""img/food4.png"" style=""width:200px; border:14px solid green;"">","null","","","","","","","","","",""
"","image-keyboard-response","170","52592","0.0-170.0","","","","","65.40000000037253","img/food4.png","74","66.29999999981374","1","0","3","1","1,0.7,0,1,0.7,0,0.7,0,1","1,0.7,0,1,0.7,0,0.7,0,1","1","",""
"","html-keyboard-response","171","52894","0.0-171.0","","","","","null","<img src=""img/food4.png"" style=""width:200px;border:14px solid red;"">","null","","","","","","","","","",""
"","image-keyboard-response","172","52896","0.0-172.0","","","","","0.5","img/food3.png","75","1.8999999994412065","2","1","2","1","1,0.7,0,1,0.7,0,0.7,0,1","1,0.7,0,1,0.7,0,0.7,0,1","1","",""
"","html-keyboard-response","173","53198","0.0-173.0","","","","","null","<img src=""img/food3.png"" style=""width:200px; border:14px solid green;"">","null","","","","","","","","","",""
"","image-keyboard-response","174","53280","0.0-174.0","","","","","81.09999999962747","img/food3.png","74","82","1","1","2","1","1,0.7,0,1,0.7,0,0.7,0,1","1,0.7,0,1,0.7,0,0.7,0,1","1","",""
"","html-keyboard-response","175","53582","0.0-175.0","","","","","null","<img src=""img/food3.png"" style=""width:200px; border:14px solid green;"">","null","","","","","","","","","",""
"","image-keyboard-response","176","53600","0.0-176.0","","","","","17.299999999813735","img/food3.png","76","18.200000000186265","3","0","2","1","1,0.7,0,1,0.7,0,0.7,0,1","1,0.7,0,1,0.7,0,0.7,0,1","1","",""
"","html-keyboard-response","177","53903","0.0-177.0","","","","","null","<img src=""img/food3.png"" style=""width:200px;border:14px solid red;"">","null","","","","","","","","","",""
"","image-keyboard-response","178","53952","0.0-178.0","","","","","48","img/food4.png","76","48.90000000037253","3","1","3","1","1,0.7,0,1,0.7,0,0.7,0,1","1,0.7,0,1,0.7,0,0.7,0,1","1","",""
"","html-keyboard-response","179","54281","0.0-179.0","","","","","null","<img src=""img/food4.png"" style=""width:200px; border:14px solid green;"">","null","","","","","","","","","",""
"","image-keyboard-response","180","54304","0.0-180.0","","","","","23","img/food4.png","76","23.59999999962747","3","1","3","1","1,0.7,0,1,0.7,0,0.7,0,1","1,0.7,0,1,0.7,0,0.7,0,1","1","",""
"","html-keyboard-response","181","54607","0.0-181.0","","","","","null","<img src=""img/food4.png"" style=""width:200px; border:14px solid green;"">","null","","","","","","","","","",""
"","html-keyboard-response","182","58232","0.0-182.0","","","","","","","","","","","","","","","","",""
"","instructions","183","67935","0.0-183.0","","","","[{""page_index"":0,""viewing_time"":7078.799999999814},{""page_index"":1,""viewing_time"":2624.0999999996275}]","9703.200000000186","","","","","","","","","","","",""
"","image-keyboard-response","184","68783","0.0-184.0","","","","","846.2999999998137","img/food5.png","74","847.7000000001863","1","1","1","2","1,0.7,0,1,0.7,0,0.7,0,1","0.7,0,1,0.7,0,1,0,1,0.7","2","false",""
"","html-keyboard-response","185","69085","0.0-185.0","","","","","null","<img src=""img/food5.png"" style=""width:200px; border:14px solid green;"">","null","","","","","","","","","",""
"","image-keyboard-response","186","69151","0.0-187.0","","","","","64.59999999962747","img/food5.png","75","65.70000000018626","2","0","1","2","1,0.7,0,1,0.7,0,0.7,0,1","0.7,0,1,0.7,0,1,0,1,0.7","2","false",""
"","html-keyboard-response","187","69453","0.0-188.0","","","","","null","<img src=""img/food5.png"" style=""width:200px;border:14px solid red;"">","null","","","","","","","","","",""
"","image-keyboard-response","188","69488","0.0-190.0","","","","","32.799999999813735","img/food6.png","75","34.700000000186265","2","0","2","2","1,0.7,0,1,0.7,0,0.7,0,1","0.7,0,1,0.7,0,1,0,1,0.7","2","false",""
"","html-keyboard-response","189","69790","0.0-191.0","","","","","null","<img src=""img/food6.png"" style=""width:200px;border:14px solid red;"">","null","","","","","","","","","",""
"","image-keyboard-response","190","69823","0.0-193.0","","","","","31.40000000037253","img/food6.png","75","32.40000000037253","2","0","2","2","1,0.7,0,1,0.7,0,0.7,0,1","0.7,0,1,0.7,0,1,0,1,0.7","2","false",""
"","html-keyboard-response","191","70125","0.0-194.0","","","","","null","<img src=""img/food6.png"" style=""width:200px;border:14px solid red;"">","null","","","","","","","","","",""
"","image-keyboard-response","192","70175","0.0-196.0","","","","","49.09999999962747","img/food5.png","75","50","2","0","1","2","1,0.7,0,1,0.7,0,0.7,0,1","0.7,0,1,0.7,0,1,0,1,0.7","2","false",""
"","html-keyboard-response","193","70477","0.0-197.0","","","","","null","<img src=""img/food5.png"" style=""width:200px;border:14px solid red;"">","null","","","","","","","","","",""
"","image-keyboard-response","194","70480","0.0-199.0","","","","","2","img/food6.png","75","3.2000000001862645","2","0","2","2","1,0.7,0,1,0.7,0,0.7,0,1","0.7,0,1,0.7,0,1,0,1,0.7","2","false",""
"","html-keyboard-response","195","70783","0.0-200.0","","","","","null","<img src=""img/food6.png"" style=""width:200px;border:14px solid red;"">","null","","","","","","","","","",""
"","image-keyboard-response","196","70831","0.0-202.0","","","","","47","img/food6.png","74","47.89999999944121","1","1","2","2","1,0.7,0,1,0.7,0,0.7,0,1","0.7,0,1,0.7,0,1,0,1,0.7","2","false",""
"","html-keyboard-response","197","71135","0.0-203.0","","","","","null","<img src=""img/food6.png"" style=""width:200px; border:14px solid green;"">","null","","","","","","","","","",""
"","image-keyboard-response","198","71152","0.0-205.0","","","","","15.200000000186265","img/food2.png","76","16.200000000186265","3","1","3","2","1,0.7,0,1,0.7,0,0.7,0,1","0.7,0,1,0.7,0,1,0,1,0.7","2","false",""
"","html-keyboard-response","199","71453","0.0-206.0","","","","","null","<img src=""img/food2.png"" style=""width:200px; border:14px solid green;"">","null","","","","","","","","","",""
"","image-keyboard-response","200","71487","0.0-208.0","","","","","32.39999999944121","img/food6.png","76","33.19999999925494","3","1","2","2","1,0.7,0,1,0.7,0,0.7,0,1","0.7,0,1,0.7,0,1,0,1,0.7","2","false",""
"","html-keyboard-response","201","71789","0.0-209.0","","","","","null","<img src=""img/food6.png"" style=""width:200px; border:14px solid green;"">","null","","","","","","","","","",""
"","image-keyboard-response","202","71823","0.0-211.0","","","","","33.299999999813735","img/food2.png","74","34.19999999925494","1","0","3","2","1,0.7,0,1,0.7,0,0.7,0,1","0.7,0,1,0.7,0,1,0,1,0.7","2","false",""
"","html-keyboard-response","203","72125","0.0-212.0","","","","","null","<img src=""img/food2.png"" style=""width:200px;border:14px solid red;"">","null","","","","","","","","","",""
"","image-keyboard-response","204","72159","0.0-214.0","","","","","33","img/food6.png","76","34","3","1","2","2","1,0.7,0,1,0.7,0,0.7,0,1","0.7,0,1,0.7,0,1,0,1,0.7","2","false",""
"","html-keyboard-response","205","72461","0.0-215.0","","","","","null","<img src=""img/food6.png"" style=""width:200px; border:14px solid green;"">","null","","","","","","","","","",""
"","image-keyboard-response","206","72464","0.0-217.0","","","","","1.5","img/food6.png","75","2.400000000372529","2","0","2","2","1,0.7,0,1,0.7,0,0.7,0,1","0.7,0,1,0.7,0,1,0,1,0.7","2","false",""
"","html-keyboard-response","207","72765","0.0-218.0","","","","","null","<img src=""img/food6.png"" style=""width:200px;border:14px solid red;"">","null","","","","","","","","","",""
"","image-keyboard-response","208","72847","0.0-220.0","","","","","80.5","img/food2.png","76","81.3999999994412","3","1","3","2","1,0.7,0,1,0.7,0,0.7,0,1","0.7,0,1,0.7,0,1,0,1,0.7","2","false",""
"","html-keyboard-response","209","73149","0.0-221.0","","","","","null","<img src=""img/food2.png"" style=""width:200px; border:14px solid green;"">","null","","","","","","","","","",""
"","image-keyboard-response","210","73215","0.0-223.0","","","","","65.1000000005588","img/food5.png","75","66.20000000018626","2","0","1","2","1,0.7,0,1,0.7,0,0.7,0,1","0.7,0,1,0.7,0,1,0,1,0.7","2","false",""
"","html-keyboard-response","211","73517","0.0-224.0","","","","","null","<img src=""img/food5.png"" style=""width:200px;border:14px solid red;"">","null","","","","","","","","","",""
"","image-keyboard-response","212","73551","0.0-226.0","","","","","32.60000000055879","img/food5.png","74","33.5","1","1","1","2","1,0.7,0,1,0.7,0,0.7,0,1","0.7,0,1,0.7,0,1,0,1,0.7","2","false",""
"","html-keyboard-response","213","73854","0.0-227.0","","","","","null","<img src=""img/food5.png"" style=""width:200px; border:14px solid green;"">","null","","","","","","","","","",""
"","image-keyboard-response","214","73855","0.0-229.0","","","","","0.2999999998137355","img/food2.png","74","1.5","1","0","3","2","1,0.7,0,1,0.7,0,0.7,0,1","0.7,0,1,0.7,0,1,0,1,0.7","2","false",""
"","html-keyboard-response","215","74157","0.0-230.0","","","","","null","<img src=""img/food2.png"" style=""width:200px;border:14px solid red;"">","null","","","","","","","","","",""
"","image-keyboard-response","216","74191","0.0-232.0","","","","","33.10000000055879","img/food2.png","74","34.09999999962747","1","0","3","2","1,0.7,0,1,0.7,0,0.7,0,1","0.7,0,1,0.7,0,1,0,1,0.7","2","false",""
"","html-keyboard-response","217","74493","0.0-233.0","","","","","null","<img src=""img/food2.png"" style=""width:200px;border:14px solid red;"">","null","","","","","","","","","",""
"","image-keyboard-response","218","74545","0.0-235.0","","","","","50.80000000074506","img/food5.png","74","51.700000000186265","1","0","1","2","1,0.7,0,1,0.7,0,0.7,0,1","0.7,0,1,0.7,0,1,0,1,0.7","2","false",""
"","html-keyboard-response","219","74847","0.0-236.0","","","","","null","<img src=""img/food5.png"" style=""width:200px;border:14px solid red;"">","null","","","","","","","","","",""
"","image-keyboard-response","220","74881","0.0-238.0","","","","","32.799999999813735","img/food2.png","74","33.799999999813735","1","0","3","2","1,0.7,0,1,0.7,0,0.7,0,1","0.7,0,1,0.7,0,1,0,1,0.7","2","false",""
"","html-keyboard-response","221","75183","0.0-239.0","","","","","null","<img src=""img/food2.png"" style=""width:200px;border:14px solid red;"">","null","","","","","","","","","",""
"","image-keyboard-response","222","75215","0.0-241.0","","","","","30.699999999254942","img/food2.png","74","31.59999999962747","1","0","3","2","1,0.7,0,1,0.7,0,0.7,0,1","0.7,0,1,0.7,0,1,0,1,0.7","2","false",""
"","html-keyboard-response","223","75516","0.0-242.0","","","","","null","<img src=""img/food2.png"" style=""width:200px;border:14px solid red;"">","null","","","","","","","","","",""
"","image-keyboard-response","224","75567","0.0-244.0","","","","","49.40000000037253","img/food6.png","74","50.5","1","1","2","2","1,0.7,0,1,0.7,0,0.7,0,1","0.7,0,1,0.7,0,1,0,1,0.7","2","false",""
"","html-keyboard-response","225","75869","0.0-245.0","","","","","null","<img src=""img/food6.png"" style=""width:200px; border:14px solid green;"">","null","","","","","","","","","",""
"","image-keyboard-response","226","75968","0.0-247.0","","","","","97.5","img/food6.png","76","98.40000000037253","3","1","2","2","1,0.7,0,1,0.7,0,0.7,0,1","0.7,0,1,0.7,0,1,0,1,0.7","2","false",""
"","html-keyboard-response","227","76270","0.0-248.0","","","","","null","<img src=""img/food6.png"" style=""width:200px; border:14px solid green;"">","null","","","","","","","","","",""
"","image-keyboard-response","228","76319","0.0-250.0","","","","","48","img/food6.png","76","49.09999999962747","3","1","2","2","1,0.7,0,1,0.7,0,0.7,0,1","0.7,0,1,0.7,0,1,0,1,0.7","2","false",""
"","html-keyboard-response","229","76621","0.0-251.0","","","","","null","<img src=""img/food6.png"" style=""width:200px; border:14px solid green;"">","null","","","","","","","","","",""
"","image-keyboard-response","230","76671","0.0-253.0","","","","","48.60000000055879","img/food5.png","76","49.59999999962747","3","1","1","2","1,0.7,0,1,0.7,0,0.7,0,1","0.7,0,1,0.7,0,1,0,1,0.7","2","false",""
"","html-keyboard-response","231","76973","0.0-254.0","","","","","null","<img src=""img/food5.png"" style=""width:200px; border:14px solid green;"">","null","","","","","","","","","",""
"","image-keyboard-response","232","76991","0.0-256.0","","","","","16.700000000186265","img/food5.png","75","17.799999999813735","2","0","1","2","1,0.7,0,1,0.7,0,0.7,0,1","0.7,0,1,0.7,0,1,0,1,0.7","2","false",""
"","html-keyboard-response","233","77292","0.0-257.0","","","","","null","<img src=""img/food5.png"" style=""width:200px;border:14px solid red;"">","null","","","","","","","","","",""
"","image-keyboard-response","234","77343","0.0-259.0","","","","","49.200000000186265","img/food5.png","76","50.200000000186265","3","1","1","2","1,0.7,0,1,0.7,0,0.7,0,1","0.7,0,1,0.7,0,1,0,1,0.7","2","false",""
"","html-keyboard-response","235","77645","0.0-260.0","","","","","null","<img src=""img/food5.png"" style=""width:200px; border:14px solid green;"">","null","","","","","","","","","",""
"","image-keyboard-response","236","77695","0.0-262.0","","","","","49.10000000055879","img/food2.png","76","50.200000000186265","3","1","3","2","1,0.7,0,1,0.7,0,0.7,0,1","0.7,0,1,0.7,0,1,0,1,0.7","2","false",""
"","html-keyboard-response","237","77997","0.0-263.0","","","","","null","<img src=""img/food2.png"" style=""width:200px; border:14px solid green;"">","null","","","","","","","","","",""
"","image-keyboard-response","238","78047","0.0-265.0","","","","","48.90000000037253","img/food2.png","76","49.89999999944121","3","0","3","2","1,0.7,0,1,0.7,0,0.7,0,1","0.7,0,1,0.7,0,1,0,1,0.7","2","false",""
"","html-keyboard-response","239","78349","0.0-266.0","","","","","null","<img src=""img/food2.png"" style=""width:200px;border:14px solid red;"">","null","","","","","","","","","",""
"","image-keyboard-response","240","78383","0.0-268.0","","","","","33.200000000186265","img/food6.png","76","34.200000000186265","3","1","2","2","1,0.7,0,1,0.7,0,0.7,0,1","0.7,0,1,0.7,0,1,0,1,0.7","2","false",""
"","html-keyboard-response","241","78685","0.0-269.0","","","","","null","<img src=""img/food6.png"" style=""width:200px; border:14px solid green;"">","null","","","","","","","","","",""
"","image-keyboard-response","242","78719","0.0-271.0","","","","","32.40000000037253","img/food2.png","74","33.39999999944121","1","0","3","2","1,0.7,0,1,0.7,0,0.7,0,1","0.7,0,1,0.7,0,1,0,1,0.7","2","false",""
"","html-keyboard-response","243","79021","0.0-272.0","","","","","null","<img src=""img/food2.png"" style=""width:200px;border:14px solid red;"">","null","","","","","","","","","",""
"","image-keyboard-response","244","79119","0.0-274.0","","","","","96.20000000018626","img/food5.png","76","97.1000000005588","3","1","1","2","1,0.7,0,1,0.7,0,0.7,0,1","0.7,0,1,0.7,0,1,0,1,0.7","2","false",""
"","html-keyboard-response","245","79420","0.0-275.0","","","","","null","<img src=""img/food5.png"" style=""width:200px; border:14px solid green;"">","null","","","","","","","","","",""
"","image-keyboard-response","246","79503","0.0-277.0","","","","","81.5","img/food6.png","76","82.5","3","1","2","2","1,0.7,0,1,0.7,0,0.7,0,1","0.7,0,1,0.7,0,1,0,1,0.7","2","false",""
"","html-keyboard-response","247","79805","0.0-278.0","","","","","null","<img src=""img/food6.png"" style=""width:200px; border:14px solid green;"">","null","","","","","","","","","",""
"","image-keyboard-response","248","79903","0.0-280.0","","","","","96.79999999981374","img/food2.png","76","97.8999999994412","3","1","3","2","1,0.7,0,1,0.7,0,0.7,0,1","0.7,0,1,0.7,0,1,0,1,0.7","2","false",""
"","html-keyboard-response","249","80205","0.0-281.0","","","","","null","<img src=""img/food2.png"" style=""width:200px; border:14px solid green;"">","null","","","","","","","","","",""
"","image-keyboard-response","250","80271","0.0-283.0","","","","","65.1000000005588","img/food2.png","76","66","3","1","3","2","1,0.7,0,1,0.7,0,0.7,0,1","0.7,0,1,0.7,0,1,0,1,0.7","2","false",""
"","html-keyboard-response","251","80573","0.0-284.0","","","","","null","<img src=""img/food2.png"" style=""width:200px; border:14px solid green;"">","null","","","","","","","","","",""
"","image-keyboard-response","252","80639","0.0-286.0","","","","","64.40000000037253","img/food2.png","76","65.5","3","0","3","2","1,0.7,0,1,0.7,0,0.7,0,1","0.7,0,1,0.7,0,1,0,1,0.7","2","false",""
"","html-keyboard-response","253","80941","0.0-287.0","","","","","null","<img src=""img/food2.png"" style=""width:200px;border:14px solid red;"">","null","","","","","","","","","",""
"","image-keyboard-response","254","80991","0.0-289.0","","","","","48.69999999925494","img/food5.png","76","49.700000000186265","3","1","1","2","1,0.7,0,1,0.7,0,0.7,0,1","0.7,0,1,0.7,0,1,0,1,0.7","2","false",""
"","html-keyboard-response","255","81293","0.0-290.0","","","","","null","<img src=""img/food5.png"" style=""width:200px; border:14px solid green;"">","null","","","","","","","","","",""
"","image-keyboard-response","256","81375","0.0-292.0","","","","","80.90000000037253","img/food5.png","76","81.79999999981374","3","1","1","2","1,0.7,0,1,0.7,0,0.7,0,1","0.7,0,1,0.7,0,1,0,1,0.7","2","false",""
"","html-keyboard-response","257","81676","0.0-293.0","","","","","null","<img src=""img/food5.png"" style=""width:200px; border:14px solid green;"">","null","","","","","","","","","",""
"","image-keyboard-response","258","81727","0.0-295.0","","","","","49.299999999813735","img/food5.png","76","50.40000000037253","3","1","1","2","1,0.7,0,1,0.7,0,0.7,0,1","0.7,0,1,0.7,0,1,0,1,0.7","2","false",""
"","html-keyboard-response","259","82030","0.0-296.0","","","","","null","<img src=""img/food5.png"" style=""width:200px; border:14px solid green;"">","null","","","","","","","","","",""
"","image-keyboard-response","260","82047","0.0-298.0","","","","","15.699999999254942","img/food6.png","74","16.59999999962747","1","0","2","2","1,0.7,0,1,0.7,0,0.7,0,1","0.7,0,1,0.7,0,1,0,1,0.7","2","false",""
"","html-keyboard-response","261","82349","0.0-299.0","","","","","null","<img src=""img/food6.png"" style=""width:200px;border:14px solid red;"">","null","","","","","","","","","",""
"","image-keyboard-response","262","82463","0.0-301.0","","","","","112.30000000074506","img/food5.png","76","113.40000000037253","3","1","1","2","1,0.7,0,1,0.7,0,0.7,0,1","0.7,0,1,0.7,0,1,0,1,0.7","2","false",""
"","html-keyboard-response","263","82766","0.0-302.0","","","","","null","<img src=""img/food5.png"" style=""width:200px; border:14px solid green;"">","null","","","","","","","","","",""
"","image-keyboard-response","264","82783","0.0-304.0","","","","","15.699999999254942","img/food6.png","75","16.799999999813735","2","0","2","2","1,0.7,0,1,0.7,0,0.7,0,1","0.7,0,1,0.7,0,1,0,1,0.7","2","false",""
"","html-keyboard-response","265","83085","0.0-305.0","","","","","null","<img src=""img/food6.png"" style=""width:200px;border:14px solid red;"">","null","","","","","","","","","",""
"","image-keyboard-response","266","83167","0.0-307.0","","","","","81.09999999962747","img/food2.png","74","82.19999999925494","1","0","3","2","1,0.7,0,1,0.7,0,0.7,0,1","0.7,0,1,0.7,0,1,0,1,0.7","2","false",""
"","html-keyboard-response","267","83469","0.0-308.0","","","","","null","<img src=""img/food2.png"" style=""width:200px;border:14px solid red;"">","null","","","","","","","","","",""
"","image-keyboard-response","268","83535","0.0-310.0","","","","","64.70000000018626","img/food2.png","76","65.8999999994412","3","0","3","2","1,0.7,0,1,0.7,0,0.7,0,1","0.7,0,1,0.7,0,1,0,1,0.7","2","false",""
"","html-keyboard-response","269","83837","0.0-311.0","","","","","null","<img src=""img/food2.png"" style=""width:200px;border:14px solid red;"">","null","","","","","","","","","",""
"","image-keyboard-response","270","83903","0.0-313.0","","","","","65.1000000005588","img/food2.png","75","66.09999999962747","2","1","3","2","1,0.7,0,1,0.7,0,0.7,0,1","0.7,0,1,0.7,0,1,0,1,0.7","2","false",""
"","html-keyboard-response","271","84206","0.0-314.0","","","","","null","<img src=""img/food2.png"" style=""width:200px; border:14px solid green;"">","null","","","","","","","","","",""
"","image-keyboard-response","272","84303","0.0-316.0","","","","","95.80000000074506","img/food6.png","75","96.90000000037253","2","0","2","2","1,0.7,0,1,0.7,0,0.7,0,1","0.7,0,1,0.7,0,1,0,1,0.7","2","false",""
"","html-keyboard-response","273","84605","0.0-317.0","","","","","null","<img src=""img/food6.png"" style=""width:200px;border:14px solid red;"">","null","","","","","","","","","",""
"","image-keyboard-response","274","84671","0.0-319.0","","","","","65","img/food5.png","75","66","2","0","1","2","1,0.7,0,1,0.7,0,0.7,0,1","0.7,0,1,0.7,0,1,0,1,0.7","2","false",""
"","html-keyboard-response","275","84973","0.0-320.0","","","","","null","<img src=""img/food5.png"" style=""width:200px;border:14px solid red;"">","null","","","","","","","","","",""
"","image-keyboard-response","276","84991","0.0-322.0","","","","","16.700000000186265","img/food6.png","75","17.800000000745058","2","0","2","2","1,0.7,0,1,0.7,0,0.7,0,1","0.7,0,1,0.7,0,1,0,1,0.7","2","false",""
"","html-keyboard-response","277","85293","0.0-323.0","","","","","null","<img src=""img/food6.png"" style=""width:200px;border:14px solid red;"">","null","","","","","","","","","",""
"","image-keyboard-response","278","85296","0.0-325.0","","","","","0.6000000005587935","img/food2.png","76","1.7999999998137355","3","1","3","2","1,0.7,0,1,0.7,0,0.7,0,1","0.7,0,1,0.7,0,1,0,1,0.7","2","false",""
"","html-keyboard-response","279","85597","0.0-326.0","","","","","null","<img src=""img/food2.png"" style=""width:200px; border:14px solid green;"">","null","","","","","","","","","",""
"","image-keyboard-response","280","85615","0.0-328.0","","","","","16.5","img/food5.png","75","17.5","2","0","1","2","1,0.7,0,1,0.7,0,0.7,0,1","0.7,0,1,0.7,0,1,0,1,0.7","2","false",""
"","html-keyboard-response","281","85917","0.0-329.0","","","","","null","<img src=""img/food5.png"" style=""width:200px;border:14px solid red;"">","null","","","","","","","","","",""
"","image-keyboard-response","282","85951","0.0-331.0","","","","","32.09999999962747","img/food6.png","74","33.69999999925494","1","1","2","2","1,0.7,0,1,0.7,0,0.7,0,1","0.7,0,1,0.7,0,1,0,1,0.7","2","false",""
"","html-keyboard-response","283","86253","0.0-332.0","","","","","null","<img src=""img/food6.png"" style=""width:200px; border:14px solid green;"">","null","","","","","","","","","",""
"","image-keyboard-response","284","86271","0.0-334.0","","","","","16.899999999441206","img/food5.png","75","17.799999999813735","2","0","1","2","1,0.7,0,1,0.7,0,0.7,0,1","0.7,0,1,0.7,0,1,0,1,0.7","2","false",""
"","html-keyboard-response","285","86573","0.0-335.0","","","","","null","<img src=""img/food5.png"" style=""width:200px;border:14px solid red;"">","null","","","","","","","","","",""
"","image-keyboard-response","286","86591","0.0-337.0","","","","","17.100000000558794","img/food6.png","75","17.90000000037253","2","0","2","2","1,0.7,0,1,0.7,0,0.7,0,1","0.7,0,1,0.7,0,1,0,1,0.7","2","false",""
"","html-keyboard-response","287","86893","0.0-338.0","","","","","null","<img src=""img/food6.png"" style=""width:200px;border:14px solid red;"">","null","","","","","","","","","",""
"","image-keyboard-response","288","86943","0.0-340.0","","","","","48.90000000037253","img/food6.png","74","50.19999999925494","1","1","2","2","1,0.7,0,1,0.7,0,0.7,0,1","0.7,0,1,0.7,0,1,0,1,0.7","2","false",""
"","html-keyboard-response","289","87245","0.0-341.0","","","","","null","<img src=""img/food6.png"" style=""width:200px; border:14px solid green;"">","null","","","","","","","","","",""
"","image-keyboard-response","290","87263","0.0-343.0","","","","","16","img/food6.png","74","17","1","1","2","2","1,0.7,0,1,0.7,0,0.7,0,1","0.7,0,1,0.7,0,1,0,1,0.7","2","false",""
"","html-keyboard-response","291","87565","0.0-344.0","","","","","null","<img src=""img/food6.png"" style=""width:200px; border:14px solid green;"">","null","","","","","","","","","",""
"","image-keyboard-response","292","87615","0.0-346.0","","","","","48.799999999813735","img/food2.png","76","49.700000000186265","3","1","3","2","1,0.7,0,1,0.7,0,0.7,0,1","0.7,0,1,0.7,0,1,0,1,0.7","2","false",""
"","html-keyboard-response","293","87917","0.0-347.0","","","","","null","<img src=""img/food2.png"" style=""width:200px; border:14px solid green;"">","null","","","","","","","","","",""
"","image-keyboard-response","294","87999","0.0-349.0","","","","","80.40000000037253","img/food6.png","76","81.5","3","1","2","2","1,0.7,0,1,0.7,0,0.7,0,1","0.7,0,1,0.7,0,1,0,1,0.7","2","false",""
"","html-keyboard-response","295","88301","0.0-350.0","","","","","null","<img src=""img/food6.png"" style=""width:200px; border:14px solid green;"">","null","","","","","","","","","",""
"","image-keyboard-response","296","88383","0.0-352.0","","","","","79.59999999962747","img/food5.png","76","80.70000000018626","3","1","1","2","1,0.7,0,1,0.7,0,0.7,0,1","0.7,0,1,0.7,0,1,0,1,0.7","2","false",""
"","html-keyboard-response","297","88685","0.0-353.0","","","","","null","<img src=""img/food5.png"" style=""width:200px; border:14px solid green;"">","null","","","","","","","","","",""
"","image-keyboard-response","298","88688","0.0-355.0","","","","","2.2000000001862645","img/food2.png","75","3.099999999627471","2","1","3","2","1,0.7,0,1,0.7,0,0.7,0,1","0.7,0,1,0.7,0,1,0,1,0.7","2","false",""
"","html-keyboard-response","299","88990","0.0-356.0","","","","","null","<img src=""img/food2.png"" style=""width:200px; border:14px solid green;"">","null","","","","","","","","","",""
"","image-keyboard-response","300","89071","0.0-358.0","","","","","79.09999999962747","img/food5.png","74","80.20000000018626","1","1","1","2","1,0.7,0,1,0.7,0,0.7,0,1","0.7,0,1,0.7,0,1,0,1,0.7","2","false",""
"","html-keyboard-response","301","89373","0.0-359.0","","","","","null","<img src=""img/food5.png"" style=""width:200px; border:14px solid green;"">","null","","","","","","","","","",""
"","image-keyboard-response","302","89439","0.0-361.0","","","","","64.09999999962747","img/food2.png","75","65.29999999981374","2","1","3","2","1,0.7,0,1,0.7,0,0.7,0,1","0.7,0,1,0.7,0,1,0,1,0.7","2","false",""
"","html-keyboard-response","303","89740","0.0-362.0","","","","","null","<img src=""img/food2.png"" style=""width:200px; border:14px solid green;"">","null","","","","","","","","","",""
"","image-keyboard-response","304","89823","0.0-364.0","","","","","81.20000000018626","img/food5.png","74","82.20000000018626","1","0","1","2","1,0.7,0,1,0.7,0,0.7,0,1","0.7,0,1,0.7,0,1,0,1,0.7","2","false",""
"","html-keyboard-response","305","90125","0.0-365.0","","","","","null","<img src=""img/food5.png"" style=""width:200px;border:14px solid red;"">","null","","","","","","","","","",""
"","image-keyboard-response","306","90191","0.0-367.0","","","","","64.59999999962747","img/food2.png","75","65.59999999962747","2","1","3","2","1,0.7,0,1,0.7,0,0.7,0,1","0.7,0,1,0.7,0,1,0,1,0.7","2","false",""
"","html-keyboard-response","307","90493","0.0-368.0","","","","","null","<img src=""img/food2.png"" style=""width:200px; border:14px solid green;"">","null","","","","","","","","","",""
"","image-keyboard-response","308","90527","0.0-370.0","","","","","32.39999999944121","img/food6.png","75","33.59999999962747","2","0","2","2","1,0.7,0,1,0.7,0,0.7,0,1","0.7,0,1,0.7,0,1,0,1,0.7","2","false",""
"","html-keyboard-response","309","90829","0.0-371.0","","","","","null","<img src=""img/food6.png"" style=""width:200px;border:14px solid red;"">","null","","","","","","","","","",""
"","image-keyboard-response","310","90895","0.0-373.0","","","","","64.5","img/food6.png","75","65.6000000005588","2","0","2","2","1,0.7,0,1,0.7,0,0.7,0,1","0.7,0,1,0.7,0,1,0,1,0.7","2","false",""
"","html-keyboard-response","311","91197","0.0-374.0","","","","","null","<img src=""img/food6.png"" style=""width:200px;border:14px solid red;"">","null","","","","","","","","","",""
"","image-keyboard-response","312","91279","0.0-376.0","","","","","80.79999999981374","img/food2.png","75","81.79999999981374","2","1","3","2","1,0.7,0,1,0.7,0,0.7,0,1","0.7,0,1,0.7,0,1,0,1,0.7","2","false",""
"","html-keyboard-response","313","91581","0.0-377.0","","","","","null","<img src=""img/food2.png"" style=""width:200px; border:14px solid green;"">","null","","","","","","","","","",""
"","image-keyboard-response","314","91583","0.0-379.0","","","","","0.7999999998137355","img/food5.png","75","1.7000000001862645","2","0","1","2","1,0.7,0,1,0.7,0,0.7,0,1","0.7,0,1,0.7,0,1,0,1,0.7","2","false",""
"","html-keyboard-response","315","91885","0.0-380.0","","","","","null","<img src=""img/food5.png"" style=""width:200px;border:14px solid red;"">","null","","","","","","","","","",""
"","image-keyboard-response","316","91919","0.0-382.0","","","","","33","img/food5.png","74","34.19999999925494","1","1","1","2","1,0.7,0,1,0.7,0,0.7,0,1","0.7,0,1,0.7,0,1,0,1,0.7","2","false",""
"","html-keyboard-response","317","92221","0.0-383.0","","","","","null","<img src=""img/food5.png"" style=""width:200px; border:14px solid green;"">","null","","","","","","","","","",""
"","image-keyboard-response","318","92287","0.0-385.0","","","","","64.1000000005588","img/food5.png","74","65.20000000018626","1","1","1","2","1,0.7,0,1,0.7,0,0.7,0,1","0.7,0,1,0.7,0,1,0,1,0.7","2","false",""
"","html-keyboard-response","319","92589","0.0-386.0","","","","","null","<img src=""img/food5.png"" style=""width:200px; border:14px solid green;"">","null","","","","","","","","","",""
"","image-keyboard-response","320","92655","0.0-388.0","","","","","64.20000000018626","img/food2.png","74","65.29999999981374","1","0","3","2","1,0.7,0,1,0.7,0,0.7,0,1","0.7,0,1,0.7,0,1,0,1,0.7","2","false",""
"","html-keyboard-response","321","92957","0.0-389.0","","","","","null","<img src=""img/food2.png"" style=""width:200px;border:14px solid red;"">","null","","","","","","","","","",""
"","image-keyboard-response","322","93039","0.0-391.0","","","","","80.59999999962747","img/food5.png","74","81.70000000018626","1","1","1","2","1,0.7,0,1,0.7,0,0.7,0,1","0.7,0,1,0.7,0,1,0,1,0.7","2","false",""
"","html-keyboard-response","323","93340","0.0-392.0","","","","","null","<img src=""img/food5.png"" style=""width:200px; border:14px solid green;"">","null","","","","","","","","","",""
"","image-keyboard-response","324","93343","0.0-394.0","","","","","1","img/food5.png","76","1.900000000372529","3","1","1","2","1,0.7,0,1,0.7,0,0.7,0,1","0.7,0,1,0.7,0,1,0,1,0.7","2","false",""
"","html-keyboard-response","325","93645","0.0-395.0","","","","","null","<img src=""img/food5.png"" style=""width:200px; border:14px solid green;"">","null","","","","","","","","","",""
"","image-keyboard-response","326","93648","0.0-397.0","","","","","2.599999999627471","img/food5.png","74","3.5","1","0","1","2","1,0.7,0,1,0.7,0,0.7,0,1","0.7,0,1,0.7,0,1,0,1,0.7","2","false",""
"","html-keyboard-response","327","93952","0.0-398.0","","","","","null","<img src=""img/food5.png"" style=""width:200px;border:14px solid red;"">","null","","","","","","","","","",""
"","image-keyboard-response","328","94047","0.0-400.0","","","","","93.20000000018626","img/food2.png","74","94.09999999962747","1","0","3","2","1,0.7,0,1,0.7,0,0.7,0,1","0.7,0,1,0.7,0,1,0,1,0.7","2","false",""
"","html-keyboard-response","329","94349","0.0-401.0","","","","","null","<img src=""img/food2.png"" style=""width:200px;border:14px solid red;"">","null","","","","","","","","","",""
"","image-keyboard-response","330","94431","0.0-403.0","","","","","80.59999999962747","img/food2.png","74","81.3999999994412","1","0","3","2","1,0.7,0,1,0.7,0,0.7,0,1","0.7,0,1,0.7,0,1,0,1,0.7","2","false",""
"","html-keyboard-response","331","94733","0.0-404.0","","","","","null","<img src=""img/food2.png"" style=""width:200px;border:14px solid red;"">","null","","","","","","","","","",""
"","image-keyboard-response","332","94736","0.0-406.0","","","","","2.2000000001862645","img/food5.png","75","3.099999999627471","2","0","1","2","1,0.7,0,1,0.7,0,0.7,0,1","0.7,0,1,0.7,0,1,0,1,0.7","2","false",""
"","html-keyboard-response","333","95038","0.0-407.0","","","","","null","<img src=""img/food5.png"" style=""width:200px;border:14px solid red;"">","null","","","","","","","","","",""
"","image-keyboard-response","334","95119","0.0-409.0","","","","","79.6000000005588","img/food6.png","75","80.70000000018626","2","0","2","2","1,0.7,0,1,0.7,0,0.7,0,1","0.7,0,1,0.7,0,1,0,1,0.7","2","false",""
"","html-keyboard-response","335","95420","0.0-410.0","","","","","null","<img src=""img/food6.png"" style=""width:200px;border:14px solid red;"">","null","","","","","","","","","",""
"","image-keyboard-response","336","95503","0.0-412.0","","","","","81.09999999962747","img/food2.png","76","82.20000000018626","3","1","3","2","1,0.7,0,1,0.7,0,0.7,0,1","0.7,0,1,0.7,0,1,0,1,0.7","2","false",""
"","html-keyboard-response","337","95804","0.0-413.0","","","","","null","<img src=""img/food2.png"" style=""width:200px; border:14px solid green;"">","null","","","","","","","","","",""
"","image-keyboard-response","338","95871","0.0-415.0","","","","","64.90000000037253","img/food2.png","74","66","1","0","3","2","1,0.7,0,1,0.7,0,0.7,0,1","0.7,0,1,0.7,0,1,0,1,0.7","2","false",""
"","html-keyboard-response","339","96173","0.0-416.0","","","","","null","<img src=""img/food2.png"" style=""width:200px;border:14px solid red;"">","null","","","","","","","","","",""
"","image-keyboard-response","340","96225","0.0-418.0","","","","","50.69999999925494","img/food6.png","74","51.69999999925494","1","1","2","2","1,0.7,0,1,0.7,0,0.7,0,1","0.7,0,1,0.7,0,1,0,1,0.7","2","false",""
"","html-keyboard-response","341","96526","0.0-419.0","","","","","null","<img src=""img/food6.png"" style=""width:200px; border:14px solid green;"">","null","","","","","","","","","",""
"","image-keyboard-response","342","96575","0.0-421.0","","","","","47.09999999962747","img/food6.png","74","48.200000000186265","1","0","2","2","1,0.7,0,1,0.7,0,0.7,0,1","0.7,0,1,0.7,0,1,0,1,0.7","2","false",""
"","html-keyboard-response","343","96876","0.0-422.0","","","","","null","<img src=""img/food6.png"" style=""width:200px;border:14px solid red;"">","null","","","","","","","","","",""
"","image-keyboard-response","344","96975","0.0-424.0","","","","","97.20000000018626","img/food5.png","74","98.20000000018626","1","1","1","2","1,0.7,0,1,0.7,0,0.7,0,1","0.7,0,1,0.7,0,1,0,1,0.7","2","false",""
"","html-keyboard-response","345","97277","0.0-425.0","","","","","null","<img src=""img/food5.png"" style=""width:200px; border:14px solid green;"">","null","","","","","","","","","",""
"","image-keyboard-response","346","97359","0.0-427.0","","","","","80.29999999981374","img/food6.png","74","81.29999999981374","1","1","2","2","1,0.7,0,1,0.7,0,0.7,0,1","0.7,0,1,0.7,0,1,0,1,0.7","2","false",""
"","html-keyboard-response","347","97660","0.0-428.0","","","","","null","<img src=""img/food6.png"" style=""width:200px; border:14px solid green;"">","null","","","","","","","","","",""
"","image-keyboard-response","348","97775","0.0-430.0","","","","","113.1000000005588","img/food6.png","75","114.1000000005588","2","0","2","2","1,0.7,0,1,0.7,0,0.7,0,1","0.7,0,1,0.7,0,1,0,1,0.7","2","false",""
"","html-keyboard-response","349","98076","0.0-431.0","","","","","null","<img src=""img/food6.png"" style=""width:200px;border:14px solid red;"">","null","","","","","","","","","",""
"","image-keyboard-response","350","98127","0.0-433.0","","","","","49.09999999962747","img/food2.png","74","50","1","0","3","2","1,0.7,0,1,0.7,0,0.7,0,1","0.7,0,1,0.7,0,1,0,1,0.7","2","false",""
"","html-keyboard-response","351","98429","0.0-434.0","","","","","null","<img src=""img/food2.png"" style=""width:200px;border:14px solid red;"">","null","","","","","","","","","",""
"","image-keyboard-response","352","98431","0.0-436.0","","","","","1.8999999994412065","img/food6.png","75","2.7999999998137355","2","0","2","2","1,0.7,0,1,0.7,0,0.7,0,1","0.7,0,1,0.7,0,1,0,1,0.7","2","false",""
"","html-keyboard-response","353","98733","0.0-437.0","","","","","null","<img src=""img/food6.png"" style=""width:200px;border:14px solid red;"">","null","","","","","","","","","",""
"","image-keyboard-response","354","98735","0.0-439.0","","","","","0.2999999998137355","img/food2.png","74","1.2000000001862645","1","0","3","2","1,0.7,0,1,0.7,0,0.7,0,1","0.7,0,1,0.7,0,1,0,1,0.7","2","false",""
"","html-keyboard-response","355","99037","0.0-440.0","","","","","null","<img src=""img/food2.png"" style=""width:200px;border:14px solid red;"">","null","","","","","","","","","",""
"","image-keyboard-response","356","99151","0.0-442.0","","","","","112.20000000018626","img/food6.png","75","113.6000000005588","2","0","2","2","1,0.7,0,1,0.7,0,0.7,0,1","0.7,0,1,0.7,0,1,0,1,0.7","2","false",""
"","html-keyboard-response","357","99453","0.0-443.0","","","","","null","<img src=""img/food6.png"" style=""width:200px;border:14px solid red;"">","null","","","","","","","","","",""
"","image-keyboard-response","358","99567","0.0-445.0","","","","","112.90000000037253","img/food5.png","75","113.79999999981374","2","0","1","2","1,0.7,0,1,0.7,0,0.7,0,1","0.7,0,1,0.7,0,1,0,1,0.7","2","false",""
"","html-keyboard-response","359","99869","0.0-446.0","","","","","null","<img src=""img/food5.png"" style=""width:200px;border:14px solid red;"">","null","","","","","","","","","",""
"","image-keyboard-response","360","99983","0.0-448.0","","","","","112.5","img/food5.png","75","113.59999999962747","2","0","1","2","1,0.7,0,1,0.7,0,0.7,0,1","0.7,0,1,0.7,0,1,0,1,0.7","2","false",""
"","html-keyboard-response","361","100284","0.0-449.0","","","","","null","<img src=""img/food5.png"" style=""width:200px;border:14px solid red;"">","null","","","","","","","","","",""
"","image-keyboard-response","362","100719","0.0-451.0","","","","","433.19999999925494","img/food2.png","76","434.09999999962747","3","1","3","2","1,0.7,0,1,0.7,0,0.7,0,1","0.7,0,1,0.7,0,1,0,1,0.7","2","false",""
"","html-keyboard-response","363","101026","0.0-452.0","","","","","null","<img src=""img/food2.png"" style=""width:200px; border:14px solid green;"">","null","","","","","","","","","",""
"","instructions","364","108255","0.0-454.0","","","","[{""page_index"":0,""viewing_time"":7227.399999999441}]","7227.799999999814","","","","","","","","","","","",""
"","survey-text","365","113832","0.0-455.0","","","","","5570.199999999255","","","","","","","","","","","","{""Q0"":""A31A1PVXLJBISZ""}"
