"success","trial_type","trial_index","time_elapsed","internal_node_id","assignmentID","mturkID","hitID","view_history","rt","stimulus","key_press","reactionTime","a","r","warning","s","cond","reward_cond","reward_cond_actual","reward_matrix_idx","responses"
"true","fullscreen","0","2248","0.0-0.0","31N2WW6R9SCYSNVYKK5MUXAMCCWF3Z","A31P9Z3VBQM1PB","3XT3KXP24ZKFDDMCDS43FE3AU9W6IW","","","","","","","","","","","","","",""
"","instructions","1","17799","0.0-1.0","31N2WW6R9SCYSNVYKK5MUXAMCCWF3Z","A31P9Z3VBQM1PB","3XT3KXP24ZKFDDMCDS43FE3AU9W6IW","[{""page_index"":0,""viewing_time"":2613.7000000476837},{""page_index"":1,""viewing_time"":1463.9000000953674},{""page_index"":2,""viewing_time"":1399.8999998569489},{""page_index"":3,""viewing_time"":1592},{""page_index"":4,""viewing_time"":3024.100000143051},{""page_index"":5,""viewing_time"":4312},{""page_index"":6,""viewing_time"":1144.2999999523163}]","15550.100000143051","","","","","","","","","","","",""
"","instructions","2","25879","0.0-2.0","31N2WW6R9SCYSNVYKK5MUXAMCCWF3Z","A31P9Z3VBQM1PB","3XT3KXP24ZKFDDMCDS43FE3AU9W6IW","[{""page_index"":0,""viewing_time"":5591.100000143051},{""page_index"":1,""viewing_time"":2488.0999999046326}]","8079.400000095367","","","","","","","","","","","",""
"","image-keyboard-response","3","26884","0.0-3.0","31N2WW6R9SCYSNVYKK5MUXAMCCWF3Z","A31P9Z3VBQM1PB","3XT3KXP24ZKFDDMCDS43FE3AU9W6IW","","","img/food2.png","","1004.6000001430511","-1","0","true","1","2","1,0.5,0,1,0.5,0,0.5,0,1","0,1,0.5,0,1,0.5,1,0.5,0","3",""
"","html-keyboard-response","4","27198","0.0-4.0","31N2WW6R9SCYSNVYKK5MUXAMCCWF3Z","A31P9Z3VBQM1PB","3XT3KXP24ZKFDDMCDS43FE3AU9W6IW","","null","<img src=""img/food2.png"" style=""width:200px;border:14px solid red;"">","null","","","","","","","","","",""
"","html-keyboard-response","5","28879","0.0-5.0-0.0","31N2WW6R9SCYSNVYKK5MUXAMCCWF3Z","A31P9Z3VBQM1PB","3XT3KXP24ZKFDDMCDS43FE3AU9W6IW","","","","","","","","","","","","","",""
"","image-keyboard-response","6","29855","0.0-6.0","31N2WW6R9SCYSNVYKK5MUXAMCCWF3Z","A31P9Z3VBQM1PB","3XT3KXP24ZKFDDMCDS43FE3AU9W6IW","","975.3000001907349","img/food4.png","74","976.1000001430511","1","1","false","3","2","1,0.5,0,1,0.5,0,0.5,0,1","0,1,0.5,0,1,0.5,1,0.5,0","3",""
"","html-keyboard-response","7","30157","0.0-7.0","31N2WW6R9SCYSNVYKK5MUXAMCCWF3Z","A31P9Z3VBQM1PB","3XT3KXP24ZKFDDMCDS43FE3AU9W6IW","","null","<img src=""img/food4.png"" style=""width:200px; border:14px solid green;"">","null","","","","","","","","","",""
"","image-keyboard-response","8","30639","0.0-9.0","31N2WW6R9SCYSNVYKK5MUXAMCCWF3Z","A31P9Z3VBQM1PB","3XT3KXP24ZKFDDMCDS43FE3AU9W6IW","","481.59999990463257","img/food2.png","74","482.09999990463257","1","0","false","1","2","1,0.5,0,1,0.5,0,0.5,0,1","0,1,0.5,0,1,0.5,1,0.5,0","3",""
"","html-keyboard-response","9","30941","0.0-10.0","31N2WW6R9SCYSNVYKK5MUXAMCCWF3Z","A31P9Z3VBQM1PB","3XT3KXP24ZKFDDMCDS43FE3AU9W6IW","","null","<img src=""img/food2.png"" style=""width:200px;border:14px solid red;"">","null","","","","","","","","","",""
"","image-keyboard-response","10","31551","0.0-12.0","31N2WW6R9SCYSNVYKK5MUXAMCCWF3Z","A31P9Z3VBQM1PB","3XT3KXP24ZKFDDMCDS43FE3AU9W6IW","","609.6000001430511","img/food4.png","74","610.0999999046326","1","1","false","3","2","1,0.5,0,1,0.5,0,0.5,0,1","0,1,0.5,0,1,0.5,1,0.5,0","3",""
"","html-keyboard-response","11","31853","0.0-13.0","31N2WW6R9SCYSNVYKK5MUXAMCCWF3Z","A31P9Z3VBQM1PB","3XT3KXP24ZKFDDMCDS43FE3AU9W6IW","","null","<img src=""img/food4.png"" style=""width:200px; border:14px solid green;"">","null","","","","","","","","","",""
"","image-keyboard-response","12","32303","0.0-15.0","31N2WW6R9SCYSNVYKK5MUXAMCCWF3Z","A31P9Z3VBQM1PB","3XT3KXP24ZKFDDMCDS43FE3AU9W6IW","","449.5","img/food5.png","75","450.09999990463257","2","1","false","2","2","1,0.5,0,1,0.5,0,0.5,0,1","0,1,0.5,0,1,0.5,1,0.5,0","3",""
"","html-keyboard-response","13","32605","0.0-16.0","31N2WW6R9SCYSNVYKK5MUXAMCCWF3Z","A31P9Z3VBQM1PB","3XT3KXP24ZKFDDMCDS43FE3AU9W6IW","","null","<img src=""img/food5.png"" style=""width:200px; border:14px solid green;"">","null","","","","","","","","","",""
"","image-keyboard-response","14","33079","0.0-18.0","31N2WW6R9SCYSNVYKK5MUXAMCCWF3Z","A31P9Z3VBQM1PB","3XT3KXP24ZKFDDMCDS43FE3AU9W6IW","","473.89999985694885","img/food5.png","75","474.59999990463257","2","1","false","2","2","1,0.5,0,1,0.5,0,0.5,0,1","0,1,0.5,0,1,0.5,1,0.5,0","3",""
"","html-keyboard-response","15","33380","0.0-19.0","31N2WW6R9SCYSNVYKK5MUXAMCCWF3Z","A31P9Z3VBQM1PB","3XT3KXP24ZKFDDMCDS43FE3AU9W6IW","","null","<img src=""img/food5.png"" style=""width:200px; border:14px solid green;"">","null","","","","","","","","","",""
"","image-keyboard-response","16","33887","0.0-21.0","31N2WW6R9SCYSNVYKK5MUXAMCCWF3Z","A31P9Z3VBQM1PB","3XT3KXP24ZKFDDMCDS43FE3AU9W6IW","","506.30000019073486","img/food5.png","75","507.10000014305115","2","1","false","2","2","1,0.5,0,1,0.5,0,0.5,0,1","0,1,0.5,0,1,0.5,1,0.5,0","3",""
"","html-keyboard-response","17","34189","0.0-22.0","31N2WW6R9SCYSNVYKK5MUXAMCCWF3Z","A31P9Z3VBQM1PB","3XT3KXP24ZKFDDMCDS43FE3AU9W6IW","","null","<img src=""img/food5.png"" style=""width:200px; border:14px solid green;"">","null","","","","","","","","","",""
"","image-keyboard-response","18","34695","0.0-24.0","31N2WW6R9SCYSNVYKK5MUXAMCCWF3Z","A31P9Z3VBQM1PB","3XT3KXP24ZKFDDMCDS43FE3AU9W6IW","","505.60000014305115","img/food2.png","74","506.19999980926514","1","0","false","1","2","1,0.5,0,1,0.5,0,0.5,0,1","0,1,0.5,0,1,0.5,1,0.5,0","3",""
"","html-keyboard-response","19","34996","0.0-25.0","31N2WW6R9SCYSNVYKK5MUXAMCCWF3Z","A31P9Z3VBQM1PB","3XT3KXP24ZKFDDMCDS43FE3AU9W6IW","","null","<img src=""img/food2.png"" style=""width:200px;border:14px solid red;"">","null","","","","","","","","","",""
"","image-keyboard-response","20","35607","0.0-27.0","31N2WW6R9SCYSNVYKK5MUXAMCCWF3Z","A31P9Z3VBQM1PB","3XT3KXP24ZKFDDMCDS43FE3AU9W6IW","","610.2999999523163","img/food5.png","75","610.7000000476837","2","1","false","2","2","1,0.5,0,1,0.5,0,0.5,0,1","0,1,0.5,0,1,0.5,1,0.5,0","3",""
"","html-keyboard-response","21","35909","0.0-28.0","31N2WW6R9SCYSNVYKK5MUXAMCCWF3Z","A31P9Z3VBQM1PB","3XT3KXP24ZKFDDMCDS43FE3AU9W6IW","","null","<img src=""img/food5.png"" style=""width:200px; border:14px solid green;"">","null","","","","","","","","","",""
"","image-keyboard-response","22","36279","0.0-30.0","31N2WW6R9SCYSNVYKK5MUXAMCCWF3Z","A31P9Z3VBQM1PB","3XT3KXP24ZKFDDMCDS43FE3AU9W6IW","","369.60000014305115","img/food5.png","75","370.2000000476837","2","1","false","2","2","1,0.5,0,1,0.5,0,0.5,0,1","0,1,0.5,0,1,0.5,1,0.5,0","3",""
"","html-keyboard-response","23","36580","0.0-31.0","31N2WW6R9SCYSNVYKK5MUXAMCCWF3Z","A31P9Z3VBQM1PB","3XT3KXP24ZKFDDMCDS43FE3AU9W6IW","","null","<img src=""img/food5.png"" style=""width:200px; border:14px solid green;"">","null","","","","","","","","","",""
"","image-keyboard-response","24","37031","0.0-33.0","31N2WW6R9SCYSNVYKK5MUXAMCCWF3Z","A31P9Z3VBQM1PB","3XT3KXP24ZKFDDMCDS43FE3AU9W6IW","","450","img/food5.png","75","450.69999980926514","2","1","false","2","2","1,0.5,0,1,0.5,0,0.5,0,1","0,1,0.5,0,1,0.5,1,0.5,0","3",""
"","html-keyboard-response","25","37332","0.0-34.0","31N2WW6R9SCYSNVYKK5MUXAMCCWF3Z","A31P9Z3VBQM1PB","3XT3KXP24ZKFDDMCDS43FE3AU9W6IW","","null","<img src=""img/food5.png"" style=""width:200px; border:14px solid green;"">","null","","","","","","","","","",""
"","image-keyboard-response","26","37999","0.0-36.0","31N2WW6R9SCYSNVYKK5MUXAMCCWF3Z","A31P9Z3VBQM1PB","3XT3KXP24ZKFDDMCDS43FE3AU9W6IW","","665.8999998569489","img/food4.png","74","666.5","1","1","false","3","2","1,0.5,0,1,0.5,0,0.5,0,1","0,1,0.5,0,1,0.5,1,0.5,0","3",""
"","html-keyboard-response","27","38301","0.0-37.0","31N2WW6R9SCYSNVYKK5MUXAMCCWF3Z","A31P9Z3VBQM1PB","3XT3KXP24ZKFDDMCDS43FE3AU9W6IW","","null","<img src=""img/food4.png"" style=""width:200px; border:14px solid green;"">","null","","","","","","","","","",""
"","image-keyboard-response","28","38791","0.0-39.0","31N2WW6R9SCYSNVYKK5MUXAMCCWF3Z","A31P9Z3VBQM1PB","3XT3KXP24ZKFDDMCDS43FE3AU9W6IW","","489.09999990463257","img/food4.png","74","489.7000000476837","1","1","false","3","2","1,0.5,0,1,0.5,0,0.5,0,1","0,1,0.5,0,1,0.5,1,0.5,0","3",""
"","html-keyboard-response","29","39093","0.0-40.0","31N2WW6R9SCYSNVYKK5MUXAMCCWF3Z","A31P9Z3VBQM1PB","3XT3KXP24ZKFDDMCDS43FE3AU9W6IW","","null","<img src=""img/food4.png"" style=""width:200px; border:14px solid green;"">","null","","","","","","","","","",""
"","image-keyboard-response","30","39535","0.0-42.0","31N2WW6R9SCYSNVYKK5MUXAMCCWF3Z","A31P9Z3VBQM1PB","3XT3KXP24ZKFDDMCDS43FE3AU9W6IW","","442","img/food4.png","74","442.5","1","1","false","3","2","1,0.5,0,1,0.5,0,0.5,0,1","0,1,0.5,0,1,0.5,1,0.5,0","3",""
"","html-keyboard-response","31","39838","0.0-43.0","31N2WW6R9SCYSNVYKK5MUXAMCCWF3Z","A31P9Z3VBQM1PB","3XT3KXP24ZKFDDMCDS43FE3AU9W6IW","","null","<img src=""img/food4.png"" style=""width:200px; border:14px solid green;"">","null","","","","","","","","","",""
"","image-keyboard-response","32","40439","0.0-45.0","31N2WW6R9SCYSNVYKK5MUXAMCCWF3Z","A31P9Z3VBQM1PB","3XT3KXP24ZKFDDMCDS43FE3AU9W6IW","","600.5","img/food2.png","75","601","2","1","false","1","2","1,0.5,0,1,0.5,0,0.5,0,1","0,1,0.5,0,1,0.5,1,0.5,0","3",""
"","html-keyboard-response","33","40741","0.0-46.0","31N2WW6R9SCYSNVYKK5MUXAMCCWF3Z","A31P9Z3VBQM1PB","3XT3KXP24ZKFDDMCDS43FE3AU9W6IW","","null","<img src=""img/food2.png"" style=""width:200px; border:14px solid green;"">","null","","","","","","","","","",""
"","image-keyboard-response","34","41399","0.0-48.0","31N2WW6R9SCYSNVYKK5MUXAMCCWF3Z","A31P9Z3VBQM1PB","3XT3KXP24ZKFDDMCDS43FE3AU9W6IW","","657.0999999046326","img/food5.png","75","657.6000001430511","2","1","false","2","2","1,0.5,0,1,0.5,0,0.5,0,1","0,1,0.5,0,1,0.5,1,0.5,0","3",""
"","html-keyboard-response","35","41701","0.0-49.0","31N2WW6R9SCYSNVYKK5MUXAMCCWF3Z","A31P9Z3VBQM1PB","3XT3KXP24ZKFDDMCDS43FE3AU9W6IW","","null","<img src=""img/food5.png"" style=""width:200px; border:14px solid green;"">","null","","","","","","","","","",""
"","image-keyboard-response","36","42359","0.0-51.0","31N2WW6R9SCYSNVYKK5MUXAMCCWF3Z","A31P9Z3VBQM1PB","3XT3KXP24ZKFDDMCDS43FE3AU9W6IW","","657.2999999523163","img/food2.png","74","657.7000000476837","1","0","false","1","2","1,0.5,0,1,0.5,0,0.5,0,1","0,1,0.5,0,1,0.5,1,0.5,0","3",""
"","html-keyboard-response","37","42660","0.0-52.0","31N2WW6R9SCYSNVYKK5MUXAMCCWF3Z","A31P9Z3VBQM1PB","3XT3KXP24ZKFDDMCDS43FE3AU9W6IW","","null","<img src=""img/food2.png"" style=""width:200px;border:14px solid red;"">","null","","","","","","","","","",""
"","image-keyboard-response","38","43223","0.0-54.0","31N2WW6R9SCYSNVYKK5MUXAMCCWF3Z","A31P9Z3VBQM1PB","3XT3KXP24ZKFDDMCDS43FE3AU9W6IW","","562.5","img/food4.png","74","563.0999999046326","1","1","false","3","2","1,0.5,0,1,0.5,0,0.5,0,1","0,1,0.5,0,1,0.5,1,0.5,0","3",""
"","html-keyboard-response","39","43524","0.0-55.0","31N2WW6R9SCYSNVYKK5MUXAMCCWF3Z","A31P9Z3VBQM1PB","3XT3KXP24ZKFDDMCDS43FE3AU9W6IW","","null","<img src=""img/food4.png"" style=""width:200px; border:14px solid green;"">","null","","","","","","","","","",""
"","image-keyboard-response","40","44207","0.0-57.0","31N2WW6R9SCYSNVYKK5MUXAMCCWF3Z","A31P9Z3VBQM1PB","3XT3KXP24ZKFDDMCDS43FE3AU9W6IW","","682.3000001907349","img/food2.png","75","682.8999998569489","2","1","false","1","2","1,0.5,0,1,0.5,0,0.5,0,1","0,1,0.5,0,1,0.5,1,0.5,0","3",""
"","html-keyboard-response","41","44508","0.0-58.0","31N2WW6R9SCYSNVYKK5MUXAMCCWF3Z","A31P9Z3VBQM1PB","3XT3KXP24ZKFDDMCDS43FE3AU9W6IW","","null","<img src=""img/food2.png"" style=""width:200px; border:14px solid green;"">","null","","","","","","","","","",""
"","image-keyboard-response","42","44832","0.0-60.0","31N2WW6R9SCYSNVYKK5MUXAMCCWF3Z","A31P9Z3VBQM1PB","3XT3KXP24ZKFDDMCDS43FE3AU9W6IW","","322.60000014305115","img/food2.png","75","323","2","1","false","1","2","1,0.5,0,1,0.5,0,0.5,0,1","0,1,0.5,0,1,0.5,1,0.5,0","3",""
"","html-keyboard-response","43","45133","0.0-61.0","31N2WW6R9SCYSNVYKK5MUXAMCCWF3Z","A31P9Z3VBQM1PB","3XT3KXP24ZKFDDMCDS43FE3AU9W6IW","","null","<img src=""img/food2.png"" style=""width:200px; border:14px solid green;"">","null","","","","","","","","","",""
"","image-keyboard-response","44","45551","0.0-63.0","31N2WW6R9SCYSNVYKK5MUXAMCCWF3Z","A31P9Z3VBQM1PB","3XT3KXP24ZKFDDMCDS43FE3AU9W6IW","","417.7000000476837","img/food2.png","75","418.19999980926514","2","1","false","1","2","1,0.5,0,1,0.5,0,0.5,0,1","0,1,0.5,0,1,0.5,1,0.5,0","3",""
"","html-keyboard-response","45","45856","0.0-64.0","31N2WW6R9SCYSNVYKK5MUXAMCCWF3Z","A31P9Z3VBQM1PB","3XT3KXP24ZKFDDMCDS43FE3AU9W6IW","","null","<img src=""img/food2.png"" style=""width:200px; border:14px solid green;"">","null","","","","","","","","","",""
"","image-keyboard-response","46","46535","0.0-66.0","31N2WW6R9SCYSNVYKK5MUXAMCCWF3Z","A31P9Z3VBQM1PB","3XT3KXP24ZKFDDMCDS43FE3AU9W6IW","","679.0999999046326","img/food5.png","75","679.7000000476837","2","1","false","2","2","1,0.5,0,1,0.5,0,0.5,0,1","0,1,0.5,0,1,0.5,1,0.5,0","3",""
"","html-keyboard-response","47","46837","0.0-67.0","31N2WW6R9SCYSNVYKK5MUXAMCCWF3Z","A31P9Z3VBQM1PB","3XT3KXP24ZKFDDMCDS43FE3AU9W6IW","","null","<img src=""img/food5.png"" style=""width:200px; border:14px solid green;"">","null","","","","","","","","","",""
"","image-keyboard-response","48","47159","0.0-69.0","31N2WW6R9SCYSNVYKK5MUXAMCCWF3Z","A31P9Z3VBQM1PB","3XT3KXP24ZKFDDMCDS43FE3AU9W6IW","","321.40000009536743","img/food2.png","75","321.7999999523163","2","1","false","1","2","1,0.5,0,1,0.5,0,0.5,0,1","0,1,0.5,0,1,0.5,1,0.5,0","3",""
"","html-keyboard-response","49","47461","0.0-70.0","31N2WW6R9SCYSNVYKK5MUXAMCCWF3Z","A31P9Z3VBQM1PB","3XT3KXP24ZKFDDMCDS43FE3AU9W6IW","","null","<img src=""img/food2.png"" style=""width:200px; border:14px solid green;"">","null","","","","","","","","","",""
"","image-keyboard-response","50","47863","0.0-72.0","31N2WW6R9SCYSNVYKK5MUXAMCCWF3Z","A31P9Z3VBQM1PB","3XT3KXP24ZKFDDMCDS43FE3AU9W6IW","","401.2999999523163","img/food5.png","75","401.90000009536743","2","1","false","2","2","1,0.5,0,1,0.5,0,0.5,0,1","0,1,0.5,0,1,0.5,1,0.5,0","3",""
"","html-keyboard-response","51","48165","0.0-73.0","31N2WW6R9SCYSNVYKK5MUXAMCCWF3Z","A31P9Z3VBQM1PB","3XT3KXP24ZKFDDMCDS43FE3AU9W6IW","","null","<img src=""img/food5.png"" style=""width:200px; border:14px solid green;"">","null","","","","","","","","","",""
"","image-keyboard-response","52","48535","0.0-75.0","31N2WW6R9SCYSNVYKK5MUXAMCCWF3Z","A31P9Z3VBQM1PB","3XT3KXP24ZKFDDMCDS43FE3AU9W6IW","","369.10000014305115","img/food5.png","75","369.7999999523163","2","1","false","2","2","1,0.5,0,1,0.5,0,0.5,0,1","0,1,0.5,0,1,0.5,1,0.5,0","3",""
"","html-keyboard-response","53","48836","0.0-76.0","31N2WW6R9SCYSNVYKK5MUXAMCCWF3Z","A31P9Z3VBQM1PB","3XT3KXP24ZKFDDMCDS43FE3AU9W6IW","","null","<img src=""img/food5.png"" style=""width:200px; border:14px solid green;"">","null","","","","","","","","","",""
"","image-keyboard-response","54","49215","0.0-78.0","31N2WW6R9SCYSNVYKK5MUXAMCCWF3Z","A31P9Z3VBQM1PB","3XT3KXP24ZKFDDMCDS43FE3AU9W6IW","","378.10000014305115","img/food5.png","75","378.5","2","1","false","2","2","1,0.5,0,1,0.5,0,0.5,0,1","0,1,0.5,0,1,0.5,1,0.5,0","3",""
"","html-keyboard-response","55","49517","0.0-79.0","31N2WW6R9SCYSNVYKK5MUXAMCCWF3Z","A31P9Z3VBQM1PB","3XT3KXP24ZKFDDMCDS43FE3AU9W6IW","","null","<img src=""img/food5.png"" style=""width:200px; border:14px solid green;"">","null","","","","","","","","","",""
"","image-keyboard-response","56","49927","0.0-81.0","31N2WW6R9SCYSNVYKK5MUXAMCCWF3Z","A31P9Z3VBQM1PB","3XT3KXP24ZKFDDMCDS43FE3AU9W6IW","","409.89999985694885","img/food5.png","75","410.5","2","1","false","2","2","1,0.5,0,1,0.5,0,0.5,0,1","0,1,0.5,0,1,0.5,1,0.5,0","3",""
"","html-keyboard-response","57","50228","0.0-82.0","31N2WW6R9SCYSNVYKK5MUXAMCCWF3Z","A31P9Z3VBQM1PB","3XT3KXP24ZKFDDMCDS43FE3AU9W6IW","","null","<img src=""img/food5.png"" style=""width:200px; border:14px solid green;"">","null","","","","","","","","","",""
"","image-keyboard-response","58","50791","0.0-84.0","31N2WW6R9SCYSNVYKK5MUXAMCCWF3Z","A31P9Z3VBQM1PB","3XT3KXP24ZKFDDMCDS43FE3AU9W6IW","","562.6000001430511","img/food4.png","74","563.0999999046326","1","1","false","3","2","1,0.5,0,1,0.5,0,0.5,0,1","0,1,0.5,0,1,0.5,1,0.5,0","3",""
"","html-keyboard-response","59","51092","0.0-85.0","31N2WW6R9SCYSNVYKK5MUXAMCCWF3Z","A31P9Z3VBQM1PB","3XT3KXP24ZKFDDMCDS43FE3AU9W6IW","","null","<img src=""img/food4.png"" style=""width:200px; border:14px solid green;"">","null","","","","","","","","","",""
"","image-keyboard-response","60","51607","0.0-87.0","31N2WW6R9SCYSNVYKK5MUXAMCCWF3Z","A31P9Z3VBQM1PB","3XT3KXP24ZKFDDMCDS43FE3AU9W6IW","","514.1000001430511","img/food5.png","75","514.5999999046326","2","1","false","2","2","1,0.5,0,1,0.5,0,0.5,0,1","0,1,0.5,0,1,0.5,1,0.5,0","3",""
"","html-keyboard-response","61","51909","0.0-88.0","31N2WW6R9SCYSNVYKK5MUXAMCCWF3Z","A31P9Z3VBQM1PB","3XT3KXP24ZKFDDMCDS43FE3AU9W6IW","","null","<img src=""img/food5.png"" style=""width:200px; border:14px solid green;"">","null","","","","","","","","","",""
"","image-keyboard-response","62","52455","0.0-90.0","31N2WW6R9SCYSNVYKK5MUXAMCCWF3Z","A31P9Z3VBQM1PB","3XT3KXP24ZKFDDMCDS43FE3AU9W6IW","","545.1000001430511","img/food5.png","75","545.6999998092651","2","1","false","2","2","1,0.5,0,1,0.5,0,0.5,0,1","0,1,0.5,0,1,0.5,1,0.5,0","3",""
"","html-keyboard-response","63","52756","0.0-91.0","31N2WW6R9SCYSNVYKK5MUXAMCCWF3Z","A31P9Z3VBQM1PB","3XT3KXP24ZKFDDMCDS43FE3AU9W6IW","","null","<img src=""img/food5.png"" style=""width:200px; border:14px solid green;"">","null","","","","","","","","","",""
"","image-keyboard-response","64","53079","0.0-93.0","31N2WW6R9SCYSNVYKK5MUXAMCCWF3Z","A31P9Z3VBQM1PB","3XT3KXP24ZKFDDMCDS43FE3AU9W6IW","","322.2999999523163","img/food4.png","75","322.7999999523163","2","0","false","3","2","1,0.5,0,1,0.5,0,0.5,0,1","0,1,0.5,0,1,0.5,1,0.5,0","3",""
"","html-keyboard-response","65","53381","0.0-94.0","31N2WW6R9SCYSNVYKK5MUXAMCCWF3Z","A31P9Z3VBQM1PB","3XT3KXP24ZKFDDMCDS43FE3AU9W6IW","","null","<img src=""img/food4.png"" style=""width:200px;border:14px solid red;"">","null","","","","","","","","","",""
"","image-keyboard-response","66","54103","0.0-96.0","31N2WW6R9SCYSNVYKK5MUXAMCCWF3Z","A31P9Z3VBQM1PB","3XT3KXP24ZKFDDMCDS43FE3AU9W6IW","","721.6000001430511","img/food2.png","75","722.0999999046326","2","1","false","1","2","1,0.5,0,1,0.5,0,0.5,0,1","0,1,0.5,0,1,0.5,1,0.5,0","3",""
"","html-keyboard-response","67","54404","0.0-97.0","31N2WW6R9SCYSNVYKK5MUXAMCCWF3Z","A31P9Z3VBQM1PB","3XT3KXP24ZKFDDMCDS43FE3AU9W6IW","","null","<img src=""img/food2.png"" style=""width:200px; border:14px solid green;"">","null","","","","","","","","","",""
"","image-keyboard-response","68","55103","0.0-99.0","31N2WW6R9SCYSNVYKK5MUXAMCCWF3Z","A31P9Z3VBQM1PB","3XT3KXP24ZKFDDMCDS43FE3AU9W6IW","","698.4000000953674","img/food5.png","75","698.8999998569489","2","1","false","2","2","1,0.5,0,1,0.5,0,0.5,0,1","0,1,0.5,0,1,0.5,1,0.5,0","3",""
"","html-keyboard-response","69","55405","0.0-100.0","31N2WW6R9SCYSNVYKK5MUXAMCCWF3Z","A31P9Z3VBQM1PB","3XT3KXP24ZKFDDMCDS43FE3AU9W6IW","","null","<img src=""img/food5.png"" style=""width:200px; border:14px solid green;"">","null","","","","","","","","","",""
"","image-keyboard-response","70","55871","0.0-102.0","31N2WW6R9SCYSNVYKK5MUXAMCCWF3Z","A31P9Z3VBQM1PB","3XT3KXP24ZKFDDMCDS43FE3AU9W6IW","","465.2000000476837","img/food2.png","75","465.69999980926514","2","1","false","1","2","1,0.5,0,1,0.5,0,0.5,0,1","0,1,0.5,0,1,0.5,1,0.5,0","3",""
"","html-keyboard-response","71","56173","0.0-103.0","31N2WW6R9SCYSNVYKK5MUXAMCCWF3Z","A31P9Z3VBQM1PB","3XT3KXP24ZKFDDMCDS43FE3AU9W6IW","","null","<img src=""img/food2.png"" style=""width:200px; border:14px solid green;"">","null","","","","","","","","","",""
"","image-keyboard-response","72","56607","0.0-105.0","31N2WW6R9SCYSNVYKK5MUXAMCCWF3Z","A31P9Z3VBQM1PB","3XT3KXP24ZKFDDMCDS43FE3AU9W6IW","","433.80000019073486","img/food4.png","74","434.2999999523163","1","1","false","3","2","1,0.5,0,1,0.5,0,0.5,0,1","0,1,0.5,0,1,0.5,1,0.5,0","3",""
"","html-keyboard-response","73","56909","0.0-106.0","31N2WW6R9SCYSNVYKK5MUXAMCCWF3Z","A31P9Z3VBQM1PB","3XT3KXP24ZKFDDMCDS43FE3AU9W6IW","","null","<img src=""img/food4.png"" style=""width:200px; border:14px solid green;"">","null","","","","","","","","","",""
"","image-keyboard-response","74","57479","0.0-108.0","31N2WW6R9SCYSNVYKK5MUXAMCCWF3Z","A31P9Z3VBQM1PB","3XT3KXP24ZKFDDMCDS43FE3AU9W6IW","","569.6000001430511","img/food5.png","75","570.1999998092651","2","1","false","2","2","1,0.5,0,1,0.5,0,0.5,0,1","0,1,0.5,0,1,0.5,1,0.5,0","3",""
"","html-keyboard-response","75","57781","0.0-109.0","31N2WW6R9SCYSNVYKK5MUXAMCCWF3Z","A31P9Z3VBQM1PB","3XT3KXP24ZKFDDMCDS43FE3AU9W6IW","","null","<img src=""img/food5.png"" style=""width:200px; border:14px solid green;"">","null","","","","","","","","","",""
"","image-keyboard-response","76","58135","0.0-111.0","31N2WW6R9SCYSNVYKK5MUXAMCCWF3Z","A31P9Z3VBQM1PB","3XT3KXP24ZKFDDMCDS43FE3AU9W6IW","","353.90000009536743","img/food4.png","75","354.2999999523163","2","1","false","3","2","1,0.5,0,1,0.5,0,0.5,0,1","0,1,0.5,0,1,0.5,1,0.5,0","3",""
"","html-keyboard-response","77","58437","0.0-112.0","31N2WW6R9SCYSNVYKK5MUXAMCCWF3Z","A31P9Z3VBQM1PB","3XT3KXP24ZKFDDMCDS43FE3AU9W6IW","","null","<img src=""img/food4.png"" style=""width:200px; border:14px solid green;"">","null","","","","","","","","","",""
"","image-keyboard-response","78","59223","0.0-114.0","31N2WW6R9SCYSNVYKK5MUXAMCCWF3Z","A31P9Z3VBQM1PB","3XT3KXP24ZKFDDMCDS43FE3AU9W6IW","","785.7000000476837","img/food4.png","75","786.2999999523163","2","0","false","3","2","1,0.5,0,1,0.5,0,0.5,0,1","0,1,0.5,0,1,0.5,1,0.5,0","3",""
"","html-keyboard-response","79","59525","0.0-115.0","31N2WW6R9SCYSNVYKK5MUXAMCCWF3Z","A31P9Z3VBQM1PB","3XT3KXP24ZKFDDMCDS43FE3AU9W6IW","","null","<img src=""img/food4.png"" style=""width:200px;border:14px solid red;"">","null","","","","","","","","","",""
"","image-keyboard-response","80","60248","0.0-117.0","31N2WW6R9SCYSNVYKK5MUXAMCCWF3Z","A31P9Z3VBQM1PB","3XT3KXP24ZKFDDMCDS43FE3AU9W6IW","","721.5","img/food5.png","75","722","2","1","false","2","2","1,0.5,0,1,0.5,0,0.5,0,1","0,1,0.5,0,1,0.5,1,0.5,0","3",""
"","html-keyboard-response","81","60550","0.0-118.0","31N2WW6R9SCYSNVYKK5MUXAMCCWF3Z","A31P9Z3VBQM1PB","3XT3KXP24ZKFDDMCDS43FE3AU9W6IW","","null","<img src=""img/food5.png"" style=""width:200px; border:14px solid green;"">","null","","","","","","","","","",""
"","image-keyboard-response","82","61008","0.0-120.0","31N2WW6R9SCYSNVYKK5MUXAMCCWF3Z","A31P9Z3VBQM1PB","3XT3KXP24ZKFDDMCDS43FE3AU9W6IW","","457.10000014305115","img/food4.png","74","457.69999980926514","1","1","false","3","2","1,0.5,0,1,0.5,0,0.5,0,1","0,1,0.5,0,1,0.5,1,0.5,0","3",""
"","html-keyboard-response","83","61309","0.0-121.0","31N2WW6R9SCYSNVYKK5MUXAMCCWF3Z","A31P9Z3VBQM1PB","3XT3KXP24ZKFDDMCDS43FE3AU9W6IW","","null","<img src=""img/food4.png"" style=""width:200px; border:14px solid green;"">","null","","","","","","","","","",""
"","image-keyboard-response","84","61888","0.0-123.0","31N2WW6R9SCYSNVYKK5MUXAMCCWF3Z","A31P9Z3VBQM1PB","3XT3KXP24ZKFDDMCDS43FE3AU9W6IW","","578.6000001430511","img/food5.png","75","579.2000000476837","2","1","false","2","2","1,0.5,0,1,0.5,0,0.5,0,1","0,1,0.5,0,1,0.5,1,0.5,0","3",""
"","html-keyboard-response","85","62192","0.0-124.0","31N2WW6R9SCYSNVYKK5MUXAMCCWF3Z","A31P9Z3VBQM1PB","3XT3KXP24ZKFDDMCDS43FE3AU9W6IW","","null","<img src=""img/food5.png"" style=""width:200px; border:14px solid green;"">","null","","","","","","","","","",""
"","image-keyboard-response","86","62792","0.0-126.0","31N2WW6R9SCYSNVYKK5MUXAMCCWF3Z","A31P9Z3VBQM1PB","3XT3KXP24ZKFDDMCDS43FE3AU9W6IW","","598.7999999523163","img/food5.png","75","599.3999998569489","2","1","false","2","2","1,0.5,0,1,0.5,0,0.5,0,1","0,1,0.5,0,1,0.5,1,0.5,0","3",""
"","html-keyboard-response","87","63093","0.0-127.0","31N2WW6R9SCYSNVYKK5MUXAMCCWF3Z","A31P9Z3VBQM1PB","3XT3KXP24ZKFDDMCDS43FE3AU9W6IW","","null","<img src=""img/food5.png"" style=""width:200px; border:14px solid green;"">","null","","","","","","","","","",""
"","image-keyboard-response","88","63528","0.0-129.0","31N2WW6R9SCYSNVYKK5MUXAMCCWF3Z","A31P9Z3VBQM1PB","3XT3KXP24ZKFDDMCDS43FE3AU9W6IW","","434","img/food5.png","75","434.5","2","1","false","2","2","1,0.5,0,1,0.5,0,0.5,0,1","0,1,0.5,0,1,0.5,1,0.5,0","3",""
"","html-keyboard-response","89","63829","0.0-130.0","31N2WW6R9SCYSNVYKK5MUXAMCCWF3Z","A31P9Z3VBQM1PB","3XT3KXP24ZKFDDMCDS43FE3AU9W6IW","","null","<img src=""img/food5.png"" style=""width:200px; border:14px solid green;"">","null","","","","","","","","","",""
"","image-keyboard-response","90","64352","0.0-132.0","31N2WW6R9SCYSNVYKK5MUXAMCCWF3Z","A31P9Z3VBQM1PB","3XT3KXP24ZKFDDMCDS43FE3AU9W6IW","","522.3000001907349","img/food4.png","74","522.8999998569489","1","1","false","3","2","1,0.5,0,1,0.5,0,0.5,0,1","0,1,0.5,0,1,0.5,1,0.5,0","3",""
"","html-keyboard-response","91","64659","0.0-133.0","31N2WW6R9SCYSNVYKK5MUXAMCCWF3Z","A31P9Z3VBQM1PB","3XT3KXP24ZKFDDMCDS43FE3AU9W6IW","","null","<img src=""img/food4.png"" style=""width:200px; border:14px solid green;"">","null","","","","","","","","","",""
"","image-keyboard-response","92","65248","0.0-135.0","31N2WW6R9SCYSNVYKK5MUXAMCCWF3Z","A31P9Z3VBQM1PB","3XT3KXP24ZKFDDMCDS43FE3AU9W6IW","","588.0999999046326","img/food4.png","74","588.7000000476837","1","1","false","3","2","1,0.5,0,1,0.5,0,0.5,0,1","0,1,0.5,0,1,0.5,1,0.5,0","3",""
"","html-keyboard-response","93","65550","0.0-136.0","31N2WW6R9SCYSNVYKK5MUXAMCCWF3Z","A31P9Z3VBQM1PB","3XT3KXP24ZKFDDMCDS43FE3AU9W6IW","","null","<img src=""img/food4.png"" style=""width:200px; border:14px solid green;"">","null","","","","","","","","","",""
"","image-keyboard-response","94","66080","0.0-138.0","31N2WW6R9SCYSNVYKK5MUXAMCCWF3Z","A31P9Z3VBQM1PB","3XT3KXP24ZKFDDMCDS43FE3AU9W6IW","","529.5","img/food2.png","75","530.0999999046326","2","1","false","1","2","1,0.5,0,1,0.5,0,0.5,0,1","0,1,0.5,0,1,0.5,1,0.5,0","3",""
"","html-keyboard-response","95","66381","0.0-139.0","31N2WW6R9SCYSNVYKK5MUXAMCCWF3Z","A31P9Z3VBQM1PB","3XT3KXP24ZKFDDMCDS43FE3AU9W6IW","","null","<img src=""img/food2.png"" style=""width:200px; border:14px solid green;"">","null","","","","","","","","","",""
"","image-keyboard-response","96","66712","0.0-141.0","31N2WW6R9SCYSNVYKK5MUXAMCCWF3Z","A31P9Z3VBQM1PB","3XT3KXP24ZKFDDMCDS43FE3AU9W6IW","","330.30000019073486","img/food2.png","75","330.89999985694885","2","1","false","1","2","1,0.5,0,1,0.5,0,0.5,0,1","0,1,0.5,0,1,0.5,1,0.5,0","3",""
"","html-keyboard-response","97","67013","0.0-142.0","31N2WW6R9SCYSNVYKK5MUXAMCCWF3Z","A31P9Z3VBQM1PB","3XT3KXP24ZKFDDMCDS43FE3AU9W6IW","","null","<img src=""img/food2.png"" style=""width:200px; border:14px solid green;"">","null","","","","","","","","","",""
"","image-keyboard-response","98","67552","0.0-144.0","31N2WW6R9SCYSNVYKK5MUXAMCCWF3Z","A31P9Z3VBQM1PB","3XT3KXP24ZKFDDMCDS43FE3AU9W6IW","","538.6000001430511","img/food5.png","75","539.2999999523163","2","1","false","2","2","1,0.5,0,1,0.5,0,0.5,0,1","0,1,0.5,0,1,0.5,1,0.5,0","3",""
"","html-keyboard-response","99","67853","0.0-145.0","31N2WW6R9SCYSNVYKK5MUXAMCCWF3Z","A31P9Z3VBQM1PB","3XT3KXP24ZKFDDMCDS43FE3AU9W6IW","","null","<img src=""img/food5.png"" style=""width:200px; border:14px solid green;"">","null","","","","","","","","","",""
"","image-keyboard-response","100","68248","0.0-147.0","31N2WW6R9SCYSNVYKK5MUXAMCCWF3Z","A31P9Z3VBQM1PB","3XT3KXP24ZKFDDMCDS43FE3AU9W6IW","","393.7999999523163","img/food4.png","75","394.5","2","1","false","3","2","1,0.5,0,1,0.5,0,0.5,0,1","0,1,0.5,0,1,0.5,1,0.5,0","3",""
"","html-keyboard-response","101","68549","0.0-148.0","31N2WW6R9SCYSNVYKK5MUXAMCCWF3Z","A31P9Z3VBQM1PB","3XT3KXP24ZKFDDMCDS43FE3AU9W6IW","","null","<img src=""img/food4.png"" style=""width:200px; border:14px solid green;"">","null","","","","","","","","","",""
"","image-keyboard-response","102","69040","0.0-150.0","31N2WW6R9SCYSNVYKK5MUXAMCCWF3Z","A31P9Z3VBQM1PB","3XT3KXP24ZKFDDMCDS43FE3AU9W6IW","","489.59999990463257","img/food4.png","75","490.2000000476837","2","1","false","3","2","1,0.5,0,1,0.5,0,0.5,0,1","0,1,0.5,0,1,0.5,1,0.5,0","3",""
"","html-keyboard-response","103","69341","0.0-151.0","31N2WW6R9SCYSNVYKK5MUXAMCCWF3Z","A31P9Z3VBQM1PB","3XT3KXP24ZKFDDMCDS43FE3AU9W6IW","","null","<img src=""img/food4.png"" style=""width:200px; border:14px solid green;"">","null","","","","","","","","","",""
"","image-keyboard-response","104","69808","0.0-153.0","31N2WW6R9SCYSNVYKK5MUXAMCCWF3Z","A31P9Z3VBQM1PB","3XT3KXP24ZKFDDMCDS43FE3AU9W6IW","","466","img/food2.png","74","466.5","1","0","false","1","2","1,0.5,0,1,0.5,0,0.5,0,1","0,1,0.5,0,1,0.5,1,0.5,0","3",""
"","html-keyboard-response","105","70109","0.0-154.0","31N2WW6R9SCYSNVYKK5MUXAMCCWF3Z","A31P9Z3VBQM1PB","3XT3KXP24ZKFDDMCDS43FE3AU9W6IW","","null","<img src=""img/food2.png"" style=""width:200px;border:14px solid red;"">","null","","","","","","","","","",""
"","image-keyboard-response","106","70512","0.0-156.0","31N2WW6R9SCYSNVYKK5MUXAMCCWF3Z","A31P9Z3VBQM1PB","3XT3KXP24ZKFDDMCDS43FE3AU9W6IW","","402.2000000476837","img/food4.png","74","402.69999980926514","1","1","false","3","2","1,0.5,0,1,0.5,0,0.5,0,1","0,1,0.5,0,1,0.5,1,0.5,0","3",""
"","html-keyboard-response","107","70814","0.0-157.0","31N2WW6R9SCYSNVYKK5MUXAMCCWF3Z","A31P9Z3VBQM1PB","3XT3KXP24ZKFDDMCDS43FE3AU9W6IW","","null","<img src=""img/food4.png"" style=""width:200px; border:14px solid green;"">","null","","","","","","","","","",""
"","image-keyboard-response","108","71184","0.0-159.0","31N2WW6R9SCYSNVYKK5MUXAMCCWF3Z","A31P9Z3VBQM1PB","3XT3KXP24ZKFDDMCDS43FE3AU9W6IW","","368.60000014305115","img/food2.png","74","369.19999980926514","1","0","false","1","2","1,0.5,0,1,0.5,0,0.5,0,1","0,1,0.5,0,1,0.5,1,0.5,0","3",""
"","html-keyboard-response","109","71485","0.0-160.0","31N2WW6R9SCYSNVYKK5MUXAMCCWF3Z","A31P9Z3VBQM1PB","3XT3KXP24ZKFDDMCDS43FE3AU9W6IW","","null","<img src=""img/food2.png"" style=""width:200px;border:14px solid red;"">","null","","","","","","","","","",""
"","image-keyboard-response","110","71960","0.0-162.0","31N2WW6R9SCYSNVYKK5MUXAMCCWF3Z","A31P9Z3VBQM1PB","3XT3KXP24ZKFDDMCDS43FE3AU9W6IW","","473.5","img/food2.png","75","474","2","1","false","1","2","1,0.5,0,1,0.5,0,0.5,0,1","0,1,0.5,0,1,0.5,1,0.5,0","3",""
"","html-keyboard-response","111","72261","0.0-163.0","31N2WW6R9SCYSNVYKK5MUXAMCCWF3Z","A31P9Z3VBQM1PB","3XT3KXP24ZKFDDMCDS43FE3AU9W6IW","","null","<img src=""img/food2.png"" style=""width:200px; border:14px solid green;"">","null","","","","","","","","","",""
"","image-keyboard-response","112","72648","0.0-165.0","31N2WW6R9SCYSNVYKK5MUXAMCCWF3Z","A31P9Z3VBQM1PB","3XT3KXP24ZKFDDMCDS43FE3AU9W6IW","","385.5","img/food5.png","75","386.09999990463257","2","1","false","2","2","1,0.5,0,1,0.5,0,0.5,0,1","0,1,0.5,0,1,0.5,1,0.5,0","3",""
"","html-keyboard-response","113","72950","0.0-166.0","31N2WW6R9SCYSNVYKK5MUXAMCCWF3Z","A31P9Z3VBQM1PB","3XT3KXP24ZKFDDMCDS43FE3AU9W6IW","","null","<img src=""img/food5.png"" style=""width:200px; border:14px solid green;"">","null","","","","","","","","","",""
"","image-keyboard-response","114","73280","0.0-168.0","31N2WW6R9SCYSNVYKK5MUXAMCCWF3Z","A31P9Z3VBQM1PB","3XT3KXP24ZKFDDMCDS43FE3AU9W6IW","","329.40000009536743","img/food4.png","75","329.89999985694885","2","1","false","3","2","1,0.5,0,1,0.5,0,0.5,0,1","0,1,0.5,0,1,0.5,1,0.5,0","3",""
"","html-keyboard-response","115","73581","0.0-169.0","31N2WW6R9SCYSNVYKK5MUXAMCCWF3Z","A31P9Z3VBQM1PB","3XT3KXP24ZKFDDMCDS43FE3AU9W6IW","","null","<img src=""img/food4.png"" style=""width:200px; border:14px solid green;"">","null","","","","","","","","","",""
"","image-keyboard-response","116","73880","0.0-171.0","31N2WW6R9SCYSNVYKK5MUXAMCCWF3Z","A31P9Z3VBQM1PB","3XT3KXP24ZKFDDMCDS43FE3AU9W6IW","","297.7000000476837","img/food2.png","74","298.2999999523163","1","0","false","1","2","1,0.5,0,1,0.5,0,0.5,0,1","0,1,0.5,0,1,0.5,1,0.5,0","3",""
"","html-keyboard-response","117","74181","0.0-172.0","31N2WW6R9SCYSNVYKK5MUXAMCCWF3Z","A31P9Z3VBQM1PB","3XT3KXP24ZKFDDMCDS43FE3AU9W6IW","","null","<img src=""img/food2.png"" style=""width:200px;border:14px solid red;"">","null","","","","","","","","","",""
"","image-keyboard-response","118","74880","0.0-174.0","31N2WW6R9SCYSNVYKK5MUXAMCCWF3Z","A31P9Z3VBQM1PB","3XT3KXP24ZKFDDMCDS43FE3AU9W6IW","","698.0999999046326","img/food4.png","74","698.7000000476837","1","1","false","3","2","1,0.5,0,1,0.5,0,0.5,0,1","0,1,0.5,0,1,0.5,1,0.5,0","3",""
"","html-keyboard-response","119","75181","0.0-175.0","31N2WW6R9SCYSNVYKK5MUXAMCCWF3Z","A31P9Z3VBQM1PB","3XT3KXP24ZKFDDMCDS43FE3AU9W6IW","","null","<img src=""img/food4.png"" style=""width:200px; border:14px solid green;"">","null","","","","","","","","","",""
"","image-keyboard-response","120","75696","0.0-177.0","31N2WW6R9SCYSNVYKK5MUXAMCCWF3Z","A31P9Z3VBQM1PB","3XT3KXP24ZKFDDMCDS43FE3AU9W6IW","","514.2000000476837","img/food2.png","75","514.7999999523163","2","1","false","1","2","1,0.5,0,1,0.5,0,0.5,0,1","0,1,0.5,0,1,0.5,1,0.5,0","3",""
"","html-keyboard-response","121","75998","0.0-178.0","31N2WW6R9SCYSNVYKK5MUXAMCCWF3Z","A31P9Z3VBQM1PB","3XT3KXP24ZKFDDMCDS43FE3AU9W6IW","","null","<img src=""img/food2.png"" style=""width:200px; border:14px solid green;"">","null","","","","","","","","","",""
"","image-keyboard-response","122","76560","0.0-180.0","31N2WW6R9SCYSNVYKK5MUXAMCCWF3Z","A31P9Z3VBQM1PB","3XT3KXP24ZKFDDMCDS43FE3AU9W6IW","","560.7000000476837","img/food2.png","75","561.2999999523163","2","1","false","1","2","1,0.5,0,1,0.5,0,0.5,0,1","0,1,0.5,0,1,0.5,1,0.5,0","3",""
"","html-keyboard-response","123","76862","0.0-181.0","31N2WW6R9SCYSNVYKK5MUXAMCCWF3Z","A31P9Z3VBQM1PB","3XT3KXP24ZKFDDMCDS43FE3AU9W6IW","","null","<img src=""img/food2.png"" style=""width:200px; border:14px solid green;"">","null","","","","","","","","","",""
"","image-keyboard-response","124","77296","0.0-183.0","31N2WW6R9SCYSNVYKK5MUXAMCCWF3Z","A31P9Z3VBQM1PB","3XT3KXP24ZKFDDMCDS43FE3AU9W6IW","","433.2999999523163","img/food2.png","75","433.7999999523163","2","1","false","1","2","1,0.5,0,1,0.5,0,0.5,0,1","0,1,0.5,0,1,0.5,1,0.5,0","3",""
"","html-keyboard-response","125","77609","0.0-184.0","31N2WW6R9SCYSNVYKK5MUXAMCCWF3Z","A31P9Z3VBQM1PB","3XT3KXP24ZKFDDMCDS43FE3AU9W6IW","","null","<img src=""img/food2.png"" style=""width:200px; border:14px solid green;"">","null","","","","","","","","","",""
"","image-keyboard-response","126","78040","0.0-186.0","31N2WW6R9SCYSNVYKK5MUXAMCCWF3Z","A31P9Z3VBQM1PB","3XT3KXP24ZKFDDMCDS43FE3AU9W6IW","","429.7999999523163","img/food2.png","75","430.40000009536743","2","1","false","1","2","1,0.5,0,1,0.5,0,0.5,0,1","0,1,0.5,0,1,0.5,1,0.5,0","3",""
"","html-keyboard-response","127","78342","0.0-187.0","31N2WW6R9SCYSNVYKK5MUXAMCCWF3Z","A31P9Z3VBQM1PB","3XT3KXP24ZKFDDMCDS43FE3AU9W6IW","","null","<img src=""img/food2.png"" style=""width:200px; border:14px solid green;"">","null","","","","","","","","","",""
"","image-keyboard-response","128","78896","0.0-189.0","31N2WW6R9SCYSNVYKK5MUXAMCCWF3Z","A31P9Z3VBQM1PB","3XT3KXP24ZKFDDMCDS43FE3AU9W6IW","","553.2000000476837","img/food4.png","74","553.7999999523163","1","1","false","3","2","1,0.5,0,1,0.5,0,0.5,0,1","0,1,0.5,0,1,0.5,1,0.5,0","3",""
"","html-keyboard-response","129","79199","0.0-190.0","31N2WW6R9SCYSNVYKK5MUXAMCCWF3Z","A31P9Z3VBQM1PB","3XT3KXP24ZKFDDMCDS43FE3AU9W6IW","","null","<img src=""img/food4.png"" style=""width:200px; border:14px solid green;"">","null","","","","","","","","","",""
"","image-keyboard-response","130","79832","0.0-192.0","31N2WW6R9SCYSNVYKK5MUXAMCCWF3Z","A31P9Z3VBQM1PB","3XT3KXP24ZKFDDMCDS43FE3AU9W6IW","","631.9000000953674","img/food5.png","75","632.6000001430511","2","1","false","2","2","1,0.5,0,1,0.5,0,0.5,0,1","0,1,0.5,0,1,0.5,1,0.5,0","3",""
"","html-keyboard-response","131","80146","0.0-193.0","31N2WW6R9SCYSNVYKK5MUXAMCCWF3Z","A31P9Z3VBQM1PB","3XT3KXP24ZKFDDMCDS43FE3AU9W6IW","","null","<img src=""img/food5.png"" style=""width:200px; border:14px solid green;"">","null","","","","","","","","","",""
"","image-keyboard-response","132","80568","0.0-195.0","31N2WW6R9SCYSNVYKK5MUXAMCCWF3Z","A31P9Z3VBQM1PB","3XT3KXP24ZKFDDMCDS43FE3AU9W6IW","","421","img/food2.png","75","421.39999985694885","2","1","false","1","2","1,0.5,0,1,0.5,0,0.5,0,1","0,1,0.5,0,1,0.5,1,0.5,0","3",""
"","html-keyboard-response","133","80870","0.0-196.0","31N2WW6R9SCYSNVYKK5MUXAMCCWF3Z","A31P9Z3VBQM1PB","3XT3KXP24ZKFDDMCDS43FE3AU9W6IW","","null","<img src=""img/food2.png"" style=""width:200px; border:14px solid green;"">","null","","","","","","","","","",""
"","image-keyboard-response","134","81448","0.0-198.0","31N2WW6R9SCYSNVYKK5MUXAMCCWF3Z","A31P9Z3VBQM1PB","3XT3KXP24ZKFDDMCDS43FE3AU9W6IW","","577.5","img/food4.png","74","578.0999999046326","1","1","false","3","2","1,0.5,0,1,0.5,0,0.5,0,1","0,1,0.5,0,1,0.5,1,0.5,0","3",""
"","html-keyboard-response","135","81751","0.0-199.0","31N2WW6R9SCYSNVYKK5MUXAMCCWF3Z","A31P9Z3VBQM1PB","3XT3KXP24ZKFDDMCDS43FE3AU9W6IW","","null","<img src=""img/food4.png"" style=""width:200px; border:14px solid green;"">","null","","","","","","","","","",""
"","image-keyboard-response","136","82320","0.0-201.0","31N2WW6R9SCYSNVYKK5MUXAMCCWF3Z","A31P9Z3VBQM1PB","3XT3KXP24ZKFDDMCDS43FE3AU9W6IW","","568.0999999046326","img/food5.png","75","568.6000001430511","2","1","false","2","2","1,0.5,0,1,0.5,0,0.5,0,1","0,1,0.5,0,1,0.5,1,0.5,0","3",""
"","html-keyboard-response","137","82622","0.0-202.0","31N2WW6R9SCYSNVYKK5MUXAMCCWF3Z","A31P9Z3VBQM1PB","3XT3KXP24ZKFDDMCDS43FE3AU9W6IW","","null","<img src=""img/food5.png"" style=""width:200px; border:14px solid green;"">","null","","","","","","","","","",""
"","image-keyboard-response","138","83024","0.0-204.0","31N2WW6R9SCYSNVYKK5MUXAMCCWF3Z","A31P9Z3VBQM1PB","3XT3KXP24ZKFDDMCDS43FE3AU9W6IW","","401.5","img/food4.png","75","402","2","1","false","3","2","1,0.5,0,1,0.5,0,0.5,0,1","0,1,0.5,0,1,0.5,1,0.5,0","3",""
"","html-keyboard-response","139","83326","0.0-205.0","31N2WW6R9SCYSNVYKK5MUXAMCCWF3Z","A31P9Z3VBQM1PB","3XT3KXP24ZKFDDMCDS43FE3AU9W6IW","","null","<img src=""img/food4.png"" style=""width:200px; border:14px solid green;"">","null","","","","","","","","","",""
"","image-keyboard-response","140","83640","0.0-207.0","31N2WW6R9SCYSNVYKK5MUXAMCCWF3Z","A31P9Z3VBQM1PB","3XT3KXP24ZKFDDMCDS43FE3AU9W6IW","","313.7999999523163","img/food4.png","74","314.40000009536743","1","1","false","3","2","1,0.5,0,1,0.5,0,0.5,0,1","0,1,0.5,0,1,0.5,1,0.5,0","3",""
"","html-keyboard-response","141","83941","0.0-208.0","31N2WW6R9SCYSNVYKK5MUXAMCCWF3Z","A31P9Z3VBQM1PB","3XT3KXP24ZKFDDMCDS43FE3AU9W6IW","","null","<img src=""img/food4.png"" style=""width:200px; border:14px solid green;"">","null","","","","","","","","","",""
"","image-keyboard-response","142","84208","0.0-210.0","31N2WW6R9SCYSNVYKK5MUXAMCCWF3Z","A31P9Z3VBQM1PB","3XT3KXP24ZKFDDMCDS43FE3AU9W6IW","","265.7999999523163","img/food4.png","74","266.19999980926514","1","1","false","3","2","1,0.5,0,1,0.5,0,0.5,0,1","0,1,0.5,0,1,0.5,1,0.5,0","3",""
"","html-keyboard-response","143","84509","0.0-211.0","31N2WW6R9SCYSNVYKK5MUXAMCCWF3Z","A31P9Z3VBQM1PB","3XT3KXP24ZKFDDMCDS43FE3AU9W6IW","","null","<img src=""img/food4.png"" style=""width:200px; border:14px solid green;"">","null","","","","","","","","","",""
"","image-keyboard-response","144","84848","0.0-213.0","31N2WW6R9SCYSNVYKK5MUXAMCCWF3Z","A31P9Z3VBQM1PB","3XT3KXP24ZKFDDMCDS43FE3AU9W6IW","","338.40000009536743","img/food4.png","74","338.90000009536743","1","1","false","3","2","1,0.5,0,1,0.5,0,0.5,0,1","0,1,0.5,0,1,0.5,1,0.5,0","3",""
"","html-keyboard-response","145","85150","0.0-214.0","31N2WW6R9SCYSNVYKK5MUXAMCCWF3Z","A31P9Z3VBQM1PB","3XT3KXP24ZKFDDMCDS43FE3AU9W6IW","","null","<img src=""img/food4.png"" style=""width:200px; border:14px solid green;"">","null","","","","","","","","","",""
"","image-keyboard-response","146","85792","0.0-216.0","31N2WW6R9SCYSNVYKK5MUXAMCCWF3Z","A31P9Z3VBQM1PB","3XT3KXP24ZKFDDMCDS43FE3AU9W6IW","","641.5","img/food2.png","75","642","2","1","false","1","2","1,0.5,0,1,0.5,0,0.5,0,1","0,1,0.5,0,1,0.5,1,0.5,0","3",""
"","html-keyboard-response","147","86094","0.0-217.0","31N2WW6R9SCYSNVYKK5MUXAMCCWF3Z","A31P9Z3VBQM1PB","3XT3KXP24ZKFDDMCDS43FE3AU9W6IW","","null","<img src=""img/food2.png"" style=""width:200px; border:14px solid green;"">","null","","","","","","","","","",""
"","image-keyboard-response","148","86440","0.0-219.0","31N2WW6R9SCYSNVYKK5MUXAMCCWF3Z","A31P9Z3VBQM1PB","3XT3KXP24ZKFDDMCDS43FE3AU9W6IW","","345.5","img/food5.png","75","346","2","1","false","2","2","1,0.5,0,1,0.5,0,0.5,0,1","0,1,0.5,0,1,0.5,1,0.5,0","3",""
"","html-keyboard-response","149","86753","0.0-220.0","31N2WW6R9SCYSNVYKK5MUXAMCCWF3Z","A31P9Z3VBQM1PB","3XT3KXP24ZKFDDMCDS43FE3AU9W6IW","","null","<img src=""img/food5.png"" style=""width:200px; border:14px solid green;"">","null","","","","","","","","","",""
"","image-keyboard-response","150","87144","0.0-222.0","31N2WW6R9SCYSNVYKK5MUXAMCCWF3Z","A31P9Z3VBQM1PB","3XT3KXP24ZKFDDMCDS43FE3AU9W6IW","","390","img/food4.png","75","390.5","2","0","false","3","2","1,0.5,0,1,0.5,0,0.5,0,1","0,1,0.5,0,1,0.5,1,0.5,0","3",""
"","html-keyboard-response","151","87445","0.0-223.0","31N2WW6R9SCYSNVYKK5MUXAMCCWF3Z","A31P9Z3VBQM1PB","3XT3KXP24ZKFDDMCDS43FE3AU9W6IW","","null","<img src=""img/food4.png"" style=""width:200px;border:14px solid red;"">","null","","","","","","","","","",""
"","image-keyboard-response","152","87640","0.0-225.0","31N2WW6R9SCYSNVYKK5MUXAMCCWF3Z","A31P9Z3VBQM1PB","3XT3KXP24ZKFDDMCDS43FE3AU9W6IW","","193.80000019073486","img/food5.png","74","194.40000009536743","1","0","false","2","2","1,0.5,0,1,0.5,0,0.5,0,1","0,1,0.5,0,1,0.5,1,0.5,0","3",""
"","html-keyboard-response","153","87941","0.0-226.0","31N2WW6R9SCYSNVYKK5MUXAMCCWF3Z","A31P9Z3VBQM1PB","3XT3KXP24ZKFDDMCDS43FE3AU9W6IW","","null","<img src=""img/food5.png"" style=""width:200px;border:14px solid red;"">","null","","","","","","","","","",""
"","image-keyboard-response","154","88296","0.0-228.0","31N2WW6R9SCYSNVYKK5MUXAMCCWF3Z","A31P9Z3VBQM1PB","3XT3KXP24ZKFDDMCDS43FE3AU9W6IW","","353.90000009536743","img/food2.png","75","354.5","2","1","false","1","2","1,0.5,0,1,0.5,0,0.5,0,1","0,1,0.5,0,1,0.5,1,0.5,0","3",""
"","html-keyboard-response","155","88598","0.0-229.0","31N2WW6R9SCYSNVYKK5MUXAMCCWF3Z","A31P9Z3VBQM1PB","3XT3KXP24ZKFDDMCDS43FE3AU9W6IW","","null","<img src=""img/food2.png"" style=""width:200px; border:14px solid green;"">","null","","","","","","","","","",""
"","image-keyboard-response","156","88832","0.0-231.0","31N2WW6R9SCYSNVYKK5MUXAMCCWF3Z","A31P9Z3VBQM1PB","3XT3KXP24ZKFDDMCDS43FE3AU9W6IW","","232.90000009536743","img/food5.png","75","233.5","2","1","false","2","2","1,0.5,0,1,0.5,0,0.5,0,1","0,1,0.5,0,1,0.5,1,0.5,0","3",""
"","html-keyboard-response","157","89134","0.0-232.0","31N2WW6R9SCYSNVYKK5MUXAMCCWF3Z","A31P9Z3VBQM1PB","3XT3KXP24ZKFDDMCDS43FE3AU9W6IW","","null","<img src=""img/food5.png"" style=""width:200px; border:14px solid green;"">","null","","","","","","","","","",""
"","image-keyboard-response","158","89488","0.0-234.0","31N2WW6R9SCYSNVYKK5MUXAMCCWF3Z","A31P9Z3VBQM1PB","3XT3KXP24ZKFDDMCDS43FE3AU9W6IW","","353.5","img/food5.png","75","353.89999985694885","2","1","false","2","2","1,0.5,0,1,0.5,0,0.5,0,1","0,1,0.5,0,1,0.5,1,0.5,0","3",""
"","html-keyboard-response","159","89790","0.0-235.0","31N2WW6R9SCYSNVYKK5MUXAMCCWF3Z","A31P9Z3VBQM1PB","3XT3KXP24ZKFDDMCDS43FE3AU9W6IW","","null","<img src=""img/food5.png"" style=""width:200px; border:14px solid green;"">","null","","","","","","","","","",""
"","image-keyboard-response","160","90128","0.0-237.0","31N2WW6R9SCYSNVYKK5MUXAMCCWF3Z","A31P9Z3VBQM1PB","3XT3KXP24ZKFDDMCDS43FE3AU9W6IW","","337.40000009536743","img/food4.png","75","337.90000009536743","2","1","false","3","2","1,0.5,0,1,0.5,0,0.5,0,1","0,1,0.5,0,1,0.5,1,0.5,0","3",""
"","html-keyboard-response","161","90430","0.0-238.0","31N2WW6R9SCYSNVYKK5MUXAMCCWF3Z","A31P9Z3VBQM1PB","3XT3KXP24ZKFDDMCDS43FE3AU9W6IW","","null","<img src=""img/food4.png"" style=""width:200px; border:14px solid green;"">","null","","","","","","","","","",""
"","image-keyboard-response","162","90600","0.0-240.0","31N2WW6R9SCYSNVYKK5MUXAMCCWF3Z","A31P9Z3VBQM1PB","3XT3KXP24ZKFDDMCDS43FE3AU9W6IW","","169.20000004768372","img/food2.png","74","169.79999995231628","1","0","false","1","2","1,0.5,0,1,0.5,0,0.5,0,1","0,1,0.5,0,1,0.5,1,0.5,0","3",""
"","html-keyboard-response","163","90902","0.0-241.0","31N2WW6R9SCYSNVYKK5MUXAMCCWF3Z","A31P9Z3VBQM1PB","3XT3KXP24ZKFDDMCDS43FE3AU9W6IW","","null","<img src=""img/food2.png"" style=""width:200px;border:14px solid red;"">","null","","","","","","","","","",""
"","image-keyboard-response","164","91088","0.0-243.0","31N2WW6R9SCYSNVYKK5MUXAMCCWF3Z","A31P9Z3VBQM1PB","3XT3KXP24ZKFDDMCDS43FE3AU9W6IW","","185.09999990463257","img/food5.png","75","185.70000004768372","2","1","false","2","2","1,0.5,0,1,0.5,0,0.5,0,1","0,1,0.5,0,1,0.5,1,0.5,0","3",""
"","html-keyboard-response","165","91389","0.0-244.0","31N2WW6R9SCYSNVYKK5MUXAMCCWF3Z","A31P9Z3VBQM1PB","3XT3KXP24ZKFDDMCDS43FE3AU9W6IW","","null","<img src=""img/food5.png"" style=""width:200px; border:14px solid green;"">","null","","","","","","","","","",""
"","image-keyboard-response","166","91536","0.0-246.0","31N2WW6R9SCYSNVYKK5MUXAMCCWF3Z","A31P9Z3VBQM1PB","3XT3KXP24ZKFDDMCDS43FE3AU9W6IW","","145.90000009536743","img/food4.png","75","146.40000009536743","2","0","false","3","2","1,0.5,0,1,0.5,0,0.5,0,1","0,1,0.5,0,1,0.5,1,0.5,0","3",""
"","html-keyboard-response","167","91837","0.0-247.0","31N2WW6R9SCYSNVYKK5MUXAMCCWF3Z","A31P9Z3VBQM1PB","3XT3KXP24ZKFDDMCDS43FE3AU9W6IW","","null","<img src=""img/food4.png"" style=""width:200px;border:14px solid red;"">","null","","","","","","","","","",""
"","image-keyboard-response","168","91920","0.0-249.0","31N2WW6R9SCYSNVYKK5MUXAMCCWF3Z","A31P9Z3VBQM1PB","3XT3KXP24ZKFDDMCDS43FE3AU9W6IW","","81.70000004768372","img/food4.png","75","82.19999980926514","2","0","false","3","2","1,0.5,0,1,0.5,0,0.5,0,1","0,1,0.5,0,1,0.5,1,0.5,0","3",""
"","html-keyboard-response","169","92221","0.0-250.0","31N2WW6R9SCYSNVYKK5MUXAMCCWF3Z","A31P9Z3VBQM1PB","3XT3KXP24ZKFDDMCDS43FE3AU9W6IW","","null","<img src=""img/food4.png"" style=""width:200px;border:14px solid red;"">","null","","","","","","","","","",""
"","image-keyboard-response","170","92440","0.0-252.0","31N2WW6R9SCYSNVYKK5MUXAMCCWF3Z","A31P9Z3VBQM1PB","3XT3KXP24ZKFDDMCDS43FE3AU9W6IW","","217.90000009536743","img/food5.png","74","218.5","1","0","false","2","2","1,0.5,0,1,0.5,0,0.5,0,1","0,1,0.5,0,1,0.5,1,0.5,0","3",""
"","html-keyboard-response","171","92742","0.0-253.0","31N2WW6R9SCYSNVYKK5MUXAMCCWF3Z","A31P9Z3VBQM1PB","3XT3KXP24ZKFDDMCDS43FE3AU9W6IW","","null","<img src=""img/food5.png"" style=""width:200px;border:14px solid red;"">","null","","","","","","","","","",""
"","image-keyboard-response","172","92920","0.0-255.0","31N2WW6R9SCYSNVYKK5MUXAMCCWF3Z","A31P9Z3VBQM1PB","3XT3KXP24ZKFDDMCDS43FE3AU9W6IW","","177.29999995231628","img/food2.png","74","177.90000009536743","1","0","false","1","2","1,0.5,0,1,0.5,0,0.5,0,1","0,1,0.5,0,1,0.5,1,0.5,0","3",""
"","html-keyboard-response","173","93232","0.0-256.0","31N2WW6R9SCYSNVYKK5MUXAMCCWF3Z","A31P9Z3VBQM1PB","3XT3KXP24ZKFDDMCDS43FE3AU9W6IW","","null","<img src=""img/food2.png"" style=""width:200px;border:14px solid red;"">","null","","","","","","","","","",""
"","image-keyboard-response","174","93752","0.0-258.0","31N2WW6R9SCYSNVYKK5MUXAMCCWF3Z","A31P9Z3VBQM1PB","3XT3KXP24ZKFDDMCDS43FE3AU9W6IW","","519.1000001430511","img/food2.png","75","519.6999998092651","2","1","false","1","2","1,0.5,0,1,0.5,0,0.5,0,1","0,1,0.5,0,1,0.5,1,0.5,0","3",""
"","html-keyboard-response","175","94054","0.0-259.0","31N2WW6R9SCYSNVYKK5MUXAMCCWF3Z","A31P9Z3VBQM1PB","3XT3KXP24ZKFDDMCDS43FE3AU9W6IW","","null","<img src=""img/food2.png"" style=""width:200px; border:14px solid green;"">","null","","","","","","","","","",""
"","image-keyboard-response","176","94096","0.0-261.0","31N2WW6R9SCYSNVYKK5MUXAMCCWF3Z","A31P9Z3VBQM1PB","3XT3KXP24ZKFDDMCDS43FE3AU9W6IW","","41.5","img/food2.png","75","42.200000047683716","2","1","false","1","2","1,0.5,0,1,0.5,0,0.5,0,1","0,1,0.5,0,1,0.5,1,0.5,0","3",""
"","html-keyboard-response","177","94398","0.0-262.0","31N2WW6R9SCYSNVYKK5MUXAMCCWF3Z","A31P9Z3VBQM1PB","3XT3KXP24ZKFDDMCDS43FE3AU9W6IW","","null","<img src=""img/food2.png"" style=""width:200px; border:14px solid green;"">","null","","","","","","","","","",""
"","image-keyboard-response","178","94544","0.0-264.0","31N2WW6R9SCYSNVYKK5MUXAMCCWF3Z","A31P9Z3VBQM1PB","3XT3KXP24ZKFDDMCDS43FE3AU9W6IW","","145.20000004768372","img/food2.png","75","145.79999995231628","2","1","false","1","2","1,0.5,0,1,0.5,0,0.5,0,1","0,1,0.5,0,1,0.5,1,0.5,0","3",""
"","html-keyboard-response","179","94845","0.0-265.0","31N2WW6R9SCYSNVYKK5MUXAMCCWF3Z","A31P9Z3VBQM1PB","3XT3KXP24ZKFDDMCDS43FE3AU9W6IW","","null","<img src=""img/food2.png"" style=""width:200px; border:14px solid green;"">","null","","","","","","","","","",""
"","image-keyboard-response","180","94976","0.0-267.0","31N2WW6R9SCYSNVYKK5MUXAMCCWF3Z","A31P9Z3VBQM1PB","3XT3KXP24ZKFDDMCDS43FE3AU9W6IW","","130.59999990463257","img/food2.png","75","131.09999990463257","2","1","false","1","2","1,0.5,0,1,0.5,0,0.5,0,1","0,1,0.5,0,1,0.5,1,0.5,0","3",""
"","html-keyboard-response","181","95277","0.0-268.0","31N2WW6R9SCYSNVYKK5MUXAMCCWF3Z","A31P9Z3VBQM1PB","3XT3KXP24ZKFDDMCDS43FE3AU9W6IW","","null","<img src=""img/food2.png"" style=""width:200px; border:14px solid green;"">","null","","","","","","","","","",""
"","image-keyboard-response","182","95400","0.0-270.0","31N2WW6R9SCYSNVYKK5MUXAMCCWF3Z","A31P9Z3VBQM1PB","3XT3KXP24ZKFDDMCDS43FE3AU9W6IW","","122","img/food4.png","75","122.60000014305115","2","1","false","3","2","1,0.5,0,1,0.5,0,0.5,0,1","0,1,0.5,0,1,0.5,1,0.5,0","3",""
"","html-keyboard-response","183","95702","0.0-271.0","31N2WW6R9SCYSNVYKK5MUXAMCCWF3Z","A31P9Z3VBQM1PB","3XT3KXP24ZKFDDMCDS43FE3AU9W6IW","","null","<img src=""img/food4.png"" style=""width:200px; border:14px solid green;"">","null","","","","","","","","","",""
"","instructions","184","100240","0.0-273.0","31N2WW6R9SCYSNVYKK5MUXAMCCWF3Z","A31P9Z3VBQM1PB","3XT3KXP24ZKFDDMCDS43FE3AU9W6IW","[{""page_index"":0,""viewing_time"":2673.600000143051},{""page_index"":1,""viewing_time"":1863.7000000476837}]","4537.400000095367","","","","","","","","","","","",""
"","image-keyboard-response","185","103040","0.0-274.0","31N2WW6R9SCYSNVYKK5MUXAMCCWF3Z","A31P9Z3VBQM1PB","3XT3KXP24ZKFDDMCDS43FE3AU9W6IW","","2799.2999999523163","img/food1.png","74","2800","1","0","","1","1","1,0.5,0,1,0.5,0,0.5,0,1","0,1,0.5,0,1,0.5,1,0.5,0","3",""
"","html-keyboard-response","186","103341","0.0-275.0","31N2WW6R9SCYSNVYKK5MUXAMCCWF3Z","A31P9Z3VBQM1PB","3XT3KXP24ZKFDDMCDS43FE3AU9W6IW","","null","<img src=""img/food1.png"" style=""width:200px;border:14px solid red;"">","null","","","","","","","","","",""
"","image-keyboard-response","187","104000","0.0-276.0","31N2WW6R9SCYSNVYKK5MUXAMCCWF3Z","A31P9Z3VBQM1PB","3XT3KXP24ZKFDDMCDS43FE3AU9W6IW","","658","img/food6.png","75","658.6000001430511","2","1","","3","1","1,0.5,0,1,0.5,0,0.5,0,1","0,1,0.5,0,1,0.5,1,0.5,0","3",""
"","html-keyboard-response","188","104302","0.0-277.0","31N2WW6R9SCYSNVYKK5MUXAMCCWF3Z","A31P9Z3VBQM1PB","3XT3KXP24ZKFDDMCDS43FE3AU9W6IW","","null","<img src=""img/food6.png"" style=""width:200px; border:14px solid green;"">","null","","","","","","","","","",""
"","image-keyboard-response","189","105072","0.0-278.0","31N2WW6R9SCYSNVYKK5MUXAMCCWF3Z","A31P9Z3VBQM1PB","3XT3KXP24ZKFDDMCDS43FE3AU9W6IW","","769.7999999523163","img/food1.png","74","770.2999999523163","1","0","","1","1","1,0.5,0,1,0.5,0,0.5,0,1","0,1,0.5,0,1,0.5,1,0.5,0","3",""
"","html-keyboard-response","190","105373","0.0-279.0","31N2WW6R9SCYSNVYKK5MUXAMCCWF3Z","A31P9Z3VBQM1PB","3XT3KXP24ZKFDDMCDS43FE3AU9W6IW","","null","<img src=""img/food1.png"" style=""width:200px;border:14px solid red;"">","null","","","","","","","","","",""
"","image-keyboard-response","191","105912","0.0-280.0","31N2WW6R9SCYSNVYKK5MUXAMCCWF3Z","A31P9Z3VBQM1PB","3XT3KXP24ZKFDDMCDS43FE3AU9W6IW","","538.4000000953674","img/food3.png","75","539.0999999046326","2","1","","2","1","1,0.5,0,1,0.5,0,0.5,0,1","0,1,0.5,0,1,0.5,1,0.5,0","3",""
"","html-keyboard-response","192","106226","0.0-281.0","31N2WW6R9SCYSNVYKK5MUXAMCCWF3Z","A31P9Z3VBQM1PB","3XT3KXP24ZKFDDMCDS43FE3AU9W6IW","","null","<img src=""img/food3.png"" style=""width:200px; border:14px solid green;"">","null","","","","","","","","","",""
"","image-keyboard-response","193","106624","0.0-282.0","31N2WW6R9SCYSNVYKK5MUXAMCCWF3Z","A31P9Z3VBQM1PB","3XT3KXP24ZKFDDMCDS43FE3AU9W6IW","","397.59999990463257","img/food3.png","75","398.09999990463257","2","1","","2","1","1,0.5,0,1,0.5,0,0.5,0,1","0,1,0.5,0,1,0.5,1,0.5,0","3",""
"","html-keyboard-response","194","106925","0.0-283.0","31N2WW6R9SCYSNVYKK5MUXAMCCWF3Z","A31P9Z3VBQM1PB","3XT3KXP24ZKFDDMCDS43FE3AU9W6IW","","null","<img src=""img/food3.png"" style=""width:200px; border:14px solid green;"">","null","","","","","","","","","",""
"","image-keyboard-response","195","107432","0.0-284.0","31N2WW6R9SCYSNVYKK5MUXAMCCWF3Z","A31P9Z3VBQM1PB","3XT3KXP24ZKFDDMCDS43FE3AU9W6IW","","505.7999999523163","img/food6.png","75","506.40000009536743","2","1","","3","1","1,0.5,0,1,0.5,0,0.5,0,1","0,1,0.5,0,1,0.5,1,0.5,0","3",""
"","html-keyboard-response","196","107734","0.0-285.0","31N2WW6R9SCYSNVYKK5MUXAMCCWF3Z","A31P9Z3VBQM1PB","3XT3KXP24ZKFDDMCDS43FE3AU9W6IW","","null","<img src=""img/food6.png"" style=""width:200px; border:14px solid green;"">","null","","","","","","","","","",""
"","image-keyboard-response","197","108232","0.0-286.0","31N2WW6R9SCYSNVYKK5MUXAMCCWF3Z","A31P9Z3VBQM1PB","3XT3KXP24ZKFDDMCDS43FE3AU9W6IW","","497.2999999523163","img/food1.png","75","497.7999999523163","2","1","","1","1","1,0.5,0,1,0.5,0,0.5,0,1","0,1,0.5,0,1,0.5,1,0.5,0","3",""
"","html-keyboard-response","198","108533","0.0-287.0","31N2WW6R9SCYSNVYKK5MUXAMCCWF3Z","A31P9Z3VBQM1PB","3XT3KXP24ZKFDDMCDS43FE3AU9W6IW","","null","<img src=""img/food1.png"" style=""width:200px; border:14px solid green;"">","null","","","","","","","","","",""
"","image-keyboard-response","199","108840","0.0-288.0","31N2WW6R9SCYSNVYKK5MUXAMCCWF3Z","A31P9Z3VBQM1PB","3XT3KXP24ZKFDDMCDS43FE3AU9W6IW","","305.7999999523163","img/food1.png","75","306.5","2","1","","1","1","1,0.5,0,1,0.5,0,0.5,0,1","0,1,0.5,0,1,0.5,1,0.5,0","3",""
"","html-keyboard-response","200","109142","0.0-289.0","31N2WW6R9SCYSNVYKK5MUXAMCCWF3Z","A31P9Z3VBQM1PB","3XT3KXP24ZKFDDMCDS43FE3AU9W6IW","","null","<img src=""img/food1.png"" style=""width:200px; border:14px solid green;"">","null","","","","","","","","","",""
"","image-keyboard-response","201","109464","0.0-290.0","31N2WW6R9SCYSNVYKK5MUXAMCCWF3Z","A31P9Z3VBQM1PB","3XT3KXP24ZKFDDMCDS43FE3AU9W6IW","","321","img/food3.png","75","321.5","2","1","","2","1","1,0.5,0,1,0.5,0,0.5,0,1","0,1,0.5,0,1,0.5,1,0.5,0","3",""
"","html-keyboard-response","202","109766","0.0-291.0","31N2WW6R9SCYSNVYKK5MUXAMCCWF3Z","A31P9Z3VBQM1PB","3XT3KXP24ZKFDDMCDS43FE3AU9W6IW","","null","<img src=""img/food3.png"" style=""width:200px; border:14px solid green;"">","null","","","","","","","","","",""
"","image-keyboard-response","203","110208","0.0-292.0","31N2WW6R9SCYSNVYKK5MUXAMCCWF3Z","A31P9Z3VBQM1PB","3XT3KXP24ZKFDDMCDS43FE3AU9W6IW","","441.5","img/food1.png","75","442.09999990463257","2","1","","1","1","1,0.5,0,1,0.5,0,0.5,0,1","0,1,0.5,0,1,0.5,1,0.5,0","3",""
"","html-keyboard-response","204","110510","0.0-293.0","31N2WW6R9SCYSNVYKK5MUXAMCCWF3Z","A31P9Z3VBQM1PB","3XT3KXP24ZKFDDMCDS43FE3AU9W6IW","","null","<img src=""img/food1.png"" style=""width:200px; border:14px solid green;"">","null","","","","","","","","","",""
"","image-keyboard-response","205","110848","0.0-294.0","31N2WW6R9SCYSNVYKK5MUXAMCCWF3Z","A31P9Z3VBQM1PB","3XT3KXP24ZKFDDMCDS43FE3AU9W6IW","","337.69999980926514","img/food3.png","75","338.2000000476837","2","1","","2","1","1,0.5,0,1,0.5,0,0.5,0,1","0,1,0.5,0,1,0.5,1,0.5,0","3",""
"","html-keyboard-response","206","111149","0.0-295.0","31N2WW6R9SCYSNVYKK5MUXAMCCWF3Z","A31P9Z3VBQM1PB","3XT3KXP24ZKFDDMCDS43FE3AU9W6IW","","null","<img src=""img/food3.png"" style=""width:200px; border:14px solid green;"">","null","","","","","","","","","",""
"","image-keyboard-response","207","111424","0.0-296.0","31N2WW6R9SCYSNVYKK5MUXAMCCWF3Z","A31P9Z3VBQM1PB","3XT3KXP24ZKFDDMCDS43FE3AU9W6IW","","274.2999999523163","img/food1.png","75","274.89999985694885","2","1","","1","1","1,0.5,0,1,0.5,0,0.5,0,1","0,1,0.5,0,1,0.5,1,0.5,0","3",""
"","html-keyboard-response","208","111726","0.0-297.0","31N2WW6R9SCYSNVYKK5MUXAMCCWF3Z","A31P9Z3VBQM1PB","3XT3KXP24ZKFDDMCDS43FE3AU9W6IW","","null","<img src=""img/food1.png"" style=""width:200px; border:14px solid green;"">","null","","","","","","","","","",""
"","image-keyboard-response","209","111976","0.0-298.0","31N2WW6R9SCYSNVYKK5MUXAMCCWF3Z","A31P9Z3VBQM1PB","3XT3KXP24ZKFDDMCDS43FE3AU9W6IW","","249.70000004768372","img/food3.png","75","250.29999995231628","2","1","","2","1","1,0.5,0,1,0.5,0,0.5,0,1","0,1,0.5,0,1,0.5,1,0.5,0","3",""
"","html-keyboard-response","210","112278","0.0-299.0","31N2WW6R9SCYSNVYKK5MUXAMCCWF3Z","A31P9Z3VBQM1PB","3XT3KXP24ZKFDDMCDS43FE3AU9W6IW","","null","<img src=""img/food3.png"" style=""width:200px; border:14px solid green;"">","null","","","","","","","","","",""
"","image-keyboard-response","211","112560","0.0-300.0","31N2WW6R9SCYSNVYKK5MUXAMCCWF3Z","A31P9Z3VBQM1PB","3XT3KXP24ZKFDDMCDS43FE3AU9W6IW","","281.7999999523163","img/food1.png","75","282.2999999523163","2","1","","1","1","1,0.5,0,1,0.5,0,0.5,0,1","0,1,0.5,0,1,0.5,1,0.5,0","3",""
"","html-keyboard-response","212","112861","0.0-301.0","31N2WW6R9SCYSNVYKK5MUXAMCCWF3Z","A31P9Z3VBQM1PB","3XT3KXP24ZKFDDMCDS43FE3AU9W6IW","","null","<img src=""img/food1.png"" style=""width:200px; border:14px solid green;"">","null","","","","","","","","","",""
"","image-keyboard-response","213","113144","0.0-302.0","31N2WW6R9SCYSNVYKK5MUXAMCCWF3Z","A31P9Z3VBQM1PB","3XT3KXP24ZKFDDMCDS43FE3AU9W6IW","","282.2999999523163","img/food1.png","75","283","2","1","","1","1","1,0.5,0,1,0.5,0,0.5,0,1","0,1,0.5,0,1,0.5,1,0.5,0","3",""
"","html-keyboard-response","214","113445","0.0-303.0","31N2WW6R9SCYSNVYKK5MUXAMCCWF3Z","A31P9Z3VBQM1PB","3XT3KXP24ZKFDDMCDS43FE3AU9W6IW","","null","<img src=""img/food1.png"" style=""width:200px; border:14px solid green;"">","null","","","","","","","","","",""
"","image-keyboard-response","215","113584","0.0-304.0","31N2WW6R9SCYSNVYKK5MUXAMCCWF3Z","A31P9Z3VBQM1PB","3XT3KXP24ZKFDDMCDS43FE3AU9W6IW","","138.19999980926514","img/food3.png","75","138.79999995231628","2","1","","2","1","1,0.5,0,1,0.5,0,0.5,0,1","0,1,0.5,0,1,0.5,1,0.5,0","3",""
"","html-keyboard-response","216","113886","0.0-305.0","31N2WW6R9SCYSNVYKK5MUXAMCCWF3Z","A31P9Z3VBQM1PB","3XT3KXP24ZKFDDMCDS43FE3AU9W6IW","","null","<img src=""img/food3.png"" style=""width:200px; border:14px solid green;"">","null","","","","","","","","","",""
"","image-keyboard-response","217","114152","0.0-306.0","31N2WW6R9SCYSNVYKK5MUXAMCCWF3Z","A31P9Z3VBQM1PB","3XT3KXP24ZKFDDMCDS43FE3AU9W6IW","","265.2999999523163","img/food1.png","75","266","2","1","","1","1","1,0.5,0,1,0.5,0,0.5,0,1","0,1,0.5,0,1,0.5,1,0.5,0","3",""
"","html-keyboard-response","218","114454","0.0-307.0","31N2WW6R9SCYSNVYKK5MUXAMCCWF3Z","A31P9Z3VBQM1PB","3XT3KXP24ZKFDDMCDS43FE3AU9W6IW","","null","<img src=""img/food1.png"" style=""width:200px; border:14px solid green;"">","null","","","","","","","","","",""
"","image-keyboard-response","219","114624","0.0-308.0","31N2WW6R9SCYSNVYKK5MUXAMCCWF3Z","A31P9Z3VBQM1PB","3XT3KXP24ZKFDDMCDS43FE3AU9W6IW","","169.79999995231628","img/food3.png","75","170.29999995231628","2","1","","2","1","1,0.5,0,1,0.5,0,0.5,0,1","0,1,0.5,0,1,0.5,1,0.5,0","3",""
"","html-keyboard-response","220","114926","0.0-309.0","31N2WW6R9SCYSNVYKK5MUXAMCCWF3Z","A31P9Z3VBQM1PB","3XT3KXP24ZKFDDMCDS43FE3AU9W6IW","","null","<img src=""img/food3.png"" style=""width:200px; border:14px solid green;"">","null","","","","","","","","","",""
"","image-keyboard-response","221","115192","0.0-310.0","31N2WW6R9SCYSNVYKK5MUXAMCCWF3Z","A31P9Z3VBQM1PB","3XT3KXP24ZKFDDMCDS43FE3AU9W6IW","","265.59999990463257","img/food3.png","75","266.2000000476837","2","1","","2","1","1,0.5,0,1,0.5,0,0.5,0,1","0,1,0.5,0,1,0.5,1,0.5,0","3",""
"","html-keyboard-response","222","115493","0.0-311.0","31N2WW6R9SCYSNVYKK5MUXAMCCWF3Z","A31P9Z3VBQM1PB","3XT3KXP24ZKFDDMCDS43FE3AU9W6IW","","null","<img src=""img/food3.png"" style=""width:200px; border:14px solid green;"">","null","","","","","","","","","",""
"","image-keyboard-response","223","115728","0.0-312.0","31N2WW6R9SCYSNVYKK5MUXAMCCWF3Z","A31P9Z3VBQM1PB","3XT3KXP24ZKFDDMCDS43FE3AU9W6IW","","234.29999995231628","img/food6.png","75","234.70000004768372","2","0","","3","1","1,0.5,0,1,0.5,0,0.5,0,1","0,1,0.5,0,1,0.5,1,0.5,0","3",""
"","html-keyboard-response","224","116029","0.0-313.0","31N2WW6R9SCYSNVYKK5MUXAMCCWF3Z","A31P9Z3VBQM1PB","3XT3KXP24ZKFDDMCDS43FE3AU9W6IW","","null","<img src=""img/food6.png"" style=""width:200px;border:14px solid red;"">","null","","","","","","","","","",""
"","image-keyboard-response","225","116656","0.0-314.0","31N2WW6R9SCYSNVYKK5MUXAMCCWF3Z","A31P9Z3VBQM1PB","3XT3KXP24ZKFDDMCDS43FE3AU9W6IW","","626.0999999046326","img/food6.png","75","626.6000001430511","2","0","","3","1","1,0.5,0,1,0.5,0,0.5,0,1","0,1,0.5,0,1,0.5,1,0.5,0","3",""
"","html-keyboard-response","226","116958","0.0-315.0","31N2WW6R9SCYSNVYKK5MUXAMCCWF3Z","A31P9Z3VBQM1PB","3XT3KXP24ZKFDDMCDS43FE3AU9W6IW","","null","<img src=""img/food6.png"" style=""width:200px;border:14px solid red;"">","null","","","","","","","","","",""
"","image-keyboard-response","227","117352","0.0-316.0","31N2WW6R9SCYSNVYKK5MUXAMCCWF3Z","A31P9Z3VBQM1PB","3XT3KXP24ZKFDDMCDS43FE3AU9W6IW","","393.5","img/food6.png","76","394","3","0","","3","1","1,0.5,0,1,0.5,0,0.5,0,1","0,1,0.5,0,1,0.5,1,0.5,0","3",""
"","html-keyboard-response","228","117653","0.0-317.0","31N2WW6R9SCYSNVYKK5MUXAMCCWF3Z","A31P9Z3VBQM1PB","3XT3KXP24ZKFDDMCDS43FE3AU9W6IW","","null","<img src=""img/food6.png"" style=""width:200px;border:14px solid red;"">","null","","","","","","","","","",""
"","image-keyboard-response","229","117920","0.0-318.0","31N2WW6R9SCYSNVYKK5MUXAMCCWF3Z","A31P9Z3VBQM1PB","3XT3KXP24ZKFDDMCDS43FE3AU9W6IW","","266.40000009536743","img/food3.png","76","266.90000009536743","3","1","","2","1","1,0.5,0,1,0.5,0,0.5,0,1","0,1,0.5,0,1,0.5,1,0.5,0","3",""
"","html-keyboard-response","230","118222","0.0-319.0","31N2WW6R9SCYSNVYKK5MUXAMCCWF3Z","A31P9Z3VBQM1PB","3XT3KXP24ZKFDDMCDS43FE3AU9W6IW","","null","<img src=""img/food3.png"" style=""width:200px; border:14px solid green;"">","null","","","","","","","","","",""
"","image-keyboard-response","231","118640","0.0-320.0","31N2WW6R9SCYSNVYKK5MUXAMCCWF3Z","A31P9Z3VBQM1PB","3XT3KXP24ZKFDDMCDS43FE3AU9W6IW","","417.09999990463257","img/food1.png","75","417.5","2","1","","1","1","1,0.5,0,1,0.5,0,0.5,0,1","0,1,0.5,0,1,0.5,1,0.5,0","3",""
"","html-keyboard-response","232","118941","0.0-321.0","31N2WW6R9SCYSNVYKK5MUXAMCCWF3Z","A31P9Z3VBQM1PB","3XT3KXP24ZKFDDMCDS43FE3AU9W6IW","","null","<img src=""img/food1.png"" style=""width:200px; border:14px solid green;"">","null","","","","","","","","","",""
"","image-keyboard-response","233","119184","0.0-322.0","31N2WW6R9SCYSNVYKK5MUXAMCCWF3Z","A31P9Z3VBQM1PB","3XT3KXP24ZKFDDMCDS43FE3AU9W6IW","","242.79999995231628","img/food1.png","75","243.29999995231628","2","1","","1","1","1,0.5,0,1,0.5,0,0.5,0,1","0,1,0.5,0,1,0.5,1,0.5,0","3",""
"","html-keyboard-response","234","119486","0.0-323.0","31N2WW6R9SCYSNVYKK5MUXAMCCWF3Z","A31P9Z3VBQM1PB","3XT3KXP24ZKFDDMCDS43FE3AU9W6IW","","null","<img src=""img/food1.png"" style=""width:200px; border:14px solid green;"">","null","","","","","","","","","",""
"","image-keyboard-response","235","119712","0.0-324.0","31N2WW6R9SCYSNVYKK5MUXAMCCWF3Z","A31P9Z3VBQM1PB","3XT3KXP24ZKFDDMCDS43FE3AU9W6IW","","225.29999995231628","img/food1.png","75","225.79999995231628","2","1","","1","1","1,0.5,0,1,0.5,0,0.5,0,1","0,1,0.5,0,1,0.5,1,0.5,0","3",""
"","html-keyboard-response","236","120014","0.0-325.0","31N2WW6R9SCYSNVYKK5MUXAMCCWF3Z","A31P9Z3VBQM1PB","3XT3KXP24ZKFDDMCDS43FE3AU9W6IW","","null","<img src=""img/food1.png"" style=""width:200px; border:14px solid green;"">","null","","","","","","","","","",""
"","image-keyboard-response","237","120712","0.0-326.0","31N2WW6R9SCYSNVYKK5MUXAMCCWF3Z","A31P9Z3VBQM1PB","3XT3KXP24ZKFDDMCDS43FE3AU9W6IW","","697.3999998569489","img/food6.png","75","697.8999998569489","2","1","","3","1","1,0.5,0,1,0.5,0,0.5,0,1","0,1,0.5,0,1,0.5,1,0.5,0","3",""
"","html-keyboard-response","238","121014","0.0-327.0","31N2WW6R9SCYSNVYKK5MUXAMCCWF3Z","A31P9Z3VBQM1PB","3XT3KXP24ZKFDDMCDS43FE3AU9W6IW","","null","<img src=""img/food6.png"" style=""width:200px; border:14px solid green;"">","null","","","","","","","","","",""
"","image-keyboard-response","239","121536","0.0-328.0","31N2WW6R9SCYSNVYKK5MUXAMCCWF3Z","A31P9Z3VBQM1PB","3XT3KXP24ZKFDDMCDS43FE3AU9W6IW","","521.7000000476837","img/food3.png","75","522.3999998569489","2","1","","2","1","1,0.5,0,1,0.5,0,0.5,0,1","0,1,0.5,0,1,0.5,1,0.5,0","3",""
"","html-keyboard-response","240","121838","0.0-329.0","31N2WW6R9SCYSNVYKK5MUXAMCCWF3Z","A31P9Z3VBQM1PB","3XT3KXP24ZKFDDMCDS43FE3AU9W6IW","","null","<img src=""img/food3.png"" style=""width:200px; border:14px solid green;"">","null","","","","","","","","","",""
"","image-keyboard-response","241","122200","0.0-330.0","31N2WW6R9SCYSNVYKK5MUXAMCCWF3Z","A31P9Z3VBQM1PB","3XT3KXP24ZKFDDMCDS43FE3AU9W6IW","","361.40000009536743","img/food3.png","75","362.09999990463257","2","1","","2","1","1,0.5,0,1,0.5,0,0.5,0,1","0,1,0.5,0,1,0.5,1,0.5,0","3",""
"","html-keyboard-response","242","122501","0.0-331.0","31N2WW6R9SCYSNVYKK5MUXAMCCWF3Z","A31P9Z3VBQM1PB","3XT3KXP24ZKFDDMCDS43FE3AU9W6IW","","null","<img src=""img/food3.png"" style=""width:200px; border:14px solid green;"">","null","","","","","","","","","",""
"","image-keyboard-response","243","123056","0.0-332.0","31N2WW6R9SCYSNVYKK5MUXAMCCWF3Z","A31P9Z3VBQM1PB","3XT3KXP24ZKFDDMCDS43FE3AU9W6IW","","554","img/food6.png","75","554.5","2","1","","3","1","1,0.5,0,1,0.5,0,0.5,0,1","0,1,0.5,0,1,0.5,1,0.5,0","3",""
"","html-keyboard-response","244","123358","0.0-333.0","31N2WW6R9SCYSNVYKK5MUXAMCCWF3Z","A31P9Z3VBQM1PB","3XT3KXP24ZKFDDMCDS43FE3AU9W6IW","","null","<img src=""img/food6.png"" style=""width:200px; border:14px solid green;"">","null","","","","","","","","","",""
"","image-keyboard-response","245","123720","0.0-334.0","31N2WW6R9SCYSNVYKK5MUXAMCCWF3Z","A31P9Z3VBQM1PB","3XT3KXP24ZKFDDMCDS43FE3AU9W6IW","","361.89999985694885","img/food6.png","75","362.5","2","0","","3","1","1,0.5,0,1,0.5,0,0.5,0,1","0,1,0.5,0,1,0.5,1,0.5,0","3",""
"","html-keyboard-response","246","124022","0.0-335.0","31N2WW6R9SCYSNVYKK5MUXAMCCWF3Z","A31P9Z3VBQM1PB","3XT3KXP24ZKFDDMCDS43FE3AU9W6IW","","null","<img src=""img/food6.png"" style=""width:200px;border:14px solid red;"">","null","","","","","","","","","",""
"","image-keyboard-response","247","124688","0.0-336.0","31N2WW6R9SCYSNVYKK5MUXAMCCWF3Z","A31P9Z3VBQM1PB","3XT3KXP24ZKFDDMCDS43FE3AU9W6IW","","665.0999999046326","img/food6.png","75","665.5999999046326","2","0","","3","1","1,0.5,0,1,0.5,0,0.5,0,1","0,1,0.5,0,1,0.5,1,0.5,0","3",""
"","html-keyboard-response","248","124990","0.0-337.0","31N2WW6R9SCYSNVYKK5MUXAMCCWF3Z","A31P9Z3VBQM1PB","3XT3KXP24ZKFDDMCDS43FE3AU9W6IW","","null","<img src=""img/food6.png"" style=""width:200px;border:14px solid red;"">","null","","","","","","","","","",""
"","image-keyboard-response","249","125392","0.0-338.0","31N2WW6R9SCYSNVYKK5MUXAMCCWF3Z","A31P9Z3VBQM1PB","3XT3KXP24ZKFDDMCDS43FE3AU9W6IW","","402","img/food6.png","75","402.5","2","1","","3","1","1,0.5,0,1,0.5,0,0.5,0,1","0,1,0.5,0,1,0.5,1,0.5,0","3",""
"","html-keyboard-response","250","125693","0.0-339.0","31N2WW6R9SCYSNVYKK5MUXAMCCWF3Z","A31P9Z3VBQM1PB","3XT3KXP24ZKFDDMCDS43FE3AU9W6IW","","null","<img src=""img/food6.png"" style=""width:200px; border:14px solid green;"">","null","","","","","","","","","",""
"","image-keyboard-response","251","125920","0.0-340.0","31N2WW6R9SCYSNVYKK5MUXAMCCWF3Z","A31P9Z3VBQM1PB","3XT3KXP24ZKFDDMCDS43FE3AU9W6IW","","226.09999990463257","img/food6.png","76","226.59999990463257","3","0","","3","1","1,0.5,0,1,0.5,0,0.5,0,1","0,1,0.5,0,1,0.5,1,0.5,0","3",""
"","html-keyboard-response","252","126235","0.0-341.0","31N2WW6R9SCYSNVYKK5MUXAMCCWF3Z","A31P9Z3VBQM1PB","3XT3KXP24ZKFDDMCDS43FE3AU9W6IW","","null","<img src=""img/food6.png"" style=""width:200px;border:14px solid red;"">","null","","","","","","","","","",""
"","image-keyboard-response","253","126408","0.0-342.0","31N2WW6R9SCYSNVYKK5MUXAMCCWF3Z","A31P9Z3VBQM1PB","3XT3KXP24ZKFDDMCDS43FE3AU9W6IW","","172.5","img/food3.png","76","173.10000014305115","3","0","","2","1","1,0.5,0,1,0.5,0,0.5,0,1","0,1,0.5,0,1,0.5,1,0.5,0","3",""
"","html-keyboard-response","254","126709","0.0-343.0","31N2WW6R9SCYSNVYKK5MUXAMCCWF3Z","A31P9Z3VBQM1PB","3XT3KXP24ZKFDDMCDS43FE3AU9W6IW","","null","<img src=""img/food3.png"" style=""width:200px;border:14px solid red;"">","null","","","","","","","","","",""
"","image-keyboard-response","255","127169","0.0-344.0","31N2WW6R9SCYSNVYKK5MUXAMCCWF3Z","A31P9Z3VBQM1PB","3XT3KXP24ZKFDDMCDS43FE3AU9W6IW","","459","img/food6.png","75","459.59999990463257","2","0","","3","1","1,0.5,0,1,0.5,0,0.5,0,1","0,1,0.5,0,1,0.5,1,0.5,0","3",""
"","html-keyboard-response","256","127470","0.0-345.0","31N2WW6R9SCYSNVYKK5MUXAMCCWF3Z","A31P9Z3VBQM1PB","3XT3KXP24ZKFDDMCDS43FE3AU9W6IW","","null","<img src=""img/food6.png"" style=""width:200px;border:14px solid red;"">","null","","","","","","","","","",""
"","image-keyboard-response","257","128000","0.0-346.0","31N2WW6R9SCYSNVYKK5MUXAMCCWF3Z","A31P9Z3VBQM1PB","3XT3KXP24ZKFDDMCDS43FE3AU9W6IW","","529.1999998092651","img/food6.png","76","529.7000000476837","3","0","","3","1","1,0.5,0,1,0.5,0,0.5,0,1","0,1,0.5,0,1,0.5,1,0.5,0","3",""
"","html-keyboard-response","258","128302","0.0-347.0","31N2WW6R9SCYSNVYKK5MUXAMCCWF3Z","A31P9Z3VBQM1PB","3XT3KXP24ZKFDDMCDS43FE3AU9W6IW","","null","<img src=""img/food6.png"" style=""width:200px;border:14px solid red;"">","null","","","","","","","","","",""
"","image-keyboard-response","259","128552","0.0-348.0","31N2WW6R9SCYSNVYKK5MUXAMCCWF3Z","A31P9Z3VBQM1PB","3XT3KXP24ZKFDDMCDS43FE3AU9W6IW","","249.39999985694885","img/food3.png","76","250","3","0","","2","1","1,0.5,0,1,0.5,0,0.5,0,1","0,1,0.5,0,1,0.5,1,0.5,0","3",""
"","html-keyboard-response","260","128854","0.0-349.0","31N2WW6R9SCYSNVYKK5MUXAMCCWF3Z","A31P9Z3VBQM1PB","3XT3KXP24ZKFDDMCDS43FE3AU9W6IW","","null","<img src=""img/food3.png"" style=""width:200px;border:14px solid red;"">","null","","","","","","","","","",""
"","image-keyboard-response","261","129344","0.0-350.0","31N2WW6R9SCYSNVYKK5MUXAMCCWF3Z","A31P9Z3VBQM1PB","3XT3KXP24ZKFDDMCDS43FE3AU9W6IW","","489.5","img/food1.png","75","490.2000000476837","2","1","","1","1","1,0.5,0,1,0.5,0,0.5,0,1","0,1,0.5,0,1,0.5,1,0.5,0","3",""
"","html-keyboard-response","262","129646","0.0-351.0","31N2WW6R9SCYSNVYKK5MUXAMCCWF3Z","A31P9Z3VBQM1PB","3XT3KXP24ZKFDDMCDS43FE3AU9W6IW","","null","<img src=""img/food1.png"" style=""width:200px; border:14px solid green;"">","null","","","","","","","","","",""
"","image-keyboard-response","263","129912","0.0-352.0","31N2WW6R9SCYSNVYKK5MUXAMCCWF3Z","A31P9Z3VBQM1PB","3XT3KXP24ZKFDDMCDS43FE3AU9W6IW","","265.5","img/food6.png","75","265.90000009536743","2","1","","3","1","1,0.5,0,1,0.5,0,0.5,0,1","0,1,0.5,0,1,0.5,1,0.5,0","3",""
"","html-keyboard-response","264","130214","0.0-353.0","31N2WW6R9SCYSNVYKK5MUXAMCCWF3Z","A31P9Z3VBQM1PB","3XT3KXP24ZKFDDMCDS43FE3AU9W6IW","","null","<img src=""img/food6.png"" style=""width:200px; border:14px solid green;"">","null","","","","","","","","","",""
"","image-keyboard-response","265","130880","0.0-354.0","31N2WW6R9SCYSNVYKK5MUXAMCCWF3Z","A31P9Z3VBQM1PB","3XT3KXP24ZKFDDMCDS43FE3AU9W6IW","","665.7000000476837","img/food3.png","75","666.3999998569489","2","1","","2","1","1,0.5,0,1,0.5,0,0.5,0,1","0,1,0.5,0,1,0.5,1,0.5,0","3",""
"","html-keyboard-response","266","131183","0.0-355.0","31N2WW6R9SCYSNVYKK5MUXAMCCWF3Z","A31P9Z3VBQM1PB","3XT3KXP24ZKFDDMCDS43FE3AU9W6IW","","null","<img src=""img/food3.png"" style=""width:200px; border:14px solid green;"">","null","","","","","","","","","",""
"","image-keyboard-response","267","131720","0.0-356.0","31N2WW6R9SCYSNVYKK5MUXAMCCWF3Z","A31P9Z3VBQM1PB","3XT3KXP24ZKFDDMCDS43FE3AU9W6IW","","537.2000000476837","img/food6.png","76","537.7999999523163","3","0","","3","1","1,0.5,0,1,0.5,0,0.5,0,1","0,1,0.5,0,1,0.5,1,0.5,0","3",""
"","html-keyboard-response","268","132022","0.0-357.0","31N2WW6R9SCYSNVYKK5MUXAMCCWF3Z","A31P9Z3VBQM1PB","3XT3KXP24ZKFDDMCDS43FE3AU9W6IW","","null","<img src=""img/food6.png"" style=""width:200px;border:14px solid red;"">","null","","","","","","","","","",""
"","image-keyboard-response","269","132456","0.0-358.0","31N2WW6R9SCYSNVYKK5MUXAMCCWF3Z","A31P9Z3VBQM1PB","3XT3KXP24ZKFDDMCDS43FE3AU9W6IW","","433.19999980926514","img/food6.png","76","433.7000000476837","3","0","","3","1","1,0.5,0,1,0.5,0,0.5,0,1","0,1,0.5,0,1,0.5,1,0.5,0","3",""
"","html-keyboard-response","270","132758","0.0-359.0","31N2WW6R9SCYSNVYKK5MUXAMCCWF3Z","A31P9Z3VBQM1PB","3XT3KXP24ZKFDDMCDS43FE3AU9W6IW","","null","<img src=""img/food6.png"" style=""width:200px;border:14px solid red;"">","null","","","","","","","","","",""
"","image-keyboard-response","271","133144","0.0-360.0","31N2WW6R9SCYSNVYKK5MUXAMCCWF3Z","A31P9Z3VBQM1PB","3XT3KXP24ZKFDDMCDS43FE3AU9W6IW","","385.10000014305115","img/food1.png","75","385.90000009536743","2","1","","1","1","1,0.5,0,1,0.5,0,0.5,0,1","0,1,0.5,0,1,0.5,1,0.5,0","3",""
"","html-keyboard-response","272","133445","0.0-361.0","31N2WW6R9SCYSNVYKK5MUXAMCCWF3Z","A31P9Z3VBQM1PB","3XT3KXP24ZKFDDMCDS43FE3AU9W6IW","","null","<img src=""img/food1.png"" style=""width:200px; border:14px solid green;"">","null","","","","","","","","","",""
"","image-keyboard-response","273","133576","0.0-362.0","31N2WW6R9SCYSNVYKK5MUXAMCCWF3Z","A31P9Z3VBQM1PB","3XT3KXP24ZKFDDMCDS43FE3AU9W6IW","","130.59999990463257","img/food3.png","75","131.20000004768372","2","1","","2","1","1,0.5,0,1,0.5,0,0.5,0,1","0,1,0.5,0,1,0.5,1,0.5,0","3",""
"","html-keyboard-response","274","133878","0.0-363.0","31N2WW6R9SCYSNVYKK5MUXAMCCWF3Z","A31P9Z3VBQM1PB","3XT3KXP24ZKFDDMCDS43FE3AU9W6IW","","null","<img src=""img/food3.png"" style=""width:200px; border:14px solid green;"">","null","","","","","","","","","",""
"","image-keyboard-response","275","134000","0.0-364.0","31N2WW6R9SCYSNVYKK5MUXAMCCWF3Z","A31P9Z3VBQM1PB","3XT3KXP24ZKFDDMCDS43FE3AU9W6IW","","121.69999980926514","img/food3.png","75","122.20000004768372","2","1","","2","1","1,0.5,0,1,0.5,0,0.5,0,1","0,1,0.5,0,1,0.5,1,0.5,0","3",""
"","html-keyboard-response","276","134302","0.0-365.0","31N2WW6R9SCYSNVYKK5MUXAMCCWF3Z","A31P9Z3VBQM1PB","3XT3KXP24ZKFDDMCDS43FE3AU9W6IW","","null","<img src=""img/food3.png"" style=""width:200px; border:14px solid green;"">","null","","","","","","","","","",""
"","image-keyboard-response","277","134424","0.0-366.0","31N2WW6R9SCYSNVYKK5MUXAMCCWF3Z","A31P9Z3VBQM1PB","3XT3KXP24ZKFDDMCDS43FE3AU9W6IW","","121.79999995231628","img/food1.png","75","122.39999985694885","2","1","","1","1","1,0.5,0,1,0.5,0,0.5,0,1","0,1,0.5,0,1,0.5,1,0.5,0","3",""
"","html-keyboard-response","278","134726","0.0-367.0","31N2WW6R9SCYSNVYKK5MUXAMCCWF3Z","A31P9Z3VBQM1PB","3XT3KXP24ZKFDDMCDS43FE3AU9W6IW","","null","<img src=""img/food1.png"" style=""width:200px; border:14px solid green;"">","null","","","","","","","","","",""
"","image-keyboard-response","279","135600","0.0-368.0","31N2WW6R9SCYSNVYKK5MUXAMCCWF3Z","A31P9Z3VBQM1PB","3XT3KXP24ZKFDDMCDS43FE3AU9W6IW","","873.2999999523163","img/food1.png","75","873.7000000476837","2","1","","1","1","1,0.5,0,1,0.5,0,0.5,0,1","0,1,0.5,0,1,0.5,1,0.5,0","3",""
"","html-keyboard-response","280","135902","0.0-369.0","31N2WW6R9SCYSNVYKK5MUXAMCCWF3Z","A31P9Z3VBQM1PB","3XT3KXP24ZKFDDMCDS43FE3AU9W6IW","","null","<img src=""img/food1.png"" style=""width:200px; border:14px solid green;"">","null","","","","","","","","","",""
"","image-keyboard-response","281","136312","0.0-370.0","31N2WW6R9SCYSNVYKK5MUXAMCCWF3Z","A31P9Z3VBQM1PB","3XT3KXP24ZKFDDMCDS43FE3AU9W6IW","","409.69999980926514","img/food1.png","75","410.30000019073486","2","1","","1","1","1,0.5,0,1,0.5,0,0.5,0,1","0,1,0.5,0,1,0.5,1,0.5,0","3",""
"","html-keyboard-response","282","136613","0.0-371.0","31N2WW6R9SCYSNVYKK5MUXAMCCWF3Z","A31P9Z3VBQM1PB","3XT3KXP24ZKFDDMCDS43FE3AU9W6IW","","null","<img src=""img/food1.png"" style=""width:200px; border:14px solid green;"">","null","","","","","","","","","",""
"","image-keyboard-response","283","136872","0.0-372.0","31N2WW6R9SCYSNVYKK5MUXAMCCWF3Z","A31P9Z3VBQM1PB","3XT3KXP24ZKFDDMCDS43FE3AU9W6IW","","258.39999985694885","img/food3.png","75","259","2","1","","2","1","1,0.5,0,1,0.5,0,0.5,0,1","0,1,0.5,0,1,0.5,1,0.5,0","3",""
"","html-keyboard-response","284","137174","0.0-373.0","31N2WW6R9SCYSNVYKK5MUXAMCCWF3Z","A31P9Z3VBQM1PB","3XT3KXP24ZKFDDMCDS43FE3AU9W6IW","","null","<img src=""img/food3.png"" style=""width:200px; border:14px solid green;"">","null","","","","","","","","","",""
"","image-keyboard-response","285","137424","0.0-374.0","31N2WW6R9SCYSNVYKK5MUXAMCCWF3Z","A31P9Z3VBQM1PB","3XT3KXP24ZKFDDMCDS43FE3AU9W6IW","","249.89999985694885","img/food3.png","75","250.5","2","1","","2","1","1,0.5,0,1,0.5,0,0.5,0,1","0,1,0.5,0,1,0.5,1,0.5,0","3",""
"","html-keyboard-response","286","137726","0.0-375.0","31N2WW6R9SCYSNVYKK5MUXAMCCWF3Z","A31P9Z3VBQM1PB","3XT3KXP24ZKFDDMCDS43FE3AU9W6IW","","null","<img src=""img/food3.png"" style=""width:200px; border:14px solid green;"">","null","","","","","","","","","",""
"","image-keyboard-response","287","138120","0.0-376.0","31N2WW6R9SCYSNVYKK5MUXAMCCWF3Z","A31P9Z3VBQM1PB","3XT3KXP24ZKFDDMCDS43FE3AU9W6IW","","393.69999980926514","img/food1.png","75","394.2000000476837","2","1","","1","1","1,0.5,0,1,0.5,0,0.5,0,1","0,1,0.5,0,1,0.5,1,0.5,0","3",""
"","html-keyboard-response","288","138422","0.0-377.0","31N2WW6R9SCYSNVYKK5MUXAMCCWF3Z","A31P9Z3VBQM1PB","3XT3KXP24ZKFDDMCDS43FE3AU9W6IW","","null","<img src=""img/food1.png"" style=""width:200px; border:14px solid green;"">","null","","","","","","","","","",""
"","image-keyboard-response","289","138664","0.0-378.0","31N2WW6R9SCYSNVYKK5MUXAMCCWF3Z","A31P9Z3VBQM1PB","3XT3KXP24ZKFDDMCDS43FE3AU9W6IW","","241.79999995231628","img/food6.png","75","242.29999995231628","2","0","","3","1","1,0.5,0,1,0.5,0,0.5,0,1","0,1,0.5,0,1,0.5,1,0.5,0","3",""
"","html-keyboard-response","290","138966","0.0-379.0","31N2WW6R9SCYSNVYKK5MUXAMCCWF3Z","A31P9Z3VBQM1PB","3XT3KXP24ZKFDDMCDS43FE3AU9W6IW","","null","<img src=""img/food6.png"" style=""width:200px;border:14px solid red;"">","null","","","","","","","","","",""
"","image-keyboard-response","291","139312","0.0-380.0","31N2WW6R9SCYSNVYKK5MUXAMCCWF3Z","A31P9Z3VBQM1PB","3XT3KXP24ZKFDDMCDS43FE3AU9W6IW","","345.2000000476837","img/food6.png","75","345.7000000476837","2","0","","3","1","1,0.5,0,1,0.5,0,0.5,0,1","0,1,0.5,0,1,0.5,1,0.5,0","3",""
"","html-keyboard-response","292","139614","0.0-381.0","31N2WW6R9SCYSNVYKK5MUXAMCCWF3Z","A31P9Z3VBQM1PB","3XT3KXP24ZKFDDMCDS43FE3AU9W6IW","","null","<img src=""img/food6.png"" style=""width:200px;border:14px solid red;"">","null","","","","","","","","","",""
"","image-keyboard-response","293","140177","0.0-382.0","31N2WW6R9SCYSNVYKK5MUXAMCCWF3Z","A31P9Z3VBQM1PB","3XT3KXP24ZKFDDMCDS43FE3AU9W6IW","","562.3999998569489","img/food6.png","75","562.7999999523163","2","1","","3","1","1,0.5,0,1,0.5,0,0.5,0,1","0,1,0.5,0,1,0.5,1,0.5,0","3",""
"","html-keyboard-response","294","140478","0.0-383.0","31N2WW6R9SCYSNVYKK5MUXAMCCWF3Z","A31P9Z3VBQM1PB","3XT3KXP24ZKFDDMCDS43FE3AU9W6IW","","null","<img src=""img/food6.png"" style=""width:200px; border:14px solid green;"">","null","","","","","","","","","",""
"","image-keyboard-response","295","140976","0.0-384.0","31N2WW6R9SCYSNVYKK5MUXAMCCWF3Z","A31P9Z3VBQM1PB","3XT3KXP24ZKFDDMCDS43FE3AU9W6IW","","497.2999999523163","img/food6.png","75","497.90000009536743","2","0","","3","1","1,0.5,0,1,0.5,0,0.5,0,1","0,1,0.5,0,1,0.5,1,0.5,0","3",""
"","html-keyboard-response","296","141277","0.0-385.0","31N2WW6R9SCYSNVYKK5MUXAMCCWF3Z","A31P9Z3VBQM1PB","3XT3KXP24ZKFDDMCDS43FE3AU9W6IW","","null","<img src=""img/food6.png"" style=""width:200px;border:14px solid red;"">","null","","","","","","","","","",""
"","image-keyboard-response","297","141824","0.0-386.0","31N2WW6R9SCYSNVYKK5MUXAMCCWF3Z","A31P9Z3VBQM1PB","3XT3KXP24ZKFDDMCDS43FE3AU9W6IW","","546.1999998092651","img/food6.png","75","546.8000001907349","2","0","","3","1","1,0.5,0,1,0.5,0,0.5,0,1","0,1,0.5,0,1,0.5,1,0.5,0","3",""
"","html-keyboard-response","298","142126","0.0-387.0","31N2WW6R9SCYSNVYKK5MUXAMCCWF3Z","A31P9Z3VBQM1PB","3XT3KXP24ZKFDDMCDS43FE3AU9W6IW","","null","<img src=""img/food6.png"" style=""width:200px;border:14px solid red;"">","null","","","","","","","","","",""
"","image-keyboard-response","299","142777","0.0-388.0","31N2WW6R9SCYSNVYKK5MUXAMCCWF3Z","A31P9Z3VBQM1PB","3XT3KXP24ZKFDDMCDS43FE3AU9W6IW","","650.2999999523163","img/food1.png","75","650.8999998569489","2","1","","1","1","1,0.5,0,1,0.5,0,0.5,0,1","0,1,0.5,0,1,0.5,1,0.5,0","3",""
"","html-keyboard-response","300","143078","0.0-389.0","31N2WW6R9SCYSNVYKK5MUXAMCCWF3Z","A31P9Z3VBQM1PB","3XT3KXP24ZKFDDMCDS43FE3AU9W6IW","","null","<img src=""img/food1.png"" style=""width:200px; border:14px solid green;"">","null","","","","","","","","","",""
"","image-keyboard-response","301","143440","0.0-390.0","31N2WW6R9SCYSNVYKK5MUXAMCCWF3Z","A31P9Z3VBQM1PB","3XT3KXP24ZKFDDMCDS43FE3AU9W6IW","","361.09999990463257","img/food1.png","75","361.60000014305115","2","1","","1","1","1,0.5,0,1,0.5,0,0.5,0,1","0,1,0.5,0,1,0.5,1,0.5,0","3",""
"","html-keyboard-response","302","143741","0.0-391.0","31N2WW6R9SCYSNVYKK5MUXAMCCWF3Z","A31P9Z3VBQM1PB","3XT3KXP24ZKFDDMCDS43FE3AU9W6IW","","null","<img src=""img/food1.png"" style=""width:200px; border:14px solid green;"">","null","","","","","","","","","",""
"","image-keyboard-response","303","144104","0.0-392.0","31N2WW6R9SCYSNVYKK5MUXAMCCWF3Z","A31P9Z3VBQM1PB","3XT3KXP24ZKFDDMCDS43FE3AU9W6IW","","362.19999980926514","img/food1.png","75","362.7999999523163","2","1","","1","1","1,0.5,0,1,0.5,0,0.5,0,1","0,1,0.5,0,1,0.5,1,0.5,0","3",""
"","html-keyboard-response","304","144405","0.0-393.0","31N2WW6R9SCYSNVYKK5MUXAMCCWF3Z","A31P9Z3VBQM1PB","3XT3KXP24ZKFDDMCDS43FE3AU9W6IW","","null","<img src=""img/food1.png"" style=""width:200px; border:14px solid green;"">","null","","","","","","","","","",""
"","image-keyboard-response","305","144928","0.0-394.0","31N2WW6R9SCYSNVYKK5MUXAMCCWF3Z","A31P9Z3VBQM1PB","3XT3KXP24ZKFDDMCDS43FE3AU9W6IW","","522.0999999046326","img/food6.png","74","522.5999999046326","1","1","","3","1","1,0.5,0,1,0.5,0,0.5,0,1","0,1,0.5,0,1,0.5,1,0.5,0","3",""
"","html-keyboard-response","306","145230","0.0-395.0","31N2WW6R9SCYSNVYKK5MUXAMCCWF3Z","A31P9Z3VBQM1PB","3XT3KXP24ZKFDDMCDS43FE3AU9W6IW","","null","<img src=""img/food6.png"" style=""width:200px; border:14px solid green;"">","null","","","","","","","","","",""
"","image-keyboard-response","307","145720","0.0-396.0","31N2WW6R9SCYSNVYKK5MUXAMCCWF3Z","A31P9Z3VBQM1PB","3XT3KXP24ZKFDDMCDS43FE3AU9W6IW","","489.7999999523163","img/food6.png","74","490.5","1","1","","3","1","1,0.5,0,1,0.5,0,0.5,0,1","0,1,0.5,0,1,0.5,1,0.5,0","3",""
"","html-keyboard-response","308","146022","0.0-397.0","31N2WW6R9SCYSNVYKK5MUXAMCCWF3Z","A31P9Z3VBQM1PB","3XT3KXP24ZKFDDMCDS43FE3AU9W6IW","","null","<img src=""img/food6.png"" style=""width:200px; border:14px solid green;"">","null","","","","","","","","","",""
"","image-keyboard-response","309","146520","0.0-398.0","31N2WW6R9SCYSNVYKK5MUXAMCCWF3Z","A31P9Z3VBQM1PB","3XT3KXP24ZKFDDMCDS43FE3AU9W6IW","","497.5","img/food1.png","75","498.2000000476837","2","1","","1","1","1,0.5,0,1,0.5,0,0.5,0,1","0,1,0.5,0,1,0.5,1,0.5,0","3",""
"","html-keyboard-response","310","146822","0.0-399.0","31N2WW6R9SCYSNVYKK5MUXAMCCWF3Z","A31P9Z3VBQM1PB","3XT3KXP24ZKFDDMCDS43FE3AU9W6IW","","null","<img src=""img/food1.png"" style=""width:200px; border:14px solid green;"">","null","","","","","","","","","",""
"","image-keyboard-response","311","147056","0.0-400.0","31N2WW6R9SCYSNVYKK5MUXAMCCWF3Z","A31P9Z3VBQM1PB","3XT3KXP24ZKFDDMCDS43FE3AU9W6IW","","233.79999995231628","img/food6.png","75","234.40000009536743","2","1","","3","1","1,0.5,0,1,0.5,0,0.5,0,1","0,1,0.5,0,1,0.5,1,0.5,0","3",""
"","html-keyboard-response","312","147358","0.0-401.0","31N2WW6R9SCYSNVYKK5MUXAMCCWF3Z","A31P9Z3VBQM1PB","3XT3KXP24ZKFDDMCDS43FE3AU9W6IW","","null","<img src=""img/food6.png"" style=""width:200px; border:14px solid green;"">","null","","","","","","","","","",""
"","image-keyboard-response","313","148392","0.0-402.0","31N2WW6R9SCYSNVYKK5MUXAMCCWF3Z","A31P9Z3VBQM1PB","3XT3KXP24ZKFDDMCDS43FE3AU9W6IW","","1033.1999998092651","img/food6.png","74","1033.9000000953674","1","1","","3","1","1,0.5,0,1,0.5,0,0.5,0,1","0,1,0.5,0,1,0.5,1,0.5,0","3",""
"","html-keyboard-response","314","148697","0.0-403.0","31N2WW6R9SCYSNVYKK5MUXAMCCWF3Z","A31P9Z3VBQM1PB","3XT3KXP24ZKFDDMCDS43FE3AU9W6IW","","null","<img src=""img/food6.png"" style=""width:200px; border:14px solid green;"">","null","","","","","","","","","",""
"","image-keyboard-response","315","149400","0.0-404.0","31N2WW6R9SCYSNVYKK5MUXAMCCWF3Z","A31P9Z3VBQM1PB","3XT3KXP24ZKFDDMCDS43FE3AU9W6IW","","702.4000000953674","img/food3.png","75","702.9000000953674","2","1","","2","1","1,0.5,0,1,0.5,0,0.5,0,1","0,1,0.5,0,1,0.5,1,0.5,0","3",""
"","html-keyboard-response","316","149702","0.0-405.0","31N2WW6R9SCYSNVYKK5MUXAMCCWF3Z","A31P9Z3VBQM1PB","3XT3KXP24ZKFDDMCDS43FE3AU9W6IW","","null","<img src=""img/food3.png"" style=""width:200px; border:14px solid green;"">","null","","","","","","","","","",""
"","image-keyboard-response","317","149944","0.0-406.0","31N2WW6R9SCYSNVYKK5MUXAMCCWF3Z","A31P9Z3VBQM1PB","3XT3KXP24ZKFDDMCDS43FE3AU9W6IW","","241.70000004768372","img/food3.png","75","242.20000004768372","2","1","","2","1","1,0.5,0,1,0.5,0,0.5,0,1","0,1,0.5,0,1,0.5,1,0.5,0","3",""
"","html-keyboard-response","318","150246","0.0-407.0","31N2WW6R9SCYSNVYKK5MUXAMCCWF3Z","A31P9Z3VBQM1PB","3XT3KXP24ZKFDDMCDS43FE3AU9W6IW","","null","<img src=""img/food3.png"" style=""width:200px; border:14px solid green;"">","null","","","","","","","","","",""
"","image-keyboard-response","319","150520","0.0-408.0","31N2WW6R9SCYSNVYKK5MUXAMCCWF3Z","A31P9Z3VBQM1PB","3XT3KXP24ZKFDDMCDS43FE3AU9W6IW","","273.2000000476837","img/food3.png","75","273.7000000476837","2","1","","2","1","1,0.5,0,1,0.5,0,0.5,0,1","0,1,0.5,0,1,0.5,1,0.5,0","3",""
"","html-keyboard-response","320","150822","0.0-409.0","31N2WW6R9SCYSNVYKK5MUXAMCCWF3Z","A31P9Z3VBQM1PB","3XT3KXP24ZKFDDMCDS43FE3AU9W6IW","","null","<img src=""img/food3.png"" style=""width:200px; border:14px solid green;"">","null","","","","","","","","","",""
"","image-keyboard-response","321","151144","0.0-410.0","31N2WW6R9SCYSNVYKK5MUXAMCCWF3Z","A31P9Z3VBQM1PB","3XT3KXP24ZKFDDMCDS43FE3AU9W6IW","","321.5","img/food3.png","75","322.09999990463257","2","1","","2","1","1,0.5,0,1,0.5,0,0.5,0,1","0,1,0.5,0,1,0.5,1,0.5,0","3",""
"","html-keyboard-response","322","151445","0.0-411.0","31N2WW6R9SCYSNVYKK5MUXAMCCWF3Z","A31P9Z3VBQM1PB","3XT3KXP24ZKFDDMCDS43FE3AU9W6IW","","null","<img src=""img/food3.png"" style=""width:200px; border:14px solid green;"">","null","","","","","","","","","",""
"","image-keyboard-response","323","151784","0.0-412.0","31N2WW6R9SCYSNVYKK5MUXAMCCWF3Z","A31P9Z3VBQM1PB","3XT3KXP24ZKFDDMCDS43FE3AU9W6IW","","338.40000009536743","img/food3.png","75","338.90000009536743","2","1","","2","1","1,0.5,0,1,0.5,0,0.5,0,1","0,1,0.5,0,1,0.5,1,0.5,0","3",""
"","html-keyboard-response","324","152086","0.0-413.0","31N2WW6R9SCYSNVYKK5MUXAMCCWF3Z","A31P9Z3VBQM1PB","3XT3KXP24ZKFDDMCDS43FE3AU9W6IW","","null","<img src=""img/food3.png"" style=""width:200px; border:14px solid green;"">","null","","","","","","","","","",""
"","image-keyboard-response","325","152272","0.0-414.0","31N2WW6R9SCYSNVYKK5MUXAMCCWF3Z","A31P9Z3VBQM1PB","3XT3KXP24ZKFDDMCDS43FE3AU9W6IW","","185.79999995231628","img/food6.png","75","186.40000009536743","2","1","","3","1","1,0.5,0,1,0.5,0,0.5,0,1","0,1,0.5,0,1,0.5,1,0.5,0","3",""
"","html-keyboard-response","326","152584","0.0-415.0","31N2WW6R9SCYSNVYKK5MUXAMCCWF3Z","A31P9Z3VBQM1PB","3XT3KXP24ZKFDDMCDS43FE3AU9W6IW","","null","<img src=""img/food6.png"" style=""width:200px; border:14px solid green;"">","null","","","","","","","","","",""
"","image-keyboard-response","327","153160","0.0-416.0","31N2WW6R9SCYSNVYKK5MUXAMCCWF3Z","A31P9Z3VBQM1PB","3XT3KXP24ZKFDDMCDS43FE3AU9W6IW","","575.3999998569489","img/food3.png","75","576","2","1","","2","1","1,0.5,0,1,0.5,0,0.5,0,1","0,1,0.5,0,1,0.5,1,0.5,0","3",""
"","html-keyboard-response","328","153462","0.0-417.0","31N2WW6R9SCYSNVYKK5MUXAMCCWF3Z","A31P9Z3VBQM1PB","3XT3KXP24ZKFDDMCDS43FE3AU9W6IW","","null","<img src=""img/food3.png"" style=""width:200px; border:14px solid green;"">","null","","","","","","","","","",""
"","image-keyboard-response","329","153824","0.0-418.0","31N2WW6R9SCYSNVYKK5MUXAMCCWF3Z","A31P9Z3VBQM1PB","3XT3KXP24ZKFDDMCDS43FE3AU9W6IW","","361.7000000476837","img/food1.png","75","362.2000000476837","2","1","","1","1","1,0.5,0,1,0.5,0,0.5,0,1","0,1,0.5,0,1,0.5,1,0.5,0","3",""
"","html-keyboard-response","330","154126","0.0-419.0","31N2WW6R9SCYSNVYKK5MUXAMCCWF3Z","A31P9Z3VBQM1PB","3XT3KXP24ZKFDDMCDS43FE3AU9W6IW","","null","<img src=""img/food1.png"" style=""width:200px; border:14px solid green;"">","null","","","","","","","","","",""
"","image-keyboard-response","331","154632","0.0-420.0","31N2WW6R9SCYSNVYKK5MUXAMCCWF3Z","A31P9Z3VBQM1PB","3XT3KXP24ZKFDDMCDS43FE3AU9W6IW","","506","img/food1.png","75","506.5","2","1","","1","1","1,0.5,0,1,0.5,0,0.5,0,1","0,1,0.5,0,1,0.5,1,0.5,0","3",""
"","html-keyboard-response","332","154933","0.0-421.0","31N2WW6R9SCYSNVYKK5MUXAMCCWF3Z","A31P9Z3VBQM1PB","3XT3KXP24ZKFDDMCDS43FE3AU9W6IW","","null","<img src=""img/food1.png"" style=""width:200px; border:14px solid green;"">","null","","","","","","","","","",""
"","image-keyboard-response","333","155352","0.0-422.0","31N2WW6R9SCYSNVYKK5MUXAMCCWF3Z","A31P9Z3VBQM1PB","3XT3KXP24ZKFDDMCDS43FE3AU9W6IW","","418.2000000476837","img/food1.png","75","418.7000000476837","2","1","","1","1","1,0.5,0,1,0.5,0,0.5,0,1","0,1,0.5,0,1,0.5,1,0.5,0","3",""
"","html-keyboard-response","334","155654","0.0-423.0","31N2WW6R9SCYSNVYKK5MUXAMCCWF3Z","A31P9Z3VBQM1PB","3XT3KXP24ZKFDDMCDS43FE3AU9W6IW","","null","<img src=""img/food1.png"" style=""width:200px; border:14px solid green;"">","null","","","","","","","","","",""
"","image-keyboard-response","335","156144","0.0-424.0","31N2WW6R9SCYSNVYKK5MUXAMCCWF3Z","A31P9Z3VBQM1PB","3XT3KXP24ZKFDDMCDS43FE3AU9W6IW","","489.7999999523163","img/food6.png","74","490.7000000476837","1","1","","3","1","1,0.5,0,1,0.5,0,0.5,0,1","0,1,0.5,0,1,0.5,1,0.5,0","3",""
"","html-keyboard-response","336","156452","0.0-425.0","31N2WW6R9SCYSNVYKK5MUXAMCCWF3Z","A31P9Z3VBQM1PB","3XT3KXP24ZKFDDMCDS43FE3AU9W6IW","","null","<img src=""img/food6.png"" style=""width:200px; border:14px solid green;"">","null","","","","","","","","","",""
"","image-keyboard-response","337","157192","0.0-426.0","31N2WW6R9SCYSNVYKK5MUXAMCCWF3Z","A31P9Z3VBQM1PB","3XT3KXP24ZKFDDMCDS43FE3AU9W6IW","","738.8999998569489","img/food3.png","75","739.6000001430511","2","1","","2","1","1,0.5,0,1,0.5,0,0.5,0,1","0,1,0.5,0,1,0.5,1,0.5,0","3",""
"","html-keyboard-response","338","157493","0.0-427.0","31N2WW6R9SCYSNVYKK5MUXAMCCWF3Z","A31P9Z3VBQM1PB","3XT3KXP24ZKFDDMCDS43FE3AU9W6IW","","null","<img src=""img/food3.png"" style=""width:200px; border:14px solid green;"">","null","","","","","","","","","",""
"","image-keyboard-response","339","157728","0.0-428.0","31N2WW6R9SCYSNVYKK5MUXAMCCWF3Z","A31P9Z3VBQM1PB","3XT3KXP24ZKFDDMCDS43FE3AU9W6IW","","234.5","img/food3.png","75","234.90000009536743","2","1","","2","1","1,0.5,0,1,0.5,0,0.5,0,1","0,1,0.5,0,1,0.5,1,0.5,0","3",""
"","html-keyboard-response","340","158029","0.0-429.0","31N2WW6R9SCYSNVYKK5MUXAMCCWF3Z","A31P9Z3VBQM1PB","3XT3KXP24ZKFDDMCDS43FE3AU9W6IW","","null","<img src=""img/food3.png"" style=""width:200px; border:14px solid green;"">","null","","","","","","","","","",""
"","image-keyboard-response","341","158720","0.0-430.0","31N2WW6R9SCYSNVYKK5MUXAMCCWF3Z","A31P9Z3VBQM1PB","3XT3KXP24ZKFDDMCDS43FE3AU9W6IW","","690.1000001430511","img/food6.png","74","690.7000000476837","1","1","","3","1","1,0.5,0,1,0.5,0,0.5,0,1","0,1,0.5,0,1,0.5,1,0.5,0","3",""
"","html-keyboard-response","342","159021","0.0-431.0","31N2WW6R9SCYSNVYKK5MUXAMCCWF3Z","A31P9Z3VBQM1PB","3XT3KXP24ZKFDDMCDS43FE3AU9W6IW","","null","<img src=""img/food6.png"" style=""width:200px; border:14px solid green;"">","null","","","","","","","","","",""
"","image-keyboard-response","343","159504","0.0-432.0","31N2WW6R9SCYSNVYKK5MUXAMCCWF3Z","A31P9Z3VBQM1PB","3XT3KXP24ZKFDDMCDS43FE3AU9W6IW","","482.59999990463257","img/food3.png","74","483","1","0","","2","1","1,0.5,0,1,0.5,0,0.5,0,1","0,1,0.5,0,1,0.5,1,0.5,0","3",""
"","html-keyboard-response","344","159806","0.0-433.0","31N2WW6R9SCYSNVYKK5MUXAMCCWF3Z","A31P9Z3VBQM1PB","3XT3KXP24ZKFDDMCDS43FE3AU9W6IW","","null","<img src=""img/food3.png"" style=""width:200px;border:14px solid red;"">","null","","","","","","","","","",""
"","image-keyboard-response","345","160216","0.0-434.0","31N2WW6R9SCYSNVYKK5MUXAMCCWF3Z","A31P9Z3VBQM1PB","3XT3KXP24ZKFDDMCDS43FE3AU9W6IW","","409.2999999523163","img/food3.png","75","410","2","1","","2","1","1,0.5,0,1,0.5,0,0.5,0,1","0,1,0.5,0,1,0.5,1,0.5,0","3",""
"","html-keyboard-response","346","160518","0.0-435.0","31N2WW6R9SCYSNVYKK5MUXAMCCWF3Z","A31P9Z3VBQM1PB","3XT3KXP24ZKFDDMCDS43FE3AU9W6IW","","null","<img src=""img/food3.png"" style=""width:200px; border:14px solid green;"">","null","","","","","","","","","",""
"","image-keyboard-response","347","160880","0.0-436.0","31N2WW6R9SCYSNVYKK5MUXAMCCWF3Z","A31P9Z3VBQM1PB","3XT3KXP24ZKFDDMCDS43FE3AU9W6IW","","361.7000000476837","img/food3.png","75","362.19999980926514","2","1","","2","1","1,0.5,0,1,0.5,0,0.5,0,1","0,1,0.5,0,1,0.5,1,0.5,0","3",""
"","html-keyboard-response","348","161189","0.0-437.0","31N2WW6R9SCYSNVYKK5MUXAMCCWF3Z","A31P9Z3VBQM1PB","3XT3KXP24ZKFDDMCDS43FE3AU9W6IW","","null","<img src=""img/food3.png"" style=""width:200px; border:14px solid green;"">","null","","","","","","","","","",""
"","image-keyboard-response","349","161953","0.0-438.0","31N2WW6R9SCYSNVYKK5MUXAMCCWF3Z","A31P9Z3VBQM1PB","3XT3KXP24ZKFDDMCDS43FE3AU9W6IW","","762.8999998569489","img/food6.png","74","763.4000000953674","1","1","","3","1","1,0.5,0,1,0.5,0,0.5,0,1","0,1,0.5,0,1,0.5,1,0.5,0","3",""
"","html-keyboard-response","350","162255","0.0-439.0","31N2WW6R9SCYSNVYKK5MUXAMCCWF3Z","A31P9Z3VBQM1PB","3XT3KXP24ZKFDDMCDS43FE3AU9W6IW","","null","<img src=""img/food6.png"" style=""width:200px; border:14px solid green;"">","null","","","","","","","","","",""
"","image-keyboard-response","351","162808","0.0-440.0","31N2WW6R9SCYSNVYKK5MUXAMCCWF3Z","A31P9Z3VBQM1PB","3XT3KXP24ZKFDDMCDS43FE3AU9W6IW","","552.9000000953674","img/food1.png","75","553.3999998569489","2","1","","1","1","1,0.5,0,1,0.5,0,0.5,0,1","0,1,0.5,0,1,0.5,1,0.5,0","3",""
"","html-keyboard-response","352","163110","0.0-441.0","31N2WW6R9SCYSNVYKK5MUXAMCCWF3Z","A31P9Z3VBQM1PB","3XT3KXP24ZKFDDMCDS43FE3AU9W6IW","","null","<img src=""img/food1.png"" style=""width:200px; border:14px solid green;"">","null","","","","","","","","","",""
"","image-keyboard-response","353","163312","0.0-442.0","31N2WW6R9SCYSNVYKK5MUXAMCCWF3Z","A31P9Z3VBQM1PB","3XT3KXP24ZKFDDMCDS43FE3AU9W6IW","","201.5","img/food3.png","75","202.20000004768372","2","1","","2","1","1,0.5,0,1,0.5,0,0.5,0,1","0,1,0.5,0,1,0.5,1,0.5,0","3",""
"","html-keyboard-response","354","163613","0.0-443.0","31N2WW6R9SCYSNVYKK5MUXAMCCWF3Z","A31P9Z3VBQM1PB","3XT3KXP24ZKFDDMCDS43FE3AU9W6IW","","null","<img src=""img/food3.png"" style=""width:200px; border:14px solid green;"">","null","","","","","","","","","",""
"","image-keyboard-response","355","163896","0.0-444.0","31N2WW6R9SCYSNVYKK5MUXAMCCWF3Z","A31P9Z3VBQM1PB","3XT3KXP24ZKFDDMCDS43FE3AU9W6IW","","282.2999999523163","img/food1.png","75","283.09999990463257","2","1","","1","1","1,0.5,0,1,0.5,0,0.5,0,1","0,1,0.5,0,1,0.5,1,0.5,0","3",""
"","html-keyboard-response","356","164198","0.0-445.0","31N2WW6R9SCYSNVYKK5MUXAMCCWF3Z","A31P9Z3VBQM1PB","3XT3KXP24ZKFDDMCDS43FE3AU9W6IW","","null","<img src=""img/food1.png"" style=""width:200px; border:14px solid green;"">","null","","","","","","","","","",""
"","image-keyboard-response","357","164568","0.0-446.0","31N2WW6R9SCYSNVYKK5MUXAMCCWF3Z","A31P9Z3VBQM1PB","3XT3KXP24ZKFDDMCDS43FE3AU9W6IW","","369.40000009536743","img/food1.png","75","370","2","1","","1","1","1,0.5,0,1,0.5,0,0.5,0,1","0,1,0.5,0,1,0.5,1,0.5,0","3",""
"","html-keyboard-response","358","164869","0.0-447.0","31N2WW6R9SCYSNVYKK5MUXAMCCWF3Z","A31P9Z3VBQM1PB","3XT3KXP24ZKFDDMCDS43FE3AU9W6IW","","null","<img src=""img/food1.png"" style=""width:200px; border:14px solid green;"">","null","","","","","","","","","",""
"","image-keyboard-response","359","165200","0.0-448.0","31N2WW6R9SCYSNVYKK5MUXAMCCWF3Z","A31P9Z3VBQM1PB","3XT3KXP24ZKFDDMCDS43FE3AU9W6IW","","330.2000000476837","img/food1.png","75","330.80000019073486","2","1","","1","1","1,0.5,0,1,0.5,0,0.5,0,1","0,1,0.5,0,1,0.5,1,0.5,0","3",""
"","html-keyboard-response","360","165510","0.0-449.0","31N2WW6R9SCYSNVYKK5MUXAMCCWF3Z","A31P9Z3VBQM1PB","3XT3KXP24ZKFDDMCDS43FE3AU9W6IW","","null","<img src=""img/food1.png"" style=""width:200px; border:14px solid green;"">","null","","","","","","","","","",""
"","image-keyboard-response","361","165760","0.0-450.0","31N2WW6R9SCYSNVYKK5MUXAMCCWF3Z","A31P9Z3VBQM1PB","3XT3KXP24ZKFDDMCDS43FE3AU9W6IW","","249.79999995231628","img/food1.png","75","250.5","2","1","","1","1","1,0.5,0,1,0.5,0,0.5,0,1","0,1,0.5,0,1,0.5,1,0.5,0","3",""
"","html-keyboard-response","362","166061","0.0-451.0","31N2WW6R9SCYSNVYKK5MUXAMCCWF3Z","A31P9Z3VBQM1PB","3XT3KXP24ZKFDDMCDS43FE3AU9W6IW","","null","<img src=""img/food1.png"" style=""width:200px; border:14px solid green;"">","null","","","","","","","","","",""
"","image-keyboard-response","363","166344","0.0-452.0","31N2WW6R9SCYSNVYKK5MUXAMCCWF3Z","A31P9Z3VBQM1PB","3XT3KXP24ZKFDDMCDS43FE3AU9W6IW","","282.5","img/food6.png","75","282.89999985694885","2","1","","3","1","1,0.5,0,1,0.5,0,0.5,0,1","0,1,0.5,0,1,0.5,1,0.5,0","3",""
"","html-keyboard-response","364","166647","0.0-453.0","31N2WW6R9SCYSNVYKK5MUXAMCCWF3Z","A31P9Z3VBQM1PB","3XT3KXP24ZKFDDMCDS43FE3AU9W6IW","","null","<img src=""img/food6.png"" style=""width:200px; border:14px solid green;"">","null","","","","","","","","","",""
"","html-keyboard-response","365","169016","0.0-454.0","31N2WW6R9SCYSNVYKK5MUXAMCCWF3Z","A31P9Z3VBQM1PB","3XT3KXP24ZKFDDMCDS43FE3AU9W6IW","","","","","","","","","","","","","",""
"","instructions","366","170744","0.0-455.0","31N2WW6R9SCYSNVYKK5MUXAMCCWF3Z","A31P9Z3VBQM1PB","3XT3KXP24ZKFDDMCDS43FE3AU9W6IW","[{""page_index"":0,""viewing_time"":1727.5}]","1727.7000000476837","","","","","","","","","","","",""
"","survey-text","367","174777","0.0-456.0","31N2WW6R9SCYSNVYKK5MUXAMCCWF3Z","A31P9Z3VBQM1PB","3XT3KXP24ZKFDDMCDS43FE3AU9W6IW","","4030.2999999523163","","","","","","","","","","","","{""Q0"":""A31P9Z3VBQM1PB""}"
