"success","trial_type","trial_index","time_elapsed","internal_node_id","assignmentID","mturkID","hitID","view_history","rt","stimulus","key_press","reactionTime","a","r","warning","s","cond","reward_cond","reward_cond_actual","reward_matrix_idx","responses"
"true","fullscreen","0","5239","0.0-0.0","3KAKFY4PGVOI2EXOLSB7XUNESX73IJ","A32K4W6B31XWVR","3EHVO81VN57KAWAV14A1K6BEMLH1HG","","","","","","","","","","","","","",""
"","instructions","1","34700","0.0-1.0","3KAKFY4PGVOI2EXOLSB7XUNESX73IJ","A32K4W6B31XWVR","3EHVO81VN57KAWAV14A1K6BEMLH1HG","[{""page_index"":0,""viewing_time"":928.0999999046326},{""page_index"":1,""viewing_time"":871},{""page_index"":2,""viewing_time"":705.5},{""page_index"":3,""viewing_time"":7168},{""page_index"":4,""viewing_time"":1736.0999999046326},{""page_index"":5,""viewing_time"":7000.900000095367},{""page_index"":6,""viewing_time"":11049.099999904633}]","29459.39999985695","","","","","","","","","","","",""
"","instructions","2","50174","0.0-2.0","3KAKFY4PGVOI2EXOLSB7XUNESX73IJ","A32K4W6B31XWVR","3EHVO81VN57KAWAV14A1K6BEMLH1HG","[{""page_index"":0,""viewing_time"":13960.299999952316},{""page_index"":1,""viewing_time"":1511.7000000476837}]","15472.400000095367","","","","","","","","","","","",""
"","image-keyboard-response","3","51063","0.0-3.0","3KAKFY4PGVOI2EXOLSB7XUNESX73IJ","A32K4W6B31XWVR","3EHVO81VN57KAWAV14A1K6BEMLH1HG","","886.9000000953674","img/food5.png","74","888.8999998569489","1","0","false","1","2","1,0.5,0,1,0.5,0,0.5,0,1","0,1,0.5,0,1,0.5,1,0.5,0","3",""
"","html-keyboard-response","4","51367","0.0-4.0","3KAKFY4PGVOI2EXOLSB7XUNESX73IJ","A32K4W6B31XWVR","3EHVO81VN57KAWAV14A1K6BEMLH1HG","","null","<img src=""img/food5.png"" style=""width:200px;border:14px solid red;"">","null","","","","","","","","","",""
"","image-keyboard-response","5","51784","0.0-6.0","3KAKFY4PGVOI2EXOLSB7XUNESX73IJ","A32K4W6B31XWVR","3EHVO81VN57KAWAV14A1K6BEMLH1HG","","414.5","img/food4.png","75","415.60000014305115","2","1","false","2","2","1,0.5,0,1,0.5,0,0.5,0,1","0,1,0.5,0,1,0.5,1,0.5,0","3",""
"","html-keyboard-response","6","52086","0.0-7.0","3KAKFY4PGVOI2EXOLSB7XUNESX73IJ","A32K4W6B31XWVR","3EHVO81VN57KAWAV14A1K6BEMLH1HG","","null","<img src=""img/food4.png"" style=""width:200px; border:14px solid green;"">","null","","","","","","","","","",""
"","image-keyboard-response","7","52758","0.0-9.0","3KAKFY4PGVOI2EXOLSB7XUNESX73IJ","A32K4W6B31XWVR","3EHVO81VN57KAWAV14A1K6BEMLH1HG","","670.2000000476837","img/food2.png","76","671.2000000476837","3","0","false","3","2","1,0.5,0,1,0.5,0,0.5,0,1","0,1,0.5,0,1,0.5,1,0.5,0","3",""
"","html-keyboard-response","8","53060","0.0-10.0","3KAKFY4PGVOI2EXOLSB7XUNESX73IJ","A32K4W6B31XWVR","3EHVO81VN57KAWAV14A1K6BEMLH1HG","","null","<img src=""img/food2.png"" style=""width:200px;border:14px solid red;"">","null","","","","","","","","","",""
"","image-keyboard-response","9","53693","0.0-12.0","3KAKFY4PGVOI2EXOLSB7XUNESX73IJ","A32K4W6B31XWVR","3EHVO81VN57KAWAV14A1K6BEMLH1HG","","630.8999998569489","img/food2.png","76","632.4000000953674","3","0","false","3","2","1,0.5,0,1,0.5,0,0.5,0,1","0,1,0.5,0,1,0.5,1,0.5,0","3",""
"","html-keyboard-response","10","53995","0.0-13.0","3KAKFY4PGVOI2EXOLSB7XUNESX73IJ","A32K4W6B31XWVR","3EHVO81VN57KAWAV14A1K6BEMLH1HG","","null","<img src=""img/food2.png"" style=""width:200px;border:14px solid red;"">","null","","","","","","","","","",""
"","image-keyboard-response","11","54309","0.0-15.0","3KAKFY4PGVOI2EXOLSB7XUNESX73IJ","A32K4W6B31XWVR","3EHVO81VN57KAWAV14A1K6BEMLH1HG","","312.2000000476837","img/food2.png","74","313.2999999523163","1","1","false","3","2","1,0.5,0,1,0.5,0,0.5,0,1","0,1,0.5,0,1,0.5,1,0.5,0","3",""
"","html-keyboard-response","12","54611","0.0-16.0","3KAKFY4PGVOI2EXOLSB7XUNESX73IJ","A32K4W6B31XWVR","3EHVO81VN57KAWAV14A1K6BEMLH1HG","","null","<img src=""img/food2.png"" style=""width:200px; border:14px solid green;"">","null","","","","","","","","","",""
"","image-keyboard-response","13","54990","0.0-18.0","3KAKFY4PGVOI2EXOLSB7XUNESX73IJ","A32K4W6B31XWVR","3EHVO81VN57KAWAV14A1K6BEMLH1HG","","376.7999999523163","img/food2.png","74","377.80000019073486","1","1","false","3","2","1,0.5,0,1,0.5,0,0.5,0,1","0,1,0.5,0,1,0.5,1,0.5,0","3",""
"","html-keyboard-response","14","55292","0.0-19.0","3KAKFY4PGVOI2EXOLSB7XUNESX73IJ","A32K4W6B31XWVR","3EHVO81VN57KAWAV14A1K6BEMLH1HG","","null","<img src=""img/food2.png"" style=""width:200px; border:14px solid green;"">","null","","","","","","","","","",""
"","image-keyboard-response","15","55806","0.0-21.0","3KAKFY4PGVOI2EXOLSB7XUNESX73IJ","A32K4W6B31XWVR","3EHVO81VN57KAWAV14A1K6BEMLH1HG","","512.2000000476837","img/food5.png","75","513.2000000476837","2","1","false","1","2","1,0.5,0,1,0.5,0,0.5,0,1","0,1,0.5,0,1,0.5,1,0.5,0","3",""
"","html-keyboard-response","16","56108","0.0-22.0","3KAKFY4PGVOI2EXOLSB7XUNESX73IJ","A32K4W6B31XWVR","3EHVO81VN57KAWAV14A1K6BEMLH1HG","","null","<img src=""img/food5.png"" style=""width:200px; border:14px solid green;"">","null","","","","","","","","","",""
"","image-keyboard-response","17","56430","0.0-24.0","3KAKFY4PGVOI2EXOLSB7XUNESX73IJ","A32K4W6B31XWVR","3EHVO81VN57KAWAV14A1K6BEMLH1HG","","320.90000009536743","img/food5.png","75","321.5","2","1","false","1","2","1,0.5,0,1,0.5,0,0.5,0,1","0,1,0.5,0,1,0.5,1,0.5,0","3",""
"","html-keyboard-response","18","56733","0.0-25.0","3KAKFY4PGVOI2EXOLSB7XUNESX73IJ","A32K4W6B31XWVR","3EHVO81VN57KAWAV14A1K6BEMLH1HG","","null","<img src=""img/food5.png"" style=""width:200px; border:14px solid green;"">","null","","","","","","","","","",""
"","image-keyboard-response","19","57355","0.0-27.0","3KAKFY4PGVOI2EXOLSB7XUNESX73IJ","A32K4W6B31XWVR","3EHVO81VN57KAWAV14A1K6BEMLH1HG","","621.6000001430511","img/food4.png","74","622.5","1","0","false","2","2","1,0.5,0,1,0.5,0,0.5,0,1","0,1,0.5,0,1,0.5,1,0.5,0","3",""
"","html-keyboard-response","20","57658","0.0-28.0","3KAKFY4PGVOI2EXOLSB7XUNESX73IJ","A32K4W6B31XWVR","3EHVO81VN57KAWAV14A1K6BEMLH1HG","","null","<img src=""img/food4.png"" style=""width:200px;border:14px solid red;"">","null","","","","","","","","","",""
"","image-keyboard-response","21","58186","0.0-30.0","3KAKFY4PGVOI2EXOLSB7XUNESX73IJ","A32K4W6B31XWVR","3EHVO81VN57KAWAV14A1K6BEMLH1HG","","526.5","img/food5.png","75","527.6999998092651","2","1","false","1","2","1,0.5,0,1,0.5,0,0.5,0,1","0,1,0.5,0,1,0.5,1,0.5,0","3",""
"","html-keyboard-response","22","58490","0.0-31.0","3KAKFY4PGVOI2EXOLSB7XUNESX73IJ","A32K4W6B31XWVR","3EHVO81VN57KAWAV14A1K6BEMLH1HG","","null","<img src=""img/food5.png"" style=""width:200px; border:14px solid green;"">","null","","","","","","","","","",""
"","image-keyboard-response","23","58780","0.0-33.0","3KAKFY4PGVOI2EXOLSB7XUNESX73IJ","A32K4W6B31XWVR","3EHVO81VN57KAWAV14A1K6BEMLH1HG","","289.40000009536743","img/food5.png","75","290.40000009536743","2","1","false","1","2","1,0.5,0,1,0.5,0,0.5,0,1","0,1,0.5,0,1,0.5,1,0.5,0","3",""
"","html-keyboard-response","24","59082","0.0-34.0","3KAKFY4PGVOI2EXOLSB7XUNESX73IJ","A32K4W6B31XWVR","3EHVO81VN57KAWAV14A1K6BEMLH1HG","","null","<img src=""img/food5.png"" style=""width:200px; border:14px solid green;"">","null","","","","","","","","","",""
"","image-keyboard-response","25","59769","0.0-36.0","3KAKFY4PGVOI2EXOLSB7XUNESX73IJ","A32K4W6B31XWVR","3EHVO81VN57KAWAV14A1K6BEMLH1HG","","685.5","img/food2.png","76","686.7000000476837","3","0","false","3","2","1,0.5,0,1,0.5,0,0.5,0,1","0,1,0.5,0,1,0.5,1,0.5,0","3",""
"","html-keyboard-response","26","60072","0.0-37.0","3KAKFY4PGVOI2EXOLSB7XUNESX73IJ","A32K4W6B31XWVR","3EHVO81VN57KAWAV14A1K6BEMLH1HG","","null","<img src=""img/food2.png"" style=""width:200px;border:14px solid red;"">","null","","","","","","","","","",""
"","image-keyboard-response","27","60777","0.0-39.0","3KAKFY4PGVOI2EXOLSB7XUNESX73IJ","A32K4W6B31XWVR","3EHVO81VN57KAWAV14A1K6BEMLH1HG","","704.6000001430511","img/food5.png","76","705.2000000476837","3","0","false","1","2","1,0.5,0,1,0.5,0,0.5,0,1","0,1,0.5,0,1,0.5,1,0.5,0","3",""
"","html-keyboard-response","28","61079","0.0-40.0","3KAKFY4PGVOI2EXOLSB7XUNESX73IJ","A32K4W6B31XWVR","3EHVO81VN57KAWAV14A1K6BEMLH1HG","","null","<img src=""img/food5.png"" style=""width:200px;border:14px solid red;"">","null","","","","","","","","","",""
"","image-keyboard-response","29","61403","0.0-42.0","3KAKFY4PGVOI2EXOLSB7XUNESX73IJ","A32K4W6B31XWVR","3EHVO81VN57KAWAV14A1K6BEMLH1HG","","322.7000000476837","img/food5.png","75","324","2","1","false","1","2","1,0.5,0,1,0.5,0,0.5,0,1","0,1,0.5,0,1,0.5,1,0.5,0","3",""
"","html-keyboard-response","30","61705","0.0-43.0","3KAKFY4PGVOI2EXOLSB7XUNESX73IJ","A32K4W6B31XWVR","3EHVO81VN57KAWAV14A1K6BEMLH1HG","","null","<img src=""img/food5.png"" style=""width:200px; border:14px solid green;"">","null","","","","","","","","","",""
"","image-keyboard-response","31","62233","0.0-45.0","3KAKFY4PGVOI2EXOLSB7XUNESX73IJ","A32K4W6B31XWVR","3EHVO81VN57KAWAV14A1K6BEMLH1HG","","526.7000000476837","img/food2.png","74","527.7999999523163","1","1","false","3","2","1,0.5,0,1,0.5,0,0.5,0,1","0,1,0.5,0,1,0.5,1,0.5,0","3",""
"","html-keyboard-response","32","62536","0.0-46.0","3KAKFY4PGVOI2EXOLSB7XUNESX73IJ","A32K4W6B31XWVR","3EHVO81VN57KAWAV14A1K6BEMLH1HG","","null","<img src=""img/food2.png"" style=""width:200px; border:14px solid green;"">","null","","","","","","","","","",""
"","image-keyboard-response","33","62860","0.0-48.0","3KAKFY4PGVOI2EXOLSB7XUNESX73IJ","A32K4W6B31XWVR","3EHVO81VN57KAWAV14A1K6BEMLH1HG","","322.7999999523163","img/food2.png","74","323.7999999523163","1","1","false","3","2","1,0.5,0,1,0.5,0,0.5,0,1","0,1,0.5,0,1,0.5,1,0.5,0","3",""
"","html-keyboard-response","34","63162","0.0-49.0","3KAKFY4PGVOI2EXOLSB7XUNESX73IJ","A32K4W6B31XWVR","3EHVO81VN57KAWAV14A1K6BEMLH1HG","","null","<img src=""img/food2.png"" style=""width:200px; border:14px solid green;"">","null","","","","","","","","","",""
"","image-keyboard-response","35","63626","0.0-51.0","3KAKFY4PGVOI2EXOLSB7XUNESX73IJ","A32K4W6B31XWVR","3EHVO81VN57KAWAV14A1K6BEMLH1HG","","461.90000009536743","img/food4.png","76","463","3","1","false","2","2","1,0.5,0,1,0.5,0,0.5,0,1","0,1,0.5,0,1,0.5,1,0.5,0","3",""
"","html-keyboard-response","36","63927","0.0-52.0","3KAKFY4PGVOI2EXOLSB7XUNESX73IJ","A32K4W6B31XWVR","3EHVO81VN57KAWAV14A1K6BEMLH1HG","","null","<img src=""img/food4.png"" style=""width:200px; border:14px solid green;"">","null","","","","","","","","","",""
"","image-keyboard-response","37","64416","0.0-54.0","3KAKFY4PGVOI2EXOLSB7XUNESX73IJ","A32K4W6B31XWVR","3EHVO81VN57KAWAV14A1K6BEMLH1HG","","487.09999990463257","img/food2.png","74","488.09999990463257","1","1","false","3","2","1,0.5,0,1,0.5,0,0.5,0,1","0,1,0.5,0,1,0.5,1,0.5,0","3",""
"","html-keyboard-response","38","64718","0.0-55.0","3KAKFY4PGVOI2EXOLSB7XUNESX73IJ","A32K4W6B31XWVR","3EHVO81VN57KAWAV14A1K6BEMLH1HG","","null","<img src=""img/food2.png"" style=""width:200px; border:14px solid green;"">","null","","","","","","","","","",""
"","image-keyboard-response","39","65347","0.0-57.0","3KAKFY4PGVOI2EXOLSB7XUNESX73IJ","A32K4W6B31XWVR","3EHVO81VN57KAWAV14A1K6BEMLH1HG","","626.5","img/food5.png","75","627.7000000476837","2","1","false","1","2","1,0.5,0,1,0.5,0,0.5,0,1","0,1,0.5,0,1,0.5,1,0.5,0","3",""
"","html-keyboard-response","40","65649","0.0-58.0","3KAKFY4PGVOI2EXOLSB7XUNESX73IJ","A32K4W6B31XWVR","3EHVO81VN57KAWAV14A1K6BEMLH1HG","","null","<img src=""img/food5.png"" style=""width:200px; border:14px solid green;"">","null","","","","","","","","","",""
"","image-keyboard-response","41","66031","0.0-60.0","3KAKFY4PGVOI2EXOLSB7XUNESX73IJ","A32K4W6B31XWVR","3EHVO81VN57KAWAV14A1K6BEMLH1HG","","380.2999999523163","img/food5.png","75","381.2999999523163","2","1","false","1","2","1,0.5,0,1,0.5,0,0.5,0,1","0,1,0.5,0,1,0.5,1,0.5,0","3",""
"","html-keyboard-response","42","66333","0.0-61.0","3KAKFY4PGVOI2EXOLSB7XUNESX73IJ","A32K4W6B31XWVR","3EHVO81VN57KAWAV14A1K6BEMLH1HG","","null","<img src=""img/food5.png"" style=""width:200px; border:14px solid green;"">","null","","","","","","","","","",""
"","image-keyboard-response","43","66927","0.0-63.0","3KAKFY4PGVOI2EXOLSB7XUNESX73IJ","A32K4W6B31XWVR","3EHVO81VN57KAWAV14A1K6BEMLH1HG","","592.2000000476837","img/food2.png","76","593.2999999523163","3","0","false","3","2","1,0.5,0,1,0.5,0,0.5,0,1","0,1,0.5,0,1,0.5,1,0.5,0","3",""
"","html-keyboard-response","44","67229","0.0-64.0","3KAKFY4PGVOI2EXOLSB7XUNESX73IJ","A32K4W6B31XWVR","3EHVO81VN57KAWAV14A1K6BEMLH1HG","","null","<img src=""img/food2.png"" style=""width:200px;border:14px solid red;"">","null","","","","","","","","","",""
"","image-keyboard-response","45","67753","0.0-66.0","3KAKFY4PGVOI2EXOLSB7XUNESX73IJ","A32K4W6B31XWVR","3EHVO81VN57KAWAV14A1K6BEMLH1HG","","522.0999999046326","img/food4.png","74","523.2000000476837","1","0","false","2","2","1,0.5,0,1,0.5,0,0.5,0,1","0,1,0.5,0,1,0.5,1,0.5,0","3",""
"","html-keyboard-response","46","68054","0.0-67.0","3KAKFY4PGVOI2EXOLSB7XUNESX73IJ","A32K4W6B31XWVR","3EHVO81VN57KAWAV14A1K6BEMLH1HG","","null","<img src=""img/food4.png"" style=""width:200px;border:14px solid red;"">","null","","","","","","","","","",""
"","image-keyboard-response","47","69057","0.0-69.0","3KAKFY4PGVOI2EXOLSB7XUNESX73IJ","A32K4W6B31XWVR","3EHVO81VN57KAWAV14A1K6BEMLH1HG","","","img/food2.png","","1003","-1","0","true","3","2","1,0.5,0,1,0.5,0,0.5,0,1","0,1,0.5,0,1,0.5,1,0.5,0","3",""
"","html-keyboard-response","48","69360","0.0-70.0","3KAKFY4PGVOI2EXOLSB7XUNESX73IJ","A32K4W6B31XWVR","3EHVO81VN57KAWAV14A1K6BEMLH1HG","","null","<img src=""img/food2.png"" style=""width:200px;border:14px solid red;"">","null","","","","","","","","","",""
"","html-keyboard-response","49","74692","0.0-71.0-0.0","3KAKFY4PGVOI2EXOLSB7XUNESX73IJ","A32K4W6B31XWVR","3EHVO81VN57KAWAV14A1K6BEMLH1HG","","","","","","","","","","","","","",""
"","image-keyboard-response","50","75632","0.0-72.0","3KAKFY4PGVOI2EXOLSB7XUNESX73IJ","A32K4W6B31XWVR","3EHVO81VN57KAWAV14A1K6BEMLH1HG","","937.5999999046326","img/food5.png","74","938.7999999523163","1","0","false","1","2","1,0.5,0,1,0.5,0,0.5,0,1","0,1,0.5,0,1,0.5,1,0.5,0","3",""
"","html-keyboard-response","51","75934","0.0-73.0","3KAKFY4PGVOI2EXOLSB7XUNESX73IJ","A32K4W6B31XWVR","3EHVO81VN57KAWAV14A1K6BEMLH1HG","","null","<img src=""img/food5.png"" style=""width:200px;border:14px solid red;"">","null","","","","","","","","","",""
"","image-keyboard-response","52","76158","0.0-75.0","3KAKFY4PGVOI2EXOLSB7XUNESX73IJ","A32K4W6B31XWVR","3EHVO81VN57KAWAV14A1K6BEMLH1HG","","223.09999990463257","img/food2.png","75","224.20000004768372","2","1","false","3","2","1,0.5,0,1,0.5,0,0.5,0,1","0,1,0.5,0,1,0.5,1,0.5,0","3",""
"","html-keyboard-response","53","76461","0.0-76.0","3KAKFY4PGVOI2EXOLSB7XUNESX73IJ","A32K4W6B31XWVR","3EHVO81VN57KAWAV14A1K6BEMLH1HG","","null","<img src=""img/food2.png"" style=""width:200px; border:14px solid green;"">","null","","","","","","","","","",""
"","image-keyboard-response","54","76814","0.0-78.0","3KAKFY4PGVOI2EXOLSB7XUNESX73IJ","A32K4W6B31XWVR","3EHVO81VN57KAWAV14A1K6BEMLH1HG","","351.59999990463257","img/food2.png","76","352.7000000476837","3","0","false","3","2","1,0.5,0,1,0.5,0,0.5,0,1","0,1,0.5,0,1,0.5,1,0.5,0","3",""
"","html-keyboard-response","55","77115","0.0-79.0","3KAKFY4PGVOI2EXOLSB7XUNESX73IJ","A32K4W6B31XWVR","3EHVO81VN57KAWAV14A1K6BEMLH1HG","","null","<img src=""img/food2.png"" style=""width:200px;border:14px solid red;"">","null","","","","","","","","","",""
"","image-keyboard-response","56","77420","0.0-81.0","3KAKFY4PGVOI2EXOLSB7XUNESX73IJ","A32K4W6B31XWVR","3EHVO81VN57KAWAV14A1K6BEMLH1HG","","303.40000009536743","img/food2.png","75","304.59999990463257","2","1","false","3","2","1,0.5,0,1,0.5,0,0.5,0,1","0,1,0.5,0,1,0.5,1,0.5,0","3",""
"","html-keyboard-response","57","77723","0.0-82.0","3KAKFY4PGVOI2EXOLSB7XUNESX73IJ","A32K4W6B31XWVR","3EHVO81VN57KAWAV14A1K6BEMLH1HG","","null","<img src=""img/food2.png"" style=""width:200px; border:14px solid green;"">","null","","","","","","","","","",""
"","image-keyboard-response","58","77997","0.0-84.0","3KAKFY4PGVOI2EXOLSB7XUNESX73IJ","A32K4W6B31XWVR","3EHVO81VN57KAWAV14A1K6BEMLH1HG","","271.59999990463257","img/food2.png","75","273","2","1","false","3","2","1,0.5,0,1,0.5,0,0.5,0,1","0,1,0.5,0,1,0.5,1,0.5,0","3",""
"","html-keyboard-response","59","78301","0.0-85.0","3KAKFY4PGVOI2EXOLSB7XUNESX73IJ","A32K4W6B31XWVR","3EHVO81VN57KAWAV14A1K6BEMLH1HG","","null","<img src=""img/food2.png"" style=""width:200px; border:14px solid green;"">","null","","","","","","","","","",""
"","image-keyboard-response","60","78574","0.0-87.0","3KAKFY4PGVOI2EXOLSB7XUNESX73IJ","A32K4W6B31XWVR","3EHVO81VN57KAWAV14A1K6BEMLH1HG","","271.80000019073486","img/food2.png","75","272.59999990463257","2","0","false","3","2","1,0.5,0,1,0.5,0,0.5,0,1","0,1,0.5,0,1,0.5,1,0.5,0","3",""
"","html-keyboard-response","61","78876","0.0-88.0","3KAKFY4PGVOI2EXOLSB7XUNESX73IJ","A32K4W6B31XWVR","3EHVO81VN57KAWAV14A1K6BEMLH1HG","","null","<img src=""img/food2.png"" style=""width:200px;border:14px solid red;"">","null","","","","","","","","","",""
"","image-keyboard-response","62","79459","0.0-90.0","3KAKFY4PGVOI2EXOLSB7XUNESX73IJ","A32K4W6B31XWVR","3EHVO81VN57KAWAV14A1K6BEMLH1HG","","581.7000000476837","img/food4.png","74","582.9000000953674","1","0","false","2","2","1,0.5,0,1,0.5,0,0.5,0,1","0,1,0.5,0,1,0.5,1,0.5,0","3",""
"","html-keyboard-response","63","79763","0.0-91.0","3KAKFY4PGVOI2EXOLSB7XUNESX73IJ","A32K4W6B31XWVR","3EHVO81VN57KAWAV14A1K6BEMLH1HG","","null","<img src=""img/food4.png"" style=""width:200px;border:14px solid red;"">","null","","","","","","","","","",""
"","image-keyboard-response","64","80029","0.0-93.0","3KAKFY4PGVOI2EXOLSB7XUNESX73IJ","A32K4W6B31XWVR","3EHVO81VN57KAWAV14A1K6BEMLH1HG","","265.40000009536743","img/food2.png","75","266.2999999523163","2","1","false","3","2","1,0.5,0,1,0.5,0,0.5,0,1","0,1,0.5,0,1,0.5,1,0.5,0","3",""
"","html-keyboard-response","65","80331","0.0-94.0","3KAKFY4PGVOI2EXOLSB7XUNESX73IJ","A32K4W6B31XWVR","3EHVO81VN57KAWAV14A1K6BEMLH1HG","","null","<img src=""img/food2.png"" style=""width:200px; border:14px solid green;"">","null","","","","","","","","","",""
"","image-keyboard-response","66","80582","0.0-96.0","3KAKFY4PGVOI2EXOLSB7XUNESX73IJ","A32K4W6B31XWVR","3EHVO81VN57KAWAV14A1K6BEMLH1HG","","248.89999985694885","img/food4.png","75","249.90000009536743","2","1","false","2","2","1,0.5,0,1,0.5,0,0.5,0,1","0,1,0.5,0,1,0.5,1,0.5,0","3",""
"","html-keyboard-response","67","80885","0.0-97.0","3KAKFY4PGVOI2EXOLSB7XUNESX73IJ","A32K4W6B31XWVR","3EHVO81VN57KAWAV14A1K6BEMLH1HG","","null","<img src=""img/food4.png"" style=""width:200px; border:14px solid green;"">","null","","","","","","","","","",""
"","image-keyboard-response","68","81195","0.0-99.0","3KAKFY4PGVOI2EXOLSB7XUNESX73IJ","A32K4W6B31XWVR","3EHVO81VN57KAWAV14A1K6BEMLH1HG","","308.5","img/food5.png","76","309.5","3","0","false","1","2","1,0.5,0,1,0.5,0,0.5,0,1","0,1,0.5,0,1,0.5,1,0.5,0","3",""
"","html-keyboard-response","69","81497","0.0-100.0","3KAKFY4PGVOI2EXOLSB7XUNESX73IJ","A32K4W6B31XWVR","3EHVO81VN57KAWAV14A1K6BEMLH1HG","","null","<img src=""img/food5.png"" style=""width:200px;border:14px solid red;"">","null","","","","","","","","","",""
"","image-keyboard-response","70","81637","0.0-102.0","3KAKFY4PGVOI2EXOLSB7XUNESX73IJ","A32K4W6B31XWVR","3EHVO81VN57KAWAV14A1K6BEMLH1HG","","138.70000004768372","img/food5.png","75","140","2","1","false","1","2","1,0.5,0,1,0.5,0,0.5,0,1","0,1,0.5,0,1,0.5,1,0.5,0","3",""
"","html-keyboard-response","71","81939","0.0-103.0","3KAKFY4PGVOI2EXOLSB7XUNESX73IJ","A32K4W6B31XWVR","3EHVO81VN57KAWAV14A1K6BEMLH1HG","","null","<img src=""img/food5.png"" style=""width:200px; border:14px solid green;"">","null","","","","","","","","","",""
"","image-keyboard-response","72","82278","0.0-105.0","3KAKFY4PGVOI2EXOLSB7XUNESX73IJ","A32K4W6B31XWVR","3EHVO81VN57KAWAV14A1K6BEMLH1HG","","337.09999990463257","img/food4.png","75","338.2000000476837","2","1","false","2","2","1,0.5,0,1,0.5,0,0.5,0,1","0,1,0.5,0,1,0.5,1,0.5,0","3",""
"","html-keyboard-response","73","82581","0.0-106.0","3KAKFY4PGVOI2EXOLSB7XUNESX73IJ","A32K4W6B31XWVR","3EHVO81VN57KAWAV14A1K6BEMLH1HG","","null","<img src=""img/food4.png"" style=""width:200px; border:14px solid green;"">","null","","","","","","","","","",""
"","image-keyboard-response","74","82835","0.0-108.0","3KAKFY4PGVOI2EXOLSB7XUNESX73IJ","A32K4W6B31XWVR","3EHVO81VN57KAWAV14A1K6BEMLH1HG","","252.39999985694885","img/food5.png","75","253.5","2","1","false","1","2","1,0.5,0,1,0.5,0,0.5,0,1","0,1,0.5,0,1,0.5,1,0.5,0","3",""
"","html-keyboard-response","75","83137","0.0-109.0","3KAKFY4PGVOI2EXOLSB7XUNESX73IJ","A32K4W6B31XWVR","3EHVO81VN57KAWAV14A1K6BEMLH1HG","","null","<img src=""img/food5.png"" style=""width:200px; border:14px solid green;"">","null","","","","","","","","","",""
"","image-keyboard-response","76","83372","0.0-111.0","3KAKFY4PGVOI2EXOLSB7XUNESX73IJ","A32K4W6B31XWVR","3EHVO81VN57KAWAV14A1K6BEMLH1HG","","233","img/food5.png","75","234.09999990463257","2","1","false","1","2","1,0.5,0,1,0.5,0,0.5,0,1","0,1,0.5,0,1,0.5,1,0.5,0","3",""
"","html-keyboard-response","77","83675","0.0-112.0","3KAKFY4PGVOI2EXOLSB7XUNESX73IJ","A32K4W6B31XWVR","3EHVO81VN57KAWAV14A1K6BEMLH1HG","","null","<img src=""img/food5.png"" style=""width:200px; border:14px solid green;"">","null","","","","","","","","","",""
"","image-keyboard-response","78","83913","0.0-114.0","3KAKFY4PGVOI2EXOLSB7XUNESX73IJ","A32K4W6B31XWVR","3EHVO81VN57KAWAV14A1K6BEMLH1HG","","237.10000014305115","img/food4.png","75","238.29999995231628","2","1","false","2","2","1,0.5,0,1,0.5,0,0.5,0,1","0,1,0.5,0,1,0.5,1,0.5,0","3",""
"","html-keyboard-response","79","84216","0.0-115.0","3KAKFY4PGVOI2EXOLSB7XUNESX73IJ","A32K4W6B31XWVR","3EHVO81VN57KAWAV14A1K6BEMLH1HG","","null","<img src=""img/food4.png"" style=""width:200px; border:14px solid green;"">","null","","","","","","","","","",""
"","image-keyboard-response","80","84419","0.0-117.0","3KAKFY4PGVOI2EXOLSB7XUNESX73IJ","A32K4W6B31XWVR","3EHVO81VN57KAWAV14A1K6BEMLH1HG","","202.70000004768372","img/food2.png","75","203.29999995231628","2","1","false","3","2","1,0.5,0,1,0.5,0,0.5,0,1","0,1,0.5,0,1,0.5,1,0.5,0","3",""
"","html-keyboard-response","81","84721","0.0-118.0","3KAKFY4PGVOI2EXOLSB7XUNESX73IJ","A32K4W6B31XWVR","3EHVO81VN57KAWAV14A1K6BEMLH1HG","","null","<img src=""img/food2.png"" style=""width:200px; border:14px solid green;"">","null","","","","","","","","","",""
"","image-keyboard-response","82","84958","0.0-120.0","3KAKFY4PGVOI2EXOLSB7XUNESX73IJ","A32K4W6B31XWVR","3EHVO81VN57KAWAV14A1K6BEMLH1HG","","235.29999995231628","img/food5.png","75","236.40000009536743","2","1","false","1","2","1,0.5,0,1,0.5,0,0.5,0,1","0,1,0.5,0,1,0.5,1,0.5,0","3",""
"","html-keyboard-response","83","85260","0.0-121.0","3KAKFY4PGVOI2EXOLSB7XUNESX73IJ","A32K4W6B31XWVR","3EHVO81VN57KAWAV14A1K6BEMLH1HG","","null","<img src=""img/food5.png"" style=""width:200px; border:14px solid green;"">","null","","","","","","","","","",""
"","image-keyboard-response","84","85549","0.0-123.0","3KAKFY4PGVOI2EXOLSB7XUNESX73IJ","A32K4W6B31XWVR","3EHVO81VN57KAWAV14A1K6BEMLH1HG","","287.7999999523163","img/food5.png","75","289","2","1","false","1","2","1,0.5,0,1,0.5,0,0.5,0,1","0,1,0.5,0,1,0.5,1,0.5,0","3",""
"","html-keyboard-response","85","85851","0.0-124.0","3KAKFY4PGVOI2EXOLSB7XUNESX73IJ","A32K4W6B31XWVR","3EHVO81VN57KAWAV14A1K6BEMLH1HG","","null","<img src=""img/food5.png"" style=""width:200px; border:14px solid green;"">","null","","","","","","","","","",""
"","image-keyboard-response","86","86096","0.0-126.0","3KAKFY4PGVOI2EXOLSB7XUNESX73IJ","A32K4W6B31XWVR","3EHVO81VN57KAWAV14A1K6BEMLH1HG","","243.39999985694885","img/food5.png","75","244.39999985694885","2","1","false","1","2","1,0.5,0,1,0.5,0,0.5,0,1","0,1,0.5,0,1,0.5,1,0.5,0","3",""
"","html-keyboard-response","87","86399","0.0-127.0","3KAKFY4PGVOI2EXOLSB7XUNESX73IJ","A32K4W6B31XWVR","3EHVO81VN57KAWAV14A1K6BEMLH1HG","","null","<img src=""img/food5.png"" style=""width:200px; border:14px solid green;"">","null","","","","","","","","","",""
"","image-keyboard-response","88","86654","0.0-129.0","3KAKFY4PGVOI2EXOLSB7XUNESX73IJ","A32K4W6B31XWVR","3EHVO81VN57KAWAV14A1K6BEMLH1HG","","252.79999995231628","img/food2.png","75","254.09999990463257","2","1","false","3","2","1,0.5,0,1,0.5,0,0.5,0,1","0,1,0.5,0,1,0.5,1,0.5,0","3",""
"","html-keyboard-response","89","86956","0.0-130.0","3KAKFY4PGVOI2EXOLSB7XUNESX73IJ","A32K4W6B31XWVR","3EHVO81VN57KAWAV14A1K6BEMLH1HG","","null","<img src=""img/food2.png"" style=""width:200px; border:14px solid green;"">","null","","","","","","","","","",""
"","image-keyboard-response","90","87125","0.0-132.0","3KAKFY4PGVOI2EXOLSB7XUNESX73IJ","A32K4W6B31XWVR","3EHVO81VN57KAWAV14A1K6BEMLH1HG","","167.70000004768372","img/food2.png","75","168.79999995231628","2","1","false","3","2","1,0.5,0,1,0.5,0,0.5,0,1","0,1,0.5,0,1,0.5,1,0.5,0","3",""
"","html-keyboard-response","91","87428","0.0-133.0","3KAKFY4PGVOI2EXOLSB7XUNESX73IJ","A32K4W6B31XWVR","3EHVO81VN57KAWAV14A1K6BEMLH1HG","","null","<img src=""img/food2.png"" style=""width:200px; border:14px solid green;"">","null","","","","","","","","","",""
"","image-keyboard-response","92","87701","0.0-135.0","3KAKFY4PGVOI2EXOLSB7XUNESX73IJ","A32K4W6B31XWVR","3EHVO81VN57KAWAV14A1K6BEMLH1HG","","271.80000019073486","img/food4.png","75","272.90000009536743","2","1","false","2","2","1,0.5,0,1,0.5,0,0.5,0,1","0,1,0.5,0,1,0.5,1,0.5,0","3",""
"","html-keyboard-response","93","88013","0.0-136.0","3KAKFY4PGVOI2EXOLSB7XUNESX73IJ","A32K4W6B31XWVR","3EHVO81VN57KAWAV14A1K6BEMLH1HG","","null","<img src=""img/food4.png"" style=""width:200px; border:14px solid green;"">","null","","","","","","","","","",""
"","image-keyboard-response","94","88214","0.0-138.0","3KAKFY4PGVOI2EXOLSB7XUNESX73IJ","A32K4W6B31XWVR","3EHVO81VN57KAWAV14A1K6BEMLH1HG","","198.70000004768372","img/food4.png","75","200","2","1","false","2","2","1,0.5,0,1,0.5,0,0.5,0,1","0,1,0.5,0,1,0.5,1,0.5,0","3",""
"","html-keyboard-response","95","88516","0.0-139.0","3KAKFY4PGVOI2EXOLSB7XUNESX73IJ","A32K4W6B31XWVR","3EHVO81VN57KAWAV14A1K6BEMLH1HG","","null","<img src=""img/food4.png"" style=""width:200px; border:14px solid green;"">","null","","","","","","","","","",""
"","image-keyboard-response","96","88775","0.0-141.0","3KAKFY4PGVOI2EXOLSB7XUNESX73IJ","A32K4W6B31XWVR","3EHVO81VN57KAWAV14A1K6BEMLH1HG","","258.2999999523163","img/food4.png","75","259.2999999523163","2","1","false","2","2","1,0.5,0,1,0.5,0,0.5,0,1","0,1,0.5,0,1,0.5,1,0.5,0","3",""
"","html-keyboard-response","97","89078","0.0-142.0","3KAKFY4PGVOI2EXOLSB7XUNESX73IJ","A32K4W6B31XWVR","3EHVO81VN57KAWAV14A1K6BEMLH1HG","","null","<img src=""img/food4.png"" style=""width:200px; border:14px solid green;"">","null","","","","","","","","","",""
"","image-keyboard-response","98","89298","0.0-144.0","3KAKFY4PGVOI2EXOLSB7XUNESX73IJ","A32K4W6B31XWVR","3EHVO81VN57KAWAV14A1K6BEMLH1HG","","217.70000004768372","img/food2.png","75","218.89999985694885","2","0","false","3","2","1,0.5,0,1,0.5,0,0.5,0,1","0,1,0.5,0,1,0.5,1,0.5,0","3",""
"","html-keyboard-response","99","89600","0.0-145.0","3KAKFY4PGVOI2EXOLSB7XUNESX73IJ","A32K4W6B31XWVR","3EHVO81VN57KAWAV14A1K6BEMLH1HG","","null","<img src=""img/food2.png"" style=""width:200px;border:14px solid red;"">","null","","","","","","","","","",""
"","image-keyboard-response","100","90008","0.0-147.0","3KAKFY4PGVOI2EXOLSB7XUNESX73IJ","A32K4W6B31XWVR","3EHVO81VN57KAWAV14A1K6BEMLH1HG","","406.2999999523163","img/food4.png","75","407.5","2","1","false","2","2","1,0.5,0,1,0.5,0,0.5,0,1","0,1,0.5,0,1,0.5,1,0.5,0","3",""
"","html-keyboard-response","101","90311","0.0-148.0","3KAKFY4PGVOI2EXOLSB7XUNESX73IJ","A32K4W6B31XWVR","3EHVO81VN57KAWAV14A1K6BEMLH1HG","","null","<img src=""img/food4.png"" style=""width:200px; border:14px solid green;"">","null","","","","","","","","","",""
"","image-keyboard-response","102","90530","0.0-150.0","3KAKFY4PGVOI2EXOLSB7XUNESX73IJ","A32K4W6B31XWVR","3EHVO81VN57KAWAV14A1K6BEMLH1HG","","218.20000004768372","img/food2.png","75","219.39999985694885","2","0","false","3","2","1,0.5,0,1,0.5,0,0.5,0,1","0,1,0.5,0,1,0.5,1,0.5,0","3",""
"","html-keyboard-response","103","90833","0.0-151.0","3KAKFY4PGVOI2EXOLSB7XUNESX73IJ","A32K4W6B31XWVR","3EHVO81VN57KAWAV14A1K6BEMLH1HG","","null","<img src=""img/food2.png"" style=""width:200px;border:14px solid red;"">","null","","","","","","","","","",""
"","image-keyboard-response","104","91027","0.0-153.0","3KAKFY4PGVOI2EXOLSB7XUNESX73IJ","A32K4W6B31XWVR","3EHVO81VN57KAWAV14A1K6BEMLH1HG","","193.20000004768372","img/food5.png","75","194.29999995231628","2","1","false","1","2","1,0.5,0,1,0.5,0,0.5,0,1","0,1,0.5,0,1,0.5,1,0.5,0","3",""
"","html-keyboard-response","105","91334","0.0-154.0","3KAKFY4PGVOI2EXOLSB7XUNESX73IJ","A32K4W6B31XWVR","3EHVO81VN57KAWAV14A1K6BEMLH1HG","","null","<img src=""img/food5.png"" style=""width:200px; border:14px solid green;"">","null","","","","","","","","","",""
"","image-keyboard-response","106","91554","0.0-156.0","3KAKFY4PGVOI2EXOLSB7XUNESX73IJ","A32K4W6B31XWVR","3EHVO81VN57KAWAV14A1K6BEMLH1HG","","218.89999985694885","img/food4.png","75","220","2","1","false","2","2","1,0.5,0,1,0.5,0,0.5,0,1","0,1,0.5,0,1,0.5,1,0.5,0","3",""
"","html-keyboard-response","107","91857","0.0-157.0","3KAKFY4PGVOI2EXOLSB7XUNESX73IJ","A32K4W6B31XWVR","3EHVO81VN57KAWAV14A1K6BEMLH1HG","","null","<img src=""img/food4.png"" style=""width:200px; border:14px solid green;"">","null","","","","","","","","","",""
"","image-keyboard-response","108","92012","0.0-159.0","3KAKFY4PGVOI2EXOLSB7XUNESX73IJ","A32K4W6B31XWVR","3EHVO81VN57KAWAV14A1K6BEMLH1HG","","153.39999985694885","img/food4.png","75","154.60000014305115","2","1","false","2","2","1,0.5,0,1,0.5,0,0.5,0,1","0,1,0.5,0,1,0.5,1,0.5,0","3",""
"","html-keyboard-response","109","92314","0.0-160.0","3KAKFY4PGVOI2EXOLSB7XUNESX73IJ","A32K4W6B31XWVR","3EHVO81VN57KAWAV14A1K6BEMLH1HG","","null","<img src=""img/food4.png"" style=""width:200px; border:14px solid green;"">","null","","","","","","","","","",""
"","image-keyboard-response","110","92539","0.0-162.0","3KAKFY4PGVOI2EXOLSB7XUNESX73IJ","A32K4W6B31XWVR","3EHVO81VN57KAWAV14A1K6BEMLH1HG","","223.29999995231628","img/food5.png","75","224.29999995231628","2","1","false","1","2","1,0.5,0,1,0.5,0,0.5,0,1","0,1,0.5,0,1,0.5,1,0.5,0","3",""
"","html-keyboard-response","111","92841","0.0-163.0","3KAKFY4PGVOI2EXOLSB7XUNESX73IJ","A32K4W6B31XWVR","3EHVO81VN57KAWAV14A1K6BEMLH1HG","","null","<img src=""img/food5.png"" style=""width:200px; border:14px solid green;"">","null","","","","","","","","","",""
"","image-keyboard-response","112","92971","0.0-165.0","3KAKFY4PGVOI2EXOLSB7XUNESX73IJ","A32K4W6B31XWVR","3EHVO81VN57KAWAV14A1K6BEMLH1HG","","129.20000004768372","img/food4.png","75","130.10000014305115","2","1","false","2","2","1,0.5,0,1,0.5,0,0.5,0,1","0,1,0.5,0,1,0.5,1,0.5,0","3",""
"","html-keyboard-response","113","93273","0.0-166.0","3KAKFY4PGVOI2EXOLSB7XUNESX73IJ","A32K4W6B31XWVR","3EHVO81VN57KAWAV14A1K6BEMLH1HG","","null","<img src=""img/food4.png"" style=""width:200px; border:14px solid green;"">","null","","","","","","","","","",""
"","image-keyboard-response","114","93473","0.0-168.0","3KAKFY4PGVOI2EXOLSB7XUNESX73IJ","A32K4W6B31XWVR","3EHVO81VN57KAWAV14A1K6BEMLH1HG","","198.59999990463257","img/food4.png","75","199.79999995231628","2","1","false","2","2","1,0.5,0,1,0.5,0,0.5,0,1","0,1,0.5,0,1,0.5,1,0.5,0","3",""
"","html-keyboard-response","115","93776","0.0-169.0","3KAKFY4PGVOI2EXOLSB7XUNESX73IJ","A32K4W6B31XWVR","3EHVO81VN57KAWAV14A1K6BEMLH1HG","","null","<img src=""img/food4.png"" style=""width:200px; border:14px solid green;"">","null","","","","","","","","","",""
"","image-keyboard-response","116","94010","0.0-171.0","3KAKFY4PGVOI2EXOLSB7XUNESX73IJ","A32K4W6B31XWVR","3EHVO81VN57KAWAV14A1K6BEMLH1HG","","232.5","img/food5.png","75","233.5","2","1","false","1","2","1,0.5,0,1,0.5,0,0.5,0,1","0,1,0.5,0,1,0.5,1,0.5,0","3",""
"","html-keyboard-response","117","94312","0.0-172.0","3KAKFY4PGVOI2EXOLSB7XUNESX73IJ","A32K4W6B31XWVR","3EHVO81VN57KAWAV14A1K6BEMLH1HG","","null","<img src=""img/food5.png"" style=""width:200px; border:14px solid green;"">","null","","","","","","","","","",""
"","image-keyboard-response","118","94408","0.0-174.0","3KAKFY4PGVOI2EXOLSB7XUNESX73IJ","A32K4W6B31XWVR","3EHVO81VN57KAWAV14A1K6BEMLH1HG","","94.60000014305115","img/food4.png","75","95.79999995231628","2","1","false","2","2","1,0.5,0,1,0.5,0,0.5,0,1","0,1,0.5,0,1,0.5,1,0.5,0","3",""
"","html-keyboard-response","119","94710","0.0-175.0","3KAKFY4PGVOI2EXOLSB7XUNESX73IJ","A32K4W6B31XWVR","3EHVO81VN57KAWAV14A1K6BEMLH1HG","","null","<img src=""img/food4.png"" style=""width:200px; border:14px solid green;"">","null","","","","","","","","","",""
"","image-keyboard-response","120","94839","0.0-177.0","3KAKFY4PGVOI2EXOLSB7XUNESX73IJ","A32K4W6B31XWVR","3EHVO81VN57KAWAV14A1K6BEMLH1HG","","128.59999990463257","img/food2.png","75","129.29999995231628","2","0","false","3","2","1,0.5,0,1,0.5,0,0.5,0,1","0,1,0.5,0,1,0.5,1,0.5,0","3",""
"","html-keyboard-response","121","95141","0.0-178.0","3KAKFY4PGVOI2EXOLSB7XUNESX73IJ","A32K4W6B31XWVR","3EHVO81VN57KAWAV14A1K6BEMLH1HG","","null","<img src=""img/food2.png"" style=""width:200px;border:14px solid red;"">","null","","","","","","","","","",""
"","image-keyboard-response","122","95487","0.0-180.0","3KAKFY4PGVOI2EXOLSB7XUNESX73IJ","A32K4W6B31XWVR","3EHVO81VN57KAWAV14A1K6BEMLH1HG","","344.5","img/food2.png","75","345.59999990463257","2","0","false","3","2","1,0.5,0,1,0.5,0,0.5,0,1","0,1,0.5,0,1,0.5,1,0.5,0","3",""
"","html-keyboard-response","123","95788","0.0-181.0","3KAKFY4PGVOI2EXOLSB7XUNESX73IJ","A32K4W6B31XWVR","3EHVO81VN57KAWAV14A1K6BEMLH1HG","","null","<img src=""img/food2.png"" style=""width:200px;border:14px solid red;"">","null","","","","","","","","","",""
"","image-keyboard-response","124","95904","0.0-183.0","3KAKFY4PGVOI2EXOLSB7XUNESX73IJ","A32K4W6B31XWVR","3EHVO81VN57KAWAV14A1K6BEMLH1HG","","114","img/food2.png","75","115.20000004768372","2","1","false","3","2","1,0.5,0,1,0.5,0,0.5,0,1","0,1,0.5,0,1,0.5,1,0.5,0","3",""
"","html-keyboard-response","125","96207","0.0-184.0","3KAKFY4PGVOI2EXOLSB7XUNESX73IJ","A32K4W6B31XWVR","3EHVO81VN57KAWAV14A1K6BEMLH1HG","","null","<img src=""img/food2.png"" style=""width:200px; border:14px solid green;"">","null","","","","","","","","","",""
"","image-keyboard-response","126","96476","0.0-186.0","3KAKFY4PGVOI2EXOLSB7XUNESX73IJ","A32K4W6B31XWVR","3EHVO81VN57KAWAV14A1K6BEMLH1HG","","267.7999999523163","img/food4.png","75","269","2","1","false","2","2","1,0.5,0,1,0.5,0,0.5,0,1","0,1,0.5,0,1,0.5,1,0.5,0","3",""
"","html-keyboard-response","127","96779","0.0-187.0","3KAKFY4PGVOI2EXOLSB7XUNESX73IJ","A32K4W6B31XWVR","3EHVO81VN57KAWAV14A1K6BEMLH1HG","","null","<img src=""img/food4.png"" style=""width:200px; border:14px solid green;"">","null","","","","","","","","","",""
"","image-keyboard-response","128","97033","0.0-189.0","3KAKFY4PGVOI2EXOLSB7XUNESX73IJ","A32K4W6B31XWVR","3EHVO81VN57KAWAV14A1K6BEMLH1HG","","251.79999995231628","img/food5.png","75","252.90000009536743","2","1","false","1","2","1,0.5,0,1,0.5,0,0.5,0,1","0,1,0.5,0,1,0.5,1,0.5,0","3",""
"","html-keyboard-response","129","97336","0.0-190.0","3KAKFY4PGVOI2EXOLSB7XUNESX73IJ","A32K4W6B31XWVR","3EHVO81VN57KAWAV14A1K6BEMLH1HG","","null","<img src=""img/food5.png"" style=""width:200px; border:14px solid green;"">","null","","","","","","","","","",""
"","image-keyboard-response","130","97551","0.0-192.0","3KAKFY4PGVOI2EXOLSB7XUNESX73IJ","A32K4W6B31XWVR","3EHVO81VN57KAWAV14A1K6BEMLH1HG","","212.90000009536743","img/food4.png","75","214.09999990463257","2","1","false","2","2","1,0.5,0,1,0.5,0,0.5,0,1","0,1,0.5,0,1,0.5,1,0.5,0","3",""
"","html-keyboard-response","131","97853","0.0-193.0","3KAKFY4PGVOI2EXOLSB7XUNESX73IJ","A32K4W6B31XWVR","3EHVO81VN57KAWAV14A1K6BEMLH1HG","","null","<img src=""img/food4.png"" style=""width:200px; border:14px solid green;"">","null","","","","","","","","","",""
"","image-keyboard-response","132","98060","0.0-195.0","3KAKFY4PGVOI2EXOLSB7XUNESX73IJ","A32K4W6B31XWVR","3EHVO81VN57KAWAV14A1K6BEMLH1HG","","205.59999990463257","img/food5.png","75","206.59999990463257","2","1","false","1","2","1,0.5,0,1,0.5,0,0.5,0,1","0,1,0.5,0,1,0.5,1,0.5,0","3",""
"","html-keyboard-response","133","98362","0.0-196.0","3KAKFY4PGVOI2EXOLSB7XUNESX73IJ","A32K4W6B31XWVR","3EHVO81VN57KAWAV14A1K6BEMLH1HG","","null","<img src=""img/food5.png"" style=""width:200px; border:14px solid green;"">","null","","","","","","","","","",""
"","image-keyboard-response","134","98625","0.0-198.0","3KAKFY4PGVOI2EXOLSB7XUNESX73IJ","A32K4W6B31XWVR","3EHVO81VN57KAWAV14A1K6BEMLH1HG","","260.89999985694885","img/food5.png","75","262","2","1","false","1","2","1,0.5,0,1,0.5,0,0.5,0,1","0,1,0.5,0,1,0.5,1,0.5,0","3",""
"","html-keyboard-response","135","98927","0.0-199.0","3KAKFY4PGVOI2EXOLSB7XUNESX73IJ","A32K4W6B31XWVR","3EHVO81VN57KAWAV14A1K6BEMLH1HG","","null","<img src=""img/food5.png"" style=""width:200px; border:14px solid green;"">","null","","","","","","","","","",""
"","image-keyboard-response","136","99056","0.0-201.0","3KAKFY4PGVOI2EXOLSB7XUNESX73IJ","A32K4W6B31XWVR","3EHVO81VN57KAWAV14A1K6BEMLH1HG","","127.10000014305115","img/food5.png","75","128.20000004768372","2","1","false","1","2","1,0.5,0,1,0.5,0,0.5,0,1","0,1,0.5,0,1,0.5,1,0.5,0","3",""
"","html-keyboard-response","137","99359","0.0-202.0","3KAKFY4PGVOI2EXOLSB7XUNESX73IJ","A32K4W6B31XWVR","3EHVO81VN57KAWAV14A1K6BEMLH1HG","","null","<img src=""img/food5.png"" style=""width:200px; border:14px solid green;"">","null","","","","","","","","","",""
"","image-keyboard-response","138","99584","0.0-204.0","3KAKFY4PGVOI2EXOLSB7XUNESX73IJ","A32K4W6B31XWVR","3EHVO81VN57KAWAV14A1K6BEMLH1HG","","223.90000009536743","img/food4.png","75","224.59999990463257","2","1","false","2","2","1,0.5,0,1,0.5,0,0.5,0,1","0,1,0.5,0,1,0.5,1,0.5,0","3",""
"","html-keyboard-response","139","99886","0.0-205.0","3KAKFY4PGVOI2EXOLSB7XUNESX73IJ","A32K4W6B31XWVR","3EHVO81VN57KAWAV14A1K6BEMLH1HG","","null","<img src=""img/food4.png"" style=""width:200px; border:14px solid green;"">","null","","","","","","","","","",""
"","image-keyboard-response","140","100079","0.0-207.0","3KAKFY4PGVOI2EXOLSB7XUNESX73IJ","A32K4W6B31XWVR","3EHVO81VN57KAWAV14A1K6BEMLH1HG","","192.29999995231628","img/food4.png","75","193","2","1","false","2","2","1,0.5,0,1,0.5,0,0.5,0,1","0,1,0.5,0,1,0.5,1,0.5,0","3",""
"","html-keyboard-response","141","100380","0.0-208.0","3KAKFY4PGVOI2EXOLSB7XUNESX73IJ","A32K4W6B31XWVR","3EHVO81VN57KAWAV14A1K6BEMLH1HG","","null","<img src=""img/food4.png"" style=""width:200px; border:14px solid green;"">","null","","","","","","","","","",""
"","image-keyboard-response","142","100583","0.0-210.0","3KAKFY4PGVOI2EXOLSB7XUNESX73IJ","A32K4W6B31XWVR","3EHVO81VN57KAWAV14A1K6BEMLH1HG","","201.59999990463257","img/food2.png","75","202.40000009536743","2","1","false","3","2","1,0.5,0,1,0.5,0,0.5,0,1","0,1,0.5,0,1,0.5,1,0.5,0","3",""
"","html-keyboard-response","143","100885","0.0-211.0","3KAKFY4PGVOI2EXOLSB7XUNESX73IJ","A32K4W6B31XWVR","3EHVO81VN57KAWAV14A1K6BEMLH1HG","","null","<img src=""img/food2.png"" style=""width:200px; border:14px solid green;"">","null","","","","","","","","","",""
"","image-keyboard-response","144","101044","0.0-213.0","3KAKFY4PGVOI2EXOLSB7XUNESX73IJ","A32K4W6B31XWVR","3EHVO81VN57KAWAV14A1K6BEMLH1HG","","157.30000019073486","img/food2.png","75","158.40000009536743","2","0","false","3","2","1,0.5,0,1,0.5,0,0.5,0,1","0,1,0.5,0,1,0.5,1,0.5,0","3",""
"","html-keyboard-response","145","101347","0.0-214.0","3KAKFY4PGVOI2EXOLSB7XUNESX73IJ","A32K4W6B31XWVR","3EHVO81VN57KAWAV14A1K6BEMLH1HG","","null","<img src=""img/food2.png"" style=""width:200px;border:14px solid red;"">","null","","","","","","","","","",""
"","image-keyboard-response","146","101612","0.0-216.0","3KAKFY4PGVOI2EXOLSB7XUNESX73IJ","A32K4W6B31XWVR","3EHVO81VN57KAWAV14A1K6BEMLH1HG","","264","img/food5.png","75","265.2999999523163","2","1","false","1","2","1,0.5,0,1,0.5,0,0.5,0,1","0,1,0.5,0,1,0.5,1,0.5,0","3",""
"","html-keyboard-response","147","101924","0.0-217.0","3KAKFY4PGVOI2EXOLSB7XUNESX73IJ","A32K4W6B31XWVR","3EHVO81VN57KAWAV14A1K6BEMLH1HG","","null","<img src=""img/food5.png"" style=""width:200px; border:14px solid green;"">","null","","","","","","","","","",""
"","image-keyboard-response","148","102089","0.0-219.0","3KAKFY4PGVOI2EXOLSB7XUNESX73IJ","A32K4W6B31XWVR","3EHVO81VN57KAWAV14A1K6BEMLH1HG","","163.30000019073486","img/food4.png","75","164.39999985694885","2","1","false","2","2","1,0.5,0,1,0.5,0,0.5,0,1","0,1,0.5,0,1,0.5,1,0.5,0","3",""
"","html-keyboard-response","149","102390","0.0-220.0","3KAKFY4PGVOI2EXOLSB7XUNESX73IJ","A32K4W6B31XWVR","3EHVO81VN57KAWAV14A1K6BEMLH1HG","","null","<img src=""img/food4.png"" style=""width:200px; border:14px solid green;"">","null","","","","","","","","","",""
"","image-keyboard-response","150","102582","0.0-222.0","3KAKFY4PGVOI2EXOLSB7XUNESX73IJ","A32K4W6B31XWVR","3EHVO81VN57KAWAV14A1K6BEMLH1HG","","190.20000004768372","img/food2.png","75","191.20000004768372","2","1","false","3","2","1,0.5,0,1,0.5,0,0.5,0,1","0,1,0.5,0,1,0.5,1,0.5,0","3",""
"","html-keyboard-response","151","102885","0.0-223.0","3KAKFY4PGVOI2EXOLSB7XUNESX73IJ","A32K4W6B31XWVR","3EHVO81VN57KAWAV14A1K6BEMLH1HG","","null","<img src=""img/food2.png"" style=""width:200px; border:14px solid green;"">","null","","","","","","","","","",""
"","image-keyboard-response","152","103083","0.0-225.0","3KAKFY4PGVOI2EXOLSB7XUNESX73IJ","A32K4W6B31XWVR","3EHVO81VN57KAWAV14A1K6BEMLH1HG","","196.90000009536743","img/food5.png","75","198","2","1","false","1","2","1,0.5,0,1,0.5,0,0.5,0,1","0,1,0.5,0,1,0.5,1,0.5,0","3",""
"","html-keyboard-response","153","103386","0.0-226.0","3KAKFY4PGVOI2EXOLSB7XUNESX73IJ","A32K4W6B31XWVR","3EHVO81VN57KAWAV14A1K6BEMLH1HG","","null","<img src=""img/food5.png"" style=""width:200px; border:14px solid green;"">","null","","","","","","","","","",""
"","image-keyboard-response","154","103451","0.0-228.0","3KAKFY4PGVOI2EXOLSB7XUNESX73IJ","A32K4W6B31XWVR","3EHVO81VN57KAWAV14A1K6BEMLH1HG","","63.40000009536743","img/food5.png","75","64.5","2","1","false","1","2","1,0.5,0,1,0.5,0,0.5,0,1","0,1,0.5,0,1,0.5,1,0.5,0","3",""
"","html-keyboard-response","155","103754","0.0-229.0","3KAKFY4PGVOI2EXOLSB7XUNESX73IJ","A32K4W6B31XWVR","3EHVO81VN57KAWAV14A1K6BEMLH1HG","","null","<img src=""img/food5.png"" style=""width:200px; border:14px solid green;"">","null","","","","","","","","","",""
"","image-keyboard-response","156","103854","0.0-231.0","3KAKFY4PGVOI2EXOLSB7XUNESX73IJ","A32K4W6B31XWVR","3EHVO81VN57KAWAV14A1K6BEMLH1HG","","99","img/food4.png","75","100.09999990463257","2","1","false","2","2","1,0.5,0,1,0.5,0,0.5,0,1","0,1,0.5,0,1,0.5,1,0.5,0","3",""
"","html-keyboard-response","157","104157","0.0-232.0","3KAKFY4PGVOI2EXOLSB7XUNESX73IJ","A32K4W6B31XWVR","3EHVO81VN57KAWAV14A1K6BEMLH1HG","","null","<img src=""img/food4.png"" style=""width:200px; border:14px solid green;"">","null","","","","","","","","","",""
"","image-keyboard-response","158","104271","0.0-234.0","3KAKFY4PGVOI2EXOLSB7XUNESX73IJ","A32K4W6B31XWVR","3EHVO81VN57KAWAV14A1K6BEMLH1HG","","113","img/food4.png","75","114","2","1","false","2","2","1,0.5,0,1,0.5,0,0.5,0,1","0,1,0.5,0,1,0.5,1,0.5,0","3",""
"","html-keyboard-response","159","104573","0.0-235.0","3KAKFY4PGVOI2EXOLSB7XUNESX73IJ","A32K4W6B31XWVR","3EHVO81VN57KAWAV14A1K6BEMLH1HG","","null","<img src=""img/food4.png"" style=""width:200px; border:14px solid green;"">","null","","","","","","","","","",""
"","image-keyboard-response","160","104683","0.0-237.0","3KAKFY4PGVOI2EXOLSB7XUNESX73IJ","A32K4W6B31XWVR","3EHVO81VN57KAWAV14A1K6BEMLH1HG","","109.20000004768372","img/food4.png","75","110.39999985694885","2","1","false","2","2","1,0.5,0,1,0.5,0,0.5,0,1","0,1,0.5,0,1,0.5,1,0.5,0","3",""
"","html-keyboard-response","161","104985","0.0-238.0","3KAKFY4PGVOI2EXOLSB7XUNESX73IJ","A32K4W6B31XWVR","3EHVO81VN57KAWAV14A1K6BEMLH1HG","","null","<img src=""img/food4.png"" style=""width:200px; border:14px solid green;"">","null","","","","","","","","","",""
"","image-keyboard-response","162","105096","0.0-240.0","3KAKFY4PGVOI2EXOLSB7XUNESX73IJ","A32K4W6B31XWVR","3EHVO81VN57KAWAV14A1K6BEMLH1HG","","110","img/food4.png","75","111.29999995231628","2","1","false","2","2","1,0.5,0,1,0.5,0,0.5,0,1","0,1,0.5,0,1,0.5,1,0.5,0","3",""
"","html-keyboard-response","163","105399","0.0-241.0","3KAKFY4PGVOI2EXOLSB7XUNESX73IJ","A32K4W6B31XWVR","3EHVO81VN57KAWAV14A1K6BEMLH1HG","","null","<img src=""img/food4.png"" style=""width:200px; border:14px solid green;"">","null","","","","","","","","","",""
"","image-keyboard-response","164","105464","0.0-243.0","3KAKFY4PGVOI2EXOLSB7XUNESX73IJ","A32K4W6B31XWVR","3EHVO81VN57KAWAV14A1K6BEMLH1HG","","62.80000019073486","img/food4.png","75","63.69999980926514","2","1","false","2","2","1,0.5,0,1,0.5,0,0.5,0,1","0,1,0.5,0,1,0.5,1,0.5,0","3",""
"","html-keyboard-response","165","105765","0.0-244.0","3KAKFY4PGVOI2EXOLSB7XUNESX73IJ","A32K4W6B31XWVR","3EHVO81VN57KAWAV14A1K6BEMLH1HG","","null","<img src=""img/food4.png"" style=""width:200px; border:14px solid green;"">","null","","","","","","","","","",""
"","image-keyboard-response","166","105837","0.0-246.0","3KAKFY4PGVOI2EXOLSB7XUNESX73IJ","A32K4W6B31XWVR","3EHVO81VN57KAWAV14A1K6BEMLH1HG","","70.59999990463257","img/food5.png","75","71.69999980926514","2","1","false","1","2","1,0.5,0,1,0.5,0,0.5,0,1","0,1,0.5,0,1,0.5,1,0.5,0","3",""
"","html-keyboard-response","167","106139","0.0-247.0","3KAKFY4PGVOI2EXOLSB7XUNESX73IJ","A32K4W6B31XWVR","3EHVO81VN57KAWAV14A1K6BEMLH1HG","","null","<img src=""img/food5.png"" style=""width:200px; border:14px solid green;"">","null","","","","","","","","","",""
"","image-keyboard-response","168","106185","0.0-249.0","3KAKFY4PGVOI2EXOLSB7XUNESX73IJ","A32K4W6B31XWVR","3EHVO81VN57KAWAV14A1K6BEMLH1HG","","45.39999985694885","img/food4.png","75","46.200000047683716","2","1","false","2","2","1,0.5,0,1,0.5,0,0.5,0,1","0,1,0.5,0,1,0.5,1,0.5,0","3",""
"","html-keyboard-response","169","106488","0.0-250.0","3KAKFY4PGVOI2EXOLSB7XUNESX73IJ","A32K4W6B31XWVR","3EHVO81VN57KAWAV14A1K6BEMLH1HG","","null","<img src=""img/food4.png"" style=""width:200px; border:14px solid green;"">","null","","","","","","","","","",""
"","image-keyboard-response","170","106533","0.0-252.0","3KAKFY4PGVOI2EXOLSB7XUNESX73IJ","A32K4W6B31XWVR","3EHVO81VN57KAWAV14A1K6BEMLH1HG","","44","img/food2.png","75","45.09999990463257","2","0","false","3","2","1,0.5,0,1,0.5,0,0.5,0,1","0,1,0.5,0,1,0.5,1,0.5,0","3",""
"","html-keyboard-response","171","106842","0.0-253.0","3KAKFY4PGVOI2EXOLSB7XUNESX73IJ","A32K4W6B31XWVR","3EHVO81VN57KAWAV14A1K6BEMLH1HG","","null","<img src=""img/food2.png"" style=""width:200px;border:14px solid red;"">","null","","","","","","","","","",""
"","image-keyboard-response","172","106975","0.0-255.0","3KAKFY4PGVOI2EXOLSB7XUNESX73IJ","A32K4W6B31XWVR","3EHVO81VN57KAWAV14A1K6BEMLH1HG","","131.89999985694885","img/food4.png","75","132.89999985694885","2","1","false","2","2","1,0.5,0,1,0.5,0,0.5,0,1","0,1,0.5,0,1,0.5,1,0.5,0","3",""
"","html-keyboard-response","173","107277","0.0-256.0","3KAKFY4PGVOI2EXOLSB7XUNESX73IJ","A32K4W6B31XWVR","3EHVO81VN57KAWAV14A1K6BEMLH1HG","","null","<img src=""img/food4.png"" style=""width:200px; border:14px solid green;"">","null","","","","","","","","","",""
"","image-keyboard-response","174","107280","0.0-258.0","3KAKFY4PGVOI2EXOLSB7XUNESX73IJ","A32K4W6B31XWVR","3EHVO81VN57KAWAV14A1K6BEMLH1HG","","1.9000000953674316","img/food2.png","75","3.0999999046325684","2","1","false","3","2","1,0.5,0,1,0.5,0,0.5,0,1","0,1,0.5,0,1,0.5,1,0.5,0","3",""
"","html-keyboard-response","175","107583","0.0-259.0","3KAKFY4PGVOI2EXOLSB7XUNESX73IJ","A32K4W6B31XWVR","3EHVO81VN57KAWAV14A1K6BEMLH1HG","","null","<img src=""img/food2.png"" style=""width:200px; border:14px solid green;"">","null","","","","","","","","","",""
"","image-keyboard-response","176","107612","0.0-261.0","3KAKFY4PGVOI2EXOLSB7XUNESX73IJ","A32K4W6B31XWVR","3EHVO81VN57KAWAV14A1K6BEMLH1HG","","27.5","img/food4.png","75","28.5","2","1","false","2","2","1,0.5,0,1,0.5,0,0.5,0,1","0,1,0.5,0,1,0.5,1,0.5,0","3",""
"","html-keyboard-response","177","107914","0.0-262.0","3KAKFY4PGVOI2EXOLSB7XUNESX73IJ","A32K4W6B31XWVR","3EHVO81VN57KAWAV14A1K6BEMLH1HG","","null","<img src=""img/food4.png"" style=""width:200px; border:14px solid green;"">","null","","","","","","","","","",""
"","image-keyboard-response","178","107929","0.0-264.0","3KAKFY4PGVOI2EXOLSB7XUNESX73IJ","A32K4W6B31XWVR","3EHVO81VN57KAWAV14A1K6BEMLH1HG","","13.299999952316284","img/food5.png","75","14.5","2","1","false","1","2","1,0.5,0,1,0.5,0,0.5,0,1","0,1,0.5,0,1,0.5,1,0.5,0","3",""
"","html-keyboard-response","179","108231","0.0-265.0","3KAKFY4PGVOI2EXOLSB7XUNESX73IJ","A32K4W6B31XWVR","3EHVO81VN57KAWAV14A1K6BEMLH1HG","","null","<img src=""img/food5.png"" style=""width:200px; border:14px solid green;"">","null","","","","","","","","","",""
"","image-keyboard-response","180","108234","0.0-267.0","3KAKFY4PGVOI2EXOLSB7XUNESX73IJ","A32K4W6B31XWVR","3EHVO81VN57KAWAV14A1K6BEMLH1HG","","1.9000000953674316","img/food5.png","75","2.799999952316284","2","1","false","1","2","1,0.5,0,1,0.5,0,0.5,0,1","0,1,0.5,0,1,0.5,1,0.5,0","3",""
"","html-keyboard-response","181","108536","0.0-268.0","3KAKFY4PGVOI2EXOLSB7XUNESX73IJ","A32K4W6B31XWVR","3EHVO81VN57KAWAV14A1K6BEMLH1HG","","null","<img src=""img/food5.png"" style=""width:200px; border:14px solid green;"">","null","","","","","","","","","",""
"","image-keyboard-response","182","108785","0.0-270.0","3KAKFY4PGVOI2EXOLSB7XUNESX73IJ","A32K4W6B31XWVR","3EHVO81VN57KAWAV14A1K6BEMLH1HG","","247.5","img/food2.png","75","248.69999980926514","2","1","false","3","2","1,0.5,0,1,0.5,0,0.5,0,1","0,1,0.5,0,1,0.5,1,0.5,0","3",""
"","html-keyboard-response","183","109087","0.0-271.0","3KAKFY4PGVOI2EXOLSB7XUNESX73IJ","A32K4W6B31XWVR","3EHVO81VN57KAWAV14A1K6BEMLH1HG","","null","<img src=""img/food2.png"" style=""width:200px; border:14px solid green;"">","null","","","","","","","","","",""
"","instructions","184","119214","0.0-273.0","3KAKFY4PGVOI2EXOLSB7XUNESX73IJ","A32K4W6B31XWVR","3EHVO81VN57KAWAV14A1K6BEMLH1HG","[{""page_index"":0,""viewing_time"":9048.5},{""page_index"":1,""viewing_time"":1077.8999998569489}]","10126.899999856949","","","","","","","","","","","",""
"","image-keyboard-response","185","120333","0.0-274.0","3KAKFY4PGVOI2EXOLSB7XUNESX73IJ","A32K4W6B31XWVR","3EHVO81VN57KAWAV14A1K6BEMLH1HG","","1117.3999998569489","img/food1.png","74","1118.9000000953674","1","0","","1","1","1,0.5,0,1,0.5,0,0.5,0,1","0,1,0.5,0,1,0.5,1,0.5,0","3",""
"","html-keyboard-response","186","120636","0.0-275.0","3KAKFY4PGVOI2EXOLSB7XUNESX73IJ","A32K4W6B31XWVR","3EHVO81VN57KAWAV14A1K6BEMLH1HG","","null","<img src=""img/food1.png"" style=""width:200px;border:14px solid red;"">","null","","","","","","","","","",""
"","image-keyboard-response","187","121154","0.0-276.0","3KAKFY4PGVOI2EXOLSB7XUNESX73IJ","A32K4W6B31XWVR","3EHVO81VN57KAWAV14A1K6BEMLH1HG","","516.5999999046326","img/food6.png","75","517.8000001907349","2","1","","2","1","1,0.5,0,1,0.5,0,0.5,0,1","0,1,0.5,0,1,0.5,1,0.5,0","3",""
"","html-keyboard-response","188","121456","0.0-277.0","3KAKFY4PGVOI2EXOLSB7XUNESX73IJ","A32K4W6B31XWVR","3EHVO81VN57KAWAV14A1K6BEMLH1HG","","null","<img src=""img/food6.png"" style=""width:200px; border:14px solid green;"">","null","","","","","","","","","",""
"","image-keyboard-response","189","121839","0.0-278.0","3KAKFY4PGVOI2EXOLSB7XUNESX73IJ","A32K4W6B31XWVR","3EHVO81VN57KAWAV14A1K6BEMLH1HG","","382.39999985694885","img/food6.png","75","383.59999990463257","2","1","","2","1","1,0.5,0,1,0.5,0,0.5,0,1","0,1,0.5,0,1,0.5,1,0.5,0","3",""
"","html-keyboard-response","190","122142","0.0-279.0","3KAKFY4PGVOI2EXOLSB7XUNESX73IJ","A32K4W6B31XWVR","3EHVO81VN57KAWAV14A1K6BEMLH1HG","","null","<img src=""img/food6.png"" style=""width:200px; border:14px solid green;"">","null","","","","","","","","","",""
"","image-keyboard-response","191","122437","0.0-280.0","3KAKFY4PGVOI2EXOLSB7XUNESX73IJ","A32K4W6B31XWVR","3EHVO81VN57KAWAV14A1K6BEMLH1HG","","294.2999999523163","img/food6.png","75","295.5","2","1","","2","1","1,0.5,0,1,0.5,0,0.5,0,1","0,1,0.5,0,1,0.5,1,0.5,0","3",""
"","html-keyboard-response","192","122739","0.0-281.0","3KAKFY4PGVOI2EXOLSB7XUNESX73IJ","A32K4W6B31XWVR","3EHVO81VN57KAWAV14A1K6BEMLH1HG","","null","<img src=""img/food6.png"" style=""width:200px; border:14px solid green;"">","null","","","","","","","","","",""
"","image-keyboard-response","193","123346","0.0-282.0","3KAKFY4PGVOI2EXOLSB7XUNESX73IJ","A32K4W6B31XWVR","3EHVO81VN57KAWAV14A1K6BEMLH1HG","","605.0999999046326","img/food3.png","76","606.2999999523163","3","0","","3","1","1,0.5,0,1,0.5,0,0.5,0,1","0,1,0.5,0,1,0.5,1,0.5,0","3",""
"","html-keyboard-response","194","123648","0.0-283.0","3KAKFY4PGVOI2EXOLSB7XUNESX73IJ","A32K4W6B31XWVR","3EHVO81VN57KAWAV14A1K6BEMLH1HG","","null","<img src=""img/food3.png"" style=""width:200px;border:14px solid red;"">","null","","","","","","","","","",""
"","image-keyboard-response","195","124092","0.0-284.0","3KAKFY4PGVOI2EXOLSB7XUNESX73IJ","A32K4W6B31XWVR","3EHVO81VN57KAWAV14A1K6BEMLH1HG","","442","img/food3.png","74","443.09999990463257","1","1","","3","1","1,0.5,0,1,0.5,0,0.5,0,1","0,1,0.5,0,1,0.5,1,0.5,0","3",""
"","html-keyboard-response","196","124397","0.0-285.0","3KAKFY4PGVOI2EXOLSB7XUNESX73IJ","A32K4W6B31XWVR","3EHVO81VN57KAWAV14A1K6BEMLH1HG","","null","<img src=""img/food3.png"" style=""width:200px; border:14px solid green;"">","null","","","","","","","","","",""
"","image-keyboard-response","197","124778","0.0-286.0","3KAKFY4PGVOI2EXOLSB7XUNESX73IJ","A32K4W6B31XWVR","3EHVO81VN57KAWAV14A1K6BEMLH1HG","","378.7999999523163","img/food6.png","75","380.2999999523163","2","1","","2","1","1,0.5,0,1,0.5,0,0.5,0,1","0,1,0.5,0,1,0.5,1,0.5,0","3",""
"","html-keyboard-response","198","125080","0.0-287.0","3KAKFY4PGVOI2EXOLSB7XUNESX73IJ","A32K4W6B31XWVR","3EHVO81VN57KAWAV14A1K6BEMLH1HG","","null","<img src=""img/food6.png"" style=""width:200px; border:14px solid green;"">","null","","","","","","","","","",""
"","image-keyboard-response","199","125633","0.0-288.0","3KAKFY4PGVOI2EXOLSB7XUNESX73IJ","A32K4W6B31XWVR","3EHVO81VN57KAWAV14A1K6BEMLH1HG","","552","img/food3.png","74","553.0999999046326","1","1","","3","1","1,0.5,0,1,0.5,0,0.5,0,1","0,1,0.5,0,1,0.5,1,0.5,0","3",""
"","html-keyboard-response","200","125935","0.0-289.0","3KAKFY4PGVOI2EXOLSB7XUNESX73IJ","A32K4W6B31XWVR","3EHVO81VN57KAWAV14A1K6BEMLH1HG","","null","<img src=""img/food3.png"" style=""width:200px; border:14px solid green;"">","null","","","","","","","","","",""
"","image-keyboard-response","201","126562","0.0-290.0","3KAKFY4PGVOI2EXOLSB7XUNESX73IJ","A32K4W6B31XWVR","3EHVO81VN57KAWAV14A1K6BEMLH1HG","","625.4000000953674","img/food1.png","76","626.5999999046326","3","0","","1","1","1,0.5,0,1,0.5,0,0.5,0,1","0,1,0.5,0,1,0.5,1,0.5,0","3",""
"","html-keyboard-response","202","126864","0.0-291.0","3KAKFY4PGVOI2EXOLSB7XUNESX73IJ","A32K4W6B31XWVR","3EHVO81VN57KAWAV14A1K6BEMLH1HG","","null","<img src=""img/food1.png"" style=""width:200px;border:14px solid red;"">","null","","","","","","","","","",""
"","image-keyboard-response","203","127469","0.0-292.0","3KAKFY4PGVOI2EXOLSB7XUNESX73IJ","A32K4W6B31XWVR","3EHVO81VN57KAWAV14A1K6BEMLH1HG","","603.5","img/food6.png","75","604.6000001430511","2","1","","2","1","1,0.5,0,1,0.5,0,0.5,0,1","0,1,0.5,0,1,0.5,1,0.5,0","3",""
"","html-keyboard-response","204","127772","0.0-293.0","3KAKFY4PGVOI2EXOLSB7XUNESX73IJ","A32K4W6B31XWVR","3EHVO81VN57KAWAV14A1K6BEMLH1HG","","null","<img src=""img/food6.png"" style=""width:200px; border:14px solid green;"">","null","","","","","","","","","",""
"","image-keyboard-response","205","128576","0.0-294.0","3KAKFY4PGVOI2EXOLSB7XUNESX73IJ","A32K4W6B31XWVR","3EHVO81VN57KAWAV14A1K6BEMLH1HG","","802.7000000476837","img/food1.png","76","803.7000000476837","3","1","","1","1","1,0.5,0,1,0.5,0,0.5,0,1","0,1,0.5,0,1,0.5,1,0.5,0","3",""
"","html-keyboard-response","206","128878","0.0-295.0","3KAKFY4PGVOI2EXOLSB7XUNESX73IJ","A32K4W6B31XWVR","3EHVO81VN57KAWAV14A1K6BEMLH1HG","","null","<img src=""img/food1.png"" style=""width:200px; border:14px solid green;"">","null","","","","","","","","","",""
"","image-keyboard-response","207","129392","0.0-296.0","3KAKFY4PGVOI2EXOLSB7XUNESX73IJ","A32K4W6B31XWVR","3EHVO81VN57KAWAV14A1K6BEMLH1HG","","513.1000001430511","img/food3.png","75","514.4000000953674","2","1","","3","1","1,0.5,0,1,0.5,0,0.5,0,1","0,1,0.5,0,1,0.5,1,0.5,0","3",""
"","html-keyboard-response","208","129695","0.0-297.0","3KAKFY4PGVOI2EXOLSB7XUNESX73IJ","A32K4W6B31XWVR","3EHVO81VN57KAWAV14A1K6BEMLH1HG","","null","<img src=""img/food3.png"" style=""width:200px; border:14px solid green;"">","null","","","","","","","","","",""
"","image-keyboard-response","209","130295","0.0-298.0","3KAKFY4PGVOI2EXOLSB7XUNESX73IJ","A32K4W6B31XWVR","3EHVO81VN57KAWAV14A1K6BEMLH1HG","","599","img/food6.png","76","600.3999998569489","3","0","","2","1","1,0.5,0,1,0.5,0,0.5,0,1","0,1,0.5,0,1,0.5,1,0.5,0","3",""
"","html-keyboard-response","210","130599","0.0-299.0","3KAKFY4PGVOI2EXOLSB7XUNESX73IJ","A32K4W6B31XWVR","3EHVO81VN57KAWAV14A1K6BEMLH1HG","","null","<img src=""img/food6.png"" style=""width:200px;border:14px solid red;"">","null","","","","","","","","","",""
"","image-keyboard-response","211","130947","0.0-300.0","3KAKFY4PGVOI2EXOLSB7XUNESX73IJ","A32K4W6B31XWVR","3EHVO81VN57KAWAV14A1K6BEMLH1HG","","347.09999990463257","img/food6.png","75","348.2000000476837","2","1","","2","1","1,0.5,0,1,0.5,0,0.5,0,1","0,1,0.5,0,1,0.5,1,0.5,0","3",""
"","html-keyboard-response","212","131249","0.0-301.0","3KAKFY4PGVOI2EXOLSB7XUNESX73IJ","A32K4W6B31XWVR","3EHVO81VN57KAWAV14A1K6BEMLH1HG","","null","<img src=""img/food6.png"" style=""width:200px; border:14px solid green;"">","null","","","","","","","","","",""
"","image-keyboard-response","213","131817","0.0-302.0","3KAKFY4PGVOI2EXOLSB7XUNESX73IJ","A32K4W6B31XWVR","3EHVO81VN57KAWAV14A1K6BEMLH1HG","","567.1999998092651","img/food3.png","76","568.2999999523163","3","0","","3","1","1,0.5,0,1,0.5,0,0.5,0,1","0,1,0.5,0,1,0.5,1,0.5,0","3",""
"","html-keyboard-response","214","132120","0.0-303.0","3KAKFY4PGVOI2EXOLSB7XUNESX73IJ","A32K4W6B31XWVR","3EHVO81VN57KAWAV14A1K6BEMLH1HG","","null","<img src=""img/food3.png"" style=""width:200px;border:14px solid red;"">","null","","","","","","","","","",""
"","image-keyboard-response","215","132443","0.0-304.0","3KAKFY4PGVOI2EXOLSB7XUNESX73IJ","A32K4W6B31XWVR","3EHVO81VN57KAWAV14A1K6BEMLH1HG","","321.7000000476837","img/food1.png","74","322.80000019073486","1","0","","1","1","1,0.5,0,1,0.5,0,0.5,0,1","0,1,0.5,0,1,0.5,1,0.5,0","3",""
"","html-keyboard-response","216","132746","0.0-305.0","3KAKFY4PGVOI2EXOLSB7XUNESX73IJ","A32K4W6B31XWVR","3EHVO81VN57KAWAV14A1K6BEMLH1HG","","null","<img src=""img/food1.png"" style=""width:200px;border:14px solid red;"">","null","","","","","","","","","",""
"","image-keyboard-response","217","133284","0.0-306.0","3KAKFY4PGVOI2EXOLSB7XUNESX73IJ","A32K4W6B31XWVR","3EHVO81VN57KAWAV14A1K6BEMLH1HG","","536.7000000476837","img/food6.png","75","537.9000000953674","2","1","","2","1","1,0.5,0,1,0.5,0,0.5,0,1","0,1,0.5,0,1,0.5,1,0.5,0","3",""
"","html-keyboard-response","218","133586","0.0-307.0","3KAKFY4PGVOI2EXOLSB7XUNESX73IJ","A32K4W6B31XWVR","3EHVO81VN57KAWAV14A1K6BEMLH1HG","","null","<img src=""img/food6.png"" style=""width:200px; border:14px solid green;"">","null","","","","","","","","","",""
"","image-keyboard-response","219","133906","0.0-308.0","3KAKFY4PGVOI2EXOLSB7XUNESX73IJ","A32K4W6B31XWVR","3EHVO81VN57KAWAV14A1K6BEMLH1HG","","318.2000000476837","img/food6.png","75","319.39999985694885","2","1","","2","1","1,0.5,0,1,0.5,0,0.5,0,1","0,1,0.5,0,1,0.5,1,0.5,0","3",""
"","html-keyboard-response","220","134208","0.0-309.0","3KAKFY4PGVOI2EXOLSB7XUNESX73IJ","A32K4W6B31XWVR","3EHVO81VN57KAWAV14A1K6BEMLH1HG","","null","<img src=""img/food6.png"" style=""width:200px; border:14px solid green;"">","null","","","","","","","","","",""
"","image-keyboard-response","221","134657","0.0-310.0","3KAKFY4PGVOI2EXOLSB7XUNESX73IJ","A32K4W6B31XWVR","3EHVO81VN57KAWAV14A1K6BEMLH1HG","","447.60000014305115","img/food1.png","76","448.7000000476837","3","1","","1","1","1,0.5,0,1,0.5,0,0.5,0,1","0,1,0.5,0,1,0.5,1,0.5,0","3",""
"","html-keyboard-response","222","134959","0.0-311.0","3KAKFY4PGVOI2EXOLSB7XUNESX73IJ","A32K4W6B31XWVR","3EHVO81VN57KAWAV14A1K6BEMLH1HG","","null","<img src=""img/food1.png"" style=""width:200px; border:14px solid green;"">","null","","","","","","","","","",""
"","image-keyboard-response","223","135387","0.0-312.0","3KAKFY4PGVOI2EXOLSB7XUNESX73IJ","A32K4W6B31XWVR","3EHVO81VN57KAWAV14A1K6BEMLH1HG","","427.2000000476837","img/food6.png","75","428.2999999523163","2","1","","2","1","1,0.5,0,1,0.5,0,0.5,0,1","0,1,0.5,0,1,0.5,1,0.5,0","3",""
"","html-keyboard-response","224","135690","0.0-313.0","3KAKFY4PGVOI2EXOLSB7XUNESX73IJ","A32K4W6B31XWVR","3EHVO81VN57KAWAV14A1K6BEMLH1HG","","null","<img src=""img/food6.png"" style=""width:200px; border:14px solid green;"">","null","","","","","","","","","",""
"","image-keyboard-response","225","136589","0.0-314.0","3KAKFY4PGVOI2EXOLSB7XUNESX73IJ","A32K4W6B31XWVR","3EHVO81VN57KAWAV14A1K6BEMLH1HG","","898.0999999046326","img/food3.png","74","899.2999999523163","1","1","","3","1","1,0.5,0,1,0.5,0,0.5,0,1","0,1,0.5,0,1,0.5,1,0.5,0","3",""
"","html-keyboard-response","226","136892","0.0-315.0","3KAKFY4PGVOI2EXOLSB7XUNESX73IJ","A32K4W6B31XWVR","3EHVO81VN57KAWAV14A1K6BEMLH1HG","","null","<img src=""img/food3.png"" style=""width:200px; border:14px solid green;"">","null","","","","","","","","","",""
"","image-keyboard-response","227","137366","0.0-316.0","3KAKFY4PGVOI2EXOLSB7XUNESX73IJ","A32K4W6B31XWVR","3EHVO81VN57KAWAV14A1K6BEMLH1HG","","473","img/food6.png","75","474","2","1","","2","1","1,0.5,0,1,0.5,0,0.5,0,1","0,1,0.5,0,1,0.5,1,0.5,0","3",""
"","html-keyboard-response","228","137668","0.0-317.0","3KAKFY4PGVOI2EXOLSB7XUNESX73IJ","A32K4W6B31XWVR","3EHVO81VN57KAWAV14A1K6BEMLH1HG","","null","<img src=""img/food6.png"" style=""width:200px; border:14px solid green;"">","null","","","","","","","","","",""
"","image-keyboard-response","229","137986","0.0-318.0","3KAKFY4PGVOI2EXOLSB7XUNESX73IJ","A32K4W6B31XWVR","3EHVO81VN57KAWAV14A1K6BEMLH1HG","","316.2000000476837","img/food6.png","75","317.30000019073486","2","1","","2","1","1,0.5,0,1,0.5,0,0.5,0,1","0,1,0.5,0,1,0.5,1,0.5,0","3",""
"","html-keyboard-response","230","138289","0.0-319.0","3KAKFY4PGVOI2EXOLSB7XUNESX73IJ","A32K4W6B31XWVR","3EHVO81VN57KAWAV14A1K6BEMLH1HG","","null","<img src=""img/food6.png"" style=""width:200px; border:14px solid green;"">","null","","","","","","","","","",""
"","image-keyboard-response","231","138533","0.0-320.0","3KAKFY4PGVOI2EXOLSB7XUNESX73IJ","A32K4W6B31XWVR","3EHVO81VN57KAWAV14A1K6BEMLH1HG","","243","img/food6.png","75","244","2","1","","2","1","1,0.5,0,1,0.5,0,0.5,0,1","0,1,0.5,0,1,0.5,1,0.5,0","3",""
"","html-keyboard-response","232","138835","0.0-321.0","3KAKFY4PGVOI2EXOLSB7XUNESX73IJ","A32K4W6B31XWVR","3EHVO81VN57KAWAV14A1K6BEMLH1HG","","null","<img src=""img/food6.png"" style=""width:200px; border:14px solid green;"">","null","","","","","","","","","",""
"","image-keyboard-response","233","139154","0.0-322.0","3KAKFY4PGVOI2EXOLSB7XUNESX73IJ","A32K4W6B31XWVR","3EHVO81VN57KAWAV14A1K6BEMLH1HG","","318.40000009536743","img/food6.png","75","319.2999999523163","2","1","","2","1","1,0.5,0,1,0.5,0,0.5,0,1","0,1,0.5,0,1,0.5,1,0.5,0","3",""
"","html-keyboard-response","234","139457","0.0-323.0","3KAKFY4PGVOI2EXOLSB7XUNESX73IJ","A32K4W6B31XWVR","3EHVO81VN57KAWAV14A1K6BEMLH1HG","","null","<img src=""img/food6.png"" style=""width:200px; border:14px solid green;"">","null","","","","","","","","","",""
"","image-keyboard-response","235","140308","0.0-324.0","3KAKFY4PGVOI2EXOLSB7XUNESX73IJ","A32K4W6B31XWVR","3EHVO81VN57KAWAV14A1K6BEMLH1HG","","850.1000001430511","img/food3.png","74","851.1000001430511","1","1","","3","1","1,0.5,0,1,0.5,0,0.5,0,1","0,1,0.5,0,1,0.5,1,0.5,0","3",""
"","html-keyboard-response","236","140610","0.0-325.0","3KAKFY4PGVOI2EXOLSB7XUNESX73IJ","A32K4W6B31XWVR","3EHVO81VN57KAWAV14A1K6BEMLH1HG","","null","<img src=""img/food3.png"" style=""width:200px; border:14px solid green;"">","null","","","","","","","","","",""
"","image-keyboard-response","237","140939","0.0-326.0","3KAKFY4PGVOI2EXOLSB7XUNESX73IJ","A32K4W6B31XWVR","3EHVO81VN57KAWAV14A1K6BEMLH1HG","","327.89999985694885","img/food3.png","74","329","1","1","","3","1","1,0.5,0,1,0.5,0,0.5,0,1","0,1,0.5,0,1,0.5,1,0.5,0","3",""
"","html-keyboard-response","238","141241","0.0-327.0","3KAKFY4PGVOI2EXOLSB7XUNESX73IJ","A32K4W6B31XWVR","3EHVO81VN57KAWAV14A1K6BEMLH1HG","","null","<img src=""img/food3.png"" style=""width:200px; border:14px solid green;"">","null","","","","","","","","","",""
"","image-keyboard-response","239","141899","0.0-328.0","3KAKFY4PGVOI2EXOLSB7XUNESX73IJ","A32K4W6B31XWVR","3EHVO81VN57KAWAV14A1K6BEMLH1HG","","656.7000000476837","img/food1.png","76","657.7999999523163","3","1","","1","1","1,0.5,0,1,0.5,0,0.5,0,1","0,1,0.5,0,1,0.5,1,0.5,0","3",""
"","html-keyboard-response","240","142201","0.0-329.0","3KAKFY4PGVOI2EXOLSB7XUNESX73IJ","A32K4W6B31XWVR","3EHVO81VN57KAWAV14A1K6BEMLH1HG","","null","<img src=""img/food1.png"" style=""width:200px; border:14px solid green;"">","null","","","","","","","","","",""
"","image-keyboard-response","241","142669","0.0-330.0","3KAKFY4PGVOI2EXOLSB7XUNESX73IJ","A32K4W6B31XWVR","3EHVO81VN57KAWAV14A1K6BEMLH1HG","","467.10000014305115","img/food1.png","76","468","3","1","","1","1","1,0.5,0,1,0.5,0,0.5,0,1","0,1,0.5,0,1,0.5,1,0.5,0","3",""
"","html-keyboard-response","242","142975","0.0-331.0","3KAKFY4PGVOI2EXOLSB7XUNESX73IJ","A32K4W6B31XWVR","3EHVO81VN57KAWAV14A1K6BEMLH1HG","","null","<img src=""img/food1.png"" style=""width:200px; border:14px solid green;"">","null","","","","","","","","","",""
"","image-keyboard-response","243","143603","0.0-332.0","3KAKFY4PGVOI2EXOLSB7XUNESX73IJ","A32K4W6B31XWVR","3EHVO81VN57KAWAV14A1K6BEMLH1HG","","627.8999998569489","img/food6.png","75","628.7000000476837","2","1","","2","1","1,0.5,0,1,0.5,0,0.5,0,1","0,1,0.5,0,1,0.5,1,0.5,0","3",""
"","html-keyboard-response","244","143905","0.0-333.0","3KAKFY4PGVOI2EXOLSB7XUNESX73IJ","A32K4W6B31XWVR","3EHVO81VN57KAWAV14A1K6BEMLH1HG","","null","<img src=""img/food6.png"" style=""width:200px; border:14px solid green;"">","null","","","","","","","","","",""
"","image-keyboard-response","245","144469","0.0-334.0","3KAKFY4PGVOI2EXOLSB7XUNESX73IJ","A32K4W6B31XWVR","3EHVO81VN57KAWAV14A1K6BEMLH1HG","","561.5","img/food1.png","74","562.7000000476837","1","0","","1","1","1,0.5,0,1,0.5,0,0.5,0,1","0,1,0.5,0,1,0.5,1,0.5,0","3",""
"","html-keyboard-response","246","144771","0.0-335.0","3KAKFY4PGVOI2EXOLSB7XUNESX73IJ","A32K4W6B31XWVR","3EHVO81VN57KAWAV14A1K6BEMLH1HG","","null","<img src=""img/food1.png"" style=""width:200px;border:14px solid red;"">","null","","","","","","","","","",""
"","image-keyboard-response","247","144961","0.0-336.0","3KAKFY4PGVOI2EXOLSB7XUNESX73IJ","A32K4W6B31XWVR","3EHVO81VN57KAWAV14A1K6BEMLH1HG","","188.59999990463257","img/food3.png","76","189.60000014305115","3","0","","3","1","1,0.5,0,1,0.5,0,0.5,0,1","0,1,0.5,0,1,0.5,1,0.5,0","3",""
"","html-keyboard-response","248","145263","0.0-337.0","3KAKFY4PGVOI2EXOLSB7XUNESX73IJ","A32K4W6B31XWVR","3EHVO81VN57KAWAV14A1K6BEMLH1HG","","null","<img src=""img/food3.png"" style=""width:200px;border:14px solid red;"">","null","","","","","","","","","",""
"","image-keyboard-response","249","145641","0.0-338.0","3KAKFY4PGVOI2EXOLSB7XUNESX73IJ","A32K4W6B31XWVR","3EHVO81VN57KAWAV14A1K6BEMLH1HG","","376.7999999523163","img/food1.png","75","377.89999985694885","2","1","","1","1","1,0.5,0,1,0.5,0,0.5,0,1","0,1,0.5,0,1,0.5,1,0.5,0","3",""
"","html-keyboard-response","250","145944","0.0-339.0","3KAKFY4PGVOI2EXOLSB7XUNESX73IJ","A32K4W6B31XWVR","3EHVO81VN57KAWAV14A1K6BEMLH1HG","","null","<img src=""img/food1.png"" style=""width:200px; border:14px solid green;"">","null","","","","","","","","","",""
"","image-keyboard-response","251","146606","0.0-340.0","3KAKFY4PGVOI2EXOLSB7XUNESX73IJ","A32K4W6B31XWVR","3EHVO81VN57KAWAV14A1K6BEMLH1HG","","660.5999999046326","img/food6.png","75","661.7000000476837","2","1","","2","1","1,0.5,0,1,0.5,0,0.5,0,1","0,1,0.5,0,1,0.5,1,0.5,0","3",""
"","html-keyboard-response","252","146908","0.0-341.0","3KAKFY4PGVOI2EXOLSB7XUNESX73IJ","A32K4W6B31XWVR","3EHVO81VN57KAWAV14A1K6BEMLH1HG","","null","<img src=""img/food6.png"" style=""width:200px; border:14px solid green;"">","null","","","","","","","","","",""
"","image-keyboard-response","253","147273","0.0-342.0","3KAKFY4PGVOI2EXOLSB7XUNESX73IJ","A32K4W6B31XWVR","3EHVO81VN57KAWAV14A1K6BEMLH1HG","","363.5","img/food6.png","75","364.7000000476837","2","1","","2","1","1,0.5,0,1,0.5,0,0.5,0,1","0,1,0.5,0,1,0.5,1,0.5,0","3",""
"","html-keyboard-response","254","147577","0.0-343.0","3KAKFY4PGVOI2EXOLSB7XUNESX73IJ","A32K4W6B31XWVR","3EHVO81VN57KAWAV14A1K6BEMLH1HG","","null","<img src=""img/food6.png"" style=""width:200px; border:14px solid green;"">","null","","","","","","","","","",""
"","image-keyboard-response","255","148078","0.0-344.0","3KAKFY4PGVOI2EXOLSB7XUNESX73IJ","A32K4W6B31XWVR","3EHVO81VN57KAWAV14A1K6BEMLH1HG","","498.89999985694885","img/food1.png","76","499.89999985694885","3","1","","1","1","1,0.5,0,1,0.5,0,0.5,0,1","0,1,0.5,0,1,0.5,1,0.5,0","3",""
"","html-keyboard-response","256","148380","0.0-345.0","3KAKFY4PGVOI2EXOLSB7XUNESX73IJ","A32K4W6B31XWVR","3EHVO81VN57KAWAV14A1K6BEMLH1HG","","null","<img src=""img/food1.png"" style=""width:200px; border:14px solid green;"">","null","","","","","","","","","",""
"","image-keyboard-response","257","148729","0.0-346.0","3KAKFY4PGVOI2EXOLSB7XUNESX73IJ","A32K4W6B31XWVR","3EHVO81VN57KAWAV14A1K6BEMLH1HG","","346.7999999523163","img/food1.png","76","347.89999985694885","3","1","","1","1","1,0.5,0,1,0.5,0,0.5,0,1","0,1,0.5,0,1,0.5,1,0.5,0","3",""
"","html-keyboard-response","258","149031","0.0-347.0","3KAKFY4PGVOI2EXOLSB7XUNESX73IJ","A32K4W6B31XWVR","3EHVO81VN57KAWAV14A1K6BEMLH1HG","","null","<img src=""img/food1.png"" style=""width:200px; border:14px solid green;"">","null","","","","","","","","","",""
"","image-keyboard-response","259","149375","0.0-348.0","3KAKFY4PGVOI2EXOLSB7XUNESX73IJ","A32K4W6B31XWVR","3EHVO81VN57KAWAV14A1K6BEMLH1HG","","342.80000019073486","img/food1.png","76","343.7999999523163","3","0","","1","1","1,0.5,0,1,0.5,0,0.5,0,1","0,1,0.5,0,1,0.5,1,0.5,0","3",""
"","html-keyboard-response","260","149677","0.0-349.0","3KAKFY4PGVOI2EXOLSB7XUNESX73IJ","A32K4W6B31XWVR","3EHVO81VN57KAWAV14A1K6BEMLH1HG","","null","<img src=""img/food1.png"" style=""width:200px;border:14px solid red;"">","null","","","","","","","","","",""
"","image-keyboard-response","261","150240","0.0-350.0","3KAKFY4PGVOI2EXOLSB7XUNESX73IJ","A32K4W6B31XWVR","3EHVO81VN57KAWAV14A1K6BEMLH1HG","","561.5","img/food3.png","74","562.6999998092651","1","1","","3","1","1,0.5,0,1,0.5,0,0.5,0,1","0,1,0.5,0,1,0.5,1,0.5,0","3",""
"","html-keyboard-response","262","150541","0.0-351.0","3KAKFY4PGVOI2EXOLSB7XUNESX73IJ","A32K4W6B31XWVR","3EHVO81VN57KAWAV14A1K6BEMLH1HG","","null","<img src=""img/food3.png"" style=""width:200px; border:14px solid green;"">","null","","","","","","","","","",""
"","image-keyboard-response","263","151194","0.0-352.0","3KAKFY4PGVOI2EXOLSB7XUNESX73IJ","A32K4W6B31XWVR","3EHVO81VN57KAWAV14A1K6BEMLH1HG","","651.2999999523163","img/food1.png","76","652.4000000953674","3","0","","1","1","1,0.5,0,1,0.5,0,0.5,0,1","0,1,0.5,0,1,0.5,1,0.5,0","3",""
"","html-keyboard-response","264","151496","0.0-353.0","3KAKFY4PGVOI2EXOLSB7XUNESX73IJ","A32K4W6B31XWVR","3EHVO81VN57KAWAV14A1K6BEMLH1HG","","null","<img src=""img/food1.png"" style=""width:200px;border:14px solid red;"">","null","","","","","","","","","",""
"","image-keyboard-response","265","151850","0.0-354.0","3KAKFY4PGVOI2EXOLSB7XUNESX73IJ","A32K4W6B31XWVR","3EHVO81VN57KAWAV14A1K6BEMLH1HG","","353.2000000476837","img/food1.png","76","354.30000019073486","3","1","","1","1","1,0.5,0,1,0.5,0,0.5,0,1","0,1,0.5,0,1,0.5,1,0.5,0","3",""
"","html-keyboard-response","266","152154","0.0-355.0","3KAKFY4PGVOI2EXOLSB7XUNESX73IJ","A32K4W6B31XWVR","3EHVO81VN57KAWAV14A1K6BEMLH1HG","","null","<img src=""img/food1.png"" style=""width:200px; border:14px solid green;"">","null","","","","","","","","","",""
"","image-keyboard-response","267","153048","0.0-356.0","3KAKFY4PGVOI2EXOLSB7XUNESX73IJ","A32K4W6B31XWVR","3EHVO81VN57KAWAV14A1K6BEMLH1HG","","893.0999999046326","img/food3.png","74","894.2000000476837","1","1","","3","1","1,0.5,0,1,0.5,0,0.5,0,1","0,1,0.5,0,1,0.5,1,0.5,0","3",""
"","html-keyboard-response","268","153350","0.0-357.0","3KAKFY4PGVOI2EXOLSB7XUNESX73IJ","A32K4W6B31XWVR","3EHVO81VN57KAWAV14A1K6BEMLH1HG","","null","<img src=""img/food3.png"" style=""width:200px; border:14px solid green;"">","null","","","","","","","","","",""
"","image-keyboard-response","269","153730","0.0-358.0","3KAKFY4PGVOI2EXOLSB7XUNESX73IJ","A32K4W6B31XWVR","3EHVO81VN57KAWAV14A1K6BEMLH1HG","","378.59999990463257","img/food3.png","74","379.7999999523163","1","1","","3","1","1,0.5,0,1,0.5,0,0.5,0,1","0,1,0.5,0,1,0.5,1,0.5,0","3",""
"","html-keyboard-response","270","154033","0.0-359.0","3KAKFY4PGVOI2EXOLSB7XUNESX73IJ","A32K4W6B31XWVR","3EHVO81VN57KAWAV14A1K6BEMLH1HG","","null","<img src=""img/food3.png"" style=""width:200px; border:14px solid green;"">","null","","","","","","","","","",""
"","image-keyboard-response","271","154386","0.0-360.0","3KAKFY4PGVOI2EXOLSB7XUNESX73IJ","A32K4W6B31XWVR","3EHVO81VN57KAWAV14A1K6BEMLH1HG","","351.5","img/food3.png","74","352.69999980926514","1","1","","3","1","1,0.5,0,1,0.5,0,0.5,0,1","0,1,0.5,0,1,0.5,1,0.5,0","3",""
"","html-keyboard-response","272","154689","0.0-361.0","3KAKFY4PGVOI2EXOLSB7XUNESX73IJ","A32K4W6B31XWVR","3EHVO81VN57KAWAV14A1K6BEMLH1HG","","null","<img src=""img/food3.png"" style=""width:200px; border:14px solid green;"">","null","","","","","","","","","",""
"","image-keyboard-response","273","155237","0.0-362.0","3KAKFY4PGVOI2EXOLSB7XUNESX73IJ","A32K4W6B31XWVR","3EHVO81VN57KAWAV14A1K6BEMLH1HG","","546.5","img/food6.png","75","547.6000001430511","2","1","","2","1","1,0.5,0,1,0.5,0,0.5,0,1","0,1,0.5,0,1,0.5,1,0.5,0","3",""
"","html-keyboard-response","274","155540","0.0-363.0","3KAKFY4PGVOI2EXOLSB7XUNESX73IJ","A32K4W6B31XWVR","3EHVO81VN57KAWAV14A1K6BEMLH1HG","","null","<img src=""img/food6.png"" style=""width:200px; border:14px solid green;"">","null","","","","","","","","","",""
"","image-keyboard-response","275","155956","0.0-364.0","3KAKFY4PGVOI2EXOLSB7XUNESX73IJ","A32K4W6B31XWVR","3EHVO81VN57KAWAV14A1K6BEMLH1HG","","415.2000000476837","img/food6.png","75","416.2999999523163","2","1","","2","1","1,0.5,0,1,0.5,0,0.5,0,1","0,1,0.5,0,1,0.5,1,0.5,0","3",""
"","html-keyboard-response","276","156261","0.0-365.0","3KAKFY4PGVOI2EXOLSB7XUNESX73IJ","A32K4W6B31XWVR","3EHVO81VN57KAWAV14A1K6BEMLH1HG","","null","<img src=""img/food6.png"" style=""width:200px; border:14px solid green;"">","null","","","","","","","","","",""
"","image-keyboard-response","277","156906","0.0-366.0","3KAKFY4PGVOI2EXOLSB7XUNESX73IJ","A32K4W6B31XWVR","3EHVO81VN57KAWAV14A1K6BEMLH1HG","","643.7000000476837","img/food3.png","74","644.7999999523163","1","1","","3","1","1,0.5,0,1,0.5,0,0.5,0,1","0,1,0.5,0,1,0.5,1,0.5,0","3",""
"","html-keyboard-response","278","157208","0.0-367.0","3KAKFY4PGVOI2EXOLSB7XUNESX73IJ","A32K4W6B31XWVR","3EHVO81VN57KAWAV14A1K6BEMLH1HG","","null","<img src=""img/food3.png"" style=""width:200px; border:14px solid green;"">","null","","","","","","","","","",""
"","image-keyboard-response","279","157647","0.0-368.0","3KAKFY4PGVOI2EXOLSB7XUNESX73IJ","A32K4W6B31XWVR","3EHVO81VN57KAWAV14A1K6BEMLH1HG","","437.7999999523163","img/food6.png","75","438.7000000476837","2","1","","2","1","1,0.5,0,1,0.5,0,0.5,0,1","0,1,0.5,0,1,0.5,1,0.5,0","3",""
"","html-keyboard-response","280","157949","0.0-369.0","3KAKFY4PGVOI2EXOLSB7XUNESX73IJ","A32K4W6B31XWVR","3EHVO81VN57KAWAV14A1K6BEMLH1HG","","null","<img src=""img/food6.png"" style=""width:200px; border:14px solid green;"">","null","","","","","","","","","",""
"","image-keyboard-response","281","158249","0.0-370.0","3KAKFY4PGVOI2EXOLSB7XUNESX73IJ","A32K4W6B31XWVR","3EHVO81VN57KAWAV14A1K6BEMLH1HG","","298.30000019073486","img/food3.png","75","299.7000000476837","2","1","","3","1","1,0.5,0,1,0.5,0,0.5,0,1","0,1,0.5,0,1,0.5,1,0.5,0","3",""
"","html-keyboard-response","282","158551","0.0-371.0","3KAKFY4PGVOI2EXOLSB7XUNESX73IJ","A32K4W6B31XWVR","3EHVO81VN57KAWAV14A1K6BEMLH1HG","","null","<img src=""img/food3.png"" style=""width:200px; border:14px solid green;"">","null","","","","","","","","","",""
"","image-keyboard-response","283","158969","0.0-372.0","3KAKFY4PGVOI2EXOLSB7XUNESX73IJ","A32K4W6B31XWVR","3EHVO81VN57KAWAV14A1K6BEMLH1HG","","416.5","img/food3.png","74","417.69999980926514","1","1","","3","1","1,0.5,0,1,0.5,0,0.5,0,1","0,1,0.5,0,1,0.5,1,0.5,0","3",""
"","html-keyboard-response","284","159271","0.0-373.0","3KAKFY4PGVOI2EXOLSB7XUNESX73IJ","A32K4W6B31XWVR","3EHVO81VN57KAWAV14A1K6BEMLH1HG","","null","<img src=""img/food3.png"" style=""width:200px; border:14px solid green;"">","null","","","","","","","","","",""
"","image-keyboard-response","285","159764","0.0-374.0","3KAKFY4PGVOI2EXOLSB7XUNESX73IJ","A32K4W6B31XWVR","3EHVO81VN57KAWAV14A1K6BEMLH1HG","","491.2999999523163","img/food6.png","75","492.5","2","1","","2","1","1,0.5,0,1,0.5,0,0.5,0,1","0,1,0.5,0,1,0.5,1,0.5,0","3",""
"","html-keyboard-response","286","160066","0.0-375.0","3KAKFY4PGVOI2EXOLSB7XUNESX73IJ","A32K4W6B31XWVR","3EHVO81VN57KAWAV14A1K6BEMLH1HG","","null","<img src=""img/food6.png"" style=""width:200px; border:14px solid green;"">","null","","","","","","","","","",""
"","image-keyboard-response","287","161002","0.0-376.0","3KAKFY4PGVOI2EXOLSB7XUNESX73IJ","A32K4W6B31XWVR","3EHVO81VN57KAWAV14A1K6BEMLH1HG","","935","img/food3.png","74","936","1","1","","3","1","1,0.5,0,1,0.5,0,0.5,0,1","0,1,0.5,0,1,0.5,1,0.5,0","3",""
"","html-keyboard-response","288","161304","0.0-377.0","3KAKFY4PGVOI2EXOLSB7XUNESX73IJ","A32K4W6B31XWVR","3EHVO81VN57KAWAV14A1K6BEMLH1HG","","null","<img src=""img/food3.png"" style=""width:200px; border:14px solid green;"">","null","","","","","","","","","",""
"","image-keyboard-response","289","161778","0.0-378.0","3KAKFY4PGVOI2EXOLSB7XUNESX73IJ","A32K4W6B31XWVR","3EHVO81VN57KAWAV14A1K6BEMLH1HG","","472.7999999523163","img/food3.png","74","473.80000019073486","1","1","","3","1","1,0.5,0,1,0.5,0,0.5,0,1","0,1,0.5,0,1,0.5,1,0.5,0","3",""
"","html-keyboard-response","290","162080","0.0-379.0","3KAKFY4PGVOI2EXOLSB7XUNESX73IJ","A32K4W6B31XWVR","3EHVO81VN57KAWAV14A1K6BEMLH1HG","","null","<img src=""img/food3.png"" style=""width:200px; border:14px solid green;"">","null","","","","","","","","","",""
"","image-keyboard-response","291","162658","0.0-380.0","3KAKFY4PGVOI2EXOLSB7XUNESX73IJ","A32K4W6B31XWVR","3EHVO81VN57KAWAV14A1K6BEMLH1HG","","576.5","img/food1.png","76","577.2999999523163","3","1","","1","1","1,0.5,0,1,0.5,0,0.5,0,1","0,1,0.5,0,1,0.5,1,0.5,0","3",""
"","html-keyboard-response","292","162960","0.0-381.0","3KAKFY4PGVOI2EXOLSB7XUNESX73IJ","A32K4W6B31XWVR","3EHVO81VN57KAWAV14A1K6BEMLH1HG","","null","<img src=""img/food1.png"" style=""width:200px; border:14px solid green;"">","null","","","","","","","","","",""
"","image-keyboard-response","293","163270","0.0-382.0","3KAKFY4PGVOI2EXOLSB7XUNESX73IJ","A32K4W6B31XWVR","3EHVO81VN57KAWAV14A1K6BEMLH1HG","","308.10000014305115","img/food1.png","76","309.2999999523163","3","0","","1","1","1,0.5,0,1,0.5,0,0.5,0,1","0,1,0.5,0,1,0.5,1,0.5,0","3",""
"","html-keyboard-response","294","163571","0.0-383.0","3KAKFY4PGVOI2EXOLSB7XUNESX73IJ","A32K4W6B31XWVR","3EHVO81VN57KAWAV14A1K6BEMLH1HG","","null","<img src=""img/food1.png"" style=""width:200px;border:14px solid red;"">","null","","","","","","","","","",""
"","image-keyboard-response","295","164073","0.0-384.0","3KAKFY4PGVOI2EXOLSB7XUNESX73IJ","A32K4W6B31XWVR","3EHVO81VN57KAWAV14A1K6BEMLH1HG","","500","img/food1.png","76","501","3","1","","1","1","1,0.5,0,1,0.5,0,0.5,0,1","0,1,0.5,0,1,0.5,1,0.5,0","3",""
"","html-keyboard-response","296","164374","0.0-385.0","3KAKFY4PGVOI2EXOLSB7XUNESX73IJ","A32K4W6B31XWVR","3EHVO81VN57KAWAV14A1K6BEMLH1HG","","null","<img src=""img/food1.png"" style=""width:200px; border:14px solid green;"">","null","","","","","","","","","",""
"","image-keyboard-response","297","164686","0.0-386.0","3KAKFY4PGVOI2EXOLSB7XUNESX73IJ","A32K4W6B31XWVR","3EHVO81VN57KAWAV14A1K6BEMLH1HG","","310.60000014305115","img/food1.png","76","311.7999999523163","3","0","","1","1","1,0.5,0,1,0.5,0,0.5,0,1","0,1,0.5,0,1,0.5,1,0.5,0","3",""
"","html-keyboard-response","298","164988","0.0-387.0","3KAKFY4PGVOI2EXOLSB7XUNESX73IJ","A32K4W6B31XWVR","3EHVO81VN57KAWAV14A1K6BEMLH1HG","","null","<img src=""img/food1.png"" style=""width:200px;border:14px solid red;"">","null","","","","","","","","","",""
"","image-keyboard-response","299","165293","0.0-388.0","3KAKFY4PGVOI2EXOLSB7XUNESX73IJ","A32K4W6B31XWVR","3EHVO81VN57KAWAV14A1K6BEMLH1HG","","303.2999999523163","img/food1.png","76","304.5","3","0","","1","1","1,0.5,0,1,0.5,0,0.5,0,1","0,1,0.5,0,1,0.5,1,0.5,0","3",""
"","html-keyboard-response","300","165595","0.0-389.0","3KAKFY4PGVOI2EXOLSB7XUNESX73IJ","A32K4W6B31XWVR","3EHVO81VN57KAWAV14A1K6BEMLH1HG","","null","<img src=""img/food1.png"" style=""width:200px;border:14px solid red;"">","null","","","","","","","","","",""
"","image-keyboard-response","301","166416","0.0-390.0","3KAKFY4PGVOI2EXOLSB7XUNESX73IJ","A32K4W6B31XWVR","3EHVO81VN57KAWAV14A1K6BEMLH1HG","","819.2000000476837","img/food3.png","75","820.0999999046326","2","1","","3","1","1,0.5,0,1,0.5,0,0.5,0,1","0,1,0.5,0,1,0.5,1,0.5,0","3",""
"","html-keyboard-response","302","166718","0.0-391.0","3KAKFY4PGVOI2EXOLSB7XUNESX73IJ","A32K4W6B31XWVR","3EHVO81VN57KAWAV14A1K6BEMLH1HG","","null","<img src=""img/food3.png"" style=""width:200px; border:14px solid green;"">","null","","","","","","","","","",""
"","image-keyboard-response","303","167296","0.0-392.0","3KAKFY4PGVOI2EXOLSB7XUNESX73IJ","A32K4W6B31XWVR","3EHVO81VN57KAWAV14A1K6BEMLH1HG","","576.2000000476837","img/food6.png","75","577.2000000476837","2","1","","2","1","1,0.5,0,1,0.5,0,0.5,0,1","0,1,0.5,0,1,0.5,1,0.5,0","3",""
"","html-keyboard-response","304","167598","0.0-393.0","3KAKFY4PGVOI2EXOLSB7XUNESX73IJ","A32K4W6B31XWVR","3EHVO81VN57KAWAV14A1K6BEMLH1HG","","null","<img src=""img/food6.png"" style=""width:200px; border:14px solid green;"">","null","","","","","","","","","",""
"","image-keyboard-response","305","168125","0.0-394.0","3KAKFY4PGVOI2EXOLSB7XUNESX73IJ","A32K4W6B31XWVR","3EHVO81VN57KAWAV14A1K6BEMLH1HG","","526","img/food3.png","74","527","1","1","","3","1","1,0.5,0,1,0.5,0,0.5,0,1","0,1,0.5,0,1,0.5,1,0.5,0","3",""
"","html-keyboard-response","306","168428","0.0-395.0","3KAKFY4PGVOI2EXOLSB7XUNESX73IJ","A32K4W6B31XWVR","3EHVO81VN57KAWAV14A1K6BEMLH1HG","","null","<img src=""img/food3.png"" style=""width:200px; border:14px solid green;"">","null","","","","","","","","","",""
"","image-keyboard-response","307","169116","0.0-396.0","3KAKFY4PGVOI2EXOLSB7XUNESX73IJ","A32K4W6B31XWVR","3EHVO81VN57KAWAV14A1K6BEMLH1HG","","686.9000000953674","img/food3.png","74","687.7999999523163","1","1","","3","1","1,0.5,0,1,0.5,0,0.5,0,1","0,1,0.5,0,1,0.5,1,0.5,0","3",""
"","html-keyboard-response","308","169417","0.0-397.0","3KAKFY4PGVOI2EXOLSB7XUNESX73IJ","A32K4W6B31XWVR","3EHVO81VN57KAWAV14A1K6BEMLH1HG","","null","<img src=""img/food3.png"" style=""width:200px; border:14px solid green;"">","null","","","","","","","","","",""
"","image-keyboard-response","309","170004","0.0-398.0","3KAKFY4PGVOI2EXOLSB7XUNESX73IJ","A32K4W6B31XWVR","3EHVO81VN57KAWAV14A1K6BEMLH1HG","","584.9000000953674","img/food1.png","76","586","3","0","","1","1","1,0.5,0,1,0.5,0,0.5,0,1","0,1,0.5,0,1,0.5,1,0.5,0","3",""
"","html-keyboard-response","310","170306","0.0-399.0","3KAKFY4PGVOI2EXOLSB7XUNESX73IJ","A32K4W6B31XWVR","3EHVO81VN57KAWAV14A1K6BEMLH1HG","","null","<img src=""img/food1.png"" style=""width:200px;border:14px solid red;"">","null","","","","","","","","","",""
"","image-keyboard-response","311","170846","0.0-400.0","3KAKFY4PGVOI2EXOLSB7XUNESX73IJ","A32K4W6B31XWVR","3EHVO81VN57KAWAV14A1K6BEMLH1HG","","538.5","img/food3.png","75","539.5999999046326","2","0","","3","1","1,0.5,0,1,0.5,0,0.5,0,1","0,1,0.5,0,1,0.5,1,0.5,0","3",""
"","html-keyboard-response","312","171148","0.0-401.0","3KAKFY4PGVOI2EXOLSB7XUNESX73IJ","A32K4W6B31XWVR","3EHVO81VN57KAWAV14A1K6BEMLH1HG","","null","<img src=""img/food3.png"" style=""width:200px;border:14px solid red;"">","null","","","","","","","","","",""
"","image-keyboard-response","313","171402","0.0-402.0","3KAKFY4PGVOI2EXOLSB7XUNESX73IJ","A32K4W6B31XWVR","3EHVO81VN57KAWAV14A1K6BEMLH1HG","","252.5","img/food6.png","74","253.5","1","0","","2","1","1,0.5,0,1,0.5,0,0.5,0,1","0,1,0.5,0,1,0.5,1,0.5,0","3",""
"","html-keyboard-response","314","171712","0.0-403.0","3KAKFY4PGVOI2EXOLSB7XUNESX73IJ","A32K4W6B31XWVR","3EHVO81VN57KAWAV14A1K6BEMLH1HG","","null","<img src=""img/food6.png"" style=""width:200px;border:14px solid red;"">","null","","","","","","","","","",""
"","image-keyboard-response","315","172401","0.0-404.0","3KAKFY4PGVOI2EXOLSB7XUNESX73IJ","A32K4W6B31XWVR","3EHVO81VN57KAWAV14A1K6BEMLH1HG","","687.0999999046326","img/food1.png","76","688.2999999523163","3","0","","1","1","1,0.5,0,1,0.5,0,0.5,0,1","0,1,0.5,0,1,0.5,1,0.5,0","3",""
"","html-keyboard-response","316","172709","0.0-405.0","3KAKFY4PGVOI2EXOLSB7XUNESX73IJ","A32K4W6B31XWVR","3EHVO81VN57KAWAV14A1K6BEMLH1HG","","null","<img src=""img/food1.png"" style=""width:200px;border:14px solid red;"">","null","","","","","","","","","",""
"","image-keyboard-response","317","173143","0.0-406.0","3KAKFY4PGVOI2EXOLSB7XUNESX73IJ","A32K4W6B31XWVR","3EHVO81VN57KAWAV14A1K6BEMLH1HG","","432.7999999523163","img/food1.png","76","433.7999999523163","3","0","","1","1","1,0.5,0,1,0.5,0,0.5,0,1","0,1,0.5,0,1,0.5,1,0.5,0","3",""
"","html-keyboard-response","318","173445","0.0-407.0","3KAKFY4PGVOI2EXOLSB7XUNESX73IJ","A32K4W6B31XWVR","3EHVO81VN57KAWAV14A1K6BEMLH1HG","","null","<img src=""img/food1.png"" style=""width:200px;border:14px solid red;"">","null","","","","","","","","","",""
"","image-keyboard-response","319","174050","0.0-408.0","3KAKFY4PGVOI2EXOLSB7XUNESX73IJ","A32K4W6B31XWVR","3EHVO81VN57KAWAV14A1K6BEMLH1HG","","603.6000001430511","img/food3.png","74","604.6000001430511","1","1","","3","1","1,0.5,0,1,0.5,0,0.5,0,1","0,1,0.5,0,1,0.5,1,0.5,0","3",""
"","html-keyboard-response","320","174356","0.0-409.0","3KAKFY4PGVOI2EXOLSB7XUNESX73IJ","A32K4W6B31XWVR","3EHVO81VN57KAWAV14A1K6BEMLH1HG","","null","<img src=""img/food3.png"" style=""width:200px; border:14px solid green;"">","null","","","","","","","","","",""
"","image-keyboard-response","321","174926","0.0-410.0","3KAKFY4PGVOI2EXOLSB7XUNESX73IJ","A32K4W6B31XWVR","3EHVO81VN57KAWAV14A1K6BEMLH1HG","","569","img/food6.png","75","570.1000001430511","2","1","","2","1","1,0.5,0,1,0.5,0,0.5,0,1","0,1,0.5,0,1,0.5,1,0.5,0","3",""
"","html-keyboard-response","322","175228","0.0-411.0","3KAKFY4PGVOI2EXOLSB7XUNESX73IJ","A32K4W6B31XWVR","3EHVO81VN57KAWAV14A1K6BEMLH1HG","","null","<img src=""img/food6.png"" style=""width:200px; border:14px solid green;"">","null","","","","","","","","","",""
"","image-keyboard-response","323","175504","0.0-412.0","3KAKFY4PGVOI2EXOLSB7XUNESX73IJ","A32K4W6B31XWVR","3EHVO81VN57KAWAV14A1K6BEMLH1HG","","274.90000009536743","img/food1.png","75","275.90000009536743","2","1","","1","1","1,0.5,0,1,0.5,0,0.5,0,1","0,1,0.5,0,1,0.5,1,0.5,0","3",""
"","html-keyboard-response","324","175806","0.0-413.0","3KAKFY4PGVOI2EXOLSB7XUNESX73IJ","A32K4W6B31XWVR","3EHVO81VN57KAWAV14A1K6BEMLH1HG","","null","<img src=""img/food1.png"" style=""width:200px; border:14px solid green;"">","null","","","","","","","","","",""
"","image-keyboard-response","325","176089","0.0-414.0","3KAKFY4PGVOI2EXOLSB7XUNESX73IJ","A32K4W6B31XWVR","3EHVO81VN57KAWAV14A1K6BEMLH1HG","","281.7999999523163","img/food3.png","76","282.80000019073486","3","0","","3","1","1,0.5,0,1,0.5,0,0.5,0,1","0,1,0.5,0,1,0.5,1,0.5,0","3",""
"","html-keyboard-response","326","176391","0.0-415.0","3KAKFY4PGVOI2EXOLSB7XUNESX73IJ","A32K4W6B31XWVR","3EHVO81VN57KAWAV14A1K6BEMLH1HG","","null","<img src=""img/food3.png"" style=""width:200px;border:14px solid red;"">","null","","","","","","","","","",""
"","image-keyboard-response","327","176831","0.0-416.0","3KAKFY4PGVOI2EXOLSB7XUNESX73IJ","A32K4W6B31XWVR","3EHVO81VN57KAWAV14A1K6BEMLH1HG","","439","img/food3.png","74","440.09999990463257","1","1","","3","1","1,0.5,0,1,0.5,0,0.5,0,1","0,1,0.5,0,1,0.5,1,0.5,0","3",""
"","html-keyboard-response","328","177133","0.0-417.0","3KAKFY4PGVOI2EXOLSB7XUNESX73IJ","A32K4W6B31XWVR","3EHVO81VN57KAWAV14A1K6BEMLH1HG","","null","<img src=""img/food3.png"" style=""width:200px; border:14px solid green;"">","null","","","","","","","","","",""
"","image-keyboard-response","329","177622","0.0-418.0","3KAKFY4PGVOI2EXOLSB7XUNESX73IJ","A32K4W6B31XWVR","3EHVO81VN57KAWAV14A1K6BEMLH1HG","","487.09999990463257","img/food6.png","75","488.2999999523163","2","1","","2","1","1,0.5,0,1,0.5,0,0.5,0,1","0,1,0.5,0,1,0.5,1,0.5,0","3",""
"","html-keyboard-response","330","177924","0.0-419.0","3KAKFY4PGVOI2EXOLSB7XUNESX73IJ","A32K4W6B31XWVR","3EHVO81VN57KAWAV14A1K6BEMLH1HG","","null","<img src=""img/food6.png"" style=""width:200px; border:14px solid green;"">","null","","","","","","","","","",""
"","image-keyboard-response","331","178531","0.0-420.0","3KAKFY4PGVOI2EXOLSB7XUNESX73IJ","A32K4W6B31XWVR","3EHVO81VN57KAWAV14A1K6BEMLH1HG","","606","img/food1.png","76","607.2000000476837","3","0","","1","1","1,0.5,0,1,0.5,0,0.5,0,1","0,1,0.5,0,1,0.5,1,0.5,0","3",""
"","html-keyboard-response","332","178834","0.0-421.0","3KAKFY4PGVOI2EXOLSB7XUNESX73IJ","A32K4W6B31XWVR","3EHVO81VN57KAWAV14A1K6BEMLH1HG","","null","<img src=""img/food1.png"" style=""width:200px;border:14px solid red;"">","null","","","","","","","","","",""
"","image-keyboard-response","333","179352","0.0-422.0","3KAKFY4PGVOI2EXOLSB7XUNESX73IJ","A32K4W6B31XWVR","3EHVO81VN57KAWAV14A1K6BEMLH1HG","","516.2999999523163","img/food6.png","75","517.2000000476837","2","1","","2","1","1,0.5,0,1,0.5,0,0.5,0,1","0,1,0.5,0,1,0.5,1,0.5,0","3",""
"","html-keyboard-response","334","179654","0.0-423.0","3KAKFY4PGVOI2EXOLSB7XUNESX73IJ","A32K4W6B31XWVR","3EHVO81VN57KAWAV14A1K6BEMLH1HG","","null","<img src=""img/food6.png"" style=""width:200px; border:14px solid green;"">","null","","","","","","","","","",""
"","image-keyboard-response","335","179943","0.0-424.0","3KAKFY4PGVOI2EXOLSB7XUNESX73IJ","A32K4W6B31XWVR","3EHVO81VN57KAWAV14A1K6BEMLH1HG","","287.5","img/food6.png","75","288.69999980926514","2","1","","2","1","1,0.5,0,1,0.5,0,0.5,0,1","0,1,0.5,0,1,0.5,1,0.5,0","3",""
"","html-keyboard-response","336","180245","0.0-425.0","3KAKFY4PGVOI2EXOLSB7XUNESX73IJ","A32K4W6B31XWVR","3EHVO81VN57KAWAV14A1K6BEMLH1HG","","null","<img src=""img/food6.png"" style=""width:200px; border:14px solid green;"">","null","","","","","","","","","",""
"","image-keyboard-response","337","180600","0.0-426.0","3KAKFY4PGVOI2EXOLSB7XUNESX73IJ","A32K4W6B31XWVR","3EHVO81VN57KAWAV14A1K6BEMLH1HG","","352.7999999523163","img/food3.png","75","354","2","1","","3","1","1,0.5,0,1,0.5,0,0.5,0,1","0,1,0.5,0,1,0.5,1,0.5,0","3",""
"","html-keyboard-response","338","180902","0.0-427.0","3KAKFY4PGVOI2EXOLSB7XUNESX73IJ","A32K4W6B31XWVR","3EHVO81VN57KAWAV14A1K6BEMLH1HG","","null","<img src=""img/food3.png"" style=""width:200px; border:14px solid green;"">","null","","","","","","","","","",""
"","image-keyboard-response","339","181236","0.0-428.0","3KAKFY4PGVOI2EXOLSB7XUNESX73IJ","A32K4W6B31XWVR","3EHVO81VN57KAWAV14A1K6BEMLH1HG","","332.60000014305115","img/food3.png","75","333.7999999523163","2","0","","3","1","1,0.5,0,1,0.5,0,0.5,0,1","0,1,0.5,0,1,0.5,1,0.5,0","3",""
"","html-keyboard-response","340","181539","0.0-429.0","3KAKFY4PGVOI2EXOLSB7XUNESX73IJ","A32K4W6B31XWVR","3EHVO81VN57KAWAV14A1K6BEMLH1HG","","null","<img src=""img/food3.png"" style=""width:200px;border:14px solid red;"">","null","","","","","","","","","",""
"","image-keyboard-response","341","182039","0.0-430.0","3KAKFY4PGVOI2EXOLSB7XUNESX73IJ","A32K4W6B31XWVR","3EHVO81VN57KAWAV14A1K6BEMLH1HG","","499","img/food6.png","75","500","2","1","","2","1","1,0.5,0,1,0.5,0,0.5,0,1","0,1,0.5,0,1,0.5,1,0.5,0","3",""
"","html-keyboard-response","342","182341","0.0-431.0","3KAKFY4PGVOI2EXOLSB7XUNESX73IJ","A32K4W6B31XWVR","3EHVO81VN57KAWAV14A1K6BEMLH1HG","","null","<img src=""img/food6.png"" style=""width:200px; border:14px solid green;"">","null","","","","","","","","","",""
"","image-keyboard-response","343","182916","0.0-432.0","3KAKFY4PGVOI2EXOLSB7XUNESX73IJ","A32K4W6B31XWVR","3EHVO81VN57KAWAV14A1K6BEMLH1HG","","572.7999999523163","img/food1.png","76","573.9000000953674","3","0","","1","1","1,0.5,0,1,0.5,0,0.5,0,1","0,1,0.5,0,1,0.5,1,0.5,0","3",""
"","html-keyboard-response","344","183219","0.0-433.0","3KAKFY4PGVOI2EXOLSB7XUNESX73IJ","A32K4W6B31XWVR","3EHVO81VN57KAWAV14A1K6BEMLH1HG","","null","<img src=""img/food1.png"" style=""width:200px;border:14px solid red;"">","null","","","","","","","","","",""
"","image-keyboard-response","345","183607","0.0-434.0","3KAKFY4PGVOI2EXOLSB7XUNESX73IJ","A32K4W6B31XWVR","3EHVO81VN57KAWAV14A1K6BEMLH1HG","","386.40000009536743","img/food1.png","75","387.60000014305115","2","1","","1","1","1,0.5,0,1,0.5,0,0.5,0,1","0,1,0.5,0,1,0.5,1,0.5,0","3",""
"","html-keyboard-response","346","183909","0.0-435.0","3KAKFY4PGVOI2EXOLSB7XUNESX73IJ","A32K4W6B31XWVR","3EHVO81VN57KAWAV14A1K6BEMLH1HG","","null","<img src=""img/food1.png"" style=""width:200px; border:14px solid green;"">","null","","","","","","","","","",""
"","image-keyboard-response","347","184427","0.0-436.0","3KAKFY4PGVOI2EXOLSB7XUNESX73IJ","A32K4W6B31XWVR","3EHVO81VN57KAWAV14A1K6BEMLH1HG","","516.5","img/food1.png","76","517.7999999523163","3","1","","1","1","1,0.5,0,1,0.5,0,0.5,0,1","0,1,0.5,0,1,0.5,1,0.5,0","3",""
"","html-keyboard-response","348","184729","0.0-437.0","3KAKFY4PGVOI2EXOLSB7XUNESX73IJ","A32K4W6B31XWVR","3EHVO81VN57KAWAV14A1K6BEMLH1HG","","null","<img src=""img/food1.png"" style=""width:200px; border:14px solid green;"">","null","","","","","","","","","",""
"","image-keyboard-response","349","185099","0.0-438.0","3KAKFY4PGVOI2EXOLSB7XUNESX73IJ","A32K4W6B31XWVR","3EHVO81VN57KAWAV14A1K6BEMLH1HG","","368.40000009536743","img/food1.png","76","369.90000009536743","3","0","","1","1","1,0.5,0,1,0.5,0,0.5,0,1","0,1,0.5,0,1,0.5,1,0.5,0","3",""
"","html-keyboard-response","350","185401","0.0-439.0","3KAKFY4PGVOI2EXOLSB7XUNESX73IJ","A32K4W6B31XWVR","3EHVO81VN57KAWAV14A1K6BEMLH1HG","","null","<img src=""img/food1.png"" style=""width:200px;border:14px solid red;"">","null","","","","","","","","","",""
"","image-keyboard-response","351","185961","0.0-440.0","3KAKFY4PGVOI2EXOLSB7XUNESX73IJ","A32K4W6B31XWVR","3EHVO81VN57KAWAV14A1K6BEMLH1HG","","559.2000000476837","img/food6.png","75","560.2999999523163","2","1","","2","1","1,0.5,0,1,0.5,0,0.5,0,1","0,1,0.5,0,1,0.5,1,0.5,0","3",""
"","html-keyboard-response","352","186266","0.0-441.0","3KAKFY4PGVOI2EXOLSB7XUNESX73IJ","A32K4W6B31XWVR","3EHVO81VN57KAWAV14A1K6BEMLH1HG","","null","<img src=""img/food6.png"" style=""width:200px; border:14px solid green;"">","null","","","","","","","","","",""
"","image-keyboard-response","353","186863","0.0-442.0","3KAKFY4PGVOI2EXOLSB7XUNESX73IJ","A32K4W6B31XWVR","3EHVO81VN57KAWAV14A1K6BEMLH1HG","","595.3000001907349","img/food3.png","74","596.5","1","1","","3","1","1,0.5,0,1,0.5,0,0.5,0,1","0,1,0.5,0,1,0.5,1,0.5,0","3",""
"","html-keyboard-response","354","187165","0.0-443.0","3KAKFY4PGVOI2EXOLSB7XUNESX73IJ","A32K4W6B31XWVR","3EHVO81VN57KAWAV14A1K6BEMLH1HG","","null","<img src=""img/food3.png"" style=""width:200px; border:14px solid green;"">","null","","","","","","","","","",""
"","image-keyboard-response","355","187638","0.0-444.0","3KAKFY4PGVOI2EXOLSB7XUNESX73IJ","A32K4W6B31XWVR","3EHVO81VN57KAWAV14A1K6BEMLH1HG","","471.89999985694885","img/food6.png","75","472.89999985694885","2","1","","2","1","1,0.5,0,1,0.5,0,0.5,0,1","0,1,0.5,0,1,0.5,1,0.5,0","3",""
"","html-keyboard-response","356","187940","0.0-445.0","3KAKFY4PGVOI2EXOLSB7XUNESX73IJ","A32K4W6B31XWVR","3EHVO81VN57KAWAV14A1K6BEMLH1HG","","null","<img src=""img/food6.png"" style=""width:200px; border:14px solid green;"">","null","","","","","","","","","",""
"","image-keyboard-response","357","188503","0.0-446.0","3KAKFY4PGVOI2EXOLSB7XUNESX73IJ","A32K4W6B31XWVR","3EHVO81VN57KAWAV14A1K6BEMLH1HG","","560.7999999523163","img/food3.png","74","562.1000001430511","1","1","","3","1","1,0.5,0,1,0.5,0,0.5,0,1","0,1,0.5,0,1,0.5,1,0.5,0","3",""
"","html-keyboard-response","358","188805","0.0-447.0","3KAKFY4PGVOI2EXOLSB7XUNESX73IJ","A32K4W6B31XWVR","3EHVO81VN57KAWAV14A1K6BEMLH1HG","","null","<img src=""img/food3.png"" style=""width:200px; border:14px solid green;"">","null","","","","","","","","","",""
"","image-keyboard-response","359","189373","0.0-448.0","3KAKFY4PGVOI2EXOLSB7XUNESX73IJ","A32K4W6B31XWVR","3EHVO81VN57KAWAV14A1K6BEMLH1HG","","566.2000000476837","img/food1.png","76","567.5","3","0","","1","1","1,0.5,0,1,0.5,0,0.5,0,1","0,1,0.5,0,1,0.5,1,0.5,0","3",""
"","html-keyboard-response","360","189675","0.0-449.0","3KAKFY4PGVOI2EXOLSB7XUNESX73IJ","A32K4W6B31XWVR","3EHVO81VN57KAWAV14A1K6BEMLH1HG","","null","<img src=""img/food1.png"" style=""width:200px;border:14px solid red;"">","null","","","","","","","","","",""
"","image-keyboard-response","361","190089","0.0-450.0","3KAKFY4PGVOI2EXOLSB7XUNESX73IJ","A32K4W6B31XWVR","3EHVO81VN57KAWAV14A1K6BEMLH1HG","","412.7999999523163","img/food1.png","76","413.7999999523163","3","0","","1","1","1,0.5,0,1,0.5,0,0.5,0,1","0,1,0.5,0,1,0.5,1,0.5,0","3",""
"","html-keyboard-response","362","190390","0.0-451.0","3KAKFY4PGVOI2EXOLSB7XUNESX73IJ","A32K4W6B31XWVR","3EHVO81VN57KAWAV14A1K6BEMLH1HG","","null","<img src=""img/food1.png"" style=""width:200px;border:14px solid red;"">","null","","","","","","","","","",""
"","image-keyboard-response","363","190904","0.0-452.0","3KAKFY4PGVOI2EXOLSB7XUNESX73IJ","A32K4W6B31XWVR","3EHVO81VN57KAWAV14A1K6BEMLH1HG","","512.2999999523163","img/food3.png","75","513.5","2","1","","3","1","1,0.5,0,1,0.5,0,0.5,0,1","0,1,0.5,0,1,0.5,1,0.5,0","3",""
"","html-keyboard-response","364","191206","0.0-453.0","3KAKFY4PGVOI2EXOLSB7XUNESX73IJ","A32K4W6B31XWVR","3EHVO81VN57KAWAV14A1K6BEMLH1HG","","null","<img src=""img/food3.png"" style=""width:200px; border:14px solid green;"">","null","","","","","","","","","",""
"","html-keyboard-response","365","194118","0.0-454.0","3KAKFY4PGVOI2EXOLSB7XUNESX73IJ","A32K4W6B31XWVR","3EHVO81VN57KAWAV14A1K6BEMLH1HG","","","","","","","","","","","","","",""
"","instructions","366","195280","0.0-455.0","3KAKFY4PGVOI2EXOLSB7XUNESX73IJ","A32K4W6B31XWVR","3EHVO81VN57KAWAV14A1K6BEMLH1HG","[{""page_index"":0,""viewing_time"":1160.2000000476837}]","1160.6000001430511","","","","","","","","","","","",""
"","survey-text","367","213291","0.0-456.0","3KAKFY4PGVOI2EXOLSB7XUNESX73IJ","A32K4W6B31XWVR","3EHVO81VN57KAWAV14A1K6BEMLH1HG","","18004.599999904633","","","","","","","","","","","","{""Q0"":""A32K4W6B31XWVR""}"
