"success","trial_type","trial_index","time_elapsed","internal_node_id","assignmentID","mturkID","hitID","view_history","rt","stimulus","key_press","reactionTime","a","r","s","cond","reward_cond","reward_cond_actual","reward_matrix_idx","warning","responses"
"true","fullscreen","0","25744","0.0-0.0","3H8DHMCCWAX7Q1P9EK2VNJO3BL7KD9","A334VWE4QGAZFR","3L1EFR8WWTRIL5MKAR1UWRHK4IC9FJ","","","","","","","","","","","","","",""
"","instructions","1","37951","0.0-1.0","3H8DHMCCWAX7Q1P9EK2VNJO3BL7KD9","A334VWE4QGAZFR","3L1EFR8WWTRIL5MKAR1UWRHK4IC9FJ","[{""page_index"":0,""viewing_time"":2228},{""page_index"":1,""viewing_time"":1419},{""page_index"":2,""viewing_time"":1318},{""page_index"":3,""viewing_time"":1575},{""page_index"":4,""viewing_time"":2383},{""page_index"":5,""viewing_time"":2096},{""page_index"":6,""viewing_time"":1185}]","12204","","","","","","","","","","","",""
"","image-keyboard-response","2","39749","0.0-2.0","3H8DHMCCWAX7Q1P9EK2VNJO3BL7KD9","A334VWE4QGAZFR","3L1EFR8WWTRIL5MKAR1UWRHK4IC9FJ","","1796","img/food2.png","74","1798","1","0","3","1","1,0.5,0,1,0.5,0,0.5,0,1","1,0.5,0,1,0.5,0,0.5,0,1","1","",""
"","html-keyboard-response","3","40052","0.0-3.0","3H8DHMCCWAX7Q1P9EK2VNJO3BL7KD9","A334VWE4QGAZFR","3L1EFR8WWTRIL5MKAR1UWRHK4IC9FJ","","null","<img src=""img/food2.png"" style=""width:200px;border:14px solid red;"">","null","","","","","","","","","",""
"","image-keyboard-response","4","40197","0.0-4.0","3H8DHMCCWAX7Q1P9EK2VNJO3BL7KD9","A334VWE4QGAZFR","3L1EFR8WWTRIL5MKAR1UWRHK4IC9FJ","","144","img/food2.png","75","145","2","0","3","1","1,0.5,0,1,0.5,0,0.5,0,1","1,0.5,0,1,0.5,0,0.5,0,1","1","",""
"","html-keyboard-response","5","40500","0.0-5.0","3H8DHMCCWAX7Q1P9EK2VNJO3BL7KD9","A334VWE4QGAZFR","3L1EFR8WWTRIL5MKAR1UWRHK4IC9FJ","","null","<img src=""img/food2.png"" style=""width:200px;border:14px solid red;"">","null","","","","","","","","","",""
"","image-keyboard-response","6","40533","0.0-6.0","3H8DHMCCWAX7Q1P9EK2VNJO3BL7KD9","A334VWE4QGAZFR","3L1EFR8WWTRIL5MKAR1UWRHK4IC9FJ","","32","img/food6.png","74","33","1","1","2","1","1,0.5,0,1,0.5,0,0.5,0,1","1,0.5,0,1,0.5,0,0.5,0,1","1","",""
"","html-keyboard-response","7","40835","0.0-7.0","3H8DHMCCWAX7Q1P9EK2VNJO3BL7KD9","A334VWE4QGAZFR","3L1EFR8WWTRIL5MKAR1UWRHK4IC9FJ","","null","<img src=""img/food6.png"" style=""width:200px; border:14px solid green;"">","null","","","","","","","","","",""
"","image-keyboard-response","8","40862","0.0-8.0","3H8DHMCCWAX7Q1P9EK2VNJO3BL7KD9","A334VWE4QGAZFR","3L1EFR8WWTRIL5MKAR1UWRHK4IC9FJ","","25","img/food5.png","75","26","2","0","1","1","1,0.5,0,1,0.5,0,0.5,0,1","1,0.5,0,1,0.5,0,0.5,0,1","1","",""
"","html-keyboard-response","9","41164","0.0-9.0","3H8DHMCCWAX7Q1P9EK2VNJO3BL7KD9","A334VWE4QGAZFR","3L1EFR8WWTRIL5MKAR1UWRHK4IC9FJ","","null","<img src=""img/food5.png"" style=""width:200px;border:14px solid red;"">","null","","","","","","","","","",""
"","image-keyboard-response","10","41645","0.0-10.0","3H8DHMCCWAX7Q1P9EK2VNJO3BL7KD9","A334VWE4QGAZFR","3L1EFR8WWTRIL5MKAR1UWRHK4IC9FJ","","481","img/food2.png","75","481","2","0","3","1","1,0.5,0,1,0.5,0,0.5,0,1","1,0.5,0,1,0.5,0,0.5,0,1","1","",""
"","html-keyboard-response","11","41948","0.0-11.0","3H8DHMCCWAX7Q1P9EK2VNJO3BL7KD9","A334VWE4QGAZFR","3L1EFR8WWTRIL5MKAR1UWRHK4IC9FJ","","null","<img src=""img/food2.png"" style=""width:200px;border:14px solid red;"">","null","","","","","","","","","",""
"","image-keyboard-response","12","42195","0.0-12.0","3H8DHMCCWAX7Q1P9EK2VNJO3BL7KD9","A334VWE4QGAZFR","3L1EFR8WWTRIL5MKAR1UWRHK4IC9FJ","","245","img/food2.png","76","247","3","1","3","1","1,0.5,0,1,0.5,0,0.5,0,1","1,0.5,0,1,0.5,0,0.5,0,1","1","",""
"","html-keyboard-response","13","42497","0.0-13.0","3H8DHMCCWAX7Q1P9EK2VNJO3BL7KD9","A334VWE4QGAZFR","3L1EFR8WWTRIL5MKAR1UWRHK4IC9FJ","","null","<img src=""img/food2.png"" style=""width:200px; border:14px solid green;"">","null","","","","","","","","","",""
"","image-keyboard-response","14","42619","0.0-14.0","3H8DHMCCWAX7Q1P9EK2VNJO3BL7KD9","A334VWE4QGAZFR","3L1EFR8WWTRIL5MKAR1UWRHK4IC9FJ","","121","img/food2.png","74","122","1","0","3","1","1,0.5,0,1,0.5,0,0.5,0,1","1,0.5,0,1,0.5,0,0.5,0,1","1","",""
"","html-keyboard-response","15","42920","0.0-15.0","3H8DHMCCWAX7Q1P9EK2VNJO3BL7KD9","A334VWE4QGAZFR","3L1EFR8WWTRIL5MKAR1UWRHK4IC9FJ","","null","<img src=""img/food2.png"" style=""width:200px;border:14px solid red;"">","null","","","","","","","","","",""
"","image-keyboard-response","16","43046","0.0-16.0","3H8DHMCCWAX7Q1P9EK2VNJO3BL7KD9","A334VWE4QGAZFR","3L1EFR8WWTRIL5MKAR1UWRHK4IC9FJ","","125","img/food6.png","75","126","2","0","2","1","1,0.5,0,1,0.5,0,0.5,0,1","1,0.5,0,1,0.5,0,0.5,0,1","1","",""
"","html-keyboard-response","17","43350","0.0-17.0","3H8DHMCCWAX7Q1P9EK2VNJO3BL7KD9","A334VWE4QGAZFR","3L1EFR8WWTRIL5MKAR1UWRHK4IC9FJ","","null","<img src=""img/food6.png"" style=""width:200px;border:14px solid red;"">","null","","","","","","","","","",""
"","image-keyboard-response","18","43434","0.0-18.0","3H8DHMCCWAX7Q1P9EK2VNJO3BL7KD9","A334VWE4QGAZFR","3L1EFR8WWTRIL5MKAR1UWRHK4IC9FJ","","84","img/food5.png","74","84","1","1","1","1","1,0.5,0,1,0.5,0,0.5,0,1","1,0.5,0,1,0.5,0,0.5,0,1","1","",""
"","html-keyboard-response","19","43735","0.0-19.0","3H8DHMCCWAX7Q1P9EK2VNJO3BL7KD9","A334VWE4QGAZFR","3L1EFR8WWTRIL5MKAR1UWRHK4IC9FJ","","null","<img src=""img/food5.png"" style=""width:200px; border:14px solid green;"">","null","","","","","","","","","",""
"","image-keyboard-response","20","43852","0.0-20.0","3H8DHMCCWAX7Q1P9EK2VNJO3BL7KD9","A334VWE4QGAZFR","3L1EFR8WWTRIL5MKAR1UWRHK4IC9FJ","","116","img/food5.png","75","117","2","0","1","1","1,0.5,0,1,0.5,0,0.5,0,1","1,0.5,0,1,0.5,0,0.5,0,1","1","",""
"","html-keyboard-response","21","44155","0.0-21.0","3H8DHMCCWAX7Q1P9EK2VNJO3BL7KD9","A334VWE4QGAZFR","3L1EFR8WWTRIL5MKAR1UWRHK4IC9FJ","","null","<img src=""img/food5.png"" style=""width:200px;border:14px solid red;"">","null","","","","","","","","","",""
"","image-keyboard-response","22","44174","0.0-22.0","3H8DHMCCWAX7Q1P9EK2VNJO3BL7KD9","A334VWE4QGAZFR","3L1EFR8WWTRIL5MKAR1UWRHK4IC9FJ","","19","img/food2.png","75","19","2","0","3","1","1,0.5,0,1,0.5,0,0.5,0,1","1,0.5,0,1,0.5,0,0.5,0,1","1","",""
"","html-keyboard-response","23","44475","0.0-23.0","3H8DHMCCWAX7Q1P9EK2VNJO3BL7KD9","A334VWE4QGAZFR","3L1EFR8WWTRIL5MKAR1UWRHK4IC9FJ","","null","<img src=""img/food2.png"" style=""width:200px;border:14px solid red;"">","null","","","","","","","","","",""
"","image-keyboard-response","24","44587","0.0-24.0","3H8DHMCCWAX7Q1P9EK2VNJO3BL7KD9","A334VWE4QGAZFR","3L1EFR8WWTRIL5MKAR1UWRHK4IC9FJ","","111","img/food5.png","74","112","1","1","1","1","1,0.5,0,1,0.5,0,0.5,0,1","1,0.5,0,1,0.5,0,0.5,0,1","1","",""
"","html-keyboard-response","25","44894","0.0-25.0","3H8DHMCCWAX7Q1P9EK2VNJO3BL7KD9","A334VWE4QGAZFR","3L1EFR8WWTRIL5MKAR1UWRHK4IC9FJ","","null","<img src=""img/food5.png"" style=""width:200px; border:14px solid green;"">","null","","","","","","","","","",""
"","image-keyboard-response","26","44992","0.0-26.0","3H8DHMCCWAX7Q1P9EK2VNJO3BL7KD9","A334VWE4QGAZFR","3L1EFR8WWTRIL5MKAR1UWRHK4IC9FJ","","96","img/food5.png","75","98","2","0","1","1","1,0.5,0,1,0.5,0,0.5,0,1","1,0.5,0,1,0.5,0,0.5,0,1","1","",""
"","html-keyboard-response","27","45293","0.0-27.0","3H8DHMCCWAX7Q1P9EK2VNJO3BL7KD9","A334VWE4QGAZFR","3L1EFR8WWTRIL5MKAR1UWRHK4IC9FJ","","null","<img src=""img/food5.png"" style=""width:200px;border:14px solid red;"">","null","","","","","","","","","",""
"","image-keyboard-response","28","45360","0.0-28.0","3H8DHMCCWAX7Q1P9EK2VNJO3BL7KD9","A334VWE4QGAZFR","3L1EFR8WWTRIL5MKAR1UWRHK4IC9FJ","","66","img/food6.png","74","67","1","1","2","1","1,0.5,0,1,0.5,0,0.5,0,1","1,0.5,0,1,0.5,0,0.5,0,1","1","",""
"","html-keyboard-response","29","45665","0.0-29.0","3H8DHMCCWAX7Q1P9EK2VNJO3BL7KD9","A334VWE4QGAZFR","3L1EFR8WWTRIL5MKAR1UWRHK4IC9FJ","","null","<img src=""img/food6.png"" style=""width:200px; border:14px solid green;"">","null","","","","","","","","","",""
"","image-keyboard-response","30","45769","0.0-30.0","3H8DHMCCWAX7Q1P9EK2VNJO3BL7KD9","A334VWE4QGAZFR","3L1EFR8WWTRIL5MKAR1UWRHK4IC9FJ","","103","img/food5.png","75","104","2","0","1","1","1,0.5,0,1,0.5,0,0.5,0,1","1,0.5,0,1,0.5,0,0.5,0,1","1","",""
"","html-keyboard-response","31","46071","0.0-31.0","3H8DHMCCWAX7Q1P9EK2VNJO3BL7KD9","A334VWE4QGAZFR","3L1EFR8WWTRIL5MKAR1UWRHK4IC9FJ","","null","<img src=""img/food5.png"" style=""width:200px;border:14px solid red;"">","null","","","","","","","","","",""
"","image-keyboard-response","32","46085","0.0-32.0","3H8DHMCCWAX7Q1P9EK2VNJO3BL7KD9","A334VWE4QGAZFR","3L1EFR8WWTRIL5MKAR1UWRHK4IC9FJ","","13","img/food6.png","75","14","2","0","2","1","1,0.5,0,1,0.5,0,0.5,0,1","1,0.5,0,1,0.5,0,0.5,0,1","1","",""
"","html-keyboard-response","33","46386","0.0-33.0","3H8DHMCCWAX7Q1P9EK2VNJO3BL7KD9","A334VWE4QGAZFR","3L1EFR8WWTRIL5MKAR1UWRHK4IC9FJ","","null","<img src=""img/food6.png"" style=""width:200px;border:14px solid red;"">","null","","","","","","","","","",""
"","image-keyboard-response","34","46484","0.0-34.0","3H8DHMCCWAX7Q1P9EK2VNJO3BL7KD9","A334VWE4QGAZFR","3L1EFR8WWTRIL5MKAR1UWRHK4IC9FJ","","98","img/food5.png","74","98","1","1","1","1","1,0.5,0,1,0.5,0,0.5,0,1","1,0.5,0,1,0.5,0,0.5,0,1","1","",""
"","html-keyboard-response","35","46786","0.0-35.0","3H8DHMCCWAX7Q1P9EK2VNJO3BL7KD9","A334VWE4QGAZFR","3L1EFR8WWTRIL5MKAR1UWRHK4IC9FJ","","null","<img src=""img/food5.png"" style=""width:200px; border:14px solid green;"">","null","","","","","","","","","",""
"","image-keyboard-response","36","46903","0.0-36.0","3H8DHMCCWAX7Q1P9EK2VNJO3BL7KD9","A334VWE4QGAZFR","3L1EFR8WWTRIL5MKAR1UWRHK4IC9FJ","","116","img/food2.png","75","117","2","0","3","1","1,0.5,0,1,0.5,0,0.5,0,1","1,0.5,0,1,0.5,0,0.5,0,1","1","",""
"","html-keyboard-response","37","47205","0.0-37.0","3H8DHMCCWAX7Q1P9EK2VNJO3BL7KD9","A334VWE4QGAZFR","3L1EFR8WWTRIL5MKAR1UWRHK4IC9FJ","","null","<img src=""img/food2.png"" style=""width:200px;border:14px solid red;"">","null","","","","","","","","","",""
"","image-keyboard-response","38","47268","0.0-38.0","3H8DHMCCWAX7Q1P9EK2VNJO3BL7KD9","A334VWE4QGAZFR","3L1EFR8WWTRIL5MKAR1UWRHK4IC9FJ","","63","img/food2.png","74","63","1","1","3","1","1,0.5,0,1,0.5,0,0.5,0,1","1,0.5,0,1,0.5,0,0.5,0,1","1","",""
"","html-keyboard-response","39","47570","0.0-39.0","3H8DHMCCWAX7Q1P9EK2VNJO3BL7KD9","A334VWE4QGAZFR","3L1EFR8WWTRIL5MKAR1UWRHK4IC9FJ","","null","<img src=""img/food2.png"" style=""width:200px; border:14px solid green;"">","null","","","","","","","","","",""
"","image-keyboard-response","40","47675","0.0-40.0","3H8DHMCCWAX7Q1P9EK2VNJO3BL7KD9","A334VWE4QGAZFR","3L1EFR8WWTRIL5MKAR1UWRHK4IC9FJ","","103","img/food6.png","75","104","2","1","2","1","1,0.5,0,1,0.5,0,0.5,0,1","1,0.5,0,1,0.5,0,0.5,0,1","1","",""
"","html-keyboard-response","41","47976","0.0-41.0","3H8DHMCCWAX7Q1P9EK2VNJO3BL7KD9","A334VWE4QGAZFR","3L1EFR8WWTRIL5MKAR1UWRHK4IC9FJ","","null","<img src=""img/food6.png"" style=""width:200px; border:14px solid green;"">","null","","","","","","","","","",""
"","image-keyboard-response","42","47987","0.0-42.0","3H8DHMCCWAX7Q1P9EK2VNJO3BL7KD9","A334VWE4QGAZFR","3L1EFR8WWTRIL5MKAR1UWRHK4IC9FJ","","10","img/food6.png","76","11","3","0","2","1","1,0.5,0,1,0.5,0,0.5,0,1","1,0.5,0,1,0.5,0,0.5,0,1","1","",""
"","html-keyboard-response","43","48290","0.0-43.0","3H8DHMCCWAX7Q1P9EK2VNJO3BL7KD9","A334VWE4QGAZFR","3L1EFR8WWTRIL5MKAR1UWRHK4IC9FJ","","null","<img src=""img/food6.png"" style=""width:200px;border:14px solid red;"">","null","","","","","","","","","",""
"","image-keyboard-response","44","48340","0.0-44.0","3H8DHMCCWAX7Q1P9EK2VNJO3BL7KD9","A334VWE4QGAZFR","3L1EFR8WWTRIL5MKAR1UWRHK4IC9FJ","","49","img/food6.png","74","50","1","1","2","1","1,0.5,0,1,0.5,0,0.5,0,1","1,0.5,0,1,0.5,0,0.5,0,1","1","",""
"","html-keyboard-response","45","48643","0.0-45.0","3H8DHMCCWAX7Q1P9EK2VNJO3BL7KD9","A334VWE4QGAZFR","3L1EFR8WWTRIL5MKAR1UWRHK4IC9FJ","","null","<img src=""img/food6.png"" style=""width:200px; border:14px solid green;"">","null","","","","","","","","","",""
"","image-keyboard-response","46","48757","0.0-46.0","3H8DHMCCWAX7Q1P9EK2VNJO3BL7KD9","A334VWE4QGAZFR","3L1EFR8WWTRIL5MKAR1UWRHK4IC9FJ","","113","img/food2.png","75","114","2","0","3","1","1,0.5,0,1,0.5,0,0.5,0,1","1,0.5,0,1,0.5,0,0.5,0,1","1","",""
"","html-keyboard-response","47","49059","0.0-47.0","3H8DHMCCWAX7Q1P9EK2VNJO3BL7KD9","A334VWE4QGAZFR","3L1EFR8WWTRIL5MKAR1UWRHK4IC9FJ","","null","<img src=""img/food2.png"" style=""width:200px;border:14px solid red;"">","null","","","","","","","","","",""
"","image-keyboard-response","48","49135","0.0-48.0","3H8DHMCCWAX7Q1P9EK2VNJO3BL7KD9","A334VWE4QGAZFR","3L1EFR8WWTRIL5MKAR1UWRHK4IC9FJ","","75","img/food6.png","74","77","1","1","2","1","1,0.5,0,1,0.5,0,0.5,0,1","1,0.5,0,1,0.5,0,0.5,0,1","1","",""
"","html-keyboard-response","49","49438","0.0-49.0","3H8DHMCCWAX7Q1P9EK2VNJO3BL7KD9","A334VWE4QGAZFR","3L1EFR8WWTRIL5MKAR1UWRHK4IC9FJ","","null","<img src=""img/food6.png"" style=""width:200px; border:14px solid green;"">","null","","","","","","","","","",""
"","image-keyboard-response","50","49543","0.0-50.0","3H8DHMCCWAX7Q1P9EK2VNJO3BL7KD9","A334VWE4QGAZFR","3L1EFR8WWTRIL5MKAR1UWRHK4IC9FJ","","103","img/food5.png","75","105","2","0","1","1","1,0.5,0,1,0.5,0,0.5,0,1","1,0.5,0,1,0.5,0,0.5,0,1","1","",""
"","html-keyboard-response","51","49845","0.0-51.0","3H8DHMCCWAX7Q1P9EK2VNJO3BL7KD9","A334VWE4QGAZFR","3L1EFR8WWTRIL5MKAR1UWRHK4IC9FJ","","null","<img src=""img/food5.png"" style=""width:200px;border:14px solid red;"">","null","","","","","","","","","",""
"","image-keyboard-response","52","49860","0.0-52.0","3H8DHMCCWAX7Q1P9EK2VNJO3BL7KD9","A334VWE4QGAZFR","3L1EFR8WWTRIL5MKAR1UWRHK4IC9FJ","","15","img/food6.png","76","15","3","0","2","1","1,0.5,0,1,0.5,0,0.5,0,1","1,0.5,0,1,0.5,0,0.5,0,1","1","",""
"","html-keyboard-response","53","50162","0.0-53.0","3H8DHMCCWAX7Q1P9EK2VNJO3BL7KD9","A334VWE4QGAZFR","3L1EFR8WWTRIL5MKAR1UWRHK4IC9FJ","","null","<img src=""img/food6.png"" style=""width:200px;border:14px solid red;"">","null","","","","","","","","","",""
"","image-keyboard-response","54","50251","0.0-54.0","3H8DHMCCWAX7Q1P9EK2VNJO3BL7KD9","A334VWE4QGAZFR","3L1EFR8WWTRIL5MKAR1UWRHK4IC9FJ","","87","img/food2.png","74","89","1","1","3","1","1,0.5,0,1,0.5,0,0.5,0,1","1,0.5,0,1,0.5,0,0.5,0,1","1","",""
"","html-keyboard-response","55","50551","0.0-55.0","3H8DHMCCWAX7Q1P9EK2VNJO3BL7KD9","A334VWE4QGAZFR","3L1EFR8WWTRIL5MKAR1UWRHK4IC9FJ","","null","<img src=""img/food2.png"" style=""width:200px; border:14px solid green;"">","null","","","","","","","","","",""
"","image-keyboard-response","56","50675","0.0-56.0","3H8DHMCCWAX7Q1P9EK2VNJO3BL7KD9","A334VWE4QGAZFR","3L1EFR8WWTRIL5MKAR1UWRHK4IC9FJ","","124","img/food2.png","75","124","2","0","3","1","1,0.5,0,1,0.5,0,0.5,0,1","1,0.5,0,1,0.5,0,0.5,0,1","1","",""
"","html-keyboard-response","57","50977","0.0-57.0","3H8DHMCCWAX7Q1P9EK2VNJO3BL7KD9","A334VWE4QGAZFR","3L1EFR8WWTRIL5MKAR1UWRHK4IC9FJ","","null","<img src=""img/food2.png"" style=""width:200px;border:14px solid red;"">","null","","","","","","","","","",""
"","image-keyboard-response","58","50988","0.0-58.0","3H8DHMCCWAX7Q1P9EK2VNJO3BL7KD9","A334VWE4QGAZFR","3L1EFR8WWTRIL5MKAR1UWRHK4IC9FJ","","10","img/food2.png","76","11","3","1","3","1","1,0.5,0,1,0.5,0,0.5,0,1","1,0.5,0,1,0.5,0,0.5,0,1","1","",""
"","html-keyboard-response","59","51291","0.0-59.0","3H8DHMCCWAX7Q1P9EK2VNJO3BL7KD9","A334VWE4QGAZFR","3L1EFR8WWTRIL5MKAR1UWRHK4IC9FJ","","null","<img src=""img/food2.png"" style=""width:200px; border:14px solid green;"">","null","","","","","","","","","",""
"","image-keyboard-response","60","51311","0.0-60.0","3H8DHMCCWAX7Q1P9EK2VNJO3BL7KD9","A334VWE4QGAZFR","3L1EFR8WWTRIL5MKAR1UWRHK4IC9FJ","","18","img/food5.png","75","20","2","0","1","1","1,0.5,0,1,0.5,0,0.5,0,1","1,0.5,0,1,0.5,0,0.5,0,1","1","",""
"","html-keyboard-response","61","51612","0.0-61.0","3H8DHMCCWAX7Q1P9EK2VNJO3BL7KD9","A334VWE4QGAZFR","3L1EFR8WWTRIL5MKAR1UWRHK4IC9FJ","","null","<img src=""img/food5.png"" style=""width:200px;border:14px solid red;"">","null","","","","","","","","","",""
"","image-keyboard-response","62","51658","0.0-62.0","3H8DHMCCWAX7Q1P9EK2VNJO3BL7KD9","A334VWE4QGAZFR","3L1EFR8WWTRIL5MKAR1UWRHK4IC9FJ","","45","img/food2.png","76","46","3","1","3","1","1,0.5,0,1,0.5,0,0.5,0,1","1,0.5,0,1,0.5,0,0.5,0,1","1","",""
"","html-keyboard-response","63","51960","0.0-63.0","3H8DHMCCWAX7Q1P9EK2VNJO3BL7KD9","A334VWE4QGAZFR","3L1EFR8WWTRIL5MKAR1UWRHK4IC9FJ","","null","<img src=""img/food2.png"" style=""width:200px; border:14px solid green;"">","null","","","","","","","","","",""
"","image-keyboard-response","64","52035","0.0-64.0","3H8DHMCCWAX7Q1P9EK2VNJO3BL7KD9","A334VWE4QGAZFR","3L1EFR8WWTRIL5MKAR1UWRHK4IC9FJ","","74","img/food2.png","74","75","1","1","3","1","1,0.5,0,1,0.5,0,0.5,0,1","1,0.5,0,1,0.5,0,0.5,0,1","1","",""
"","html-keyboard-response","65","52335","0.0-65.0","3H8DHMCCWAX7Q1P9EK2VNJO3BL7KD9","A334VWE4QGAZFR","3L1EFR8WWTRIL5MKAR1UWRHK4IC9FJ","","null","<img src=""img/food2.png"" style=""width:200px; border:14px solid green;"">","null","","","","","","","","","",""
"","image-keyboard-response","66","52591","0.0-66.0","3H8DHMCCWAX7Q1P9EK2VNJO3BL7KD9","A334VWE4QGAZFR","3L1EFR8WWTRIL5MKAR1UWRHK4IC9FJ","","255","img/food5.png","74","256","1","1","1","1","1,0.5,0,1,0.5,0,0.5,0,1","1,0.5,0,1,0.5,0,0.5,0,1","1","",""
"","html-keyboard-response","67","52893","0.0-67.0","3H8DHMCCWAX7Q1P9EK2VNJO3BL7KD9","A334VWE4QGAZFR","3L1EFR8WWTRIL5MKAR1UWRHK4IC9FJ","","null","<img src=""img/food5.png"" style=""width:200px; border:14px solid green;"">","null","","","","","","","","","",""
"","image-keyboard-response","68","52939","0.0-68.0","3H8DHMCCWAX7Q1P9EK2VNJO3BL7KD9","A334VWE4QGAZFR","3L1EFR8WWTRIL5MKAR1UWRHK4IC9FJ","","45","img/food5.png","74","46","1","1","1","1","1,0.5,0,1,0.5,0,0.5,0,1","1,0.5,0,1,0.5,0,0.5,0,1","1","",""
"","html-keyboard-response","69","53293","0.0-69.0","3H8DHMCCWAX7Q1P9EK2VNJO3BL7KD9","A334VWE4QGAZFR","3L1EFR8WWTRIL5MKAR1UWRHK4IC9FJ","","null","<img src=""img/food5.png"" style=""width:200px; border:14px solid green;"">","null","","","","","","","","","",""
"","image-keyboard-response","70","53417","0.0-70.0","3H8DHMCCWAX7Q1P9EK2VNJO3BL7KD9","A334VWE4QGAZFR","3L1EFR8WWTRIL5MKAR1UWRHK4IC9FJ","","123","img/food6.png","76","124","3","0","2","1","1,0.5,0,1,0.5,0,0.5,0,1","1,0.5,0,1,0.5,0,0.5,0,1","1","",""
"","html-keyboard-response","71","53719","0.0-71.0","3H8DHMCCWAX7Q1P9EK2VNJO3BL7KD9","A334VWE4QGAZFR","3L1EFR8WWTRIL5MKAR1UWRHK4IC9FJ","","null","<img src=""img/food6.png"" style=""width:200px;border:14px solid red;"">","null","","","","","","","","","",""
"","image-keyboard-response","72","53765","0.0-72.0","3H8DHMCCWAX7Q1P9EK2VNJO3BL7KD9","A334VWE4QGAZFR","3L1EFR8WWTRIL5MKAR1UWRHK4IC9FJ","","44","img/food5.png","74","46","1","1","1","1","1,0.5,0,1,0.5,0,0.5,0,1","1,0.5,0,1,0.5,0,0.5,0,1","1","",""
"","html-keyboard-response","73","54067","0.0-73.0","3H8DHMCCWAX7Q1P9EK2VNJO3BL7KD9","A334VWE4QGAZFR","3L1EFR8WWTRIL5MKAR1UWRHK4IC9FJ","","null","<img src=""img/food5.png"" style=""width:200px; border:14px solid green;"">","null","","","","","","","","","",""
"","image-keyboard-response","74","54074","0.0-74.0","3H8DHMCCWAX7Q1P9EK2VNJO3BL7KD9","A334VWE4QGAZFR","3L1EFR8WWTRIL5MKAR1UWRHK4IC9FJ","","7","img/food5.png","74","7","1","1","1","1","1,0.5,0,1,0.5,0,0.5,0,1","1,0.5,0,1,0.5,0,0.5,0,1","1","",""
"","html-keyboard-response","75","54376","0.0-75.0","3H8DHMCCWAX7Q1P9EK2VNJO3BL7KD9","A334VWE4QGAZFR","3L1EFR8WWTRIL5MKAR1UWRHK4IC9FJ","","null","<img src=""img/food5.png"" style=""width:200px; border:14px solid green;"">","null","","","","","","","","","",""
"","image-keyboard-response","76","54509","0.0-76.0","3H8DHMCCWAX7Q1P9EK2VNJO3BL7KD9","A334VWE4QGAZFR","3L1EFR8WWTRIL5MKAR1UWRHK4IC9FJ","","132","img/food6.png","75","133","2","0","2","1","1,0.5,0,1,0.5,0,0.5,0,1","1,0.5,0,1,0.5,0,0.5,0,1","1","",""
"","html-keyboard-response","77","54810","0.0-77.0","3H8DHMCCWAX7Q1P9EK2VNJO3BL7KD9","A334VWE4QGAZFR","3L1EFR8WWTRIL5MKAR1UWRHK4IC9FJ","","null","<img src=""img/food6.png"" style=""width:200px;border:14px solid red;"">","null","","","","","","","","","",""
"","image-keyboard-response","78","54847","0.0-78.0","3H8DHMCCWAX7Q1P9EK2VNJO3BL7KD9","A334VWE4QGAZFR","3L1EFR8WWTRIL5MKAR1UWRHK4IC9FJ","","35","img/food5.png","74","37","1","1","1","1","1,0.5,0,1,0.5,0,0.5,0,1","1,0.5,0,1,0.5,0,0.5,0,1","1","",""
"","html-keyboard-response","79","55149","0.0-79.0","3H8DHMCCWAX7Q1P9EK2VNJO3BL7KD9","A334VWE4QGAZFR","3L1EFR8WWTRIL5MKAR1UWRHK4IC9FJ","","null","<img src=""img/food5.png"" style=""width:200px; border:14px solid green;"">","null","","","","","","","","","",""
"","image-keyboard-response","80","55188","0.0-80.0","3H8DHMCCWAX7Q1P9EK2VNJO3BL7KD9","A334VWE4QGAZFR","3L1EFR8WWTRIL5MKAR1UWRHK4IC9FJ","","38","img/food6.png","74","39","1","1","2","1","1,0.5,0,1,0.5,0,0.5,0,1","1,0.5,0,1,0.5,0,0.5,0,1","1","",""
"","html-keyboard-response","81","55490","0.0-81.0","3H8DHMCCWAX7Q1P9EK2VNJO3BL7KD9","A334VWE4QGAZFR","3L1EFR8WWTRIL5MKAR1UWRHK4IC9FJ","","null","<img src=""img/food6.png"" style=""width:200px; border:14px solid green;"">","null","","","","","","","","","",""
"","image-keyboard-response","82","55593","0.0-82.0","3H8DHMCCWAX7Q1P9EK2VNJO3BL7KD9","A334VWE4QGAZFR","3L1EFR8WWTRIL5MKAR1UWRHK4IC9FJ","","101","img/food6.png","74","103","1","1","2","1","1,0.5,0,1,0.5,0,0.5,0,1","1,0.5,0,1,0.5,0,0.5,0,1","1","",""
"","html-keyboard-response","83","55895","0.0-83.0","3H8DHMCCWAX7Q1P9EK2VNJO3BL7KD9","A334VWE4QGAZFR","3L1EFR8WWTRIL5MKAR1UWRHK4IC9FJ","","null","<img src=""img/food6.png"" style=""width:200px; border:14px solid green;"">","null","","","","","","","","","",""
"","image-keyboard-response","84","55902","0.0-84.0","3H8DHMCCWAX7Q1P9EK2VNJO3BL7KD9","A334VWE4QGAZFR","3L1EFR8WWTRIL5MKAR1UWRHK4IC9FJ","","7","img/food5.png","76","7","3","0","1","1","1,0.5,0,1,0.5,0,0.5,0,1","1,0.5,0,1,0.5,0,0.5,0,1","1","",""
"","html-keyboard-response","85","56215","0.0-85.0","3H8DHMCCWAX7Q1P9EK2VNJO3BL7KD9","A334VWE4QGAZFR","3L1EFR8WWTRIL5MKAR1UWRHK4IC9FJ","","null","<img src=""img/food5.png"" style=""width:200px;border:14px solid red;"">","null","","","","","","","","","",""
"","image-keyboard-response","86","56287","0.0-86.0","3H8DHMCCWAX7Q1P9EK2VNJO3BL7KD9","A334VWE4QGAZFR","3L1EFR8WWTRIL5MKAR1UWRHK4IC9FJ","","71","img/food2.png","76","72","3","1","3","1","1,0.5,0,1,0.5,0,0.5,0,1","1,0.5,0,1,0.5,0,0.5,0,1","1","",""
"","html-keyboard-response","87","56588","0.0-87.0","3H8DHMCCWAX7Q1P9EK2VNJO3BL7KD9","A334VWE4QGAZFR","3L1EFR8WWTRIL5MKAR1UWRHK4IC9FJ","","null","<img src=""img/food2.png"" style=""width:200px; border:14px solid green;"">","null","","","","","","","","","",""
"","image-keyboard-response","88","56754","0.0-88.0","3H8DHMCCWAX7Q1P9EK2VNJO3BL7KD9","A334VWE4QGAZFR","3L1EFR8WWTRIL5MKAR1UWRHK4IC9FJ","","165","img/food6.png","75","166","2","1","2","1","1,0.5,0,1,0.5,0,0.5,0,1","1,0.5,0,1,0.5,0,0.5,0,1","1","",""
"","html-keyboard-response","89","57055","0.0-89.0","3H8DHMCCWAX7Q1P9EK2VNJO3BL7KD9","A334VWE4QGAZFR","3L1EFR8WWTRIL5MKAR1UWRHK4IC9FJ","","null","<img src=""img/food6.png"" style=""width:200px; border:14px solid green;"">","null","","","","","","","","","",""
"","image-keyboard-response","90","57213","0.0-90.0","3H8DHMCCWAX7Q1P9EK2VNJO3BL7KD9","A334VWE4QGAZFR","3L1EFR8WWTRIL5MKAR1UWRHK4IC9FJ","","158","img/food6.png","75","158","2","1","2","1","1,0.5,0,1,0.5,0,0.5,0,1","1,0.5,0,1,0.5,0,0.5,0,1","1","",""
"","html-keyboard-response","91","57514","0.0-91.0","3H8DHMCCWAX7Q1P9EK2VNJO3BL7KD9","A334VWE4QGAZFR","3L1EFR8WWTRIL5MKAR1UWRHK4IC9FJ","","null","<img src=""img/food6.png"" style=""width:200px; border:14px solid green;"">","null","","","","","","","","","",""
"","image-keyboard-response","92","57578","0.0-92.0","3H8DHMCCWAX7Q1P9EK2VNJO3BL7KD9","A334VWE4QGAZFR","3L1EFR8WWTRIL5MKAR1UWRHK4IC9FJ","","63","img/food5.png","74","64","1","1","1","1","1,0.5,0,1,0.5,0,0.5,0,1","1,0.5,0,1,0.5,0,0.5,0,1","1","",""
"","html-keyboard-response","93","57880","0.0-93.0","3H8DHMCCWAX7Q1P9EK2VNJO3BL7KD9","A334VWE4QGAZFR","3L1EFR8WWTRIL5MKAR1UWRHK4IC9FJ","","null","<img src=""img/food5.png"" style=""width:200px; border:14px solid green;"">","null","","","","","","","","","",""
"","image-keyboard-response","94","57926","0.0-94.0","3H8DHMCCWAX7Q1P9EK2VNJO3BL7KD9","A334VWE4QGAZFR","3L1EFR8WWTRIL5MKAR1UWRHK4IC9FJ","","45","img/food2.png","74","46","1","0","3","1","1,0.5,0,1,0.5,0,0.5,0,1","1,0.5,0,1,0.5,0,0.5,0,1","1","",""
"","html-keyboard-response","95","58227","0.0-95.0","3H8DHMCCWAX7Q1P9EK2VNJO3BL7KD9","A334VWE4QGAZFR","3L1EFR8WWTRIL5MKAR1UWRHK4IC9FJ","","null","<img src=""img/food2.png"" style=""width:200px;border:14px solid red;"">","null","","","","","","","","","",""
"","image-keyboard-response","96","58333","0.0-96.0","3H8DHMCCWAX7Q1P9EK2VNJO3BL7KD9","A334VWE4QGAZFR","3L1EFR8WWTRIL5MKAR1UWRHK4IC9FJ","","105","img/food2.png","75","106","2","0","3","1","1,0.5,0,1,0.5,0,0.5,0,1","1,0.5,0,1,0.5,0,0.5,0,1","1","",""
"","html-keyboard-response","97","58635","0.0-97.0","3H8DHMCCWAX7Q1P9EK2VNJO3BL7KD9","A334VWE4QGAZFR","3L1EFR8WWTRIL5MKAR1UWRHK4IC9FJ","","null","<img src=""img/food2.png"" style=""width:200px;border:14px solid red;"">","null","","","","","","","","","",""
"","image-keyboard-response","98","58750","0.0-98.0","3H8DHMCCWAX7Q1P9EK2VNJO3BL7KD9","A334VWE4QGAZFR","3L1EFR8WWTRIL5MKAR1UWRHK4IC9FJ","","114","img/food2.png","74","115","1","0","3","1","1,0.5,0,1,0.5,0,0.5,0,1","1,0.5,0,1,0.5,0,0.5,0,1","1","",""
"","html-keyboard-response","99","59052","0.0-99.0","3H8DHMCCWAX7Q1P9EK2VNJO3BL7KD9","A334VWE4QGAZFR","3L1EFR8WWTRIL5MKAR1UWRHK4IC9FJ","","null","<img src=""img/food2.png"" style=""width:200px;border:14px solid red;"">","null","","","","","","","","","",""
"","image-keyboard-response","100","59416","0.0-100.0","3H8DHMCCWAX7Q1P9EK2VNJO3BL7KD9","A334VWE4QGAZFR","3L1EFR8WWTRIL5MKAR1UWRHK4IC9FJ","","364","img/food5.png","74","364","1","1","1","1","1,0.5,0,1,0.5,0,0.5,0,1","1,0.5,0,1,0.5,0,0.5,0,1","1","",""
"","html-keyboard-response","101","59718","0.0-101.0","3H8DHMCCWAX7Q1P9EK2VNJO3BL7KD9","A334VWE4QGAZFR","3L1EFR8WWTRIL5MKAR1UWRHK4IC9FJ","","null","<img src=""img/food5.png"" style=""width:200px; border:14px solid green;"">","null","","","","","","","","","",""
"","image-keyboard-response","102","59843","0.0-102.0","3H8DHMCCWAX7Q1P9EK2VNJO3BL7KD9","A334VWE4QGAZFR","3L1EFR8WWTRIL5MKAR1UWRHK4IC9FJ","","123","img/food6.png","76","125","3","0","2","1","1,0.5,0,1,0.5,0,0.5,0,1","1,0.5,0,1,0.5,0,0.5,0,1","1","",""
"","html-keyboard-response","103","60144","0.0-103.0","3H8DHMCCWAX7Q1P9EK2VNJO3BL7KD9","A334VWE4QGAZFR","3L1EFR8WWTRIL5MKAR1UWRHK4IC9FJ","","null","<img src=""img/food6.png"" style=""width:200px;border:14px solid red;"">","null","","","","","","","","","",""
"","image-keyboard-response","104","60150","0.0-104.0","3H8DHMCCWAX7Q1P9EK2VNJO3BL7KD9","A334VWE4QGAZFR","3L1EFR8WWTRIL5MKAR1UWRHK4IC9FJ","","5","img/food5.png","76","6","3","0","1","1","1,0.5,0,1,0.5,0,0.5,0,1","1,0.5,0,1,0.5,0,0.5,0,1","1","",""
"","html-keyboard-response","105","60451","0.0-105.0","3H8DHMCCWAX7Q1P9EK2VNJO3BL7KD9","A334VWE4QGAZFR","3L1EFR8WWTRIL5MKAR1UWRHK4IC9FJ","","null","<img src=""img/food5.png"" style=""width:200px;border:14px solid red;"">","null","","","","","","","","","",""
"","image-keyboard-response","106","60498","0.0-106.0","3H8DHMCCWAX7Q1P9EK2VNJO3BL7KD9","A334VWE4QGAZFR","3L1EFR8WWTRIL5MKAR1UWRHK4IC9FJ","","47","img/food2.png","75","47","2","0","3","1","1,0.5,0,1,0.5,0,0.5,0,1","1,0.5,0,1,0.5,0,0.5,0,1","1","",""
"","html-keyboard-response","107","60800","0.0-107.0","3H8DHMCCWAX7Q1P9EK2VNJO3BL7KD9","A334VWE4QGAZFR","3L1EFR8WWTRIL5MKAR1UWRHK4IC9FJ","","null","<img src=""img/food2.png"" style=""width:200px;border:14px solid red;"">","null","","","","","","","","","",""
"","image-keyboard-response","108","60887","0.0-108.0","3H8DHMCCWAX7Q1P9EK2VNJO3BL7KD9","A334VWE4QGAZFR","3L1EFR8WWTRIL5MKAR1UWRHK4IC9FJ","","85","img/food6.png","75","87","2","0","2","1","1,0.5,0,1,0.5,0,0.5,0,1","1,0.5,0,1,0.5,0,0.5,0,1","1","",""
"","html-keyboard-response","109","61187","0.0-109.0","3H8DHMCCWAX7Q1P9EK2VNJO3BL7KD9","A334VWE4QGAZFR","3L1EFR8WWTRIL5MKAR1UWRHK4IC9FJ","","null","<img src=""img/food6.png"" style=""width:200px;border:14px solid red;"">","null","","","","","","","","","",""
"","image-keyboard-response","110","61262","0.0-110.0","3H8DHMCCWAX7Q1P9EK2VNJO3BL7KD9","A334VWE4QGAZFR","3L1EFR8WWTRIL5MKAR1UWRHK4IC9FJ","","74","img/food5.png","76","75","3","0","1","1","1,0.5,0,1,0.5,0,0.5,0,1","1,0.5,0,1,0.5,0,0.5,0,1","1","",""
"","html-keyboard-response","111","61564","0.0-111.0","3H8DHMCCWAX7Q1P9EK2VNJO3BL7KD9","A334VWE4QGAZFR","3L1EFR8WWTRIL5MKAR1UWRHK4IC9FJ","","null","<img src=""img/food5.png"" style=""width:200px;border:14px solid red;"">","null","","","","","","","","","",""
"","image-keyboard-response","112","61679","0.0-112.0","3H8DHMCCWAX7Q1P9EK2VNJO3BL7KD9","A334VWE4QGAZFR","3L1EFR8WWTRIL5MKAR1UWRHK4IC9FJ","","115","img/food2.png","74","115","1","1","3","1","1,0.5,0,1,0.5,0,0.5,0,1","1,0.5,0,1,0.5,0,0.5,0,1","1","",""
"","html-keyboard-response","113","61980","0.0-113.0","3H8DHMCCWAX7Q1P9EK2VNJO3BL7KD9","A334VWE4QGAZFR","3L1EFR8WWTRIL5MKAR1UWRHK4IC9FJ","","null","<img src=""img/food2.png"" style=""width:200px; border:14px solid green;"">","null","","","","","","","","","",""
"","image-keyboard-response","114","62168","0.0-114.0","3H8DHMCCWAX7Q1P9EK2VNJO3BL7KD9","A334VWE4QGAZFR","3L1EFR8WWTRIL5MKAR1UWRHK4IC9FJ","","188","img/food6.png","75","188","2","0","2","1","1,0.5,0,1,0.5,0,0.5,0,1","1,0.5,0,1,0.5,0,0.5,0,1","1","",""
"","html-keyboard-response","115","62472","0.0-115.0","3H8DHMCCWAX7Q1P9EK2VNJO3BL7KD9","A334VWE4QGAZFR","3L1EFR8WWTRIL5MKAR1UWRHK4IC9FJ","","null","<img src=""img/food6.png"" style=""width:200px;border:14px solid red;"">","null","","","","","","","","","",""
"","image-keyboard-response","116","62483","0.0-116.0","3H8DHMCCWAX7Q1P9EK2VNJO3BL7KD9","A334VWE4QGAZFR","3L1EFR8WWTRIL5MKAR1UWRHK4IC9FJ","","10","img/food5.png","76","11","3","0","1","1","1,0.5,0,1,0.5,0,0.5,0,1","1,0.5,0,1,0.5,0,0.5,0,1","1","",""
"","html-keyboard-response","117","62784","0.0-117.0","3H8DHMCCWAX7Q1P9EK2VNJO3BL7KD9","A334VWE4QGAZFR","3L1EFR8WWTRIL5MKAR1UWRHK4IC9FJ","","null","<img src=""img/food5.png"" style=""width:200px;border:14px solid red;"">","null","","","","","","","","","",""
"","image-keyboard-response","118","62865","0.0-118.0","3H8DHMCCWAX7Q1P9EK2VNJO3BL7KD9","A334VWE4QGAZFR","3L1EFR8WWTRIL5MKAR1UWRHK4IC9FJ","","79","img/food6.png","74","81","1","1","2","1","1,0.5,0,1,0.5,0,0.5,0,1","1,0.5,0,1,0.5,0,0.5,0,1","1","",""
"","html-keyboard-response","119","63166","0.0-119.0","3H8DHMCCWAX7Q1P9EK2VNJO3BL7KD9","A334VWE4QGAZFR","3L1EFR8WWTRIL5MKAR1UWRHK4IC9FJ","","null","<img src=""img/food6.png"" style=""width:200px; border:14px solid green;"">","null","","","","","","","","","",""
"","image-keyboard-response","120","63199","0.0-120.0","3H8DHMCCWAX7Q1P9EK2VNJO3BL7KD9","A334VWE4QGAZFR","3L1EFR8WWTRIL5MKAR1UWRHK4IC9FJ","","33","img/food2.png","74","34","1","1","3","1","1,0.5,0,1,0.5,0,0.5,0,1","1,0.5,0,1,0.5,0,0.5,0,1","1","",""
"","html-keyboard-response","121","63501","0.0-121.0","3H8DHMCCWAX7Q1P9EK2VNJO3BL7KD9","A334VWE4QGAZFR","3L1EFR8WWTRIL5MKAR1UWRHK4IC9FJ","","null","<img src=""img/food2.png"" style=""width:200px; border:14px solid green;"">","null","","","","","","","","","",""
"","image-keyboard-response","122","63683","0.0-122.0","3H8DHMCCWAX7Q1P9EK2VNJO3BL7KD9","A334VWE4QGAZFR","3L1EFR8WWTRIL5MKAR1UWRHK4IC9FJ","","179","img/food6.png","75","181","2","1","2","1","1,0.5,0,1,0.5,0,0.5,0,1","1,0.5,0,1,0.5,0,0.5,0,1","1","",""
"","html-keyboard-response","123","63984","0.0-123.0","3H8DHMCCWAX7Q1P9EK2VNJO3BL7KD9","A334VWE4QGAZFR","3L1EFR8WWTRIL5MKAR1UWRHK4IC9FJ","","null","<img src=""img/food6.png"" style=""width:200px; border:14px solid green;"">","null","","","","","","","","","",""
"","image-keyboard-response","124","64164","0.0-124.0","3H8DHMCCWAX7Q1P9EK2VNJO3BL7KD9","A334VWE4QGAZFR","3L1EFR8WWTRIL5MKAR1UWRHK4IC9FJ","","179","img/food6.png","74","180","1","1","2","1","1,0.5,0,1,0.5,0,0.5,0,1","1,0.5,0,1,0.5,0,0.5,0,1","1","",""
"","html-keyboard-response","125","64466","0.0-125.0","3H8DHMCCWAX7Q1P9EK2VNJO3BL7KD9","A334VWE4QGAZFR","3L1EFR8WWTRIL5MKAR1UWRHK4IC9FJ","","null","<img src=""img/food6.png"" style=""width:200px; border:14px solid green;"">","null","","","","","","","","","",""
"","image-keyboard-response","126","65127","0.0-126.0","3H8DHMCCWAX7Q1P9EK2VNJO3BL7KD9","A334VWE4QGAZFR","3L1EFR8WWTRIL5MKAR1UWRHK4IC9FJ","","661","img/food6.png","75","661","2","1","2","1","1,0.5,0,1,0.5,0,0.5,0,1","1,0.5,0,1,0.5,0,0.5,0,1","1","",""
"","html-keyboard-response","127","65430","0.0-127.0","3H8DHMCCWAX7Q1P9EK2VNJO3BL7KD9","A334VWE4QGAZFR","3L1EFR8WWTRIL5MKAR1UWRHK4IC9FJ","","null","<img src=""img/food6.png"" style=""width:200px; border:14px solid green;"">","null","","","","","","","","","",""
"","image-keyboard-response","128","65456","0.0-128.0","3H8DHMCCWAX7Q1P9EK2VNJO3BL7KD9","A334VWE4QGAZFR","3L1EFR8WWTRIL5MKAR1UWRHK4IC9FJ","","25","img/food6.png","74","26","1","1","2","1","1,0.5,0,1,0.5,0,0.5,0,1","1,0.5,0,1,0.5,0,0.5,0,1","1","",""
"","html-keyboard-response","129","65758","0.0-129.0","3H8DHMCCWAX7Q1P9EK2VNJO3BL7KD9","A334VWE4QGAZFR","3L1EFR8WWTRIL5MKAR1UWRHK4IC9FJ","","null","<img src=""img/food6.png"" style=""width:200px; border:14px solid green;"">","null","","","","","","","","","",""
"","image-keyboard-response","130","65772","0.0-130.0","3H8DHMCCWAX7Q1P9EK2VNJO3BL7KD9","A334VWE4QGAZFR","3L1EFR8WWTRIL5MKAR1UWRHK4IC9FJ","","13","img/food5.png","75","14","2","1","1","1","1,0.5,0,1,0.5,0,0.5,0,1","1,0.5,0,1,0.5,0,0.5,0,1","1","",""
"","html-keyboard-response","131","66074","0.0-131.0","3H8DHMCCWAX7Q1P9EK2VNJO3BL7KD9","A334VWE4QGAZFR","3L1EFR8WWTRIL5MKAR1UWRHK4IC9FJ","","null","<img src=""img/food5.png"" style=""width:200px; border:14px solid green;"">","null","","","","","","","","","",""
"","image-keyboard-response","132","66240","0.0-132.0","3H8DHMCCWAX7Q1P9EK2VNJO3BL7KD9","A334VWE4QGAZFR","3L1EFR8WWTRIL5MKAR1UWRHK4IC9FJ","","165","img/food6.png","74","166","1","1","2","1","1,0.5,0,1,0.5,0,0.5,0,1","1,0.5,0,1,0.5,0,0.5,0,1","1","",""
"","html-keyboard-response","133","66541","0.0-133.0","3H8DHMCCWAX7Q1P9EK2VNJO3BL7KD9","A334VWE4QGAZFR","3L1EFR8WWTRIL5MKAR1UWRHK4IC9FJ","","null","<img src=""img/food6.png"" style=""width:200px; border:14px solid green;"">","null","","","","","","","","","",""
"","image-keyboard-response","134","66657","0.0-134.0","3H8DHMCCWAX7Q1P9EK2VNJO3BL7KD9","A334VWE4QGAZFR","3L1EFR8WWTRIL5MKAR1UWRHK4IC9FJ","","115","img/food6.png","74","116","1","1","2","1","1,0.5,0,1,0.5,0,0.5,0,1","1,0.5,0,1,0.5,0,0.5,0,1","1","",""
"","html-keyboard-response","135","66958","0.0-135.0","3H8DHMCCWAX7Q1P9EK2VNJO3BL7KD9","A334VWE4QGAZFR","3L1EFR8WWTRIL5MKAR1UWRHK4IC9FJ","","null","<img src=""img/food6.png"" style=""width:200px; border:14px solid green;"">","null","","","","","","","","","",""
"","image-keyboard-response","136","67084","0.0-136.0","3H8DHMCCWAX7Q1P9EK2VNJO3BL7KD9","A334VWE4QGAZFR","3L1EFR8WWTRIL5MKAR1UWRHK4IC9FJ","","126","img/food5.png","75","126","2","1","1","1","1,0.5,0,1,0.5,0,0.5,0,1","1,0.5,0,1,0.5,0,0.5,0,1","1","",""
"","html-keyboard-response","137","67387","0.0-137.0","3H8DHMCCWAX7Q1P9EK2VNJO3BL7KD9","A334VWE4QGAZFR","3L1EFR8WWTRIL5MKAR1UWRHK4IC9FJ","","null","<img src=""img/food5.png"" style=""width:200px; border:14px solid green;"">","null","","","","","","","","","",""
"","image-keyboard-response","138","67472","0.0-138.0","3H8DHMCCWAX7Q1P9EK2VNJO3BL7KD9","A334VWE4QGAZFR","3L1EFR8WWTRIL5MKAR1UWRHK4IC9FJ","","85","img/food5.png","74","85","1","1","1","1","1,0.5,0,1,0.5,0,0.5,0,1","1,0.5,0,1,0.5,0,0.5,0,1","1","",""
"","html-keyboard-response","139","67774","0.0-139.0","3H8DHMCCWAX7Q1P9EK2VNJO3BL7KD9","A334VWE4QGAZFR","3L1EFR8WWTRIL5MKAR1UWRHK4IC9FJ","","null","<img src=""img/food5.png"" style=""width:200px; border:14px solid green;"">","null","","","","","","","","","",""
"","image-keyboard-response","140","67848","0.0-140.0","3H8DHMCCWAX7Q1P9EK2VNJO3BL7KD9","A334VWE4QGAZFR","3L1EFR8WWTRIL5MKAR1UWRHK4IC9FJ","","73","img/food2.png","74","75","1","0","3","1","1,0.5,0,1,0.5,0,0.5,0,1","1,0.5,0,1,0.5,0,0.5,0,1","1","",""
"","html-keyboard-response","141","68149","0.0-141.0","3H8DHMCCWAX7Q1P9EK2VNJO3BL7KD9","A334VWE4QGAZFR","3L1EFR8WWTRIL5MKAR1UWRHK4IC9FJ","","null","<img src=""img/food2.png"" style=""width:200px;border:14px solid red;"">","null","","","","","","","","","",""
"","image-keyboard-response","142","68166","0.0-142.0","3H8DHMCCWAX7Q1P9EK2VNJO3BL7KD9","A334VWE4QGAZFR","3L1EFR8WWTRIL5MKAR1UWRHK4IC9FJ","","17","img/food5.png","74","17","1","1","1","1","1,0.5,0,1,0.5,0,0.5,0,1","1,0.5,0,1,0.5,0,0.5,0,1","1","",""
"","html-keyboard-response","143","68467","0.0-143.0","3H8DHMCCWAX7Q1P9EK2VNJO3BL7KD9","A334VWE4QGAZFR","3L1EFR8WWTRIL5MKAR1UWRHK4IC9FJ","","null","<img src=""img/food5.png"" style=""width:200px; border:14px solid green;"">","null","","","","","","","","","",""
"","image-keyboard-response","144","68484","0.0-144.0","3H8DHMCCWAX7Q1P9EK2VNJO3BL7KD9","A334VWE4QGAZFR","3L1EFR8WWTRIL5MKAR1UWRHK4IC9FJ","","16","img/food6.png","74","17","1","1","2","1","1,0.5,0,1,0.5,0,0.5,0,1","1,0.5,0,1,0.5,0,0.5,0,1","1","",""
"","html-keyboard-response","145","68785","0.0-145.0","3H8DHMCCWAX7Q1P9EK2VNJO3BL7KD9","A334VWE4QGAZFR","3L1EFR8WWTRIL5MKAR1UWRHK4IC9FJ","","null","<img src=""img/food6.png"" style=""width:200px; border:14px solid green;"">","null","","","","","","","","","",""
"","image-keyboard-response","146","68842","0.0-146.0","3H8DHMCCWAX7Q1P9EK2VNJO3BL7KD9","A334VWE4QGAZFR","3L1EFR8WWTRIL5MKAR1UWRHK4IC9FJ","","56","img/food6.png","74","56","1","1","2","1","1,0.5,0,1,0.5,0,0.5,0,1","1,0.5,0,1,0.5,0,0.5,0,1","1","",""
"","html-keyboard-response","147","69145","0.0-147.0","3H8DHMCCWAX7Q1P9EK2VNJO3BL7KD9","A334VWE4QGAZFR","3L1EFR8WWTRIL5MKAR1UWRHK4IC9FJ","","null","<img src=""img/food6.png"" style=""width:200px; border:14px solid green;"">","null","","","","","","","","","",""
"","image-keyboard-response","148","69302","0.0-148.0","3H8DHMCCWAX7Q1P9EK2VNJO3BL7KD9","A334VWE4QGAZFR","3L1EFR8WWTRIL5MKAR1UWRHK4IC9FJ","","156","img/food2.png","76","157","3","1","3","1","1,0.5,0,1,0.5,0,0.5,0,1","1,0.5,0,1,0.5,0,0.5,0,1","1","",""
"","html-keyboard-response","149","69604","0.0-149.0","3H8DHMCCWAX7Q1P9EK2VNJO3BL7KD9","A334VWE4QGAZFR","3L1EFR8WWTRIL5MKAR1UWRHK4IC9FJ","","null","<img src=""img/food2.png"" style=""width:200px; border:14px solid green;"">","null","","","","","","","","","",""
"","image-keyboard-response","150","69736","0.0-150.0","3H8DHMCCWAX7Q1P9EK2VNJO3BL7KD9","A334VWE4QGAZFR","3L1EFR8WWTRIL5MKAR1UWRHK4IC9FJ","","131","img/food6.png","74","132","1","1","2","1","1,0.5,0,1,0.5,0,0.5,0,1","1,0.5,0,1,0.5,0,0.5,0,1","1","",""
"","html-keyboard-response","151","70037","0.0-151.0","3H8DHMCCWAX7Q1P9EK2VNJO3BL7KD9","A334VWE4QGAZFR","3L1EFR8WWTRIL5MKAR1UWRHK4IC9FJ","","null","<img src=""img/food6.png"" style=""width:200px; border:14px solid green;"">","null","","","","","","","","","",""
"","image-keyboard-response","152","70048","0.0-152.0","3H8DHMCCWAX7Q1P9EK2VNJO3BL7KD9","A334VWE4QGAZFR","3L1EFR8WWTRIL5MKAR1UWRHK4IC9FJ","","10","img/food5.png","74","11","1","1","1","1","1,0.5,0,1,0.5,0,0.5,0,1","1,0.5,0,1,0.5,0,0.5,0,1","1","",""
"","html-keyboard-response","153","70374","0.0-153.0","3H8DHMCCWAX7Q1P9EK2VNJO3BL7KD9","A334VWE4QGAZFR","3L1EFR8WWTRIL5MKAR1UWRHK4IC9FJ","","null","<img src=""img/food5.png"" style=""width:200px; border:14px solid green;"">","null","","","","","","","","","",""
"","image-keyboard-response","154","70403","0.0-154.0","3H8DHMCCWAX7Q1P9EK2VNJO3BL7KD9","A334VWE4QGAZFR","3L1EFR8WWTRIL5MKAR1UWRHK4IC9FJ","","28","img/food2.png","74","29","1","1","3","1","1,0.5,0,1,0.5,0,0.5,0,1","1,0.5,0,1,0.5,0,0.5,0,1","1","",""
"","html-keyboard-response","155","70705","0.0-155.0","3H8DHMCCWAX7Q1P9EK2VNJO3BL7KD9","A334VWE4QGAZFR","3L1EFR8WWTRIL5MKAR1UWRHK4IC9FJ","","null","<img src=""img/food2.png"" style=""width:200px; border:14px solid green;"">","null","","","","","","","","","",""
"","image-keyboard-response","156","70880","0.0-156.0","3H8DHMCCWAX7Q1P9EK2VNJO3BL7KD9","A334VWE4QGAZFR","3L1EFR8WWTRIL5MKAR1UWRHK4IC9FJ","","174","img/food6.png","75","175","2","0","2","1","1,0.5,0,1,0.5,0,0.5,0,1","1,0.5,0,1,0.5,0,0.5,0,1","1","",""
"","html-keyboard-response","157","71183","0.0-157.0","3H8DHMCCWAX7Q1P9EK2VNJO3BL7KD9","A334VWE4QGAZFR","3L1EFR8WWTRIL5MKAR1UWRHK4IC9FJ","","null","<img src=""img/food6.png"" style=""width:200px;border:14px solid red;"">","null","","","","","","","","","",""
"","image-keyboard-response","158","71197","0.0-158.0","3H8DHMCCWAX7Q1P9EK2VNJO3BL7KD9","A334VWE4QGAZFR","3L1EFR8WWTRIL5MKAR1UWRHK4IC9FJ","","13","img/food5.png","75","14","2","1","1","1","1,0.5,0,1,0.5,0,0.5,0,1","1,0.5,0,1,0.5,0,0.5,0,1","1","",""
"","html-keyboard-response","159","71500","0.0-159.0","3H8DHMCCWAX7Q1P9EK2VNJO3BL7KD9","A334VWE4QGAZFR","3L1EFR8WWTRIL5MKAR1UWRHK4IC9FJ","","null","<img src=""img/food5.png"" style=""width:200px; border:14px solid green;"">","null","","","","","","","","","",""
"","image-keyboard-response","160","71618","0.0-160.0","3H8DHMCCWAX7Q1P9EK2VNJO3BL7KD9","A334VWE4QGAZFR","3L1EFR8WWTRIL5MKAR1UWRHK4IC9FJ","","118","img/food5.png","74","118","1","1","1","1","1,0.5,0,1,0.5,0,0.5,0,1","1,0.5,0,1,0.5,0,0.5,0,1","1","",""
"","html-keyboard-response","161","71919","0.0-161.0","3H8DHMCCWAX7Q1P9EK2VNJO3BL7KD9","A334VWE4QGAZFR","3L1EFR8WWTRIL5MKAR1UWRHK4IC9FJ","","null","<img src=""img/food5.png"" style=""width:200px; border:14px solid green;"">","null","","","","","","","","","",""
"","image-keyboard-response","162","71931","0.0-162.0","3H8DHMCCWAX7Q1P9EK2VNJO3BL7KD9","A334VWE4QGAZFR","3L1EFR8WWTRIL5MKAR1UWRHK4IC9FJ","","12","img/food2.png","74","12","1","1","3","1","1,0.5,0,1,0.5,0,0.5,0,1","1,0.5,0,1,0.5,0,0.5,0,1","1","",""
"","html-keyboard-response","163","72233","0.0-163.0","3H8DHMCCWAX7Q1P9EK2VNJO3BL7KD9","A334VWE4QGAZFR","3L1EFR8WWTRIL5MKAR1UWRHK4IC9FJ","","null","<img src=""img/food2.png"" style=""width:200px; border:14px solid green;"">","null","","","","","","","","","",""
"","image-keyboard-response","164","72264","0.0-164.0","3H8DHMCCWAX7Q1P9EK2VNJO3BL7KD9","A334VWE4QGAZFR","3L1EFR8WWTRIL5MKAR1UWRHK4IC9FJ","","29","img/food5.png","74","31","1","1","1","1","1,0.5,0,1,0.5,0,0.5,0,1","1,0.5,0,1,0.5,0,0.5,0,1","1","",""
"","html-keyboard-response","165","72566","0.0-165.0","3H8DHMCCWAX7Q1P9EK2VNJO3BL7KD9","A334VWE4QGAZFR","3L1EFR8WWTRIL5MKAR1UWRHK4IC9FJ","","null","<img src=""img/food5.png"" style=""width:200px; border:14px solid green;"">","null","","","","","","","","","",""
"","image-keyboard-response","166","72589","0.0-166.0","3H8DHMCCWAX7Q1P9EK2VNJO3BL7KD9","A334VWE4QGAZFR","3L1EFR8WWTRIL5MKAR1UWRHK4IC9FJ","","21","img/food2.png","74","23","1","0","3","1","1,0.5,0,1,0.5,0,0.5,0,1","1,0.5,0,1,0.5,0,0.5,0,1","1","",""
"","html-keyboard-response","167","72890","0.0-167.0","3H8DHMCCWAX7Q1P9EK2VNJO3BL7KD9","A334VWE4QGAZFR","3L1EFR8WWTRIL5MKAR1UWRHK4IC9FJ","","null","<img src=""img/food2.png"" style=""width:200px;border:14px solid red;"">","null","","","","","","","","","",""
"","image-keyboard-response","168","73043","0.0-168.0","3H8DHMCCWAX7Q1P9EK2VNJO3BL7KD9","A334VWE4QGAZFR","3L1EFR8WWTRIL5MKAR1UWRHK4IC9FJ","","153","img/food2.png","75","153","2","0","3","1","1,0.5,0,1,0.5,0,0.5,0,1","1,0.5,0,1,0.5,0,0.5,0,1","1","",""
"","html-keyboard-response","169","73345","0.0-169.0","3H8DHMCCWAX7Q1P9EK2VNJO3BL7KD9","A334VWE4QGAZFR","3L1EFR8WWTRIL5MKAR1UWRHK4IC9FJ","","null","<img src=""img/food2.png"" style=""width:200px;border:14px solid red;"">","null","","","","","","","","","",""
"","image-keyboard-response","170","73354","0.0-170.0","3H8DHMCCWAX7Q1P9EK2VNJO3BL7KD9","A334VWE4QGAZFR","3L1EFR8WWTRIL5MKAR1UWRHK4IC9FJ","","9","img/food6.png","75","9","2","0","2","1","1,0.5,0,1,0.5,0,0.5,0,1","1,0.5,0,1,0.5,0,0.5,0,1","1","",""
"","html-keyboard-response","171","73655","0.0-171.0","3H8DHMCCWAX7Q1P9EK2VNJO3BL7KD9","A334VWE4QGAZFR","3L1EFR8WWTRIL5MKAR1UWRHK4IC9FJ","","null","<img src=""img/food6.png"" style=""width:200px;border:14px solid red;"">","null","","","","","","","","","",""
"","image-keyboard-response","172","73800","0.0-172.0","3H8DHMCCWAX7Q1P9EK2VNJO3BL7KD9","A334VWE4QGAZFR","3L1EFR8WWTRIL5MKAR1UWRHK4IC9FJ","","145","img/food2.png","74","145","1","0","3","1","1,0.5,0,1,0.5,0,0.5,0,1","1,0.5,0,1,0.5,0,0.5,0,1","1","",""
"","html-keyboard-response","173","74101","0.0-173.0","3H8DHMCCWAX7Q1P9EK2VNJO3BL7KD9","A334VWE4QGAZFR","3L1EFR8WWTRIL5MKAR1UWRHK4IC9FJ","","null","<img src=""img/food2.png"" style=""width:200px;border:14px solid red;"">","null","","","","","","","","","",""
"","image-keyboard-response","174","74137","0.0-174.0","3H8DHMCCWAX7Q1P9EK2VNJO3BL7KD9","A334VWE4QGAZFR","3L1EFR8WWTRIL5MKAR1UWRHK4IC9FJ","","34","img/food5.png","74","36","1","1","1","1","1,0.5,0,1,0.5,0,0.5,0,1","1,0.5,0,1,0.5,0,0.5,0,1","1","",""
"","html-keyboard-response","175","74438","0.0-175.0","3H8DHMCCWAX7Q1P9EK2VNJO3BL7KD9","A334VWE4QGAZFR","3L1EFR8WWTRIL5MKAR1UWRHK4IC9FJ","","null","<img src=""img/food5.png"" style=""width:200px; border:14px solid green;"">","null","","","","","","","","","",""
"","image-keyboard-response","176","74474","0.0-176.0","3H8DHMCCWAX7Q1P9EK2VNJO3BL7KD9","A334VWE4QGAZFR","3L1EFR8WWTRIL5MKAR1UWRHK4IC9FJ","","35","img/food5.png","74","36","1","1","1","1","1,0.5,0,1,0.5,0,0.5,0,1","1,0.5,0,1,0.5,0,0.5,0,1","1","",""
"","html-keyboard-response","177","74776","0.0-177.0","3H8DHMCCWAX7Q1P9EK2VNJO3BL7KD9","A334VWE4QGAZFR","3L1EFR8WWTRIL5MKAR1UWRHK4IC9FJ","","null","<img src=""img/food5.png"" style=""width:200px; border:14px solid green;"">","null","","","","","","","","","",""
"","image-keyboard-response","178","75070","0.0-178.0","3H8DHMCCWAX7Q1P9EK2VNJO3BL7KD9","A334VWE4QGAZFR","3L1EFR8WWTRIL5MKAR1UWRHK4IC9FJ","","294","img/food2.png","74","294","1","1","3","1","1,0.5,0,1,0.5,0,0.5,0,1","1,0.5,0,1,0.5,0,0.5,0,1","1","",""
"","html-keyboard-response","179","75372","0.0-179.0","3H8DHMCCWAX7Q1P9EK2VNJO3BL7KD9","A334VWE4QGAZFR","3L1EFR8WWTRIL5MKAR1UWRHK4IC9FJ","","null","<img src=""img/food2.png"" style=""width:200px; border:14px solid green;"">","null","","","","","","","","","",""
"","image-keyboard-response","180","75478","0.0-180.0","3H8DHMCCWAX7Q1P9EK2VNJO3BL7KD9","A334VWE4QGAZFR","3L1EFR8WWTRIL5MKAR1UWRHK4IC9FJ","","106","img/food2.png","76","106","3","1","3","1","1,0.5,0,1,0.5,0,0.5,0,1","1,0.5,0,1,0.5,0,0.5,0,1","1","",""
"","html-keyboard-response","181","75779","0.0-181.0","3H8DHMCCWAX7Q1P9EK2VNJO3BL7KD9","A334VWE4QGAZFR","3L1EFR8WWTRIL5MKAR1UWRHK4IC9FJ","","null","<img src=""img/food2.png"" style=""width:200px; border:14px solid green;"">","null","","","","","","","","","",""
"","html-keyboard-response","182","79128","0.0-182.0","3H8DHMCCWAX7Q1P9EK2VNJO3BL7KD9","A334VWE4QGAZFR","3L1EFR8WWTRIL5MKAR1UWRHK4IC9FJ","","","","","","","","","","","","","",""
"","instructions","183","82649","0.0-183.0","3H8DHMCCWAX7Q1P9EK2VNJO3BL7KD9","A334VWE4QGAZFR","3L1EFR8WWTRIL5MKAR1UWRHK4IC9FJ","[{""page_index"":0,""viewing_time"":1592},{""page_index"":1,""viewing_time"":1927}]","3519","","","","","","","","","","","",""
"","image-keyboard-response","184","83650","0.0-184.0","3H8DHMCCWAX7Q1P9EK2VNJO3BL7KD9","A334VWE4QGAZFR","3L1EFR8WWTRIL5MKAR1UWRHK4IC9FJ","","","img/food1.png","","1001","-1","0","2","2","1,0.5,0,1,0.5,0,0.5,0,1","0,1,0.5,0,1,0.5,1,0.5,0","3","true",""
"","html-keyboard-response","185","83951","0.0-185.0","3H8DHMCCWAX7Q1P9EK2VNJO3BL7KD9","A334VWE4QGAZFR","3L1EFR8WWTRIL5MKAR1UWRHK4IC9FJ","","null","<img src=""img/food1.png"" style=""width:200px;border:14px solid red;"">","null","","","","","","","","","",""
"","html-keyboard-response","186","86073","0.0-186.0-0.0","3H8DHMCCWAX7Q1P9EK2VNJO3BL7KD9","A334VWE4QGAZFR","3L1EFR8WWTRIL5MKAR1UWRHK4IC9FJ","","","","","","","","","","","","","",""
"","image-keyboard-response","187","86939","0.0-187.0","3H8DHMCCWAX7Q1P9EK2VNJO3BL7KD9","A334VWE4QGAZFR","3L1EFR8WWTRIL5MKAR1UWRHK4IC9FJ","","863","img/food4.png","75","866","2","1","1","2","1,0.5,0,1,0.5,0,0.5,0,1","0,1,0.5,0,1,0.5,1,0.5,0","3","false",""
"","html-keyboard-response","188","87239","0.0-188.0","3H8DHMCCWAX7Q1P9EK2VNJO3BL7KD9","A334VWE4QGAZFR","3L1EFR8WWTRIL5MKAR1UWRHK4IC9FJ","","null","<img src=""img/food4.png"" style=""width:200px; border:14px solid green;"">","null","","","","","","","","","",""
"","image-keyboard-response","189","87375","0.0-190.0","3H8DHMCCWAX7Q1P9EK2VNJO3BL7KD9","A334VWE4QGAZFR","3L1EFR8WWTRIL5MKAR1UWRHK4IC9FJ","","135","img/food1.png","74","135","1","0","2","2","1,0.5,0,1,0.5,0,0.5,0,1","0,1,0.5,0,1,0.5,1,0.5,0","3","false",""
"","html-keyboard-response","190","87677","0.0-191.0","3H8DHMCCWAX7Q1P9EK2VNJO3BL7KD9","A334VWE4QGAZFR","3L1EFR8WWTRIL5MKAR1UWRHK4IC9FJ","","null","<img src=""img/food1.png"" style=""width:200px;border:14px solid red;"">","null","","","","","","","","","",""
"","image-keyboard-response","191","87713","0.0-193.0","3H8DHMCCWAX7Q1P9EK2VNJO3BL7KD9","A334VWE4QGAZFR","3L1EFR8WWTRIL5MKAR1UWRHK4IC9FJ","","33","img/food3.png","76","36","3","0","3","2","1,0.5,0,1,0.5,0,0.5,0,1","0,1,0.5,0,1,0.5,1,0.5,0","3","false",""
"","html-keyboard-response","192","88016","0.0-194.0","3H8DHMCCWAX7Q1P9EK2VNJO3BL7KD9","A334VWE4QGAZFR","3L1EFR8WWTRIL5MKAR1UWRHK4IC9FJ","","null","<img src=""img/food3.png"" style=""width:200px;border:14px solid red;"">","null","","","","","","","","","",""
"","image-keyboard-response","193","88080","0.0-196.0","3H8DHMCCWAX7Q1P9EK2VNJO3BL7KD9","A334VWE4QGAZFR","3L1EFR8WWTRIL5MKAR1UWRHK4IC9FJ","","61","img/food1.png","74","63","1","0","2","2","1,0.5,0,1,0.5,0,0.5,0,1","0,1,0.5,0,1,0.5,1,0.5,0","3","false",""
"","html-keyboard-response","194","88381","0.0-197.0","3H8DHMCCWAX7Q1P9EK2VNJO3BL7KD9","A334VWE4QGAZFR","3L1EFR8WWTRIL5MKAR1UWRHK4IC9FJ","","null","<img src=""img/food1.png"" style=""width:200px;border:14px solid red;"">","null","","","","","","","","","",""
"","image-keyboard-response","195","88507","0.0-199.0","3H8DHMCCWAX7Q1P9EK2VNJO3BL7KD9","A334VWE4QGAZFR","3L1EFR8WWTRIL5MKAR1UWRHK4IC9FJ","","125","img/food3.png","75","126","2","1","3","2","1,0.5,0,1,0.5,0,0.5,0,1","0,1,0.5,0,1,0.5,1,0.5,0","3","false",""
"","html-keyboard-response","196","88809","0.0-200.0","3H8DHMCCWAX7Q1P9EK2VNJO3BL7KD9","A334VWE4QGAZFR","3L1EFR8WWTRIL5MKAR1UWRHK4IC9FJ","","null","<img src=""img/food3.png"" style=""width:200px; border:14px solid green;"">","null","","","","","","","","","",""
"","image-keyboard-response","197","88816","0.0-202.0","3H8DHMCCWAX7Q1P9EK2VNJO3BL7KD9","A334VWE4QGAZFR","3L1EFR8WWTRIL5MKAR1UWRHK4IC9FJ","","4","img/food1.png","75","7","2","1","2","2","1,0.5,0,1,0.5,0,0.5,0,1","0,1,0.5,0,1,0.5,1,0.5,0","3","false",""
"","html-keyboard-response","198","89117","0.0-203.0","3H8DHMCCWAX7Q1P9EK2VNJO3BL7KD9","A334VWE4QGAZFR","3L1EFR8WWTRIL5MKAR1UWRHK4IC9FJ","","null","<img src=""img/food1.png"" style=""width:200px; border:14px solid green;"">","null","","","","","","","","","",""
"","image-keyboard-response","199","89331","0.0-205.0","3H8DHMCCWAX7Q1P9EK2VNJO3BL7KD9","A334VWE4QGAZFR","3L1EFR8WWTRIL5MKAR1UWRHK4IC9FJ","","213","img/food1.png","74","213","1","0","2","2","1,0.5,0,1,0.5,0,0.5,0,1","0,1,0.5,0,1,0.5,1,0.5,0","3","false",""
"","html-keyboard-response","200","89632","0.0-206.0","3H8DHMCCWAX7Q1P9EK2VNJO3BL7KD9","A334VWE4QGAZFR","3L1EFR8WWTRIL5MKAR1UWRHK4IC9FJ","","null","<img src=""img/food1.png"" style=""width:200px;border:14px solid red;"">","null","","","","","","","","","",""
"","image-keyboard-response","201","89758","0.0-208.0","3H8DHMCCWAX7Q1P9EK2VNJO3BL7KD9","A334VWE4QGAZFR","3L1EFR8WWTRIL5MKAR1UWRHK4IC9FJ","","125","img/food3.png","75","125","2","0","3","2","1,0.5,0,1,0.5,0,0.5,0,1","0,1,0.5,0,1,0.5,1,0.5,0","3","false",""
"","html-keyboard-response","202","90059","0.0-209.0","3H8DHMCCWAX7Q1P9EK2VNJO3BL7KD9","A334VWE4QGAZFR","3L1EFR8WWTRIL5MKAR1UWRHK4IC9FJ","","null","<img src=""img/food3.png"" style=""width:200px;border:14px solid red;"">","null","","","","","","","","","",""
"","image-keyboard-response","203","90206","0.0-211.0","3H8DHMCCWAX7Q1P9EK2VNJO3BL7KD9","A334VWE4QGAZFR","3L1EFR8WWTRIL5MKAR1UWRHK4IC9FJ","","146","img/food1.png","75","146","2","1","2","2","1,0.5,0,1,0.5,0,0.5,0,1","0,1,0.5,0,1,0.5,1,0.5,0","3","false",""
"","html-keyboard-response","204","90508","0.0-212.0","3H8DHMCCWAX7Q1P9EK2VNJO3BL7KD9","A334VWE4QGAZFR","3L1EFR8WWTRIL5MKAR1UWRHK4IC9FJ","","null","<img src=""img/food1.png"" style=""width:200px; border:14px solid green;"">","null","","","","","","","","","",""
"","image-keyboard-response","205","90583","0.0-214.0","3H8DHMCCWAX7Q1P9EK2VNJO3BL7KD9","A334VWE4QGAZFR","3L1EFR8WWTRIL5MKAR1UWRHK4IC9FJ","","74","img/food4.png","75","74","2","1","1","2","1,0.5,0,1,0.5,0,0.5,0,1","0,1,0.5,0,1,0.5,1,0.5,0","3","false",""
"","html-keyboard-response","206","90885","0.0-215.0","3H8DHMCCWAX7Q1P9EK2VNJO3BL7KD9","A334VWE4QGAZFR","3L1EFR8WWTRIL5MKAR1UWRHK4IC9FJ","","null","<img src=""img/food4.png"" style=""width:200px; border:14px solid green;"">","null","","","","","","","","","",""
"","image-keyboard-response","207","91020","0.0-217.0","3H8DHMCCWAX7Q1P9EK2VNJO3BL7KD9","A334VWE4QGAZFR","3L1EFR8WWTRIL5MKAR1UWRHK4IC9FJ","","134","img/food1.png","75","134","2","1","2","2","1,0.5,0,1,0.5,0,0.5,0,1","0,1,0.5,0,1,0.5,1,0.5,0","3","false",""
"","html-keyboard-response","208","91323","0.0-218.0","3H8DHMCCWAX7Q1P9EK2VNJO3BL7KD9","A334VWE4QGAZFR","3L1EFR8WWTRIL5MKAR1UWRHK4IC9FJ","","null","<img src=""img/food1.png"" style=""width:200px; border:14px solid green;"">","null","","","","","","","","","",""
"","image-keyboard-response","209","91418","0.0-220.0","3H8DHMCCWAX7Q1P9EK2VNJO3BL7KD9","A334VWE4QGAZFR","3L1EFR8WWTRIL5MKAR1UWRHK4IC9FJ","","94","img/food3.png","75","94","2","1","3","2","1,0.5,0,1,0.5,0,0.5,0,1","0,1,0.5,0,1,0.5,1,0.5,0","3","false",""
"","html-keyboard-response","210","91719","0.0-221.0","3H8DHMCCWAX7Q1P9EK2VNJO3BL7KD9","A334VWE4QGAZFR","3L1EFR8WWTRIL5MKAR1UWRHK4IC9FJ","","null","<img src=""img/food3.png"" style=""width:200px; border:14px solid green;"">","null","","","","","","","","","",""
"","image-keyboard-response","211","91734","0.0-223.0","3H8DHMCCWAX7Q1P9EK2VNJO3BL7KD9","A334VWE4QGAZFR","3L1EFR8WWTRIL5MKAR1UWRHK4IC9FJ","","14","img/food3.png","75","16","2","0","3","2","1,0.5,0,1,0.5,0,0.5,0,1","0,1,0.5,0,1,0.5,1,0.5,0","3","false",""
"","html-keyboard-response","212","92037","0.0-224.0","3H8DHMCCWAX7Q1P9EK2VNJO3BL7KD9","A334VWE4QGAZFR","3L1EFR8WWTRIL5MKAR1UWRHK4IC9FJ","","null","<img src=""img/food3.png"" style=""width:200px;border:14px solid red;"">","null","","","","","","","","","",""
"","image-keyboard-response","213","92161","0.0-226.0","3H8DHMCCWAX7Q1P9EK2VNJO3BL7KD9","A334VWE4QGAZFR","3L1EFR8WWTRIL5MKAR1UWRHK4IC9FJ","","123","img/food3.png","74","124","1","1","3","2","1,0.5,0,1,0.5,0,0.5,0,1","0,1,0.5,0,1,0.5,1,0.5,0","3","false",""
"","html-keyboard-response","214","92463","0.0-227.0","3H8DHMCCWAX7Q1P9EK2VNJO3BL7KD9","A334VWE4QGAZFR","3L1EFR8WWTRIL5MKAR1UWRHK4IC9FJ","","null","<img src=""img/food3.png"" style=""width:200px; border:14px solid green;"">","null","","","","","","","","","",""
"","image-keyboard-response","215","92579","0.0-229.0","3H8DHMCCWAX7Q1P9EK2VNJO3BL7KD9","A334VWE4QGAZFR","3L1EFR8WWTRIL5MKAR1UWRHK4IC9FJ","","115","img/food4.png","75","116","2","1","1","2","1,0.5,0,1,0.5,0,0.5,0,1","0,1,0.5,0,1,0.5,1,0.5,0","3","false",""
"","html-keyboard-response","216","92881","0.0-230.0","3H8DHMCCWAX7Q1P9EK2VNJO3BL7KD9","A334VWE4QGAZFR","3L1EFR8WWTRIL5MKAR1UWRHK4IC9FJ","","null","<img src=""img/food4.png"" style=""width:200px; border:14px solid green;"">","null","","","","","","","","","",""
"","image-keyboard-response","217","92908","0.0-232.0","3H8DHMCCWAX7Q1P9EK2VNJO3BL7KD9","A334VWE4QGAZFR","3L1EFR8WWTRIL5MKAR1UWRHK4IC9FJ","","26","img/food3.png","75","27","2","0","3","2","1,0.5,0,1,0.5,0,0.5,0,1","0,1,0.5,0,1,0.5,1,0.5,0","3","false",""
"","html-keyboard-response","218","93209","0.0-233.0","3H8DHMCCWAX7Q1P9EK2VNJO3BL7KD9","A334VWE4QGAZFR","3L1EFR8WWTRIL5MKAR1UWRHK4IC9FJ","","null","<img src=""img/food3.png"" style=""width:200px;border:14px solid red;"">","null","","","","","","","","","",""
"","image-keyboard-response","219","93344","0.0-235.0","3H8DHMCCWAX7Q1P9EK2VNJO3BL7KD9","A334VWE4QGAZFR","3L1EFR8WWTRIL5MKAR1UWRHK4IC9FJ","","133","img/food3.png","74","135","1","1","3","2","1,0.5,0,1,0.5,0,0.5,0,1","0,1,0.5,0,1,0.5,1,0.5,0","3","false",""
"","html-keyboard-response","220","93645","0.0-236.0","3H8DHMCCWAX7Q1P9EK2VNJO3BL7KD9","A334VWE4QGAZFR","3L1EFR8WWTRIL5MKAR1UWRHK4IC9FJ","","null","<img src=""img/food3.png"" style=""width:200px; border:14px solid green;"">","null","","","","","","","","","",""
"","image-keyboard-response","221","93761","0.0-238.0","3H8DHMCCWAX7Q1P9EK2VNJO3BL7KD9","A334VWE4QGAZFR","3L1EFR8WWTRIL5MKAR1UWRHK4IC9FJ","","115","img/food1.png","75","116","2","1","2","2","1,0.5,0,1,0.5,0,0.5,0,1","0,1,0.5,0,1,0.5,1,0.5,0","3","false",""
"","html-keyboard-response","222","94062","0.0-239.0","3H8DHMCCWAX7Q1P9EK2VNJO3BL7KD9","A334VWE4QGAZFR","3L1EFR8WWTRIL5MKAR1UWRHK4IC9FJ","","null","<img src=""img/food1.png"" style=""width:200px; border:14px solid green;"">","null","","","","","","","","","",""
"","image-keyboard-response","223","94207","0.0-241.0","3H8DHMCCWAX7Q1P9EK2VNJO3BL7KD9","A334VWE4QGAZFR","3L1EFR8WWTRIL5MKAR1UWRHK4IC9FJ","","144","img/food4.png","74","144","1","0","1","2","1,0.5,0,1,0.5,0,0.5,0,1","0,1,0.5,0,1,0.5,1,0.5,0","3","false",""
"","html-keyboard-response","224","94509","0.0-242.0","3H8DHMCCWAX7Q1P9EK2VNJO3BL7KD9","A334VWE4QGAZFR","3L1EFR8WWTRIL5MKAR1UWRHK4IC9FJ","","null","<img src=""img/food4.png"" style=""width:200px;border:14px solid red;"">","null","","","","","","","","","",""
"","image-keyboard-response","225","94645","0.0-244.0","3H8DHMCCWAX7Q1P9EK2VNJO3BL7KD9","A334VWE4QGAZFR","3L1EFR8WWTRIL5MKAR1UWRHK4IC9FJ","","134","img/food4.png","75","135","2","1","1","2","1,0.5,0,1,0.5,0,0.5,0,1","0,1,0.5,0,1,0.5,1,0.5,0","3","false",""
"","html-keyboard-response","226","94946","0.0-245.0","3H8DHMCCWAX7Q1P9EK2VNJO3BL7KD9","A334VWE4QGAZFR","3L1EFR8WWTRIL5MKAR1UWRHK4IC9FJ","","null","<img src=""img/food4.png"" style=""width:200px; border:14px solid green;"">","null","","","","","","","","","",""
"","image-keyboard-response","227","95063","0.0-247.0","3H8DHMCCWAX7Q1P9EK2VNJO3BL7KD9","A334VWE4QGAZFR","3L1EFR8WWTRIL5MKAR1UWRHK4IC9FJ","","115","img/food4.png","75","117","2","1","1","2","1,0.5,0,1,0.5,0,0.5,0,1","0,1,0.5,0,1,0.5,1,0.5,0","3","false",""
"","html-keyboard-response","228","95365","0.0-248.0","3H8DHMCCWAX7Q1P9EK2VNJO3BL7KD9","A334VWE4QGAZFR","3L1EFR8WWTRIL5MKAR1UWRHK4IC9FJ","","null","<img src=""img/food4.png"" style=""width:200px; border:14px solid green;"">","null","","","","","","","","","",""
"","image-keyboard-response","229","95509","0.0-250.0","3H8DHMCCWAX7Q1P9EK2VNJO3BL7KD9","A334VWE4QGAZFR","3L1EFR8WWTRIL5MKAR1UWRHK4IC9FJ","","142","img/food4.png","74","143","1","0","1","2","1,0.5,0,1,0.5,0,0.5,0,1","0,1,0.5,0,1,0.5,1,0.5,0","3","false",""
"","html-keyboard-response","230","95810","0.0-251.0","3H8DHMCCWAX7Q1P9EK2VNJO3BL7KD9","A334VWE4QGAZFR","3L1EFR8WWTRIL5MKAR1UWRHK4IC9FJ","","null","<img src=""img/food4.png"" style=""width:200px;border:14px solid red;"">","null","","","","","","","","","",""
"","image-keyboard-response","231","95999","0.0-253.0","3H8DHMCCWAX7Q1P9EK2VNJO3BL7KD9","A334VWE4QGAZFR","3L1EFR8WWTRIL5MKAR1UWRHK4IC9FJ","","188","img/food4.png","75","189","2","1","1","2","1,0.5,0,1,0.5,0,0.5,0,1","0,1,0.5,0,1,0.5,1,0.5,0","3","false",""
"","html-keyboard-response","232","96300","0.0-254.0","3H8DHMCCWAX7Q1P9EK2VNJO3BL7KD9","A334VWE4QGAZFR","3L1EFR8WWTRIL5MKAR1UWRHK4IC9FJ","","null","<img src=""img/food4.png"" style=""width:200px; border:14px solid green;"">","null","","","","","","","","","",""
"","image-keyboard-response","233","96495","0.0-256.0","3H8DHMCCWAX7Q1P9EK2VNJO3BL7KD9","A334VWE4QGAZFR","3L1EFR8WWTRIL5MKAR1UWRHK4IC9FJ","","194","img/food4.png","75","195","2","1","1","2","1,0.5,0,1,0.5,0,0.5,0,1","0,1,0.5,0,1,0.5,1,0.5,0","3","false",""
"","html-keyboard-response","234","96797","0.0-257.0","3H8DHMCCWAX7Q1P9EK2VNJO3BL7KD9","A334VWE4QGAZFR","3L1EFR8WWTRIL5MKAR1UWRHK4IC9FJ","","null","<img src=""img/food4.png"" style=""width:200px; border:14px solid green;"">","null","","","","","","","","","",""
"","image-keyboard-response","235","96806","0.0-259.0","3H8DHMCCWAX7Q1P9EK2VNJO3BL7KD9","A334VWE4QGAZFR","3L1EFR8WWTRIL5MKAR1UWRHK4IC9FJ","","8","img/food3.png","75","9","2","1","3","2","1,0.5,0,1,0.5,0,0.5,0,1","0,1,0.5,0,1,0.5,1,0.5,0","3","false",""
"","html-keyboard-response","236","97107","0.0-260.0","3H8DHMCCWAX7Q1P9EK2VNJO3BL7KD9","A334VWE4QGAZFR","3L1EFR8WWTRIL5MKAR1UWRHK4IC9FJ","","null","<img src=""img/food3.png"" style=""width:200px; border:14px solid green;"">","null","","","","","","","","","",""
"","image-keyboard-response","237","97198","0.0-262.0","3H8DHMCCWAX7Q1P9EK2VNJO3BL7KD9","A334VWE4QGAZFR","3L1EFR8WWTRIL5MKAR1UWRHK4IC9FJ","","89","img/food1.png","74","90","1","0","2","2","1,0.5,0,1,0.5,0,0.5,0,1","0,1,0.5,0,1,0.5,1,0.5,0","3","false",""
"","html-keyboard-response","238","97498","0.0-263.0","3H8DHMCCWAX7Q1P9EK2VNJO3BL7KD9","A334VWE4QGAZFR","3L1EFR8WWTRIL5MKAR1UWRHK4IC9FJ","","null","<img src=""img/food1.png"" style=""width:200px;border:14px solid red;"">","null","","","","","","","","","",""
"","image-keyboard-response","239","97517","0.0-265.0","3H8DHMCCWAX7Q1P9EK2VNJO3BL7KD9","A334VWE4QGAZFR","3L1EFR8WWTRIL5MKAR1UWRHK4IC9FJ","","18","img/food1.png","74","19","1","0","2","2","1,0.5,0,1,0.5,0,0.5,0,1","0,1,0.5,0,1,0.5,1,0.5,0","3","false",""
"","html-keyboard-response","240","97819","0.0-266.0","3H8DHMCCWAX7Q1P9EK2VNJO3BL7KD9","A334VWE4QGAZFR","3L1EFR8WWTRIL5MKAR1UWRHK4IC9FJ","","null","<img src=""img/food1.png"" style=""width:200px;border:14px solid red;"">","null","","","","","","","","","",""
"","image-keyboard-response","241","97983","0.0-268.0","3H8DHMCCWAX7Q1P9EK2VNJO3BL7KD9","A334VWE4QGAZFR","3L1EFR8WWTRIL5MKAR1UWRHK4IC9FJ","","163","img/food3.png","75","164","2","1","3","2","1,0.5,0,1,0.5,0,0.5,0,1","0,1,0.5,0,1,0.5,1,0.5,0","3","false",""
"","html-keyboard-response","242","98285","0.0-269.0","3H8DHMCCWAX7Q1P9EK2VNJO3BL7KD9","A334VWE4QGAZFR","3L1EFR8WWTRIL5MKAR1UWRHK4IC9FJ","","null","<img src=""img/food3.png"" style=""width:200px; border:14px solid green;"">","null","","","","","","","","","",""
"","image-keyboard-response","243","98299","0.0-271.0","3H8DHMCCWAX7Q1P9EK2VNJO3BL7KD9","A334VWE4QGAZFR","3L1EFR8WWTRIL5MKAR1UWRHK4IC9FJ","","13","img/food1.png","76","14","3","0","2","2","1,0.5,0,1,0.5,0,0.5,0,1","0,1,0.5,0,1,0.5,1,0.5,0","3","false",""
"","html-keyboard-response","244","98600","0.0-272.0","3H8DHMCCWAX7Q1P9EK2VNJO3BL7KD9","A334VWE4QGAZFR","3L1EFR8WWTRIL5MKAR1UWRHK4IC9FJ","","null","<img src=""img/food1.png"" style=""width:200px;border:14px solid red;"">","null","","","","","","","","","",""
"","image-keyboard-response","245","98641","0.0-274.0","3H8DHMCCWAX7Q1P9EK2VNJO3BL7KD9","A334VWE4QGAZFR","3L1EFR8WWTRIL5MKAR1UWRHK4IC9FJ","","40","img/food1.png","75","40","2","1","2","2","1,0.5,0,1,0.5,0,0.5,0,1","0,1,0.5,0,1,0.5,1,0.5,0","3","false",""
"","html-keyboard-response","246","98942","0.0-275.0","3H8DHMCCWAX7Q1P9EK2VNJO3BL7KD9","A334VWE4QGAZFR","3L1EFR8WWTRIL5MKAR1UWRHK4IC9FJ","","null","<img src=""img/food1.png"" style=""width:200px; border:14px solid green;"">","null","","","","","","","","","",""
"","image-keyboard-response","247","99015","0.0-277.0","3H8DHMCCWAX7Q1P9EK2VNJO3BL7KD9","A334VWE4QGAZFR","3L1EFR8WWTRIL5MKAR1UWRHK4IC9FJ","","72","img/food1.png","74","73","1","0","2","2","1,0.5,0,1,0.5,0,0.5,0,1","0,1,0.5,0,1,0.5,1,0.5,0","3","false",""
"","html-keyboard-response","248","99316","0.0-278.0","3H8DHMCCWAX7Q1P9EK2VNJO3BL7KD9","A334VWE4QGAZFR","3L1EFR8WWTRIL5MKAR1UWRHK4IC9FJ","","null","<img src=""img/food1.png"" style=""width:200px;border:14px solid red;"">","null","","","","","","","","","",""
"","image-keyboard-response","249","99463","0.0-280.0","3H8DHMCCWAX7Q1P9EK2VNJO3BL7KD9","A334VWE4QGAZFR","3L1EFR8WWTRIL5MKAR1UWRHK4IC9FJ","","146","img/food3.png","75","147","2","1","3","2","1,0.5,0,1,0.5,0,0.5,0,1","0,1,0.5,0,1,0.5,1,0.5,0","3","false",""
"","html-keyboard-response","250","99764","0.0-281.0","3H8DHMCCWAX7Q1P9EK2VNJO3BL7KD9","A334VWE4QGAZFR","3L1EFR8WWTRIL5MKAR1UWRHK4IC9FJ","","null","<img src=""img/food3.png"" style=""width:200px; border:14px solid green;"">","null","","","","","","","","","",""
"","image-keyboard-response","251","99870","0.0-283.0","3H8DHMCCWAX7Q1P9EK2VNJO3BL7KD9","A334VWE4QGAZFR","3L1EFR8WWTRIL5MKAR1UWRHK4IC9FJ","","105","img/food4.png","74","106","1","0","1","2","1,0.5,0,1,0.5,0,0.5,0,1","0,1,0.5,0,1,0.5,1,0.5,0","3","false",""
"","html-keyboard-response","252","100171","0.0-284.0","3H8DHMCCWAX7Q1P9EK2VNJO3BL7KD9","A334VWE4QGAZFR","3L1EFR8WWTRIL5MKAR1UWRHK4IC9FJ","","null","<img src=""img/food4.png"" style=""width:200px;border:14px solid red;"">","null","","","","","","","","","",""
"","image-keyboard-response","253","100403","0.0-286.0","3H8DHMCCWAX7Q1P9EK2VNJO3BL7KD9","A334VWE4QGAZFR","3L1EFR8WWTRIL5MKAR1UWRHK4IC9FJ","","231","img/food3.png","74","233","1","1","3","2","1,0.5,0,1,0.5,0,0.5,0,1","0,1,0.5,0,1,0.5,1,0.5,0","3","false",""
"","html-keyboard-response","254","100705","0.0-287.0","3H8DHMCCWAX7Q1P9EK2VNJO3BL7KD9","A334VWE4QGAZFR","3L1EFR8WWTRIL5MKAR1UWRHK4IC9FJ","","null","<img src=""img/food3.png"" style=""width:200px; border:14px solid green;"">","null","","","","","","","","","",""
"","image-keyboard-response","255","100745","0.0-289.0","3H8DHMCCWAX7Q1P9EK2VNJO3BL7KD9","A334VWE4QGAZFR","3L1EFR8WWTRIL5MKAR1UWRHK4IC9FJ","","39","img/food1.png","76","39","3","0","2","2","1,0.5,0,1,0.5,0,0.5,0,1","0,1,0.5,0,1,0.5,1,0.5,0","3","false",""
"","html-keyboard-response","256","101046","0.0-290.0","3H8DHMCCWAX7Q1P9EK2VNJO3BL7KD9","A334VWE4QGAZFR","3L1EFR8WWTRIL5MKAR1UWRHK4IC9FJ","","null","<img src=""img/food1.png"" style=""width:200px;border:14px solid red;"">","null","","","","","","","","","",""
"","image-keyboard-response","257","101250","0.0-292.0","3H8DHMCCWAX7Q1P9EK2VNJO3BL7KD9","A334VWE4QGAZFR","3L1EFR8WWTRIL5MKAR1UWRHK4IC9FJ","","203","img/food3.png","75","203","2","0","3","2","1,0.5,0,1,0.5,0,0.5,0,1","0,1,0.5,0,1,0.5,1,0.5,0","3","false",""
"","html-keyboard-response","258","101551","0.0-293.0","3H8DHMCCWAX7Q1P9EK2VNJO3BL7KD9","A334VWE4QGAZFR","3L1EFR8WWTRIL5MKAR1UWRHK4IC9FJ","","null","<img src=""img/food3.png"" style=""width:200px;border:14px solid red;"">","null","","","","","","","","","",""
"","image-keyboard-response","259","101679","0.0-295.0","3H8DHMCCWAX7Q1P9EK2VNJO3BL7KD9","A334VWE4QGAZFR","3L1EFR8WWTRIL5MKAR1UWRHK4IC9FJ","","127","img/food1.png","74","129","1","0","2","2","1,0.5,0,1,0.5,0,0.5,0,1","0,1,0.5,0,1,0.5,1,0.5,0","3","false",""
"","html-keyboard-response","260","101981","0.0-296.0","3H8DHMCCWAX7Q1P9EK2VNJO3BL7KD9","A334VWE4QGAZFR","3L1EFR8WWTRIL5MKAR1UWRHK4IC9FJ","","null","<img src=""img/food1.png"" style=""width:200px;border:14px solid red;"">","null","","","","","","","","","",""
"","image-keyboard-response","261","102016","0.0-298.0","3H8DHMCCWAX7Q1P9EK2VNJO3BL7KD9","A334VWE4QGAZFR","3L1EFR8WWTRIL5MKAR1UWRHK4IC9FJ","","34","img/food4.png","74","34","1","0","1","2","1,0.5,0,1,0.5,0,0.5,0,1","0,1,0.5,0,1,0.5,1,0.5,0","3","false",""
"","html-keyboard-response","262","102317","0.0-299.0","3H8DHMCCWAX7Q1P9EK2VNJO3BL7KD9","A334VWE4QGAZFR","3L1EFR8WWTRIL5MKAR1UWRHK4IC9FJ","","null","<img src=""img/food4.png"" style=""width:200px;border:14px solid red;"">","null","","","","","","","","","",""
"","image-keyboard-response","263","102451","0.0-301.0","3H8DHMCCWAX7Q1P9EK2VNJO3BL7KD9","A334VWE4QGAZFR","3L1EFR8WWTRIL5MKAR1UWRHK4IC9FJ","","133","img/food3.png","75","135","2","0","3","2","1,0.5,0,1,0.5,0,0.5,0,1","0,1,0.5,0,1,0.5,1,0.5,0","3","false",""
"","html-keyboard-response","264","102753","0.0-302.0","3H8DHMCCWAX7Q1P9EK2VNJO3BL7KD9","A334VWE4QGAZFR","3L1EFR8WWTRIL5MKAR1UWRHK4IC9FJ","","null","<img src=""img/food3.png"" style=""width:200px;border:14px solid red;"">","null","","","","","","","","","",""
"","image-keyboard-response","265","102770","0.0-304.0","3H8DHMCCWAX7Q1P9EK2VNJO3BL7KD9","A334VWE4QGAZFR","3L1EFR8WWTRIL5MKAR1UWRHK4IC9FJ","","16","img/food1.png","76","17","3","0","2","2","1,0.5,0,1,0.5,0,0.5,0,1","0,1,0.5,0,1,0.5,1,0.5,0","3","false",""
"","html-keyboard-response","266","103071","0.0-305.0","3H8DHMCCWAX7Q1P9EK2VNJO3BL7KD9","A334VWE4QGAZFR","3L1EFR8WWTRIL5MKAR1UWRHK4IC9FJ","","null","<img src=""img/food1.png"" style=""width:200px;border:14px solid red;"">","null","","","","","","","","","",""
"","image-keyboard-response","267","103209","0.0-307.0","3H8DHMCCWAX7Q1P9EK2VNJO3BL7KD9","A334VWE4QGAZFR","3L1EFR8WWTRIL5MKAR1UWRHK4IC9FJ","","137","img/food3.png","74","138","1","1","3","2","1,0.5,0,1,0.5,0,0.5,0,1","0,1,0.5,0,1,0.5,1,0.5,0","3","false",""
"","html-keyboard-response","268","103511","0.0-308.0","3H8DHMCCWAX7Q1P9EK2VNJO3BL7KD9","A334VWE4QGAZFR","3L1EFR8WWTRIL5MKAR1UWRHK4IC9FJ","","null","<img src=""img/food3.png"" style=""width:200px; border:14px solid green;"">","null","","","","","","","","","",""
"","image-keyboard-response","269","103694","0.0-310.0","3H8DHMCCWAX7Q1P9EK2VNJO3BL7KD9","A334VWE4QGAZFR","3L1EFR8WWTRIL5MKAR1UWRHK4IC9FJ","","182","img/food3.png","75","182","2","1","3","2","1,0.5,0,1,0.5,0,0.5,0,1","0,1,0.5,0,1,0.5,1,0.5,0","3","false",""
"","html-keyboard-response","270","103996","0.0-311.0","3H8DHMCCWAX7Q1P9EK2VNJO3BL7KD9","A334VWE4QGAZFR","3L1EFR8WWTRIL5MKAR1UWRHK4IC9FJ","","null","<img src=""img/food3.png"" style=""width:200px; border:14px solid green;"">","null","","","","","","","","","",""
"","image-keyboard-response","271","104190","0.0-313.0","3H8DHMCCWAX7Q1P9EK2VNJO3BL7KD9","A334VWE4QGAZFR","3L1EFR8WWTRIL5MKAR1UWRHK4IC9FJ","","193","img/food1.png","74","195","1","0","2","2","1,0.5,0,1,0.5,0,0.5,0,1","0,1,0.5,0,1,0.5,1,0.5,0","3","false",""
"","html-keyboard-response","272","104492","0.0-314.0","3H8DHMCCWAX7Q1P9EK2VNJO3BL7KD9","A334VWE4QGAZFR","3L1EFR8WWTRIL5MKAR1UWRHK4IC9FJ","","null","<img src=""img/food1.png"" style=""width:200px;border:14px solid red;"">","null","","","","","","","","","",""
"","image-keyboard-response","273","104499","0.0-316.0","3H8DHMCCWAX7Q1P9EK2VNJO3BL7KD9","A334VWE4QGAZFR","3L1EFR8WWTRIL5MKAR1UWRHK4IC9FJ","","6","img/food3.png","74","7","1","1","3","2","1,0.5,0,1,0.5,0,0.5,0,1","0,1,0.5,0,1,0.5,1,0.5,0","3","false",""
"","html-keyboard-response","274","104800","0.0-317.0","3H8DHMCCWAX7Q1P9EK2VNJO3BL7KD9","A334VWE4QGAZFR","3L1EFR8WWTRIL5MKAR1UWRHK4IC9FJ","","null","<img src=""img/food3.png"" style=""width:200px; border:14px solid green;"">","null","","","","","","","","","",""
"","image-keyboard-response","275","104816","0.0-319.0","3H8DHMCCWAX7Q1P9EK2VNJO3BL7KD9","A334VWE4QGAZFR","3L1EFR8WWTRIL5MKAR1UWRHK4IC9FJ","","14","img/food4.png","74","15","1","0","1","2","1,0.5,0,1,0.5,0,0.5,0,1","0,1,0.5,0,1,0.5,1,0.5,0","3","false",""
"","html-keyboard-response","276","105118","0.0-320.0","3H8DHMCCWAX7Q1P9EK2VNJO3BL7KD9","A334VWE4QGAZFR","3L1EFR8WWTRIL5MKAR1UWRHK4IC9FJ","","null","<img src=""img/food4.png"" style=""width:200px;border:14px solid red;"">","null","","","","","","","","","",""
"","image-keyboard-response","277","105138","0.0-322.0","3H8DHMCCWAX7Q1P9EK2VNJO3BL7KD9","A334VWE4QGAZFR","3L1EFR8WWTRIL5MKAR1UWRHK4IC9FJ","","19","img/food4.png","74","20","1","0","1","2","1,0.5,0,1,0.5,0,0.5,0,1","0,1,0.5,0,1,0.5,1,0.5,0","3","false",""
"","html-keyboard-response","278","105439","0.0-323.0","3H8DHMCCWAX7Q1P9EK2VNJO3BL7KD9","A334VWE4QGAZFR","3L1EFR8WWTRIL5MKAR1UWRHK4IC9FJ","","null","<img src=""img/food4.png"" style=""width:200px;border:14px solid red;"">","null","","","","","","","","","",""
"","image-keyboard-response","279","105462","0.0-325.0","3H8DHMCCWAX7Q1P9EK2VNJO3BL7KD9","A334VWE4QGAZFR","3L1EFR8WWTRIL5MKAR1UWRHK4IC9FJ","","22","img/food1.png","74","22","1","0","2","2","1,0.5,0,1,0.5,0,0.5,0,1","0,1,0.5,0,1,0.5,1,0.5,0","3","false",""
"","html-keyboard-response","280","105763","0.0-326.0","3H8DHMCCWAX7Q1P9EK2VNJO3BL7KD9","A334VWE4QGAZFR","3L1EFR8WWTRIL5MKAR1UWRHK4IC9FJ","","null","<img src=""img/food1.png"" style=""width:200px;border:14px solid red;"">","null","","","","","","","","","",""
"","image-keyboard-response","281","105790","0.0-328.0","3H8DHMCCWAX7Q1P9EK2VNJO3BL7KD9","A334VWE4QGAZFR","3L1EFR8WWTRIL5MKAR1UWRHK4IC9FJ","","25","img/food4.png","74","27","1","0","1","2","1,0.5,0,1,0.5,0,0.5,0,1","0,1,0.5,0,1,0.5,1,0.5,0","3","false",""
"","html-keyboard-response","282","106092","0.0-329.0","3H8DHMCCWAX7Q1P9EK2VNJO3BL7KD9","A334VWE4QGAZFR","3L1EFR8WWTRIL5MKAR1UWRHK4IC9FJ","","null","<img src=""img/food4.png"" style=""width:200px;border:14px solid red;"">","null","","","","","","","","","",""
"","image-keyboard-response","283","106257","0.0-331.0","3H8DHMCCWAX7Q1P9EK2VNJO3BL7KD9","A334VWE4QGAZFR","3L1EFR8WWTRIL5MKAR1UWRHK4IC9FJ","","164","img/food1.png","74","164","1","0","2","2","1,0.5,0,1,0.5,0,0.5,0,1","0,1,0.5,0,1,0.5,1,0.5,0","3","false",""
"","html-keyboard-response","284","106560","0.0-332.0","3H8DHMCCWAX7Q1P9EK2VNJO3BL7KD9","A334VWE4QGAZFR","3L1EFR8WWTRIL5MKAR1UWRHK4IC9FJ","","null","<img src=""img/food1.png"" style=""width:200px;border:14px solid red;"">","null","","","","","","","","","",""
"","image-keyboard-response","285","106660","0.0-334.0","3H8DHMCCWAX7Q1P9EK2VNJO3BL7KD9","A334VWE4QGAZFR","3L1EFR8WWTRIL5MKAR1UWRHK4IC9FJ","","97","img/food3.png","75","99","2","0","3","2","1,0.5,0,1,0.5,0,0.5,0,1","0,1,0.5,0,1,0.5,1,0.5,0","3","false",""
"","html-keyboard-response","286","106962","0.0-335.0","3H8DHMCCWAX7Q1P9EK2VNJO3BL7KD9","A334VWE4QGAZFR","3L1EFR8WWTRIL5MKAR1UWRHK4IC9FJ","","null","<img src=""img/food3.png"" style=""width:200px;border:14px solid red;"">","null","","","","","","","","","",""
"","image-keyboard-response","287","106991","0.0-337.0","3H8DHMCCWAX7Q1P9EK2VNJO3BL7KD9","A334VWE4QGAZFR","3L1EFR8WWTRIL5MKAR1UWRHK4IC9FJ","","28","img/food3.png","75","29","2","0","3","2","1,0.5,0,1,0.5,0,0.5,0,1","0,1,0.5,0,1,0.5,1,0.5,0","3","false",""
"","html-keyboard-response","288","107294","0.0-338.0","3H8DHMCCWAX7Q1P9EK2VNJO3BL7KD9","A334VWE4QGAZFR","3L1EFR8WWTRIL5MKAR1UWRHK4IC9FJ","","null","<img src=""img/food3.png"" style=""width:200px;border:14px solid red;"">","null","","","","","","","","","",""
"","image-keyboard-response","289","107339","0.0-340.0","3H8DHMCCWAX7Q1P9EK2VNJO3BL7KD9","A334VWE4QGAZFR","3L1EFR8WWTRIL5MKAR1UWRHK4IC9FJ","","44","img/food3.png","75","45","2","0","3","2","1,0.5,0,1,0.5,0,0.5,0,1","0,1,0.5,0,1,0.5,1,0.5,0","3","false",""
"","html-keyboard-response","290","107640","0.0-341.0","3H8DHMCCWAX7Q1P9EK2VNJO3BL7KD9","A334VWE4QGAZFR","3L1EFR8WWTRIL5MKAR1UWRHK4IC9FJ","","null","<img src=""img/food3.png"" style=""width:200px;border:14px solid red;"">","null","","","","","","","","","",""
"","image-keyboard-response","291","107652","0.0-343.0","3H8DHMCCWAX7Q1P9EK2VNJO3BL7KD9","A334VWE4QGAZFR","3L1EFR8WWTRIL5MKAR1UWRHK4IC9FJ","","11","img/food1.png","76","12","3","0","2","2","1,0.5,0,1,0.5,0,0.5,0,1","0,1,0.5,0,1,0.5,1,0.5,0","3","false",""
"","html-keyboard-response","292","107954","0.0-344.0","3H8DHMCCWAX7Q1P9EK2VNJO3BL7KD9","A334VWE4QGAZFR","3L1EFR8WWTRIL5MKAR1UWRHK4IC9FJ","","null","<img src=""img/food1.png"" style=""width:200px;border:14px solid red;"">","null","","","","","","","","","",""
"","image-keyboard-response","293","107985","0.0-346.0","3H8DHMCCWAX7Q1P9EK2VNJO3BL7KD9","A334VWE4QGAZFR","3L1EFR8WWTRIL5MKAR1UWRHK4IC9FJ","","30","img/food1.png","75","31","2","1","2","2","1,0.5,0,1,0.5,0,0.5,0,1","0,1,0.5,0,1,0.5,1,0.5,0","3","false",""
"","html-keyboard-response","294","108286","0.0-347.0","3H8DHMCCWAX7Q1P9EK2VNJO3BL7KD9","A334VWE4QGAZFR","3L1EFR8WWTRIL5MKAR1UWRHK4IC9FJ","","null","<img src=""img/food1.png"" style=""width:200px; border:14px solid green;"">","null","","","","","","","","","",""
"","image-keyboard-response","295","108352","0.0-349.0","3H8DHMCCWAX7Q1P9EK2VNJO3BL7KD9","A334VWE4QGAZFR","3L1EFR8WWTRIL5MKAR1UWRHK4IC9FJ","","65","img/food4.png","75","66","2","1","1","2","1,0.5,0,1,0.5,0,0.5,0,1","0,1,0.5,0,1,0.5,1,0.5,0","3","false",""
"","html-keyboard-response","296","108652","0.0-350.0","3H8DHMCCWAX7Q1P9EK2VNJO3BL7KD9","A334VWE4QGAZFR","3L1EFR8WWTRIL5MKAR1UWRHK4IC9FJ","","null","<img src=""img/food4.png"" style=""width:200px; border:14px solid green;"">","null","","","","","","","","","",""
"","image-keyboard-response","297","108660","0.0-352.0","3H8DHMCCWAX7Q1P9EK2VNJO3BL7KD9","A334VWE4QGAZFR","3L1EFR8WWTRIL5MKAR1UWRHK4IC9FJ","","7","img/food3.png","76","8","3","0","3","2","1,0.5,0,1,0.5,0,0.5,0,1","0,1,0.5,0,1,0.5,1,0.5,0","3","false",""
"","html-keyboard-response","298","108961","0.0-353.0","3H8DHMCCWAX7Q1P9EK2VNJO3BL7KD9","A334VWE4QGAZFR","3L1EFR8WWTRIL5MKAR1UWRHK4IC9FJ","","null","<img src=""img/food3.png"" style=""width:200px;border:14px solid red;"">","null","","","","","","","","","",""
"","image-keyboard-response","299","108978","0.0-355.0","3H8DHMCCWAX7Q1P9EK2VNJO3BL7KD9","A334VWE4QGAZFR","3L1EFR8WWTRIL5MKAR1UWRHK4IC9FJ","","16","img/food3.png","75","18","2","1","3","2","1,0.5,0,1,0.5,0,0.5,0,1","0,1,0.5,0,1,0.5,1,0.5,0","3","false",""
"","html-keyboard-response","300","109280","0.0-356.0","3H8DHMCCWAX7Q1P9EK2VNJO3BL7KD9","A334VWE4QGAZFR","3L1EFR8WWTRIL5MKAR1UWRHK4IC9FJ","","null","<img src=""img/food3.png"" style=""width:200px; border:14px solid green;"">","null","","","","","","","","","",""
"","image-keyboard-response","301","109343","0.0-358.0","3H8DHMCCWAX7Q1P9EK2VNJO3BL7KD9","A334VWE4QGAZFR","3L1EFR8WWTRIL5MKAR1UWRHK4IC9FJ","","62","img/food4.png","76","63","3","0","1","2","1,0.5,0,1,0.5,0,0.5,0,1","0,1,0.5,0,1,0.5,1,0.5,0","3","false",""
"","html-keyboard-response","302","109644","0.0-359.0","3H8DHMCCWAX7Q1P9EK2VNJO3BL7KD9","A334VWE4QGAZFR","3L1EFR8WWTRIL5MKAR1UWRHK4IC9FJ","","null","<img src=""img/food4.png"" style=""width:200px;border:14px solid red;"">","null","","","","","","","","","",""
"","image-keyboard-response","303","109754","0.0-361.0","3H8DHMCCWAX7Q1P9EK2VNJO3BL7KD9","A334VWE4QGAZFR","3L1EFR8WWTRIL5MKAR1UWRHK4IC9FJ","","109","img/food4.png","75","109","2","1","1","2","1,0.5,0,1,0.5,0,0.5,0,1","0,1,0.5,0,1,0.5,1,0.5,0","3","false",""
"","html-keyboard-response","304","110063","0.0-362.0","3H8DHMCCWAX7Q1P9EK2VNJO3BL7KD9","A334VWE4QGAZFR","3L1EFR8WWTRIL5MKAR1UWRHK4IC9FJ","","null","<img src=""img/food4.png"" style=""width:200px; border:14px solid green;"">","null","","","","","","","","","",""
"","image-keyboard-response","305","110074","0.0-364.0","3H8DHMCCWAX7Q1P9EK2VNJO3BL7KD9","A334VWE4QGAZFR","3L1EFR8WWTRIL5MKAR1UWRHK4IC9FJ","","9","img/food4.png","75","10","2","1","1","2","1,0.5,0,1,0.5,0,0.5,0,1","0,1,0.5,0,1,0.5,1,0.5,0","3","false",""
"","html-keyboard-response","306","110376","0.0-365.0","3H8DHMCCWAX7Q1P9EK2VNJO3BL7KD9","A334VWE4QGAZFR","3L1EFR8WWTRIL5MKAR1UWRHK4IC9FJ","","null","<img src=""img/food4.png"" style=""width:200px; border:14px solid green;"">","null","","","","","","","","","",""
"","image-keyboard-response","307","110379","0.0-367.0","3H8DHMCCWAX7Q1P9EK2VNJO3BL7KD9","A334VWE4QGAZFR","3L1EFR8WWTRIL5MKAR1UWRHK4IC9FJ","","2","img/food4.png","75","3","2","1","1","2","1,0.5,0,1,0.5,0,0.5,0,1","0,1,0.5,0,1,0.5,1,0.5,0","3","false",""
"","html-keyboard-response","308","110723","0.0-368.0","3H8DHMCCWAX7Q1P9EK2VNJO3BL7KD9","A334VWE4QGAZFR","3L1EFR8WWTRIL5MKAR1UWRHK4IC9FJ","","null","<img src=""img/food4.png"" style=""width:200px; border:14px solid green;"">","null","","","","","","","","","",""
"","image-keyboard-response","309","110767","0.0-370.0","3H8DHMCCWAX7Q1P9EK2VNJO3BL7KD9","A334VWE4QGAZFR","3L1EFR8WWTRIL5MKAR1UWRHK4IC9FJ","","42","img/food1.png","75","44","2","1","2","2","1,0.5,0,1,0.5,0,0.5,0,1","0,1,0.5,0,1,0.5,1,0.5,0","3","false",""
"","html-keyboard-response","310","111068","0.0-371.0","3H8DHMCCWAX7Q1P9EK2VNJO3BL7KD9","A334VWE4QGAZFR","3L1EFR8WWTRIL5MKAR1UWRHK4IC9FJ","","null","<img src=""img/food1.png"" style=""width:200px; border:14px solid green;"">","null","","","","","","","","","",""
"","image-keyboard-response","311","111152","0.0-373.0","3H8DHMCCWAX7Q1P9EK2VNJO3BL7KD9","A334VWE4QGAZFR","3L1EFR8WWTRIL5MKAR1UWRHK4IC9FJ","","82","img/food3.png","74","82","1","1","3","2","1,0.5,0,1,0.5,0,0.5,0,1","0,1,0.5,0,1,0.5,1,0.5,0","3","false",""
"","html-keyboard-response","312","111453","0.0-374.0","3H8DHMCCWAX7Q1P9EK2VNJO3BL7KD9","A334VWE4QGAZFR","3L1EFR8WWTRIL5MKAR1UWRHK4IC9FJ","","null","<img src=""img/food3.png"" style=""width:200px; border:14px solid green;"">","null","","","","","","","","","",""
"","image-keyboard-response","313","111592","0.0-376.0","3H8DHMCCWAX7Q1P9EK2VNJO3BL7KD9","A334VWE4QGAZFR","3L1EFR8WWTRIL5MKAR1UWRHK4IC9FJ","","138","img/food3.png","76","139","3","0","3","2","1,0.5,0,1,0.5,0,0.5,0,1","0,1,0.5,0,1,0.5,1,0.5,0","3","false",""
"","html-keyboard-response","314","111900","0.0-377.0","3H8DHMCCWAX7Q1P9EK2VNJO3BL7KD9","A334VWE4QGAZFR","3L1EFR8WWTRIL5MKAR1UWRHK4IC9FJ","","null","<img src=""img/food3.png"" style=""width:200px;border:14px solid red;"">","null","","","","","","","","","",""
"","image-keyboard-response","315","112008","0.0-379.0","3H8DHMCCWAX7Q1P9EK2VNJO3BL7KD9","A334VWE4QGAZFR","3L1EFR8WWTRIL5MKAR1UWRHK4IC9FJ","","107","img/food3.png","74","108","1","1","3","2","1,0.5,0,1,0.5,0,0.5,0,1","0,1,0.5,0,1,0.5,1,0.5,0","3","false",""
"","html-keyboard-response","316","112310","0.0-380.0","3H8DHMCCWAX7Q1P9EK2VNJO3BL7KD9","A334VWE4QGAZFR","3L1EFR8WWTRIL5MKAR1UWRHK4IC9FJ","","null","<img src=""img/food3.png"" style=""width:200px; border:14px solid green;"">","null","","","","","","","","","",""
"","image-keyboard-response","317","112346","0.0-382.0","3H8DHMCCWAX7Q1P9EK2VNJO3BL7KD9","A334VWE4QGAZFR","3L1EFR8WWTRIL5MKAR1UWRHK4IC9FJ","","35","img/food4.png","74","35","1","0","1","2","1,0.5,0,1,0.5,0,0.5,0,1","0,1,0.5,0,1,0.5,1,0.5,0","3","false",""
"","html-keyboard-response","318","112647","0.0-383.0","3H8DHMCCWAX7Q1P9EK2VNJO3BL7KD9","A334VWE4QGAZFR","3L1EFR8WWTRIL5MKAR1UWRHK4IC9FJ","","null","<img src=""img/food4.png"" style=""width:200px;border:14px solid red;"">","null","","","","","","","","","",""
"","image-keyboard-response","319","112662","0.0-385.0","3H8DHMCCWAX7Q1P9EK2VNJO3BL7KD9","A334VWE4QGAZFR","3L1EFR8WWTRIL5MKAR1UWRHK4IC9FJ","","14","img/food3.png","74","14","1","1","3","2","1,0.5,0,1,0.5,0,0.5,0,1","0,1,0.5,0,1,0.5,1,0.5,0","3","false",""
"","html-keyboard-response","320","112964","0.0-386.0","3H8DHMCCWAX7Q1P9EK2VNJO3BL7KD9","A334VWE4QGAZFR","3L1EFR8WWTRIL5MKAR1UWRHK4IC9FJ","","null","<img src=""img/food3.png"" style=""width:200px; border:14px solid green;"">","null","","","","","","","","","",""
"","image-keyboard-response","321","113030","0.0-388.0","3H8DHMCCWAX7Q1P9EK2VNJO3BL7KD9","A334VWE4QGAZFR","3L1EFR8WWTRIL5MKAR1UWRHK4IC9FJ","","65","img/food1.png","74","67","1","0","2","2","1,0.5,0,1,0.5,0,0.5,0,1","0,1,0.5,0,1,0.5,1,0.5,0","3","false",""
"","html-keyboard-response","322","113332","0.0-389.0","3H8DHMCCWAX7Q1P9EK2VNJO3BL7KD9","A334VWE4QGAZFR","3L1EFR8WWTRIL5MKAR1UWRHK4IC9FJ","","null","<img src=""img/food1.png"" style=""width:200px;border:14px solid red;"">","null","","","","","","","","","",""
"","image-keyboard-response","323","113429","0.0-391.0","3H8DHMCCWAX7Q1P9EK2VNJO3BL7KD9","A334VWE4QGAZFR","3L1EFR8WWTRIL5MKAR1UWRHK4IC9FJ","","96","img/food4.png","74","98","1","0","1","2","1,0.5,0,1,0.5,0,0.5,0,1","0,1,0.5,0,1,0.5,1,0.5,0","3","false",""
"","html-keyboard-response","324","113731","0.0-392.0","3H8DHMCCWAX7Q1P9EK2VNJO3BL7KD9","A334VWE4QGAZFR","3L1EFR8WWTRIL5MKAR1UWRHK4IC9FJ","","null","<img src=""img/food4.png"" style=""width:200px;border:14px solid red;"">","null","","","","","","","","","",""
"","image-keyboard-response","325","113806","0.0-394.0","3H8DHMCCWAX7Q1P9EK2VNJO3BL7KD9","A334VWE4QGAZFR","3L1EFR8WWTRIL5MKAR1UWRHK4IC9FJ","","74","img/food4.png","76","75","3","1","1","2","1,0.5,0,1,0.5,0,0.5,0,1","0,1,0.5,0,1,0.5,1,0.5,0","3","false",""
"","html-keyboard-response","326","114108","0.0-395.0","3H8DHMCCWAX7Q1P9EK2VNJO3BL7KD9","A334VWE4QGAZFR","3L1EFR8WWTRIL5MKAR1UWRHK4IC9FJ","","null","<img src=""img/food4.png"" style=""width:200px; border:14px solid green;"">","null","","","","","","","","","",""
"","image-keyboard-response","327","114194","0.0-397.0","3H8DHMCCWAX7Q1P9EK2VNJO3BL7KD9","A334VWE4QGAZFR","3L1EFR8WWTRIL5MKAR1UWRHK4IC9FJ","","85","img/food1.png","75","86","2","1","2","2","1,0.5,0,1,0.5,0,0.5,0,1","0,1,0.5,0,1,0.5,1,0.5,0","3","false",""
"","html-keyboard-response","328","114496","0.0-398.0","3H8DHMCCWAX7Q1P9EK2VNJO3BL7KD9","A334VWE4QGAZFR","3L1EFR8WWTRIL5MKAR1UWRHK4IC9FJ","","null","<img src=""img/food1.png"" style=""width:200px; border:14px solid green;"">","null","","","","","","","","","",""
"","image-keyboard-response","329","114531","0.0-400.0","3H8DHMCCWAX7Q1P9EK2VNJO3BL7KD9","A334VWE4QGAZFR","3L1EFR8WWTRIL5MKAR1UWRHK4IC9FJ","","34","img/food4.png","74","35","1","0","1","2","1,0.5,0,1,0.5,0,0.5,0,1","0,1,0.5,0,1,0.5,1,0.5,0","3","false",""
"","html-keyboard-response","330","114832","0.0-401.0","3H8DHMCCWAX7Q1P9EK2VNJO3BL7KD9","A334VWE4QGAZFR","3L1EFR8WWTRIL5MKAR1UWRHK4IC9FJ","","null","<img src=""img/food4.png"" style=""width:200px;border:14px solid red;"">","null","","","","","","","","","",""
"","image-keyboard-response","331","114860","0.0-403.0","3H8DHMCCWAX7Q1P9EK2VNJO3BL7KD9","A334VWE4QGAZFR","3L1EFR8WWTRIL5MKAR1UWRHK4IC9FJ","","26","img/food4.png","76","28","3","1","1","2","1,0.5,0,1,0.5,0,0.5,0,1","0,1,0.5,0,1,0.5,1,0.5,0","3","false",""
"","html-keyboard-response","332","115161","0.0-404.0","3H8DHMCCWAX7Q1P9EK2VNJO3BL7KD9","A334VWE4QGAZFR","3L1EFR8WWTRIL5MKAR1UWRHK4IC9FJ","","null","<img src=""img/food4.png"" style=""width:200px; border:14px solid green;"">","null","","","","","","","","","",""
"","image-keyboard-response","333","115277","0.0-406.0","3H8DHMCCWAX7Q1P9EK2VNJO3BL7KD9","A334VWE4QGAZFR","3L1EFR8WWTRIL5MKAR1UWRHK4IC9FJ","","115","img/food4.png","76","115","3","0","1","2","1,0.5,0,1,0.5,0,0.5,0,1","0,1,0.5,0,1,0.5,1,0.5,0","3","false",""
"","html-keyboard-response","334","115579","0.0-407.0","3H8DHMCCWAX7Q1P9EK2VNJO3BL7KD9","A334VWE4QGAZFR","3L1EFR8WWTRIL5MKAR1UWRHK4IC9FJ","","null","<img src=""img/food4.png"" style=""width:200px;border:14px solid red;"">","null","","","","","","","","","",""
"","image-keyboard-response","335","115633","0.0-409.0","3H8DHMCCWAX7Q1P9EK2VNJO3BL7KD9","A334VWE4QGAZFR","3L1EFR8WWTRIL5MKAR1UWRHK4IC9FJ","","51","img/food1.png","75","53","2","1","2","2","1,0.5,0,1,0.5,0,0.5,0,1","0,1,0.5,0,1,0.5,1,0.5,0","3","false",""
"","html-keyboard-response","336","115934","0.0-410.0","3H8DHMCCWAX7Q1P9EK2VNJO3BL7KD9","A334VWE4QGAZFR","3L1EFR8WWTRIL5MKAR1UWRHK4IC9FJ","","null","<img src=""img/food1.png"" style=""width:200px; border:14px solid green;"">","null","","","","","","","","","",""
"","image-keyboard-response","337","116002","0.0-412.0","3H8DHMCCWAX7Q1P9EK2VNJO3BL7KD9","A334VWE4QGAZFR","3L1EFR8WWTRIL5MKAR1UWRHK4IC9FJ","","67","img/food4.png","76","68","3","1","1","2","1,0.5,0,1,0.5,0,0.5,0,1","0,1,0.5,0,1,0.5,1,0.5,0","3","false",""
"","html-keyboard-response","338","116304","0.0-413.0","3H8DHMCCWAX7Q1P9EK2VNJO3BL7KD9","A334VWE4QGAZFR","3L1EFR8WWTRIL5MKAR1UWRHK4IC9FJ","","null","<img src=""img/food4.png"" style=""width:200px; border:14px solid green;"">","null","","","","","","","","","",""
"","image-keyboard-response","339","116328","0.0-415.0","3H8DHMCCWAX7Q1P9EK2VNJO3BL7KD9","A334VWE4QGAZFR","3L1EFR8WWTRIL5MKAR1UWRHK4IC9FJ","","23","img/food3.png","75","23","2","0","3","2","1,0.5,0,1,0.5,0,0.5,0,1","0,1,0.5,0,1,0.5,1,0.5,0","3","false",""
"","html-keyboard-response","340","116630","0.0-416.0","3H8DHMCCWAX7Q1P9EK2VNJO3BL7KD9","A334VWE4QGAZFR","3L1EFR8WWTRIL5MKAR1UWRHK4IC9FJ","","null","<img src=""img/food3.png"" style=""width:200px;border:14px solid red;"">","null","","","","","","","","","",""
"","image-keyboard-response","341","116641","0.0-418.0","3H8DHMCCWAX7Q1P9EK2VNJO3BL7KD9","A334VWE4QGAZFR","3L1EFR8WWTRIL5MKAR1UWRHK4IC9FJ","","10","img/food1.png","76","10","3","0","2","2","1,0.5,0,1,0.5,0,0.5,0,1","0,1,0.5,0,1,0.5,1,0.5,0","3","false",""
"","html-keyboard-response","342","116942","0.0-419.0","3H8DHMCCWAX7Q1P9EK2VNJO3BL7KD9","A334VWE4QGAZFR","3L1EFR8WWTRIL5MKAR1UWRHK4IC9FJ","","null","<img src=""img/food1.png"" style=""width:200px;border:14px solid red;"">","null","","","","","","","","","",""
"","image-keyboard-response","343","117104","0.0-421.0","3H8DHMCCWAX7Q1P9EK2VNJO3BL7KD9","A334VWE4QGAZFR","3L1EFR8WWTRIL5MKAR1UWRHK4IC9FJ","","161","img/food4.png","74","162","1","0","1","2","1,0.5,0,1,0.5,0,0.5,0,1","0,1,0.5,0,1,0.5,1,0.5,0","3","false",""
"","html-keyboard-response","344","117406","0.0-422.0","3H8DHMCCWAX7Q1P9EK2VNJO3BL7KD9","A334VWE4QGAZFR","3L1EFR8WWTRIL5MKAR1UWRHK4IC9FJ","","null","<img src=""img/food4.png"" style=""width:200px;border:14px solid red;"">","null","","","","","","","","","",""
"","image-keyboard-response","345","117441","0.0-424.0","3H8DHMCCWAX7Q1P9EK2VNJO3BL7KD9","A334VWE4QGAZFR","3L1EFR8WWTRIL5MKAR1UWRHK4IC9FJ","","35","img/food4.png","74","35","1","0","1","2","1,0.5,0,1,0.5,0,0.5,0,1","0,1,0.5,0,1,0.5,1,0.5,0","3","false",""
"","html-keyboard-response","346","117743","0.0-425.0","3H8DHMCCWAX7Q1P9EK2VNJO3BL7KD9","A334VWE4QGAZFR","3L1EFR8WWTRIL5MKAR1UWRHK4IC9FJ","","null","<img src=""img/food4.png"" style=""width:200px;border:14px solid red;"">","null","","","","","","","","","",""
"","image-keyboard-response","347","117839","0.0-427.0","3H8DHMCCWAX7Q1P9EK2VNJO3BL7KD9","A334VWE4QGAZFR","3L1EFR8WWTRIL5MKAR1UWRHK4IC9FJ","","95","img/food3.png","74","96","1","1","3","2","1,0.5,0,1,0.5,0,0.5,0,1","0,1,0.5,0,1,0.5,1,0.5,0","3","false",""
"","html-keyboard-response","348","118140","0.0-428.0","3H8DHMCCWAX7Q1P9EK2VNJO3BL7KD9","A334VWE4QGAZFR","3L1EFR8WWTRIL5MKAR1UWRHK4IC9FJ","","null","<img src=""img/food3.png"" style=""width:200px; border:14px solid green;"">","null","","","","","","","","","",""
"","image-keyboard-response","349","118317","0.0-430.0","3H8DHMCCWAX7Q1P9EK2VNJO3BL7KD9","A334VWE4QGAZFR","3L1EFR8WWTRIL5MKAR1UWRHK4IC9FJ","","176","img/food3.png","75","177","2","0","3","2","1,0.5,0,1,0.5,0,0.5,0,1","0,1,0.5,0,1,0.5,1,0.5,0","3","false",""
"","html-keyboard-response","350","118619","0.0-431.0","3H8DHMCCWAX7Q1P9EK2VNJO3BL7KD9","A334VWE4QGAZFR","3L1EFR8WWTRIL5MKAR1UWRHK4IC9FJ","","null","<img src=""img/food3.png"" style=""width:200px;border:14px solid red;"">","null","","","","","","","","","",""
"","image-keyboard-response","351","118622","0.0-433.0","3H8DHMCCWAX7Q1P9EK2VNJO3BL7KD9","A334VWE4QGAZFR","3L1EFR8WWTRIL5MKAR1UWRHK4IC9FJ","","3","img/food1.png","75","3","2","1","2","2","1,0.5,0,1,0.5,0,0.5,0,1","0,1,0.5,0,1,0.5,1,0.5,0","3","false",""
"","html-keyboard-response","352","118924","0.0-434.0","3H8DHMCCWAX7Q1P9EK2VNJO3BL7KD9","A334VWE4QGAZFR","3L1EFR8WWTRIL5MKAR1UWRHK4IC9FJ","","null","<img src=""img/food1.png"" style=""width:200px; border:14px solid green;"">","null","","","","","","","","","",""
"","image-keyboard-response","353","118930","0.0-436.0","3H8DHMCCWAX7Q1P9EK2VNJO3BL7KD9","A334VWE4QGAZFR","3L1EFR8WWTRIL5MKAR1UWRHK4IC9FJ","","5","img/food4.png","75","6","2","1","1","2","1,0.5,0,1,0.5,0,0.5,0,1","0,1,0.5,0,1,0.5,1,0.5,0","3","false",""
"","html-keyboard-response","354","119232","0.0-437.0","3H8DHMCCWAX7Q1P9EK2VNJO3BL7KD9","A334VWE4QGAZFR","3L1EFR8WWTRIL5MKAR1UWRHK4IC9FJ","","null","<img src=""img/food4.png"" style=""width:200px; border:14px solid green;"">","null","","","","","","","","","",""
"","image-keyboard-response","355","119282","0.0-439.0","3H8DHMCCWAX7Q1P9EK2VNJO3BL7KD9","A334VWE4QGAZFR","3L1EFR8WWTRIL5MKAR1UWRHK4IC9FJ","","49","img/food1.png","76","49","3","1","2","2","1,0.5,0,1,0.5,0,0.5,0,1","0,1,0.5,0,1,0.5,1,0.5,0","3","false",""
"","html-keyboard-response","356","119583","0.0-440.0","3H8DHMCCWAX7Q1P9EK2VNJO3BL7KD9","A334VWE4QGAZFR","3L1EFR8WWTRIL5MKAR1UWRHK4IC9FJ","","null","<img src=""img/food1.png"" style=""width:200px; border:14px solid green;"">","null","","","","","","","","","",""
"","image-keyboard-response","357","119716","0.0-442.0","3H8DHMCCWAX7Q1P9EK2VNJO3BL7KD9","A334VWE4QGAZFR","3L1EFR8WWTRIL5MKAR1UWRHK4IC9FJ","","132","img/food1.png","76","133","3","0","2","2","1,0.5,0,1,0.5,0,0.5,0,1","0,1,0.5,0,1,0.5,1,0.5,0","3","false",""
"","html-keyboard-response","358","120017","0.0-443.0","3H8DHMCCWAX7Q1P9EK2VNJO3BL7KD9","A334VWE4QGAZFR","3L1EFR8WWTRIL5MKAR1UWRHK4IC9FJ","","null","<img src=""img/food1.png"" style=""width:200px;border:14px solid red;"">","null","","","","","","","","","",""
"","image-keyboard-response","359","120056","0.0-445.0","3H8DHMCCWAX7Q1P9EK2VNJO3BL7KD9","A334VWE4QGAZFR","3L1EFR8WWTRIL5MKAR1UWRHK4IC9FJ","","38","img/food4.png","75","38","2","1","1","2","1,0.5,0,1,0.5,0,0.5,0,1","0,1,0.5,0,1,0.5,1,0.5,0","3","false",""
"","html-keyboard-response","360","120357","0.0-446.0","3H8DHMCCWAX7Q1P9EK2VNJO3BL7KD9","A334VWE4QGAZFR","3L1EFR8WWTRIL5MKAR1UWRHK4IC9FJ","","null","<img src=""img/food4.png"" style=""width:200px; border:14px solid green;"">","null","","","","","","","","","",""
"","image-keyboard-response","361","120421","0.0-448.0","3H8DHMCCWAX7Q1P9EK2VNJO3BL7KD9","A334VWE4QGAZFR","3L1EFR8WWTRIL5MKAR1UWRHK4IC9FJ","","63","img/food3.png","75","64","2","0","3","2","1,0.5,0,1,0.5,0,0.5,0,1","0,1,0.5,0,1,0.5,1,0.5,0","3","false",""
"","html-keyboard-response","362","120722","0.0-449.0","3H8DHMCCWAX7Q1P9EK2VNJO3BL7KD9","A334VWE4QGAZFR","3L1EFR8WWTRIL5MKAR1UWRHK4IC9FJ","","null","<img src=""img/food3.png"" style=""width:200px;border:14px solid red;"">","null","","","","","","","","","",""
"","image-keyboard-response","363","120908","0.0-451.0","3H8DHMCCWAX7Q1P9EK2VNJO3BL7KD9","A334VWE4QGAZFR","3L1EFR8WWTRIL5MKAR1UWRHK4IC9FJ","","185","img/food1.png","74","185","1","0","2","2","1,0.5,0,1,0.5,0,0.5,0,1","0,1,0.5,0,1,0.5,1,0.5,0","3","false",""
"","html-keyboard-response","364","121209","0.0-452.0","3H8DHMCCWAX7Q1P9EK2VNJO3BL7KD9","A334VWE4QGAZFR","3L1EFR8WWTRIL5MKAR1UWRHK4IC9FJ","","null","<img src=""img/food1.png"" style=""width:200px;border:14px solid red;"">","null","","","","","","","","","",""
"","instructions","365","124074","0.0-454.0","3H8DHMCCWAX7Q1P9EK2VNJO3BL7KD9","A334VWE4QGAZFR","3L1EFR8WWTRIL5MKAR1UWRHK4IC9FJ","[{""page_index"":0,""viewing_time"":2863}]","2864","","","","","","","","","","","",""
"","survey-text","366","129178","0.0-455.0","3H8DHMCCWAX7Q1P9EK2VNJO3BL7KD9","A334VWE4QGAZFR","3L1EFR8WWTRIL5MKAR1UWRHK4IC9FJ","","5096","","","","","","","","","","","","{""Q0"":""A334VWE4QGAZFR""}"
