"success","trial_type","trial_index","time_elapsed","internal_node_id","assignmentID","mturkID","hitID","view_history","rt","stimulus","key_press","reactionTime","a","r","warning","s","cond","reward_cond","reward_cond_actual","reward_matrix_idx","responses"
"true","fullscreen","0","1094667","0.0-0.0","39JEC7537VNB1KD7DSLR5MH26GTVCR","A336V7IY38Q2WN","3WRBLBQ2GRU63BU2LFOJL1G32T90GO","","","","","","","","","","","","","",""
"","instructions","1","1133267","0.0-1.0","39JEC7537VNB1KD7DSLR5MH26GTVCR","A336V7IY38Q2WN","3WRBLBQ2GRU63BU2LFOJL1G32T90GO","[{""page_index"":0,""viewing_time"":23980},{""page_index"":1,""viewing_time"":1585},{""page_index"":2,""viewing_time"":2775},{""page_index"":3,""viewing_time"":6233},{""page_index"":4,""viewing_time"":1679},{""page_index"":5,""viewing_time"":1353},{""page_index"":6,""viewing_time"":991}]","38596","","","","","","","","","","","",""
"","instructions","2","1139747","0.0-2.0","39JEC7537VNB1KD7DSLR5MH26GTVCR","A336V7IY38Q2WN","3WRBLBQ2GRU63BU2LFOJL1G32T90GO","[{""page_index"":0,""viewing_time"":5229},{""page_index"":1,""viewing_time"":1248}]","6477","","","","","","","","","","","",""
"","image-keyboard-response","3","1140479","0.0-3.0","39JEC7537VNB1KD7DSLR5MH26GTVCR","A336V7IY38Q2WN","3WRBLBQ2GRU63BU2LFOJL1G32T90GO","","730","img/food3.png","76","731","3","0","false","1","2","1,0.5,0,1,0.5,0,0.5,0,1","1,0.5,0,1,0.5,0,0.5,0,1","1",""
"","html-keyboard-response","4","1140782","0.0-4.0","39JEC7537VNB1KD7DSLR5MH26GTVCR","A336V7IY38Q2WN","3WRBLBQ2GRU63BU2LFOJL1G32T90GO","","null","<img src=""img/food3.png"" style=""width:200px;border:14px solid red;"">","null","","","","","","","","","",""
"","image-keyboard-response","5","1141791","0.0-6.0","39JEC7537VNB1KD7DSLR5MH26GTVCR","A336V7IY38Q2WN","3WRBLBQ2GRU63BU2LFOJL1G32T90GO","","","img/food3.png","","1009","-1","0","true","1","2","1,0.5,0,1,0.5,0,0.5,0,1","1,0.5,0,1,0.5,0,0.5,0,1","1",""
"","html-keyboard-response","6","1142101","0.0-7.0","39JEC7537VNB1KD7DSLR5MH26GTVCR","A336V7IY38Q2WN","3WRBLBQ2GRU63BU2LFOJL1G32T90GO","","null","<img src=""img/food3.png"" style=""width:200px;border:14px solid red;"">","null","","","","","","","","","",""
"","html-keyboard-response","7","1147323","0.0-8.0-0.0","39JEC7537VNB1KD7DSLR5MH26GTVCR","A336V7IY38Q2WN","3WRBLBQ2GRU63BU2LFOJL1G32T90GO","","","","","","","","","","","","","",""
"","image-keyboard-response","8","1147975","0.0-9.0","39JEC7537VNB1KD7DSLR5MH26GTVCR","A336V7IY38Q2WN","3WRBLBQ2GRU63BU2LFOJL1G32T90GO","","649","img/food2.png","75","650","2","0","false","3","2","1,0.5,0,1,0.5,0,0.5,0,1","1,0.5,0,1,0.5,0,0.5,0,1","1",""
"","html-keyboard-response","9","1148281","0.0-10.0","39JEC7537VNB1KD7DSLR5MH26GTVCR","A336V7IY38Q2WN","3WRBLBQ2GRU63BU2LFOJL1G32T90GO","","null","<img src=""img/food2.png"" style=""width:200px;border:14px solid red;"">","null","","","","","","","","","",""
"","image-keyboard-response","10","1148999","0.0-12.0","39JEC7537VNB1KD7DSLR5MH26GTVCR","A336V7IY38Q2WN","3WRBLBQ2GRU63BU2LFOJL1G32T90GO","","715","img/food1.png","74","716","1","1","false","2","2","1,0.5,0,1,0.5,0,0.5,0,1","1,0.5,0,1,0.5,0,0.5,0,1","1",""
"","html-keyboard-response","11","1149301","0.0-13.0","39JEC7537VNB1KD7DSLR5MH26GTVCR","A336V7IY38Q2WN","3WRBLBQ2GRU63BU2LFOJL1G32T90GO","","null","<img src=""img/food1.png"" style=""width:200px; border:14px solid green;"">","null","","","","","","","","","",""
"","image-keyboard-response","12","1149655","0.0-15.0","39JEC7537VNB1KD7DSLR5MH26GTVCR","A336V7IY38Q2WN","3WRBLBQ2GRU63BU2LFOJL1G32T90GO","","353","img/food1.png","74","353","1","1","false","2","2","1,0.5,0,1,0.5,0,0.5,0,1","1,0.5,0,1,0.5,0,0.5,0,1","1",""
"","html-keyboard-response","13","1149961","0.0-16.0","39JEC7537VNB1KD7DSLR5MH26GTVCR","A336V7IY38Q2WN","3WRBLBQ2GRU63BU2LFOJL1G32T90GO","","null","<img src=""img/food1.png"" style=""width:200px; border:14px solid green;"">","null","","","","","","","","","",""
"","image-keyboard-response","14","1150527","0.0-18.0","39JEC7537VNB1KD7DSLR5MH26GTVCR","A336V7IY38Q2WN","3WRBLBQ2GRU63BU2LFOJL1G32T90GO","","564","img/food2.png","75","565","2","0","false","3","2","1,0.5,0,1,0.5,0,0.5,0,1","1,0.5,0,1,0.5,0,0.5,0,1","1",""
"","html-keyboard-response","15","1150832","0.0-19.0","39JEC7537VNB1KD7DSLR5MH26GTVCR","A336V7IY38Q2WN","3WRBLBQ2GRU63BU2LFOJL1G32T90GO","","null","<img src=""img/food2.png"" style=""width:200px;border:14px solid red;"">","null","","","","","","","","","",""
"","image-keyboard-response","16","1151183","0.0-21.0","39JEC7537VNB1KD7DSLR5MH26GTVCR","A336V7IY38Q2WN","3WRBLBQ2GRU63BU2LFOJL1G32T90GO","","351","img/food2.png","75","351","2","0","false","3","2","1,0.5,0,1,0.5,0,0.5,0,1","1,0.5,0,1,0.5,0,0.5,0,1","1",""
"","html-keyboard-response","17","1151491","0.0-22.0","39JEC7537VNB1KD7DSLR5MH26GTVCR","A336V7IY38Q2WN","3WRBLBQ2GRU63BU2LFOJL1G32T90GO","","null","<img src=""img/food2.png"" style=""width:200px;border:14px solid red;"">","null","","","","","","","","","",""
"","image-keyboard-response","18","1151823","0.0-24.0","39JEC7537VNB1KD7DSLR5MH26GTVCR","A336V7IY38Q2WN","3WRBLBQ2GRU63BU2LFOJL1G32T90GO","","329","img/food2.png","75","331","2","0","false","3","2","1,0.5,0,1,0.5,0,0.5,0,1","1,0.5,0,1,0.5,0,0.5,0,1","1",""
"","html-keyboard-response","19","1152131","0.0-25.0","39JEC7537VNB1KD7DSLR5MH26GTVCR","A336V7IY38Q2WN","3WRBLBQ2GRU63BU2LFOJL1G32T90GO","","null","<img src=""img/food2.png"" style=""width:200px;border:14px solid red;"">","null","","","","","","","","","",""
"","image-keyboard-response","20","1152903","0.0-27.0","39JEC7537VNB1KD7DSLR5MH26GTVCR","A336V7IY38Q2WN","3WRBLBQ2GRU63BU2LFOJL1G32T90GO","","770","img/food3.png","76","771","3","0","false","1","2","1,0.5,0,1,0.5,0,0.5,0,1","1,0.5,0,1,0.5,0,0.5,0,1","1",""
"","html-keyboard-response","21","1153211","0.0-28.0","39JEC7537VNB1KD7DSLR5MH26GTVCR","A336V7IY38Q2WN","3WRBLBQ2GRU63BU2LFOJL1G32T90GO","","null","<img src=""img/food3.png"" style=""width:200px;border:14px solid red;"">","null","","","","","","","","","",""
"","image-keyboard-response","22","1153303","0.0-30.0","39JEC7537VNB1KD7DSLR5MH26GTVCR","A336V7IY38Q2WN","3WRBLBQ2GRU63BU2LFOJL1G32T90GO","","91","img/food3.png","76","92","3","0","false","1","2","1,0.5,0,1,0.5,0,0.5,0,1","1,0.5,0,1,0.5,0,0.5,0,1","1",""
"","html-keyboard-response","23","1153612","0.0-31.0","39JEC7537VNB1KD7DSLR5MH26GTVCR","A336V7IY38Q2WN","3WRBLBQ2GRU63BU2LFOJL1G32T90GO","","null","<img src=""img/food3.png"" style=""width:200px;border:14px solid red;"">","null","","","","","","","","","",""
"","image-keyboard-response","24","1154320","0.0-33.0","39JEC7537VNB1KD7DSLR5MH26GTVCR","A336V7IY38Q2WN","3WRBLBQ2GRU63BU2LFOJL1G32T90GO","","706","img/food2.png","75","708","2","0","false","3","2","1,0.5,0,1,0.5,0,0.5,0,1","1,0.5,0,1,0.5,0,0.5,0,1","1",""
"","html-keyboard-response","25","1154621","0.0-34.0","39JEC7537VNB1KD7DSLR5MH26GTVCR","A336V7IY38Q2WN","3WRBLBQ2GRU63BU2LFOJL1G32T90GO","","null","<img src=""img/food2.png"" style=""width:200px;border:14px solid red;"">","null","","","","","","","","","",""
"","image-keyboard-response","26","1155271","0.0-36.0","39JEC7537VNB1KD7DSLR5MH26GTVCR","A336V7IY38Q2WN","3WRBLBQ2GRU63BU2LFOJL1G32T90GO","","648","img/food3.png","75","649","2","1","false","1","2","1,0.5,0,1,0.5,0,0.5,0,1","1,0.5,0,1,0.5,0,0.5,0,1","1",""
"","html-keyboard-response","27","1155571","0.0-37.0","39JEC7537VNB1KD7DSLR5MH26GTVCR","A336V7IY38Q2WN","3WRBLBQ2GRU63BU2LFOJL1G32T90GO","","null","<img src=""img/food3.png"" style=""width:200px; border:14px solid green;"">","null","","","","","","","","","",""
"","image-keyboard-response","28","1156214","0.0-39.0","39JEC7537VNB1KD7DSLR5MH26GTVCR","A336V7IY38Q2WN","3WRBLBQ2GRU63BU2LFOJL1G32T90GO","","641","img/food3.png","76","642","3","0","false","1","2","1,0.5,0,1,0.5,0,0.5,0,1","1,0.5,0,1,0.5,0,0.5,0,1","1",""
"","html-keyboard-response","29","1156521","0.0-40.0","39JEC7537VNB1KD7DSLR5MH26GTVCR","A336V7IY38Q2WN","3WRBLBQ2GRU63BU2LFOJL1G32T90GO","","null","<img src=""img/food3.png"" style=""width:200px;border:14px solid red;"">","null","","","","","","","","","",""
"","image-keyboard-response","30","1157531","0.0-42.0","39JEC7537VNB1KD7DSLR5MH26GTVCR","A336V7IY38Q2WN","3WRBLBQ2GRU63BU2LFOJL1G32T90GO","","","img/food2.png","","1010","-1","0","true","3","2","1,0.5,0,1,0.5,0,0.5,0,1","1,0.5,0,1,0.5,0,0.5,0,1","1",""
"","html-keyboard-response","31","1157841","0.0-43.0","39JEC7537VNB1KD7DSLR5MH26GTVCR","A336V7IY38Q2WN","3WRBLBQ2GRU63BU2LFOJL1G32T90GO","","null","<img src=""img/food2.png"" style=""width:200px;border:14px solid red;"">","null","","","","","","","","","",""
"","html-keyboard-response","32","1162555","0.0-44.0-0.0","39JEC7537VNB1KD7DSLR5MH26GTVCR","A336V7IY38Q2WN","3WRBLBQ2GRU63BU2LFOJL1G32T90GO","","","","","","","","","","","","","",""
"","image-keyboard-response","33","1163094","0.0-45.0","39JEC7537VNB1KD7DSLR5MH26GTVCR","A336V7IY38Q2WN","3WRBLBQ2GRU63BU2LFOJL1G32T90GO","","536","img/food3.png","76","539","3","0","false","1","2","1,0.5,0,1,0.5,0,0.5,0,1","1,0.5,0,1,0.5,0,0.5,0,1","1",""
"","html-keyboard-response","34","1163401","0.0-46.0","39JEC7537VNB1KD7DSLR5MH26GTVCR","A336V7IY38Q2WN","3WRBLBQ2GRU63BU2LFOJL1G32T90GO","","null","<img src=""img/food3.png"" style=""width:200px;border:14px solid red;"">","null","","","","","","","","","",""
"","image-keyboard-response","35","1164055","0.0-48.0","39JEC7537VNB1KD7DSLR5MH26GTVCR","A336V7IY38Q2WN","3WRBLBQ2GRU63BU2LFOJL1G32T90GO","","652","img/food2.png","75","653","2","0","false","3","2","1,0.5,0,1,0.5,0,0.5,0,1","1,0.5,0,1,0.5,0,0.5,0,1","1",""
"","html-keyboard-response","36","1164361","0.0-49.0","39JEC7537VNB1KD7DSLR5MH26GTVCR","A336V7IY38Q2WN","3WRBLBQ2GRU63BU2LFOJL1G32T90GO","","null","<img src=""img/food2.png"" style=""width:200px;border:14px solid red;"">","null","","","","","","","","","",""
"","image-keyboard-response","37","1164928","0.0-51.0","39JEC7537VNB1KD7DSLR5MH26GTVCR","A336V7IY38Q2WN","3WRBLBQ2GRU63BU2LFOJL1G32T90GO","","565","img/food1.png","74","567","1","1","false","2","2","1,0.5,0,1,0.5,0,0.5,0,1","1,0.5,0,1,0.5,0,0.5,0,1","1",""
"","html-keyboard-response","38","1165231","0.0-52.0","39JEC7537VNB1KD7DSLR5MH26GTVCR","A336V7IY38Q2WN","3WRBLBQ2GRU63BU2LFOJL1G32T90GO","","null","<img src=""img/food1.png"" style=""width:200px; border:14px solid green;"">","null","","","","","","","","","",""
"","image-keyboard-response","39","1165614","0.0-54.0","39JEC7537VNB1KD7DSLR5MH26GTVCR","A336V7IY38Q2WN","3WRBLBQ2GRU63BU2LFOJL1G32T90GO","","382","img/food1.png","74","384","1","1","false","2","2","1,0.5,0,1,0.5,0,0.5,0,1","1,0.5,0,1,0.5,0,0.5,0,1","1",""
"","html-keyboard-response","40","1165921","0.0-55.0","39JEC7537VNB1KD7DSLR5MH26GTVCR","A336V7IY38Q2WN","3WRBLBQ2GRU63BU2LFOJL1G32T90GO","","null","<img src=""img/food1.png"" style=""width:200px; border:14px solid green;"">","null","","","","","","","","","",""
"","image-keyboard-response","41","1166367","0.0-57.0","39JEC7537VNB1KD7DSLR5MH26GTVCR","A336V7IY38Q2WN","3WRBLBQ2GRU63BU2LFOJL1G32T90GO","","444","img/food1.png","74","445","1","1","false","2","2","1,0.5,0,1,0.5,0,0.5,0,1","1,0.5,0,1,0.5,0,0.5,0,1","1",""
"","html-keyboard-response","42","1166670","0.0-58.0","39JEC7537VNB1KD7DSLR5MH26GTVCR","A336V7IY38Q2WN","3WRBLBQ2GRU63BU2LFOJL1G32T90GO","","null","<img src=""img/food1.png"" style=""width:200px; border:14px solid green;"">","null","","","","","","","","","",""
"","image-keyboard-response","43","1167358","0.0-60.0","39JEC7537VNB1KD7DSLR5MH26GTVCR","A336V7IY38Q2WN","3WRBLBQ2GRU63BU2LFOJL1G32T90GO","","687","img/food3.png","76","688","3","0","false","1","2","1,0.5,0,1,0.5,0,0.5,0,1","1,0.5,0,1,0.5,0,0.5,0,1","1",""
"","html-keyboard-response","44","1167662","0.0-61.0","39JEC7537VNB1KD7DSLR5MH26GTVCR","A336V7IY38Q2WN","3WRBLBQ2GRU63BU2LFOJL1G32T90GO","","null","<img src=""img/food3.png"" style=""width:200px;border:14px solid red;"">","null","","","","","","","","","",""
"","image-keyboard-response","45","1168183","0.0-63.0","39JEC7537VNB1KD7DSLR5MH26GTVCR","A336V7IY38Q2WN","3WRBLBQ2GRU63BU2LFOJL1G32T90GO","","519","img/food2.png","75","520","2","0","false","3","2","1,0.5,0,1,0.5,0,0.5,0,1","1,0.5,0,1,0.5,0,0.5,0,1","1",""
"","html-keyboard-response","46","1168491","0.0-64.0","39JEC7537VNB1KD7DSLR5MH26GTVCR","A336V7IY38Q2WN","3WRBLBQ2GRU63BU2LFOJL1G32T90GO","","null","<img src=""img/food2.png"" style=""width:200px;border:14px solid red;"">","null","","","","","","","","","",""
"","image-keyboard-response","47","1168831","0.0-66.0","39JEC7537VNB1KD7DSLR5MH26GTVCR","A336V7IY38Q2WN","3WRBLBQ2GRU63BU2LFOJL1G32T90GO","","338","img/food2.png","75","339","2","0","false","3","2","1,0.5,0,1,0.5,0,0.5,0,1","1,0.5,0,1,0.5,0,0.5,0,1","1",""
"","html-keyboard-response","48","1169141","0.0-67.0","39JEC7537VNB1KD7DSLR5MH26GTVCR","A336V7IY38Q2WN","3WRBLBQ2GRU63BU2LFOJL1G32T90GO","","null","<img src=""img/food2.png"" style=""width:200px;border:14px solid red;"">","null","","","","","","","","","",""
"","image-keyboard-response","49","1169623","0.0-69.0","39JEC7537VNB1KD7DSLR5MH26GTVCR","A336V7IY38Q2WN","3WRBLBQ2GRU63BU2LFOJL1G32T90GO","","480","img/food3.png","76","481","3","0","false","1","2","1,0.5,0,1,0.5,0,0.5,0,1","1,0.5,0,1,0.5,0,0.5,0,1","1",""
"","html-keyboard-response","50","1169931","0.0-70.0","39JEC7537VNB1KD7DSLR5MH26GTVCR","A336V7IY38Q2WN","3WRBLBQ2GRU63BU2LFOJL1G32T90GO","","null","<img src=""img/food3.png"" style=""width:200px;border:14px solid red;"">","null","","","","","","","","","",""
"","image-keyboard-response","51","1170262","0.0-72.0","39JEC7537VNB1KD7DSLR5MH26GTVCR","A336V7IY38Q2WN","3WRBLBQ2GRU63BU2LFOJL1G32T90GO","","330","img/food3.png","76","332","3","0","false","1","2","1,0.5,0,1,0.5,0,0.5,0,1","1,0.5,0,1,0.5,0,0.5,0,1","1",""
"","html-keyboard-response","52","1170570","0.0-73.0","39JEC7537VNB1KD7DSLR5MH26GTVCR","A336V7IY38Q2WN","3WRBLBQ2GRU63BU2LFOJL1G32T90GO","","null","<img src=""img/food3.png"" style=""width:200px;border:14px solid red;"">","null","","","","","","","","","",""
"","image-keyboard-response","53","1171102","0.0-75.0","39JEC7537VNB1KD7DSLR5MH26GTVCR","A336V7IY38Q2WN","3WRBLBQ2GRU63BU2LFOJL1G32T90GO","","530","img/food2.png","75","530","2","0","false","3","2","1,0.5,0,1,0.5,0,0.5,0,1","1,0.5,0,1,0.5,0,0.5,0,1","1",""
"","html-keyboard-response","54","1171411","0.0-76.0","39JEC7537VNB1KD7DSLR5MH26GTVCR","A336V7IY38Q2WN","3WRBLBQ2GRU63BU2LFOJL1G32T90GO","","null","<img src=""img/food2.png"" style=""width:200px;border:14px solid red;"">","null","","","","","","","","","",""
"","image-keyboard-response","55","1171726","0.0-78.0","39JEC7537VNB1KD7DSLR5MH26GTVCR","A336V7IY38Q2WN","3WRBLBQ2GRU63BU2LFOJL1G32T90GO","","314","img/food2.png","75","314","2","0","false","3","2","1,0.5,0,1,0.5,0,0.5,0,1","1,0.5,0,1,0.5,0,0.5,0,1","1",""
"","html-keyboard-response","56","1172030","0.0-79.0","39JEC7537VNB1KD7DSLR5MH26GTVCR","A336V7IY38Q2WN","3WRBLBQ2GRU63BU2LFOJL1G32T90GO","","null","<img src=""img/food2.png"" style=""width:200px;border:14px solid red;"">","null","","","","","","","","","",""
"","image-keyboard-response","57","1172502","0.0-81.0","39JEC7537VNB1KD7DSLR5MH26GTVCR","A336V7IY38Q2WN","3WRBLBQ2GRU63BU2LFOJL1G32T90GO","","469","img/food3.png","76","471","3","0","false","1","2","1,0.5,0,1,0.5,0,0.5,0,1","1,0.5,0,1,0.5,0,0.5,0,1","1",""
"","html-keyboard-response","58","1172810","0.0-82.0","39JEC7537VNB1KD7DSLR5MH26GTVCR","A336V7IY38Q2WN","3WRBLBQ2GRU63BU2LFOJL1G32T90GO","","null","<img src=""img/food3.png"" style=""width:200px;border:14px solid red;"">","null","","","","","","","","","",""
"","image-keyboard-response","59","1173391","0.0-84.0","39JEC7537VNB1KD7DSLR5MH26GTVCR","A336V7IY38Q2WN","3WRBLBQ2GRU63BU2LFOJL1G32T90GO","","578","img/food1.png","74","580","1","1","false","2","2","1,0.5,0,1,0.5,0,0.5,0,1","1,0.5,0,1,0.5,0,0.5,0,1","1",""
"","html-keyboard-response","60","1173691","0.0-85.0","39JEC7537VNB1KD7DSLR5MH26GTVCR","A336V7IY38Q2WN","3WRBLBQ2GRU63BU2LFOJL1G32T90GO","","null","<img src=""img/food1.png"" style=""width:200px; border:14px solid green;"">","null","","","","","","","","","",""
"","image-keyboard-response","61","1174198","0.0-87.0","39JEC7537VNB1KD7DSLR5MH26GTVCR","A336V7IY38Q2WN","3WRBLBQ2GRU63BU2LFOJL1G32T90GO","","506","img/food2.png","76","507","3","1","false","3","2","1,0.5,0,1,0.5,0,0.5,0,1","1,0.5,0,1,0.5,0,0.5,0,1","1",""
"","html-keyboard-response","62","1174500","0.0-88.0","39JEC7537VNB1KD7DSLR5MH26GTVCR","A336V7IY38Q2WN","3WRBLBQ2GRU63BU2LFOJL1G32T90GO","","null","<img src=""img/food2.png"" style=""width:200px; border:14px solid green;"">","null","","","","","","","","","",""
"","image-keyboard-response","63","1175030","0.0-90.0","39JEC7537VNB1KD7DSLR5MH26GTVCR","A336V7IY38Q2WN","3WRBLBQ2GRU63BU2LFOJL1G32T90GO","","528","img/food1.png","76","528","3","0","false","2","2","1,0.5,0,1,0.5,0,0.5,0,1","1,0.5,0,1,0.5,0,0.5,0,1","1",""
"","html-keyboard-response","64","1175331","0.0-91.0","39JEC7537VNB1KD7DSLR5MH26GTVCR","A336V7IY38Q2WN","3WRBLBQ2GRU63BU2LFOJL1G32T90GO","","null","<img src=""img/food1.png"" style=""width:200px;border:14px solid red;"">","null","","","","","","","","","",""
"","image-keyboard-response","65","1175878","0.0-93.0","39JEC7537VNB1KD7DSLR5MH26GTVCR","A336V7IY38Q2WN","3WRBLBQ2GRU63BU2LFOJL1G32T90GO","","546","img/food2.png","76","548","3","1","false","3","2","1,0.5,0,1,0.5,0,0.5,0,1","1,0.5,0,1,0.5,0,0.5,0,1","1",""
"","html-keyboard-response","66","1176181","0.0-94.0","39JEC7537VNB1KD7DSLR5MH26GTVCR","A336V7IY38Q2WN","3WRBLBQ2GRU63BU2LFOJL1G32T90GO","","null","<img src=""img/food2.png"" style=""width:200px; border:14px solid green;"">","null","","","","","","","","","",""
"","image-keyboard-response","67","1176582","0.0-96.0","39JEC7537VNB1KD7DSLR5MH26GTVCR","A336V7IY38Q2WN","3WRBLBQ2GRU63BU2LFOJL1G32T90GO","","401","img/food2.png","75","402","2","0","false","3","2","1,0.5,0,1,0.5,0,0.5,0,1","1,0.5,0,1,0.5,0,0.5,0,1","1",""
"","html-keyboard-response","68","1176890","0.0-97.0","39JEC7537VNB1KD7DSLR5MH26GTVCR","A336V7IY38Q2WN","3WRBLBQ2GRU63BU2LFOJL1G32T90GO","","null","<img src=""img/food2.png"" style=""width:200px;border:14px solid red;"">","null","","","","","","","","","",""
"","image-keyboard-response","69","1177694","0.0-99.0","39JEC7537VNB1KD7DSLR5MH26GTVCR","A336V7IY38Q2WN","3WRBLBQ2GRU63BU2LFOJL1G32T90GO","","803","img/food3.png","76","803","3","0","false","1","2","1,0.5,0,1,0.5,0,0.5,0,1","1,0.5,0,1,0.5,0,0.5,0,1","1",""
"","html-keyboard-response","70","1178001","0.0-100.0","39JEC7537VNB1KD7DSLR5MH26GTVCR","A336V7IY38Q2WN","3WRBLBQ2GRU63BU2LFOJL1G32T90GO","","null","<img src=""img/food3.png"" style=""width:200px;border:14px solid red;"">","null","","","","","","","","","",""
"","image-keyboard-response","71","1178278","0.0-102.0","39JEC7537VNB1KD7DSLR5MH26GTVCR","A336V7IY38Q2WN","3WRBLBQ2GRU63BU2LFOJL1G32T90GO","","275","img/food1.png","76","275","3","0","false","2","2","1,0.5,0,1,0.5,0,0.5,0,1","1,0.5,0,1,0.5,0,0.5,0,1","1",""
"","html-keyboard-response","72","1178582","0.0-103.0","39JEC7537VNB1KD7DSLR5MH26GTVCR","A336V7IY38Q2WN","3WRBLBQ2GRU63BU2LFOJL1G32T90GO","","null","<img src=""img/food1.png"" style=""width:200px;border:14px solid red;"">","null","","","","","","","","","",""
"","image-keyboard-response","73","1178638","0.0-105.0","39JEC7537VNB1KD7DSLR5MH26GTVCR","A336V7IY38Q2WN","3WRBLBQ2GRU63BU2LFOJL1G32T90GO","","55","img/food3.png","74","57","1","1","false","1","2","1,0.5,0,1,0.5,0,0.5,0,1","1,0.5,0,1,0.5,0,0.5,0,1","1",""
"","html-keyboard-response","74","1178941","0.0-106.0","39JEC7537VNB1KD7DSLR5MH26GTVCR","A336V7IY38Q2WN","3WRBLBQ2GRU63BU2LFOJL1G32T90GO","","null","<img src=""img/food3.png"" style=""width:200px; border:14px solid green;"">","null","","","","","","","","","",""
"","image-keyboard-response","75","1179310","0.0-108.0","39JEC7537VNB1KD7DSLR5MH26GTVCR","A336V7IY38Q2WN","3WRBLBQ2GRU63BU2LFOJL1G32T90GO","","368","img/food2.png","76","368","3","1","false","3","2","1,0.5,0,1,0.5,0,0.5,0,1","1,0.5,0,1,0.5,0,0.5,0,1","1",""
"","html-keyboard-response","76","1179611","0.0-109.0","39JEC7537VNB1KD7DSLR5MH26GTVCR","A336V7IY38Q2WN","3WRBLBQ2GRU63BU2LFOJL1G32T90GO","","null","<img src=""img/food2.png"" style=""width:200px; border:14px solid green;"">","null","","","","","","","","","",""
"","image-keyboard-response","77","1180094","0.0-111.0","39JEC7537VNB1KD7DSLR5MH26GTVCR","A336V7IY38Q2WN","3WRBLBQ2GRU63BU2LFOJL1G32T90GO","","481","img/food2.png","75","482","2","0","false","3","2","1,0.5,0,1,0.5,0,0.5,0,1","1,0.5,0,1,0.5,0,0.5,0,1","1",""
"","html-keyboard-response","78","1180402","0.0-112.0","39JEC7537VNB1KD7DSLR5MH26GTVCR","A336V7IY38Q2WN","3WRBLBQ2GRU63BU2LFOJL1G32T90GO","","null","<img src=""img/food2.png"" style=""width:200px;border:14px solid red;"">","null","","","","","","","","","",""
"","image-keyboard-response","79","1180607","0.0-114.0","39JEC7537VNB1KD7DSLR5MH26GTVCR","A336V7IY38Q2WN","3WRBLBQ2GRU63BU2LFOJL1G32T90GO","","204","img/food2.png","75","204","2","0","false","3","2","1,0.5,0,1,0.5,0,0.5,0,1","1,0.5,0,1,0.5,0,0.5,0,1","1",""
"","html-keyboard-response","80","1180912","0.0-115.0","39JEC7537VNB1KD7DSLR5MH26GTVCR","A336V7IY38Q2WN","3WRBLBQ2GRU63BU2LFOJL1G32T90GO","","null","<img src=""img/food2.png"" style=""width:200px;border:14px solid red;"">","null","","","","","","","","","",""
"","image-keyboard-response","81","1181318","0.0-117.0","39JEC7537VNB1KD7DSLR5MH26GTVCR","A336V7IY38Q2WN","3WRBLBQ2GRU63BU2LFOJL1G32T90GO","","405","img/food1.png","75","405","2","1","false","2","2","1,0.5,0,1,0.5,0,0.5,0,1","1,0.5,0,1,0.5,0,0.5,0,1","1",""
"","html-keyboard-response","82","1181622","0.0-118.0","39JEC7537VNB1KD7DSLR5MH26GTVCR","A336V7IY38Q2WN","3WRBLBQ2GRU63BU2LFOJL1G32T90GO","","null","<img src=""img/food1.png"" style=""width:200px; border:14px solid green;"">","null","","","","","","","","","",""
"","image-keyboard-response","83","1182086","0.0-120.0","39JEC7537VNB1KD7DSLR5MH26GTVCR","A336V7IY38Q2WN","3WRBLBQ2GRU63BU2LFOJL1G32T90GO","","463","img/food2.png","74","465","1","1","false","3","2","1,0.5,0,1,0.5,0,0.5,0,1","1,0.5,0,1,0.5,0,0.5,0,1","1",""
"","html-keyboard-response","84","1182392","0.0-121.0","39JEC7537VNB1KD7DSLR5MH26GTVCR","A336V7IY38Q2WN","3WRBLBQ2GRU63BU2LFOJL1G32T90GO","","null","<img src=""img/food2.png"" style=""width:200px; border:14px solid green;"">","null","","","","","","","","","",""
"","image-keyboard-response","85","1182446","0.0-123.0","39JEC7537VNB1KD7DSLR5MH26GTVCR","A336V7IY38Q2WN","3WRBLBQ2GRU63BU2LFOJL1G32T90GO","","54","img/food3.png","75","54","2","1","false","1","2","1,0.5,0,1,0.5,0,0.5,0,1","1,0.5,0,1,0.5,0,0.5,0,1","1",""
"","html-keyboard-response","86","1182752","0.0-124.0","39JEC7537VNB1KD7DSLR5MH26GTVCR","A336V7IY38Q2WN","3WRBLBQ2GRU63BU2LFOJL1G32T90GO","","null","<img src=""img/food3.png"" style=""width:200px; border:14px solid green;"">","null","","","","","","","","","",""
"","image-keyboard-response","87","1183062","0.0-126.0","39JEC7537VNB1KD7DSLR5MH26GTVCR","A336V7IY38Q2WN","3WRBLBQ2GRU63BU2LFOJL1G32T90GO","","309","img/food2.png","76","310","3","1","false","3","2","1,0.5,0,1,0.5,0,0.5,0,1","1,0.5,0,1,0.5,0,0.5,0,1","1",""
"","html-keyboard-response","88","1183371","0.0-127.0","39JEC7537VNB1KD7DSLR5MH26GTVCR","A336V7IY38Q2WN","3WRBLBQ2GRU63BU2LFOJL1G32T90GO","","null","<img src=""img/food2.png"" style=""width:200px; border:14px solid green;"">","null","","","","","","","","","",""
"","image-keyboard-response","89","1184190","0.0-129.0","39JEC7537VNB1KD7DSLR5MH26GTVCR","A336V7IY38Q2WN","3WRBLBQ2GRU63BU2LFOJL1G32T90GO","","817","img/food1.png","74","819","1","1","false","2","2","1,0.5,0,1,0.5,0,0.5,0,1","1,0.5,0,1,0.5,0,0.5,0,1","1",""
"","html-keyboard-response","90","1184491","0.0-130.0","39JEC7537VNB1KD7DSLR5MH26GTVCR","A336V7IY38Q2WN","3WRBLBQ2GRU63BU2LFOJL1G32T90GO","","null","<img src=""img/food1.png"" style=""width:200px; border:14px solid green;"">","null","","","","","","","","","",""
"","image-keyboard-response","91","1184805","0.0-132.0","39JEC7537VNB1KD7DSLR5MH26GTVCR","A336V7IY38Q2WN","3WRBLBQ2GRU63BU2LFOJL1G32T90GO","","313","img/food1.png","74","313","1","1","false","2","2","1,0.5,0,1,0.5,0,0.5,0,1","1,0.5,0,1,0.5,0,0.5,0,1","1",""
"","html-keyboard-response","92","1185112","0.0-133.0","39JEC7537VNB1KD7DSLR5MH26GTVCR","A336V7IY38Q2WN","3WRBLBQ2GRU63BU2LFOJL1G32T90GO","","null","<img src=""img/food1.png"" style=""width:200px; border:14px solid green;"">","null","","","","","","","","","",""
"","image-keyboard-response","93","1185702","0.0-135.0","39JEC7537VNB1KD7DSLR5MH26GTVCR","A336V7IY38Q2WN","3WRBLBQ2GRU63BU2LFOJL1G32T90GO","","590","img/food2.png","75","590","2","0","false","3","2","1,0.5,0,1,0.5,0,0.5,0,1","1,0.5,0,1,0.5,0,0.5,0,1","1",""
"","html-keyboard-response","94","1186011","0.0-136.0","39JEC7537VNB1KD7DSLR5MH26GTVCR","A336V7IY38Q2WN","3WRBLBQ2GRU63BU2LFOJL1G32T90GO","","null","<img src=""img/food2.png"" style=""width:200px;border:14px solid red;"">","null","","","","","","","","","",""
"","image-keyboard-response","95","1186558","0.0-138.0","39JEC7537VNB1KD7DSLR5MH26GTVCR","A336V7IY38Q2WN","3WRBLBQ2GRU63BU2LFOJL1G32T90GO","","546","img/food3.png","76","547","3","0","false","1","2","1,0.5,0,1,0.5,0,0.5,0,1","1,0.5,0,1,0.5,0,0.5,0,1","1",""
"","html-keyboard-response","96","1186862","0.0-139.0","39JEC7537VNB1KD7DSLR5MH26GTVCR","A336V7IY38Q2WN","3WRBLBQ2GRU63BU2LFOJL1G32T90GO","","null","<img src=""img/food3.png"" style=""width:200px;border:14px solid red;"">","null","","","","","","","","","",""
"","image-keyboard-response","97","1187238","0.0-141.0","39JEC7537VNB1KD7DSLR5MH26GTVCR","A336V7IY38Q2WN","3WRBLBQ2GRU63BU2LFOJL1G32T90GO","","375","img/food3.png","76","375","3","0","false","1","2","1,0.5,0,1,0.5,0,0.5,0,1","1,0.5,0,1,0.5,0,0.5,0,1","1",""
"","html-keyboard-response","98","1187541","0.0-142.0","39JEC7537VNB1KD7DSLR5MH26GTVCR","A336V7IY38Q2WN","3WRBLBQ2GRU63BU2LFOJL1G32T90GO","","null","<img src=""img/food3.png"" style=""width:200px;border:14px solid red;"">","null","","","","","","","","","",""
"","image-keyboard-response","99","1187870","0.0-144.0","39JEC7537VNB1KD7DSLR5MH26GTVCR","A336V7IY38Q2WN","3WRBLBQ2GRU63BU2LFOJL1G32T90GO","","326","img/food3.png","76","328","3","0","false","1","2","1,0.5,0,1,0.5,0,0.5,0,1","1,0.5,0,1,0.5,0,0.5,0,1","1",""
"","html-keyboard-response","100","1188171","0.0-145.0","39JEC7537VNB1KD7DSLR5MH26GTVCR","A336V7IY38Q2WN","3WRBLBQ2GRU63BU2LFOJL1G32T90GO","","null","<img src=""img/food3.png"" style=""width:200px;border:14px solid red;"">","null","","","","","","","","","",""
"","image-keyboard-response","101","1188766","0.0-147.0","39JEC7537VNB1KD7DSLR5MH26GTVCR","A336V7IY38Q2WN","3WRBLBQ2GRU63BU2LFOJL1G32T90GO","","593","img/food2.png","75","593","2","0","false","3","2","1,0.5,0,1,0.5,0,0.5,0,1","1,0.5,0,1,0.5,0,0.5,0,1","1",""
"","html-keyboard-response","102","1189072","0.0-148.0","39JEC7537VNB1KD7DSLR5MH26GTVCR","A336V7IY38Q2WN","3WRBLBQ2GRU63BU2LFOJL1G32T90GO","","null","<img src=""img/food2.png"" style=""width:200px;border:14px solid red;"">","null","","","","","","","","","",""
"","image-keyboard-response","103","1189133","0.0-150.0","39JEC7537VNB1KD7DSLR5MH26GTVCR","A336V7IY38Q2WN","3WRBLBQ2GRU63BU2LFOJL1G32T90GO","","61","img/food1.png","75","62","2","0","false","2","2","1,0.5,0,1,0.5,0,0.5,0,1","1,0.5,0,1,0.5,0,0.5,0,1","1",""
"","html-keyboard-response","104","1189442","0.0-151.0","39JEC7537VNB1KD7DSLR5MH26GTVCR","A336V7IY38Q2WN","3WRBLBQ2GRU63BU2LFOJL1G32T90GO","","null","<img src=""img/food1.png"" style=""width:200px;border:14px solid red;"">","null","","","","","","","","","",""
"","image-keyboard-response","105","1189749","0.0-153.0","39JEC7537VNB1KD7DSLR5MH26GTVCR","A336V7IY38Q2WN","3WRBLBQ2GRU63BU2LFOJL1G32T90GO","","306","img/food1.png","74","307","1","1","false","2","2","1,0.5,0,1,0.5,0,0.5,0,1","1,0.5,0,1,0.5,0,0.5,0,1","1",""
"","html-keyboard-response","106","1190052","0.0-154.0","39JEC7537VNB1KD7DSLR5MH26GTVCR","A336V7IY38Q2WN","3WRBLBQ2GRU63BU2LFOJL1G32T90GO","","null","<img src=""img/food1.png"" style=""width:200px; border:14px solid green;"">","null","","","","","","","","","",""
"","image-keyboard-response","107","1190381","0.0-156.0","39JEC7537VNB1KD7DSLR5MH26GTVCR","A336V7IY38Q2WN","3WRBLBQ2GRU63BU2LFOJL1G32T90GO","","328","img/food1.png","74","330","1","1","false","2","2","1,0.5,0,1,0.5,0,0.5,0,1","1,0.5,0,1,0.5,0,0.5,0,1","1",""
"","html-keyboard-response","108","1190692","0.0-157.0","39JEC7537VNB1KD7DSLR5MH26GTVCR","A336V7IY38Q2WN","3WRBLBQ2GRU63BU2LFOJL1G32T90GO","","null","<img src=""img/food1.png"" style=""width:200px; border:14px solid green;"">","null","","","","","","","","","",""
"","image-keyboard-response","109","1191205","0.0-159.0","39JEC7537VNB1KD7DSLR5MH26GTVCR","A336V7IY38Q2WN","3WRBLBQ2GRU63BU2LFOJL1G32T90GO","","514","img/food2.png","75","514","2","0","false","3","2","1,0.5,0,1,0.5,0,0.5,0,1","1,0.5,0,1,0.5,0,0.5,0,1","1",""
"","html-keyboard-response","110","1191512","0.0-160.0","39JEC7537VNB1KD7DSLR5MH26GTVCR","A336V7IY38Q2WN","3WRBLBQ2GRU63BU2LFOJL1G32T90GO","","null","<img src=""img/food2.png"" style=""width:200px;border:14px solid red;"">","null","","","","","","","","","",""
"","image-keyboard-response","111","1192173","0.0-162.0","39JEC7537VNB1KD7DSLR5MH26GTVCR","A336V7IY38Q2WN","3WRBLBQ2GRU63BU2LFOJL1G32T90GO","","662","img/food3.png","76","662","3","0","false","1","2","1,0.5,0,1,0.5,0,0.5,0,1","1,0.5,0,1,0.5,0,0.5,0,1","1",""
"","html-keyboard-response","112","1192483","0.0-163.0","39JEC7537VNB1KD7DSLR5MH26GTVCR","A336V7IY38Q2WN","3WRBLBQ2GRU63BU2LFOJL1G32T90GO","","null","<img src=""img/food3.png"" style=""width:200px;border:14px solid red;"">","null","","","","","","","","","",""
"","image-keyboard-response","113","1192854","0.0-165.0","39JEC7537VNB1KD7DSLR5MH26GTVCR","A336V7IY38Q2WN","3WRBLBQ2GRU63BU2LFOJL1G32T90GO","","370","img/food3.png","76","370","3","0","false","1","2","1,0.5,0,1,0.5,0,0.5,0,1","1,0.5,0,1,0.5,0,0.5,0,1","1",""
"","html-keyboard-response","114","1193162","0.0-166.0","39JEC7537VNB1KD7DSLR5MH26GTVCR","A336V7IY38Q2WN","3WRBLBQ2GRU63BU2LFOJL1G32T90GO","","null","<img src=""img/food3.png"" style=""width:200px;border:14px solid red;"">","null","","","","","","","","","",""
"","image-keyboard-response","115","1193533","0.0-168.0","39JEC7537VNB1KD7DSLR5MH26GTVCR","A336V7IY38Q2WN","3WRBLBQ2GRU63BU2LFOJL1G32T90GO","","370","img/food3.png","76","371","3","0","false","1","2","1,0.5,0,1,0.5,0,0.5,0,1","1,0.5,0,1,0.5,0,0.5,0,1","1",""
"","html-keyboard-response","116","1193841","0.0-169.0","39JEC7537VNB1KD7DSLR5MH26GTVCR","A336V7IY38Q2WN","3WRBLBQ2GRU63BU2LFOJL1G32T90GO","","null","<img src=""img/food3.png"" style=""width:200px;border:14px solid red;"">","null","","","","","","","","","",""
"","image-keyboard-response","117","1194214","0.0-171.0","39JEC7537VNB1KD7DSLR5MH26GTVCR","A336V7IY38Q2WN","3WRBLBQ2GRU63BU2LFOJL1G32T90GO","","371","img/food3.png","76","372","3","0","false","1","2","1,0.5,0,1,0.5,0,0.5,0,1","1,0.5,0,1,0.5,0,0.5,0,1","1",""
"","html-keyboard-response","118","1194521","0.0-172.0","39JEC7537VNB1KD7DSLR5MH26GTVCR","A336V7IY38Q2WN","3WRBLBQ2GRU63BU2LFOJL1G32T90GO","","null","<img src=""img/food3.png"" style=""width:200px;border:14px solid red;"">","null","","","","","","","","","",""
"","image-keyboard-response","119","1195142","0.0-174.0","39JEC7537VNB1KD7DSLR5MH26GTVCR","A336V7IY38Q2WN","3WRBLBQ2GRU63BU2LFOJL1G32T90GO","","619","img/food1.png","74","619","1","1","false","2","2","1,0.5,0,1,0.5,0,0.5,0,1","1,0.5,0,1,0.5,0,0.5,0,1","1",""
"","html-keyboard-response","120","1195452","0.0-175.0","39JEC7537VNB1KD7DSLR5MH26GTVCR","A336V7IY38Q2WN","3WRBLBQ2GRU63BU2LFOJL1G32T90GO","","null","<img src=""img/food1.png"" style=""width:200px; border:14px solid green;"">","null","","","","","","","","","",""
"","image-keyboard-response","121","1195509","0.0-177.0","39JEC7537VNB1KD7DSLR5MH26GTVCR","A336V7IY38Q2WN","3WRBLBQ2GRU63BU2LFOJL1G32T90GO","","56","img/food2.png","74","56","1","1","false","3","2","1,0.5,0,1,0.5,0,0.5,0,1","1,0.5,0,1,0.5,0,0.5,0,1","1",""
"","html-keyboard-response","122","1195812","0.0-178.0","39JEC7537VNB1KD7DSLR5MH26GTVCR","A336V7IY38Q2WN","3WRBLBQ2GRU63BU2LFOJL1G32T90GO","","null","<img src=""img/food2.png"" style=""width:200px; border:14px solid green;"">","null","","","","","","","","","",""
"","image-keyboard-response","123","1196046","0.0-180.0","39JEC7537VNB1KD7DSLR5MH26GTVCR","A336V7IY38Q2WN","3WRBLBQ2GRU63BU2LFOJL1G32T90GO","","232","img/food3.png","75","233","2","1","false","1","2","1,0.5,0,1,0.5,0,0.5,0,1","1,0.5,0,1,0.5,0,0.5,0,1","1",""
"","html-keyboard-response","124","1196352","0.0-181.0","39JEC7537VNB1KD7DSLR5MH26GTVCR","A336V7IY38Q2WN","3WRBLBQ2GRU63BU2LFOJL1G32T90GO","","null","<img src=""img/food3.png"" style=""width:200px; border:14px solid green;"">","null","","","","","","","","","",""
"","image-keyboard-response","125","1196710","0.0-183.0","39JEC7537VNB1KD7DSLR5MH26GTVCR","A336V7IY38Q2WN","3WRBLBQ2GRU63BU2LFOJL1G32T90GO","","355","img/food3.png","74","357","1","1","false","1","2","1,0.5,0,1,0.5,0,0.5,0,1","1,0.5,0,1,0.5,0,0.5,0,1","1",""
"","html-keyboard-response","126","1197011","0.0-184.0","39JEC7537VNB1KD7DSLR5MH26GTVCR","A336V7IY38Q2WN","3WRBLBQ2GRU63BU2LFOJL1G32T90GO","","null","<img src=""img/food3.png"" style=""width:200px; border:14px solid green;"">","null","","","","","","","","","",""
"","image-keyboard-response","127","1197087","0.0-186.0","39JEC7537VNB1KD7DSLR5MH26GTVCR","A336V7IY38Q2WN","3WRBLBQ2GRU63BU2LFOJL1G32T90GO","","73","img/food3.png","76","74","3","0","false","1","2","1,0.5,0,1,0.5,0,0.5,0,1","1,0.5,0,1,0.5,0,0.5,0,1","1",""
"","html-keyboard-response","128","1197392","0.0-187.0","39JEC7537VNB1KD7DSLR5MH26GTVCR","A336V7IY38Q2WN","3WRBLBQ2GRU63BU2LFOJL1G32T90GO","","null","<img src=""img/food3.png"" style=""width:200px;border:14px solid red;"">","null","","","","","","","","","",""
"","image-keyboard-response","129","1197597","0.0-189.0","39JEC7537VNB1KD7DSLR5MH26GTVCR","A336V7IY38Q2WN","3WRBLBQ2GRU63BU2LFOJL1G32T90GO","","205","img/food3.png","76","206","3","0","false","1","2","1,0.5,0,1,0.5,0,0.5,0,1","1,0.5,0,1,0.5,0,0.5,0,1","1",""
"","html-keyboard-response","130","1197902","0.0-190.0","39JEC7537VNB1KD7DSLR5MH26GTVCR","A336V7IY38Q2WN","3WRBLBQ2GRU63BU2LFOJL1G32T90GO","","null","<img src=""img/food3.png"" style=""width:200px;border:14px solid red;"">","null","","","","","","","","","",""
"","image-keyboard-response","131","1198533","0.0-192.0","39JEC7537VNB1KD7DSLR5MH26GTVCR","A336V7IY38Q2WN","3WRBLBQ2GRU63BU2LFOJL1G32T90GO","","630","img/food1.png","74","631","1","1","false","2","2","1,0.5,0,1,0.5,0,0.5,0,1","1,0.5,0,1,0.5,0,0.5,0,1","1",""
"","html-keyboard-response","132","1198843","0.0-193.0","39JEC7537VNB1KD7DSLR5MH26GTVCR","A336V7IY38Q2WN","3WRBLBQ2GRU63BU2LFOJL1G32T90GO","","null","<img src=""img/food1.png"" style=""width:200px; border:14px solid green;"">","null","","","","","","","","","",""
"","image-keyboard-response","133","1199150","0.0-195.0","39JEC7537VNB1KD7DSLR5MH26GTVCR","A336V7IY38Q2WN","3WRBLBQ2GRU63BU2LFOJL1G32T90GO","","306","img/food1.png","74","307","1","1","false","2","2","1,0.5,0,1,0.5,0,0.5,0,1","1,0.5,0,1,0.5,0,0.5,0,1","1",""
"","html-keyboard-response","134","1199452","0.0-196.0","39JEC7537VNB1KD7DSLR5MH26GTVCR","A336V7IY38Q2WN","3WRBLBQ2GRU63BU2LFOJL1G32T90GO","","null","<img src=""img/food1.png"" style=""width:200px; border:14px solid green;"">","null","","","","","","","","","",""
"","image-keyboard-response","135","1199878","0.0-198.0","39JEC7537VNB1KD7DSLR5MH26GTVCR","A336V7IY38Q2WN","3WRBLBQ2GRU63BU2LFOJL1G32T90GO","","423","img/food2.png","76","425","3","1","false","3","2","1,0.5,0,1,0.5,0,0.5,0,1","1,0.5,0,1,0.5,0,0.5,0,1","1",""
"","html-keyboard-response","136","1200183","0.0-199.0","39JEC7537VNB1KD7DSLR5MH26GTVCR","A336V7IY38Q2WN","3WRBLBQ2GRU63BU2LFOJL1G32T90GO","","null","<img src=""img/food2.png"" style=""width:200px; border:14px solid green;"">","null","","","","","","","","","",""
"","image-keyboard-response","137","1200726","0.0-201.0","39JEC7537VNB1KD7DSLR5MH26GTVCR","A336V7IY38Q2WN","3WRBLBQ2GRU63BU2LFOJL1G32T90GO","","543","img/food1.png","76","543","3","0","false","2","2","1,0.5,0,1,0.5,0,0.5,0,1","1,0.5,0,1,0.5,0,0.5,0,1","1",""
"","html-keyboard-response","138","1201033","0.0-202.0","39JEC7537VNB1KD7DSLR5MH26GTVCR","A336V7IY38Q2WN","3WRBLBQ2GRU63BU2LFOJL1G32T90GO","","null","<img src=""img/food1.png"" style=""width:200px;border:14px solid red;"">","null","","","","","","","","","",""
"","image-keyboard-response","139","1201190","0.0-204.0","39JEC7537VNB1KD7DSLR5MH26GTVCR","A336V7IY38Q2WN","3WRBLBQ2GRU63BU2LFOJL1G32T90GO","","156","img/food3.png","75","156","2","0","false","1","2","1,0.5,0,1,0.5,0,0.5,0,1","1,0.5,0,1,0.5,0,0.5,0,1","1",""
"","html-keyboard-response","140","1201494","0.0-205.0","39JEC7537VNB1KD7DSLR5MH26GTVCR","A336V7IY38Q2WN","3WRBLBQ2GRU63BU2LFOJL1G32T90GO","","null","<img src=""img/food3.png"" style=""width:200px;border:14px solid red;"">","null","","","","","","","","","",""
"","image-keyboard-response","141","1201753","0.0-207.0","39JEC7537VNB1KD7DSLR5MH26GTVCR","A336V7IY38Q2WN","3WRBLBQ2GRU63BU2LFOJL1G32T90GO","","258","img/food1.png","76","259","3","0","false","2","2","1,0.5,0,1,0.5,0,0.5,0,1","1,0.5,0,1,0.5,0,0.5,0,1","1",""
"","html-keyboard-response","142","1202064","0.0-208.0","39JEC7537VNB1KD7DSLR5MH26GTVCR","A336V7IY38Q2WN","3WRBLBQ2GRU63BU2LFOJL1G32T90GO","","null","<img src=""img/food1.png"" style=""width:200px;border:14px solid red;"">","null","","","","","","","","","",""
"","image-keyboard-response","143","1202270","0.0-210.0","39JEC7537VNB1KD7DSLR5MH26GTVCR","A336V7IY38Q2WN","3WRBLBQ2GRU63BU2LFOJL1G32T90GO","","206","img/food2.png","74","206","1","0","false","3","2","1,0.5,0,1,0.5,0,0.5,0,1","1,0.5,0,1,0.5,0,0.5,0,1","1",""
"","html-keyboard-response","144","1202574","0.0-211.0","39JEC7537VNB1KD7DSLR5MH26GTVCR","A336V7IY38Q2WN","3WRBLBQ2GRU63BU2LFOJL1G32T90GO","","null","<img src=""img/food2.png"" style=""width:200px;border:14px solid red;"">","null","","","","","","","","","",""
"","image-keyboard-response","145","1202759","0.0-213.0","39JEC7537VNB1KD7DSLR5MH26GTVCR","A336V7IY38Q2WN","3WRBLBQ2GRU63BU2LFOJL1G32T90GO","","183","img/food1.png","75","184","2","1","false","2","2","1,0.5,0,1,0.5,0,0.5,0,1","1,0.5,0,1,0.5,0,0.5,0,1","1",""
"","html-keyboard-response","146","1203063","0.0-214.0","39JEC7537VNB1KD7DSLR5MH26GTVCR","A336V7IY38Q2WN","3WRBLBQ2GRU63BU2LFOJL1G32T90GO","","null","<img src=""img/food1.png"" style=""width:200px; border:14px solid green;"">","null","","","","","","","","","",""
"","image-keyboard-response","147","1203438","0.0-216.0","39JEC7537VNB1KD7DSLR5MH26GTVCR","A336V7IY38Q2WN","3WRBLBQ2GRU63BU2LFOJL1G32T90GO","","372","img/food1.png","74","374","1","1","false","2","2","1,0.5,0,1,0.5,0,0.5,0,1","1,0.5,0,1,0.5,0,0.5,0,1","1",""
"","html-keyboard-response","148","1203743","0.0-217.0","39JEC7537VNB1KD7DSLR5MH26GTVCR","A336V7IY38Q2WN","3WRBLBQ2GRU63BU2LFOJL1G32T90GO","","null","<img src=""img/food1.png"" style=""width:200px; border:14px solid green;"">","null","","","","","","","","","",""
"","image-keyboard-response","149","1203973","0.0-219.0","39JEC7537VNB1KD7DSLR5MH26GTVCR","A336V7IY38Q2WN","3WRBLBQ2GRU63BU2LFOJL1G32T90GO","","229","img/food1.png","74","230","1","1","false","2","2","1,0.5,0,1,0.5,0,0.5,0,1","1,0.5,0,1,0.5,0,0.5,0,1","1",""
"","html-keyboard-response","150","1204284","0.0-220.0","39JEC7537VNB1KD7DSLR5MH26GTVCR","A336V7IY38Q2WN","3WRBLBQ2GRU63BU2LFOJL1G32T90GO","","null","<img src=""img/food1.png"" style=""width:200px; border:14px solid green;"">","null","","","","","","","","","",""
"","image-keyboard-response","151","1204630","0.0-222.0","39JEC7537VNB1KD7DSLR5MH26GTVCR","A336V7IY38Q2WN","3WRBLBQ2GRU63BU2LFOJL1G32T90GO","","346","img/food1.png","74","346","1","1","false","2","2","1,0.5,0,1,0.5,0,0.5,0,1","1,0.5,0,1,0.5,0,0.5,0,1","1",""
"","html-keyboard-response","152","1204934","0.0-223.0","39JEC7537VNB1KD7DSLR5MH26GTVCR","A336V7IY38Q2WN","3WRBLBQ2GRU63BU2LFOJL1G32T90GO","","null","<img src=""img/food1.png"" style=""width:200px; border:14px solid green;"">","null","","","","","","","","","",""
"","image-keyboard-response","153","1205486","0.0-225.0","39JEC7537VNB1KD7DSLR5MH26GTVCR","A336V7IY38Q2WN","3WRBLBQ2GRU63BU2LFOJL1G32T90GO","","550","img/food2.png","75","551","2","0","false","3","2","1,0.5,0,1,0.5,0,0.5,0,1","1,0.5,0,1,0.5,0,0.5,0,1","1",""
"","html-keyboard-response","154","1205794","0.0-226.0","39JEC7537VNB1KD7DSLR5MH26GTVCR","A336V7IY38Q2WN","3WRBLBQ2GRU63BU2LFOJL1G32T90GO","","null","<img src=""img/food2.png"" style=""width:200px;border:14px solid red;"">","null","","","","","","","","","",""
"","image-keyboard-response","155","1206165","0.0-228.0","39JEC7537VNB1KD7DSLR5MH26GTVCR","A336V7IY38Q2WN","3WRBLBQ2GRU63BU2LFOJL1G32T90GO","","370","img/food2.png","75","371","2","0","false","3","2","1,0.5,0,1,0.5,0,0.5,0,1","1,0.5,0,1,0.5,0,0.5,0,1","1",""
"","html-keyboard-response","156","1206473","0.0-229.0","39JEC7537VNB1KD7DSLR5MH26GTVCR","A336V7IY38Q2WN","3WRBLBQ2GRU63BU2LFOJL1G32T90GO","","null","<img src=""img/food2.png"" style=""width:200px;border:14px solid red;"">","null","","","","","","","","","",""
"","image-keyboard-response","157","1206942","0.0-231.0","39JEC7537VNB1KD7DSLR5MH26GTVCR","A336V7IY38Q2WN","3WRBLBQ2GRU63BU2LFOJL1G32T90GO","","466","img/food3.png","76","466","3","0","false","1","2","1,0.5,0,1,0.5,0,0.5,0,1","1,0.5,0,1,0.5,0,0.5,0,1","1",""
"","html-keyboard-response","158","1207244","0.0-232.0","39JEC7537VNB1KD7DSLR5MH26GTVCR","A336V7IY38Q2WN","3WRBLBQ2GRU63BU2LFOJL1G32T90GO","","null","<img src=""img/food3.png"" style=""width:200px;border:14px solid red;"">","null","","","","","","","","","",""
"","image-keyboard-response","159","1207253","0.0-234.0","39JEC7537VNB1KD7DSLR5MH26GTVCR","A336V7IY38Q2WN","3WRBLBQ2GRU63BU2LFOJL1G32T90GO","","8","img/food2.png","76","10","3","1","false","3","2","1,0.5,0,1,0.5,0,0.5,0,1","1,0.5,0,1,0.5,0,0.5,0,1","1",""
"","html-keyboard-response","160","1207564","0.0-235.0","39JEC7537VNB1KD7DSLR5MH26GTVCR","A336V7IY38Q2WN","3WRBLBQ2GRU63BU2LFOJL1G32T90GO","","null","<img src=""img/food2.png"" style=""width:200px; border:14px solid green;"">","null","","","","","","","","","",""
"","image-keyboard-response","161","1207966","0.0-237.0","39JEC7537VNB1KD7DSLR5MH26GTVCR","A336V7IY38Q2WN","3WRBLBQ2GRU63BU2LFOJL1G32T90GO","","401","img/food3.png","76","402","3","0","false","1","2","1,0.5,0,1,0.5,0,0.5,0,1","1,0.5,0,1,0.5,0,0.5,0,1","1",""
"","html-keyboard-response","162","1208273","0.0-238.0","39JEC7537VNB1KD7DSLR5MH26GTVCR","A336V7IY38Q2WN","3WRBLBQ2GRU63BU2LFOJL1G32T90GO","","null","<img src=""img/food3.png"" style=""width:200px;border:14px solid red;"">","null","","","","","","","","","",""
"","image-keyboard-response","163","1208917","0.0-240.0","39JEC7537VNB1KD7DSLR5MH26GTVCR","A336V7IY38Q2WN","3WRBLBQ2GRU63BU2LFOJL1G32T90GO","","643","img/food1.png","74","643","1","1","false","2","2","1,0.5,0,1,0.5,0,0.5,0,1","1,0.5,0,1,0.5,0,0.5,0,1","1",""
"","html-keyboard-response","164","1209224","0.0-241.0","39JEC7537VNB1KD7DSLR5MH26GTVCR","A336V7IY38Q2WN","3WRBLBQ2GRU63BU2LFOJL1G32T90GO","","null","<img src=""img/food1.png"" style=""width:200px; border:14px solid green;"">","null","","","","","","","","","",""
"","image-keyboard-response","165","1209589","0.0-243.0","39JEC7537VNB1KD7DSLR5MH26GTVCR","A336V7IY38Q2WN","3WRBLBQ2GRU63BU2LFOJL1G32T90GO","","364","img/food1.png","74","366","1","1","false","2","2","1,0.5,0,1,0.5,0,0.5,0,1","1,0.5,0,1,0.5,0,0.5,0,1","1",""
"","html-keyboard-response","166","1209893","0.0-244.0","39JEC7537VNB1KD7DSLR5MH26GTVCR","A336V7IY38Q2WN","3WRBLBQ2GRU63BU2LFOJL1G32T90GO","","null","<img src=""img/food1.png"" style=""width:200px; border:14px solid green;"">","null","","","","","","","","","",""
"","image-keyboard-response","167","1210231","0.0-246.0","39JEC7537VNB1KD7DSLR5MH26GTVCR","A336V7IY38Q2WN","3WRBLBQ2GRU63BU2LFOJL1G32T90GO","","336","img/food1.png","74","337","1","1","false","2","2","1,0.5,0,1,0.5,0,0.5,0,1","1,0.5,0,1,0.5,0,0.5,0,1","1",""
"","html-keyboard-response","168","1210533","0.0-247.0","39JEC7537VNB1KD7DSLR5MH26GTVCR","A336V7IY38Q2WN","3WRBLBQ2GRU63BU2LFOJL1G32T90GO","","null","<img src=""img/food1.png"" style=""width:200px; border:14px solid green;"">","null","","","","","","","","","",""
"","image-keyboard-response","169","1210861","0.0-249.0","39JEC7537VNB1KD7DSLR5MH26GTVCR","A336V7IY38Q2WN","3WRBLBQ2GRU63BU2LFOJL1G32T90GO","","327","img/food1.png","74","328","1","1","false","2","2","1,0.5,0,1,0.5,0,0.5,0,1","1,0.5,0,1,0.5,0,0.5,0,1","1",""
"","html-keyboard-response","170","1211164","0.0-250.0","39JEC7537VNB1KD7DSLR5MH26GTVCR","A336V7IY38Q2WN","3WRBLBQ2GRU63BU2LFOJL1G32T90GO","","null","<img src=""img/food1.png"" style=""width:200px; border:14px solid green;"">","null","","","","","","","","","",""
"","image-keyboard-response","171","1211365","0.0-252.0","39JEC7537VNB1KD7DSLR5MH26GTVCR","A336V7IY38Q2WN","3WRBLBQ2GRU63BU2LFOJL1G32T90GO","","200","img/food2.png","74","201","1","1","false","3","2","1,0.5,0,1,0.5,0,0.5,0,1","1,0.5,0,1,0.5,0,0.5,0,1","1",""
"","html-keyboard-response","172","1211674","0.0-253.0","39JEC7537VNB1KD7DSLR5MH26GTVCR","A336V7IY38Q2WN","3WRBLBQ2GRU63BU2LFOJL1G32T90GO","","null","<img src=""img/food2.png"" style=""width:200px; border:14px solid green;"">","null","","","","","","","","","",""
"","image-keyboard-response","173","1211733","0.0-255.0","39JEC7537VNB1KD7DSLR5MH26GTVCR","A336V7IY38Q2WN","3WRBLBQ2GRU63BU2LFOJL1G32T90GO","","58","img/food3.png","75","59","2","0","false","1","2","1,0.5,0,1,0.5,0,0.5,0,1","1,0.5,0,1,0.5,0,0.5,0,1","1",""
"","html-keyboard-response","174","1212043","0.0-256.0","39JEC7537VNB1KD7DSLR5MH26GTVCR","A336V7IY38Q2WN","3WRBLBQ2GRU63BU2LFOJL1G32T90GO","","null","<img src=""img/food3.png"" style=""width:200px;border:14px solid red;"">","null","","","","","","","","","",""
"","image-keyboard-response","175","1212325","0.0-258.0","39JEC7537VNB1KD7DSLR5MH26GTVCR","A336V7IY38Q2WN","3WRBLBQ2GRU63BU2LFOJL1G32T90GO","","282","img/food1.png","76","282","3","0","false","2","2","1,0.5,0,1,0.5,0,0.5,0,1","1,0.5,0,1,0.5,0,0.5,0,1","1",""
"","html-keyboard-response","176","1212633","0.0-259.0","39JEC7537VNB1KD7DSLR5MH26GTVCR","A336V7IY38Q2WN","3WRBLBQ2GRU63BU2LFOJL1G32T90GO","","null","<img src=""img/food1.png"" style=""width:200px;border:14px solid red;"">","null","","","","","","","","","",""
"","image-keyboard-response","177","1212933","0.0-261.0","39JEC7537VNB1KD7DSLR5MH26GTVCR","A336V7IY38Q2WN","3WRBLBQ2GRU63BU2LFOJL1G32T90GO","","299","img/food2.png","74","299","1","0","false","3","2","1,0.5,0,1,0.5,0,0.5,0,1","1,0.5,0,1,0.5,0,0.5,0,1","1",""
"","html-keyboard-response","178","1213244","0.0-262.0","39JEC7537VNB1KD7DSLR5MH26GTVCR","A336V7IY38Q2WN","3WRBLBQ2GRU63BU2LFOJL1G32T90GO","","null","<img src=""img/food2.png"" style=""width:200px;border:14px solid red;"">","null","","","","","","","","","",""
"","image-keyboard-response","179","1213846","0.0-264.0","39JEC7537VNB1KD7DSLR5MH26GTVCR","A336V7IY38Q2WN","3WRBLBQ2GRU63BU2LFOJL1G32T90GO","","601","img/food1.png","76","602","3","0","false","2","2","1,0.5,0,1,0.5,0,0.5,0,1","1,0.5,0,1,0.5,0,0.5,0,1","1",""
"","html-keyboard-response","180","1214153","0.0-265.0","39JEC7537VNB1KD7DSLR5MH26GTVCR","A336V7IY38Q2WN","3WRBLBQ2GRU63BU2LFOJL1G32T90GO","","null","<img src=""img/food1.png"" style=""width:200px;border:14px solid red;"">","null","","","","","","","","","",""
"","image-keyboard-response","181","1214773","0.0-267.0","39JEC7537VNB1KD7DSLR5MH26GTVCR","A336V7IY38Q2WN","3WRBLBQ2GRU63BU2LFOJL1G32T90GO","","619","img/food3.png","76","620","3","0","false","1","2","1,0.5,0,1,0.5,0,0.5,0,1","1,0.5,0,1,0.5,0,0.5,0,1","1",""
"","html-keyboard-response","182","1215084","0.0-268.0","39JEC7537VNB1KD7DSLR5MH26GTVCR","A336V7IY38Q2WN","3WRBLBQ2GRU63BU2LFOJL1G32T90GO","","null","<img src=""img/food3.png"" style=""width:200px;border:14px solid red;"">","null","","","","","","","","","",""
"","image-keyboard-response","183","1215574","0.0-270.0","39JEC7537VNB1KD7DSLR5MH26GTVCR","A336V7IY38Q2WN","3WRBLBQ2GRU63BU2LFOJL1G32T90GO","","489","img/food1.png","76","489","3","0","false","2","2","1,0.5,0,1,0.5,0,0.5,0,1","1,0.5,0,1,0.5,0,0.5,0,1","1",""
"","html-keyboard-response","184","1215883","0.0-271.0","39JEC7537VNB1KD7DSLR5MH26GTVCR","A336V7IY38Q2WN","3WRBLBQ2GRU63BU2LFOJL1G32T90GO","","null","<img src=""img/food1.png"" style=""width:200px;border:14px solid red;"">","null","","","","","","","","","",""
"","instructions","185","1222378","0.0-273.0","39JEC7537VNB1KD7DSLR5MH26GTVCR","A336V7IY38Q2WN","3WRBLBQ2GRU63BU2LFOJL1G32T90GO","[{""page_index"":0,""viewing_time"":5557},{""page_index"":1,""viewing_time"":935}]","6492","","","","","","","","","","","",""
"","image-keyboard-response","186","1223597","0.0-274.0","39JEC7537VNB1KD7DSLR5MH26GTVCR","A336V7IY38Q2WN","3WRBLBQ2GRU63BU2LFOJL1G32T90GO","","1217","img/food5.png","74","1220","1","0","","3","1","1,0.5,0,1,0.5,0,0.5,0,1","0.5,0,1,0.5,0,1,0,1,0.5","2",""
"","html-keyboard-response","187","1223904","0.0-275.0","39JEC7537VNB1KD7DSLR5MH26GTVCR","A336V7IY38Q2WN","3WRBLBQ2GRU63BU2LFOJL1G32T90GO","","null","<img src=""img/food5.png"" style=""width:200px;border:14px solid red;"">","null","","","","","","","","","",""
"","image-keyboard-response","188","1224685","0.0-276.0","39JEC7537VNB1KD7DSLR5MH26GTVCR","A336V7IY38Q2WN","3WRBLBQ2GRU63BU2LFOJL1G32T90GO","","780","img/food4.png","75","782","2","0","","1","1","1,0.5,0,1,0.5,0,0.5,0,1","0.5,0,1,0.5,0,1,0,1,0.5","2",""
"","html-keyboard-response","189","1224993","0.0-277.0","39JEC7537VNB1KD7DSLR5MH26GTVCR","A336V7IY38Q2WN","3WRBLBQ2GRU63BU2LFOJL1G32T90GO","","null","<img src=""img/food4.png"" style=""width:200px;border:14px solid red;"">","null","","","","","","","","","",""
"","image-keyboard-response","190","1225893","0.0-278.0","39JEC7537VNB1KD7DSLR5MH26GTVCR","A336V7IY38Q2WN","3WRBLBQ2GRU63BU2LFOJL1G32T90GO","","898","img/food5.png","74","899","1","0","","3","1","1,0.5,0,1,0.5,0,0.5,0,1","0.5,0,1,0.5,0,1,0,1,0.5","2",""
"","html-keyboard-response","191","1226204","0.0-279.0","39JEC7537VNB1KD7DSLR5MH26GTVCR","A336V7IY38Q2WN","3WRBLBQ2GRU63BU2LFOJL1G32T90GO","","null","<img src=""img/food5.png"" style=""width:200px;border:14px solid red;"">","null","","","","","","","","","",""
"","image-keyboard-response","192","1226749","0.0-280.0","39JEC7537VNB1KD7DSLR5MH26GTVCR","A336V7IY38Q2WN","3WRBLBQ2GRU63BU2LFOJL1G32T90GO","","545","img/food4.png","75","545","2","0","","1","1","1,0.5,0,1,0.5,0,0.5,0,1","0.5,0,1,0.5,0,1,0,1,0.5","2",""
"","html-keyboard-response","193","1227053","0.0-281.0","39JEC7537VNB1KD7DSLR5MH26GTVCR","A336V7IY38Q2WN","3WRBLBQ2GRU63BU2LFOJL1G32T90GO","","null","<img src=""img/food4.png"" style=""width:200px;border:14px solid red;"">","null","","","","","","","","","",""
"","image-keyboard-response","194","1227461","0.0-282.0","39JEC7537VNB1KD7DSLR5MH26GTVCR","A336V7IY38Q2WN","3WRBLBQ2GRU63BU2LFOJL1G32T90GO","","406","img/food4.png","76","407","3","1","","1","1","1,0.5,0,1,0.5,0,0.5,0,1","0.5,0,1,0.5,0,1,0,1,0.5","2",""
"","html-keyboard-response","195","1227765","0.0-283.0","39JEC7537VNB1KD7DSLR5MH26GTVCR","A336V7IY38Q2WN","3WRBLBQ2GRU63BU2LFOJL1G32T90GO","","null","<img src=""img/food4.png"" style=""width:200px; border:14px solid green;"">","null","","","","","","","","","",""
"","image-keyboard-response","196","1228685","0.0-284.0","39JEC7537VNB1KD7DSLR5MH26GTVCR","A336V7IY38Q2WN","3WRBLBQ2GRU63BU2LFOJL1G32T90GO","","919","img/food5.png","76","921","3","1","","3","1","1,0.5,0,1,0.5,0,0.5,0,1","0.5,0,1,0.5,0,1,0,1,0.5","2",""
"","html-keyboard-response","197","1228994","0.0-285.0","39JEC7537VNB1KD7DSLR5MH26GTVCR","A336V7IY38Q2WN","3WRBLBQ2GRU63BU2LFOJL1G32T90GO","","null","<img src=""img/food5.png"" style=""width:200px; border:14px solid green;"">","null","","","","","","","","","",""
"","image-keyboard-response","198","1229533","0.0-286.0","39JEC7537VNB1KD7DSLR5MH26GTVCR","A336V7IY38Q2WN","3WRBLBQ2GRU63BU2LFOJL1G32T90GO","","538","img/food4.png","76","539","3","1","","1","1","1,0.5,0,1,0.5,0,0.5,0,1","0.5,0,1,0.5,0,1,0,1,0.5","2",""
"","html-keyboard-response","199","1229835","0.0-287.0","39JEC7537VNB1KD7DSLR5MH26GTVCR","A336V7IY38Q2WN","3WRBLBQ2GRU63BU2LFOJL1G32T90GO","","null","<img src=""img/food4.png"" style=""width:200px; border:14px solid green;"">","null","","","","","","","","","",""
"","image-keyboard-response","200","1230389","0.0-288.0","39JEC7537VNB1KD7DSLR5MH26GTVCR","A336V7IY38Q2WN","3WRBLBQ2GRU63BU2LFOJL1G32T90GO","","554","img/food6.png","76","554","3","1","","2","1","1,0.5,0,1,0.5,0,0.5,0,1","0.5,0,1,0.5,0,1,0,1,0.5","2",""
"","html-keyboard-response","201","1230694","0.0-289.0","39JEC7537VNB1KD7DSLR5MH26GTVCR","A336V7IY38Q2WN","3WRBLBQ2GRU63BU2LFOJL1G32T90GO","","null","<img src=""img/food6.png"" style=""width:200px; border:14px solid green;"">","null","","","","","","","","","",""
"","image-keyboard-response","202","1230973","0.0-290.0","39JEC7537VNB1KD7DSLR5MH26GTVCR","A336V7IY38Q2WN","3WRBLBQ2GRU63BU2LFOJL1G32T90GO","","278","img/food5.png","76","279","3","0","","3","1","1,0.5,0,1,0.5,0,0.5,0,1","0.5,0,1,0.5,0,1,0,1,0.5","2",""
"","html-keyboard-response","203","1231274","0.0-291.0","39JEC7537VNB1KD7DSLR5MH26GTVCR","A336V7IY38Q2WN","3WRBLBQ2GRU63BU2LFOJL1G32T90GO","","null","<img src=""img/food5.png"" style=""width:200px;border:14px solid red;"">","null","","","","","","","","","",""
"","image-keyboard-response","204","1232117","0.0-292.0","39JEC7537VNB1KD7DSLR5MH26GTVCR","A336V7IY38Q2WN","3WRBLBQ2GRU63BU2LFOJL1G32T90GO","","842","img/food5.png","75","842","2","1","","3","1","1,0.5,0,1,0.5,0,0.5,0,1","0.5,0,1,0.5,0,1,0,1,0.5","2",""
"","html-keyboard-response","205","1232424","0.0-293.0","39JEC7537VNB1KD7DSLR5MH26GTVCR","A336V7IY38Q2WN","3WRBLBQ2GRU63BU2LFOJL1G32T90GO","","null","<img src=""img/food5.png"" style=""width:200px; border:14px solid green;"">","null","","","","","","","","","",""
"","image-keyboard-response","206","1232869","0.0-294.0","39JEC7537VNB1KD7DSLR5MH26GTVCR","A336V7IY38Q2WN","3WRBLBQ2GRU63BU2LFOJL1G32T90GO","","444","img/food6.png","76","444","3","1","","2","1","1,0.5,0,1,0.5,0,0.5,0,1","0.5,0,1,0.5,0,1,0,1,0.5","2",""
"","html-keyboard-response","207","1233175","0.0-295.0","39JEC7537VNB1KD7DSLR5MH26GTVCR","A336V7IY38Q2WN","3WRBLBQ2GRU63BU2LFOJL1G32T90GO","","null","<img src=""img/food6.png"" style=""width:200px; border:14px solid green;"">","null","","","","","","","","","",""
"","image-keyboard-response","208","1233757","0.0-296.0","39JEC7537VNB1KD7DSLR5MH26GTVCR","A336V7IY38Q2WN","3WRBLBQ2GRU63BU2LFOJL1G32T90GO","","580","img/food4.png","75","582","2","0","","1","1","1,0.5,0,1,0.5,0,0.5,0,1","0.5,0,1,0.5,0,1,0,1,0.5","2",""
"","html-keyboard-response","209","1234065","0.0-297.0","39JEC7537VNB1KD7DSLR5MH26GTVCR","A336V7IY38Q2WN","3WRBLBQ2GRU63BU2LFOJL1G32T90GO","","null","<img src=""img/food4.png"" style=""width:200px;border:14px solid red;"">","null","","","","","","","","","",""
"","image-keyboard-response","210","1234245","0.0-298.0","39JEC7537VNB1KD7DSLR5MH26GTVCR","A336V7IY38Q2WN","3WRBLBQ2GRU63BU2LFOJL1G32T90GO","","179","img/food4.png","76","181","3","1","","1","1","1,0.5,0,1,0.5,0,0.5,0,1","0.5,0,1,0.5,0,1,0,1,0.5","2",""
"","html-keyboard-response","211","1234554","0.0-299.0","39JEC7537VNB1KD7DSLR5MH26GTVCR","A336V7IY38Q2WN","3WRBLBQ2GRU63BU2LFOJL1G32T90GO","","null","<img src=""img/food4.png"" style=""width:200px; border:14px solid green;"">","null","","","","","","","","","",""
"","image-keyboard-response","212","1235029","0.0-300.0","39JEC7537VNB1KD7DSLR5MH26GTVCR","A336V7IY38Q2WN","3WRBLBQ2GRU63BU2LFOJL1G32T90GO","","474","img/food6.png","76","474","3","1","","2","1","1,0.5,0,1,0.5,0,0.5,0,1","0.5,0,1,0.5,0,1,0,1,0.5","2",""
"","html-keyboard-response","213","1235334","0.0-301.0","39JEC7537VNB1KD7DSLR5MH26GTVCR","A336V7IY38Q2WN","3WRBLBQ2GRU63BU2LFOJL1G32T90GO","","null","<img src=""img/food6.png"" style=""width:200px; border:14px solid green;"">","null","","","","","","","","","",""
"","image-keyboard-response","214","1236165","0.0-302.0","39JEC7537VNB1KD7DSLR5MH26GTVCR","A336V7IY38Q2WN","3WRBLBQ2GRU63BU2LFOJL1G32T90GO","","829","img/food5.png","76","830","3","0","","3","1","1,0.5,0,1,0.5,0,0.5,0,1","0.5,0,1,0.5,0,1,0,1,0.5","2",""
"","html-keyboard-response","215","1236475","0.0-303.0","39JEC7537VNB1KD7DSLR5MH26GTVCR","A336V7IY38Q2WN","3WRBLBQ2GRU63BU2LFOJL1G32T90GO","","null","<img src=""img/food5.png"" style=""width:200px;border:14px solid red;"">","null","","","","","","","","","",""
"","image-keyboard-response","216","1236853","0.0-304.0","39JEC7537VNB1KD7DSLR5MH26GTVCR","A336V7IY38Q2WN","3WRBLBQ2GRU63BU2LFOJL1G32T90GO","","378","img/food4.png","75","379","2","0","","1","1","1,0.5,0,1,0.5,0,0.5,0,1","0.5,0,1,0.5,0,1,0,1,0.5","2",""
"","html-keyboard-response","217","1237154","0.0-305.0","39JEC7537VNB1KD7DSLR5MH26GTVCR","A336V7IY38Q2WN","3WRBLBQ2GRU63BU2LFOJL1G32T90GO","","null","<img src=""img/food4.png"" style=""width:200px;border:14px solid red;"">","null","","","","","","","","","",""
"","image-keyboard-response","218","1237357","0.0-306.0","39JEC7537VNB1KD7DSLR5MH26GTVCR","A336V7IY38Q2WN","3WRBLBQ2GRU63BU2LFOJL1G32T90GO","","202","img/food4.png","75","203","2","0","","1","1","1,0.5,0,1,0.5,0,0.5,0,1","0.5,0,1,0.5,0,1,0,1,0.5","2",""
"","html-keyboard-response","219","1237664","0.0-307.0","39JEC7537VNB1KD7DSLR5MH26GTVCR","A336V7IY38Q2WN","3WRBLBQ2GRU63BU2LFOJL1G32T90GO","","null","<img src=""img/food4.png"" style=""width:200px;border:14px solid red;"">","null","","","","","","","","","",""
"","image-keyboard-response","220","1237844","0.0-308.0","39JEC7537VNB1KD7DSLR5MH26GTVCR","A336V7IY38Q2WN","3WRBLBQ2GRU63BU2LFOJL1G32T90GO","","180","img/food4.png","74","180","1","1","","1","1","1,0.5,0,1,0.5,0,0.5,0,1","0.5,0,1,0.5,0,1,0,1,0.5","2",""
"","html-keyboard-response","221","1238155","0.0-309.0","39JEC7537VNB1KD7DSLR5MH26GTVCR","A336V7IY38Q2WN","3WRBLBQ2GRU63BU2LFOJL1G32T90GO","","null","<img src=""img/food4.png"" style=""width:200px; border:14px solid green;"">","null","","","","","","","","","",""
"","image-keyboard-response","222","1238613","0.0-310.0","39JEC7537VNB1KD7DSLR5MH26GTVCR","A336V7IY38Q2WN","3WRBLBQ2GRU63BU2LFOJL1G32T90GO","","458","img/food4.png","74","458","1","0","","1","1","1,0.5,0,1,0.5,0,0.5,0,1","0.5,0,1,0.5,0,1,0,1,0.5","2",""
"","html-keyboard-response","223","1238914","0.0-311.0","39JEC7537VNB1KD7DSLR5MH26GTVCR","A336V7IY38Q2WN","3WRBLBQ2GRU63BU2LFOJL1G32T90GO","","null","<img src=""img/food4.png"" style=""width:200px;border:14px solid red;"">","null","","","","","","","","","",""
"","image-keyboard-response","224","1239412","0.0-312.0","39JEC7537VNB1KD7DSLR5MH26GTVCR","A336V7IY38Q2WN","3WRBLBQ2GRU63BU2LFOJL1G32T90GO","","497","img/food4.png","75","498","2","0","","1","1","1,0.5,0,1,0.5,0,0.5,0,1","0.5,0,1,0.5,0,1,0,1,0.5","2",""
"","html-keyboard-response","225","1239714","0.0-313.0","39JEC7537VNB1KD7DSLR5MH26GTVCR","A336V7IY38Q2WN","3WRBLBQ2GRU63BU2LFOJL1G32T90GO","","null","<img src=""img/food4.png"" style=""width:200px;border:14px solid red;"">","null","","","","","","","","","",""
"","image-keyboard-response","226","1239948","0.0-314.0","39JEC7537VNB1KD7DSLR5MH26GTVCR","A336V7IY38Q2WN","3WRBLBQ2GRU63BU2LFOJL1G32T90GO","","234","img/food5.png","76","234","3","1","","3","1","1,0.5,0,1,0.5,0,0.5,0,1","0.5,0,1,0.5,0,1,0,1,0.5","2",""
"","html-keyboard-response","227","1240254","0.0-315.0","39JEC7537VNB1KD7DSLR5MH26GTVCR","A336V7IY38Q2WN","3WRBLBQ2GRU63BU2LFOJL1G32T90GO","","null","<img src=""img/food5.png"" style=""width:200px; border:14px solid green;"">","null","","","","","","","","","",""
"","image-keyboard-response","228","1240661","0.0-316.0","39JEC7537VNB1KD7DSLR5MH26GTVCR","A336V7IY38Q2WN","3WRBLBQ2GRU63BU2LFOJL1G32T90GO","","405","img/food4.png","75","405","2","0","","1","1","1,0.5,0,1,0.5,0,0.5,0,1","0.5,0,1,0.5,0,1,0,1,0.5","2",""
"","html-keyboard-response","229","1240964","0.0-317.0","39JEC7537VNB1KD7DSLR5MH26GTVCR","A336V7IY38Q2WN","3WRBLBQ2GRU63BU2LFOJL1G32T90GO","","null","<img src=""img/food4.png"" style=""width:200px;border:14px solid red;"">","null","","","","","","","","","",""
"","image-keyboard-response","230","1241229","0.0-318.0","39JEC7537VNB1KD7DSLR5MH26GTVCR","A336V7IY38Q2WN","3WRBLBQ2GRU63BU2LFOJL1G32T90GO","","264","img/food5.png","74","265","1","0","","3","1","1,0.5,0,1,0.5,0,0.5,0,1","0.5,0,1,0.5,0,1,0,1,0.5","2",""
"","html-keyboard-response","231","1241534","0.0-319.0","39JEC7537VNB1KD7DSLR5MH26GTVCR","A336V7IY38Q2WN","3WRBLBQ2GRU63BU2LFOJL1G32T90GO","","null","<img src=""img/food5.png"" style=""width:200px;border:14px solid red;"">","null","","","","","","","","","",""
"","image-keyboard-response","232","1242245","0.0-320.0","39JEC7537VNB1KD7DSLR5MH26GTVCR","A336V7IY38Q2WN","3WRBLBQ2GRU63BU2LFOJL1G32T90GO","","709","img/food6.png","76","710","3","1","","2","1","1,0.5,0,1,0.5,0,0.5,0,1","0.5,0,1,0.5,0,1,0,1,0.5","2",""
"","html-keyboard-response","233","1242554","0.0-321.0","39JEC7537VNB1KD7DSLR5MH26GTVCR","A336V7IY38Q2WN","3WRBLBQ2GRU63BU2LFOJL1G32T90GO","","null","<img src=""img/food6.png"" style=""width:200px; border:14px solid green;"">","null","","","","","","","","","",""
"","image-keyboard-response","234","1243052","0.0-322.0","39JEC7537VNB1KD7DSLR5MH26GTVCR","A336V7IY38Q2WN","3WRBLBQ2GRU63BU2LFOJL1G32T90GO","","499","img/food5.png","74","500","1","0","","3","1","1,0.5,0,1,0.5,0,0.5,0,1","0.5,0,1,0.5,0,1,0,1,0.5","2",""
"","html-keyboard-response","235","1243354","0.0-323.0","39JEC7537VNB1KD7DSLR5MH26GTVCR","A336V7IY38Q2WN","3WRBLBQ2GRU63BU2LFOJL1G32T90GO","","null","<img src=""img/food5.png"" style=""width:200px;border:14px solid red;"">","null","","","","","","","","","",""
"","image-keyboard-response","236","1243637","0.0-324.0","39JEC7537VNB1KD7DSLR5MH26GTVCR","A336V7IY38Q2WN","3WRBLBQ2GRU63BU2LFOJL1G32T90GO","","282","img/food5.png","75","282","2","1","","3","1","1,0.5,0,1,0.5,0,0.5,0,1","0.5,0,1,0.5,0,1,0,1,0.5","2",""
"","html-keyboard-response","237","1243944","0.0-325.0","39JEC7537VNB1KD7DSLR5MH26GTVCR","A336V7IY38Q2WN","3WRBLBQ2GRU63BU2LFOJL1G32T90GO","","null","<img src=""img/food5.png"" style=""width:200px; border:14px solid green;"">","null","","","","","","","","","",""
"","image-keyboard-response","238","1244636","0.0-326.0","39JEC7537VNB1KD7DSLR5MH26GTVCR","A336V7IY38Q2WN","3WRBLBQ2GRU63BU2LFOJL1G32T90GO","","691","img/food5.png","76","692","3","0","","3","1","1,0.5,0,1,0.5,0,0.5,0,1","0.5,0,1,0.5,0,1,0,1,0.5","2",""
"","html-keyboard-response","239","1244944","0.0-327.0","39JEC7537VNB1KD7DSLR5MH26GTVCR","A336V7IY38Q2WN","3WRBLBQ2GRU63BU2LFOJL1G32T90GO","","null","<img src=""img/food5.png"" style=""width:200px;border:14px solid red;"">","null","","","","","","","","","",""
"","image-keyboard-response","240","1245717","0.0-328.0","39JEC7537VNB1KD7DSLR5MH26GTVCR","A336V7IY38Q2WN","3WRBLBQ2GRU63BU2LFOJL1G32T90GO","","771","img/food6.png","76","772","3","1","","2","1","1,0.5,0,1,0.5,0,0.5,0,1","0.5,0,1,0.5,0,1,0,1,0.5","2",""
"","html-keyboard-response","241","1246024","0.0-329.0","39JEC7537VNB1KD7DSLR5MH26GTVCR","A336V7IY38Q2WN","3WRBLBQ2GRU63BU2LFOJL1G32T90GO","","null","<img src=""img/food6.png"" style=""width:200px; border:14px solid green;"">","null","","","","","","","","","",""
"","image-keyboard-response","242","1247109","0.0-330.0","39JEC7537VNB1KD7DSLR5MH26GTVCR","A336V7IY38Q2WN","3WRBLBQ2GRU63BU2LFOJL1G32T90GO","","1083","img/food4.png","76","1086","3","1","","1","1","1,0.5,0,1,0.5,0,0.5,0,1","0.5,0,1,0.5,0,1,0,1,0.5","2",""
"","html-keyboard-response","243","1247414","0.0-331.0","39JEC7537VNB1KD7DSLR5MH26GTVCR","A336V7IY38Q2WN","3WRBLBQ2GRU63BU2LFOJL1G32T90GO","","null","<img src=""img/food4.png"" style=""width:200px; border:14px solid green;"">","null","","","","","","","","","",""
"","image-keyboard-response","244","1247869","0.0-332.0","39JEC7537VNB1KD7DSLR5MH26GTVCR","A336V7IY38Q2WN","3WRBLBQ2GRU63BU2LFOJL1G32T90GO","","454","img/food5.png","75","454","2","1","","3","1","1,0.5,0,1,0.5,0,0.5,0,1","0.5,0,1,0.5,0,1,0,1,0.5","2",""
"","html-keyboard-response","245","1248174","0.0-333.0","39JEC7537VNB1KD7DSLR5MH26GTVCR","A336V7IY38Q2WN","3WRBLBQ2GRU63BU2LFOJL1G32T90GO","","null","<img src=""img/food5.png"" style=""width:200px; border:14px solid green;"">","null","","","","","","","","","",""
"","image-keyboard-response","246","1248613","0.0-334.0","39JEC7537VNB1KD7DSLR5MH26GTVCR","A336V7IY38Q2WN","3WRBLBQ2GRU63BU2LFOJL1G32T90GO","","439","img/food6.png","74","440","1","0","","2","1","1,0.5,0,1,0.5,0,0.5,0,1","0.5,0,1,0.5,0,1,0,1,0.5","2",""
"","html-keyboard-response","247","1248914","0.0-335.0","39JEC7537VNB1KD7DSLR5MH26GTVCR","A336V7IY38Q2WN","3WRBLBQ2GRU63BU2LFOJL1G32T90GO","","null","<img src=""img/food6.png"" style=""width:200px;border:14px solid red;"">","null","","","","","","","","","",""
"","image-keyboard-response","248","1249141","0.0-336.0","39JEC7537VNB1KD7DSLR5MH26GTVCR","A336V7IY38Q2WN","3WRBLBQ2GRU63BU2LFOJL1G32T90GO","","226","img/food5.png","76","226","3","1","","3","1","1,0.5,0,1,0.5,0,0.5,0,1","0.5,0,1,0.5,0,1,0,1,0.5","2",""
"","html-keyboard-response","249","1249444","0.0-337.0","39JEC7537VNB1KD7DSLR5MH26GTVCR","A336V7IY38Q2WN","3WRBLBQ2GRU63BU2LFOJL1G32T90GO","","null","<img src=""img/food5.png"" style=""width:200px; border:14px solid green;"">","null","","","","","","","","","",""
"","image-keyboard-response","250","1249997","0.0-338.0","39JEC7537VNB1KD7DSLR5MH26GTVCR","A336V7IY38Q2WN","3WRBLBQ2GRU63BU2LFOJL1G32T90GO","","550","img/food4.png","76","552","3","1","","1","1","1,0.5,0,1,0.5,0,0.5,0,1","0.5,0,1,0.5,0,1,0,1,0.5","2",""
"","html-keyboard-response","251","1250304","0.0-339.0","39JEC7537VNB1KD7DSLR5MH26GTVCR","A336V7IY38Q2WN","3WRBLBQ2GRU63BU2LFOJL1G32T90GO","","null","<img src=""img/food4.png"" style=""width:200px; border:14px solid green;"">","null","","","","","","","","","",""
"","image-keyboard-response","252","1250669","0.0-340.0","39JEC7537VNB1KD7DSLR5MH26GTVCR","A336V7IY38Q2WN","3WRBLBQ2GRU63BU2LFOJL1G32T90GO","","364","img/food4.png","76","364","3","1","","1","1","1,0.5,0,1,0.5,0,0.5,0,1","0.5,0,1,0.5,0,1,0,1,0.5","2",""
"","html-keyboard-response","253","1250974","0.0-341.0","39JEC7537VNB1KD7DSLR5MH26GTVCR","A336V7IY38Q2WN","3WRBLBQ2GRU63BU2LFOJL1G32T90GO","","null","<img src=""img/food4.png"" style=""width:200px; border:14px solid green;"">","null","","","","","","","","","",""
"","image-keyboard-response","254","1251397","0.0-342.0","39JEC7537VNB1KD7DSLR5MH26GTVCR","A336V7IY38Q2WN","3WRBLBQ2GRU63BU2LFOJL1G32T90GO","","422","img/food5.png","76","424","3","1","","3","1","1,0.5,0,1,0.5,0,0.5,0,1","0.5,0,1,0.5,0,1,0,1,0.5","2",""
"","html-keyboard-response","255","1251704","0.0-343.0","39JEC7537VNB1KD7DSLR5MH26GTVCR","A336V7IY38Q2WN","3WRBLBQ2GRU63BU2LFOJL1G32T90GO","","null","<img src=""img/food5.png"" style=""width:200px; border:14px solid green;"">","null","","","","","","","","","",""
"","image-keyboard-response","256","1252069","0.0-344.0","39JEC7537VNB1KD7DSLR5MH26GTVCR","A336V7IY38Q2WN","3WRBLBQ2GRU63BU2LFOJL1G32T90GO","","363","img/food4.png","75","365","2","0","","1","1","1,0.5,0,1,0.5,0,0.5,0,1","0.5,0,1,0.5,0,1,0,1,0.5","2",""
"","html-keyboard-response","257","1252374","0.0-345.0","39JEC7537VNB1KD7DSLR5MH26GTVCR","A336V7IY38Q2WN","3WRBLBQ2GRU63BU2LFOJL1G32T90GO","","null","<img src=""img/food4.png"" style=""width:200px;border:14px solid red;"">","null","","","","","","","","","",""
"","image-keyboard-response","258","1252789","0.0-346.0","39JEC7537VNB1KD7DSLR5MH26GTVCR","A336V7IY38Q2WN","3WRBLBQ2GRU63BU2LFOJL1G32T90GO","","413","img/food6.png","76","414","3","1","","2","1","1,0.5,0,1,0.5,0,0.5,0,1","0.5,0,1,0.5,0,1,0,1,0.5","2",""
"","html-keyboard-response","259","1253094","0.0-347.0","39JEC7537VNB1KD7DSLR5MH26GTVCR","A336V7IY38Q2WN","3WRBLBQ2GRU63BU2LFOJL1G32T90GO","","null","<img src=""img/food6.png"" style=""width:200px; border:14px solid green;"">","null","","","","","","","","","",""
"","image-keyboard-response","260","1253524","0.0-348.0","39JEC7537VNB1KD7DSLR5MH26GTVCR","A336V7IY38Q2WN","3WRBLBQ2GRU63BU2LFOJL1G32T90GO","","429","img/food4.png","76","429","3","1","","1","1","1,0.5,0,1,0.5,0,0.5,0,1","0.5,0,1,0.5,0,1,0,1,0.5","2",""
"","html-keyboard-response","261","1253834","0.0-349.0","39JEC7537VNB1KD7DSLR5MH26GTVCR","A336V7IY38Q2WN","3WRBLBQ2GRU63BU2LFOJL1G32T90GO","","null","<img src=""img/food4.png"" style=""width:200px; border:14px solid green;"">","null","","","","","","","","","",""
"","image-keyboard-response","262","1254477","0.0-350.0","39JEC7537VNB1KD7DSLR5MH26GTVCR","A336V7IY38Q2WN","3WRBLBQ2GRU63BU2LFOJL1G32T90GO","","642","img/food6.png","76","642","3","1","","2","1","1,0.5,0,1,0.5,0,0.5,0,1","0.5,0,1,0.5,0,1,0,1,0.5","2",""
"","html-keyboard-response","263","1254783","0.0-351.0","39JEC7537VNB1KD7DSLR5MH26GTVCR","A336V7IY38Q2WN","3WRBLBQ2GRU63BU2LFOJL1G32T90GO","","null","<img src=""img/food6.png"" style=""width:200px; border:14px solid green;"">","null","","","","","","","","","",""
"","image-keyboard-response","264","1255036","0.0-352.0","39JEC7537VNB1KD7DSLR5MH26GTVCR","A336V7IY38Q2WN","3WRBLBQ2GRU63BU2LFOJL1G32T90GO","","252","img/food5.png","75","252","2","1","","3","1","1,0.5,0,1,0.5,0,0.5,0,1","0.5,0,1,0.5,0,1,0,1,0.5","2",""
"","html-keyboard-response","265","1255344","0.0-353.0","39JEC7537VNB1KD7DSLR5MH26GTVCR","A336V7IY38Q2WN","3WRBLBQ2GRU63BU2LFOJL1G32T90GO","","null","<img src=""img/food5.png"" style=""width:200px; border:14px solid green;"">","null","","","","","","","","","",""
"","image-keyboard-response","266","1255460","0.0-354.0","39JEC7537VNB1KD7DSLR5MH26GTVCR","A336V7IY38Q2WN","3WRBLBQ2GRU63BU2LFOJL1G32T90GO","","115","img/food6.png","74","116","1","1","","2","1","1,0.5,0,1,0.5,0,0.5,0,1","0.5,0,1,0.5,0,1,0,1,0.5","2",""
"","html-keyboard-response","267","1255764","0.0-355.0","39JEC7537VNB1KD7DSLR5MH26GTVCR","A336V7IY38Q2WN","3WRBLBQ2GRU63BU2LFOJL1G32T90GO","","null","<img src=""img/food6.png"" style=""width:200px; border:14px solid green;"">","null","","","","","","","","","",""
"","image-keyboard-response","268","1256134","0.0-356.0","39JEC7537VNB1KD7DSLR5MH26GTVCR","A336V7IY38Q2WN","3WRBLBQ2GRU63BU2LFOJL1G32T90GO","","369","img/food6.png","76","369","3","1","","2","1","1,0.5,0,1,0.5,0,0.5,0,1","0.5,0,1,0.5,0,1,0,1,0.5","2",""
"","html-keyboard-response","269","1256444","0.0-357.0","39JEC7537VNB1KD7DSLR5MH26GTVCR","A336V7IY38Q2WN","3WRBLBQ2GRU63BU2LFOJL1G32T90GO","","null","<img src=""img/food6.png"" style=""width:200px; border:14px solid green;"">","null","","","","","","","","","",""
"","image-keyboard-response","270","1256836","0.0-358.0","39JEC7537VNB1KD7DSLR5MH26GTVCR","A336V7IY38Q2WN","3WRBLBQ2GRU63BU2LFOJL1G32T90GO","","391","img/food4.png","76","393","3","1","","1","1","1,0.5,0,1,0.5,0,0.5,0,1","0.5,0,1,0.5,0,1,0,1,0.5","2",""
"","html-keyboard-response","271","1257144","0.0-359.0","39JEC7537VNB1KD7DSLR5MH26GTVCR","A336V7IY38Q2WN","3WRBLBQ2GRU63BU2LFOJL1G32T90GO","","null","<img src=""img/food4.png"" style=""width:200px; border:14px solid green;"">","null","","","","","","","","","",""
"","image-keyboard-response","272","1257565","0.0-360.0","39JEC7537VNB1KD7DSLR5MH26GTVCR","A336V7IY38Q2WN","3WRBLBQ2GRU63BU2LFOJL1G32T90GO","","419","img/food4.png","76","421","3","1","","1","1","1,0.5,0,1,0.5,0,0.5,0,1","0.5,0,1,0.5,0,1,0,1,0.5","2",""
"","html-keyboard-response","273","1257874","0.0-361.0","39JEC7537VNB1KD7DSLR5MH26GTVCR","A336V7IY38Q2WN","3WRBLBQ2GRU63BU2LFOJL1G32T90GO","","null","<img src=""img/food4.png"" style=""width:200px; border:14px solid green;"">","null","","","","","","","","","",""
"","image-keyboard-response","274","1258412","0.0-362.0","39JEC7537VNB1KD7DSLR5MH26GTVCR","A336V7IY38Q2WN","3WRBLBQ2GRU63BU2LFOJL1G32T90GO","","537","img/food5.png","75","538","2","1","","3","1","1,0.5,0,1,0.5,0,0.5,0,1","0.5,0,1,0.5,0,1,0,1,0.5","2",""
"","html-keyboard-response","275","1258714","0.0-363.0","39JEC7537VNB1KD7DSLR5MH26GTVCR","A336V7IY38Q2WN","3WRBLBQ2GRU63BU2LFOJL1G32T90GO","","null","<img src=""img/food5.png"" style=""width:200px; border:14px solid green;"">","null","","","","","","","","","",""
"","image-keyboard-response","276","1258741","0.0-364.0","39JEC7537VNB1KD7DSLR5MH26GTVCR","A336V7IY38Q2WN","3WRBLBQ2GRU63BU2LFOJL1G32T90GO","","26","img/food5.png","74","27","1","0","","3","1","1,0.5,0,1,0.5,0,0.5,0,1","0.5,0,1,0.5,0,1,0,1,0.5","2",""
"","html-keyboard-response","277","1259044","0.0-365.0","39JEC7537VNB1KD7DSLR5MH26GTVCR","A336V7IY38Q2WN","3WRBLBQ2GRU63BU2LFOJL1G32T90GO","","null","<img src=""img/food5.png"" style=""width:200px;border:14px solid red;"">","null","","","","","","","","","",""
"","image-keyboard-response","278","1259453","0.0-366.0","39JEC7537VNB1KD7DSLR5MH26GTVCR","A336V7IY38Q2WN","3WRBLBQ2GRU63BU2LFOJL1G32T90GO","","408","img/food6.png","75","409","2","0","","2","1","1,0.5,0,1,0.5,0,0.5,0,1","0.5,0,1,0.5,0,1,0,1,0.5","2",""
"","html-keyboard-response","279","1259764","0.0-367.0","39JEC7537VNB1KD7DSLR5MH26GTVCR","A336V7IY38Q2WN","3WRBLBQ2GRU63BU2LFOJL1G32T90GO","","null","<img src=""img/food6.png"" style=""width:200px;border:14px solid red;"">","null","","","","","","","","","",""
"","image-keyboard-response","280","1260317","0.0-368.0","39JEC7537VNB1KD7DSLR5MH26GTVCR","A336V7IY38Q2WN","3WRBLBQ2GRU63BU2LFOJL1G32T90GO","","551","img/food5.png","76","553","3","1","","3","1","1,0.5,0,1,0.5,0,0.5,0,1","0.5,0,1,0.5,0,1,0,1,0.5","2",""
"","html-keyboard-response","281","1260623","0.0-369.0","39JEC7537VNB1KD7DSLR5MH26GTVCR","A336V7IY38Q2WN","3WRBLBQ2GRU63BU2LFOJL1G32T90GO","","null","<img src=""img/food5.png"" style=""width:200px; border:14px solid green;"">","null","","","","","","","","","",""
"","image-keyboard-response","282","1261164","0.0-370.0","39JEC7537VNB1KD7DSLR5MH26GTVCR","A336V7IY38Q2WN","3WRBLBQ2GRU63BU2LFOJL1G32T90GO","","539","img/food6.png","76","540","3","1","","2","1","1,0.5,0,1,0.5,0,0.5,0,1","0.5,0,1,0.5,0,1,0,1,0.5","2",""
"","html-keyboard-response","283","1261474","0.0-371.0","39JEC7537VNB1KD7DSLR5MH26GTVCR","A336V7IY38Q2WN","3WRBLBQ2GRU63BU2LFOJL1G32T90GO","","null","<img src=""img/food6.png"" style=""width:200px; border:14px solid green;"">","null","","","","","","","","","",""
"","image-keyboard-response","284","1262014","0.0-372.0","39JEC7537VNB1KD7DSLR5MH26GTVCR","A336V7IY38Q2WN","3WRBLBQ2GRU63BU2LFOJL1G32T90GO","","539","img/food4.png","76","540","3","1","","1","1","1,0.5,0,1,0.5,0,0.5,0,1","0.5,0,1,0.5,0,1,0,1,0.5","2",""
"","html-keyboard-response","285","1262324","0.0-373.0","39JEC7537VNB1KD7DSLR5MH26GTVCR","A336V7IY38Q2WN","3WRBLBQ2GRU63BU2LFOJL1G32T90GO","","null","<img src=""img/food4.png"" style=""width:200px; border:14px solid green;"">","null","","","","","","","","","",""
"","image-keyboard-response","286","1262708","0.0-374.0","39JEC7537VNB1KD7DSLR5MH26GTVCR","A336V7IY38Q2WN","3WRBLBQ2GRU63BU2LFOJL1G32T90GO","","383","img/food4.png","76","383","3","1","","1","1","1,0.5,0,1,0.5,0,0.5,0,1","0.5,0,1,0.5,0,1,0,1,0.5","2",""
"","html-keyboard-response","287","1263014","0.0-375.0","39JEC7537VNB1KD7DSLR5MH26GTVCR","A336V7IY38Q2WN","3WRBLBQ2GRU63BU2LFOJL1G32T90GO","","null","<img src=""img/food4.png"" style=""width:200px; border:14px solid green;"">","null","","","","","","","","","",""
"","image-keyboard-response","288","1263341","0.0-376.0","39JEC7537VNB1KD7DSLR5MH26GTVCR","A336V7IY38Q2WN","3WRBLBQ2GRU63BU2LFOJL1G32T90GO","","325","img/food5.png","76","326","3","0","","3","1","1,0.5,0,1,0.5,0,0.5,0,1","0.5,0,1,0.5,0,1,0,1,0.5","2",""
"","html-keyboard-response","289","1263644","0.0-377.0","39JEC7537VNB1KD7DSLR5MH26GTVCR","A336V7IY38Q2WN","3WRBLBQ2GRU63BU2LFOJL1G32T90GO","","null","<img src=""img/food5.png"" style=""width:200px;border:14px solid red;"">","null","","","","","","","","","",""
"","image-keyboard-response","290","1263852","0.0-378.0","39JEC7537VNB1KD7DSLR5MH26GTVCR","A336V7IY38Q2WN","3WRBLBQ2GRU63BU2LFOJL1G32T90GO","","208","img/food4.png","75","208","2","0","","1","1","1,0.5,0,1,0.5,0,0.5,0,1","0.5,0,1,0.5,0,1,0,1,0.5","2",""
"","html-keyboard-response","291","1264154","0.0-379.0","39JEC7537VNB1KD7DSLR5MH26GTVCR","A336V7IY38Q2WN","3WRBLBQ2GRU63BU2LFOJL1G32T90GO","","null","<img src=""img/food4.png"" style=""width:200px;border:14px solid red;"">","null","","","","","","","","","",""
"","image-keyboard-response","292","1264484","0.0-380.0","39JEC7537VNB1KD7DSLR5MH26GTVCR","A336V7IY38Q2WN","3WRBLBQ2GRU63BU2LFOJL1G32T90GO","","329","img/food4.png","74","329","1","0","","1","1","1,0.5,0,1,0.5,0,0.5,0,1","0.5,0,1,0.5,0,1,0,1,0.5","2",""
"","html-keyboard-response","293","1264794","0.0-381.0","39JEC7537VNB1KD7DSLR5MH26GTVCR","A336V7IY38Q2WN","3WRBLBQ2GRU63BU2LFOJL1G32T90GO","","null","<img src=""img/food4.png"" style=""width:200px;border:14px solid red;"">","null","","","","","","","","","",""
"","image-keyboard-response","294","1265245","0.0-382.0","39JEC7537VNB1KD7DSLR5MH26GTVCR","A336V7IY38Q2WN","3WRBLBQ2GRU63BU2LFOJL1G32T90GO","","449","img/food6.png","76","450","3","1","","2","1","1,0.5,0,1,0.5,0,0.5,0,1","0.5,0,1,0.5,0,1,0,1,0.5","2",""
"","html-keyboard-response","295","1265554","0.0-383.0","39JEC7537VNB1KD7DSLR5MH26GTVCR","A336V7IY38Q2WN","3WRBLBQ2GRU63BU2LFOJL1G32T90GO","","null","<img src=""img/food6.png"" style=""width:200px; border:14px solid green;"">","null","","","","","","","","","",""
"","image-keyboard-response","296","1265957","0.0-384.0","39JEC7537VNB1KD7DSLR5MH26GTVCR","A336V7IY38Q2WN","3WRBLBQ2GRU63BU2LFOJL1G32T90GO","","402","img/food6.png","76","402","3","1","","2","1","1,0.5,0,1,0.5,0,0.5,0,1","0.5,0,1,0.5,0,1,0,1,0.5","2",""
"","html-keyboard-response","297","1266264","0.0-385.0","39JEC7537VNB1KD7DSLR5MH26GTVCR","A336V7IY38Q2WN","3WRBLBQ2GRU63BU2LFOJL1G32T90GO","","null","<img src=""img/food6.png"" style=""width:200px; border:14px solid green;"">","null","","","","","","","","","",""
"","image-keyboard-response","298","1266588","0.0-386.0","39JEC7537VNB1KD7DSLR5MH26GTVCR","A336V7IY38Q2WN","3WRBLBQ2GRU63BU2LFOJL1G32T90GO","","323","img/food4.png","76","325","3","1","","1","1","1,0.5,0,1,0.5,0,0.5,0,1","0.5,0,1,0.5,0,1,0,1,0.5","2",""
"","html-keyboard-response","299","1266894","0.0-387.0","39JEC7537VNB1KD7DSLR5MH26GTVCR","A336V7IY38Q2WN","3WRBLBQ2GRU63BU2LFOJL1G32T90GO","","null","<img src=""img/food4.png"" style=""width:200px; border:14px solid green;"">","null","","","","","","","","","",""
"","image-keyboard-response","300","1267196","0.0-388.0","39JEC7537VNB1KD7DSLR5MH26GTVCR","A336V7IY38Q2WN","3WRBLBQ2GRU63BU2LFOJL1G32T90GO","","301","img/food6.png","75","302","2","0","","2","1","1,0.5,0,1,0.5,0,0.5,0,1","0.5,0,1,0.5,0,1,0,1,0.5","2",""
"","html-keyboard-response","301","1267504","0.0-389.0","39JEC7537VNB1KD7DSLR5MH26GTVCR","A336V7IY38Q2WN","3WRBLBQ2GRU63BU2LFOJL1G32T90GO","","null","<img src=""img/food6.png"" style=""width:200px;border:14px solid red;"">","null","","","","","","","","","",""
"","image-keyboard-response","302","1267804","0.0-390.0","39JEC7537VNB1KD7DSLR5MH26GTVCR","A336V7IY38Q2WN","3WRBLBQ2GRU63BU2LFOJL1G32T90GO","","299","img/food6.png","74","300","1","0","","2","1","1,0.5,0,1,0.5,0,0.5,0,1","0.5,0,1,0.5,0,1,0,1,0.5","2",""
"","html-keyboard-response","303","1268114","0.0-391.0","39JEC7537VNB1KD7DSLR5MH26GTVCR","A336V7IY38Q2WN","3WRBLBQ2GRU63BU2LFOJL1G32T90GO","","null","<img src=""img/food6.png"" style=""width:200px;border:14px solid red;"">","null","","","","","","","","","",""
"","image-keyboard-response","304","1268501","0.0-392.0","39JEC7537VNB1KD7DSLR5MH26GTVCR","A336V7IY38Q2WN","3WRBLBQ2GRU63BU2LFOJL1G32T90GO","","387","img/food5.png","76","387","3","0","","3","1","1,0.5,0,1,0.5,0,0.5,0,1","0.5,0,1,0.5,0,1,0,1,0.5","2",""
"","html-keyboard-response","305","1268804","0.0-393.0","39JEC7537VNB1KD7DSLR5MH26GTVCR","A336V7IY38Q2WN","3WRBLBQ2GRU63BU2LFOJL1G32T90GO","","null","<img src=""img/food5.png"" style=""width:200px;border:14px solid red;"">","null","","","","","","","","","",""
"","image-keyboard-response","306","1269164","0.0-394.0","39JEC7537VNB1KD7DSLR5MH26GTVCR","A336V7IY38Q2WN","3WRBLBQ2GRU63BU2LFOJL1G32T90GO","","359","img/food5.png","76","360","3","0","","3","1","1,0.5,0,1,0.5,0,0.5,0,1","0.5,0,1,0.5,0,1,0,1,0.5","2",""
"","html-keyboard-response","307","1269473","0.0-395.0","39JEC7537VNB1KD7DSLR5MH26GTVCR","A336V7IY38Q2WN","3WRBLBQ2GRU63BU2LFOJL1G32T90GO","","null","<img src=""img/food5.png"" style=""width:200px;border:14px solid red;"">","null","","","","","","","","","",""
"","image-keyboard-response","308","1269733","0.0-396.0","39JEC7537VNB1KD7DSLR5MH26GTVCR","A336V7IY38Q2WN","3WRBLBQ2GRU63BU2LFOJL1G32T90GO","","258","img/food6.png","75","258","2","0","","2","1","1,0.5,0,1,0.5,0,0.5,0,1","0.5,0,1,0.5,0,1,0,1,0.5","2",""
"","html-keyboard-response","309","1270033","0.0-397.0","39JEC7537VNB1KD7DSLR5MH26GTVCR","A336V7IY38Q2WN","3WRBLBQ2GRU63BU2LFOJL1G32T90GO","","null","<img src=""img/food6.png"" style=""width:200px;border:14px solid red;"">","null","","","","","","","","","",""
"","image-keyboard-response","310","1270524","0.0-398.0","39JEC7537VNB1KD7DSLR5MH26GTVCR","A336V7IY38Q2WN","3WRBLBQ2GRU63BU2LFOJL1G32T90GO","","489","img/food6.png","74","490","1","1","","2","1","1,0.5,0,1,0.5,0,0.5,0,1","0.5,0,1,0.5,0,1,0,1,0.5","2",""
"","html-keyboard-response","311","1270833","0.0-399.0","39JEC7537VNB1KD7DSLR5MH26GTVCR","A336V7IY38Q2WN","3WRBLBQ2GRU63BU2LFOJL1G32T90GO","","null","<img src=""img/food6.png"" style=""width:200px; border:14px solid green;"">","null","","","","","","","","","",""
"","image-keyboard-response","312","1271204","0.0-400.0","39JEC7537VNB1KD7DSLR5MH26GTVCR","A336V7IY38Q2WN","3WRBLBQ2GRU63BU2LFOJL1G32T90GO","","370","img/food6.png","74","371","1","0","","2","1","1,0.5,0,1,0.5,0,0.5,0,1","0.5,0,1,0.5,0,1,0,1,0.5","2",""
"","html-keyboard-response","313","1271514","0.0-401.0","39JEC7537VNB1KD7DSLR5MH26GTVCR","A336V7IY38Q2WN","3WRBLBQ2GRU63BU2LFOJL1G32T90GO","","null","<img src=""img/food6.png"" style=""width:200px;border:14px solid red;"">","null","","","","","","","","","",""
"","image-keyboard-response","314","1271997","0.0-402.0","39JEC7537VNB1KD7DSLR5MH26GTVCR","A336V7IY38Q2WN","3WRBLBQ2GRU63BU2LFOJL1G32T90GO","","481","img/food5.png","75","482","2","1","","3","1","1,0.5,0,1,0.5,0,0.5,0,1","0.5,0,1,0.5,0,1,0,1,0.5","2",""
"","html-keyboard-response","315","1272304","0.0-403.0","39JEC7537VNB1KD7DSLR5MH26GTVCR","A336V7IY38Q2WN","3WRBLBQ2GRU63BU2LFOJL1G32T90GO","","null","<img src=""img/food5.png"" style=""width:200px; border:14px solid green;"">","null","","","","","","","","","",""
"","image-keyboard-response","316","1272716","0.0-404.0","39JEC7537VNB1KD7DSLR5MH26GTVCR","A336V7IY38Q2WN","3WRBLBQ2GRU63BU2LFOJL1G32T90GO","","411","img/food6.png","76","412","3","1","","2","1","1,0.5,0,1,0.5,0,0.5,0,1","0.5,0,1,0.5,0,1,0,1,0.5","2",""
"","html-keyboard-response","317","1273024","0.0-405.0","39JEC7537VNB1KD7DSLR5MH26GTVCR","A336V7IY38Q2WN","3WRBLBQ2GRU63BU2LFOJL1G32T90GO","","null","<img src=""img/food6.png"" style=""width:200px; border:14px solid green;"">","null","","","","","","","","","",""
"","image-keyboard-response","318","1273076","0.0-406.0","39JEC7537VNB1KD7DSLR5MH26GTVCR","A336V7IY38Q2WN","3WRBLBQ2GRU63BU2LFOJL1G32T90GO","","51","img/food6.png","76","53","3","1","","2","1","1,0.5,0,1,0.5,0,0.5,0,1","0.5,0,1,0.5,0,1,0,1,0.5","2",""
"","html-keyboard-response","319","1273384","0.0-407.0","39JEC7537VNB1KD7DSLR5MH26GTVCR","A336V7IY38Q2WN","3WRBLBQ2GRU63BU2LFOJL1G32T90GO","","null","<img src=""img/food6.png"" style=""width:200px; border:14px solid green;"">","null","","","","","","","","","",""
"","image-keyboard-response","320","1273733","0.0-408.0","39JEC7537VNB1KD7DSLR5MH26GTVCR","A336V7IY38Q2WN","3WRBLBQ2GRU63BU2LFOJL1G32T90GO","","347","img/food6.png","76","349","3","1","","2","1","1,0.5,0,1,0.5,0,0.5,0,1","0.5,0,1,0.5,0,1,0,1,0.5","2",""
"","html-keyboard-response","321","1274034","0.0-409.0","39JEC7537VNB1KD7DSLR5MH26GTVCR","A336V7IY38Q2WN","3WRBLBQ2GRU63BU2LFOJL1G32T90GO","","null","<img src=""img/food6.png"" style=""width:200px; border:14px solid green;"">","null","","","","","","","","","",""
"","image-keyboard-response","322","1274476","0.0-410.0","39JEC7537VNB1KD7DSLR5MH26GTVCR","A336V7IY38Q2WN","3WRBLBQ2GRU63BU2LFOJL1G32T90GO","","442","img/food5.png","76","442","3","0","","3","1","1,0.5,0,1,0.5,0,0.5,0,1","0.5,0,1,0.5,0,1,0,1,0.5","2",""
"","html-keyboard-response","323","1274784","0.0-411.0","39JEC7537VNB1KD7DSLR5MH26GTVCR","A336V7IY38Q2WN","3WRBLBQ2GRU63BU2LFOJL1G32T90GO","","null","<img src=""img/food5.png"" style=""width:200px;border:14px solid red;"">","null","","","","","","","","","",""
"","image-keyboard-response","324","1274852","0.0-412.0","39JEC7537VNB1KD7DSLR5MH26GTVCR","A336V7IY38Q2WN","3WRBLBQ2GRU63BU2LFOJL1G32T90GO","","67","img/food6.png","75","69","2","0","","2","1","1,0.5,0,1,0.5,0,0.5,0,1","0.5,0,1,0.5,0,1,0,1,0.5","2",""
"","html-keyboard-response","325","1275153","0.0-413.0","39JEC7537VNB1KD7DSLR5MH26GTVCR","A336V7IY38Q2WN","3WRBLBQ2GRU63BU2LFOJL1G32T90GO","","null","<img src=""img/food6.png"" style=""width:200px;border:14px solid red;"">","null","","","","","","","","","",""
"","image-keyboard-response","326","1275628","0.0-414.0","39JEC7537VNB1KD7DSLR5MH26GTVCR","A336V7IY38Q2WN","3WRBLBQ2GRU63BU2LFOJL1G32T90GO","","473","img/food5.png","74","474","1","0","","3","1","1,0.5,0,1,0.5,0,0.5,0,1","0.5,0,1,0.5,0,1,0,1,0.5","2",""
"","html-keyboard-response","327","1275934","0.0-415.0","39JEC7537VNB1KD7DSLR5MH26GTVCR","A336V7IY38Q2WN","3WRBLBQ2GRU63BU2LFOJL1G32T90GO","","null","<img src=""img/food5.png"" style=""width:200px;border:14px solid red;"">","null","","","","","","","","","",""
"","image-keyboard-response","328","1276404","0.0-416.0","39JEC7537VNB1KD7DSLR5MH26GTVCR","A336V7IY38Q2WN","3WRBLBQ2GRU63BU2LFOJL1G32T90GO","","470","img/food6.png","75","470","2","0","","2","1","1,0.5,0,1,0.5,0,0.5,0,1","0.5,0,1,0.5,0,1,0,1,0.5","2",""
"","html-keyboard-response","329","1276713","0.0-417.0","39JEC7537VNB1KD7DSLR5MH26GTVCR","A336V7IY38Q2WN","3WRBLBQ2GRU63BU2LFOJL1G32T90GO","","null","<img src=""img/food6.png"" style=""width:200px;border:14px solid red;"">","null","","","","","","","","","",""
"","image-keyboard-response","330","1277220","0.0-418.0","39JEC7537VNB1KD7DSLR5MH26GTVCR","A336V7IY38Q2WN","3WRBLBQ2GRU63BU2LFOJL1G32T90GO","","505","img/food5.png","76","505","3","0","","3","1","1,0.5,0,1,0.5,0,0.5,0,1","0.5,0,1,0.5,0,1,0,1,0.5","2",""
"","html-keyboard-response","331","1277524","0.0-419.0","39JEC7537VNB1KD7DSLR5MH26GTVCR","A336V7IY38Q2WN","3WRBLBQ2GRU63BU2LFOJL1G32T90GO","","null","<img src=""img/food5.png"" style=""width:200px;border:14px solid red;"">","null","","","","","","","","","",""
"","image-keyboard-response","332","1278172","0.0-420.0","39JEC7537VNB1KD7DSLR5MH26GTVCR","A336V7IY38Q2WN","3WRBLBQ2GRU63BU2LFOJL1G32T90GO","","647","img/food4.png","76","648","3","1","","1","1","1,0.5,0,1,0.5,0,0.5,0,1","0.5,0,1,0.5,0,1,0,1,0.5","2",""
"","html-keyboard-response","333","1278474","0.0-421.0","39JEC7537VNB1KD7DSLR5MH26GTVCR","A336V7IY38Q2WN","3WRBLBQ2GRU63BU2LFOJL1G32T90GO","","null","<img src=""img/food4.png"" style=""width:200px; border:14px solid green;"">","null","","","","","","","","","",""
"","image-keyboard-response","334","1279004","0.0-422.0","39JEC7537VNB1KD7DSLR5MH26GTVCR","A336V7IY38Q2WN","3WRBLBQ2GRU63BU2LFOJL1G32T90GO","","529","img/food6.png","76","530","3","1","","2","1","1,0.5,0,1,0.5,0,0.5,0,1","0.5,0,1,0.5,0,1,0,1,0.5","2",""
"","html-keyboard-response","335","1279314","0.0-423.0","39JEC7537VNB1KD7DSLR5MH26GTVCR","A336V7IY38Q2WN","3WRBLBQ2GRU63BU2LFOJL1G32T90GO","","null","<img src=""img/food6.png"" style=""width:200px; border:14px solid green;"">","null","","","","","","","","","",""
"","image-keyboard-response","336","1279740","0.0-424.0","39JEC7537VNB1KD7DSLR5MH26GTVCR","A336V7IY38Q2WN","3WRBLBQ2GRU63BU2LFOJL1G32T90GO","","425","img/food5.png","76","425","3","1","","3","1","1,0.5,0,1,0.5,0,0.5,0,1","0.5,0,1,0.5,0,1,0,1,0.5","2",""
"","html-keyboard-response","337","1280044","0.0-425.0","39JEC7537VNB1KD7DSLR5MH26GTVCR","A336V7IY38Q2WN","3WRBLBQ2GRU63BU2LFOJL1G32T90GO","","null","<img src=""img/food5.png"" style=""width:200px; border:14px solid green;"">","null","","","","","","","","","",""
"","image-keyboard-response","338","1280348","0.0-426.0","39JEC7537VNB1KD7DSLR5MH26GTVCR","A336V7IY38Q2WN","3WRBLBQ2GRU63BU2LFOJL1G32T90GO","","303","img/food5.png","76","303","3","0","","3","1","1,0.5,0,1,0.5,0,0.5,0,1","0.5,0,1,0.5,0,1,0,1,0.5","2",""
"","html-keyboard-response","339","1280654","0.0-427.0","39JEC7537VNB1KD7DSLR5MH26GTVCR","A336V7IY38Q2WN","3WRBLBQ2GRU63BU2LFOJL1G32T90GO","","null","<img src=""img/food5.png"" style=""width:200px;border:14px solid red;"">","null","","","","","","","","","",""
"","image-keyboard-response","340","1281132","0.0-428.0","39JEC7537VNB1KD7DSLR5MH26GTVCR","A336V7IY38Q2WN","3WRBLBQ2GRU63BU2LFOJL1G32T90GO","","478","img/food4.png","76","479","3","1","","1","1","1,0.5,0,1,0.5,0,0.5,0,1","0.5,0,1,0.5,0,1,0,1,0.5","2",""
"","html-keyboard-response","341","1281434","0.0-429.0","39JEC7537VNB1KD7DSLR5MH26GTVCR","A336V7IY38Q2WN","3WRBLBQ2GRU63BU2LFOJL1G32T90GO","","null","<img src=""img/food4.png"" style=""width:200px; border:14px solid green;"">","null","","","","","","","","","",""
"","image-keyboard-response","342","1281700","0.0-430.0","39JEC7537VNB1KD7DSLR5MH26GTVCR","A336V7IY38Q2WN","3WRBLBQ2GRU63BU2LFOJL1G32T90GO","","265","img/food5.png","76","267","3","0","","3","1","1,0.5,0,1,0.5,0,0.5,0,1","0.5,0,1,0.5,0,1,0,1,0.5","2",""
"","html-keyboard-response","343","1282004","0.0-431.0","39JEC7537VNB1KD7DSLR5MH26GTVCR","A336V7IY38Q2WN","3WRBLBQ2GRU63BU2LFOJL1G32T90GO","","null","<img src=""img/food5.png"" style=""width:200px;border:14px solid red;"">","null","","","","","","","","","",""
"","image-keyboard-response","344","1282356","0.0-432.0","39JEC7537VNB1KD7DSLR5MH26GTVCR","A336V7IY38Q2WN","3WRBLBQ2GRU63BU2LFOJL1G32T90GO","","351","img/food4.png","76","352","3","1","","1","1","1,0.5,0,1,0.5,0,0.5,0,1","0.5,0,1,0.5,0,1,0,1,0.5","2",""
"","html-keyboard-response","345","1282664","0.0-433.0","39JEC7537VNB1KD7DSLR5MH26GTVCR","A336V7IY38Q2WN","3WRBLBQ2GRU63BU2LFOJL1G32T90GO","","null","<img src=""img/food4.png"" style=""width:200px; border:14px solid green;"">","null","","","","","","","","","",""
"","image-keyboard-response","346","1283164","0.0-434.0","39JEC7537VNB1KD7DSLR5MH26GTVCR","A336V7IY38Q2WN","3WRBLBQ2GRU63BU2LFOJL1G32T90GO","","499","img/food6.png","76","501","3","1","","2","1","1,0.5,0,1,0.5,0,0.5,0,1","0.5,0,1,0.5,0,1,0,1,0.5","2",""
"","html-keyboard-response","347","1283473","0.0-435.0","39JEC7537VNB1KD7DSLR5MH26GTVCR","A336V7IY38Q2WN","3WRBLBQ2GRU63BU2LFOJL1G32T90GO","","null","<img src=""img/food6.png"" style=""width:200px; border:14px solid green;"">","null","","","","","","","","","",""
"","image-keyboard-response","348","1283788","0.0-436.0","39JEC7537VNB1KD7DSLR5MH26GTVCR","A336V7IY38Q2WN","3WRBLBQ2GRU63BU2LFOJL1G32T90GO","","313","img/food4.png","76","313","3","1","","1","1","1,0.5,0,1,0.5,0,0.5,0,1","0.5,0,1,0.5,0,1,0,1,0.5","2",""
"","html-keyboard-response","349","1284094","0.0-437.0","39JEC7537VNB1KD7DSLR5MH26GTVCR","A336V7IY38Q2WN","3WRBLBQ2GRU63BU2LFOJL1G32T90GO","","null","<img src=""img/food4.png"" style=""width:200px; border:14px solid green;"">","null","","","","","","","","","",""
"","image-keyboard-response","350","1284508","0.0-438.0","39JEC7537VNB1KD7DSLR5MH26GTVCR","A336V7IY38Q2WN","3WRBLBQ2GRU63BU2LFOJL1G32T90GO","","413","img/food5.png","75","415","2","1","","3","1","1,0.5,0,1,0.5,0,0.5,0,1","0.5,0,1,0.5,0,1,0,1,0.5","2",""
"","html-keyboard-response","351","1284814","0.0-439.0","39JEC7537VNB1KD7DSLR5MH26GTVCR","A336V7IY38Q2WN","3WRBLBQ2GRU63BU2LFOJL1G32T90GO","","null","<img src=""img/food5.png"" style=""width:200px; border:14px solid green;"">","null","","","","","","","","","",""
"","image-keyboard-response","352","1284868","0.0-440.0","39JEC7537VNB1KD7DSLR5MH26GTVCR","A336V7IY38Q2WN","3WRBLBQ2GRU63BU2LFOJL1G32T90GO","","54","img/food6.png","76","54","3","1","","2","1","1,0.5,0,1,0.5,0,0.5,0,1","0.5,0,1,0.5,0,1,0,1,0.5","2",""
"","html-keyboard-response","353","1285174","0.0-441.0","39JEC7537VNB1KD7DSLR5MH26GTVCR","A336V7IY38Q2WN","3WRBLBQ2GRU63BU2LFOJL1G32T90GO","","null","<img src=""img/food6.png"" style=""width:200px; border:14px solid green;"">","null","","","","","","","","","",""
"","image-keyboard-response","354","1285500","0.0-442.0","39JEC7537VNB1KD7DSLR5MH26GTVCR","A336V7IY38Q2WN","3WRBLBQ2GRU63BU2LFOJL1G32T90GO","","325","img/food6.png","76","326","3","1","","2","1","1,0.5,0,1,0.5,0,0.5,0,1","0.5,0,1,0.5,0,1,0,1,0.5","2",""
"","html-keyboard-response","355","1285804","0.0-443.0","39JEC7537VNB1KD7DSLR5MH26GTVCR","A336V7IY38Q2WN","3WRBLBQ2GRU63BU2LFOJL1G32T90GO","","null","<img src=""img/food6.png"" style=""width:200px; border:14px solid green;"">","null","","","","","","","","","",""
"","image-keyboard-response","356","1286396","0.0-444.0","39JEC7537VNB1KD7DSLR5MH26GTVCR","A336V7IY38Q2WN","3WRBLBQ2GRU63BU2LFOJL1G32T90GO","","591","img/food6.png","76","591","3","1","","2","1","1,0.5,0,1,0.5,0,0.5,0,1","0.5,0,1,0.5,0,1,0,1,0.5","2",""
"","html-keyboard-response","357","1286704","0.0-445.0","39JEC7537VNB1KD7DSLR5MH26GTVCR","A336V7IY38Q2WN","3WRBLBQ2GRU63BU2LFOJL1G32T90GO","","null","<img src=""img/food6.png"" style=""width:200px; border:14px solid green;"">","null","","","","","","","","","",""
"","image-keyboard-response","358","1287093","0.0-446.0","39JEC7537VNB1KD7DSLR5MH26GTVCR","A336V7IY38Q2WN","3WRBLBQ2GRU63BU2LFOJL1G32T90GO","","389","img/food4.png","75","389","2","0","","1","1","1,0.5,0,1,0.5,0,0.5,0,1","0.5,0,1,0.5,0,1,0,1,0.5","2",""
"","html-keyboard-response","359","1287404","0.0-447.0","39JEC7537VNB1KD7DSLR5MH26GTVCR","A336V7IY38Q2WN","3WRBLBQ2GRU63BU2LFOJL1G32T90GO","","null","<img src=""img/food4.png"" style=""width:200px;border:14px solid red;"">","null","","","","","","","","","",""
"","image-keyboard-response","360","1287580","0.0-448.0","39JEC7537VNB1KD7DSLR5MH26GTVCR","A336V7IY38Q2WN","3WRBLBQ2GRU63BU2LFOJL1G32T90GO","","175","img/food4.png","74","176","1","1","","1","1","1,0.5,0,1,0.5,0,0.5,0,1","0.5,0,1,0.5,0,1,0,1,0.5","2",""
"","html-keyboard-response","361","1287884","0.0-449.0","39JEC7537VNB1KD7DSLR5MH26GTVCR","A336V7IY38Q2WN","3WRBLBQ2GRU63BU2LFOJL1G32T90GO","","null","<img src=""img/food4.png"" style=""width:200px; border:14px solid green;"">","null","","","","","","","","","",""
"","image-keyboard-response","362","1288108","0.0-450.0","39JEC7537VNB1KD7DSLR5MH26GTVCR","A336V7IY38Q2WN","3WRBLBQ2GRU63BU2LFOJL1G32T90GO","","224","img/food5.png","76","224","3","1","","3","1","1,0.5,0,1,0.5,0,0.5,0,1","0.5,0,1,0.5,0,1,0,1,0.5","2",""
"","html-keyboard-response","363","1288413","0.0-451.0","39JEC7537VNB1KD7DSLR5MH26GTVCR","A336V7IY38Q2WN","3WRBLBQ2GRU63BU2LFOJL1G32T90GO","","null","<img src=""img/food5.png"" style=""width:200px; border:14px solid green;"">","null","","","","","","","","","",""
"","image-keyboard-response","364","1288524","0.0-452.0","39JEC7537VNB1KD7DSLR5MH26GTVCR","A336V7IY38Q2WN","3WRBLBQ2GRU63BU2LFOJL1G32T90GO","","109","img/food6.png","76","110","3","1","","2","1","1,0.5,0,1,0.5,0,0.5,0,1","0.5,0,1,0.5,0,1,0,1,0.5","2",""
"","html-keyboard-response","365","1288834","0.0-453.0","39JEC7537VNB1KD7DSLR5MH26GTVCR","A336V7IY38Q2WN","3WRBLBQ2GRU63BU2LFOJL1G32T90GO","","null","<img src=""img/food6.png"" style=""width:200px; border:14px solid green;"">","null","","","","","","","","","",""
"","html-keyboard-response","366","1296235","0.0-454.0","39JEC7537VNB1KD7DSLR5MH26GTVCR","A336V7IY38Q2WN","3WRBLBQ2GRU63BU2LFOJL1G32T90GO","","","","","","","","","","","","","",""
"","instructions","367","1297623","0.0-455.0","39JEC7537VNB1KD7DSLR5MH26GTVCR","A336V7IY38Q2WN","3WRBLBQ2GRU63BU2LFOJL1G32T90GO","[{""page_index"":0,""viewing_time"":1388}]","1388","","","","","","","","","","","",""
"","survey-text","368","1303162","0.0-456.0","39JEC7537VNB1KD7DSLR5MH26GTVCR","A336V7IY38Q2WN","3WRBLBQ2GRU63BU2LFOJL1G32T90GO","","5535","","","","","","","","","","","","{""Q0"":""A336V7IY38Q2WN""}"
