"success","trial_type","trial_index","time_elapsed","internal_node_id","assignmentID","mturkID","hitID","view_history","rt","stimulus","key_press","reactionTime","a","r","warning","s","cond","reward_cond","reward_cond_actual","reward_matrix_idx","responses"
"true","fullscreen","0","2041","0.0-0.0","3OWEPKL08AYSHY92KKRPFJVBJVK7NZ","A345VDWYMDWTGD","3PIOQ99R7Y8STPN46QFY0SD7JTFNU0","","","","","","","","","","","","","",""
"","instructions","1","9035","0.0-1.0","3OWEPKL08AYSHY92KKRPFJVBJVK7NZ","A345VDWYMDWTGD","3PIOQ99R7Y8STPN46QFY0SD7JTFNU0","[{""page_index"":0,""viewing_time"":625.5999999046326},{""page_index"":1,""viewing_time"":631.4000000953674},{""page_index"":2,""viewing_time"":667.5999999046326},{""page_index"":3,""viewing_time"":1182.7999997138977},{""page_index"":4,""viewing_time"":1433.6000003814697},{""page_index"":5,""viewing_time"":1399.5},{""page_index"":6,""viewing_time"":1050.5}]","6991.699999809265","","","","","","","","","","","",""
"","instructions","2","14151","0.0-2.0","3OWEPKL08AYSHY92KKRPFJVBJVK7NZ","A345VDWYMDWTGD","3PIOQ99R7Y8STPN46QFY0SD7JTFNU0","[{""page_index"":0,""viewing_time"":1197.7000002861023},{""page_index"":1,""viewing_time"":3916.699999809265}]","5114.800000190735","","","","","","","","","","","",""
"","image-keyboard-response","3","14961","0.0-3.0","3OWEPKL08AYSHY92KKRPFJVBJVK7NZ","A345VDWYMDWTGD","3PIOQ99R7Y8STPN46QFY0SD7JTFNU0","","806.7000002861023","img/food4.png","74","809.1000003814697","1","0","false","1","2","1,0.5,0,1,0.5,0,0.5,0,1","0,1,0.5,0,1,0.5,1,0.5,0","3",""
"","html-keyboard-response","4","15270","0.0-4.0","3OWEPKL08AYSHY92KKRPFJVBJVK7NZ","A345VDWYMDWTGD","3PIOQ99R7Y8STPN46QFY0SD7JTFNU0","","null","<img src=""img/food4.png"" style=""width:200px;border:14px solid red;"">","null","","","","","","","","","",""
"","image-keyboard-response","5","15531","0.0-6.0","3OWEPKL08AYSHY92KKRPFJVBJVK7NZ","A345VDWYMDWTGD","3PIOQ99R7Y8STPN46QFY0SD7JTFNU0","","258","img/food4.png","76","259.8999996185303","3","1","false","1","2","1,0.5,0,1,0.5,0,0.5,0,1","0,1,0.5,0,1,0.5,1,0.5,0","3",""
"","html-keyboard-response","6","15839","0.0-7.0","3OWEPKL08AYSHY92KKRPFJVBJVK7NZ","A345VDWYMDWTGD","3PIOQ99R7Y8STPN46QFY0SD7JTFNU0","","null","<img src=""img/food4.png"" style=""width:200px; border:14px solid green;"">","null","","","","","","","","","",""
"","image-keyboard-response","7","15959","0.0-9.0","3OWEPKL08AYSHY92KKRPFJVBJVK7NZ","A345VDWYMDWTGD","3PIOQ99R7Y8STPN46QFY0SD7JTFNU0","","118","img/food4.png","75","119.80000019073486","2","1","false","1","2","1,0.5,0,1,0.5,0,0.5,0,1","0,1,0.5,0,1,0.5,1,0.5,0","3",""
"","html-keyboard-response","8","16266","0.0-10.0","3OWEPKL08AYSHY92KKRPFJVBJVK7NZ","A345VDWYMDWTGD","3PIOQ99R7Y8STPN46QFY0SD7JTFNU0","","null","<img src=""img/food4.png"" style=""width:200px; border:14px solid green;"">","null","","","","","","","","","",""
"","image-keyboard-response","9","16443","0.0-12.0","3OWEPKL08AYSHY92KKRPFJVBJVK7NZ","A345VDWYMDWTGD","3PIOQ99R7Y8STPN46QFY0SD7JTFNU0","","173.69999980926514","img/food1.png","75","176","2","0","false","3","2","1,0.5,0,1,0.5,0,0.5,0,1","0,1,0.5,0,1,0.5,1,0.5,0","3",""
"","html-keyboard-response","10","16748","0.0-13.0","3OWEPKL08AYSHY92KKRPFJVBJVK7NZ","A345VDWYMDWTGD","3PIOQ99R7Y8STPN46QFY0SD7JTFNU0","","null","<img src=""img/food1.png"" style=""width:200px;border:14px solid red;"">","null","","","","","","","","","",""
"","image-keyboard-response","11","16885","0.0-15.0","3OWEPKL08AYSHY92KKRPFJVBJVK7NZ","A345VDWYMDWTGD","3PIOQ99R7Y8STPN46QFY0SD7JTFNU0","","133.80000019073486","img/food4.png","74","135.90000009536743","1","0","false","1","2","1,0.5,0,1,0.5,0,0.5,0,1","0,1,0.5,0,1,0.5,1,0.5,0","3",""
"","html-keyboard-response","12","17193","0.0-16.0","3OWEPKL08AYSHY92KKRPFJVBJVK7NZ","A345VDWYMDWTGD","3PIOQ99R7Y8STPN46QFY0SD7JTFNU0","","null","<img src=""img/food4.png"" style=""width:200px;border:14px solid red;"">","null","","","","","","","","","",""
"","image-keyboard-response","13","17292","0.0-18.0","3OWEPKL08AYSHY92KKRPFJVBJVK7NZ","A345VDWYMDWTGD","3PIOQ99R7Y8STPN46QFY0SD7JTFNU0","","96.40000009536743","img/food1.png","76","98.30000019073486","3","0","false","3","2","1,0.5,0,1,0.5,0,0.5,0,1","0,1,0.5,0,1,0.5,1,0.5,0","3",""
"","html-keyboard-response","14","17599","0.0-19.0","3OWEPKL08AYSHY92KKRPFJVBJVK7NZ","A345VDWYMDWTGD","3PIOQ99R7Y8STPN46QFY0SD7JTFNU0","","null","<img src=""img/food1.png"" style=""width:200px;border:14px solid red;"">","null","","","","","","","","","",""
"","image-keyboard-response","15","17835","0.0-21.0","3OWEPKL08AYSHY92KKRPFJVBJVK7NZ","A345VDWYMDWTGD","3PIOQ99R7Y8STPN46QFY0SD7JTFNU0","","233.80000019073486","img/food2.png","76","235.5","3","0","false","2","2","1,0.5,0,1,0.5,0,0.5,0,1","0,1,0.5,0,1,0.5,1,0.5,0","3",""
"","html-keyboard-response","16","18138","0.0-22.0","3OWEPKL08AYSHY92KKRPFJVBJVK7NZ","A345VDWYMDWTGD","3PIOQ99R7Y8STPN46QFY0SD7JTFNU0","","null","<img src=""img/food2.png"" style=""width:200px;border:14px solid red;"">","null","","","","","","","","","",""
"","image-keyboard-response","17","18315","0.0-24.0","3OWEPKL08AYSHY92KKRPFJVBJVK7NZ","A345VDWYMDWTGD","3PIOQ99R7Y8STPN46QFY0SD7JTFNU0","","174.89999961853027","img/food4.png","75","175.89999961853027","2","1","false","1","2","1,0.5,0,1,0.5,0,0.5,0,1","0,1,0.5,0,1,0.5,1,0.5,0","3",""
"","html-keyboard-response","18","18622","0.0-25.0","3OWEPKL08AYSHY92KKRPFJVBJVK7NZ","A345VDWYMDWTGD","3PIOQ99R7Y8STPN46QFY0SD7JTFNU0","","null","<img src=""img/food4.png"" style=""width:200px; border:14px solid green;"">","null","","","","","","","","","",""
"","image-keyboard-response","19","18807","0.0-27.0","3OWEPKL08AYSHY92KKRPFJVBJVK7NZ","A345VDWYMDWTGD","3PIOQ99R7Y8STPN46QFY0SD7JTFNU0","","182.40000009536743","img/food4.png","75","184.30000019073486","2","1","false","1","2","1,0.5,0,1,0.5,0,0.5,0,1","0,1,0.5,0,1,0.5,1,0.5,0","3",""
"","html-keyboard-response","20","19115","0.0-28.0","3OWEPKL08AYSHY92KKRPFJVBJVK7NZ","A345VDWYMDWTGD","3PIOQ99R7Y8STPN46QFY0SD7JTFNU0","","null","<img src=""img/food4.png"" style=""width:200px; border:14px solid green;"">","null","","","","","","","","","",""
"","image-keyboard-response","21","19271","0.0-30.0","3OWEPKL08AYSHY92KKRPFJVBJVK7NZ","A345VDWYMDWTGD","3PIOQ99R7Y8STPN46QFY0SD7JTFNU0","","153.60000038146973","img/food4.png","74","155.7999997138977","1","0","false","1","2","1,0.5,0,1,0.5,0,0.5,0,1","0,1,0.5,0,1,0.5,1,0.5,0","3",""
"","html-keyboard-response","22","19579","0.0-31.0","3OWEPKL08AYSHY92KKRPFJVBJVK7NZ","A345VDWYMDWTGD","3PIOQ99R7Y8STPN46QFY0SD7JTFNU0","","null","<img src=""img/food4.png"" style=""width:200px;border:14px solid red;"">","null","","","","","","","","","",""
"","image-keyboard-response","23","19714","0.0-33.0","3OWEPKL08AYSHY92KKRPFJVBJVK7NZ","A345VDWYMDWTGD","3PIOQ99R7Y8STPN46QFY0SD7JTFNU0","","132.59999990463257","img/food4.png","75","134.40000009536743","2","1","false","1","2","1,0.5,0,1,0.5,0,0.5,0,1","0,1,0.5,0,1,0.5,1,0.5,0","3",""
"","html-keyboard-response","24","20022","0.0-34.0","3OWEPKL08AYSHY92KKRPFJVBJVK7NZ","A345VDWYMDWTGD","3PIOQ99R7Y8STPN46QFY0SD7JTFNU0","","null","<img src=""img/food4.png"" style=""width:200px; border:14px solid green;"">","null","","","","","","","","","",""
"","image-keyboard-response","25","20157","0.0-36.0","3OWEPKL08AYSHY92KKRPFJVBJVK7NZ","A345VDWYMDWTGD","3PIOQ99R7Y8STPN46QFY0SD7JTFNU0","","133.30000019073486","img/food1.png","76","135.09999990463257","3","0","false","3","2","1,0.5,0,1,0.5,0,0.5,0,1","0,1,0.5,0,1,0.5,1,0.5,0","3",""
"","html-keyboard-response","26","20465","0.0-37.0","3OWEPKL08AYSHY92KKRPFJVBJVK7NZ","A345VDWYMDWTGD","3PIOQ99R7Y8STPN46QFY0SD7JTFNU0","","null","<img src=""img/food1.png"" style=""width:200px;border:14px solid red;"">","null","","","","","","","","","",""
"","image-keyboard-response","27","20625","0.0-39.0","3OWEPKL08AYSHY92KKRPFJVBJVK7NZ","A345VDWYMDWTGD","3PIOQ99R7Y8STPN46QFY0SD7JTFNU0","","157.2999997138977","img/food4.png","75","159.2000002861023","2","1","false","1","2","1,0.5,0,1,0.5,0,0.5,0,1","0,1,0.5,0,1,0.5,1,0.5,0","3",""
"","html-keyboard-response","28","20928","0.0-40.0","3OWEPKL08AYSHY92KKRPFJVBJVK7NZ","A345VDWYMDWTGD","3PIOQ99R7Y8STPN46QFY0SD7JTFNU0","","null","<img src=""img/food4.png"" style=""width:200px; border:14px solid green;"">","null","","","","","","","","","",""
"","image-keyboard-response","29","21056","0.0-42.0","3OWEPKL08AYSHY92KKRPFJVBJVK7NZ","A345VDWYMDWTGD","3PIOQ99R7Y8STPN46QFY0SD7JTFNU0","","125.2999997138977","img/food4.png","74","127.2000002861023","1","0","false","1","2","1,0.5,0,1,0.5,0,0.5,0,1","0,1,0.5,0,1,0.5,1,0.5,0","3",""
"","html-keyboard-response","30","21360","0.0-43.0","3OWEPKL08AYSHY92KKRPFJVBJVK7NZ","A345VDWYMDWTGD","3PIOQ99R7Y8STPN46QFY0SD7JTFNU0","","null","<img src=""img/food4.png"" style=""width:200px;border:14px solid red;"">","null","","","","","","","","","",""
"","image-keyboard-response","31","21504","0.0-45.0","3OWEPKL08AYSHY92KKRPFJVBJVK7NZ","A345VDWYMDWTGD","3PIOQ99R7Y8STPN46QFY0SD7JTFNU0","","141.5","img/food2.png","75","143.2000002861023","2","1","false","2","2","1,0.5,0,1,0.5,0,0.5,0,1","0,1,0.5,0,1,0.5,1,0.5,0","3",""
"","html-keyboard-response","32","21808","0.0-46.0","3OWEPKL08AYSHY92KKRPFJVBJVK7NZ","A345VDWYMDWTGD","3PIOQ99R7Y8STPN46QFY0SD7JTFNU0","","null","<img src=""img/food2.png"" style=""width:200px; border:14px solid green;"">","null","","","","","","","","","",""
"","image-keyboard-response","33","22004","0.0-48.0","3OWEPKL08AYSHY92KKRPFJVBJVK7NZ","A345VDWYMDWTGD","3PIOQ99R7Y8STPN46QFY0SD7JTFNU0","","194.19999980926514","img/food4.png","76","196","3","1","false","1","2","1,0.5,0,1,0.5,0,0.5,0,1","0,1,0.5,0,1,0.5,1,0.5,0","3",""
"","html-keyboard-response","34","22312","0.0-49.0","3OWEPKL08AYSHY92KKRPFJVBJVK7NZ","A345VDWYMDWTGD","3PIOQ99R7Y8STPN46QFY0SD7JTFNU0","","null","<img src=""img/food4.png"" style=""width:200px; border:14px solid green;"">","null","","","","","","","","","",""
"","image-keyboard-response","35","22462","0.0-51.0","3OWEPKL08AYSHY92KKRPFJVBJVK7NZ","A345VDWYMDWTGD","3PIOQ99R7Y8STPN46QFY0SD7JTFNU0","","148.09999990463257","img/food4.png","76","150.09999990463257","3","1","false","1","2","1,0.5,0,1,0.5,0,0.5,0,1","0,1,0.5,0,1,0.5,1,0.5,0","3",""
"","html-keyboard-response","36","22768","0.0-52.0","3OWEPKL08AYSHY92KKRPFJVBJVK7NZ","A345VDWYMDWTGD","3PIOQ99R7Y8STPN46QFY0SD7JTFNU0","","null","<img src=""img/food4.png"" style=""width:200px; border:14px solid green;"">","null","","","","","","","","","",""
"","image-keyboard-response","37","22918","0.0-54.0","3OWEPKL08AYSHY92KKRPFJVBJVK7NZ","A345VDWYMDWTGD","3PIOQ99R7Y8STPN46QFY0SD7JTFNU0","","147.5","img/food2.png","75","149.40000009536743","2","1","false","2","2","1,0.5,0,1,0.5,0,0.5,0,1","0,1,0.5,0,1,0.5,1,0.5,0","3",""
"","html-keyboard-response","38","23221","0.0-55.0","3OWEPKL08AYSHY92KKRPFJVBJVK7NZ","A345VDWYMDWTGD","3PIOQ99R7Y8STPN46QFY0SD7JTFNU0","","null","<img src=""img/food2.png"" style=""width:200px; border:14px solid green;"">","null","","","","","","","","","",""
"","image-keyboard-response","39","23279","0.0-57.0","3OWEPKL08AYSHY92KKRPFJVBJVK7NZ","A345VDWYMDWTGD","3PIOQ99R7Y8STPN46QFY0SD7JTFNU0","","55","img/food2.png","76","56.90000009536743","3","1","false","2","2","1,0.5,0,1,0.5,0,0.5,0,1","0,1,0.5,0,1,0.5,1,0.5,0","3",""
"","html-keyboard-response","40","23586","0.0-58.0","3OWEPKL08AYSHY92KKRPFJVBJVK7NZ","A345VDWYMDWTGD","3PIOQ99R7Y8STPN46QFY0SD7JTFNU0","","null","<img src=""img/food2.png"" style=""width:200px; border:14px solid green;"">","null","","","","","","","","","",""
"","image-keyboard-response","41","23715","0.0-60.0","3OWEPKL08AYSHY92KKRPFJVBJVK7NZ","A345VDWYMDWTGD","3PIOQ99R7Y8STPN46QFY0SD7JTFNU0","","125.80000019073486","img/food1.png","76","127.69999980926514","3","0","false","3","2","1,0.5,0,1,0.5,0,0.5,0,1","0,1,0.5,0,1,0.5,1,0.5,0","3",""
"","html-keyboard-response","42","24022","0.0-61.0","3OWEPKL08AYSHY92KKRPFJVBJVK7NZ","A345VDWYMDWTGD","3PIOQ99R7Y8STPN46QFY0SD7JTFNU0","","null","<img src=""img/food1.png"" style=""width:200px;border:14px solid red;"">","null","","","","","","","","","",""
"","image-keyboard-response","43","24132","0.0-63.0","3OWEPKL08AYSHY92KKRPFJVBJVK7NZ","A345VDWYMDWTGD","3PIOQ99R7Y8STPN46QFY0SD7JTFNU0","","107.30000019073486","img/food1.png","75","109.19999980926514","2","0","false","3","2","1,0.5,0,1,0.5,0,0.5,0,1","0,1,0.5,0,1,0.5,1,0.5,0","3",""
"","html-keyboard-response","44","24440","0.0-64.0","3OWEPKL08AYSHY92KKRPFJVBJVK7NZ","A345VDWYMDWTGD","3PIOQ99R7Y8STPN46QFY0SD7JTFNU0","","null","<img src=""img/food1.png"" style=""width:200px;border:14px solid red;"">","null","","","","","","","","","",""
"","image-keyboard-response","45","24535","0.0-66.0","3OWEPKL08AYSHY92KKRPFJVBJVK7NZ","A345VDWYMDWTGD","3PIOQ99R7Y8STPN46QFY0SD7JTFNU0","","93.5","img/food2.png","74","95.19999980926514","1","0","false","2","2","1,0.5,0,1,0.5,0,0.5,0,1","0,1,0.5,0,1,0.5,1,0.5,0","3",""
"","html-keyboard-response","46","24842","0.0-67.0","3OWEPKL08AYSHY92KKRPFJVBJVK7NZ","A345VDWYMDWTGD","3PIOQ99R7Y8STPN46QFY0SD7JTFNU0","","null","<img src=""img/food2.png"" style=""width:200px;border:14px solid red;"">","null","","","","","","","","","",""
"","image-keyboard-response","47","24936","0.0-69.0","3OWEPKL08AYSHY92KKRPFJVBJVK7NZ","A345VDWYMDWTGD","3PIOQ99R7Y8STPN46QFY0SD7JTFNU0","","90.59999990463257","img/food4.png","76","92.7000002861023","3","1","false","1","2","1,0.5,0,1,0.5,0,0.5,0,1","0,1,0.5,0,1,0.5,1,0.5,0","3",""
"","html-keyboard-response","48","25243","0.0-70.0","3OWEPKL08AYSHY92KKRPFJVBJVK7NZ","A345VDWYMDWTGD","3PIOQ99R7Y8STPN46QFY0SD7JTFNU0","","null","<img src=""img/food4.png"" style=""width:200px; border:14px solid green;"">","null","","","","","","","","","",""
"","image-keyboard-response","49","25346","0.0-72.0","3OWEPKL08AYSHY92KKRPFJVBJVK7NZ","A345VDWYMDWTGD","3PIOQ99R7Y8STPN46QFY0SD7JTFNU0","","101.69999980926514","img/food4.png","75","102.90000009536743","2","1","false","1","2","1,0.5,0,1,0.5,0,0.5,0,1","0,1,0.5,0,1,0.5,1,0.5,0","3",""
"","html-keyboard-response","50","25654","0.0-73.0","3OWEPKL08AYSHY92KKRPFJVBJVK7NZ","A345VDWYMDWTGD","3PIOQ99R7Y8STPN46QFY0SD7JTFNU0","","null","<img src=""img/food4.png"" style=""width:200px; border:14px solid green;"">","null","","","","","","","","","",""
"","image-keyboard-response","51","25751","0.0-75.0","3OWEPKL08AYSHY92KKRPFJVBJVK7NZ","A345VDWYMDWTGD","3PIOQ99R7Y8STPN46QFY0SD7JTFNU0","","94.2000002861023","img/food1.png","76","96.19999980926514","3","0","false","3","2","1,0.5,0,1,0.5,0,0.5,0,1","0,1,0.5,0,1,0.5,1,0.5,0","3",""
"","html-keyboard-response","52","26058","0.0-76.0","3OWEPKL08AYSHY92KKRPFJVBJVK7NZ","A345VDWYMDWTGD","3PIOQ99R7Y8STPN46QFY0SD7JTFNU0","","null","<img src=""img/food1.png"" style=""width:200px;border:14px solid red;"">","null","","","","","","","","","",""
"","image-keyboard-response","53","26209","0.0-78.0","3OWEPKL08AYSHY92KKRPFJVBJVK7NZ","A345VDWYMDWTGD","3PIOQ99R7Y8STPN46QFY0SD7JTFNU0","","148","img/food4.png","76","149.90000009536743","3","1","false","1","2","1,0.5,0,1,0.5,0,0.5,0,1","0,1,0.5,0,1,0.5,1,0.5,0","3",""
"","html-keyboard-response","54","26516","0.0-79.0","3OWEPKL08AYSHY92KKRPFJVBJVK7NZ","A345VDWYMDWTGD","3PIOQ99R7Y8STPN46QFY0SD7JTFNU0","","null","<img src=""img/food4.png"" style=""width:200px; border:14px solid green;"">","null","","","","","","","","","",""
"","image-keyboard-response","55","26614","0.0-81.0","3OWEPKL08AYSHY92KKRPFJVBJVK7NZ","A345VDWYMDWTGD","3PIOQ99R7Y8STPN46QFY0SD7JTFNU0","","96.59999990463257","img/food2.png","75","97.40000009536743","2","1","false","2","2","1,0.5,0,1,0.5,0,0.5,0,1","0,1,0.5,0,1,0.5,1,0.5,0","3",""
"","html-keyboard-response","56","26922","0.0-82.0","3OWEPKL08AYSHY92KKRPFJVBJVK7NZ","A345VDWYMDWTGD","3PIOQ99R7Y8STPN46QFY0SD7JTFNU0","","null","<img src=""img/food2.png"" style=""width:200px; border:14px solid green;"">","null","","","","","","","","","",""
"","image-keyboard-response","57","26933","0.0-84.0","3OWEPKL08AYSHY92KKRPFJVBJVK7NZ","A345VDWYMDWTGD","3PIOQ99R7Y8STPN46QFY0SD7JTFNU0","","9.099999904632568","img/food2.png","76","10.599999904632568","3","0","false","2","2","1,0.5,0,1,0.5,0,0.5,0,1","0,1,0.5,0,1,0.5,1,0.5,0","3",""
"","html-keyboard-response","58","27240","0.0-85.0","3OWEPKL08AYSHY92KKRPFJVBJVK7NZ","A345VDWYMDWTGD","3PIOQ99R7Y8STPN46QFY0SD7JTFNU0","","null","<img src=""img/food2.png"" style=""width:200px;border:14px solid red;"">","null","","","","","","","","","",""
"","image-keyboard-response","59","27471","0.0-87.0","3OWEPKL08AYSHY92KKRPFJVBJVK7NZ","A345VDWYMDWTGD","3PIOQ99R7Y8STPN46QFY0SD7JTFNU0","","229","img/food2.png","76","230.80000019073486","3","0","false","2","2","1,0.5,0,1,0.5,0,0.5,0,1","0,1,0.5,0,1,0.5,1,0.5,0","3",""
"","html-keyboard-response","60","27779","0.0-88.0","3OWEPKL08AYSHY92KKRPFJVBJVK7NZ","A345VDWYMDWTGD","3PIOQ99R7Y8STPN46QFY0SD7JTFNU0","","null","<img src=""img/food2.png"" style=""width:200px;border:14px solid red;"">","null","","","","","","","","","",""
"","image-keyboard-response","61","27803","0.0-90.0","3OWEPKL08AYSHY92KKRPFJVBJVK7NZ","A345VDWYMDWTGD","3PIOQ99R7Y8STPN46QFY0SD7JTFNU0","","21","img/food1.png","74","22.699999809265137","1","1","false","3","2","1,0.5,0,1,0.5,0,0.5,0,1","0,1,0.5,0,1,0.5,1,0.5,0","3",""
"","html-keyboard-response","62","28107","0.0-91.0","3OWEPKL08AYSHY92KKRPFJVBJVK7NZ","A345VDWYMDWTGD","3PIOQ99R7Y8STPN46QFY0SD7JTFNU0","","null","<img src=""img/food1.png"" style=""width:200px; border:14px solid green;"">","null","","","","","","","","","",""
"","image-keyboard-response","63","28252","0.0-93.0","3OWEPKL08AYSHY92KKRPFJVBJVK7NZ","A345VDWYMDWTGD","3PIOQ99R7Y8STPN46QFY0SD7JTFNU0","","143.09999990463257","img/food1.png","75","144.90000009536743","2","1","false","3","2","1,0.5,0,1,0.5,0,0.5,0,1","0,1,0.5,0,1,0.5,1,0.5,0","3",""
"","html-keyboard-response","64","28560","0.0-94.0","3OWEPKL08AYSHY92KKRPFJVBJVK7NZ","A345VDWYMDWTGD","3PIOQ99R7Y8STPN46QFY0SD7JTFNU0","","null","<img src=""img/food1.png"" style=""width:200px; border:14px solid green;"">","null","","","","","","","","","",""
"","image-keyboard-response","65","28697","0.0-96.0","3OWEPKL08AYSHY92KKRPFJVBJVK7NZ","A345VDWYMDWTGD","3PIOQ99R7Y8STPN46QFY0SD7JTFNU0","","134.59999990463257","img/food2.png","76","136.5","3","1","false","2","2","1,0.5,0,1,0.5,0,0.5,0,1","0,1,0.5,0,1,0.5,1,0.5,0","3",""
"","html-keyboard-response","66","29005","0.0-97.0","3OWEPKL08AYSHY92KKRPFJVBJVK7NZ","A345VDWYMDWTGD","3PIOQ99R7Y8STPN46QFY0SD7JTFNU0","","null","<img src=""img/food2.png"" style=""width:200px; border:14px solid green;"">","null","","","","","","","","","",""
"","image-keyboard-response","67","29148","0.0-99.0","3OWEPKL08AYSHY92KKRPFJVBJVK7NZ","A345VDWYMDWTGD","3PIOQ99R7Y8STPN46QFY0SD7JTFNU0","","141.2000002861023","img/food1.png","75","143.09999990463257","2","1","false","3","2","1,0.5,0,1,0.5,0,0.5,0,1","0,1,0.5,0,1,0.5,1,0.5,0","3",""
"","html-keyboard-response","68","29456","0.0-100.0","3OWEPKL08AYSHY92KKRPFJVBJVK7NZ","A345VDWYMDWTGD","3PIOQ99R7Y8STPN46QFY0SD7JTFNU0","","null","<img src=""img/food1.png"" style=""width:200px; border:14px solid green;"">","null","","","","","","","","","",""
"","image-keyboard-response","69","29575","0.0-102.0","3OWEPKL08AYSHY92KKRPFJVBJVK7NZ","A345VDWYMDWTGD","3PIOQ99R7Y8STPN46QFY0SD7JTFNU0","","116.10000038146973","img/food2.png","75","118.09999990463257","2","1","false","2","2","1,0.5,0,1,0.5,0,0.5,0,1","0,1,0.5,0,1,0.5,1,0.5,0","3",""
"","html-keyboard-response","70","29878","0.0-103.0","3OWEPKL08AYSHY92KKRPFJVBJVK7NZ","A345VDWYMDWTGD","3PIOQ99R7Y8STPN46QFY0SD7JTFNU0","","null","<img src=""img/food2.png"" style=""width:200px; border:14px solid green;"">","null","","","","","","","","","",""
"","image-keyboard-response","71","30158","0.0-105.0","3OWEPKL08AYSHY92KKRPFJVBJVK7NZ","A345VDWYMDWTGD","3PIOQ99R7Y8STPN46QFY0SD7JTFNU0","","277.40000009536743","img/food1.png","74","279.5","1","1","false","3","2","1,0.5,0,1,0.5,0,0.5,0,1","0,1,0.5,0,1,0.5,1,0.5,0","3",""
"","html-keyboard-response","72","30465","0.0-106.0","3OWEPKL08AYSHY92KKRPFJVBJVK7NZ","A345VDWYMDWTGD","3PIOQ99R7Y8STPN46QFY0SD7JTFNU0","","null","<img src=""img/food1.png"" style=""width:200px; border:14px solid green;"">","null","","","","","","","","","",""
"","image-keyboard-response","73","30666","0.0-108.0","3OWEPKL08AYSHY92KKRPFJVBJVK7NZ","A345VDWYMDWTGD","3PIOQ99R7Y8STPN46QFY0SD7JTFNU0","","197.30000019073486","img/food4.png","76","199.2999997138977","3","0","false","1","2","1,0.5,0,1,0.5,0,0.5,0,1","0,1,0.5,0,1,0.5,1,0.5,0","3",""
"","html-keyboard-response","74","30973","0.0-109.0","3OWEPKL08AYSHY92KKRPFJVBJVK7NZ","A345VDWYMDWTGD","3PIOQ99R7Y8STPN46QFY0SD7JTFNU0","","null","<img src=""img/food4.png"" style=""width:200px;border:14px solid red;"">","null","","","","","","","","","",""
"","image-keyboard-response","75","30994","0.0-111.0","3OWEPKL08AYSHY92KKRPFJVBJVK7NZ","A345VDWYMDWTGD","3PIOQ99R7Y8STPN46QFY0SD7JTFNU0","","19.100000381469727","img/food2.png","74","20.800000190734863","1","0","false","2","2","1,0.5,0,1,0.5,0,0.5,0,1","0,1,0.5,0,1,0.5,1,0.5,0","3",""
"","html-keyboard-response","76","31297","0.0-112.0","3OWEPKL08AYSHY92KKRPFJVBJVK7NZ","A345VDWYMDWTGD","3PIOQ99R7Y8STPN46QFY0SD7JTFNU0","","null","<img src=""img/food2.png"" style=""width:200px;border:14px solid red;"">","null","","","","","","","","","",""
"","image-keyboard-response","77","31416","0.0-114.0","3OWEPKL08AYSHY92KKRPFJVBJVK7NZ","A345VDWYMDWTGD","3PIOQ99R7Y8STPN46QFY0SD7JTFNU0","","116.2000002861023","img/food4.png","75","118","2","1","false","1","2","1,0.5,0,1,0.5,0,0.5,0,1","0,1,0.5,0,1,0.5,1,0.5,0","3",""
"","html-keyboard-response","78","31723","0.0-115.0","3OWEPKL08AYSHY92KKRPFJVBJVK7NZ","A345VDWYMDWTGD","3PIOQ99R7Y8STPN46QFY0SD7JTFNU0","","null","<img src=""img/food4.png"" style=""width:200px; border:14px solid green;"">","null","","","","","","","","","",""
"","image-keyboard-response","79","31803","0.0-117.0","3OWEPKL08AYSHY92KKRPFJVBJVK7NZ","A345VDWYMDWTGD","3PIOQ99R7Y8STPN46QFY0SD7JTFNU0","","77.5","img/food4.png","76","79.30000019073486","3","1","false","1","2","1,0.5,0,1,0.5,0,0.5,0,1","0,1,0.5,0,1,0.5,1,0.5,0","3",""
"","html-keyboard-response","80","32111","0.0-118.0","3OWEPKL08AYSHY92KKRPFJVBJVK7NZ","A345VDWYMDWTGD","3PIOQ99R7Y8STPN46QFY0SD7JTFNU0","","null","<img src=""img/food4.png"" style=""width:200px; border:14px solid green;"">","null","","","","","","","","","",""
"","image-keyboard-response","81","32210","0.0-120.0","3OWEPKL08AYSHY92KKRPFJVBJVK7NZ","A345VDWYMDWTGD","3PIOQ99R7Y8STPN46QFY0SD7JTFNU0","","98.2000002861023","img/food2.png","75","98.90000009536743","2","1","false","2","2","1,0.5,0,1,0.5,0,0.5,0,1","0,1,0.5,0,1,0.5,1,0.5,0","3",""
"","html-keyboard-response","82","32516","0.0-121.0","3OWEPKL08AYSHY92KKRPFJVBJVK7NZ","A345VDWYMDWTGD","3PIOQ99R7Y8STPN46QFY0SD7JTFNU0","","null","<img src=""img/food2.png"" style=""width:200px; border:14px solid green;"">","null","","","","","","","","","",""
"","image-keyboard-response","83","32533","0.0-123.0","3OWEPKL08AYSHY92KKRPFJVBJVK7NZ","A345VDWYMDWTGD","3PIOQ99R7Y8STPN46QFY0SD7JTFNU0","","16.399999618530273","img/food2.png","76","16.90000009536743","3","0","false","2","2","1,0.5,0,1,0.5,0,0.5,0,1","0,1,0.5,0,1,0.5,1,0.5,0","3",""
"","html-keyboard-response","84","32839","0.0-124.0","3OWEPKL08AYSHY92KKRPFJVBJVK7NZ","A345VDWYMDWTGD","3PIOQ99R7Y8STPN46QFY0SD7JTFNU0","","null","<img src=""img/food2.png"" style=""width:200px;border:14px solid red;"">","null","","","","","","","","","",""
"","image-keyboard-response","85","32941","0.0-126.0","3OWEPKL08AYSHY92KKRPFJVBJVK7NZ","A345VDWYMDWTGD","3PIOQ99R7Y8STPN46QFY0SD7JTFNU0","","99.5","img/food1.png","75","101.2999997138977","2","0","false","3","2","1,0.5,0,1,0.5,0,0.5,0,1","0,1,0.5,0,1,0.5,1,0.5,0","3",""
"","html-keyboard-response","86","33249","0.0-127.0","3OWEPKL08AYSHY92KKRPFJVBJVK7NZ","A345VDWYMDWTGD","3PIOQ99R7Y8STPN46QFY0SD7JTFNU0","","null","<img src=""img/food1.png"" style=""width:200px;border:14px solid red;"">","null","","","","","","","","","",""
"","image-keyboard-response","87","33385","0.0-129.0","3OWEPKL08AYSHY92KKRPFJVBJVK7NZ","A345VDWYMDWTGD","3PIOQ99R7Y8STPN46QFY0SD7JTFNU0","","133.5","img/food2.png","74","135.40000009536743","1","0","false","2","2","1,0.5,0,1,0.5,0,0.5,0,1","0,1,0.5,0,1,0.5,1,0.5,0","3",""
"","html-keyboard-response","88","33693","0.0-130.0","3OWEPKL08AYSHY92KKRPFJVBJVK7NZ","A345VDWYMDWTGD","3PIOQ99R7Y8STPN46QFY0SD7JTFNU0","","null","<img src=""img/food2.png"" style=""width:200px;border:14px solid red;"">","null","","","","","","","","","",""
"","image-keyboard-response","89","33810","0.0-132.0","3OWEPKL08AYSHY92KKRPFJVBJVK7NZ","A345VDWYMDWTGD","3PIOQ99R7Y8STPN46QFY0SD7JTFNU0","","115.5","img/food1.png","74","116.69999980926514","1","1","false","3","2","1,0.5,0,1,0.5,0,0.5,0,1","0,1,0.5,0,1,0.5,1,0.5,0","3",""
"","html-keyboard-response","90","34113","0.0-133.0","3OWEPKL08AYSHY92KKRPFJVBJVK7NZ","A345VDWYMDWTGD","3PIOQ99R7Y8STPN46QFY0SD7JTFNU0","","null","<img src=""img/food1.png"" style=""width:200px; border:14px solid green;"">","null","","","","","","","","","",""
"","image-keyboard-response","91","34660","0.0-135.0","3OWEPKL08AYSHY92KKRPFJVBJVK7NZ","A345VDWYMDWTGD","3PIOQ99R7Y8STPN46QFY0SD7JTFNU0","","545.8000001907349","img/food4.png","76","546.8000001907349","3","0","false","1","2","1,0.5,0,1,0.5,0,0.5,0,1","0,1,0.5,0,1,0.5,1,0.5,0","3",""
"","html-keyboard-response","92","34966","0.0-136.0","3OWEPKL08AYSHY92KKRPFJVBJVK7NZ","A345VDWYMDWTGD","3PIOQ99R7Y8STPN46QFY0SD7JTFNU0","","null","<img src=""img/food4.png"" style=""width:200px;border:14px solid red;"">","null","","","","","","","","","",""
"","image-keyboard-response","93","35181","0.0-138.0","3OWEPKL08AYSHY92KKRPFJVBJVK7NZ","A345VDWYMDWTGD","3PIOQ99R7Y8STPN46QFY0SD7JTFNU0","","212.90000009536743","img/food1.png","76","214.5","3","0","false","3","2","1,0.5,0,1,0.5,0,0.5,0,1","0,1,0.5,0,1,0.5,1,0.5,0","3",""
"","html-keyboard-response","94","35489","0.0-139.0","3OWEPKL08AYSHY92KKRPFJVBJVK7NZ","A345VDWYMDWTGD","3PIOQ99R7Y8STPN46QFY0SD7JTFNU0","","null","<img src=""img/food1.png"" style=""width:200px;border:14px solid red;"">","null","","","","","","","","","",""
"","image-keyboard-response","95","35627","0.0-141.0","3OWEPKL08AYSHY92KKRPFJVBJVK7NZ","A345VDWYMDWTGD","3PIOQ99R7Y8STPN46QFY0SD7JTFNU0","","136.30000019073486","img/food2.png","76","138","3","1","false","2","2","1,0.5,0,1,0.5,0,0.5,0,1","0,1,0.5,0,1,0.5,1,0.5,0","3",""
"","html-keyboard-response","96","35935","0.0-142.0","3OWEPKL08AYSHY92KKRPFJVBJVK7NZ","A345VDWYMDWTGD","3PIOQ99R7Y8STPN46QFY0SD7JTFNU0","","null","<img src=""img/food2.png"" style=""width:200px; border:14px solid green;"">","null","","","","","","","","","",""
"","image-keyboard-response","97","36040","0.0-144.0","3OWEPKL08AYSHY92KKRPFJVBJVK7NZ","A345VDWYMDWTGD","3PIOQ99R7Y8STPN46QFY0SD7JTFNU0","","103.59999990463257","img/food4.png","74","105.19999980926514","1","0","false","1","2","1,0.5,0,1,0.5,0,0.5,0,1","0,1,0.5,0,1,0.5,1,0.5,0","3",""
"","html-keyboard-response","98","36348","0.0-145.0","3OWEPKL08AYSHY92KKRPFJVBJVK7NZ","A345VDWYMDWTGD","3PIOQ99R7Y8STPN46QFY0SD7JTFNU0","","null","<img src=""img/food4.png"" style=""width:200px;border:14px solid red;"">","null","","","","","","","","","",""
"","image-keyboard-response","99","36722","0.0-147.0","3OWEPKL08AYSHY92KKRPFJVBJVK7NZ","A345VDWYMDWTGD","3PIOQ99R7Y8STPN46QFY0SD7JTFNU0","","371.7000002861023","img/food4.png","74","373.69999980926514","1","0","false","1","2","1,0.5,0,1,0.5,0,0.5,0,1","0,1,0.5,0,1,0.5,1,0.5,0","3",""
"","html-keyboard-response","100","37030","0.0-148.0","3OWEPKL08AYSHY92KKRPFJVBJVK7NZ","A345VDWYMDWTGD","3PIOQ99R7Y8STPN46QFY0SD7JTFNU0","","null","<img src=""img/food4.png"" style=""width:200px;border:14px solid red;"">","null","","","","","","","","","",""
"","image-keyboard-response","101","37175","0.0-150.0","3OWEPKL08AYSHY92KKRPFJVBJVK7NZ","A345VDWYMDWTGD","3PIOQ99R7Y8STPN46QFY0SD7JTFNU0","","142.19999980926514","img/food4.png","76","144.10000038146973","3","0","false","1","2","1,0.5,0,1,0.5,0,0.5,0,1","0,1,0.5,0,1,0.5,1,0.5,0","3",""
"","html-keyboard-response","102","37482","0.0-151.0","3OWEPKL08AYSHY92KKRPFJVBJVK7NZ","A345VDWYMDWTGD","3PIOQ99R7Y8STPN46QFY0SD7JTFNU0","","null","<img src=""img/food4.png"" style=""width:200px;border:14px solid red;"">","null","","","","","","","","","",""
"","image-keyboard-response","103","37711","0.0-153.0","3OWEPKL08AYSHY92KKRPFJVBJVK7NZ","A345VDWYMDWTGD","3PIOQ99R7Y8STPN46QFY0SD7JTFNU0","","226.2000002861023","img/food1.png","76","227.80000019073486","3","0","false","3","2","1,0.5,0,1,0.5,0,0.5,0,1","0,1,0.5,0,1,0.5,1,0.5,0","3",""
"","html-keyboard-response","104","38019","0.0-154.0","3OWEPKL08AYSHY92KKRPFJVBJVK7NZ","A345VDWYMDWTGD","3PIOQ99R7Y8STPN46QFY0SD7JTFNU0","","null","<img src=""img/food1.png"" style=""width:200px;border:14px solid red;"">","null","","","","","","","","","",""
"","image-keyboard-response","105","38229","0.0-156.0","3OWEPKL08AYSHY92KKRPFJVBJVK7NZ","A345VDWYMDWTGD","3PIOQ99R7Y8STPN46QFY0SD7JTFNU0","","208","img/food1.png","76","209.7000002861023","3","0","false","3","2","1,0.5,0,1,0.5,0,0.5,0,1","0,1,0.5,0,1,0.5,1,0.5,0","3",""
"","html-keyboard-response","106","38537","0.0-157.0","3OWEPKL08AYSHY92KKRPFJVBJVK7NZ","A345VDWYMDWTGD","3PIOQ99R7Y8STPN46QFY0SD7JTFNU0","","null","<img src=""img/food1.png"" style=""width:200px;border:14px solid red;"">","null","","","","","","","","","",""
"","image-keyboard-response","107","38586","0.0-159.0","3OWEPKL08AYSHY92KKRPFJVBJVK7NZ","A345VDWYMDWTGD","3PIOQ99R7Y8STPN46QFY0SD7JTFNU0","","47.10000038146973","img/food2.png","74","49","1","0","false","2","2","1,0.5,0,1,0.5,0,0.5,0,1","0,1,0.5,0,1,0.5,1,0.5,0","3",""
"","html-keyboard-response","108","38892","0.0-160.0","3OWEPKL08AYSHY92KKRPFJVBJVK7NZ","A345VDWYMDWTGD","3PIOQ99R7Y8STPN46QFY0SD7JTFNU0","","null","<img src=""img/food2.png"" style=""width:200px;border:14px solid red;"">","null","","","","","","","","","",""
"","image-keyboard-response","109","39033","0.0-162.0","3OWEPKL08AYSHY92KKRPFJVBJVK7NZ","A345VDWYMDWTGD","3PIOQ99R7Y8STPN46QFY0SD7JTFNU0","","138.40000009536743","img/food4.png","74","140.30000019073486","1","0","false","1","2","1,0.5,0,1,0.5,0,0.5,0,1","0,1,0.5,0,1,0.5,1,0.5,0","3",""
"","html-keyboard-response","110","39341","0.0-163.0","3OWEPKL08AYSHY92KKRPFJVBJVK7NZ","A345VDWYMDWTGD","3PIOQ99R7Y8STPN46QFY0SD7JTFNU0","","null","<img src=""img/food4.png"" style=""width:200px;border:14px solid red;"">","null","","","","","","","","","",""
"","image-keyboard-response","111","39387","0.0-165.0","3OWEPKL08AYSHY92KKRPFJVBJVK7NZ","A345VDWYMDWTGD","3PIOQ99R7Y8STPN46QFY0SD7JTFNU0","","44.19999980926514","img/food4.png","75","45.799999713897705","2","1","false","1","2","1,0.5,0,1,0.5,0,0.5,0,1","0,1,0.5,0,1,0.5,1,0.5,0","3",""
"","html-keyboard-response","112","39694","0.0-166.0","3OWEPKL08AYSHY92KKRPFJVBJVK7NZ","A345VDWYMDWTGD","3PIOQ99R7Y8STPN46QFY0SD7JTFNU0","","null","<img src=""img/food4.png"" style=""width:200px; border:14px solid green;"">","null","","","","","","","","","",""
"","image-keyboard-response","113","39784","0.0-168.0","3OWEPKL08AYSHY92KKRPFJVBJVK7NZ","A345VDWYMDWTGD","3PIOQ99R7Y8STPN46QFY0SD7JTFNU0","","87.90000009536743","img/food1.png","76","89.69999980926514","3","0","false","3","2","1,0.5,0,1,0.5,0,0.5,0,1","0,1,0.5,0,1,0.5,1,0.5,0","3",""
"","html-keyboard-response","114","40089","0.0-169.0","3OWEPKL08AYSHY92KKRPFJVBJVK7NZ","A345VDWYMDWTGD","3PIOQ99R7Y8STPN46QFY0SD7JTFNU0","","null","<img src=""img/food1.png"" style=""width:200px;border:14px solid red;"">","null","","","","","","","","","",""
"","image-keyboard-response","115","40118","0.0-171.0","3OWEPKL08AYSHY92KKRPFJVBJVK7NZ","A345VDWYMDWTGD","3PIOQ99R7Y8STPN46QFY0SD7JTFNU0","","27.40000009536743","img/food1.png","75","28.40000009536743","2","1","false","3","2","1,0.5,0,1,0.5,0,0.5,0,1","0,1,0.5,0,1,0.5,1,0.5,0","3",""
"","html-keyboard-response","116","40424","0.0-172.0","3OWEPKL08AYSHY92KKRPFJVBJVK7NZ","A345VDWYMDWTGD","3PIOQ99R7Y8STPN46QFY0SD7JTFNU0","","null","<img src=""img/food1.png"" style=""width:200px; border:14px solid green;"">","null","","","","","","","","","",""
"","image-keyboard-response","117","40488","0.0-174.0","3OWEPKL08AYSHY92KKRPFJVBJVK7NZ","A345VDWYMDWTGD","3PIOQ99R7Y8STPN46QFY0SD7JTFNU0","","62.09999990463257","img/food4.png","74","63.59999990463257","1","0","false","1","2","1,0.5,0,1,0.5,0,0.5,0,1","0,1,0.5,0,1,0.5,1,0.5,0","3",""
"","html-keyboard-response","118","40791","0.0-175.0","3OWEPKL08AYSHY92KKRPFJVBJVK7NZ","A345VDWYMDWTGD","3PIOQ99R7Y8STPN46QFY0SD7JTFNU0","","null","<img src=""img/food4.png"" style=""width:200px;border:14px solid red;"">","null","","","","","","","","","",""
"","image-keyboard-response","119","41201","0.0-177.0","3OWEPKL08AYSHY92KKRPFJVBJVK7NZ","A345VDWYMDWTGD","3PIOQ99R7Y8STPN46QFY0SD7JTFNU0","","407.90000009536743","img/food2.png","76","409.30000019073486","3","1","false","2","2","1,0.5,0,1,0.5,0,0.5,0,1","0,1,0.5,0,1,0.5,1,0.5,0","3",""
"","html-keyboard-response","120","41508","0.0-178.0","3OWEPKL08AYSHY92KKRPFJVBJVK7NZ","A345VDWYMDWTGD","3PIOQ99R7Y8STPN46QFY0SD7JTFNU0","","null","<img src=""img/food2.png"" style=""width:200px; border:14px solid green;"">","null","","","","","","","","","",""
"","image-keyboard-response","121","41570","0.0-180.0","3OWEPKL08AYSHY92KKRPFJVBJVK7NZ","A345VDWYMDWTGD","3PIOQ99R7Y8STPN46QFY0SD7JTFNU0","","59.299999713897705","img/food2.png","75","61","2","1","false","2","2","1,0.5,0,1,0.5,0,0.5,0,1","0,1,0.5,0,1,0.5,1,0.5,0","3",""
"","html-keyboard-response","122","41877","0.0-181.0","3OWEPKL08AYSHY92KKRPFJVBJVK7NZ","A345VDWYMDWTGD","3PIOQ99R7Y8STPN46QFY0SD7JTFNU0","","null","<img src=""img/food2.png"" style=""width:200px; border:14px solid green;"">","null","","","","","","","","","",""
"","image-keyboard-response","123","41961","0.0-183.0","3OWEPKL08AYSHY92KKRPFJVBJVK7NZ","A345VDWYMDWTGD","3PIOQ99R7Y8STPN46QFY0SD7JTFNU0","","81.90000009536743","img/food1.png","76","83.5","3","0","false","3","2","1,0.5,0,1,0.5,0,0.5,0,1","0,1,0.5,0,1,0.5,1,0.5,0","3",""
"","html-keyboard-response","124","42268","0.0-184.0","3OWEPKL08AYSHY92KKRPFJVBJVK7NZ","A345VDWYMDWTGD","3PIOQ99R7Y8STPN46QFY0SD7JTFNU0","","null","<img src=""img/food1.png"" style=""width:200px;border:14px solid red;"">","null","","","","","","","","","",""
"","image-keyboard-response","125","42382","0.0-186.0","3OWEPKL08AYSHY92KKRPFJVBJVK7NZ","A345VDWYMDWTGD","3PIOQ99R7Y8STPN46QFY0SD7JTFNU0","","112.30000019073486","img/food2.png","74","113.90000009536743","1","0","false","2","2","1,0.5,0,1,0.5,0,0.5,0,1","0,1,0.5,0,1,0.5,1,0.5,0","3",""
"","html-keyboard-response","126","42689","0.0-187.0","3OWEPKL08AYSHY92KKRPFJVBJVK7NZ","A345VDWYMDWTGD","3PIOQ99R7Y8STPN46QFY0SD7JTFNU0","","null","<img src=""img/food2.png"" style=""width:200px;border:14px solid red;"">","null","","","","","","","","","",""
"","image-keyboard-response","127","42894","0.0-189.0","3OWEPKL08AYSHY92KKRPFJVBJVK7NZ","A345VDWYMDWTGD","3PIOQ99R7Y8STPN46QFY0SD7JTFNU0","","202.19999980926514","img/food1.png","75","204.2000002861023","2","0","false","3","2","1,0.5,0,1,0.5,0,0.5,0,1","0,1,0.5,0,1,0.5,1,0.5,0","3",""
"","html-keyboard-response","128","43201","0.0-190.0","3OWEPKL08AYSHY92KKRPFJVBJVK7NZ","A345VDWYMDWTGD","3PIOQ99R7Y8STPN46QFY0SD7JTFNU0","","null","<img src=""img/food1.png"" style=""width:200px;border:14px solid red;"">","null","","","","","","","","","",""
"","image-keyboard-response","129","43269","0.0-192.0","3OWEPKL08AYSHY92KKRPFJVBJVK7NZ","A345VDWYMDWTGD","3PIOQ99R7Y8STPN46QFY0SD7JTFNU0","","65.89999961853027","img/food1.png","76","67.59999990463257","3","0","false","3","2","1,0.5,0,1,0.5,0,0.5,0,1","0,1,0.5,0,1,0.5,1,0.5,0","3",""
"","html-keyboard-response","130","43576","0.0-193.0","3OWEPKL08AYSHY92KKRPFJVBJVK7NZ","A345VDWYMDWTGD","3PIOQ99R7Y8STPN46QFY0SD7JTFNU0","","null","<img src=""img/food1.png"" style=""width:200px;border:14px solid red;"">","null","","","","","","","","","",""
"","image-keyboard-response","131","43742","0.0-195.0","3OWEPKL08AYSHY92KKRPFJVBJVK7NZ","A345VDWYMDWTGD","3PIOQ99R7Y8STPN46QFY0SD7JTFNU0","","163.59999990463257","img/food1.png","76","165.5","3","0","false","3","2","1,0.5,0,1,0.5,0,0.5,0,1","0,1,0.5,0,1,0.5,1,0.5,0","3",""
"","html-keyboard-response","132","44049","0.0-196.0","3OWEPKL08AYSHY92KKRPFJVBJVK7NZ","A345VDWYMDWTGD","3PIOQ99R7Y8STPN46QFY0SD7JTFNU0","","null","<img src=""img/food1.png"" style=""width:200px;border:14px solid red;"">","null","","","","","","","","","",""
"","image-keyboard-response","133","44238","0.0-198.0","3OWEPKL08AYSHY92KKRPFJVBJVK7NZ","A345VDWYMDWTGD","3PIOQ99R7Y8STPN46QFY0SD7JTFNU0","","187.2000002861023","img/food2.png","75","189.09999990463257","2","1","false","2","2","1,0.5,0,1,0.5,0,0.5,0,1","0,1,0.5,0,1,0.5,1,0.5,0","3",""
"","html-keyboard-response","134","44546","0.0-199.0","3OWEPKL08AYSHY92KKRPFJVBJVK7NZ","A345VDWYMDWTGD","3PIOQ99R7Y8STPN46QFY0SD7JTFNU0","","null","<img src=""img/food2.png"" style=""width:200px; border:14px solid green;"">","null","","","","","","","","","",""
"","image-keyboard-response","135","45018","0.0-201.0","3OWEPKL08AYSHY92KKRPFJVBJVK7NZ","A345VDWYMDWTGD","3PIOQ99R7Y8STPN46QFY0SD7JTFNU0","","469.80000019073486","img/food1.png","75","471.7999997138977","2","1","false","3","2","1,0.5,0,1,0.5,0,0.5,0,1","0,1,0.5,0,1,0.5,1,0.5,0","3",""
"","html-keyboard-response","136","45326","0.0-202.0","3OWEPKL08AYSHY92KKRPFJVBJVK7NZ","A345VDWYMDWTGD","3PIOQ99R7Y8STPN46QFY0SD7JTFNU0","","null","<img src=""img/food1.png"" style=""width:200px; border:14px solid green;"">","null","","","","","","","","","",""
"","image-keyboard-response","137","45437","0.0-204.0","3OWEPKL08AYSHY92KKRPFJVBJVK7NZ","A345VDWYMDWTGD","3PIOQ99R7Y8STPN46QFY0SD7JTFNU0","","107.90000009536743","img/food1.png","74","109.7999997138977","1","1","false","3","2","1,0.5,0,1,0.5,0,0.5,0,1","0,1,0.5,0,1,0.5,1,0.5,0","3",""
"","html-keyboard-response","138","45744","0.0-205.0","3OWEPKL08AYSHY92KKRPFJVBJVK7NZ","A345VDWYMDWTGD","3PIOQ99R7Y8STPN46QFY0SD7JTFNU0","","null","<img src=""img/food1.png"" style=""width:200px; border:14px solid green;"">","null","","","","","","","","","",""
"","image-keyboard-response","139","45876","0.0-207.0","3OWEPKL08AYSHY92KKRPFJVBJVK7NZ","A345VDWYMDWTGD","3PIOQ99R7Y8STPN46QFY0SD7JTFNU0","","129.5","img/food2.png","76","131.40000009536743","3","1","false","2","2","1,0.5,0,1,0.5,0,0.5,0,1","0,1,0.5,0,1,0.5,1,0.5,0","3",""
"","html-keyboard-response","140","46184","0.0-208.0","3OWEPKL08AYSHY92KKRPFJVBJVK7NZ","A345VDWYMDWTGD","3PIOQ99R7Y8STPN46QFY0SD7JTFNU0","","null","<img src=""img/food2.png"" style=""width:200px; border:14px solid green;"">","null","","","","","","","","","",""
"","image-keyboard-response","141","46284","0.0-210.0","3OWEPKL08AYSHY92KKRPFJVBJVK7NZ","A345VDWYMDWTGD","3PIOQ99R7Y8STPN46QFY0SD7JTFNU0","","97.90000009536743","img/food1.png","75","99.59999990463257","2","1","false","3","2","1,0.5,0,1,0.5,0,0.5,0,1","0,1,0.5,0,1,0.5,1,0.5,0","3",""
"","html-keyboard-response","142","46591","0.0-211.0","3OWEPKL08AYSHY92KKRPFJVBJVK7NZ","A345VDWYMDWTGD","3PIOQ99R7Y8STPN46QFY0SD7JTFNU0","","null","<img src=""img/food1.png"" style=""width:200px; border:14px solid green;"">","null","","","","","","","","","",""
"","image-keyboard-response","143","46661","0.0-213.0","3OWEPKL08AYSHY92KKRPFJVBJVK7NZ","A345VDWYMDWTGD","3PIOQ99R7Y8STPN46QFY0SD7JTFNU0","","67.19999980926514","img/food2.png","74","69.09999990463257","1","0","false","2","2","1,0.5,0,1,0.5,0,0.5,0,1","0,1,0.5,0,1,0.5,1,0.5,0","3",""
"","html-keyboard-response","144","46969","0.0-214.0","3OWEPKL08AYSHY92KKRPFJVBJVK7NZ","A345VDWYMDWTGD","3PIOQ99R7Y8STPN46QFY0SD7JTFNU0","","null","<img src=""img/food2.png"" style=""width:200px;border:14px solid red;"">","null","","","","","","","","","",""
"","image-keyboard-response","145","47008","0.0-216.0","3OWEPKL08AYSHY92KKRPFJVBJVK7NZ","A345VDWYMDWTGD","3PIOQ99R7Y8STPN46QFY0SD7JTFNU0","","37.09999990463257","img/food4.png","75","39.19999980926514","2","1","false","1","2","1,0.5,0,1,0.5,0,0.5,0,1","0,1,0.5,0,1,0.5,1,0.5,0","3",""
"","html-keyboard-response","146","47316","0.0-217.0","3OWEPKL08AYSHY92KKRPFJVBJVK7NZ","A345VDWYMDWTGD","3PIOQ99R7Y8STPN46QFY0SD7JTFNU0","","null","<img src=""img/food4.png"" style=""width:200px; border:14px solid green;"">","null","","","","","","","","","",""
"","image-keyboard-response","147","47380","0.0-219.0","3OWEPKL08AYSHY92KKRPFJVBJVK7NZ","A345VDWYMDWTGD","3PIOQ99R7Y8STPN46QFY0SD7JTFNU0","","61.299999713897705","img/food1.png","76","63.200000286102295","3","0","false","3","2","1,0.5,0,1,0.5,0,0.5,0,1","0,1,0.5,0,1,0.5,1,0.5,0","3",""
"","html-keyboard-response","148","47686","0.0-220.0","3OWEPKL08AYSHY92KKRPFJVBJVK7NZ","A345VDWYMDWTGD","3PIOQ99R7Y8STPN46QFY0SD7JTFNU0","","null","<img src=""img/food1.png"" style=""width:200px;border:14px solid red;"">","null","","","","","","","","","",""
"","image-keyboard-response","149","48023","0.0-222.0","3OWEPKL08AYSHY92KKRPFJVBJVK7NZ","A345VDWYMDWTGD","3PIOQ99R7Y8STPN46QFY0SD7JTFNU0","","335.40000009536743","img/food2.png","74","337.1000003814697","1","0","false","2","2","1,0.5,0,1,0.5,0,0.5,0,1","0,1,0.5,0,1,0.5,1,0.5,0","3",""
"","html-keyboard-response","150","48331","0.0-223.0","3OWEPKL08AYSHY92KKRPFJVBJVK7NZ","A345VDWYMDWTGD","3PIOQ99R7Y8STPN46QFY0SD7JTFNU0","","null","<img src=""img/food2.png"" style=""width:200px;border:14px solid red;"">","null","","","","","","","","","",""
"","image-keyboard-response","151","48426","0.0-225.0","3OWEPKL08AYSHY92KKRPFJVBJVK7NZ","A345VDWYMDWTGD","3PIOQ99R7Y8STPN46QFY0SD7JTFNU0","","92.2999997138977","img/food2.png","75","94","2","1","false","2","2","1,0.5,0,1,0.5,0,0.5,0,1","0,1,0.5,0,1,0.5,1,0.5,0","3",""
"","html-keyboard-response","152","48731","0.0-226.0","3OWEPKL08AYSHY92KKRPFJVBJVK7NZ","A345VDWYMDWTGD","3PIOQ99R7Y8STPN46QFY0SD7JTFNU0","","null","<img src=""img/food2.png"" style=""width:200px; border:14px solid green;"">","null","","","","","","","","","",""
"","image-keyboard-response","153","48916","0.0-228.0","3OWEPKL08AYSHY92KKRPFJVBJVK7NZ","A345VDWYMDWTGD","3PIOQ99R7Y8STPN46QFY0SD7JTFNU0","","182.40000009536743","img/food4.png","76","184.19999980926514","3","0","false","1","2","1,0.5,0,1,0.5,0,0.5,0,1","0,1,0.5,0,1,0.5,1,0.5,0","3",""
"","html-keyboard-response","154","49223","0.0-229.0","3OWEPKL08AYSHY92KKRPFJVBJVK7NZ","A345VDWYMDWTGD","3PIOQ99R7Y8STPN46QFY0SD7JTFNU0","","null","<img src=""img/food4.png"" style=""width:200px;border:14px solid red;"">","null","","","","","","","","","",""
"","image-keyboard-response","155","49352","0.0-231.0","3OWEPKL08AYSHY92KKRPFJVBJVK7NZ","A345VDWYMDWTGD","3PIOQ99R7Y8STPN46QFY0SD7JTFNU0","","126.09999990463257","img/food4.png","75","127.89999961853027","2","1","false","1","2","1,0.5,0,1,0.5,0,0.5,0,1","0,1,0.5,0,1,0.5,1,0.5,0","3",""
"","html-keyboard-response","156","49659","0.0-232.0","3OWEPKL08AYSHY92KKRPFJVBJVK7NZ","A345VDWYMDWTGD","3PIOQ99R7Y8STPN46QFY0SD7JTFNU0","","null","<img src=""img/food4.png"" style=""width:200px; border:14px solid green;"">","null","","","","","","","","","",""
"","image-keyboard-response","157","50008","0.0-234.0","3OWEPKL08AYSHY92KKRPFJVBJVK7NZ","A345VDWYMDWTGD","3PIOQ99R7Y8STPN46QFY0SD7JTFNU0","","346.40000009536743","img/food1.png","75","348.09999990463257","2","1","false","3","2","1,0.5,0,1,0.5,0,0.5,0,1","0,1,0.5,0,1,0.5,1,0.5,0","3",""
"","html-keyboard-response","158","50314","0.0-235.0","3OWEPKL08AYSHY92KKRPFJVBJVK7NZ","A345VDWYMDWTGD","3PIOQ99R7Y8STPN46QFY0SD7JTFNU0","","null","<img src=""img/food1.png"" style=""width:200px; border:14px solid green;"">","null","","","","","","","","","",""
"","image-keyboard-response","159","50434","0.0-237.0","3OWEPKL08AYSHY92KKRPFJVBJVK7NZ","A345VDWYMDWTGD","3PIOQ99R7Y8STPN46QFY0SD7JTFNU0","","118.10000038146973","img/food4.png","74","120.09999990463257","1","0","false","1","2","1,0.5,0,1,0.5,0,0.5,0,1","0,1,0.5,0,1,0.5,1,0.5,0","3",""
"","html-keyboard-response","160","50743","0.0-238.0","3OWEPKL08AYSHY92KKRPFJVBJVK7NZ","A345VDWYMDWTGD","3PIOQ99R7Y8STPN46QFY0SD7JTFNU0","","null","<img src=""img/food4.png"" style=""width:200px;border:14px solid red;"">","null","","","","","","","","","",""
"","image-keyboard-response","161","50814","0.0-240.0","3OWEPKL08AYSHY92KKRPFJVBJVK7NZ","A345VDWYMDWTGD","3PIOQ99R7Y8STPN46QFY0SD7JTFNU0","","69.30000019073486","img/food2.png","76","71.09999990463257","3","1","false","2","2","1,0.5,0,1,0.5,0,0.5,0,1","0,1,0.5,0,1,0.5,1,0.5,0","3",""
"","html-keyboard-response","162","51121","0.0-241.0","3OWEPKL08AYSHY92KKRPFJVBJVK7NZ","A345VDWYMDWTGD","3PIOQ99R7Y8STPN46QFY0SD7JTFNU0","","null","<img src=""img/food2.png"" style=""width:200px; border:14px solid green;"">","null","","","","","","","","","",""
"","image-keyboard-response","163","51277","0.0-243.0","3OWEPKL08AYSHY92KKRPFJVBJVK7NZ","A345VDWYMDWTGD","3PIOQ99R7Y8STPN46QFY0SD7JTFNU0","","154.2000002861023","img/food1.png","76","156.2999997138977","3","0","false","3","2","1,0.5,0,1,0.5,0,0.5,0,1","0,1,0.5,0,1,0.5,1,0.5,0","3",""
"","html-keyboard-response","164","51586","0.0-244.0","3OWEPKL08AYSHY92KKRPFJVBJVK7NZ","A345VDWYMDWTGD","3PIOQ99R7Y8STPN46QFY0SD7JTFNU0","","null","<img src=""img/food1.png"" style=""width:200px;border:14px solid red;"">","null","","","","","","","","","",""
"","image-keyboard-response","165","51727","0.0-246.0","3OWEPKL08AYSHY92KKRPFJVBJVK7NZ","A345VDWYMDWTGD","3PIOQ99R7Y8STPN46QFY0SD7JTFNU0","","138.5","img/food2.png","75","140.40000009536743","2","1","false","2","2","1,0.5,0,1,0.5,0,0.5,0,1","0,1,0.5,0,1,0.5,1,0.5,0","3",""
"","html-keyboard-response","166","52033","0.0-247.0","3OWEPKL08AYSHY92KKRPFJVBJVK7NZ","A345VDWYMDWTGD","3PIOQ99R7Y8STPN46QFY0SD7JTFNU0","","null","<img src=""img/food2.png"" style=""width:200px; border:14px solid green;"">","null","","","","","","","","","",""
"","image-keyboard-response","167","52146","0.0-249.0","3OWEPKL08AYSHY92KKRPFJVBJVK7NZ","A345VDWYMDWTGD","3PIOQ99R7Y8STPN46QFY0SD7JTFNU0","","111.19999980926514","img/food4.png","74","113","1","0","false","1","2","1,0.5,0,1,0.5,0,0.5,0,1","0,1,0.5,0,1,0.5,1,0.5,0","3",""
"","html-keyboard-response","168","52450","0.0-250.0","3OWEPKL08AYSHY92KKRPFJVBJVK7NZ","A345VDWYMDWTGD","3PIOQ99R7Y8STPN46QFY0SD7JTFNU0","","null","<img src=""img/food4.png"" style=""width:200px;border:14px solid red;"">","null","","","","","","","","","",""
"","image-keyboard-response","169","52890","0.0-252.0","3OWEPKL08AYSHY92KKRPFJVBJVK7NZ","A345VDWYMDWTGD","3PIOQ99R7Y8STPN46QFY0SD7JTFNU0","","437.2000002861023","img/food1.png","75","438.90000009536743","2","0","false","3","2","1,0.5,0,1,0.5,0,0.5,0,1","0,1,0.5,0,1,0.5,1,0.5,0","3",""
"","html-keyboard-response","170","53198","0.0-253.0","3OWEPKL08AYSHY92KKRPFJVBJVK7NZ","A345VDWYMDWTGD","3PIOQ99R7Y8STPN46QFY0SD7JTFNU0","","null","<img src=""img/food1.png"" style=""width:200px;border:14px solid red;"">","null","","","","","","","","","",""
"","image-keyboard-response","171","53221","0.0-255.0","3OWEPKL08AYSHY92KKRPFJVBJVK7NZ","A345VDWYMDWTGD","3PIOQ99R7Y8STPN46QFY0SD7JTFNU0","","20.90000009536743","img/food2.png","74","22.700000286102295","1","0","false","2","2","1,0.5,0,1,0.5,0,0.5,0,1","0,1,0.5,0,1,0.5,1,0.5,0","3",""
"","html-keyboard-response","172","53528","0.0-256.0","3OWEPKL08AYSHY92KKRPFJVBJVK7NZ","A345VDWYMDWTGD","3PIOQ99R7Y8STPN46QFY0SD7JTFNU0","","null","<img src=""img/food2.png"" style=""width:200px;border:14px solid red;"">","null","","","","","","","","","",""
"","image-keyboard-response","173","53669","0.0-258.0","3OWEPKL08AYSHY92KKRPFJVBJVK7NZ","A345VDWYMDWTGD","3PIOQ99R7Y8STPN46QFY0SD7JTFNU0","","139.90000009536743","img/food2.png","76","140.69999980926514","3","0","false","2","2","1,0.5,0,1,0.5,0,0.5,0,1","0,1,0.5,0,1,0.5,1,0.5,0","3",""
"","html-keyboard-response","174","53976","0.0-259.0","3OWEPKL08AYSHY92KKRPFJVBJVK7NZ","A345VDWYMDWTGD","3PIOQ99R7Y8STPN46QFY0SD7JTFNU0","","null","<img src=""img/food2.png"" style=""width:200px;border:14px solid red;"">","null","","","","","","","","","",""
"","image-keyboard-response","175","54304","0.0-261.0","3OWEPKL08AYSHY92KKRPFJVBJVK7NZ","A345VDWYMDWTGD","3PIOQ99R7Y8STPN46QFY0SD7JTFNU0","","325.5","img/food1.png","76","327.5","3","0","false","3","2","1,0.5,0,1,0.5,0,0.5,0,1","0,1,0.5,0,1,0.5,1,0.5,0","3",""
"","html-keyboard-response","176","54612","0.0-262.0","3OWEPKL08AYSHY92KKRPFJVBJVK7NZ","A345VDWYMDWTGD","3PIOQ99R7Y8STPN46QFY0SD7JTFNU0","","null","<img src=""img/food1.png"" style=""width:200px;border:14px solid red;"">","null","","","","","","","","","",""
"","image-keyboard-response","177","54760","0.0-264.0","3OWEPKL08AYSHY92KKRPFJVBJVK7NZ","A345VDWYMDWTGD","3PIOQ99R7Y8STPN46QFY0SD7JTFNU0","","145.2000002861023","img/food2.png","74","147.19999980926514","1","0","false","2","2","1,0.5,0,1,0.5,0,0.5,0,1","0,1,0.5,0,1,0.5,1,0.5,0","3",""
"","html-keyboard-response","178","55068","0.0-265.0","3OWEPKL08AYSHY92KKRPFJVBJVK7NZ","A345VDWYMDWTGD","3PIOQ99R7Y8STPN46QFY0SD7JTFNU0","","null","<img src=""img/food2.png"" style=""width:200px;border:14px solid red;"">","null","","","","","","","","","",""
"","image-keyboard-response","179","55189","0.0-267.0","3OWEPKL08AYSHY92KKRPFJVBJVK7NZ","A345VDWYMDWTGD","3PIOQ99R7Y8STPN46QFY0SD7JTFNU0","","118.7000002861023","img/food1.png","75","120.59999990463257","2","0","false","3","2","1,0.5,0,1,0.5,0,0.5,0,1","0,1,0.5,0,1,0.5,1,0.5,0","3",""
"","html-keyboard-response","180","55496","0.0-268.0","3OWEPKL08AYSHY92KKRPFJVBJVK7NZ","A345VDWYMDWTGD","3PIOQ99R7Y8STPN46QFY0SD7JTFNU0","","null","<img src=""img/food1.png"" style=""width:200px;border:14px solid red;"">","null","","","","","","","","","",""
"","image-keyboard-response","181","55860","0.0-270.0","3OWEPKL08AYSHY92KKRPFJVBJVK7NZ","A345VDWYMDWTGD","3PIOQ99R7Y8STPN46QFY0SD7JTFNU0","","362.59999990463257","img/food2.png","74","364.19999980926514","1","0","false","2","2","1,0.5,0,1,0.5,0,0.5,0,1","0,1,0.5,0,1,0.5,1,0.5,0","3",""
"","html-keyboard-response","182","56167","0.0-271.0","3OWEPKL08AYSHY92KKRPFJVBJVK7NZ","A345VDWYMDWTGD","3PIOQ99R7Y8STPN46QFY0SD7JTFNU0","","null","<img src=""img/food2.png"" style=""width:200px;border:14px solid red;"">","null","","","","","","","","","",""
"","instructions","183","58618","0.0-273.0","3OWEPKL08AYSHY92KKRPFJVBJVK7NZ","A345VDWYMDWTGD","3PIOQ99R7Y8STPN46QFY0SD7JTFNU0","[{""page_index"":0,""viewing_time"":1431.5},{""page_index"":1,""viewing_time"":1016.9000000953674}]","2448.9000000953674","","","","","","","","","","","",""
"","image-keyboard-response","184","59386","0.0-274.0","3OWEPKL08AYSHY92KKRPFJVBJVK7NZ","A345VDWYMDWTGD","3PIOQ99R7Y8STPN46QFY0SD7JTFNU0","","766","img/food5.png","75","768.2000002861023","2","1","","1","1","1,0.5,0,1,0.5,0,0.5,0,1","0,1,0.5,0,1,0.5,1,0.5,0","3",""
"","html-keyboard-response","185","59694","0.0-275.0","3OWEPKL08AYSHY92KKRPFJVBJVK7NZ","A345VDWYMDWTGD","3PIOQ99R7Y8STPN46QFY0SD7JTFNU0","","null","<img src=""img/food5.png"" style=""width:200px; border:14px solid green;"">","null","","","","","","","","","",""
"","image-keyboard-response","186","59702","0.0-276.0","3OWEPKL08AYSHY92KKRPFJVBJVK7NZ","A345VDWYMDWTGD","3PIOQ99R7Y8STPN46QFY0SD7JTFNU0","","6.200000286102295","img/food3.png","75","7.900000095367432","2","1","","2","1","1,0.5,0,1,0.5,0,0.5,0,1","0,1,0.5,0,1,0.5,1,0.5,0","3",""
"","html-keyboard-response","187","60009","0.0-277.0","3OWEPKL08AYSHY92KKRPFJVBJVK7NZ","A345VDWYMDWTGD","3PIOQ99R7Y8STPN46QFY0SD7JTFNU0","","null","<img src=""img/food3.png"" style=""width:200px; border:14px solid green;"">","null","","","","","","","","","",""
"","image-keyboard-response","188","60154","0.0-278.0","3OWEPKL08AYSHY92KKRPFJVBJVK7NZ","A345VDWYMDWTGD","3PIOQ99R7Y8STPN46QFY0SD7JTFNU0","","141.80000019073486","img/food3.png","76","143.80000019073486","3","1","","2","1","1,0.5,0,1,0.5,0,0.5,0,1","0,1,0.5,0,1,0.5,1,0.5,0","3",""
"","html-keyboard-response","189","60461","0.0-279.0","3OWEPKL08AYSHY92KKRPFJVBJVK7NZ","A345VDWYMDWTGD","3PIOQ99R7Y8STPN46QFY0SD7JTFNU0","","null","<img src=""img/food3.png"" style=""width:200px; border:14px solid green;"">","null","","","","","","","","","",""
"","image-keyboard-response","190","60543","0.0-280.0","3OWEPKL08AYSHY92KKRPFJVBJVK7NZ","A345VDWYMDWTGD","3PIOQ99R7Y8STPN46QFY0SD7JTFNU0","","81.2999997138977","img/food6.png","76","81.90000009536743","3","0","","3","1","1,0.5,0,1,0.5,0,0.5,0,1","0,1,0.5,0,1,0.5,1,0.5,0","3",""
"","html-keyboard-response","191","60850","0.0-281.0","3OWEPKL08AYSHY92KKRPFJVBJVK7NZ","A345VDWYMDWTGD","3PIOQ99R7Y8STPN46QFY0SD7JTFNU0","","null","<img src=""img/food6.png"" style=""width:200px;border:14px solid red;"">","null","","","","","","","","","",""
"","image-keyboard-response","192","60975","0.0-282.0","3OWEPKL08AYSHY92KKRPFJVBJVK7NZ","A345VDWYMDWTGD","3PIOQ99R7Y8STPN46QFY0SD7JTFNU0","","123.09999990463257","img/food3.png","76","125.09999990463257","3","1","","2","1","1,0.5,0,1,0.5,0,0.5,0,1","0,1,0.5,0,1,0.5,1,0.5,0","3",""
"","html-keyboard-response","193","61279","0.0-283.0","3OWEPKL08AYSHY92KKRPFJVBJVK7NZ","A345VDWYMDWTGD","3PIOQ99R7Y8STPN46QFY0SD7JTFNU0","","null","<img src=""img/food3.png"" style=""width:200px; border:14px solid green;"">","null","","","","","","","","","",""
"","image-keyboard-response","194","61303","0.0-284.0","3OWEPKL08AYSHY92KKRPFJVBJVK7NZ","A345VDWYMDWTGD","3PIOQ99R7Y8STPN46QFY0SD7JTFNU0","","22","img/food5.png","74","24.09999990463257","1","0","","1","1","1,0.5,0,1,0.5,0,0.5,0,1","0,1,0.5,0,1,0.5,1,0.5,0","3",""
"","html-keyboard-response","195","61611","0.0-285.0","3OWEPKL08AYSHY92KKRPFJVBJVK7NZ","A345VDWYMDWTGD","3PIOQ99R7Y8STPN46QFY0SD7JTFNU0","","null","<img src=""img/food5.png"" style=""width:200px;border:14px solid red;"">","null","","","","","","","","","",""
"","image-keyboard-response","196","61669","0.0-286.0","3OWEPKL08AYSHY92KKRPFJVBJVK7NZ","A345VDWYMDWTGD","3PIOQ99R7Y8STPN46QFY0SD7JTFNU0","","55.59999990463257","img/food6.png","75","57.40000009536743","2","0","","3","1","1,0.5,0,1,0.5,0,0.5,0,1","0,1,0.5,0,1,0.5,1,0.5,0","3",""
"","html-keyboard-response","197","61976","0.0-287.0","3OWEPKL08AYSHY92KKRPFJVBJVK7NZ","A345VDWYMDWTGD","3PIOQ99R7Y8STPN46QFY0SD7JTFNU0","","null","<img src=""img/food6.png"" style=""width:200px;border:14px solid red;"">","null","","","","","","","","","",""
"","image-keyboard-response","198","62079","0.0-288.0","3OWEPKL08AYSHY92KKRPFJVBJVK7NZ","A345VDWYMDWTGD","3PIOQ99R7Y8STPN46QFY0SD7JTFNU0","","100.60000038146973","img/food5.png","76","102.2999997138977","3","0","","1","1","1,0.5,0,1,0.5,0,0.5,0,1","0,1,0.5,0,1,0.5,1,0.5,0","3",""
"","html-keyboard-response","199","62385","0.0-289.0","3OWEPKL08AYSHY92KKRPFJVBJVK7NZ","A345VDWYMDWTGD","3PIOQ99R7Y8STPN46QFY0SD7JTFNU0","","null","<img src=""img/food5.png"" style=""width:200px;border:14px solid red;"">","null","","","","","","","","","",""
"","image-keyboard-response","200","62518","0.0-290.0","3OWEPKL08AYSHY92KKRPFJVBJVK7NZ","A345VDWYMDWTGD","3PIOQ99R7Y8STPN46QFY0SD7JTFNU0","","131","img/food3.png","76","132.80000019073486","3","0","","2","1","1,0.5,0,1,0.5,0,0.5,0,1","0,1,0.5,0,1,0.5,1,0.5,0","3",""
"","html-keyboard-response","201","62826","0.0-291.0","3OWEPKL08AYSHY92KKRPFJVBJVK7NZ","A345VDWYMDWTGD","3PIOQ99R7Y8STPN46QFY0SD7JTFNU0","","null","<img src=""img/food3.png"" style=""width:200px;border:14px solid red;"">","null","","","","","","","","","",""
"","image-keyboard-response","202","62917","0.0-292.0","3OWEPKL08AYSHY92KKRPFJVBJVK7NZ","A345VDWYMDWTGD","3PIOQ99R7Y8STPN46QFY0SD7JTFNU0","","88.59999990463257","img/food3.png","75","90.59999990463257","2","1","","2","1","1,0.5,0,1,0.5,0,0.5,0,1","0,1,0.5,0,1,0.5,1,0.5,0","3",""
"","html-keyboard-response","203","63225","0.0-293.0","3OWEPKL08AYSHY92KKRPFJVBJVK7NZ","A345VDWYMDWTGD","3PIOQ99R7Y8STPN46QFY0SD7JTFNU0","","null","<img src=""img/food3.png"" style=""width:200px; border:14px solid green;"">","null","","","","","","","","","",""
"","image-keyboard-response","204","63301","0.0-294.0","3OWEPKL08AYSHY92KKRPFJVBJVK7NZ","A345VDWYMDWTGD","3PIOQ99R7Y8STPN46QFY0SD7JTFNU0","","72.90000009536743","img/food6.png","74","75.10000038146973","1","1","","3","1","1,0.5,0,1,0.5,0,0.5,0,1","0,1,0.5,0,1,0.5,1,0.5,0","3",""
"","html-keyboard-response","205","63609","0.0-295.0","3OWEPKL08AYSHY92KKRPFJVBJVK7NZ","A345VDWYMDWTGD","3PIOQ99R7Y8STPN46QFY0SD7JTFNU0","","null","<img src=""img/food6.png"" style=""width:200px; border:14px solid green;"">","null","","","","","","","","","",""
"","image-keyboard-response","206","63681","0.0-296.0","3OWEPKL08AYSHY92KKRPFJVBJVK7NZ","A345VDWYMDWTGD","3PIOQ99R7Y8STPN46QFY0SD7JTFNU0","","69.2000002861023","img/food5.png","75","71.19999980926514","2","1","","1","1","1,0.5,0,1,0.5,0,0.5,0,1","0,1,0.5,0,1,0.5,1,0.5,0","3",""
"","html-keyboard-response","207","63985","0.0-297.0","3OWEPKL08AYSHY92KKRPFJVBJVK7NZ","A345VDWYMDWTGD","3PIOQ99R7Y8STPN46QFY0SD7JTFNU0","","null","<img src=""img/food5.png"" style=""width:200px; border:14px solid green;"">","null","","","","","","","","","",""
"","image-keyboard-response","208","64220","0.0-298.0","3OWEPKL08AYSHY92KKRPFJVBJVK7NZ","A345VDWYMDWTGD","3PIOQ99R7Y8STPN46QFY0SD7JTFNU0","","232.90000009536743","img/food5.png","75","235.10000038146973","2","1","","1","1","1,0.5,0,1,0.5,0,0.5,0,1","0,1,0.5,0,1,0.5,1,0.5,0","3",""
"","html-keyboard-response","209","64528","0.0-299.0","3OWEPKL08AYSHY92KKRPFJVBJVK7NZ","A345VDWYMDWTGD","3PIOQ99R7Y8STPN46QFY0SD7JTFNU0","","null","<img src=""img/food5.png"" style=""width:200px; border:14px solid green;"">","null","","","","","","","","","",""
"","image-keyboard-response","210","64651","0.0-300.0","3OWEPKL08AYSHY92KKRPFJVBJVK7NZ","A345VDWYMDWTGD","3PIOQ99R7Y8STPN46QFY0SD7JTFNU0","","120.2999997138977","img/food3.png","76","122.59999990463257","3","1","","2","1","1,0.5,0,1,0.5,0,0.5,0,1","0,1,0.5,0,1,0.5,1,0.5,0","3",""
"","html-keyboard-response","211","64960","0.0-301.0","3OWEPKL08AYSHY92KKRPFJVBJVK7NZ","A345VDWYMDWTGD","3PIOQ99R7Y8STPN46QFY0SD7JTFNU0","","null","<img src=""img/food3.png"" style=""width:200px; border:14px solid green;"">","null","","","","","","","","","",""
"","image-keyboard-response","212","64985","0.0-302.0","3OWEPKL08AYSHY92KKRPFJVBJVK7NZ","A345VDWYMDWTGD","3PIOQ99R7Y8STPN46QFY0SD7JTFNU0","","23.40000009536743","img/food3.png","75","25.09999990463257","2","1","","2","1","1,0.5,0,1,0.5,0,0.5,0,1","0,1,0.5,0,1,0.5,1,0.5,0","3",""
"","html-keyboard-response","213","65293","0.0-303.0","3OWEPKL08AYSHY92KKRPFJVBJVK7NZ","A345VDWYMDWTGD","3PIOQ99R7Y8STPN46QFY0SD7JTFNU0","","null","<img src=""img/food3.png"" style=""width:200px; border:14px solid green;"">","null","","","","","","","","","",""
"","image-keyboard-response","214","65379","0.0-304.0","3OWEPKL08AYSHY92KKRPFJVBJVK7NZ","A345VDWYMDWTGD","3PIOQ99R7Y8STPN46QFY0SD7JTFNU0","","84","img/food6.png","75","86","2","1","","3","1","1,0.5,0,1,0.5,0,0.5,0,1","0,1,0.5,0,1,0.5,1,0.5,0","3",""
"","html-keyboard-response","215","65685","0.0-305.0","3OWEPKL08AYSHY92KKRPFJVBJVK7NZ","A345VDWYMDWTGD","3PIOQ99R7Y8STPN46QFY0SD7JTFNU0","","null","<img src=""img/food6.png"" style=""width:200px; border:14px solid green;"">","null","","","","","","","","","",""
"","image-keyboard-response","216","66129","0.0-306.0","3OWEPKL08AYSHY92KKRPFJVBJVK7NZ","A345VDWYMDWTGD","3PIOQ99R7Y8STPN46QFY0SD7JTFNU0","","441.6000003814697","img/food3.png","76","443.59999990463257","3","1","","2","1","1,0.5,0,1,0.5,0,0.5,0,1","0,1,0.5,0,1,0.5,1,0.5,0","3",""
"","html-keyboard-response","217","66437","0.0-307.0","3OWEPKL08AYSHY92KKRPFJVBJVK7NZ","A345VDWYMDWTGD","3PIOQ99R7Y8STPN46QFY0SD7JTFNU0","","null","<img src=""img/food3.png"" style=""width:200px; border:14px solid green;"">","null","","","","","","","","","",""
"","image-keyboard-response","218","66502","0.0-308.0","3OWEPKL08AYSHY92KKRPFJVBJVK7NZ","A345VDWYMDWTGD","3PIOQ99R7Y8STPN46QFY0SD7JTFNU0","","62.40000009536743","img/food6.png","75","64.2999997138977","2","1","","3","1","1,0.5,0,1,0.5,0,0.5,0,1","0,1,0.5,0,1,0.5,1,0.5,0","3",""
"","html-keyboard-response","219","66809","0.0-309.0","3OWEPKL08AYSHY92KKRPFJVBJVK7NZ","A345VDWYMDWTGD","3PIOQ99R7Y8STPN46QFY0SD7JTFNU0","","null","<img src=""img/food6.png"" style=""width:200px; border:14px solid green;"">","null","","","","","","","","","",""
"","image-keyboard-response","220","66878","0.0-310.0","3OWEPKL08AYSHY92KKRPFJVBJVK7NZ","A345VDWYMDWTGD","3PIOQ99R7Y8STPN46QFY0SD7JTFNU0","","66","img/food6.png","75","68","2","0","","3","1","1,0.5,0,1,0.5,0,0.5,0,1","0,1,0.5,0,1,0.5,1,0.5,0","3",""
"","html-keyboard-response","221","67182","0.0-311.0","3OWEPKL08AYSHY92KKRPFJVBJVK7NZ","A345VDWYMDWTGD","3PIOQ99R7Y8STPN46QFY0SD7JTFNU0","","null","<img src=""img/food6.png"" style=""width:200px;border:14px solid red;"">","null","","","","","","","","","",""
"","image-keyboard-response","222","67313","0.0-312.0","3OWEPKL08AYSHY92KKRPFJVBJVK7NZ","A345VDWYMDWTGD","3PIOQ99R7Y8STPN46QFY0SD7JTFNU0","","129.2000002861023","img/food5.png","76","131","3","1","","1","1","1,0.5,0,1,0.5,0,0.5,0,1","0,1,0.5,0,1,0.5,1,0.5,0","3",""
"","html-keyboard-response","223","67620","0.0-313.0","3OWEPKL08AYSHY92KKRPFJVBJVK7NZ","A345VDWYMDWTGD","3PIOQ99R7Y8STPN46QFY0SD7JTFNU0","","null","<img src=""img/food5.png"" style=""width:200px; border:14px solid green;"">","null","","","","","","","","","",""
"","image-keyboard-response","224","67676","0.0-314.0","3OWEPKL08AYSHY92KKRPFJVBJVK7NZ","A345VDWYMDWTGD","3PIOQ99R7Y8STPN46QFY0SD7JTFNU0","","54","img/food5.png","74","55.799999713897705","1","0","","1","1","1,0.5,0,1,0.5,0,0.5,0,1","0,1,0.5,0,1,0.5,1,0.5,0","3",""
"","html-keyboard-response","225","67982","0.0-315.0","3OWEPKL08AYSHY92KKRPFJVBJVK7NZ","A345VDWYMDWTGD","3PIOQ99R7Y8STPN46QFY0SD7JTFNU0","","null","<img src=""img/food5.png"" style=""width:200px;border:14px solid red;"">","null","","","","","","","","","",""
"","image-keyboard-response","226","68042","0.0-316.0","3OWEPKL08AYSHY92KKRPFJVBJVK7NZ","A345VDWYMDWTGD","3PIOQ99R7Y8STPN46QFY0SD7JTFNU0","","57.39999961853027","img/food3.png","76","59.5","3","0","","2","1","1,0.5,0,1,0.5,0,0.5,0,1","0,1,0.5,0,1,0.5,1,0.5,0","3",""
"","html-keyboard-response","227","68350","0.0-317.0","3OWEPKL08AYSHY92KKRPFJVBJVK7NZ","A345VDWYMDWTGD","3PIOQ99R7Y8STPN46QFY0SD7JTFNU0","","null","<img src=""img/food3.png"" style=""width:200px;border:14px solid red;"">","null","","","","","","","","","",""
"","image-keyboard-response","228","68391","0.0-318.0","3OWEPKL08AYSHY92KKRPFJVBJVK7NZ","A345VDWYMDWTGD","3PIOQ99R7Y8STPN46QFY0SD7JTFNU0","","38.09999990463257","img/food6.png","76","40.200000286102295","3","0","","3","1","1,0.5,0,1,0.5,0,0.5,0,1","0,1,0.5,0,1,0.5,1,0.5,0","3",""
"","html-keyboard-response","229","68699","0.0-319.0","3OWEPKL08AYSHY92KKRPFJVBJVK7NZ","A345VDWYMDWTGD","3PIOQ99R7Y8STPN46QFY0SD7JTFNU0","","null","<img src=""img/food6.png"" style=""width:200px;border:14px solid red;"">","null","","","","","","","","","",""
"","image-keyboard-response","230","68752","0.0-320.0","3OWEPKL08AYSHY92KKRPFJVBJVK7NZ","A345VDWYMDWTGD","3PIOQ99R7Y8STPN46QFY0SD7JTFNU0","","50.40000009536743","img/food5.png","75","52.5","2","1","","1","1","1,0.5,0,1,0.5,0,0.5,0,1","0,1,0.5,0,1,0.5,1,0.5,0","3",""
"","html-keyboard-response","231","69060","0.0-321.0","3OWEPKL08AYSHY92KKRPFJVBJVK7NZ","A345VDWYMDWTGD","3PIOQ99R7Y8STPN46QFY0SD7JTFNU0","","null","<img src=""img/food5.png"" style=""width:200px; border:14px solid green;"">","null","","","","","","","","","",""
"","image-keyboard-response","232","69084","0.0-322.0","3OWEPKL08AYSHY92KKRPFJVBJVK7NZ","A345VDWYMDWTGD","3PIOQ99R7Y8STPN46QFY0SD7JTFNU0","","21.699999809265137","img/food5.png","74","23.09999990463257","1","0","","1","1","1,0.5,0,1,0.5,0,0.5,0,1","0,1,0.5,0,1,0.5,1,0.5,0","3",""
"","html-keyboard-response","233","69388","0.0-323.0","3OWEPKL08AYSHY92KKRPFJVBJVK7NZ","A345VDWYMDWTGD","3PIOQ99R7Y8STPN46QFY0SD7JTFNU0","","null","<img src=""img/food5.png"" style=""width:200px;border:14px solid red;"">","null","","","","","","","","","",""
"","image-keyboard-response","234","69419","0.0-324.0","3OWEPKL08AYSHY92KKRPFJVBJVK7NZ","A345VDWYMDWTGD","3PIOQ99R7Y8STPN46QFY0SD7JTFNU0","","29.200000286102295","img/food3.png","75","31","2","1","","2","1","1,0.5,0,1,0.5,0,0.5,0,1","0,1,0.5,0,1,0.5,1,0.5,0","3",""
"","html-keyboard-response","235","69723","0.0-325.0","3OWEPKL08AYSHY92KKRPFJVBJVK7NZ","A345VDWYMDWTGD","3PIOQ99R7Y8STPN46QFY0SD7JTFNU0","","null","<img src=""img/food3.png"" style=""width:200px; border:14px solid green;"">","null","","","","","","","","","",""
"","image-keyboard-response","236","69816","0.0-326.0","3OWEPKL08AYSHY92KKRPFJVBJVK7NZ","A345VDWYMDWTGD","3PIOQ99R7Y8STPN46QFY0SD7JTFNU0","","91.59999990463257","img/food6.png","76","93.5","3","0","","3","1","1,0.5,0,1,0.5,0,0.5,0,1","0,1,0.5,0,1,0.5,1,0.5,0","3",""
"","html-keyboard-response","237","70124","0.0-327.0","3OWEPKL08AYSHY92KKRPFJVBJVK7NZ","A345VDWYMDWTGD","3PIOQ99R7Y8STPN46QFY0SD7JTFNU0","","null","<img src=""img/food6.png"" style=""width:200px;border:14px solid red;"">","null","","","","","","","","","",""
"","image-keyboard-response","238","70168","0.0-328.0","3OWEPKL08AYSHY92KKRPFJVBJVK7NZ","A345VDWYMDWTGD","3PIOQ99R7Y8STPN46QFY0SD7JTFNU0","","41.10000038146973","img/food3.png","75","43.09999990463257","2","1","","2","1","1,0.5,0,1,0.5,0,0.5,0,1","0,1,0.5,0,1,0.5,1,0.5,0","3",""
"","html-keyboard-response","239","70471","0.0-329.0","3OWEPKL08AYSHY92KKRPFJVBJVK7NZ","A345VDWYMDWTGD","3PIOQ99R7Y8STPN46QFY0SD7JTFNU0","","null","<img src=""img/food3.png"" style=""width:200px; border:14px solid green;"">","null","","","","","","","","","",""
"","image-keyboard-response","240","70863","0.0-330.0","3OWEPKL08AYSHY92KKRPFJVBJVK7NZ","A345VDWYMDWTGD","3PIOQ99R7Y8STPN46QFY0SD7JTFNU0","","389.7999997138977","img/food3.png","75","391.80000019073486","2","1","","2","1","1,0.5,0,1,0.5,0,0.5,0,1","0,1,0.5,0,1,0.5,1,0.5,0","3",""
"","html-keyboard-response","241","71171","0.0-331.0","3OWEPKL08AYSHY92KKRPFJVBJVK7NZ","A345VDWYMDWTGD","3PIOQ99R7Y8STPN46QFY0SD7JTFNU0","","null","<img src=""img/food3.png"" style=""width:200px; border:14px solid green;"">","null","","","","","","","","","",""
"","image-keyboard-response","242","71312","0.0-332.0","3OWEPKL08AYSHY92KKRPFJVBJVK7NZ","A345VDWYMDWTGD","3PIOQ99R7Y8STPN46QFY0SD7JTFNU0","","138.2000002861023","img/food5.png","75","140.19999980926514","2","1","","1","1","1,0.5,0,1,0.5,0,0.5,0,1","0,1,0.5,0,1,0.5,1,0.5,0","3",""
"","html-keyboard-response","243","71620","0.0-333.0","3OWEPKL08AYSHY92KKRPFJVBJVK7NZ","A345VDWYMDWTGD","3PIOQ99R7Y8STPN46QFY0SD7JTFNU0","","null","<img src=""img/food5.png"" style=""width:200px; border:14px solid green;"">","null","","","","","","","","","",""
"","image-keyboard-response","244","71778","0.0-334.0","3OWEPKL08AYSHY92KKRPFJVBJVK7NZ","A345VDWYMDWTGD","3PIOQ99R7Y8STPN46QFY0SD7JTFNU0","","156.09999990463257","img/food6.png","74","158.30000019073486","1","1","","3","1","1,0.5,0,1,0.5,0,0.5,0,1","0,1,0.5,0,1,0.5,1,0.5,0","3",""
"","html-keyboard-response","245","72082","0.0-335.0","3OWEPKL08AYSHY92KKRPFJVBJVK7NZ","A345VDWYMDWTGD","3PIOQ99R7Y8STPN46QFY0SD7JTFNU0","","null","<img src=""img/food6.png"" style=""width:200px; border:14px solid green;"">","null","","","","","","","","","",""
"","image-keyboard-response","246","72156","0.0-336.0","3OWEPKL08AYSHY92KKRPFJVBJVK7NZ","A345VDWYMDWTGD","3PIOQ99R7Y8STPN46QFY0SD7JTFNU0","","72.80000019073486","img/food3.png","75","74.2999997138977","2","1","","2","1","1,0.5,0,1,0.5,0,0.5,0,1","0,1,0.5,0,1,0.5,1,0.5,0","3",""
"","html-keyboard-response","247","72464","0.0-337.0","3OWEPKL08AYSHY92KKRPFJVBJVK7NZ","A345VDWYMDWTGD","3PIOQ99R7Y8STPN46QFY0SD7JTFNU0","","null","<img src=""img/food3.png"" style=""width:200px; border:14px solid green;"">","null","","","","","","","","","",""
"","image-keyboard-response","248","72541","0.0-338.0","3OWEPKL08AYSHY92KKRPFJVBJVK7NZ","A345VDWYMDWTGD","3PIOQ99R7Y8STPN46QFY0SD7JTFNU0","","75.19999980926514","img/food3.png","76","76.90000009536743","3","0","","2","1","1,0.5,0,1,0.5,0,0.5,0,1","0,1,0.5,0,1,0.5,1,0.5,0","3",""
"","html-keyboard-response","249","72849","0.0-339.0","3OWEPKL08AYSHY92KKRPFJVBJVK7NZ","A345VDWYMDWTGD","3PIOQ99R7Y8STPN46QFY0SD7JTFNU0","","null","<img src=""img/food3.png"" style=""width:200px;border:14px solid red;"">","null","","","","","","","","","",""
"","image-keyboard-response","250","73015","0.0-340.0","3OWEPKL08AYSHY92KKRPFJVBJVK7NZ","A345VDWYMDWTGD","3PIOQ99R7Y8STPN46QFY0SD7JTFNU0","","163.59999990463257","img/food3.png","75","165.59999990463257","2","1","","2","1","1,0.5,0,1,0.5,0,0.5,0,1","0,1,0.5,0,1,0.5,1,0.5,0","3",""
"","html-keyboard-response","251","73323","0.0-341.0","3OWEPKL08AYSHY92KKRPFJVBJVK7NZ","A345VDWYMDWTGD","3PIOQ99R7Y8STPN46QFY0SD7JTFNU0","","null","<img src=""img/food3.png"" style=""width:200px; border:14px solid green;"">","null","","","","","","","","","",""
"","image-keyboard-response","252","73830","0.0-342.0","3OWEPKL08AYSHY92KKRPFJVBJVK7NZ","A345VDWYMDWTGD","3PIOQ99R7Y8STPN46QFY0SD7JTFNU0","","504.59999990463257","img/food5.png","75","506.30000019073486","2","1","","1","1","1,0.5,0,1,0.5,0,0.5,0,1","0,1,0.5,0,1,0.5,1,0.5,0","3",""
"","html-keyboard-response","253","74138","0.0-343.0","3OWEPKL08AYSHY92KKRPFJVBJVK7NZ","A345VDWYMDWTGD","3PIOQ99R7Y8STPN46QFY0SD7JTFNU0","","null","<img src=""img/food5.png"" style=""width:200px; border:14px solid green;"">","null","","","","","","","","","",""
"","image-keyboard-response","254","74155","0.0-344.0","3OWEPKL08AYSHY92KKRPFJVBJVK7NZ","A345VDWYMDWTGD","3PIOQ99R7Y8STPN46QFY0SD7JTFNU0","","13.900000095367432","img/food6.png","74","15.799999713897705","1","1","","3","1","1,0.5,0,1,0.5,0,0.5,0,1","0,1,0.5,0,1,0.5,1,0.5,0","3",""
"","html-keyboard-response","255","74462","0.0-345.0","3OWEPKL08AYSHY92KKRPFJVBJVK7NZ","A345VDWYMDWTGD","3PIOQ99R7Y8STPN46QFY0SD7JTFNU0","","null","<img src=""img/food6.png"" style=""width:200px; border:14px solid green;"">","null","","","","","","","","","",""
"","image-keyboard-response","256","74550","0.0-346.0","3OWEPKL08AYSHY92KKRPFJVBJVK7NZ","A345VDWYMDWTGD","3PIOQ99R7Y8STPN46QFY0SD7JTFNU0","","85.7999997138977","img/food3.png","75","87.80000019073486","2","1","","2","1","1,0.5,0,1,0.5,0,0.5,0,1","0,1,0.5,0,1,0.5,1,0.5,0","3",""
"","html-keyboard-response","257","74854","0.0-347.0","3OWEPKL08AYSHY92KKRPFJVBJVK7NZ","A345VDWYMDWTGD","3PIOQ99R7Y8STPN46QFY0SD7JTFNU0","","null","<img src=""img/food3.png"" style=""width:200px; border:14px solid green;"">","null","","","","","","","","","",""
"","image-keyboard-response","258","74960","0.0-348.0","3OWEPKL08AYSHY92KKRPFJVBJVK7NZ","A345VDWYMDWTGD","3PIOQ99R7Y8STPN46QFY0SD7JTFNU0","","104.10000038146973","img/food5.png","75","105.90000009536743","2","1","","1","1","1,0.5,0,1,0.5,0,0.5,0,1","0,1,0.5,0,1,0.5,1,0.5,0","3",""
"","html-keyboard-response","259","75268","0.0-349.0","3OWEPKL08AYSHY92KKRPFJVBJVK7NZ","A345VDWYMDWTGD","3PIOQ99R7Y8STPN46QFY0SD7JTFNU0","","null","<img src=""img/food5.png"" style=""width:200px; border:14px solid green;"">","null","","","","","","","","","",""
"","image-keyboard-response","260","75292","0.0-350.0","3OWEPKL08AYSHY92KKRPFJVBJVK7NZ","A345VDWYMDWTGD","3PIOQ99R7Y8STPN46QFY0SD7JTFNU0","","22.59999990463257","img/food6.png","74","24.199999809265137","1","1","","3","1","1,0.5,0,1,0.5,0,0.5,0,1","0,1,0.5,0,1,0.5,1,0.5,0","3",""
"","html-keyboard-response","261","75599","0.0-351.0","3OWEPKL08AYSHY92KKRPFJVBJVK7NZ","A345VDWYMDWTGD","3PIOQ99R7Y8STPN46QFY0SD7JTFNU0","","null","<img src=""img/food6.png"" style=""width:200px; border:14px solid green;"">","null","","","","","","","","","",""
"","image-keyboard-response","262","75677","0.0-352.0","3OWEPKL08AYSHY92KKRPFJVBJVK7NZ","A345VDWYMDWTGD","3PIOQ99R7Y8STPN46QFY0SD7JTFNU0","","75.7999997138977","img/food3.png","75","77.59999990463257","2","1","","2","1","1,0.5,0,1,0.5,0,0.5,0,1","0,1,0.5,0,1,0.5,1,0.5,0","3",""
"","html-keyboard-response","263","75985","0.0-353.0","3OWEPKL08AYSHY92KKRPFJVBJVK7NZ","A345VDWYMDWTGD","3PIOQ99R7Y8STPN46QFY0SD7JTFNU0","","null","<img src=""img/food3.png"" style=""width:200px; border:14px solid green;"">","null","","","","","","","","","",""
"","image-keyboard-response","264","76202","0.0-354.0","3OWEPKL08AYSHY92KKRPFJVBJVK7NZ","A345VDWYMDWTGD","3PIOQ99R7Y8STPN46QFY0SD7JTFNU0","","214.2999997138977","img/food5.png","75","215.80000019073486","2","1","","1","1","1,0.5,0,1,0.5,0,0.5,0,1","0,1,0.5,0,1,0.5,1,0.5,0","3",""
"","html-keyboard-response","265","76507","0.0-355.0","3OWEPKL08AYSHY92KKRPFJVBJVK7NZ","A345VDWYMDWTGD","3PIOQ99R7Y8STPN46QFY0SD7JTFNU0","","null","<img src=""img/food5.png"" style=""width:200px; border:14px solid green;"">","null","","","","","","","","","",""
"","image-keyboard-response","266","76567","0.0-356.0","3OWEPKL08AYSHY92KKRPFJVBJVK7NZ","A345VDWYMDWTGD","3PIOQ99R7Y8STPN46QFY0SD7JTFNU0","","57.60000038146973","img/food5.png","74","59.59999990463257","1","0","","1","1","1,0.5,0,1,0.5,0,0.5,0,1","0,1,0.5,0,1,0.5,1,0.5,0","3",""
"","html-keyboard-response","267","76873","0.0-357.0","3OWEPKL08AYSHY92KKRPFJVBJVK7NZ","A345VDWYMDWTGD","3PIOQ99R7Y8STPN46QFY0SD7JTFNU0","","null","<img src=""img/food5.png"" style=""width:200px;border:14px solid red;"">","null","","","","","","","","","",""
"","image-keyboard-response","268","76986","0.0-358.0","3OWEPKL08AYSHY92KKRPFJVBJVK7NZ","A345VDWYMDWTGD","3PIOQ99R7Y8STPN46QFY0SD7JTFNU0","","110.69999980926514","img/food3.png","75","112.59999990463257","2","1","","2","1","1,0.5,0,1,0.5,0,0.5,0,1","0,1,0.5,0,1,0.5,1,0.5,0","3",""
"","html-keyboard-response","269","77293","0.0-359.0","3OWEPKL08AYSHY92KKRPFJVBJVK7NZ","A345VDWYMDWTGD","3PIOQ99R7Y8STPN46QFY0SD7JTFNU0","","null","<img src=""img/food3.png"" style=""width:200px; border:14px solid green;"">","null","","","","","","","","","",""
"","image-keyboard-response","270","77735","0.0-360.0","3OWEPKL08AYSHY92KKRPFJVBJVK7NZ","A345VDWYMDWTGD","3PIOQ99R7Y8STPN46QFY0SD7JTFNU0","","439.69999980926514","img/food6.png","75","442","2","1","","3","1","1,0.5,0,1,0.5,0,0.5,0,1","0,1,0.5,0,1,0.5,1,0.5,0","3",""
"","html-keyboard-response","271","78043","0.0-361.0","3OWEPKL08AYSHY92KKRPFJVBJVK7NZ","A345VDWYMDWTGD","3PIOQ99R7Y8STPN46QFY0SD7JTFNU0","","null","<img src=""img/food6.png"" style=""width:200px; border:14px solid green;"">","null","","","","","","","","","",""
"","image-keyboard-response","272","78190","0.0-362.0","3OWEPKL08AYSHY92KKRPFJVBJVK7NZ","A345VDWYMDWTGD","3PIOQ99R7Y8STPN46QFY0SD7JTFNU0","","144","img/food5.png","74","146.09999990463257","1","0","","1","1","1,0.5,0,1,0.5,0,0.5,0,1","0,1,0.5,0,1,0.5,1,0.5,0","3",""
"","html-keyboard-response","273","78498","0.0-363.0","3OWEPKL08AYSHY92KKRPFJVBJVK7NZ","A345VDWYMDWTGD","3PIOQ99R7Y8STPN46QFY0SD7JTFNU0","","null","<img src=""img/food5.png"" style=""width:200px;border:14px solid red;"">","null","","","","","","","","","",""
"","image-keyboard-response","274","78526","0.0-364.0","3OWEPKL08AYSHY92KKRPFJVBJVK7NZ","A345VDWYMDWTGD","3PIOQ99R7Y8STPN46QFY0SD7JTFNU0","","25.90000009536743","img/food6.png","75","28.09999990463257","2","0","","3","1","1,0.5,0,1,0.5,0,0.5,0,1","0,1,0.5,0,1,0.5,1,0.5,0","3",""
"","html-keyboard-response","275","78832","0.0-365.0","3OWEPKL08AYSHY92KKRPFJVBJVK7NZ","A345VDWYMDWTGD","3PIOQ99R7Y8STPN46QFY0SD7JTFNU0","","null","<img src=""img/food6.png"" style=""width:200px;border:14px solid red;"">","null","","","","","","","","","",""
"","image-keyboard-response","276","78929","0.0-366.0","3OWEPKL08AYSHY92KKRPFJVBJVK7NZ","A345VDWYMDWTGD","3PIOQ99R7Y8STPN46QFY0SD7JTFNU0","","94.40000009536743","img/food6.png","76","96.59999990463257","3","0","","3","1","1,0.5,0,1,0.5,0,0.5,0,1","0,1,0.5,0,1,0.5,1,0.5,0","3",""
"","html-keyboard-response","277","79237","0.0-367.0","3OWEPKL08AYSHY92KKRPFJVBJVK7NZ","A345VDWYMDWTGD","3PIOQ99R7Y8STPN46QFY0SD7JTFNU0","","null","<img src=""img/food6.png"" style=""width:200px;border:14px solid red;"">","null","","","","","","","","","",""
"","image-keyboard-response","278","79334","0.0-368.0","3OWEPKL08AYSHY92KKRPFJVBJVK7NZ","A345VDWYMDWTGD","3PIOQ99R7Y8STPN46QFY0SD7JTFNU0","","94.5","img/food5.png","75","96.5","2","1","","1","1","1,0.5,0,1,0.5,0,0.5,0,1","0,1,0.5,0,1,0.5,1,0.5,0","3",""
"","html-keyboard-response","279","79641","0.0-369.0","3OWEPKL08AYSHY92KKRPFJVBJVK7NZ","A345VDWYMDWTGD","3PIOQ99R7Y8STPN46QFY0SD7JTFNU0","","null","<img src=""img/food5.png"" style=""width:200px; border:14px solid green;"">","null","","","","","","","","","",""
"","image-keyboard-response","280","79797","0.0-370.0","3OWEPKL08AYSHY92KKRPFJVBJVK7NZ","A345VDWYMDWTGD","3PIOQ99R7Y8STPN46QFY0SD7JTFNU0","","153.59999990463257","img/food5.png","74","155.59999990463257","1","0","","1","1","1,0.5,0,1,0.5,0,0.5,0,1","0,1,0.5,0,1,0.5,1,0.5,0","3",""
"","html-keyboard-response","281","80104","0.0-371.0","3OWEPKL08AYSHY92KKRPFJVBJVK7NZ","A345VDWYMDWTGD","3PIOQ99R7Y8STPN46QFY0SD7JTFNU0","","null","<img src=""img/food5.png"" style=""width:200px;border:14px solid red;"">","null","","","","","","","","","",""
"","image-keyboard-response","282","80174","0.0-372.0","3OWEPKL08AYSHY92KKRPFJVBJVK7NZ","A345VDWYMDWTGD","3PIOQ99R7Y8STPN46QFY0SD7JTFNU0","","67.30000019073486","img/food6.png","75","69.40000009536743","2","0","","3","1","1,0.5,0,1,0.5,0,0.5,0,1","0,1,0.5,0,1,0.5,1,0.5,0","3",""
"","html-keyboard-response","283","80482","0.0-373.0","3OWEPKL08AYSHY92KKRPFJVBJVK7NZ","A345VDWYMDWTGD","3PIOQ99R7Y8STPN46QFY0SD7JTFNU0","","null","<img src=""img/food6.png"" style=""width:200px;border:14px solid red;"">","null","","","","","","","","","",""
"","image-keyboard-response","284","80594","0.0-374.0","3OWEPKL08AYSHY92KKRPFJVBJVK7NZ","A345VDWYMDWTGD","3PIOQ99R7Y8STPN46QFY0SD7JTFNU0","","109.39999961853027","img/food6.png","76","111.2999997138977","3","0","","3","1","1,0.5,0,1,0.5,0,0.5,0,1","0,1,0.5,0,1,0.5,1,0.5,0","3",""
"","html-keyboard-response","285","80902","0.0-375.0","3OWEPKL08AYSHY92KKRPFJVBJVK7NZ","A345VDWYMDWTGD","3PIOQ99R7Y8STPN46QFY0SD7JTFNU0","","null","<img src=""img/food6.png"" style=""width:200px;border:14px solid red;"">","null","","","","","","","","","",""
"","image-keyboard-response","286","81049","0.0-376.0","3OWEPKL08AYSHY92KKRPFJVBJVK7NZ","A345VDWYMDWTGD","3PIOQ99R7Y8STPN46QFY0SD7JTFNU0","","144.80000019073486","img/food5.png","75","146.69999980926514","2","1","","1","1","1,0.5,0,1,0.5,0,0.5,0,1","0,1,0.5,0,1,0.5,1,0.5,0","3",""
"","html-keyboard-response","287","81357","0.0-377.0","3OWEPKL08AYSHY92KKRPFJVBJVK7NZ","A345VDWYMDWTGD","3PIOQ99R7Y8STPN46QFY0SD7JTFNU0","","null","<img src=""img/food5.png"" style=""width:200px; border:14px solid green;"">","null","","","","","","","","","",""
"","image-keyboard-response","288","81405","0.0-378.0","3OWEPKL08AYSHY92KKRPFJVBJVK7NZ","A345VDWYMDWTGD","3PIOQ99R7Y8STPN46QFY0SD7JTFNU0","","44.80000019073486","img/food5.png","74","47.19999980926514","1","0","","1","1","1,0.5,0,1,0.5,0,0.5,0,1","0,1,0.5,0,1,0.5,1,0.5,0","3",""
"","html-keyboard-response","289","81713","0.0-379.0","3OWEPKL08AYSHY92KKRPFJVBJVK7NZ","A345VDWYMDWTGD","3PIOQ99R7Y8STPN46QFY0SD7JTFNU0","","null","<img src=""img/food5.png"" style=""width:200px;border:14px solid red;"">","null","","","","","","","","","",""
"","image-keyboard-response","290","81826","0.0-380.0","3OWEPKL08AYSHY92KKRPFJVBJVK7NZ","A345VDWYMDWTGD","3PIOQ99R7Y8STPN46QFY0SD7JTFNU0","","111","img/food5.png","76","112.5","3","1","","1","1","1,0.5,0,1,0.5,0,0.5,0,1","0,1,0.5,0,1,0.5,1,0.5,0","3",""
"","html-keyboard-response","291","82133","0.0-381.0","3OWEPKL08AYSHY92KKRPFJVBJVK7NZ","A345VDWYMDWTGD","3PIOQ99R7Y8STPN46QFY0SD7JTFNU0","","null","<img src=""img/food5.png"" style=""width:200px; border:14px solid green;"">","null","","","","","","","","","",""
"","image-keyboard-response","292","82215","0.0-382.0","3OWEPKL08AYSHY92KKRPFJVBJVK7NZ","A345VDWYMDWTGD","3PIOQ99R7Y8STPN46QFY0SD7JTFNU0","","79.30000019073486","img/food6.png","75","81.40000009536743","2","0","","3","1","1,0.5,0,1,0.5,0,0.5,0,1","0,1,0.5,0,1,0.5,1,0.5,0","3",""
"","html-keyboard-response","293","82523","0.0-383.0","3OWEPKL08AYSHY92KKRPFJVBJVK7NZ","A345VDWYMDWTGD","3PIOQ99R7Y8STPN46QFY0SD7JTFNU0","","null","<img src=""img/food6.png"" style=""width:200px;border:14px solid red;"">","null","","","","","","","","","",""
"","image-keyboard-response","294","82726","0.0-384.0","3OWEPKL08AYSHY92KKRPFJVBJVK7NZ","A345VDWYMDWTGD","3PIOQ99R7Y8STPN46QFY0SD7JTFNU0","","200.80000019073486","img/food6.png","74","203.09999990463257","1","1","","3","1","1,0.5,0,1,0.5,0,0.5,0,1","0,1,0.5,0,1,0.5,1,0.5,0","3",""
"","html-keyboard-response","295","83034","0.0-385.0","3OWEPKL08AYSHY92KKRPFJVBJVK7NZ","A345VDWYMDWTGD","3PIOQ99R7Y8STPN46QFY0SD7JTFNU0","","null","<img src=""img/food6.png"" style=""width:200px; border:14px solid green;"">","null","","","","","","","","","",""
"","image-keyboard-response","296","83249","0.0-386.0","3OWEPKL08AYSHY92KKRPFJVBJVK7NZ","A345VDWYMDWTGD","3PIOQ99R7Y8STPN46QFY0SD7JTFNU0","","212.2999997138977","img/food5.png","74","214.5","1","0","","1","1","1,0.5,0,1,0.5,0,0.5,0,1","0,1,0.5,0,1,0.5,1,0.5,0","3",""
"","html-keyboard-response","297","83557","0.0-387.0","3OWEPKL08AYSHY92KKRPFJVBJVK7NZ","A345VDWYMDWTGD","3PIOQ99R7Y8STPN46QFY0SD7JTFNU0","","null","<img src=""img/food5.png"" style=""width:200px;border:14px solid red;"">","null","","","","","","","","","",""
"","image-keyboard-response","298","83565","0.0-388.0","3OWEPKL08AYSHY92KKRPFJVBJVK7NZ","A345VDWYMDWTGD","3PIOQ99R7Y8STPN46QFY0SD7JTFNU0","","5.900000095367432","img/food6.png","75","7.5","2","0","","3","1","1,0.5,0,1,0.5,0,0.5,0,1","0,1,0.5,0,1,0.5,1,0.5,0","3",""
"","html-keyboard-response","299","83871","0.0-389.0","3OWEPKL08AYSHY92KKRPFJVBJVK7NZ","A345VDWYMDWTGD","3PIOQ99R7Y8STPN46QFY0SD7JTFNU0","","null","<img src=""img/food6.png"" style=""width:200px;border:14px solid red;"">","null","","","","","","","","","",""
"","image-keyboard-response","300","83915","0.0-390.0","3OWEPKL08AYSHY92KKRPFJVBJVK7NZ","A345VDWYMDWTGD","3PIOQ99R7Y8STPN46QFY0SD7JTFNU0","","42","img/food3.png","76","43.5","3","1","","2","1","1,0.5,0,1,0.5,0,0.5,0,1","0,1,0.5,0,1,0.5,1,0.5,0","3",""
"","html-keyboard-response","301","84222","0.0-391.0","3OWEPKL08AYSHY92KKRPFJVBJVK7NZ","A345VDWYMDWTGD","3PIOQ99R7Y8STPN46QFY0SD7JTFNU0","","null","<img src=""img/food3.png"" style=""width:200px; border:14px solid green;"">","null","","","","","","","","","",""
"","image-keyboard-response","302","84471","0.0-392.0","3OWEPKL08AYSHY92KKRPFJVBJVK7NZ","A345VDWYMDWTGD","3PIOQ99R7Y8STPN46QFY0SD7JTFNU0","","247","img/food3.png","76","248.90000009536743","3","0","","2","1","1,0.5,0,1,0.5,0,0.5,0,1","0,1,0.5,0,1,0.5,1,0.5,0","3",""
"","html-keyboard-response","303","84775","0.0-393.0","3OWEPKL08AYSHY92KKRPFJVBJVK7NZ","A345VDWYMDWTGD","3PIOQ99R7Y8STPN46QFY0SD7JTFNU0","","null","<img src=""img/food3.png"" style=""width:200px;border:14px solid red;"">","null","","","","","","","","","",""
"","image-keyboard-response","304","85281","0.0-394.0","3OWEPKL08AYSHY92KKRPFJVBJVK7NZ","A345VDWYMDWTGD","3PIOQ99R7Y8STPN46QFY0SD7JTFNU0","","503.90000009536743","img/food3.png","76","505.80000019073486","3","1","","2","1","1,0.5,0,1,0.5,0,0.5,0,1","0,1,0.5,0,1,0.5,1,0.5,0","3",""
"","html-keyboard-response","305","85589","0.0-395.0","3OWEPKL08AYSHY92KKRPFJVBJVK7NZ","A345VDWYMDWTGD","3PIOQ99R7Y8STPN46QFY0SD7JTFNU0","","null","<img src=""img/food3.png"" style=""width:200px; border:14px solid green;"">","null","","","","","","","","","",""
"","image-keyboard-response","306","85754","0.0-396.0","3OWEPKL08AYSHY92KKRPFJVBJVK7NZ","A345VDWYMDWTGD","3PIOQ99R7Y8STPN46QFY0SD7JTFNU0","","162.90000009536743","img/food5.png","75","164.90000009536743","2","1","","1","1","1,0.5,0,1,0.5,0,0.5,0,1","0,1,0.5,0,1,0.5,1,0.5,0","3",""
"","html-keyboard-response","307","86062","0.0-397.0","3OWEPKL08AYSHY92KKRPFJVBJVK7NZ","A345VDWYMDWTGD","3PIOQ99R7Y8STPN46QFY0SD7JTFNU0","","null","<img src=""img/food5.png"" style=""width:200px; border:14px solid green;"">","null","","","","","","","","","",""
"","image-keyboard-response","308","86262","0.0-398.0","3OWEPKL08AYSHY92KKRPFJVBJVK7NZ","A345VDWYMDWTGD","3PIOQ99R7Y8STPN46QFY0SD7JTFNU0","","197.40000009536743","img/food3.png","75","199.60000038146973","2","1","","2","1","1,0.5,0,1,0.5,0,0.5,0,1","0,1,0.5,0,1,0.5,1,0.5,0","3",""
"","html-keyboard-response","309","86566","0.0-399.0","3OWEPKL08AYSHY92KKRPFJVBJVK7NZ","A345VDWYMDWTGD","3PIOQ99R7Y8STPN46QFY0SD7JTFNU0","","null","<img src=""img/food3.png"" style=""width:200px; border:14px solid green;"">","null","","","","","","","","","",""
"","image-keyboard-response","310","86591","0.0-400.0","3OWEPKL08AYSHY92KKRPFJVBJVK7NZ","A345VDWYMDWTGD","3PIOQ99R7Y8STPN46QFY0SD7JTFNU0","","22.90000009536743","img/food5.png","74","25.09999990463257","1","0","","1","1","1,0.5,0,1,0.5,0,0.5,0,1","0,1,0.5,0,1,0.5,1,0.5,0","3",""
"","html-keyboard-response","311","86899","0.0-401.0","3OWEPKL08AYSHY92KKRPFJVBJVK7NZ","A345VDWYMDWTGD","3PIOQ99R7Y8STPN46QFY0SD7JTFNU0","","null","<img src=""img/food5.png"" style=""width:200px;border:14px solid red;"">","null","","","","","","","","","",""
"","image-keyboard-response","312","87068","0.0-402.0","3OWEPKL08AYSHY92KKRPFJVBJVK7NZ","A345VDWYMDWTGD","3PIOQ99R7Y8STPN46QFY0SD7JTFNU0","","166.2000002861023","img/food3.png","75","168.2999997138977","2","1","","2","1","1,0.5,0,1,0.5,0,0.5,0,1","0,1,0.5,0,1,0.5,1,0.5,0","3",""
"","html-keyboard-response","313","87374","0.0-403.0","3OWEPKL08AYSHY92KKRPFJVBJVK7NZ","A345VDWYMDWTGD","3PIOQ99R7Y8STPN46QFY0SD7JTFNU0","","null","<img src=""img/food3.png"" style=""width:200px; border:14px solid green;"">","null","","","","","","","","","",""
"","image-keyboard-response","314","87480","0.0-404.0","3OWEPKL08AYSHY92KKRPFJVBJVK7NZ","A345VDWYMDWTGD","3PIOQ99R7Y8STPN46QFY0SD7JTFNU0","","103.2999997138977","img/food3.png","76","105.5","3","0","","2","1","1,0.5,0,1,0.5,0,0.5,0,1","0,1,0.5,0,1,0.5,1,0.5,0","3",""
"","html-keyboard-response","315","87786","0.0-405.0","3OWEPKL08AYSHY92KKRPFJVBJVK7NZ","A345VDWYMDWTGD","3PIOQ99R7Y8STPN46QFY0SD7JTFNU0","","null","<img src=""img/food3.png"" style=""width:200px;border:14px solid red;"">","null","","","","","","","","","",""
"","image-keyboard-response","316","88060","0.0-406.0","3OWEPKL08AYSHY92KKRPFJVBJVK7NZ","A345VDWYMDWTGD","3PIOQ99R7Y8STPN46QFY0SD7JTFNU0","","270.90000009536743","img/food5.png","76","273.2000002861023","3","1","","1","1","1,0.5,0,1,0.5,0,0.5,0,1","0,1,0.5,0,1,0.5,1,0.5,0","3",""
"","html-keyboard-response","317","88368","0.0-407.0","3OWEPKL08AYSHY92KKRPFJVBJVK7NZ","A345VDWYMDWTGD","3PIOQ99R7Y8STPN46QFY0SD7JTFNU0","","null","<img src=""img/food5.png"" style=""width:200px; border:14px solid green;"">","null","","","","","","","","","",""
"","image-keyboard-response","318","88474","0.0-408.0","3OWEPKL08AYSHY92KKRPFJVBJVK7NZ","A345VDWYMDWTGD","3PIOQ99R7Y8STPN46QFY0SD7JTFNU0","","102.69999980926514","img/food6.png","75","104.7999997138977","2","1","","3","1","1,0.5,0,1,0.5,0,0.5,0,1","0,1,0.5,0,1,0.5,1,0.5,0","3",""
"","html-keyboard-response","319","88782","0.0-409.0","3OWEPKL08AYSHY92KKRPFJVBJVK7NZ","A345VDWYMDWTGD","3PIOQ99R7Y8STPN46QFY0SD7JTFNU0","","null","<img src=""img/food6.png"" style=""width:200px; border:14px solid green;"">","null","","","","","","","","","",""
"","image-keyboard-response","320","88863","0.0-410.0","3OWEPKL08AYSHY92KKRPFJVBJVK7NZ","A345VDWYMDWTGD","3PIOQ99R7Y8STPN46QFY0SD7JTFNU0","","78.80000019073486","img/food3.png","74","80.30000019073486","1","0","","2","1","1,0.5,0,1,0.5,0,0.5,0,1","0,1,0.5,0,1,0.5,1,0.5,0","3",""
"","html-keyboard-response","321","89168","0.0-411.0","3OWEPKL08AYSHY92KKRPFJVBJVK7NZ","A345VDWYMDWTGD","3PIOQ99R7Y8STPN46QFY0SD7JTFNU0","","null","<img src=""img/food3.png"" style=""width:200px;border:14px solid red;"">","null","","","","","","","","","",""
"","image-keyboard-response","322","89315","0.0-412.0","3OWEPKL08AYSHY92KKRPFJVBJVK7NZ","A345VDWYMDWTGD","3PIOQ99R7Y8STPN46QFY0SD7JTFNU0","","145.09999990463257","img/food5.png","76","147.40000009536743","3","0","","1","1","1,0.5,0,1,0.5,0,0.5,0,1","0,1,0.5,0,1,0.5,1,0.5,0","3",""
"","html-keyboard-response","323","89621","0.0-413.0","3OWEPKL08AYSHY92KKRPFJVBJVK7NZ","A345VDWYMDWTGD","3PIOQ99R7Y8STPN46QFY0SD7JTFNU0","","null","<img src=""img/food5.png"" style=""width:200px;border:14px solid red;"">","null","","","","","","","","","",""
"","image-keyboard-response","324","89835","0.0-414.0","3OWEPKL08AYSHY92KKRPFJVBJVK7NZ","A345VDWYMDWTGD","3PIOQ99R7Y8STPN46QFY0SD7JTFNU0","","211.7999997138977","img/food6.png","75","213.90000009536743","2","1","","3","1","1,0.5,0,1,0.5,0,0.5,0,1","0,1,0.5,0,1,0.5,1,0.5,0","3",""
"","html-keyboard-response","325","90142","0.0-415.0","3OWEPKL08AYSHY92KKRPFJVBJVK7NZ","A345VDWYMDWTGD","3PIOQ99R7Y8STPN46QFY0SD7JTFNU0","","null","<img src=""img/food6.png"" style=""width:200px; border:14px solid green;"">","null","","","","","","","","","",""
"","image-keyboard-response","326","90196","0.0-416.0","3OWEPKL08AYSHY92KKRPFJVBJVK7NZ","A345VDWYMDWTGD","3PIOQ99R7Y8STPN46QFY0SD7JTFNU0","","51.69999980926514","img/food6.png","74","53.80000019073486","1","1","","3","1","1,0.5,0,1,0.5,0,0.5,0,1","0,1,0.5,0,1,0.5,1,0.5,0","3",""
"","html-keyboard-response","327","90504","0.0-417.0","3OWEPKL08AYSHY92KKRPFJVBJVK7NZ","A345VDWYMDWTGD","3PIOQ99R7Y8STPN46QFY0SD7JTFNU0","","null","<img src=""img/food6.png"" style=""width:200px; border:14px solid green;"">","null","","","","","","","","","",""
"","image-keyboard-response","328","90749","0.0-418.0","3OWEPKL08AYSHY92KKRPFJVBJVK7NZ","A345VDWYMDWTGD","3PIOQ99R7Y8STPN46QFY0SD7JTFNU0","","243.09999990463257","img/food5.png","75","245.40000009536743","2","1","","1","1","1,0.5,0,1,0.5,0,0.5,0,1","0,1,0.5,0,1,0.5,1,0.5,0","3",""
"","html-keyboard-response","329","91057","0.0-419.0","3OWEPKL08AYSHY92KKRPFJVBJVK7NZ","A345VDWYMDWTGD","3PIOQ99R7Y8STPN46QFY0SD7JTFNU0","","null","<img src=""img/food5.png"" style=""width:200px; border:14px solid green;"">","null","","","","","","","","","",""
"","image-keyboard-response","330","91145","0.0-420.0","3OWEPKL08AYSHY92KKRPFJVBJVK7NZ","A345VDWYMDWTGD","3PIOQ99R7Y8STPN46QFY0SD7JTFNU0","","85","img/food6.png","76","87.2000002861023","3","0","","3","1","1,0.5,0,1,0.5,0,0.5,0,1","0,1,0.5,0,1,0.5,1,0.5,0","3",""
"","html-keyboard-response","331","91453","0.0-421.0","3OWEPKL08AYSHY92KKRPFJVBJVK7NZ","A345VDWYMDWTGD","3PIOQ99R7Y8STPN46QFY0SD7JTFNU0","","null","<img src=""img/food6.png"" style=""width:200px;border:14px solid red;"">","null","","","","","","","","","",""
"","image-keyboard-response","332","91566","0.0-422.0","3OWEPKL08AYSHY92KKRPFJVBJVK7NZ","A345VDWYMDWTGD","3PIOQ99R7Y8STPN46QFY0SD7JTFNU0","","111.30000019073486","img/food5.png","75","113.40000009536743","2","1","","1","1","1,0.5,0,1,0.5,0,0.5,0,1","0,1,0.5,0,1,0.5,1,0.5,0","3",""
"","html-keyboard-response","333","91874","0.0-423.0","3OWEPKL08AYSHY92KKRPFJVBJVK7NZ","A345VDWYMDWTGD","3PIOQ99R7Y8STPN46QFY0SD7JTFNU0","","null","<img src=""img/food5.png"" style=""width:200px; border:14px solid green;"">","null","","","","","","","","","",""
"","image-keyboard-response","334","91940","0.0-424.0","3OWEPKL08AYSHY92KKRPFJVBJVK7NZ","A345VDWYMDWTGD","3PIOQ99R7Y8STPN46QFY0SD7JTFNU0","","63.40000009536743","img/food6.png","74","65.5","1","1","","3","1","1,0.5,0,1,0.5,0,0.5,0,1","0,1,0.5,0,1,0.5,1,0.5,0","3",""
"","html-keyboard-response","335","92247","0.0-425.0","3OWEPKL08AYSHY92KKRPFJVBJVK7NZ","A345VDWYMDWTGD","3PIOQ99R7Y8STPN46QFY0SD7JTFNU0","","null","<img src=""img/food6.png"" style=""width:200px; border:14px solid green;"">","null","","","","","","","","","",""
"","image-keyboard-response","336","92511","0.0-426.0","3OWEPKL08AYSHY92KKRPFJVBJVK7NZ","A345VDWYMDWTGD","3PIOQ99R7Y8STPN46QFY0SD7JTFNU0","","263.2000002861023","img/food6.png","74","263.69999980926514","1","1","","3","1","1,0.5,0,1,0.5,0,0.5,0,1","0,1,0.5,0,1,0.5,1,0.5,0","3",""
"","html-keyboard-response","337","92817","0.0-427.0","3OWEPKL08AYSHY92KKRPFJVBJVK7NZ","A345VDWYMDWTGD","3PIOQ99R7Y8STPN46QFY0SD7JTFNU0","","null","<img src=""img/food6.png"" style=""width:200px; border:14px solid green;"">","null","","","","","","","","","",""
"","image-keyboard-response","338","93268","0.0-428.0","3OWEPKL08AYSHY92KKRPFJVBJVK7NZ","A345VDWYMDWTGD","3PIOQ99R7Y8STPN46QFY0SD7JTFNU0","","447.8999996185303","img/food6.png","75","449.7000002861023","2","0","","3","1","1,0.5,0,1,0.5,0,0.5,0,1","0,1,0.5,0,1,0.5,1,0.5,0","3",""
"","html-keyboard-response","339","93575","0.0-429.0","3OWEPKL08AYSHY92KKRPFJVBJVK7NZ","A345VDWYMDWTGD","3PIOQ99R7Y8STPN46QFY0SD7JTFNU0","","null","<img src=""img/food6.png"" style=""width:200px;border:14px solid red;"">","null","","","","","","","","","",""
"","image-keyboard-response","340","93710","0.0-430.0","3OWEPKL08AYSHY92KKRPFJVBJVK7NZ","A345VDWYMDWTGD","3PIOQ99R7Y8STPN46QFY0SD7JTFNU0","","132.80000019073486","img/food5.png","74","134","1","0","","1","1","1,0.5,0,1,0.5,0,0.5,0,1","0,1,0.5,0,1,0.5,1,0.5,0","3",""
"","html-keyboard-response","341","94015","0.0-431.0","3OWEPKL08AYSHY92KKRPFJVBJVK7NZ","A345VDWYMDWTGD","3PIOQ99R7Y8STPN46QFY0SD7JTFNU0","","null","<img src=""img/food5.png"" style=""width:200px;border:14px solid red;"">","null","","","","","","","","","",""
"","image-keyboard-response","342","94185","0.0-432.0","3OWEPKL08AYSHY92KKRPFJVBJVK7NZ","A345VDWYMDWTGD","3PIOQ99R7Y8STPN46QFY0SD7JTFNU0","","167.2000002861023","img/food3.png","76","169.30000019073486","3","0","","2","1","1,0.5,0,1,0.5,0,0.5,0,1","0,1,0.5,0,1,0.5,1,0.5,0","3",""
"","html-keyboard-response","343","94490","0.0-433.0","3OWEPKL08AYSHY92KKRPFJVBJVK7NZ","A345VDWYMDWTGD","3PIOQ99R7Y8STPN46QFY0SD7JTFNU0","","null","<img src=""img/food3.png"" style=""width:200px;border:14px solid red;"">","null","","","","","","","","","",""
"","image-keyboard-response","344","94855","0.0-434.0","3OWEPKL08AYSHY92KKRPFJVBJVK7NZ","A345VDWYMDWTGD","3PIOQ99R7Y8STPN46QFY0SD7JTFNU0","","362.7000002861023","img/food5.png","75","365.09999990463257","2","1","","1","1","1,0.5,0,1,0.5,0,0.5,0,1","0,1,0.5,0,1,0.5,1,0.5,0","3",""
"","html-keyboard-response","345","95164","0.0-435.0","3OWEPKL08AYSHY92KKRPFJVBJVK7NZ","A345VDWYMDWTGD","3PIOQ99R7Y8STPN46QFY0SD7JTFNU0","","null","<img src=""img/food5.png"" style=""width:200px; border:14px solid green;"">","null","","","","","","","","","",""
"","image-keyboard-response","346","95485","0.0-436.0","3OWEPKL08AYSHY92KKRPFJVBJVK7NZ","A345VDWYMDWTGD","3PIOQ99R7Y8STPN46QFY0SD7JTFNU0","","318.30000019073486","img/food6.png","76","320.59999990463257","3","0","","3","1","1,0.5,0,1,0.5,0,0.5,0,1","0,1,0.5,0,1,0.5,1,0.5,0","3",""
"","html-keyboard-response","347","95793","0.0-437.0","3OWEPKL08AYSHY92KKRPFJVBJVK7NZ","A345VDWYMDWTGD","3PIOQ99R7Y8STPN46QFY0SD7JTFNU0","","null","<img src=""img/food6.png"" style=""width:200px;border:14px solid red;"">","null","","","","","","","","","",""
"","image-keyboard-response","348","96213","0.0-438.0","3OWEPKL08AYSHY92KKRPFJVBJVK7NZ","A345VDWYMDWTGD","3PIOQ99R7Y8STPN46QFY0SD7JTFNU0","","417.59999990463257","img/food3.png","75","419.59999990463257","2","1","","2","1","1,0.5,0,1,0.5,0,0.5,0,1","0,1,0.5,0,1,0.5,1,0.5,0","3",""
"","html-keyboard-response","349","96521","0.0-439.0","3OWEPKL08AYSHY92KKRPFJVBJVK7NZ","A345VDWYMDWTGD","3PIOQ99R7Y8STPN46QFY0SD7JTFNU0","","null","<img src=""img/food3.png"" style=""width:200px; border:14px solid green;"">","null","","","","","","","","","",""
"","image-keyboard-response","350","96691","0.0-440.0","3OWEPKL08AYSHY92KKRPFJVBJVK7NZ","A345VDWYMDWTGD","3PIOQ99R7Y8STPN46QFY0SD7JTFNU0","","166.7999997138977","img/food3.png","74","169.2000002861023","1","0","","2","1","1,0.5,0,1,0.5,0,0.5,0,1","0,1,0.5,0,1,0.5,1,0.5,0","3",""
"","html-keyboard-response","351","96998","0.0-441.0","3OWEPKL08AYSHY92KKRPFJVBJVK7NZ","A345VDWYMDWTGD","3PIOQ99R7Y8STPN46QFY0SD7JTFNU0","","null","<img src=""img/food3.png"" style=""width:200px;border:14px solid red;"">","null","","","","","","","","","",""
"","image-keyboard-response","352","97413","0.0-442.0","3OWEPKL08AYSHY92KKRPFJVBJVK7NZ","A345VDWYMDWTGD","3PIOQ99R7Y8STPN46QFY0SD7JTFNU0","","412.2000002861023","img/food6.png","76","414.5","3","0","","3","1","1,0.5,0,1,0.5,0,0.5,0,1","0,1,0.5,0,1,0.5,1,0.5,0","3",""
"","html-keyboard-response","353","97721","0.0-443.0","3OWEPKL08AYSHY92KKRPFJVBJVK7NZ","A345VDWYMDWTGD","3PIOQ99R7Y8STPN46QFY0SD7JTFNU0","","null","<img src=""img/food6.png"" style=""width:200px;border:14px solid red;"">","null","","","","","","","","","",""
"","image-keyboard-response","354","97772","0.0-444.0","3OWEPKL08AYSHY92KKRPFJVBJVK7NZ","A345VDWYMDWTGD","3PIOQ99R7Y8STPN46QFY0SD7JTFNU0","","48.69999980926514","img/food3.png","75","50.69999980926514","2","1","","2","1","1,0.5,0,1,0.5,0,0.5,0,1","0,1,0.5,0,1,0.5,1,0.5,0","3",""
"","html-keyboard-response","355","98075","0.0-445.0","3OWEPKL08AYSHY92KKRPFJVBJVK7NZ","A345VDWYMDWTGD","3PIOQ99R7Y8STPN46QFY0SD7JTFNU0","","null","<img src=""img/food3.png"" style=""width:200px; border:14px solid green;"">","null","","","","","","","","","",""
"","image-keyboard-response","356","98381","0.0-446.0","3OWEPKL08AYSHY92KKRPFJVBJVK7NZ","A345VDWYMDWTGD","3PIOQ99R7Y8STPN46QFY0SD7JTFNU0","","305.1000003814697","img/food6.png","75","306.7000002861023","2","0","","3","1","1,0.5,0,1,0.5,0,0.5,0,1","0,1,0.5,0,1,0.5,1,0.5,0","3",""
"","html-keyboard-response","357","98689","0.0-447.0","3OWEPKL08AYSHY92KKRPFJVBJVK7NZ","A345VDWYMDWTGD","3PIOQ99R7Y8STPN46QFY0SD7JTFNU0","","null","<img src=""img/food6.png"" style=""width:200px;border:14px solid red;"">","null","","","","","","","","","",""
"","image-keyboard-response","358","98932","0.0-448.0","3OWEPKL08AYSHY92KKRPFJVBJVK7NZ","A345VDWYMDWTGD","3PIOQ99R7Y8STPN46QFY0SD7JTFNU0","","240.40000009536743","img/food3.png","74","242.19999980926514","1","0","","2","1","1,0.5,0,1,0.5,0,0.5,0,1","0,1,0.5,0,1,0.5,1,0.5,0","3",""
"","html-keyboard-response","359","99237","0.0-449.0","3OWEPKL08AYSHY92KKRPFJVBJVK7NZ","A345VDWYMDWTGD","3PIOQ99R7Y8STPN46QFY0SD7JTFNU0","","null","<img src=""img/food3.png"" style=""width:200px;border:14px solid red;"">","null","","","","","","","","","",""
"","image-keyboard-response","360","99358","0.0-450.0","3OWEPKL08AYSHY92KKRPFJVBJVK7NZ","A345VDWYMDWTGD","3PIOQ99R7Y8STPN46QFY0SD7JTFNU0","","119.19999980926514","img/food6.png","76","121.39999961853027","3","0","","3","1","1,0.5,0,1,0.5,0,0.5,0,1","0,1,0.5,0,1,0.5,1,0.5,0","3",""
"","html-keyboard-response","361","99667","0.0-451.0","3OWEPKL08AYSHY92KKRPFJVBJVK7NZ","A345VDWYMDWTGD","3PIOQ99R7Y8STPN46QFY0SD7JTFNU0","","null","<img src=""img/food6.png"" style=""width:200px;border:14px solid red;"">","null","","","","","","","","","",""
"","image-keyboard-response","362","100022","0.0-452.0","3OWEPKL08AYSHY92KKRPFJVBJVK7NZ","A345VDWYMDWTGD","3PIOQ99R7Y8STPN46QFY0SD7JTFNU0","","353.2999997138977","img/food5.png","76","355.19999980926514","3","1","","1","1","1,0.5,0,1,0.5,0,0.5,0,1","0,1,0.5,0,1,0.5,1,0.5,0","3",""
"","html-keyboard-response","363","100330","0.0-453.0","3OWEPKL08AYSHY92KKRPFJVBJVK7NZ","A345VDWYMDWTGD","3PIOQ99R7Y8STPN46QFY0SD7JTFNU0","","null","<img src=""img/food5.png"" style=""width:200px; border:14px solid green;"">","null","","","","","","","","","",""
"","html-keyboard-response","364","101834","0.0-454.0","3OWEPKL08AYSHY92KKRPFJVBJVK7NZ","A345VDWYMDWTGD","3PIOQ99R7Y8STPN46QFY0SD7JTFNU0","","","","","","","","","","","","","",""
"","instructions","365","102785","0.0-455.0","3OWEPKL08AYSHY92KKRPFJVBJVK7NZ","A345VDWYMDWTGD","3PIOQ99R7Y8STPN46QFY0SD7JTFNU0","[{""page_index"":0,""viewing_time"":948.0999999046326}]","948.5999999046326","","","","","","","","","","","",""
"","survey-text","366","108386","0.0-456.0","3OWEPKL08AYSHY92KKRPFJVBJVK7NZ","A345VDWYMDWTGD","3PIOQ99R7Y8STPN46QFY0SD7JTFNU0","","5594.699999809265","","","","","","","","","","","","{""Q0"":""A345VDWYMDWTGD""}"
