"success","trial_type","trial_index","time_elapsed","internal_node_id","assignmentID","mturkID","hitID","view_history","rt","stimulus","key_press","reactionTime","a","r","s","cond","reward_cond","reward_cond_actual","reward_matrix_idx","warning","responses"
"true","fullscreen","0","14529","0.0-0.0","","","","","","","","","","","","","","","","",""
"","instructions","1","21599","0.0-1.0","","","","[{""page_index"":0,""viewing_time"":976.1000000000931},{""page_index"":1,""viewing_time"":561.3999999999069},{""page_index"":2,""viewing_time"":465.6999999997206},{""page_index"":3,""viewing_time"":2272.9000000003725},{""page_index"":4,""viewing_time"":963.7999999998137},{""page_index"":5,""viewing_time"":927.7000000001863},{""page_index"":6,""viewing_time"":899.2999999998137}]","7067.299999999814","","","","","","","","","","","",""
"","image-keyboard-response","2","23119","0.0-2.0","","","","","1517.5","img/food4.png","76","1519.7000000001863","3","1","3","1","1,0.7,0,1,0.7,0,0.7,0,1","1,0.7,0,1,0.7,0,0.7,0,1","1","",""
"","html-keyboard-response","3","23433","0.0-3.0","","","","","null","<img src=""img/food4.png"" style=""width:200px; border:14px solid green;"">","null","","","","","","","","","",""
"","image-keyboard-response","4","24374","0.0-4.0","","","","","936.2999999998137","img/food3.png","75","939.1999999997206","2","0","2","1","1,0.7,0,1,0.7,0,0.7,0,1","1,0.7,0,1,0.7,0,0.7,0,1","1","",""
"","html-keyboard-response","5","24689","0.0-5.0","","","","","null","<img src=""img/food3.png"" style=""width:200px;border:14px solid red;"">","null","","","","","","","","","",""
"","image-keyboard-response","6","25698","0.0-6.0","","","","","1006.5","img/food1.png","74","1009.2000000001863","1","1","1","1","1,0.7,0,1,0.7,0,0.7,0,1","1,0.7,0,1,0.7,0,0.7,0,1","1","",""
"","html-keyboard-response","7","26007","0.0-7.0","","","","","null","<img src=""img/food1.png"" style=""width:200px; border:14px solid green;"">","null","","","","","","","","","",""
"","image-keyboard-response","8","26968","0.0-8.0","","","","","958.2999999998137","img/food3.png","76","960.5","3","0","2","1","1,0.7,0,1,0.7,0,0.7,0,1","1,0.7,0,1,0.7,0,0.7,0,1","1","",""
"","html-keyboard-response","9","27285","0.0-9.0","","","","","null","<img src=""img/food3.png"" style=""width:200px;border:14px solid red;"">","null","","","","","","","","","",""
"","image-keyboard-response","10","28275","0.0-10.0","","","","","986.3000000002794","img/food3.png","74","990","1","1","2","1","1,0.7,0,1,0.7,0,0.7,0,1","1,0.7,0,1,0.7,0,0.7,0,1","1","",""
"","html-keyboard-response","11","28578","0.0-11.0","","","","","null","<img src=""img/food3.png"" style=""width:200px; border:14px solid green;"">","null","","","","","","","","","",""
"","image-keyboard-response","12","29182","0.0-12.0","","","","","602.8999999999069","img/food3.png","74","604","1","1","2","1","1,0.7,0,1,0.7,0,0.7,0,1","1,0.7,0,1,0.7,0,0.7,0,1","1","",""
"","html-keyboard-response","13","29486","0.0-13.0","","","","","null","<img src=""img/food3.png"" style=""width:200px; border:14px solid green;"">","null","","","","","","","","","",""
"","image-keyboard-response","14","29831","0.0-14.0","","","","","342.1999999997206","img/food3.png","74","344.29999999981374","1","1","2","1","1,0.7,0,1,0.7,0,0.7,0,1","1,0.7,0,1,0.7,0,0.7,0,1","1","",""
"","html-keyboard-response","15","30135","0.0-15.0","","","","","null","<img src=""img/food3.png"" style=""width:200px; border:14px solid green;"">","null","","","","","","","","","",""
"","image-keyboard-response","16","30671","0.0-16.0","","","","","534.1000000000931","img/food1.png","74","536.0999999996275","1","1","1","1","1,0.7,0,1,0.7,0,0.7,0,1","1,0.7,0,1,0.7,0,0.7,0,1","1","",""
"","html-keyboard-response","17","30974","0.0-17.0","","","","","null","<img src=""img/food1.png"" style=""width:200px; border:14px solid green;"">","null","","","","","","","","","",""
"","image-keyboard-response","18","31430","0.0-18.0","","","","","453","img/food3.png","74","455.39999999990687","1","1","2","1","1,0.7,0,1,0.7,0,0.7,0,1","1,0.7,0,1,0.7,0,0.7,0,1","1","",""
"","html-keyboard-response","19","31735","0.0-19.0","","","","","null","<img src=""img/food3.png"" style=""width:200px; border:14px solid green;"">","null","","","","","","","","","",""
"","image-keyboard-response","20","32136","0.0-20.0","","","","","399.10000000009313","img/food3.png","74","401.3000000002794","1","1","2","1","1,0.7,0,1,0.7,0,0.7,0,1","1,0.7,0,1,0.7,0,0.7,0,1","1","",""
"","html-keyboard-response","21","32439","0.0-21.0","","","","","null","<img src=""img/food3.png"" style=""width:200px; border:14px solid green;"">","null","","","","","","","","","",""
"","image-keyboard-response","22","32738","0.0-22.0","","","","","295.39999999990687","img/food3.png","74","297.59999999962747","1","1","2","1","1,0.7,0,1,0.7,0,0.7,0,1","1,0.7,0,1,0.7,0,0.7,0,1","1","",""
"","html-keyboard-response","23","33042","0.0-23.0","","","","","null","<img src=""img/food3.png"" style=""width:200px; border:14px solid green;"">","null","","","","","","","","","",""
"","image-keyboard-response","24","33479","0.0-24.0","","","","","433.89999999990687","img/food4.png","76","436.60000000009313","3","1","3","1","1,0.7,0,1,0.7,0,0.7,0,1","1,0.7,0,1,0.7,0,0.7,0,1","1","",""
"","html-keyboard-response","25","33783","0.0-25.0","","","","","null","<img src=""img/food4.png"" style=""width:200px; border:14px solid green;"">","null","","","","","","","","","",""
"","image-keyboard-response","26","34233","0.0-26.0","","","","","447.79999999981374","img/food3.png","74","449.39999999990687","1","1","2","1","1,0.7,0,1,0.7,0,0.7,0,1","1,0.7,0,1,0.7,0,0.7,0,1","1","",""
"","html-keyboard-response","27","34536","0.0-27.0","","","","","null","<img src=""img/food3.png"" style=""width:200px; border:14px solid green;"">","null","","","","","","","","","",""
"","image-keyboard-response","28","34783","0.0-28.0","","","","","245.6999999997206","img/food1.png","74","247.1999999997206","1","1","1","1","1,0.7,0,1,0.7,0,0.7,0,1","1,0.7,0,1,0.7,0,0.7,0,1","1","",""
"","html-keyboard-response","29","35087","0.0-29.0","","","","","null","<img src=""img/food1.png"" style=""width:200px; border:14px solid green;"">","null","","","","","","","","","",""
"","image-keyboard-response","30","35375","0.0-30.0","","","","","285","img/food1.png","74","288.29999999981374","1","1","1","1","1,0.7,0,1,0.7,0,0.7,0,1","1,0.7,0,1,0.7,0,0.7,0,1","1","",""
"","html-keyboard-response","31","35682","0.0-31.0","","","","","null","<img src=""img/food1.png"" style=""width:200px; border:14px solid green;"">","null","","","","","","","","","",""
"","image-keyboard-response","32","35862","0.0-32.0","","","","","177.39999999990687","img/food3.png","74","179.70000000018626","1","1","2","1","1,0.7,0,1,0.7,0,0.7,0,1","1,0.7,0,1,0.7,0,0.7,0,1","1","",""
"","html-keyboard-response","33","36166","0.0-33.0","","","","","null","<img src=""img/food3.png"" style=""width:200px; border:14px solid green;"">","null","","","","","","","","","",""
"","image-keyboard-response","34","36415","0.0-34.0","","","","","246.40000000037253","img/food3.png","74","249.3000000002794","1","1","2","1","1,0.7,0,1,0.7,0,0.7,0,1","1,0.7,0,1,0.7,0,0.7,0,1","1","",""
"","html-keyboard-response","35","36719","0.0-35.0","","","","","null","<img src=""img/food3.png"" style=""width:200px; border:14px solid green;"">","null","","","","","","","","","",""
"","image-keyboard-response","36","36928","0.0-36.0","","","","","205.3000000002794","img/food1.png","74","207.5","1","1","1","1","1,0.7,0,1,0.7,0,0.7,0,1","1,0.7,0,1,0.7,0,0.7,0,1","1","",""
"","html-keyboard-response","37","37232","0.0-37.0","","","","","null","<img src=""img/food1.png"" style=""width:200px; border:14px solid green;"">","null","","","","","","","","","",""
"","image-keyboard-response","38","37452","0.0-38.0","","","","","216.60000000009313","img/food4.png","74","218.59999999962747","1","1","3","1","1,0.7,0,1,0.7,0,0.7,0,1","1,0.7,0,1,0.7,0,0.7,0,1","1","",""
"","html-keyboard-response","39","37754","0.0-39.0","","","","","null","<img src=""img/food4.png"" style=""width:200px; border:14px solid green;"">","null","","","","","","","","","",""
"","image-keyboard-response","40","37969","0.0-40.0","","","","","213.90000000037253","img/food3.png","74","215.39999999990687","1","1","2","1","1,0.7,0,1,0.7,0,0.7,0,1","1,0.7,0,1,0.7,0,0.7,0,1","1","",""
"","html-keyboard-response","41","38272","0.0-41.0","","","","","null","<img src=""img/food3.png"" style=""width:200px; border:14px solid green;"">","null","","","","","","","","","",""
"","image-keyboard-response","42","38504","0.0-42.0","","","","","229.5","img/food3.png","74","231.5","1","1","2","1","1,0.7,0,1,0.7,0,0.7,0,1","1,0.7,0,1,0.7,0,0.7,0,1","1","",""
"","html-keyboard-response","43","38808","0.0-43.0","","","","","null","<img src=""img/food3.png"" style=""width:200px; border:14px solid green;"">","null","","","","","","","","","",""
"","image-keyboard-response","44","39077","0.0-44.0","","","","","267","img/food4.png","74","268.20000000018626","1","1","3","1","1,0.7,0,1,0.7,0,0.7,0,1","1,0.7,0,1,0.7,0,0.7,0,1","1","",""
"","html-keyboard-response","45","39382","0.0-45.0","","","","","null","<img src=""img/food4.png"" style=""width:200px; border:14px solid green;"">","null","","","","","","","","","",""
"","image-keyboard-response","46","39595","0.0-46.0","","","","","209.39999999990687","img/food1.png","74","212.5","1","1","1","1","1,0.7,0,1,0.7,0,0.7,0,1","1,0.7,0,1,0.7,0,0.7,0,1","1","",""
"","html-keyboard-response","47","39898","0.0-47.0","","","","","null","<img src=""img/food1.png"" style=""width:200px; border:14px solid green;"">","null","","","","","","","","","",""
"","image-keyboard-response","48","40085","0.0-48.0","","","","","185.1999999997206","img/food4.png","74","188","1","0","3","1","1,0.7,0,1,0.7,0,0.7,0,1","1,0.7,0,1,0.7,0,0.7,0,1","1","",""
"","html-keyboard-response","49","40391","0.0-49.0","","","","","null","<img src=""img/food4.png"" style=""width:200px;border:14px solid red;"">","null","","","","","","","","","",""
"","image-keyboard-response","50","40978","0.0-50.0","","","","","583.7000000001863","img/food1.png","74","586","1","1","1","1","1,0.7,0,1,0.7,0,0.7,0,1","1,0.7,0,1,0.7,0,0.7,0,1","1","",""
"","html-keyboard-response","51","41281","0.0-51.0","","","","","null","<img src=""img/food1.png"" style=""width:200px; border:14px solid green;"">","null","","","","","","","","","",""
"","image-keyboard-response","52","41541","0.0-52.0","","","","","256.70000000018626","img/food1.png","74","258.6999999997206","1","1","1","1","1,0.7,0,1,0.7,0,0.7,0,1","1,0.7,0,1,0.7,0,0.7,0,1","1","",""
"","html-keyboard-response","53","41844","0.0-53.0","","","","","null","<img src=""img/food1.png"" style=""width:200px; border:14px solid green;"">","null","","","","","","","","","",""
"","image-keyboard-response","54","42048","0.0-54.0","","","","","202.3000000002794","img/food4.png","74","203.39999999990687","1","1","3","1","1,0.7,0,1,0.7,0,0.7,0,1","1,0.7,0,1,0.7,0,0.7,0,1","1","",""
"","html-keyboard-response","55","42362","0.0-55.0","","","","","null","<img src=""img/food4.png"" style=""width:200px; border:14px solid green;"">","null","","","","","","","","","",""
"","image-keyboard-response","56","42558","0.0-56.0","","","","","193.70000000018626","img/food1.png","74","195.5","1","1","1","1","1,0.7,0,1,0.7,0,0.7,0,1","1,0.7,0,1,0.7,0,0.7,0,1","1","",""
"","html-keyboard-response","57","42861","0.0-57.0","","","","","null","<img src=""img/food1.png"" style=""width:200px; border:14px solid green;"">","null","","","","","","","","","",""
"","image-keyboard-response","58","43028","0.0-58.0","","","","","166.39999999990687","img/food1.png","74","167.39999999990687","1","1","1","1","1,0.7,0,1,0.7,0,0.7,0,1","1,0.7,0,1,0.7,0,0.7,0,1","1","",""
"","html-keyboard-response","59","43345","0.0-59.0","","","","","null","<img src=""img/food1.png"" style=""width:200px; border:14px solid green;"">","null","","","","","","","","","",""
"","image-keyboard-response","60","43545","0.0-60.0","","","","","197.70000000018626","img/food1.png","74","199.20000000018626","1","1","1","1","1,0.7,0,1,0.7,0,0.7,0,1","1,0.7,0,1,0.7,0,0.7,0,1","1","",""
"","html-keyboard-response","61","43850","0.0-61.0","","","","","null","<img src=""img/food1.png"" style=""width:200px; border:14px solid green;"">","null","","","","","","","","","",""
"","image-keyboard-response","62","44088","0.0-62.0","","","","","235.70000000018626","img/food3.png","74","237.89999999990687","1","1","2","1","1,0.7,0,1,0.7,0,0.7,0,1","1,0.7,0,1,0.7,0,0.7,0,1","1","",""
"","html-keyboard-response","63","44393","0.0-63.0","","","","","null","<img src=""img/food3.png"" style=""width:200px; border:14px solid green;"">","null","","","","","","","","","",""
"","image-keyboard-response","64","44638","0.0-64.0","","","","","241.8000000002794","img/food3.png","74","244.10000000009313","1","1","2","1","1,0.7,0,1,0.7,0,0.7,0,1","1,0.7,0,1,0.7,0,0.7,0,1","1","",""
"","html-keyboard-response","65","44941","0.0-65.0","","","","","null","<img src=""img/food3.png"" style=""width:200px; border:14px solid green;"">","null","","","","","","","","","",""
"","image-keyboard-response","66","45106","0.0-66.0","","","","","162.5","img/food4.png","74","164.1999999997206","1","0","3","1","1,0.7,0,1,0.7,0,0.7,0,1","1,0.7,0,1,0.7,0,0.7,0,1","1","",""
"","html-keyboard-response","67","45410","0.0-67.0","","","","","null","<img src=""img/food4.png"" style=""width:200px;border:14px solid red;"">","null","","","","","","","","","",""
"","image-keyboard-response","68","45629","0.0-68.0","","","","","216.39999999990687","img/food3.png","74","218.6999999997206","1","1","2","1","1,0.7,0,1,0.7,0,0.7,0,1","1,0.7,0,1,0.7,0,0.7,0,1","1","",""
"","html-keyboard-response","69","45933","0.0-69.0","","","","","null","<img src=""img/food3.png"" style=""width:200px; border:14px solid green;"">","null","","","","","","","","","",""
"","image-keyboard-response","70","46116","0.0-70.0","","","","","181.89999999990687","img/food4.png","74","182.70000000018626","1","0","3","1","1,0.7,0,1,0.7,0,0.7,0,1","1,0.7,0,1,0.7,0,0.7,0,1","1","",""
"","html-keyboard-response","71","46419","0.0-71.0","","","","","null","<img src=""img/food4.png"" style=""width:200px;border:14px solid red;"">","null","","","","","","","","","",""
"","image-keyboard-response","72","46899","0.0-72.0","","","","","477.20000000018626","img/food1.png","74","479","1","1","1","1","1,0.7,0,1,0.7,0,0.7,0,1","1,0.7,0,1,0.7,0,0.7,0,1","1","",""
"","html-keyboard-response","73","47201","0.0-73.0","","","","","null","<img src=""img/food1.png"" style=""width:200px; border:14px solid green;"">","null","","","","","","","","","",""
"","image-keyboard-response","74","47315","0.0-74.0","","","","","110.89999999990687","img/food1.png","74","112.39999999990687","1","1","1","1","1,0.7,0,1,0.7,0,0.7,0,1","1,0.7,0,1,0.7,0,0.7,0,1","1","",""
"","html-keyboard-response","75","47617","0.0-75.0","","","","","null","<img src=""img/food1.png"" style=""width:200px; border:14px solid green;"">","null","","","","","","","","","",""
"","image-keyboard-response","76","48066","0.0-76.0","","","","","447.5","img/food4.png","76","448.8000000002794","3","1","3","1","1,0.7,0,1,0.7,0,0.7,0,1","1,0.7,0,1,0.7,0,0.7,0,1","1","",""
"","html-keyboard-response","77","48371","0.0-77.0","","","","","null","<img src=""img/food4.png"" style=""width:200px; border:14px solid green;"">","null","","","","","","","","","",""
"","image-keyboard-response","78","48862","0.0-78.0","","","","","489","img/food4.png","76","491.10000000009313","3","1","3","1","1,0.7,0,1,0.7,0,0.7,0,1","1,0.7,0,1,0.7,0,0.7,0,1","1","",""
"","html-keyboard-response","79","49166","0.0-79.0","","","","","null","<img src=""img/food4.png"" style=""width:200px; border:14px solid green;"">","null","","","","","","","","","",""
"","image-keyboard-response","80","49537","0.0-80.0","","","","","369","img/food1.png","74","370.60000000009313","1","1","1","1","1,0.7,0,1,0.7,0,0.7,0,1","1,0.7,0,1,0.7,0,0.7,0,1","1","",""
"","html-keyboard-response","81","49840","0.0-81.0","","","","","null","<img src=""img/food1.png"" style=""width:200px; border:14px solid green;"">","null","","","","","","","","","",""
"","image-keyboard-response","82","50058","0.0-82.0","","","","","216.5","img/food4.png","74","218","1","1","3","1","1,0.7,0,1,0.7,0,0.7,0,1","1,0.7,0,1,0.7,0,0.7,0,1","1","",""
"","html-keyboard-response","83","50361","0.0-83.0","","","","","null","<img src=""img/food4.png"" style=""width:200px; border:14px solid green;"">","null","","","","","","","","","",""
"","image-keyboard-response","84","51033","0.0-84.0","","","","","669.5","img/food3.png","74","671.1000000000931","1","1","2","1","1,0.7,0,1,0.7,0,0.7,0,1","1,0.7,0,1,0.7,0,0.7,0,1","1","",""
"","html-keyboard-response","85","51335","0.0-85.0","","","","","null","<img src=""img/food3.png"" style=""width:200px; border:14px solid green;"">","null","","","","","","","","","",""
"","image-keyboard-response","86","51541","0.0-86.0","","","","","205.09999999962747","img/food1.png","74","206.10000000009313","1","1","1","1","1,0.7,0,1,0.7,0,0.7,0,1","1,0.7,0,1,0.7,0,0.7,0,1","1","",""
"","html-keyboard-response","87","51843","0.0-87.0","","","","","null","<img src=""img/food1.png"" style=""width:200px; border:14px solid green;"">","null","","","","","","","","","",""
"","image-keyboard-response","88","52202","0.0-88.0","","","","","357.29999999981374","img/food4.png","76","358.79999999981374","3","1","3","1","1,0.7,0,1,0.7,0,0.7,0,1","1,0.7,0,1,0.7,0,0.7,0,1","1","",""
"","html-keyboard-response","89","52505","0.0-89.0","","","","","null","<img src=""img/food4.png"" style=""width:200px; border:14px solid green;"">","null","","","","","","","","","",""
"","image-keyboard-response","90","52861","0.0-90.0","","","","","351.90000000037253","img/food4.png","76","354.40000000037253","3","1","3","1","1,0.7,0,1,0.7,0,0.7,0,1","1,0.7,0,1,0.7,0,0.7,0,1","1","",""
"","html-keyboard-response","91","53163","0.0-91.0","","","","","null","<img src=""img/food4.png"" style=""width:200px; border:14px solid green;"">","null","","","","","","","","","",""
"","image-keyboard-response","92","53545","0.0-92.0","","","","","379.39999999990687","img/food3.png","74","380.89999999990687","1","1","2","1","1,0.7,0,1,0.7,0,0.7,0,1","1,0.7,0,1,0.7,0,0.7,0,1","1","",""
"","html-keyboard-response","93","53848","0.0-93.0","","","","","null","<img src=""img/food3.png"" style=""width:200px; border:14px solid green;"">","null","","","","","","","","","",""
"","image-keyboard-response","94","54974","0.0-94.0","","","","","1123.5","img/food4.png","74","1125.2999999998137","1","1","3","1","1,0.7,0,1,0.7,0,0.7,0,1","1,0.7,0,1,0.7,0,0.7,0,1","1","",""
"","html-keyboard-response","95","55279","0.0-95.0","","","","","null","<img src=""img/food4.png"" style=""width:200px; border:14px solid green;"">","null","","","","","","","","","",""
"","image-keyboard-response","96","55798","0.0-96.0","","","","","517.2999999998137","img/food1.png","74","518.2000000001863","1","1","1","1","1,0.7,0,1,0.7,0,0.7,0,1","1,0.7,0,1,0.7,0,0.7,0,1","1","",""
"","html-keyboard-response","97","56107","0.0-97.0","","","","","null","<img src=""img/food1.png"" style=""width:200px; border:14px solid green;"">","null","","","","","","","","","",""
"","image-keyboard-response","98","56333","0.0-98.0","","","","","224.39999999990687","img/food3.png","74","226","1","1","2","1","1,0.7,0,1,0.7,0,0.7,0,1","1,0.7,0,1,0.7,0,0.7,0,1","1","",""
"","html-keyboard-response","99","56635","0.0-99.0","","","","","null","<img src=""img/food3.png"" style=""width:200px; border:14px solid green;"">","null","","","","","","","","","",""
"","image-keyboard-response","100","57165","0.0-100.0","","","","","526.2000000001863","img/food1.png","74","528.7999999998137","1","1","1","1","1,0.7,0,1,0.7,0,0.7,0,1","1,0.7,0,1,0.7,0,0.7,0,1","1","",""
"","html-keyboard-response","101","57468","0.0-101.0","","","","","null","<img src=""img/food1.png"" style=""width:200px; border:14px solid green;"">","null","","","","","","","","","",""
"","image-keyboard-response","102","57739","0.0-102.0","","","","","268.1999999997206","img/food1.png","74","270.20000000018626","1","1","1","1","1,0.7,0,1,0.7,0,0.7,0,1","1,0.7,0,1,0.7,0,0.7,0,1","1","",""
"","html-keyboard-response","103","58043","0.0-103.0","","","","","null","<img src=""img/food1.png"" style=""width:200px; border:14px solid green;"">","null","","","","","","","","","",""
"","image-keyboard-response","104","58402","0.0-104.0","","","","","357.5","img/food3.png","76","358.89999999990687","3","0","2","1","1,0.7,0,1,0.7,0,0.7,0,1","1,0.7,0,1,0.7,0,0.7,0,1","1","",""
"","html-keyboard-response","105","58705","0.0-105.0","","","","","null","<img src=""img/food3.png"" style=""width:200px;border:14px solid red;"">","null","","","","","","","","","",""
"","image-keyboard-response","106","58945","0.0-106.0","","","","","239.10000000009313","img/food3.png","74","240.10000000009313","1","1","2","1","1,0.7,0,1,0.7,0,0.7,0,1","1,0.7,0,1,0.7,0,0.7,0,1","1","",""
"","html-keyboard-response","107","59248","0.0-107.0","","","","","null","<img src=""img/food3.png"" style=""width:200px; border:14px solid green;"">","null","","","","","","","","","",""
"","image-keyboard-response","108","59569","0.0-108.0","","","","","320.1999999997206","img/food4.png","74","320.89999999990687","1","1","3","1","1,0.7,0,1,0.7,0,0.7,0,1","1,0.7,0,1,0.7,0,0.7,0,1","1","",""
"","html-keyboard-response","109","59871","0.0-109.0","","","","","null","<img src=""img/food4.png"" style=""width:200px; border:14px solid green;"">","null","","","","","","","","","",""
"","image-keyboard-response","110","60530","0.0-110.0","","","","","657.8999999999069","img/food4.png","74","658.8000000002794","1","1","3","1","1,0.7,0,1,0.7,0,0.7,0,1","1,0.7,0,1,0.7,0,0.7,0,1","1","",""
"","html-keyboard-response","111","60832","0.0-111.0","","","","","null","<img src=""img/food4.png"" style=""width:200px; border:14px solid green;"">","null","","","","","","","","","",""
"","image-keyboard-response","112","61148","0.0-112.0","","","","","315.60000000009313","img/food4.png","76","316.5","3","1","3","1","1,0.7,0,1,0.7,0,0.7,0,1","1,0.7,0,1,0.7,0,0.7,0,1","1","",""
"","html-keyboard-response","113","61452","0.0-113.0","","","","","null","<img src=""img/food4.png"" style=""width:200px; border:14px solid green;"">","null","","","","","","","","","",""
"","image-keyboard-response","114","61944","0.0-114.0","","","","","489.60000000009313","img/food3.png","74","491.60000000009313","1","1","2","1","1,0.7,0,1,0.7,0,0.7,0,1","1,0.7,0,1,0.7,0,0.7,0,1","1","",""
"","html-keyboard-response","115","62247","0.0-115.0","","","","","null","<img src=""img/food3.png"" style=""width:200px; border:14px solid green;"">","null","","","","","","","","","",""
"","image-keyboard-response","116","62506","0.0-116.0","","","","","257.10000000009313","img/food4.png","74","258.5","1","0","3","1","1,0.7,0,1,0.7,0,0.7,0,1","1,0.7,0,1,0.7,0,0.7,0,1","1","",""
"","html-keyboard-response","117","62809","0.0-117.0","","","","","null","<img src=""img/food4.png"" style=""width:200px;border:14px solid red;"">","null","","","","","","","","","",""
"","image-keyboard-response","118","63345","0.0-118.0","","","","","533.5","img/food4.png","74","535.7000000001863","1","1","3","1","1,0.7,0,1,0.7,0,0.7,0,1","1,0.7,0,1,0.7,0,0.7,0,1","1","",""
"","html-keyboard-response","119","63649","0.0-119.0","","","","","null","<img src=""img/food4.png"" style=""width:200px; border:14px solid green;"">","null","","","","","","","","","",""
"","image-keyboard-response","120","64377","0.0-120.0","","","","","726.0999999996275","img/food3.png","74","728.6000000000931","1","1","2","1","1,0.7,0,1,0.7,0,0.7,0,1","1,0.7,0,1,0.7,0,0.7,0,1","1","",""
"","html-keyboard-response","121","64682","0.0-121.0","","","","","null","<img src=""img/food3.png"" style=""width:200px; border:14px solid green;"">","null","","","","","","","","","",""
"","image-keyboard-response","122","64936","0.0-122.0","","","","","251.29999999981374","img/food1.png","74","253.89999999990687","1","1","1","1","1,0.7,0,1,0.7,0,0.7,0,1","1,0.7,0,1,0.7,0,0.7,0,1","1","",""
"","html-keyboard-response","123","65240","0.0-123.0","","","","","null","<img src=""img/food1.png"" style=""width:200px; border:14px solid green;"">","null","","","","","","","","","",""
"","image-keyboard-response","124","65505","0.0-124.0","","","","","262.29999999981374","img/food1.png","74","264.59999999962747","1","1","1","1","1,0.7,0,1,0.7,0,0.7,0,1","1,0.7,0,1,0.7,0,0.7,0,1","1","",""
"","html-keyboard-response","125","65808","0.0-125.0","","","","","null","<img src=""img/food1.png"" style=""width:200px; border:14px solid green;"">","null","","","","","","","","","",""
"","image-keyboard-response","126","66092","0.0-126.0","","","","","281.29999999981374","img/food1.png","74","283.39999999990687","1","1","1","1","1,0.7,0,1,0.7,0,0.7,0,1","1,0.7,0,1,0.7,0,0.7,0,1","1","",""
"","html-keyboard-response","127","66408","0.0-127.0","","","","","null","<img src=""img/food1.png"" style=""width:200px; border:14px solid green;"">","null","","","","","","","","","",""
"","image-keyboard-response","128","67095","0.0-128.0","","","","","684.5","img/food4.png","76","686.8999999999069","3","1","3","1","1,0.7,0,1,0.7,0,0.7,0,1","1,0.7,0,1,0.7,0,0.7,0,1","1","",""
"","html-keyboard-response","129","67398","0.0-129.0","","","","","null","<img src=""img/food4.png"" style=""width:200px; border:14px solid green;"">","null","","","","","","","","","",""
"","image-keyboard-response","130","67808","0.0-130.0","","","","","405.89999999990687","img/food3.png","74","408.29999999981374","1","1","2","1","1,0.7,0,1,0.7,0,0.7,0,1","1,0.7,0,1,0.7,0,0.7,0,1","1","",""
"","html-keyboard-response","131","68112","0.0-131.0","","","","","null","<img src=""img/food3.png"" style=""width:200px; border:14px solid green;"">","null","","","","","","","","","",""
"","image-keyboard-response","132","68457","0.0-132.0","","","","","342.89999999990687","img/food1.png","74","344.70000000018626","1","1","1","1","1,0.7,0,1,0.7,0,0.7,0,1","1,0.7,0,1,0.7,0,0.7,0,1","1","",""
"","html-keyboard-response","133","68759","0.0-133.0","","","","","null","<img src=""img/food1.png"" style=""width:200px; border:14px solid green;"">","null","","","","","","","","","",""
"","image-keyboard-response","134","68976","0.0-134.0","","","","","213.60000000009313","img/food3.png","74","216.5","1","1","2","1","1,0.7,0,1,0.7,0,0.7,0,1","1,0.7,0,1,0.7,0,0.7,0,1","1","",""
"","html-keyboard-response","135","69279","0.0-135.0","","","","","null","<img src=""img/food3.png"" style=""width:200px; border:14px solid green;"">","null","","","","","","","","","",""
"","image-keyboard-response","136","69597","0.0-136.0","","","","","314.70000000018626","img/food4.png","76","317.10000000009313","3","1","3","1","1,0.7,0,1,0.7,0,0.7,0,1","1,0.7,0,1,0.7,0,0.7,0,1","1","",""
"","html-keyboard-response","137","69900","0.0-137.0","","","","","null","<img src=""img/food4.png"" style=""width:200px; border:14px solid green;"">","null","","","","","","","","","",""
"","image-keyboard-response","138","70163","0.0-138.0","","","","","261.1999999997206","img/food4.png","74","262.60000000009313","1","0","3","1","1,0.7,0,1,0.7,0,0.7,0,1","1,0.7,0,1,0.7,0,0.7,0,1","1","",""
"","html-keyboard-response","139","70467","0.0-139.0","","","","","null","<img src=""img/food4.png"" style=""width:200px;border:14px solid red;"">","null","","","","","","","","","",""
"","image-keyboard-response","140","70803","0.0-140.0","","","","","332.90000000037253","img/food4.png","76","334.6999999997206","3","1","3","1","1,0.7,0,1,0.7,0,0.7,0,1","1,0.7,0,1,0.7,0,0.7,0,1","1","",""
"","html-keyboard-response","141","71109","0.0-141.0","","","","","null","<img src=""img/food4.png"" style=""width:200px; border:14px solid green;"">","null","","","","","","","","","",""
"","image-keyboard-response","142","71622","0.0-142.0","","","","","511.60000000009313","img/food1.png","74","513.1999999997206","1","1","1","1","1,0.7,0,1,0.7,0,0.7,0,1","1,0.7,0,1,0.7,0,0.7,0,1","1","",""
"","html-keyboard-response","143","71925","0.0-143.0","","","","","null","<img src=""img/food1.png"" style=""width:200px; border:14px solid green;"">","null","","","","","","","","","",""
"","image-keyboard-response","144","72155","0.0-144.0","","","","","226.70000000018626","img/food4.png","74","229.29999999981374","1","1","3","1","1,0.7,0,1,0.7,0,0.7,0,1","1,0.7,0,1,0.7,0,0.7,0,1","1","",""
"","html-keyboard-response","145","72458","0.0-145.0","","","","","null","<img src=""img/food4.png"" style=""width:200px; border:14px solid green;"">","null","","","","","","","","","",""
"","image-keyboard-response","146","72981","0.0-146.0","","","","","521","img/food3.png","74","522.3999999999069","1","1","2","1","1,0.7,0,1,0.7,0,0.7,0,1","1,0.7,0,1,0.7,0,0.7,0,1","1","",""
"","html-keyboard-response","147","73283","0.0-147.0","","","","","null","<img src=""img/food3.png"" style=""width:200px; border:14px solid green;"">","null","","","","","","","","","",""
"","image-keyboard-response","148","73614","0.0-148.0","","","","","328.8000000002794","img/food1.png","74","330.79999999981374","1","1","1","1","1,0.7,0,1,0.7,0,0.7,0,1","1,0.7,0,1,0.7,0,0.7,0,1","1","",""
"","html-keyboard-response","149","73927","0.0-149.0","","","","","null","<img src=""img/food1.png"" style=""width:200px; border:14px solid green;"">","null","","","","","","","","","",""
"","image-keyboard-response","150","74585","0.0-150.0","","","","","655.8999999999069","img/food3.png","74","658","1","1","2","1","1,0.7,0,1,0.7,0,0.7,0,1","1,0.7,0,1,0.7,0,0.7,0,1","1","",""
"","html-keyboard-response","151","74888","0.0-151.0","","","","","null","<img src=""img/food3.png"" style=""width:200px; border:14px solid green;"">","null","","","","","","","","","",""
"","image-keyboard-response","152","75393","0.0-152.0","","","","","502","img/food4.png","76","504.1999999997206","3","1","3","1","1,0.7,0,1,0.7,0,0.7,0,1","1,0.7,0,1,0.7,0,0.7,0,1","1","",""
"","html-keyboard-response","153","75696","0.0-153.0","","","","","null","<img src=""img/food4.png"" style=""width:200px; border:14px solid green;"">","null","","","","","","","","","",""
"","image-keyboard-response","154","76059","0.0-154.0","","","","","360.90000000037253","img/food4.png","76","362.70000000018626","3","1","3","1","1,0.7,0,1,0.7,0,0.7,0,1","1,0.7,0,1,0.7,0,0.7,0,1","1","",""
"","html-keyboard-response","155","76365","0.0-155.0","","","","","null","<img src=""img/food4.png"" style=""width:200px; border:14px solid green;"">","null","","","","","","","","","",""
"","image-keyboard-response","156","76804","0.0-156.0","","","","","436.40000000037253","img/food4.png","76","438.20000000018626","3","1","3","1","1,0.7,0,1,0.7,0,0.7,0,1","1,0.7,0,1,0.7,0,0.7,0,1","1","",""
"","html-keyboard-response","157","77107","0.0-157.0","","","","","null","<img src=""img/food4.png"" style=""width:200px; border:14px solid green;"">","null","","","","","","","","","",""
"","image-keyboard-response","158","77490","0.0-158.0","","","","","380.89999999990687","img/food3.png","74","383.10000000009313","1","1","2","1","1,0.7,0,1,0.7,0,0.7,0,1","1,0.7,0,1,0.7,0,0.7,0,1","1","",""
"","html-keyboard-response","159","77794","0.0-159.0","","","","","null","<img src=""img/food3.png"" style=""width:200px; border:14px solid green;"">","null","","","","","","","","","",""
"","image-keyboard-response","160","78028","0.0-160.0","","","","","232.8000000002794","img/food1.png","74","234.20000000018626","1","1","1","1","1,0.7,0,1,0.7,0,0.7,0,1","1,0.7,0,1,0.7,0,0.7,0,1","1","",""
"","html-keyboard-response","161","78332","0.0-161.0","","","","","null","<img src=""img/food1.png"" style=""width:200px; border:14px solid green;"">","null","","","","","","","","","",""
"","image-keyboard-response","162","78578","0.0-162.0","","","","","242.5","img/food1.png","74","244.89999999990687","1","1","1","1","1,0.7,0,1,0.7,0,0.7,0,1","1,0.7,0,1,0.7,0,0.7,0,1","1","",""
"","html-keyboard-response","163","78881","0.0-163.0","","","","","null","<img src=""img/food1.png"" style=""width:200px; border:14px solid green;"">","null","","","","","","","","","",""
"","image-keyboard-response","164","79065","0.0-164.0","","","","","180.79999999981374","img/food1.png","74","183.79999999981374","1","1","1","1","1,0.7,0,1,0.7,0,0.7,0,1","1,0.7,0,1,0.7,0,0.7,0,1","1","",""
"","html-keyboard-response","165","79368","0.0-165.0","","","","","null","<img src=""img/food1.png"" style=""width:200px; border:14px solid green;"">","null","","","","","","","","","",""
"","image-keyboard-response","166","79594","0.0-166.0","","","","","223.29999999981374","img/food3.png","74","224.90000000037253","1","1","2","1","1,0.7,0,1,0.7,0,0.7,0,1","1,0.7,0,1,0.7,0,0.7,0,1","1","",""
"","html-keyboard-response","167","79896","0.0-167.0","","","","","null","<img src=""img/food3.png"" style=""width:200px; border:14px solid green;"">","null","","","","","","","","","",""
"","image-keyboard-response","168","80344","0.0-168.0","","","","","444.79999999981374","img/food4.png","76","447.3000000002794","3","1","3","1","1,0.7,0,1,0.7,0,0.7,0,1","1,0.7,0,1,0.7,0,0.7,0,1","1","",""
"","html-keyboard-response","169","80648","0.0-169.0","","","","","null","<img src=""img/food4.png"" style=""width:200px; border:14px solid green;"">","null","","","","","","","","","",""
"","image-keyboard-response","170","80971","0.0-170.0","","","","","319.89999999990687","img/food1.png","74","322.10000000009313","1","1","1","1","1,0.7,0,1,0.7,0,0.7,0,1","1,0.7,0,1,0.7,0,0.7,0,1","1","",""
"","html-keyboard-response","171","81275","0.0-171.0","","","","","null","<img src=""img/food1.png"" style=""width:200px; border:14px solid green;"">","null","","","","","","","","","",""
"","image-keyboard-response","172","81503","0.0-172.0","","","","","225.1999999997206","img/food4.png","74","227.39999999990687","1","0","3","1","1,0.7,0,1,0.7,0,0.7,0,1","1,0.7,0,1,0.7,0,0.7,0,1","1","",""
"","html-keyboard-response","173","81806","0.0-173.0","","","","","null","<img src=""img/food4.png"" style=""width:200px;border:14px solid red;"">","null","","","","","","","","","",""
"","image-keyboard-response","174","82086","0.0-174.0","","","","","279.10000000009313","img/food3.png","76","279.79999999981374","3","0","2","1","1,0.7,0,1,0.7,0,0.7,0,1","1,0.7,0,1,0.7,0,0.7,0,1","1","",""
"","html-keyboard-response","175","82388","0.0-175.0","","","","","null","<img src=""img/food3.png"" style=""width:200px;border:14px solid red;"">","null","","","","","","","","","",""
"","image-keyboard-response","176","82758","0.0-176.0","","","","","367.60000000009313","img/food4.png","74","370.20000000018626","1","1","3","1","1,0.7,0,1,0.7,0,0.7,0,1","1,0.7,0,1,0.7,0,0.7,0,1","1","",""
"","html-keyboard-response","177","83063","0.0-177.0","","","","","null","<img src=""img/food4.png"" style=""width:200px; border:14px solid green;"">","null","","","","","","","","","",""
"","image-keyboard-response","178","83626","0.0-178.0","","","","","560.6000000000931","img/food1.png","74","562.5","1","1","1","1","1,0.7,0,1,0.7,0,0.7,0,1","1,0.7,0,1,0.7,0,0.7,0,1","1","",""
"","html-keyboard-response","179","83930","0.0-179.0","","","","","null","<img src=""img/food1.png"" style=""width:200px; border:14px solid green;"">","null","","","","","","","","","",""
"","image-keyboard-response","180","84128","0.0-180.0","","","","","194.39999999990687","img/food1.png","74","197","1","1","1","1","1,0.7,0,1,0.7,0,0.7,0,1","1,0.7,0,1,0.7,0,0.7,0,1","1","",""
"","html-keyboard-response","181","84433","0.0-181.0","","","","","null","<img src=""img/food1.png"" style=""width:200px; border:14px solid green;"">","null","","","","","","","","","",""
"","html-keyboard-response","182","86886","0.0-182.0","","","","","","","","","","","","","","","","",""
"","instructions","183","95138","0.0-183.0","","","","[{""page_index"":0,""viewing_time"":6460.300000000279},{""page_index"":1,""viewing_time"":1791.2999999998137}]","8251.80000000028","","","","","","","","","","","",""
"","image-keyboard-response","184","95943","0.0-184.0","","","","","802.5","img/food2.png","76","805","3","0","2","2","1,0.7,0,1,0.7,0,0.7,0,1","1,0.7,0,1,0.7,0,0.7,0,1","1","false",""
"","html-keyboard-response","185","96259","0.0-185.0","","","","","null","<img src=""img/food2.png"" style=""width:200px;border:14px solid red;"">","null","","","","","","","","","",""
"","image-keyboard-response","186","96620","0.0-187.0","","","","","355.6999999997206","img/food5.png","74","358.89999999990687","1","1","1","2","1,0.7,0,1,0.7,0,0.7,0,1","1,0.7,0,1,0.7,0,0.7,0,1","1","false",""
"","html-keyboard-response","187","96922","0.0-188.0","","","","","null","<img src=""img/food5.png"" style=""width:200px; border:14px solid green;"">","null","","","","","","","","","",""
"","image-keyboard-response","188","97505","0.0-190.0","","","","","580.6000000000931","img/food2.png","74","582.3999999999069","1","1","2","2","1,0.7,0,1,0.7,0,0.7,0,1","1,0.7,0,1,0.7,0,0.7,0,1","1","false",""
"","html-keyboard-response","189","97809","0.0-191.0","","","","","null","<img src=""img/food2.png"" style=""width:200px; border:14px solid green;"">","null","","","","","","","","","",""
"","image-keyboard-response","190","98440","0.0-193.0","","","","","629.1000000000931","img/food5.png","74","630.1000000000931","1","1","1","2","1,0.7,0,1,0.7,0,0.7,0,1","1,0.7,0,1,0.7,0,0.7,0,1","1","false",""
"","html-keyboard-response","191","98743","0.0-194.0","","","","","null","<img src=""img/food5.png"" style=""width:200px; border:14px solid green;"">","null","","","","","","","","","",""
"","image-keyboard-response","192","99099","0.0-196.0","","","","","351.79999999981374","img/food5.png","74","353.89999999990687","1","1","1","2","1,0.7,0,1,0.7,0,0.7,0,1","1,0.7,0,1,0.7,0,0.7,0,1","1","false",""
"","html-keyboard-response","193","99403","0.0-197.0","","","","","null","<img src=""img/food5.png"" style=""width:200px; border:14px solid green;"">","null","","","","","","","","","",""
"","image-keyboard-response","194","99805","0.0-199.0","","","","","398.20000000018626","img/food2.png","74","400","1","1","2","2","1,0.7,0,1,0.7,0,0.7,0,1","1,0.7,0,1,0.7,0,0.7,0,1","1","false",""
"","html-keyboard-response","195","100108","0.0-200.0","","","","","null","<img src=""img/food2.png"" style=""width:200px; border:14px solid green;"">","null","","","","","","","","","",""
"","image-keyboard-response","196","100378","0.0-202.0","","","","","266.60000000009313","img/food2.png","74","269","1","1","2","2","1,0.7,0,1,0.7,0,0.7,0,1","1,0.7,0,1,0.7,0,0.7,0,1","1","false",""
"","html-keyboard-response","197","100681","0.0-203.0","","","","","null","<img src=""img/food2.png"" style=""width:200px; border:14px solid green;"">","null","","","","","","","","","",""
"","image-keyboard-response","198","100928","0.0-205.0","","","","","243.89999999990687","img/food2.png","74","245.90000000037253","1","1","2","2","1,0.7,0,1,0.7,0,0.7,0,1","1,0.7,0,1,0.7,0,0.7,0,1","1","false",""
"","html-keyboard-response","199","101235","0.0-206.0","","","","","null","<img src=""img/food2.png"" style=""width:200px; border:14px solid green;"">","null","","","","","","","","","",""
"","image-keyboard-response","200","101428","0.0-208.0","","","","","190.40000000037253","img/food6.png","74","191.79999999981374","1","1","3","2","1,0.7,0,1,0.7,0,0.7,0,1","1,0.7,0,1,0.7,0,0.7,0,1","1","false",""
"","html-keyboard-response","201","101734","0.0-209.0","","","","","null","<img src=""img/food6.png"" style=""width:200px; border:14px solid green;"">","null","","","","","","","","","",""
"","image-keyboard-response","202","102010","0.0-211.0","","","","","273.8000000002794","img/food6.png","74","275.70000000018626","1","1","3","2","1,0.7,0,1,0.7,0,0.7,0,1","1,0.7,0,1,0.7,0,0.7,0,1","1","false",""
"","html-keyboard-response","203","102314","0.0-212.0","","","","","null","<img src=""img/food6.png"" style=""width:200px; border:14px solid green;"">","null","","","","","","","","","",""
"","image-keyboard-response","204","102548","0.0-214.0","","","","","229.20000000018626","img/food5.png","74","232","1","1","1","2","1,0.7,0,1,0.7,0,0.7,0,1","1,0.7,0,1,0.7,0,0.7,0,1","1","false",""
"","html-keyboard-response","205","102852","0.0-215.0","","","","","null","<img src=""img/food5.png"" style=""width:200px; border:14px solid green;"">","null","","","","","","","","","",""
"","image-keyboard-response","206","103119","0.0-217.0","","","","","265.60000000009313","img/food2.png","74","266.89999999990687","1","1","2","2","1,0.7,0,1,0.7,0,0.7,0,1","1,0.7,0,1,0.7,0,0.7,0,1","1","false",""
"","html-keyboard-response","207","103423","0.0-218.0","","","","","null","<img src=""img/food2.png"" style=""width:200px; border:14px solid green;"">","null","","","","","","","","","",""
"","image-keyboard-response","208","103626","0.0-220.0","","","","","199.8000000002794","img/food5.png","74","202.10000000009313","1","1","1","2","1,0.7,0,1,0.7,0,0.7,0,1","1,0.7,0,1,0.7,0,0.7,0,1","1","false",""
"","html-keyboard-response","209","103929","0.0-221.0","","","","","null","<img src=""img/food5.png"" style=""width:200px; border:14px solid green;"">","null","","","","","","","","","",""
"","image-keyboard-response","210","104105","0.0-223.0","","","","","173.5","img/food5.png","74","175.29999999981374","1","1","1","2","1,0.7,0,1,0.7,0,0.7,0,1","1,0.7,0,1,0.7,0,0.7,0,1","1","false",""
"","html-keyboard-response","211","104409","0.0-224.0","","","","","null","<img src=""img/food5.png"" style=""width:200px; border:14px solid green;"">","null","","","","","","","","","",""
"","image-keyboard-response","212","104612","0.0-226.0","","","","","199.20000000018626","img/food6.png","74","201.5","1","1","3","2","1,0.7,0,1,0.7,0,0.7,0,1","1,0.7,0,1,0.7,0,0.7,0,1","1","false",""
"","html-keyboard-response","213","104914","0.0-227.0","","","","","null","<img src=""img/food6.png"" style=""width:200px; border:14px solid green;"">","null","","","","","","","","","",""
"","image-keyboard-response","214","105078","0.0-229.0","","","","","163.3000000002794","img/food5.png","74","164.70000000018626","1","1","1","2","1,0.7,0,1,0.7,0,0.7,0,1","1,0.7,0,1,0.7,0,0.7,0,1","1","false",""
"","html-keyboard-response","215","105383","0.0-230.0","","","","","null","<img src=""img/food5.png"" style=""width:200px; border:14px solid green;"">","null","","","","","","","","","",""
"","image-keyboard-response","216","105532","0.0-232.0","","","","","145.39999999990687","img/food6.png","74","147.39999999990687","1","0","3","2","1,0.7,0,1,0.7,0,0.7,0,1","1,0.7,0,1,0.7,0,0.7,0,1","1","false",""
"","html-keyboard-response","217","105836","0.0-233.0","","","","","null","<img src=""img/food6.png"" style=""width:200px;border:14px solid red;"">","null","","","","","","","","","",""
"","image-keyboard-response","218","106332","0.0-235.0","","","","","495.10000000009313","img/food6.png","74","495.89999999990687","1","1","3","2","1,0.7,0,1,0.7,0,0.7,0,1","1,0.7,0,1,0.7,0,0.7,0,1","1","false",""
"","html-keyboard-response","219","106634","0.0-236.0","","","","","null","<img src=""img/food6.png"" style=""width:200px; border:14px solid green;"">","null","","","","","","","","","",""
"","image-keyboard-response","220","106980","0.0-238.0","","","","","343","img/food2.png","74","346","1","1","2","2","1,0.7,0,1,0.7,0,0.7,0,1","1,0.7,0,1,0.7,0,0.7,0,1","1","false",""
"","html-keyboard-response","221","107284","0.0-239.0","","","","","null","<img src=""img/food2.png"" style=""width:200px; border:14px solid green;"">","null","","","","","","","","","",""
"","image-keyboard-response","222","107471","0.0-241.0","","","","","183.6999999997206","img/food5.png","74","186.10000000009313","1","1","1","2","1,0.7,0,1,0.7,0,0.7,0,1","1,0.7,0,1,0.7,0,0.7,0,1","1","false",""
"","html-keyboard-response","223","107775","0.0-242.0","","","","","null","<img src=""img/food5.png"" style=""width:200px; border:14px solid green;"">","null","","","","","","","","","",""
"","image-keyboard-response","224","107955","0.0-244.0","","","","","177.09999999962747","img/food2.png","74","178.90000000037253","1","1","2","2","1,0.7,0,1,0.7,0,0.7,0,1","1,0.7,0,1,0.7,0,0.7,0,1","1","false",""
"","html-keyboard-response","225","108256","0.0-245.0","","","","","null","<img src=""img/food2.png"" style=""width:200px; border:14px solid green;"">","null","","","","","","","","","",""
"","image-keyboard-response","226","108450","0.0-247.0","","","","","190.39999999990687","img/food6.png","74","192.60000000009313","1","1","3","2","1,0.7,0,1,0.7,0,0.7,0,1","1,0.7,0,1,0.7,0,0.7,0,1","1","false",""
"","html-keyboard-response","227","108753","0.0-248.0","","","","","null","<img src=""img/food6.png"" style=""width:200px; border:14px solid green;"">","null","","","","","","","","","",""
"","image-keyboard-response","228","108922","0.0-250.0","","","","","166.5","img/food5.png","74","168.29999999981374","1","1","1","2","1,0.7,0,1,0.7,0,0.7,0,1","1,0.7,0,1,0.7,0,0.7,0,1","1","false",""
"","html-keyboard-response","229","109224","0.0-251.0","","","","","null","<img src=""img/food5.png"" style=""width:200px; border:14px solid green;"">","null","","","","","","","","","",""
"","image-keyboard-response","230","109381","0.0-253.0","","","","","154.10000000009313","img/food6.png","74","156.39999999990687","1","1","3","2","1,0.7,0,1,0.7,0,0.7,0,1","1,0.7,0,1,0.7,0,0.7,0,1","1","false",""
"","html-keyboard-response","231","109685","0.0-254.0","","","","","null","<img src=""img/food6.png"" style=""width:200px; border:14px solid green;"">","null","","","","","","","","","",""
"","image-keyboard-response","232","109842","0.0-256.0","","","","","154.39999999990687","img/food6.png","74","156.3000000002794","1","1","3","2","1,0.7,0,1,0.7,0,0.7,0,1","1,0.7,0,1,0.7,0,0.7,0,1","1","false",""
"","html-keyboard-response","233","110144","0.0-257.0","","","","","null","<img src=""img/food6.png"" style=""width:200px; border:14px solid green;"">","null","","","","","","","","","",""
"","image-keyboard-response","234","110274","0.0-259.0","","","","","126.8000000002794","img/food2.png","74","129.10000000009313","1","1","2","2","1,0.7,0,1,0.7,0,0.7,0,1","1,0.7,0,1,0.7,0,0.7,0,1","1","false",""
"","html-keyboard-response","235","110578","0.0-260.0","","","","","null","<img src=""img/food2.png"" style=""width:200px; border:14px solid green;"">","null","","","","","","","","","",""
"","image-keyboard-response","236","110695","0.0-262.0","","","","","113.79999999981374","img/food2.png","74","116.10000000009313","1","1","2","2","1,0.7,0,1,0.7,0,0.7,0,1","1,0.7,0,1,0.7,0,0.7,0,1","1","false",""
"","html-keyboard-response","237","110999","0.0-263.0","","","","","null","<img src=""img/food2.png"" style=""width:200px; border:14px solid green;"">","null","","","","","","","","","",""
"","image-keyboard-response","238","111103","0.0-265.0","","","","","100.60000000009313","img/food5.png","74","103.39999999990687","1","1","1","2","1,0.7,0,1,0.7,0,0.7,0,1","1,0.7,0,1,0.7,0,0.7,0,1","1","false",""
"","html-keyboard-response","239","111406","0.0-266.0","","","","","null","<img src=""img/food5.png"" style=""width:200px; border:14px solid green;"">","null","","","","","","","","","",""
"","image-keyboard-response","240","111522","0.0-268.0","","","","","113.60000000009313","img/food5.png","74","115.60000000009313","1","1","1","2","1,0.7,0,1,0.7,0,0.7,0,1","1,0.7,0,1,0.7,0,0.7,0,1","1","false",""
"","html-keyboard-response","241","111826","0.0-269.0","","","","","null","<img src=""img/food5.png"" style=""width:200px; border:14px solid green;"">","null","","","","","","","","","",""
"","image-keyboard-response","242","111976","0.0-271.0","","","","","146.89999999990687","img/food5.png","74","148.6999999997206","1","1","1","2","1,0.7,0,1,0.7,0,0.7,0,1","1,0.7,0,1,0.7,0,0.7,0,1","1","false",""
"","html-keyboard-response","243","112280","0.0-272.0","","","","","null","<img src=""img/food5.png"" style=""width:200px; border:14px solid green;"">","null","","","","","","","","","",""
"","image-keyboard-response","244","112361","0.0-274.0","","","","","78.40000000037253","img/food6.png","74","80.5","1","1","3","2","1,0.7,0,1,0.7,0,0.7,0,1","1,0.7,0,1,0.7,0,0.7,0,1","1","false",""
"","html-keyboard-response","245","112665","0.0-275.0","","","","","null","<img src=""img/food6.png"" style=""width:200px; border:14px solid green;"">","null","","","","","","","","","",""
"","image-keyboard-response","246","112789","0.0-277.0","","","","","119.5","img/food5.png","74","123","1","1","1","2","1,0.7,0,1,0.7,0,0.7,0,1","1,0.7,0,1,0.7,0,0.7,0,1","1","false",""
"","html-keyboard-response","247","113093","0.0-278.0","","","","","null","<img src=""img/food5.png"" style=""width:200px; border:14px solid green;"">","null","","","","","","","","","",""
"","image-keyboard-response","248","113177","0.0-280.0","","","","","81.60000000009313","img/food6.png","74","83.89999999990687","1","1","3","2","1,0.7,0,1,0.7,0,0.7,0,1","1,0.7,0,1,0.7,0,0.7,0,1","1","false",""
"","html-keyboard-response","249","113484","0.0-281.0","","","","","null","<img src=""img/food6.png"" style=""width:200px; border:14px solid green;"">","null","","","","","","","","","",""
"","image-keyboard-response","250","113559","0.0-283.0","","","","","71.60000000009313","img/food5.png","74","73.60000000009313","1","1","1","2","1,0.7,0,1,0.7,0,0.7,0,1","1,0.7,0,1,0.7,0,0.7,0,1","1","false",""
"","html-keyboard-response","251","113862","0.0-284.0","","","","","null","<img src=""img/food5.png"" style=""width:200px; border:14px solid green;"">","null","","","","","","","","","",""
"","image-keyboard-response","252","113957","0.0-286.0","","","","","91.1999999997206","img/food6.png","74","93.5","1","0","3","2","1,0.7,0,1,0.7,0,0.7,0,1","1,0.7,0,1,0.7,0,0.7,0,1","1","false",""
"","html-keyboard-response","253","114260","0.0-287.0","","","","","null","<img src=""img/food6.png"" style=""width:200px;border:14px solid red;"">","null","","","","","","","","","",""
"","image-keyboard-response","254","114354","0.0-289.0","","","","","90.79999999981374","img/food5.png","74","93","1","1","1","2","1,0.7,0,1,0.7,0,0.7,0,1","1,0.7,0,1,0.7,0,0.7,0,1","1","false",""
"","html-keyboard-response","255","114662","0.0-290.0","","","","","null","<img src=""img/food5.png"" style=""width:200px; border:14px solid green;"">","null","","","","","","","","","",""
"","image-keyboard-response","256","114776","0.0-292.0","","","","","110.5","img/food6.png","74","112.10000000009313","1","1","3","2","1,0.7,0,1,0.7,0,0.7,0,1","1,0.7,0,1,0.7,0,0.7,0,1","1","false",""
"","html-keyboard-response","257","115078","0.0-293.0","","","","","null","<img src=""img/food6.png"" style=""width:200px; border:14px solid green;"">","null","","","","","","","","","",""
"","image-keyboard-response","258","115163","0.0-295.0","","","","","82.29999999981374","img/food2.png","74","84.60000000009313","1","1","2","2","1,0.7,0,1,0.7,0,0.7,0,1","1,0.7,0,1,0.7,0,0.7,0,1","1","false",""
"","html-keyboard-response","259","115466","0.0-296.0","","","","","null","<img src=""img/food2.png"" style=""width:200px; border:14px solid green;"">","null","","","","","","","","","",""
"","image-keyboard-response","260","115514","0.0-298.0","","","","","44.3000000002794","img/food6.png","74","46.799999999813735","1","0","3","2","1,0.7,0,1,0.7,0,0.7,0,1","1,0.7,0,1,0.7,0,0.7,0,1","1","false",""
"","html-keyboard-response","261","115818","0.0-299.0","","","","","null","<img src=""img/food6.png"" style=""width:200px;border:14px solid red;"">","null","","","","","","","","","",""
"","image-keyboard-response","262","115924","0.0-301.0","","","","","104.39999999990687","img/food5.png","74","106","1","1","1","2","1,0.7,0,1,0.7,0,0.7,0,1","1,0.7,0,1,0.7,0,0.7,0,1","1","false",""
"","html-keyboard-response","263","116228","0.0-302.0","","","","","null","<img src=""img/food5.png"" style=""width:200px; border:14px solid green;"">","null","","","","","","","","","",""
"","image-keyboard-response","264","116326","0.0-304.0","","","","","95.89999999990687","img/food6.png","74","97.39999999990687","1","1","3","2","1,0.7,0,1,0.7,0,0.7,0,1","1,0.7,0,1,0.7,0,0.7,0,1","1","false",""
"","html-keyboard-response","265","116628","0.0-305.0","","","","","null","<img src=""img/food6.png"" style=""width:200px; border:14px solid green;"">","null","","","","","","","","","",""
"","image-keyboard-response","266","116737","0.0-307.0","","","","","106.79999999981374","img/food5.png","74","108.8000000002794","1","1","1","2","1,0.7,0,1,0.7,0,0.7,0,1","1,0.7,0,1,0.7,0,0.7,0,1","1","false",""
"","html-keyboard-response","267","117042","0.0-308.0","","","","","null","<img src=""img/food5.png"" style=""width:200px; border:14px solid green;"">","null","","","","","","","","","",""
"","image-keyboard-response","268","117407","0.0-310.0","","","","","362.20000000018626","img/food2.png","74","364.70000000018626","1","1","2","2","1,0.7,0,1,0.7,0,0.7,0,1","1,0.7,0,1,0.7,0,0.7,0,1","1","false",""
"","html-keyboard-response","269","117713","0.0-311.0","","","","","null","<img src=""img/food2.png"" style=""width:200px; border:14px solid green;"">","null","","","","","","","","","",""
"","image-keyboard-response","270","117890","0.0-313.0","","","","","174.20000000018626","img/food6.png","74","176.89999999990687","1","1","3","2","1,0.7,0,1,0.7,0,0.7,0,1","1,0.7,0,1,0.7,0,0.7,0,1","1","false",""
"","html-keyboard-response","271","118194","0.0-314.0","","","","","null","<img src=""img/food6.png"" style=""width:200px; border:14px solid green;"">","null","","","","","","","","","",""
"","image-keyboard-response","272","118342","0.0-316.0","","","","","144.70000000018626","img/food2.png","74","147.1999999997206","1","1","2","2","1,0.7,0,1,0.7,0,0.7,0,1","1,0.7,0,1,0.7,0,0.7,0,1","1","false",""
"","html-keyboard-response","273","118659","0.0-317.0","","","","","null","<img src=""img/food2.png"" style=""width:200px; border:14px solid green;"">","null","","","","","","","","","",""
"","image-keyboard-response","274","118766","0.0-319.0","","","","","103.60000000009313","img/food6.png","74","105.1999999997206","1","1","3","2","1,0.7,0,1,0.7,0,0.7,0,1","1,0.7,0,1,0.7,0,0.7,0,1","1","false",""
"","html-keyboard-response","275","119068","0.0-320.0","","","","","null","<img src=""img/food6.png"" style=""width:200px; border:14px solid green;"">","null","","","","","","","","","",""
"","image-keyboard-response","276","119215","0.0-322.0","","","","","144.70000000018626","img/food5.png","74","146.60000000009313","1","1","1","2","1,0.7,0,1,0.7,0,0.7,0,1","1,0.7,0,1,0.7,0,0.7,0,1","1","false",""
"","html-keyboard-response","277","119519","0.0-323.0","","","","","null","<img src=""img/food5.png"" style=""width:200px; border:14px solid green;"">","null","","","","","","","","","",""
"","image-keyboard-response","278","119645","0.0-325.0","","","","","123.29999999981374","img/food2.png","74","125.20000000018626","1","1","2","2","1,0.7,0,1,0.7,0,0.7,0,1","1,0.7,0,1,0.7,0,0.7,0,1","1","false",""
"","html-keyboard-response","279","119947","0.0-326.0","","","","","null","<img src=""img/food2.png"" style=""width:200px; border:14px solid green;"">","null","","","","","","","","","",""
"","image-keyboard-response","280","120044","0.0-328.0","","","","","94","img/food5.png","74","95.89999999990687","1","1","1","2","1,0.7,0,1,0.7,0,0.7,0,1","1,0.7,0,1,0.7,0,0.7,0,1","1","false",""
"","html-keyboard-response","281","120347","0.0-329.0","","","","","null","<img src=""img/food5.png"" style=""width:200px; border:14px solid green;"">","null","","","","","","","","","",""
"","image-keyboard-response","282","120460","0.0-331.0","","","","","110.40000000037253","img/food6.png","74","112.60000000009313","1","1","3","2","1,0.7,0,1,0.7,0,0.7,0,1","1,0.7,0,1,0.7,0,0.7,0,1","1","false",""
"","html-keyboard-response","283","120763","0.0-332.0","","","","","null","<img src=""img/food6.png"" style=""width:200px; border:14px solid green;"">","null","","","","","","","","","",""
"","image-keyboard-response","284","120849","0.0-334.0","","","","","83.09999999962747","img/food6.png","74","85.5","1","1","3","2","1,0.7,0,1,0.7,0,0.7,0,1","1,0.7,0,1,0.7,0,0.7,0,1","1","false",""
"","html-keyboard-response","285","121152","0.0-335.0","","","","","null","<img src=""img/food6.png"" style=""width:200px; border:14px solid green;"">","null","","","","","","","","","",""
"","image-keyboard-response","286","121294","0.0-337.0","","","","","138.1999999997206","img/food5.png","74","141.09999999962747","1","1","1","2","1,0.7,0,1,0.7,0,0.7,0,1","1,0.7,0,1,0.7,0,0.7,0,1","1","false",""
"","html-keyboard-response","287","121597","0.0-338.0","","","","","null","<img src=""img/food5.png"" style=""width:200px; border:14px solid green;"">","null","","","","","","","","","",""
"","image-keyboard-response","288","121673","0.0-340.0","","","","","75.40000000037253","img/food6.png","74","76.5","1","0","3","2","1,0.7,0,1,0.7,0,0.7,0,1","1,0.7,0,1,0.7,0,0.7,0,1","1","false",""
"","html-keyboard-response","289","121976","0.0-341.0","","","","","null","<img src=""img/food6.png"" style=""width:200px;border:14px solid red;"">","null","","","","","","","","","",""
"","image-keyboard-response","290","122028","0.0-343.0","","","","","50.60000000009313","img/food6.png","74","51.5","1","1","3","2","1,0.7,0,1,0.7,0,0.7,0,1","1,0.7,0,1,0.7,0,0.7,0,1","1","false",""
"","html-keyboard-response","291","122332","0.0-344.0","","","","","null","<img src=""img/food6.png"" style=""width:200px; border:14px solid green;"">","null","","","","","","","","","",""
"","image-keyboard-response","292","122428","0.0-346.0","","","","","92.89999999990687","img/food2.png","74","95.59999999962747","1","1","2","2","1,0.7,0,1,0.7,0,0.7,0,1","1,0.7,0,1,0.7,0,0.7,0,1","1","false",""
"","html-keyboard-response","293","122733","0.0-347.0","","","","","null","<img src=""img/food2.png"" style=""width:200px; border:14px solid green;"">","null","","","","","","","","","",""
"","image-keyboard-response","294","122837","0.0-349.0","","","","","101","img/food2.png","74","102.79999999981374","1","1","2","2","1,0.7,0,1,0.7,0,0.7,0,1","1,0.7,0,1,0.7,0,0.7,0,1","1","false",""
"","html-keyboard-response","295","123139","0.0-350.0","","","","","null","<img src=""img/food2.png"" style=""width:200px; border:14px solid green;"">","null","","","","","","","","","",""
"","image-keyboard-response","296","123260","0.0-352.0","","","","","119","img/food6.png","74","120.79999999981374","1","0","3","2","1,0.7,0,1,0.7,0,0.7,0,1","1,0.7,0,1,0.7,0,0.7,0,1","1","false",""
"","html-keyboard-response","297","123564","0.0-353.0","","","","","null","<img src=""img/food6.png"" style=""width:200px;border:14px solid red;"">","null","","","","","","","","","",""
"","image-keyboard-response","298","123614","0.0-355.0","","","","","50.10000000009313","img/food5.png","74","50.5","1","1","1","2","1,0.7,0,1,0.7,0,0.7,0,1","1,0.7,0,1,0.7,0,0.7,0,1","1","false",""
"","html-keyboard-response","299","123916","0.0-356.0","","","","","null","<img src=""img/food5.png"" style=""width:200px; border:14px solid green;"">","null","","","","","","","","","",""
"","image-keyboard-response","300","124028","0.0-358.0","","","","","110.5","img/food5.png","74","112.59999999962747","1","1","1","2","1,0.7,0,1,0.7,0,0.7,0,1","1,0.7,0,1,0.7,0,0.7,0,1","1","false",""
"","html-keyboard-response","301","124333","0.0-359.0","","","","","null","<img src=""img/food5.png"" style=""width:200px; border:14px solid green;"">","null","","","","","","","","","",""
"","image-keyboard-response","302","124400","0.0-361.0","","","","","64.39999999990687","img/food5.png","74","66.10000000009313","1","1","1","2","1,0.7,0,1,0.7,0,0.7,0,1","1,0.7,0,1,0.7,0,0.7,0,1","1","false",""
"","html-keyboard-response","303","124704","0.0-362.0","","","","","null","<img src=""img/food5.png"" style=""width:200px; border:14px solid green;"">","null","","","","","","","","","",""
"","image-keyboard-response","304","124781","0.0-364.0","","","","","74.39999999990687","img/food6.png","74","76.39999999990687","1","0","3","2","1,0.7,0,1,0.7,0,0.7,0,1","1,0.7,0,1,0.7,0,0.7,0,1","1","false",""
"","html-keyboard-response","305","125084","0.0-365.0","","","","","null","<img src=""img/food6.png"" style=""width:200px;border:14px solid red;"">","null","","","","","","","","","",""
"","image-keyboard-response","306","125197","0.0-367.0","","","","","111.5","img/food5.png","74","113.5","1","1","1","2","1,0.7,0,1,0.7,0,0.7,0,1","1,0.7,0,1,0.7,0,0.7,0,1","1","false",""
"","html-keyboard-response","307","125501","0.0-368.0","","","","","null","<img src=""img/food5.png"" style=""width:200px; border:14px solid green;"">","null","","","","","","","","","",""
"","image-keyboard-response","308","125561","0.0-370.0","","","","","58.89999999990687","img/food2.png","74","59.700000000186265","1","1","2","2","1,0.7,0,1,0.7,0,0.7,0,1","1,0.7,0,1,0.7,0,0.7,0,1","1","false",""
"","html-keyboard-response","309","125863","0.0-371.0","","","","","null","<img src=""img/food2.png"" style=""width:200px; border:14px solid green;"">","null","","","","","","","","","",""
"","image-keyboard-response","310","125924","0.0-373.0","","","","","59.299999999813735","img/food2.png","74","60.10000000009313","1","1","2","2","1,0.7,0,1,0.7,0,0.7,0,1","1,0.7,0,1,0.7,0,0.7,0,1","1","false",""
"","html-keyboard-response","311","126227","0.0-374.0","","","","","null","<img src=""img/food2.png"" style=""width:200px; border:14px solid green;"">","null","","","","","","","","","",""
"","image-keyboard-response","312","126329","0.0-376.0","","","","","98.29999999981374","img/food5.png","74","100.5","1","1","1","2","1,0.7,0,1,0.7,0,0.7,0,1","1,0.7,0,1,0.7,0,0.7,0,1","1","false",""
"","html-keyboard-response","313","126632","0.0-377.0","","","","","null","<img src=""img/food5.png"" style=""width:200px; border:14px solid green;"">","null","","","","","","","","","",""
"","image-keyboard-response","314","126673","0.0-379.0","","","","","38.799999999813735","img/food2.png","74","40.5","1","1","2","2","1,0.7,0,1,0.7,0,0.7,0,1","1,0.7,0,1,0.7,0,0.7,0,1","1","false",""
"","html-keyboard-response","315","126977","0.0-380.0","","","","","null","<img src=""img/food2.png"" style=""width:200px; border:14px solid green;"">","null","","","","","","","","","",""
"","image-keyboard-response","316","127045","0.0-382.0","","","","","63.5","img/food5.png","74","66.5","1","1","1","2","1,0.7,0,1,0.7,0,0.7,0,1","1,0.7,0,1,0.7,0,0.7,0,1","1","false",""
"","html-keyboard-response","317","127348","0.0-383.0","","","","","null","<img src=""img/food5.png"" style=""width:200px; border:14px solid green;"">","null","","","","","","","","","",""
"","image-keyboard-response","318","127406","0.0-385.0","","","","","54.09999999962747","img/food2.png","74","56.299999999813735","1","1","2","2","1,0.7,0,1,0.7,0,0.7,0,1","1,0.7,0,1,0.7,0,0.7,0,1","1","false",""
"","html-keyboard-response","319","127710","0.0-386.0","","","","","null","<img src=""img/food2.png"" style=""width:200px; border:14px solid green;"">","null","","","","","","","","","",""
"","image-keyboard-response","320","127787","0.0-388.0","","","","","73.5","img/food5.png","74","75.5","1","1","1","2","1,0.7,0,1,0.7,0,0.7,0,1","1,0.7,0,1,0.7,0,0.7,0,1","1","false",""
"","html-keyboard-response","321","128090","0.0-389.0","","","","","null","<img src=""img/food5.png"" style=""width:200px; border:14px solid green;"">","null","","","","","","","","","",""
"","image-keyboard-response","322","128143","0.0-391.0","","","","","52.09999999962747","img/food5.png","74","54.39999999990687","1","1","1","2","1,0.7,0,1,0.7,0,0.7,0,1","1,0.7,0,1,0.7,0,0.7,0,1","1","false",""
"","html-keyboard-response","323","128449","0.0-392.0","","","","","null","<img src=""img/food5.png"" style=""width:200px; border:14px solid green;"">","null","","","","","","","","","",""
"","image-keyboard-response","324","128570","0.0-394.0","","","","","119.60000000009313","img/food5.png","74","121.89999999990687","1","1","1","2","1,0.7,0,1,0.7,0,0.7,0,1","1,0.7,0,1,0.7,0,0.7,0,1","1","false",""
"","html-keyboard-response","325","128876","0.0-395.0","","","","","null","<img src=""img/food5.png"" style=""width:200px; border:14px solid green;"">","null","","","","","","","","","",""
"","image-keyboard-response","326","128968","0.0-397.0","","","","","89.89999999990687","img/food6.png","74","91.29999999981374","1","1","3","2","1,0.7,0,1,0.7,0,0.7,0,1","1,0.7,0,1,0.7,0,0.7,0,1","1","false",""
"","html-keyboard-response","327","129272","0.0-398.0","","","","","null","<img src=""img/food6.png"" style=""width:200px; border:14px solid green;"">","null","","","","","","","","","",""
"","image-keyboard-response","328","129372","0.0-400.0","","","","","96.89999999990687","img/food6.png","74","98.39999999990687","1","1","3","2","1,0.7,0,1,0.7,0,0.7,0,1","1,0.7,0,1,0.7,0,0.7,0,1","1","false",""
"","html-keyboard-response","329","129673","0.0-401.0","","","","","null","<img src=""img/food6.png"" style=""width:200px; border:14px solid green;"">","null","","","","","","","","","",""
"","image-keyboard-response","330","129758","0.0-403.0","","","","","81.5","img/food2.png","74","83.39999999990687","1","1","2","2","1,0.7,0,1,0.7,0,0.7,0,1","1,0.7,0,1,0.7,0,0.7,0,1","1","false",""
"","html-keyboard-response","331","130075","0.0-404.0","","","","","null","<img src=""img/food2.png"" style=""width:200px; border:14px solid green;"">","null","","","","","","","","","",""
"","image-keyboard-response","332","130174","0.0-406.0","","","","","95.89999999990687","img/food6.png","74","98.10000000009313","1","1","3","2","1,0.7,0,1,0.7,0,0.7,0,1","1,0.7,0,1,0.7,0,0.7,0,1","1","false",""
"","html-keyboard-response","333","130478","0.0-407.0","","","","","null","<img src=""img/food6.png"" style=""width:200px; border:14px solid green;"">","null","","","","","","","","","",""
"","image-keyboard-response","334","130541","0.0-409.0","","","","","59.3000000002794","img/food2.png","74","62.10000000009313","1","1","2","2","1,0.7,0,1,0.7,0,0.7,0,1","1,0.7,0,1,0.7,0,0.7,0,1","1","false",""
"","html-keyboard-response","335","130845","0.0-410.0","","","","","null","<img src=""img/food2.png"" style=""width:200px; border:14px solid green;"">","null","","","","","","","","","",""
"","image-keyboard-response","336","130917","0.0-412.0","","","","","71","img/food2.png","74","71.89999999990687","1","1","2","2","1,0.7,0,1,0.7,0,0.7,0,1","1,0.7,0,1,0.7,0,0.7,0,1","1","false",""
"","html-keyboard-response","337","131221","0.0-413.0","","","","","null","<img src=""img/food2.png"" style=""width:200px; border:14px solid green;"">","null","","","","","","","","","",""
"","image-keyboard-response","338","131308","0.0-415.0","","","","","82.5","img/food2.png","74","85","1","1","2","2","1,0.7,0,1,0.7,0,0.7,0,1","1,0.7,0,1,0.7,0,0.7,0,1","1","false",""
"","html-keyboard-response","339","131611","0.0-416.0","","","","","null","<img src=""img/food2.png"" style=""width:200px; border:14px solid green;"">","null","","","","","","","","","",""
"","image-keyboard-response","340","131654","0.0-418.0","","","","","39.39999999990687","img/food2.png","74","41.700000000186265","1","1","2","2","1,0.7,0,1,0.7,0,0.7,0,1","1,0.7,0,1,0.7,0,0.7,0,1","1","false",""
"","html-keyboard-response","341","131959","0.0-419.0","","","","","null","<img src=""img/food2.png"" style=""width:200px; border:14px solid green;"">","null","","","","","","","","","",""
"","image-keyboard-response","342","132047","0.0-421.0","","","","","86.39999999990687","img/food5.png","74","87.5","1","1","1","2","1,0.7,0,1,0.7,0,0.7,0,1","1,0.7,0,1,0.7,0,0.7,0,1","1","false",""
"","html-keyboard-response","343","132351","0.0-422.0","","","","","null","<img src=""img/food5.png"" style=""width:200px; border:14px solid green;"">","null","","","","","","","","","",""
"","image-keyboard-response","344","132419","0.0-424.0","","","","","65.39999999990687","img/food6.png","74","67.8000000002794","1","1","3","2","1,0.7,0,1,0.7,0,0.7,0,1","1,0.7,0,1,0.7,0,0.7,0,1","1","false",""
"","html-keyboard-response","345","132724","0.0-425.0","","","","","null","<img src=""img/food6.png"" style=""width:200px; border:14px solid green;"">","null","","","","","","","","","",""
"","image-keyboard-response","346","132776","0.0-427.0","","","","","50.5","img/food2.png","74","51.60000000009313","1","1","2","2","1,0.7,0,1,0.7,0,0.7,0,1","1,0.7,0,1,0.7,0,0.7,0,1","1","false",""
"","html-keyboard-response","347","133078","0.0-428.0","","","","","null","<img src=""img/food2.png"" style=""width:200px; border:14px solid green;"">","null","","","","","","","","","",""
"","image-keyboard-response","348","133139","0.0-430.0","","","","","58.60000000009313","img/food6.png","74","60.60000000009313","1","1","3","2","1,0.7,0,1,0.7,0,0.7,0,1","1,0.7,0,1,0.7,0,0.7,0,1","1","false",""
"","html-keyboard-response","349","133442","0.0-431.0","","","","","null","<img src=""img/food6.png"" style=""width:200px; border:14px solid green;"">","null","","","","","","","","","",""
"","image-keyboard-response","350","133482","0.0-433.0","","","","","36.8000000002794","img/food2.png","74","39.299999999813735","1","1","2","2","1,0.7,0,1,0.7,0,0.7,0,1","1,0.7,0,1,0.7,0,0.7,0,1","1","false",""
"","html-keyboard-response","351","133785","0.0-434.0","","","","","null","<img src=""img/food2.png"" style=""width:200px; border:14px solid green;"">","null","","","","","","","","","",""
"","image-keyboard-response","352","133814","0.0-436.0","","","","","27.399999999906868","img/food6.png","74","28.399999999906868","1","0","3","2","1,0.7,0,1,0.7,0,0.7,0,1","1,0.7,0,1,0.7,0,0.7,0,1","1","false",""
"","html-keyboard-response","353","134116","0.0-437.0","","","","","null","<img src=""img/food6.png"" style=""width:200px;border:14px solid red;"">","null","","","","","","","","","",""
"","image-keyboard-response","354","134446","0.0-439.0","","","","","327.79999999981374","img/food6.png","74","329.8000000002794","1","1","3","2","1,0.7,0,1,0.7,0,0.7,0,1","1,0.7,0,1,0.7,0,0.7,0,1","1","false",""
"","html-keyboard-response","355","134749","0.0-440.0","","","","","null","<img src=""img/food6.png"" style=""width:200px; border:14px solid green;"">","null","","","","","","","","","",""
"","image-keyboard-response","356","134774","0.0-442.0","","","","","23.100000000093132","img/food2.png","74","24.799999999813735","1","1","2","2","1,0.7,0,1,0.7,0,0.7,0,1","1,0.7,0,1,0.7,0,0.7,0,1","1","false",""
"","html-keyboard-response","357","135078","0.0-443.0","","","","","null","<img src=""img/food2.png"" style=""width:200px; border:14px solid green;"">","null","","","","","","","","","",""
"","image-keyboard-response","358","135391","0.0-445.0","","","","","309.90000000037253","img/food2.png","74","311.79999999981374","1","1","2","2","1,0.7,0,1,0.7,0,0.7,0,1","1,0.7,0,1,0.7,0,0.7,0,1","1","false",""
"","html-keyboard-response","359","135693","0.0-446.0","","","","","null","<img src=""img/food2.png"" style=""width:200px; border:14px solid green;"">","null","","","","","","","","","",""
"","image-keyboard-response","360","135739","0.0-448.0","","","","","42.39999999990687","img/food2.png","74","44.5","1","1","2","2","1,0.7,0,1,0.7,0,0.7,0,1","1,0.7,0,1,0.7,0,0.7,0,1","1","false",""
"","html-keyboard-response","361","136044","0.0-449.0","","","","","null","<img src=""img/food2.png"" style=""width:200px; border:14px solid green;"">","null","","","","","","","","","",""
"","image-keyboard-response","362","136068","0.0-451.0","","","","","20","img/food6.png","74","22.700000000186265","1","0","3","2","1,0.7,0,1,0.7,0,0.7,0,1","1,0.7,0,1,0.7,0,0.7,0,1","1","false",""
"","html-keyboard-response","363","136373","0.0-452.0","","","","","null","<img src=""img/food6.png"" style=""width:200px;border:14px solid red;"">","null","","","","","","","","","",""
"","instructions","364","139042","0.0-454.0","","","","[{""page_index"":0,""viewing_time"":2665.899999999907}]","2666.100000000093","","","","","","","","","","","",""
"","survey-text","365","143104","0.0-455.0","","","","","4058.600000000093","","","","","","","","","","","","{""Q0"":""A34EHWOYRBL6OZ""}"
