"success","trial_type","trial_index","time_elapsed","internal_node_id","assignmentID","mturkID","hitID","view_history","rt","stimulus","key_press","reactionTime","a","r","s","cond","reward_cond","reward_cond_actual","reward_matrix_idx","warning","responses"
"true","fullscreen","0","3010","0.0-0.0","3WYP994K18D3PXZB8CV8QLTMS45Y6I","A34U4186EW0B9X","3PIOQ99R7Y8STPN46QFY0SD7JTFNU0","","","","","","","","","","","","","",""
"","instructions","1","19603","0.0-1.0","3WYP994K18D3PXZB8CV8QLTMS45Y6I","A34U4186EW0B9X","3PIOQ99R7Y8STPN46QFY0SD7JTFNU0","[{""page_index"":0,""viewing_time"":4064},{""page_index"":1,""viewing_time"":1237},{""page_index"":2,""viewing_time"":1395.7999999523163},{""page_index"":3,""viewing_time"":2487},{""page_index"":4,""viewing_time"":3953},{""page_index"":5,""viewing_time"":2371},{""page_index"":6,""viewing_time"":1084.1000001430511}]","16592.10000014305","","","","","","","","","","","",""
"","image-keyboard-response","2","21435","0.0-2.0","3WYP994K18D3PXZB8CV8QLTMS45Y6I","A34U4186EW0B9X","3PIOQ99R7Y8STPN46QFY0SD7JTFNU0","","1831.2999999523163","img/food1.png","74","1832","1","0","2","1","1,0.5,0,1,0.5,0,0.5,0,1","0,1,0.5,0,1,0.5,1,0.5,0","3","",""
"","html-keyboard-response","3","21741","0.0-3.0","3WYP994K18D3PXZB8CV8QLTMS45Y6I","A34U4186EW0B9X","3PIOQ99R7Y8STPN46QFY0SD7JTFNU0","","null","<img src=""img/food1.png"" style=""width:200px;border:14px solid red;"">","null","","","","","","","","","",""
"","image-keyboard-response","4","22218","0.0-4.0","3WYP994K18D3PXZB8CV8QLTMS45Y6I","A34U4186EW0B9X","3PIOQ99R7Y8STPN46QFY0SD7JTFNU0","","476.2999999523163","img/food5.png","75","476.90000009536743","2","1","1","1","1,0.5,0,1,0.5,0,0.5,0,1","0,1,0.5,0,1,0.5,1,0.5,0","3","",""
"","html-keyboard-response","5","22523","0.0-5.0","3WYP994K18D3PXZB8CV8QLTMS45Y6I","A34U4186EW0B9X","3PIOQ99R7Y8STPN46QFY0SD7JTFNU0","","null","<img src=""img/food5.png"" style=""width:200px; border:14px solid green;"">","null","","","","","","","","","",""
"","image-keyboard-response","6","23047","0.0-6.0","3WYP994K18D3PXZB8CV8QLTMS45Y6I","A34U4186EW0B9X","3PIOQ99R7Y8STPN46QFY0SD7JTFNU0","","522.7999999523163","img/food5.png","75","523.3000001907349","2","1","1","1","1,0.5,0,1,0.5,0,0.5,0,1","0,1,0.5,0,1,0.5,1,0.5,0","3","",""
"","html-keyboard-response","7","23350","0.0-7.0","3WYP994K18D3PXZB8CV8QLTMS45Y6I","A34U4186EW0B9X","3PIOQ99R7Y8STPN46QFY0SD7JTFNU0","","null","<img src=""img/food5.png"" style=""width:200px; border:14px solid green;"">","null","","","","","","","","","",""
"","image-keyboard-response","8","23981","0.0-8.0","3WYP994K18D3PXZB8CV8QLTMS45Y6I","A34U4186EW0B9X","3PIOQ99R7Y8STPN46QFY0SD7JTFNU0","","630","img/food3.png","76","630.4000000953674","3","0","3","1","1,0.5,0,1,0.5,0,0.5,0,1","0,1,0.5,0,1,0.5,1,0.5,0","3","",""
"","html-keyboard-response","9","24287","0.0-9.0","3WYP994K18D3PXZB8CV8QLTMS45Y6I","A34U4186EW0B9X","3PIOQ99R7Y8STPN46QFY0SD7JTFNU0","","null","<img src=""img/food3.png"" style=""width:200px;border:14px solid red;"">","null","","","","","","","","","",""
"","image-keyboard-response","10","24805","0.0-10.0","3WYP994K18D3PXZB8CV8QLTMS45Y6I","A34U4186EW0B9X","3PIOQ99R7Y8STPN46QFY0SD7JTFNU0","","517.0999999046326","img/food3.png","75","517.7000000476837","2","1","3","1","1,0.5,0,1,0.5,0,0.5,0,1","0,1,0.5,0,1,0.5,1,0.5,0","3","",""
"","html-keyboard-response","11","25115","0.0-11.0","3WYP994K18D3PXZB8CV8QLTMS45Y6I","A34U4186EW0B9X","3PIOQ99R7Y8STPN46QFY0SD7JTFNU0","","null","<img src=""img/food3.png"" style=""width:200px; border:14px solid green;"">","null","","","","","","","","","",""
"","image-keyboard-response","12","25692","0.0-12.0","3WYP994K18D3PXZB8CV8QLTMS45Y6I","A34U4186EW0B9X","3PIOQ99R7Y8STPN46QFY0SD7JTFNU0","","576.4000000953674","img/food1.png","75","576.7999999523163","2","1","2","1","1,0.5,0,1,0.5,0,0.5,0,1","0,1,0.5,0,1,0.5,1,0.5,0","3","",""
"","html-keyboard-response","13","25993","0.0-13.0","3WYP994K18D3PXZB8CV8QLTMS45Y6I","A34U4186EW0B9X","3PIOQ99R7Y8STPN46QFY0SD7JTFNU0","","null","<img src=""img/food1.png"" style=""width:200px; border:14px solid green;"">","null","","","","","","","","","",""
"","image-keyboard-response","14","26436","0.0-14.0","3WYP994K18D3PXZB8CV8QLTMS45Y6I","A34U4186EW0B9X","3PIOQ99R7Y8STPN46QFY0SD7JTFNU0","","442.40000009536743","img/food5.png","75","442.7999999523163","2","1","1","1","1,0.5,0,1,0.5,0,0.5,0,1","0,1,0.5,0,1,0.5,1,0.5,0","3","",""
"","html-keyboard-response","15","26750","0.0-15.0","3WYP994K18D3PXZB8CV8QLTMS45Y6I","A34U4186EW0B9X","3PIOQ99R7Y8STPN46QFY0SD7JTFNU0","","null","<img src=""img/food5.png"" style=""width:200px; border:14px solid green;"">","null","","","","","","","","","",""
"","image-keyboard-response","16","27234","0.0-16.0","3WYP994K18D3PXZB8CV8QLTMS45Y6I","A34U4186EW0B9X","3PIOQ99R7Y8STPN46QFY0SD7JTFNU0","","483.2000000476837","img/food3.png","75","483.7000000476837","2","1","3","1","1,0.5,0,1,0.5,0,0.5,0,1","0,1,0.5,0,1,0.5,1,0.5,0","3","",""
"","html-keyboard-response","17","27548","0.0-17.0","3WYP994K18D3PXZB8CV8QLTMS45Y6I","A34U4186EW0B9X","3PIOQ99R7Y8STPN46QFY0SD7JTFNU0","","null","<img src=""img/food3.png"" style=""width:200px; border:14px solid green;"">","null","","","","","","","","","",""
"","image-keyboard-response","18","28044","0.0-18.0","3WYP994K18D3PXZB8CV8QLTMS45Y6I","A34U4186EW0B9X","3PIOQ99R7Y8STPN46QFY0SD7JTFNU0","","495.7999999523163","img/food5.png","75","496.10000014305115","2","1","1","1","1,0.5,0,1,0.5,0,0.5,0,1","0,1,0.5,0,1,0.5,1,0.5,0","3","",""
"","html-keyboard-response","19","28350","0.0-19.0","3WYP994K18D3PXZB8CV8QLTMS45Y6I","A34U4186EW0B9X","3PIOQ99R7Y8STPN46QFY0SD7JTFNU0","","null","<img src=""img/food5.png"" style=""width:200px; border:14px solid green;"">","null","","","","","","","","","",""
"","image-keyboard-response","20","28703","0.0-20.0","3WYP994K18D3PXZB8CV8QLTMS45Y6I","A34U4186EW0B9X","3PIOQ99R7Y8STPN46QFY0SD7JTFNU0","","352.39999985694885","img/food5.png","75","353","2","1","1","1","1,0.5,0,1,0.5,0,0.5,0,1","0,1,0.5,0,1,0.5,1,0.5,0","3","",""
"","html-keyboard-response","21","29004","0.0-21.0","3WYP994K18D3PXZB8CV8QLTMS45Y6I","A34U4186EW0B9X","3PIOQ99R7Y8STPN46QFY0SD7JTFNU0","","null","<img src=""img/food5.png"" style=""width:200px; border:14px solid green;"">","null","","","","","","","","","",""
"","image-keyboard-response","22","29305","0.0-22.0","3WYP994K18D3PXZB8CV8QLTMS45Y6I","A34U4186EW0B9X","3PIOQ99R7Y8STPN46QFY0SD7JTFNU0","","300.60000014305115","img/food5.png","75","301.19999980926514","2","1","1","1","1,0.5,0,1,0.5,0,0.5,0,1","0,1,0.5,0,1,0.5,1,0.5,0","3","",""
"","html-keyboard-response","23","29616","0.0-23.0","3WYP994K18D3PXZB8CV8QLTMS45Y6I","A34U4186EW0B9X","3PIOQ99R7Y8STPN46QFY0SD7JTFNU0","","null","<img src=""img/food5.png"" style=""width:200px; border:14px solid green;"">","null","","","","","","","","","",""
"","image-keyboard-response","24","30061","0.0-24.0","3WYP994K18D3PXZB8CV8QLTMS45Y6I","A34U4186EW0B9X","3PIOQ99R7Y8STPN46QFY0SD7JTFNU0","","445.09999990463257","img/food5.png","75","445.5","2","1","1","1","1,0.5,0,1,0.5,0,0.5,0,1","0,1,0.5,0,1,0.5,1,0.5,0","3","",""
"","html-keyboard-response","25","30362","0.0-25.0","3WYP994K18D3PXZB8CV8QLTMS45Y6I","A34U4186EW0B9X","3PIOQ99R7Y8STPN46QFY0SD7JTFNU0","","null","<img src=""img/food5.png"" style=""width:200px; border:14px solid green;"">","null","","","","","","","","","",""
"","image-keyboard-response","26","30931","0.0-26.0","3WYP994K18D3PXZB8CV8QLTMS45Y6I","A34U4186EW0B9X","3PIOQ99R7Y8STPN46QFY0SD7JTFNU0","","568.7999999523163","img/food3.png","75","569.2000000476837","2","0","3","1","1,0.5,0,1,0.5,0,0.5,0,1","0,1,0.5,0,1,0.5,1,0.5,0","3","",""
"","html-keyboard-response","27","31233","0.0-27.0","3WYP994K18D3PXZB8CV8QLTMS45Y6I","A34U4186EW0B9X","3PIOQ99R7Y8STPN46QFY0SD7JTFNU0","","null","<img src=""img/food3.png"" style=""width:200px;border:14px solid red;"">","null","","","","","","","","","",""
"","image-keyboard-response","28","31777","0.0-28.0","3WYP994K18D3PXZB8CV8QLTMS45Y6I","A34U4186EW0B9X","3PIOQ99R7Y8STPN46QFY0SD7JTFNU0","","543.2000000476837","img/food3.png","75","543.6999998092651","2","1","3","1","1,0.5,0,1,0.5,0,0.5,0,1","0,1,0.5,0,1,0.5,1,0.5,0","3","",""
"","html-keyboard-response","29","32077","0.0-29.0","3WYP994K18D3PXZB8CV8QLTMS45Y6I","A34U4186EW0B9X","3PIOQ99R7Y8STPN46QFY0SD7JTFNU0","","null","<img src=""img/food3.png"" style=""width:200px; border:14px solid green;"">","null","","","","","","","","","",""
"","image-keyboard-response","30","32619","0.0-30.0","3WYP994K18D3PXZB8CV8QLTMS45Y6I","A34U4186EW0B9X","3PIOQ99R7Y8STPN46QFY0SD7JTFNU0","","540.7999999523163","img/food1.png","75","541.2999999523163","2","1","2","1","1,0.5,0,1,0.5,0,0.5,0,1","0,1,0.5,0,1,0.5,1,0.5,0","3","",""
"","html-keyboard-response","31","32920","0.0-31.0","3WYP994K18D3PXZB8CV8QLTMS45Y6I","A34U4186EW0B9X","3PIOQ99R7Y8STPN46QFY0SD7JTFNU0","","null","<img src=""img/food1.png"" style=""width:200px; border:14px solid green;"">","null","","","","","","","","","",""
"","image-keyboard-response","32","33218","0.0-32.0","3WYP994K18D3PXZB8CV8QLTMS45Y6I","A34U4186EW0B9X","3PIOQ99R7Y8STPN46QFY0SD7JTFNU0","","297.7000000476837","img/food1.png","75","298","2","1","2","1","1,0.5,0,1,0.5,0,0.5,0,1","0,1,0.5,0,1,0.5,1,0.5,0","3","",""
"","html-keyboard-response","33","33519","0.0-33.0","3WYP994K18D3PXZB8CV8QLTMS45Y6I","A34U4186EW0B9X","3PIOQ99R7Y8STPN46QFY0SD7JTFNU0","","null","<img src=""img/food1.png"" style=""width:200px; border:14px solid green;"">","null","","","","","","","","","",""
"","image-keyboard-response","34","33941","0.0-34.0","3WYP994K18D3PXZB8CV8QLTMS45Y6I","A34U4186EW0B9X","3PIOQ99R7Y8STPN46QFY0SD7JTFNU0","","421.7999999523163","img/food3.png","75","422.09999990463257","2","0","3","1","1,0.5,0,1,0.5,0,0.5,0,1","0,1,0.5,0,1,0.5,1,0.5,0","3","",""
"","html-keyboard-response","35","34241","0.0-35.0","3WYP994K18D3PXZB8CV8QLTMS45Y6I","A34U4186EW0B9X","3PIOQ99R7Y8STPN46QFY0SD7JTFNU0","","null","<img src=""img/food3.png"" style=""width:200px;border:14px solid red;"">","null","","","","","","","","","",""
"","image-keyboard-response","36","34588","0.0-36.0","3WYP994K18D3PXZB8CV8QLTMS45Y6I","A34U4186EW0B9X","3PIOQ99R7Y8STPN46QFY0SD7JTFNU0","","345.7999999523163","img/food1.png","75","346.2999999523163","2","1","2","1","1,0.5,0,1,0.5,0,0.5,0,1","0,1,0.5,0,1,0.5,1,0.5,0","3","",""
"","html-keyboard-response","37","34889","0.0-37.0","3WYP994K18D3PXZB8CV8QLTMS45Y6I","A34U4186EW0B9X","3PIOQ99R7Y8STPN46QFY0SD7JTFNU0","","null","<img src=""img/food1.png"" style=""width:200px; border:14px solid green;"">","null","","","","","","","","","",""
"","image-keyboard-response","38","35128","0.0-38.0","3WYP994K18D3PXZB8CV8QLTMS45Y6I","A34U4186EW0B9X","3PIOQ99R7Y8STPN46QFY0SD7JTFNU0","","238.40000009536743","img/food1.png","75","238.70000004768372","2","1","2","1","1,0.5,0,1,0.5,0,0.5,0,1","0,1,0.5,0,1,0.5,1,0.5,0","3","",""
"","html-keyboard-response","39","35429","0.0-39.0","3WYP994K18D3PXZB8CV8QLTMS45Y6I","A34U4186EW0B9X","3PIOQ99R7Y8STPN46QFY0SD7JTFNU0","","null","<img src=""img/food1.png"" style=""width:200px; border:14px solid green;"">","null","","","","","","","","","",""
"","image-keyboard-response","40","35683","0.0-40.0","3WYP994K18D3PXZB8CV8QLTMS45Y6I","A34U4186EW0B9X","3PIOQ99R7Y8STPN46QFY0SD7JTFNU0","","254.10000014305115","img/food5.png","75","254.59999990463257","2","1","1","1","1,0.5,0,1,0.5,0,0.5,0,1","0,1,0.5,0,1,0.5,1,0.5,0","3","",""
"","html-keyboard-response","41","35984","0.0-41.0","3WYP994K18D3PXZB8CV8QLTMS45Y6I","A34U4186EW0B9X","3PIOQ99R7Y8STPN46QFY0SD7JTFNU0","","null","<img src=""img/food5.png"" style=""width:200px; border:14px solid green;"">","null","","","","","","","","","",""
"","image-keyboard-response","42","36175","0.0-42.0","3WYP994K18D3PXZB8CV8QLTMS45Y6I","A34U4186EW0B9X","3PIOQ99R7Y8STPN46QFY0SD7JTFNU0","","190.30000019073486","img/food5.png","75","190.60000014305115","2","1","1","1","1,0.5,0,1,0.5,0,0.5,0,1","0,1,0.5,0,1,0.5,1,0.5,0","3","",""
"","html-keyboard-response","43","36476","0.0-43.0","3WYP994K18D3PXZB8CV8QLTMS45Y6I","A34U4186EW0B9X","3PIOQ99R7Y8STPN46QFY0SD7JTFNU0","","null","<img src=""img/food5.png"" style=""width:200px; border:14px solid green;"">","null","","","","","","","","","",""
"","image-keyboard-response","44","36649","0.0-44.0","3WYP994K18D3PXZB8CV8QLTMS45Y6I","A34U4186EW0B9X","3PIOQ99R7Y8STPN46QFY0SD7JTFNU0","","172.59999990463257","img/food1.png","75","173","2","1","2","1","1,0.5,0,1,0.5,0,0.5,0,1","0,1,0.5,0,1,0.5,1,0.5,0","3","",""
"","html-keyboard-response","45","36951","0.0-45.0","3WYP994K18D3PXZB8CV8QLTMS45Y6I","A34U4186EW0B9X","3PIOQ99R7Y8STPN46QFY0SD7JTFNU0","","null","<img src=""img/food1.png"" style=""width:200px; border:14px solid green;"">","null","","","","","","","","","",""
"","image-keyboard-response","46","37087","0.0-46.0","3WYP994K18D3PXZB8CV8QLTMS45Y6I","A34U4186EW0B9X","3PIOQ99R7Y8STPN46QFY0SD7JTFNU0","","136","img/food5.png","75","136.40000009536743","2","1","1","1","1,0.5,0,1,0.5,0,0.5,0,1","0,1,0.5,0,1,0.5,1,0.5,0","3","",""
"","html-keyboard-response","47","37388","0.0-47.0","3WYP994K18D3PXZB8CV8QLTMS45Y6I","A34U4186EW0B9X","3PIOQ99R7Y8STPN46QFY0SD7JTFNU0","","null","<img src=""img/food5.png"" style=""width:200px; border:14px solid green;"">","null","","","","","","","","","",""
"","image-keyboard-response","48","37459","0.0-48.0","3WYP994K18D3PXZB8CV8QLTMS45Y6I","A34U4186EW0B9X","3PIOQ99R7Y8STPN46QFY0SD7JTFNU0","","70.5","img/food3.png","75","70.90000009536743","2","0","3","1","1,0.5,0,1,0.5,0,0.5,0,1","0,1,0.5,0,1,0.5,1,0.5,0","3","",""
"","html-keyboard-response","49","37761","0.0-49.0","3WYP994K18D3PXZB8CV8QLTMS45Y6I","A34U4186EW0B9X","3PIOQ99R7Y8STPN46QFY0SD7JTFNU0","","null","<img src=""img/food3.png"" style=""width:200px;border:14px solid red;"">","null","","","","","","","","","",""
"","image-keyboard-response","50","37944","0.0-50.0","3WYP994K18D3PXZB8CV8QLTMS45Y6I","A34U4186EW0B9X","3PIOQ99R7Y8STPN46QFY0SD7JTFNU0","","183","img/food5.png","75","183.5","2","1","1","1","1,0.5,0,1,0.5,0,0.5,0,1","0,1,0.5,0,1,0.5,1,0.5,0","3","",""
"","html-keyboard-response","51","38246","0.0-51.0","3WYP994K18D3PXZB8CV8QLTMS45Y6I","A34U4186EW0B9X","3PIOQ99R7Y8STPN46QFY0SD7JTFNU0","","null","<img src=""img/food5.png"" style=""width:200px; border:14px solid green;"">","null","","","","","","","","","",""
"","image-keyboard-response","52","38377","0.0-52.0","3WYP994K18D3PXZB8CV8QLTMS45Y6I","A34U4186EW0B9X","3PIOQ99R7Y8STPN46QFY0SD7JTFNU0","","131.20000004768372","img/food5.png","75","131.70000004768372","2","1","1","1","1,0.5,0,1,0.5,0,0.5,0,1","0,1,0.5,0,1,0.5,1,0.5,0","3","",""
"","html-keyboard-response","53","38678","0.0-53.0","3WYP994K18D3PXZB8CV8QLTMS45Y6I","A34U4186EW0B9X","3PIOQ99R7Y8STPN46QFY0SD7JTFNU0","","null","<img src=""img/food5.png"" style=""width:200px; border:14px solid green;"">","null","","","","","","","","","",""
"","image-keyboard-response","54","38741","0.0-54.0","3WYP994K18D3PXZB8CV8QLTMS45Y6I","A34U4186EW0B9X","3PIOQ99R7Y8STPN46QFY0SD7JTFNU0","","62.5","img/food3.png","75","63","2","1","3","1","1,0.5,0,1,0.5,0,0.5,0,1","0,1,0.5,0,1,0.5,1,0.5,0","3","",""
"","html-keyboard-response","55","39043","0.0-55.0","3WYP994K18D3PXZB8CV8QLTMS45Y6I","A34U4186EW0B9X","3PIOQ99R7Y8STPN46QFY0SD7JTFNU0","","null","<img src=""img/food3.png"" style=""width:200px; border:14px solid green;"">","null","","","","","","","","","",""
"","image-keyboard-response","56","39198","0.0-56.0","3WYP994K18D3PXZB8CV8QLTMS45Y6I","A34U4186EW0B9X","3PIOQ99R7Y8STPN46QFY0SD7JTFNU0","","155.19999980926514","img/food5.png","75","155.70000004768372","2","1","1","1","1,0.5,0,1,0.5,0,0.5,0,1","0,1,0.5,0,1,0.5,1,0.5,0","3","",""
"","html-keyboard-response","57","39499","0.0-57.0","3WYP994K18D3PXZB8CV8QLTMS45Y6I","A34U4186EW0B9X","3PIOQ99R7Y8STPN46QFY0SD7JTFNU0","","null","<img src=""img/food5.png"" style=""width:200px; border:14px solid green;"">","null","","","","","","","","","",""
"","image-keyboard-response","58","39661","0.0-58.0","3WYP994K18D3PXZB8CV8QLTMS45Y6I","A34U4186EW0B9X","3PIOQ99R7Y8STPN46QFY0SD7JTFNU0","","161.5","img/food5.png","75","162","2","1","1","1","1,0.5,0,1,0.5,0,0.5,0,1","0,1,0.5,0,1,0.5,1,0.5,0","3","",""
"","html-keyboard-response","59","39963","0.0-59.0","3WYP994K18D3PXZB8CV8QLTMS45Y6I","A34U4186EW0B9X","3PIOQ99R7Y8STPN46QFY0SD7JTFNU0","","null","<img src=""img/food5.png"" style=""width:200px; border:14px solid green;"">","null","","","","","","","","","",""
"","image-keyboard-response","60","40051","0.0-60.0","3WYP994K18D3PXZB8CV8QLTMS45Y6I","A34U4186EW0B9X","3PIOQ99R7Y8STPN46QFY0SD7JTFNU0","","87","img/food3.png","75","87.40000009536743","2","0","3","1","1,0.5,0,1,0.5,0,0.5,0,1","0,1,0.5,0,1,0.5,1,0.5,0","3","",""
"","html-keyboard-response","61","40352","0.0-61.0","3WYP994K18D3PXZB8CV8QLTMS45Y6I","A34U4186EW0B9X","3PIOQ99R7Y8STPN46QFY0SD7JTFNU0","","null","<img src=""img/food3.png"" style=""width:200px;border:14px solid red;"">","null","","","","","","","","","",""
"","image-keyboard-response","62","40507","0.0-62.0","3WYP994K18D3PXZB8CV8QLTMS45Y6I","A34U4186EW0B9X","3PIOQ99R7Y8STPN46QFY0SD7JTFNU0","","154.59999990463257","img/food1.png","75","154.90000009536743","2","1","2","1","1,0.5,0,1,0.5,0,0.5,0,1","0,1,0.5,0,1,0.5,1,0.5,0","3","",""
"","html-keyboard-response","63","40808","0.0-63.0","3WYP994K18D3PXZB8CV8QLTMS45Y6I","A34U4186EW0B9X","3PIOQ99R7Y8STPN46QFY0SD7JTFNU0","","null","<img src=""img/food1.png"" style=""width:200px; border:14px solid green;"">","null","","","","","","","","","",""
"","image-keyboard-response","64","40979","0.0-64.0","3WYP994K18D3PXZB8CV8QLTMS45Y6I","A34U4186EW0B9X","3PIOQ99R7Y8STPN46QFY0SD7JTFNU0","","170.10000014305115","img/food3.png","75","170.5","2","1","3","1","1,0.5,0,1,0.5,0,0.5,0,1","0,1,0.5,0,1,0.5,1,0.5,0","3","",""
"","html-keyboard-response","65","41280","0.0-65.0","3WYP994K18D3PXZB8CV8QLTMS45Y6I","A34U4186EW0B9X","3PIOQ99R7Y8STPN46QFY0SD7JTFNU0","","null","<img src=""img/food3.png"" style=""width:200px; border:14px solid green;"">","null","","","","","","","","","",""
"","image-keyboard-response","66","41405","0.0-66.0","3WYP994K18D3PXZB8CV8QLTMS45Y6I","A34U4186EW0B9X","3PIOQ99R7Y8STPN46QFY0SD7JTFNU0","","124.60000014305115","img/food3.png","75","124.90000009536743","2","1","3","1","1,0.5,0,1,0.5,0,0.5,0,1","0,1,0.5,0,1,0.5,1,0.5,0","3","",""
"","html-keyboard-response","67","41705","0.0-67.0","3WYP994K18D3PXZB8CV8QLTMS45Y6I","A34U4186EW0B9X","3PIOQ99R7Y8STPN46QFY0SD7JTFNU0","","null","<img src=""img/food3.png"" style=""width:200px; border:14px solid green;"">","null","","","","","","","","","",""
"","image-keyboard-response","68","41874","0.0-68.0","3WYP994K18D3PXZB8CV8QLTMS45Y6I","A34U4186EW0B9X","3PIOQ99R7Y8STPN46QFY0SD7JTFNU0","","168","img/food1.png","75","168.39999985694885","2","1","2","1","1,0.5,0,1,0.5,0,0.5,0,1","0,1,0.5,0,1,0.5,1,0.5,0","3","",""
"","html-keyboard-response","69","42175","0.0-69.0","3WYP994K18D3PXZB8CV8QLTMS45Y6I","A34U4186EW0B9X","3PIOQ99R7Y8STPN46QFY0SD7JTFNU0","","null","<img src=""img/food1.png"" style=""width:200px; border:14px solid green;"">","null","","","","","","","","","",""
"","image-keyboard-response","70","42236","0.0-70.0","3WYP994K18D3PXZB8CV8QLTMS45Y6I","A34U4186EW0B9X","3PIOQ99R7Y8STPN46QFY0SD7JTFNU0","","60.200000047683716","img/food3.png","75","60.69999980926514","2","0","3","1","1,0.5,0,1,0.5,0,0.5,0,1","0,1,0.5,0,1,0.5,1,0.5,0","3","",""
"","html-keyboard-response","71","42536","0.0-71.0","3WYP994K18D3PXZB8CV8QLTMS45Y6I","A34U4186EW0B9X","3PIOQ99R7Y8STPN46QFY0SD7JTFNU0","","null","<img src=""img/food3.png"" style=""width:200px;border:14px solid red;"">","null","","","","","","","","","",""
"","image-keyboard-response","72","42604","0.0-72.0","3WYP994K18D3PXZB8CV8QLTMS45Y6I","A34U4186EW0B9X","3PIOQ99R7Y8STPN46QFY0SD7JTFNU0","","66.90000009536743","img/food1.png","75","67.19999980926514","2","1","2","1","1,0.5,0,1,0.5,0,0.5,0,1","0,1,0.5,0,1,0.5,1,0.5,0","3","",""
"","html-keyboard-response","73","42905","0.0-73.0","3WYP994K18D3PXZB8CV8QLTMS45Y6I","A34U4186EW0B9X","3PIOQ99R7Y8STPN46QFY0SD7JTFNU0","","null","<img src=""img/food1.png"" style=""width:200px; border:14px solid green;"">","null","","","","","","","","","",""
"","image-keyboard-response","74","42966","0.0-74.0","3WYP994K18D3PXZB8CV8QLTMS45Y6I","A34U4186EW0B9X","3PIOQ99R7Y8STPN46QFY0SD7JTFNU0","","60.40000009536743","img/food1.png","75","60.59999990463257","2","1","2","1","1,0.5,0,1,0.5,0,0.5,0,1","0,1,0.5,0,1,0.5,1,0.5,0","3","",""
"","html-keyboard-response","75","43266","0.0-75.0","3WYP994K18D3PXZB8CV8QLTMS45Y6I","A34U4186EW0B9X","3PIOQ99R7Y8STPN46QFY0SD7JTFNU0","","null","<img src=""img/food1.png"" style=""width:200px; border:14px solid green;"">","null","","","","","","","","","",""
"","image-keyboard-response","76","43316","0.0-76.0","3WYP994K18D3PXZB8CV8QLTMS45Y6I","A34U4186EW0B9X","3PIOQ99R7Y8STPN46QFY0SD7JTFNU0","","49","img/food1.png","75","49.5","2","1","2","1","1,0.5,0,1,0.5,0,0.5,0,1","0,1,0.5,0,1,0.5,1,0.5,0","3","",""
"","html-keyboard-response","77","43617","0.0-77.0","3WYP994K18D3PXZB8CV8QLTMS45Y6I","A34U4186EW0B9X","3PIOQ99R7Y8STPN46QFY0SD7JTFNU0","","null","<img src=""img/food1.png"" style=""width:200px; border:14px solid green;"">","null","","","","","","","","","",""
"","image-keyboard-response","78","43668","0.0-78.0","3WYP994K18D3PXZB8CV8QLTMS45Y6I","A34U4186EW0B9X","3PIOQ99R7Y8STPN46QFY0SD7JTFNU0","","50.59999990463257","img/food5.png","75","50.90000009536743","2","1","1","1","1,0.5,0,1,0.5,0,0.5,0,1","0,1,0.5,0,1,0.5,1,0.5,0","3","",""
"","html-keyboard-response","79","43972","0.0-79.0","3WYP994K18D3PXZB8CV8QLTMS45Y6I","A34U4186EW0B9X","3PIOQ99R7Y8STPN46QFY0SD7JTFNU0","","null","<img src=""img/food5.png"" style=""width:200px; border:14px solid green;"">","null","","","","","","","","","",""
"","image-keyboard-response","80","44013","0.0-80.0","3WYP994K18D3PXZB8CV8QLTMS45Y6I","A34U4186EW0B9X","3PIOQ99R7Y8STPN46QFY0SD7JTFNU0","","40.09999990463257","img/food3.png","75","40.59999990463257","2","1","3","1","1,0.5,0,1,0.5,0,0.5,0,1","0,1,0.5,0,1,0.5,1,0.5,0","3","",""
"","html-keyboard-response","81","44314","0.0-81.0","3WYP994K18D3PXZB8CV8QLTMS45Y6I","A34U4186EW0B9X","3PIOQ99R7Y8STPN46QFY0SD7JTFNU0","","null","<img src=""img/food3.png"" style=""width:200px; border:14px solid green;"">","null","","","","","","","","","",""
"","image-keyboard-response","82","44345","0.0-82.0","3WYP994K18D3PXZB8CV8QLTMS45Y6I","A34U4186EW0B9X","3PIOQ99R7Y8STPN46QFY0SD7JTFNU0","","30.799999952316284","img/food1.png","75","31.40000009536743","2","1","2","1","1,0.5,0,1,0.5,0,0.5,0,1","0,1,0.5,0,1,0.5,1,0.5,0","3","",""
"","html-keyboard-response","83","44646","0.0-83.0","3WYP994K18D3PXZB8CV8QLTMS45Y6I","A34U4186EW0B9X","3PIOQ99R7Y8STPN46QFY0SD7JTFNU0","","null","<img src=""img/food1.png"" style=""width:200px; border:14px solid green;"">","null","","","","","","","","","",""
"","image-keyboard-response","84","44677","0.0-84.0","3WYP994K18D3PXZB8CV8QLTMS45Y6I","A34U4186EW0B9X","3PIOQ99R7Y8STPN46QFY0SD7JTFNU0","","30.40000009536743","img/food3.png","75","30.799999952316284","2","0","3","1","1,0.5,0,1,0.5,0,0.5,0,1","0,1,0.5,0,1,0.5,1,0.5,0","3","",""
"","html-keyboard-response","85","44978","0.0-85.0","3WYP994K18D3PXZB8CV8QLTMS45Y6I","A34U4186EW0B9X","3PIOQ99R7Y8STPN46QFY0SD7JTFNU0","","null","<img src=""img/food3.png"" style=""width:200px;border:14px solid red;"">","null","","","","","","","","","",""
"","image-keyboard-response","86","45276","0.0-86.0","3WYP994K18D3PXZB8CV8QLTMS45Y6I","A34U4186EW0B9X","3PIOQ99R7Y8STPN46QFY0SD7JTFNU0","","297.09999990463257","img/food1.png","75","297.59999990463257","2","1","2","1","1,0.5,0,1,0.5,0,0.5,0,1","0,1,0.5,0,1,0.5,1,0.5,0","3","",""
"","html-keyboard-response","87","45577","0.0-87.0","3WYP994K18D3PXZB8CV8QLTMS45Y6I","A34U4186EW0B9X","3PIOQ99R7Y8STPN46QFY0SD7JTFNU0","","null","<img src=""img/food1.png"" style=""width:200px; border:14px solid green;"">","null","","","","","","","","","",""
"","image-keyboard-response","88","45698","0.0-88.0","3WYP994K18D3PXZB8CV8QLTMS45Y6I","A34U4186EW0B9X","3PIOQ99R7Y8STPN46QFY0SD7JTFNU0","","120.29999995231628","img/food3.png","75","120.79999995231628","2","0","3","1","1,0.5,0,1,0.5,0,0.5,0,1","0,1,0.5,0,1,0.5,1,0.5,0","3","",""
"","html-keyboard-response","89","45999","0.0-89.0","3WYP994K18D3PXZB8CV8QLTMS45Y6I","A34U4186EW0B9X","3PIOQ99R7Y8STPN46QFY0SD7JTFNU0","","null","<img src=""img/food3.png"" style=""width:200px;border:14px solid red;"">","null","","","","","","","","","",""
"","image-keyboard-response","90","46027","0.0-90.0","3WYP994K18D3PXZB8CV8QLTMS45Y6I","A34U4186EW0B9X","3PIOQ99R7Y8STPN46QFY0SD7JTFNU0","","27.800000190734863","img/food5.png","75","28.200000047683716","2","1","1","1","1,0.5,0,1,0.5,0,0.5,0,1","0,1,0.5,0,1,0.5,1,0.5,0","3","",""
"","html-keyboard-response","91","46328","0.0-91.0","3WYP994K18D3PXZB8CV8QLTMS45Y6I","A34U4186EW0B9X","3PIOQ99R7Y8STPN46QFY0SD7JTFNU0","","null","<img src=""img/food5.png"" style=""width:200px; border:14px solid green;"">","null","","","","","","","","","",""
"","image-keyboard-response","92","46480","0.0-92.0","3WYP994K18D3PXZB8CV8QLTMS45Y6I","A34U4186EW0B9X","3PIOQ99R7Y8STPN46QFY0SD7JTFNU0","","151.20000004768372","img/food1.png","75","151.79999995231628","2","1","2","1","1,0.5,0,1,0.5,0,0.5,0,1","0,1,0.5,0,1,0.5,1,0.5,0","3","",""
"","html-keyboard-response","93","46781","0.0-93.0","3WYP994K18D3PXZB8CV8QLTMS45Y6I","A34U4186EW0B9X","3PIOQ99R7Y8STPN46QFY0SD7JTFNU0","","null","<img src=""img/food1.png"" style=""width:200px; border:14px solid green;"">","null","","","","","","","","","",""
"","image-keyboard-response","94","46792","0.0-94.0","3WYP994K18D3PXZB8CV8QLTMS45Y6I","A34U4186EW0B9X","3PIOQ99R7Y8STPN46QFY0SD7JTFNU0","","10.800000190734863","img/food5.png","75","11.099999904632568","2","1","1","1","1,0.5,0,1,0.5,0,0.5,0,1","0,1,0.5,0,1,0.5,1,0.5,0","3","",""
"","html-keyboard-response","95","47093","0.0-95.0","3WYP994K18D3PXZB8CV8QLTMS45Y6I","A34U4186EW0B9X","3PIOQ99R7Y8STPN46QFY0SD7JTFNU0","","null","<img src=""img/food5.png"" style=""width:200px; border:14px solid green;"">","null","","","","","","","","","",""
"","image-keyboard-response","96","47421","0.0-96.0","3WYP994K18D3PXZB8CV8QLTMS45Y6I","A34U4186EW0B9X","3PIOQ99R7Y8STPN46QFY0SD7JTFNU0","","327.5","img/food1.png","75","327.90000009536743","2","1","2","1","1,0.5,0,1,0.5,0,0.5,0,1","0,1,0.5,0,1,0.5,1,0.5,0","3","",""
"","html-keyboard-response","97","47722","0.0-97.0","3WYP994K18D3PXZB8CV8QLTMS45Y6I","A34U4186EW0B9X","3PIOQ99R7Y8STPN46QFY0SD7JTFNU0","","null","<img src=""img/food1.png"" style=""width:200px; border:14px solid green;"">","null","","","","","","","","","",""
"","image-keyboard-response","98","47891","0.0-98.0","3WYP994K18D3PXZB8CV8QLTMS45Y6I","A34U4186EW0B9X","3PIOQ99R7Y8STPN46QFY0SD7JTFNU0","","168.39999985694885","img/food3.png","75","168.79999995231628","2","0","3","1","1,0.5,0,1,0.5,0,0.5,0,1","0,1,0.5,0,1,0.5,1,0.5,0","3","",""
"","html-keyboard-response","99","48192","0.0-99.0","3WYP994K18D3PXZB8CV8QLTMS45Y6I","A34U4186EW0B9X","3PIOQ99R7Y8STPN46QFY0SD7JTFNU0","","null","<img src=""img/food3.png"" style=""width:200px;border:14px solid red;"">","null","","","","","","","","","",""
"","image-keyboard-response","100","48456","0.0-100.0","3WYP994K18D3PXZB8CV8QLTMS45Y6I","A34U4186EW0B9X","3PIOQ99R7Y8STPN46QFY0SD7JTFNU0","","264.10000014305115","img/food3.png","75","264.39999985694885","2","1","3","1","1,0.5,0,1,0.5,0,0.5,0,1","0,1,0.5,0,1,0.5,1,0.5,0","3","",""
"","html-keyboard-response","101","48757","0.0-101.0","3WYP994K18D3PXZB8CV8QLTMS45Y6I","A34U4186EW0B9X","3PIOQ99R7Y8STPN46QFY0SD7JTFNU0","","null","<img src=""img/food3.png"" style=""width:200px; border:14px solid green;"">","null","","","","","","","","","",""
"","image-keyboard-response","102","49027","0.0-102.0","3WYP994K18D3PXZB8CV8QLTMS45Y6I","A34U4186EW0B9X","3PIOQ99R7Y8STPN46QFY0SD7JTFNU0","","268.89999985694885","img/food3.png","75","269.2000000476837","2","0","3","1","1,0.5,0,1,0.5,0,0.5,0,1","0,1,0.5,0,1,0.5,1,0.5,0","3","",""
"","html-keyboard-response","103","49327","0.0-103.0","3WYP994K18D3PXZB8CV8QLTMS45Y6I","A34U4186EW0B9X","3PIOQ99R7Y8STPN46QFY0SD7JTFNU0","","null","<img src=""img/food3.png"" style=""width:200px;border:14px solid red;"">","null","","","","","","","","","",""
"","image-keyboard-response","104","49770","0.0-104.0","3WYP994K18D3PXZB8CV8QLTMS45Y6I","A34U4186EW0B9X","3PIOQ99R7Y8STPN46QFY0SD7JTFNU0","","441.7999999523163","img/food3.png","75","442.2999999523163","2","1","3","1","1,0.5,0,1,0.5,0,0.5,0,1","0,1,0.5,0,1,0.5,1,0.5,0","3","",""
"","html-keyboard-response","105","50078","0.0-105.0","3WYP994K18D3PXZB8CV8QLTMS45Y6I","A34U4186EW0B9X","3PIOQ99R7Y8STPN46QFY0SD7JTFNU0","","null","<img src=""img/food3.png"" style=""width:200px; border:14px solid green;"">","null","","","","","","","","","",""
"","image-keyboard-response","106","50219","0.0-106.0","3WYP994K18D3PXZB8CV8QLTMS45Y6I","A34U4186EW0B9X","3PIOQ99R7Y8STPN46QFY0SD7JTFNU0","","140.70000004768372","img/food3.png","75","141.09999990463257","2","1","3","1","1,0.5,0,1,0.5,0,0.5,0,1","0,1,0.5,0,1,0.5,1,0.5,0","3","",""
"","html-keyboard-response","107","50520","0.0-107.0","3WYP994K18D3PXZB8CV8QLTMS45Y6I","A34U4186EW0B9X","3PIOQ99R7Y8STPN46QFY0SD7JTFNU0","","null","<img src=""img/food3.png"" style=""width:200px; border:14px solid green;"">","null","","","","","","","","","",""
"","image-keyboard-response","108","51077","0.0-108.0","3WYP994K18D3PXZB8CV8QLTMS45Y6I","A34U4186EW0B9X","3PIOQ99R7Y8STPN46QFY0SD7JTFNU0","","556.2000000476837","img/food5.png","75","556.5","2","1","1","1","1,0.5,0,1,0.5,0,0.5,0,1","0,1,0.5,0,1,0.5,1,0.5,0","3","",""
"","html-keyboard-response","109","51377","0.0-109.0","3WYP994K18D3PXZB8CV8QLTMS45Y6I","A34U4186EW0B9X","3PIOQ99R7Y8STPN46QFY0SD7JTFNU0","","null","<img src=""img/food5.png"" style=""width:200px; border:14px solid green;"">","null","","","","","","","","","",""
"","image-keyboard-response","110","51470","0.0-110.0","3WYP994K18D3PXZB8CV8QLTMS45Y6I","A34U4186EW0B9X","3PIOQ99R7Y8STPN46QFY0SD7JTFNU0","","92.10000014305115","img/food5.png","75","92.5","2","1","1","1","1,0.5,0,1,0.5,0,0.5,0,1","0,1,0.5,0,1,0.5,1,0.5,0","3","",""
"","html-keyboard-response","111","51771","0.0-111.0","3WYP994K18D3PXZB8CV8QLTMS45Y6I","A34U4186EW0B9X","3PIOQ99R7Y8STPN46QFY0SD7JTFNU0","","null","<img src=""img/food5.png"" style=""width:200px; border:14px solid green;"">","null","","","","","","","","","",""
"","image-keyboard-response","112","52315","0.0-112.0","3WYP994K18D3PXZB8CV8QLTMS45Y6I","A34U4186EW0B9X","3PIOQ99R7Y8STPN46QFY0SD7JTFNU0","","543.8000001907349","img/food3.png","75","544.2999999523163","2","1","3","1","1,0.5,0,1,0.5,0,0.5,0,1","0,1,0.5,0,1,0.5,1,0.5,0","3","",""
"","html-keyboard-response","113","52617","0.0-113.0","3WYP994K18D3PXZB8CV8QLTMS45Y6I","A34U4186EW0B9X","3PIOQ99R7Y8STPN46QFY0SD7JTFNU0","","null","<img src=""img/food3.png"" style=""width:200px; border:14px solid green;"">","null","","","","","","","","","",""
"","image-keyboard-response","114","52702","0.0-114.0","3WYP994K18D3PXZB8CV8QLTMS45Y6I","A34U4186EW0B9X","3PIOQ99R7Y8STPN46QFY0SD7JTFNU0","","84.5","img/food3.png","75","84.79999995231628","2","1","3","1","1,0.5,0,1,0.5,0,0.5,0,1","0,1,0.5,0,1,0.5,1,0.5,0","3","",""
"","html-keyboard-response","115","53002","0.0-115.0","3WYP994K18D3PXZB8CV8QLTMS45Y6I","A34U4186EW0B9X","3PIOQ99R7Y8STPN46QFY0SD7JTFNU0","","null","<img src=""img/food3.png"" style=""width:200px; border:14px solid green;"">","null","","","","","","","","","",""
"","image-keyboard-response","116","53120","0.0-116.0","3WYP994K18D3PXZB8CV8QLTMS45Y6I","A34U4186EW0B9X","3PIOQ99R7Y8STPN46QFY0SD7JTFNU0","","117.09999990463257","img/food3.png","75","117.5","2","0","3","1","1,0.5,0,1,0.5,0,0.5,0,1","0,1,0.5,0,1,0.5,1,0.5,0","3","",""
"","html-keyboard-response","117","53421","0.0-117.0","3WYP994K18D3PXZB8CV8QLTMS45Y6I","A34U4186EW0B9X","3PIOQ99R7Y8STPN46QFY0SD7JTFNU0","","null","<img src=""img/food3.png"" style=""width:200px;border:14px solid red;"">","null","","","","","","","","","",""
"","image-keyboard-response","118","53433","0.0-118.0","3WYP994K18D3PXZB8CV8QLTMS45Y6I","A34U4186EW0B9X","3PIOQ99R7Y8STPN46QFY0SD7JTFNU0","","11.5","img/food5.png","75","11.799999952316284","2","1","1","1","1,0.5,0,1,0.5,0,0.5,0,1","0,1,0.5,0,1,0.5,1,0.5,0","3","",""
"","html-keyboard-response","119","53734","0.0-119.0","3WYP994K18D3PXZB8CV8QLTMS45Y6I","A34U4186EW0B9X","3PIOQ99R7Y8STPN46QFY0SD7JTFNU0","","null","<img src=""img/food5.png"" style=""width:200px; border:14px solid green;"">","null","","","","","","","","","",""
"","image-keyboard-response","120","53839","0.0-120.0","3WYP994K18D3PXZB8CV8QLTMS45Y6I","A34U4186EW0B9X","3PIOQ99R7Y8STPN46QFY0SD7JTFNU0","","104.20000004768372","img/food1.png","75","104.59999990463257","2","1","2","1","1,0.5,0,1,0.5,0,0.5,0,1","0,1,0.5,0,1,0.5,1,0.5,0","3","",""
"","html-keyboard-response","121","54140","0.0-121.0","3WYP994K18D3PXZB8CV8QLTMS45Y6I","A34U4186EW0B9X","3PIOQ99R7Y8STPN46QFY0SD7JTFNU0","","null","<img src=""img/food1.png"" style=""width:200px; border:14px solid green;"">","null","","","","","","","","","",""
"","image-keyboard-response","122","54497","0.0-122.0","3WYP994K18D3PXZB8CV8QLTMS45Y6I","A34U4186EW0B9X","3PIOQ99R7Y8STPN46QFY0SD7JTFNU0","","356.7000000476837","img/food1.png","75","357.09999990463257","2","1","2","1","1,0.5,0,1,0.5,0,0.5,0,1","0,1,0.5,0,1,0.5,1,0.5,0","3","",""
"","html-keyboard-response","123","54798","0.0-123.0","3WYP994K18D3PXZB8CV8QLTMS45Y6I","A34U4186EW0B9X","3PIOQ99R7Y8STPN46QFY0SD7JTFNU0","","null","<img src=""img/food1.png"" style=""width:200px; border:14px solid green;"">","null","","","","","","","","","",""
"","image-keyboard-response","124","54953","0.0-124.0","3WYP994K18D3PXZB8CV8QLTMS45Y6I","A34U4186EW0B9X","3PIOQ99R7Y8STPN46QFY0SD7JTFNU0","","154.90000009536743","img/food5.png","75","155.29999995231628","2","1","1","1","1,0.5,0,1,0.5,0,0.5,0,1","0,1,0.5,0,1,0.5,1,0.5,0","3","",""
"","html-keyboard-response","125","55255","0.0-125.0","3WYP994K18D3PXZB8CV8QLTMS45Y6I","A34U4186EW0B9X","3PIOQ99R7Y8STPN46QFY0SD7JTFNU0","","null","<img src=""img/food5.png"" style=""width:200px; border:14px solid green;"">","null","","","","","","","","","",""
"","image-keyboard-response","126","55328","0.0-126.0","3WYP994K18D3PXZB8CV8QLTMS45Y6I","A34U4186EW0B9X","3PIOQ99R7Y8STPN46QFY0SD7JTFNU0","","73.20000004768372","img/food5.png","75","73.69999980926514","2","1","1","1","1,0.5,0,1,0.5,0,0.5,0,1","0,1,0.5,0,1,0.5,1,0.5,0","3","",""
"","html-keyboard-response","127","55629","0.0-127.0","3WYP994K18D3PXZB8CV8QLTMS45Y6I","A34U4186EW0B9X","3PIOQ99R7Y8STPN46QFY0SD7JTFNU0","","null","<img src=""img/food5.png"" style=""width:200px; border:14px solid green;"">","null","","","","","","","","","",""
"","image-keyboard-response","128","55944","0.0-128.0","3WYP994K18D3PXZB8CV8QLTMS45Y6I","A34U4186EW0B9X","3PIOQ99R7Y8STPN46QFY0SD7JTFNU0","","314.7999999523163","img/food1.png","75","315.2999999523163","2","1","2","1","1,0.5,0,1,0.5,0,0.5,0,1","0,1,0.5,0,1,0.5,1,0.5,0","3","",""
"","html-keyboard-response","129","56248","0.0-129.0","3WYP994K18D3PXZB8CV8QLTMS45Y6I","A34U4186EW0B9X","3PIOQ99R7Y8STPN46QFY0SD7JTFNU0","","null","<img src=""img/food1.png"" style=""width:200px; border:14px solid green;"">","null","","","","","","","","","",""
"","image-keyboard-response","130","56273","0.0-130.0","3WYP994K18D3PXZB8CV8QLTMS45Y6I","A34U4186EW0B9X","3PIOQ99R7Y8STPN46QFY0SD7JTFNU0","","24.90000009536743","img/food5.png","75","25.40000009536743","2","1","1","1","1,0.5,0,1,0.5,0,0.5,0,1","0,1,0.5,0,1,0.5,1,0.5,0","3","",""
"","html-keyboard-response","131","56574","0.0-131.0","3WYP994K18D3PXZB8CV8QLTMS45Y6I","A34U4186EW0B9X","3PIOQ99R7Y8STPN46QFY0SD7JTFNU0","","null","<img src=""img/food5.png"" style=""width:200px; border:14px solid green;"">","null","","","","","","","","","",""
"","image-keyboard-response","132","56597","0.0-132.0","3WYP994K18D3PXZB8CV8QLTMS45Y6I","A34U4186EW0B9X","3PIOQ99R7Y8STPN46QFY0SD7JTFNU0","","22.699999809265137","img/food3.png","75","22.899999856948853","2","0","3","1","1,0.5,0,1,0.5,0,0.5,0,1","0,1,0.5,0,1,0.5,1,0.5,0","3","",""
"","html-keyboard-response","133","56899","0.0-133.0","3WYP994K18D3PXZB8CV8QLTMS45Y6I","A34U4186EW0B9X","3PIOQ99R7Y8STPN46QFY0SD7JTFNU0","","null","<img src=""img/food3.png"" style=""width:200px;border:14px solid red;"">","null","","","","","","","","","",""
"","image-keyboard-response","134","57002","0.0-134.0","3WYP994K18D3PXZB8CV8QLTMS45Y6I","A34U4186EW0B9X","3PIOQ99R7Y8STPN46QFY0SD7JTFNU0","","103.29999995231628","img/food1.png","75","103.70000004768372","2","1","2","1","1,0.5,0,1,0.5,0,0.5,0,1","0,1,0.5,0,1,0.5,1,0.5,0","3","",""
"","html-keyboard-response","135","57304","0.0-135.0","3WYP994K18D3PXZB8CV8QLTMS45Y6I","A34U4186EW0B9X","3PIOQ99R7Y8STPN46QFY0SD7JTFNU0","","null","<img src=""img/food1.png"" style=""width:200px; border:14px solid green;"">","null","","","","","","","","","",""
"","image-keyboard-response","136","57430","0.0-136.0","3WYP994K18D3PXZB8CV8QLTMS45Y6I","A34U4186EW0B9X","3PIOQ99R7Y8STPN46QFY0SD7JTFNU0","","124.79999995231628","img/food1.png","75","125.09999990463257","2","1","2","1","1,0.5,0,1,0.5,0,0.5,0,1","0,1,0.5,0,1,0.5,1,0.5,0","3","",""
"","html-keyboard-response","137","57731","0.0-137.0","3WYP994K18D3PXZB8CV8QLTMS45Y6I","A34U4186EW0B9X","3PIOQ99R7Y8STPN46QFY0SD7JTFNU0","","null","<img src=""img/food1.png"" style=""width:200px; border:14px solid green;"">","null","","","","","","","","","",""
"","image-keyboard-response","138","57920","0.0-138.0","3WYP994K18D3PXZB8CV8QLTMS45Y6I","A34U4186EW0B9X","3PIOQ99R7Y8STPN46QFY0SD7JTFNU0","","188.29999995231628","img/food1.png","75","188.80000019073486","2","1","2","1","1,0.5,0,1,0.5,0,0.5,0,1","0,1,0.5,0,1,0.5,1,0.5,0","3","",""
"","html-keyboard-response","139","58234","0.0-139.0","3WYP994K18D3PXZB8CV8QLTMS45Y6I","A34U4186EW0B9X","3PIOQ99R7Y8STPN46QFY0SD7JTFNU0","","null","<img src=""img/food1.png"" style=""width:200px; border:14px solid green;"">","null","","","","","","","","","",""
"","image-keyboard-response","140","58403","0.0-140.0","3WYP994K18D3PXZB8CV8QLTMS45Y6I","A34U4186EW0B9X","3PIOQ99R7Y8STPN46QFY0SD7JTFNU0","","168.70000004768372","img/food3.png","75","169","2","0","3","1","1,0.5,0,1,0.5,0,0.5,0,1","0,1,0.5,0,1,0.5,1,0.5,0","3","",""
"","html-keyboard-response","141","58704","0.0-141.0","3WYP994K18D3PXZB8CV8QLTMS45Y6I","A34U4186EW0B9X","3PIOQ99R7Y8STPN46QFY0SD7JTFNU0","","null","<img src=""img/food3.png"" style=""width:200px;border:14px solid red;"">","null","","","","","","","","","",""
"","image-keyboard-response","142","58774","0.0-142.0","3WYP994K18D3PXZB8CV8QLTMS45Y6I","A34U4186EW0B9X","3PIOQ99R7Y8STPN46QFY0SD7JTFNU0","","69.10000014305115","img/food5.png","75","69.59999990463257","2","1","1","1","1,0.5,0,1,0.5,0,0.5,0,1","0,1,0.5,0,1,0.5,1,0.5,0","3","",""
"","html-keyboard-response","143","59075","0.0-143.0","3WYP994K18D3PXZB8CV8QLTMS45Y6I","A34U4186EW0B9X","3PIOQ99R7Y8STPN46QFY0SD7JTFNU0","","null","<img src=""img/food5.png"" style=""width:200px; border:14px solid green;"">","null","","","","","","","","","",""
"","image-keyboard-response","144","59292","0.0-144.0","3WYP994K18D3PXZB8CV8QLTMS45Y6I","A34U4186EW0B9X","3PIOQ99R7Y8STPN46QFY0SD7JTFNU0","","216.70000004768372","img/food1.png","75","217.09999990463257","2","1","2","1","1,0.5,0,1,0.5,0,0.5,0,1","0,1,0.5,0,1,0.5,1,0.5,0","3","",""
"","html-keyboard-response","145","59594","0.0-145.0","3WYP994K18D3PXZB8CV8QLTMS45Y6I","A34U4186EW0B9X","3PIOQ99R7Y8STPN46QFY0SD7JTFNU0","","null","<img src=""img/food1.png"" style=""width:200px; border:14px solid green;"">","null","","","","","","","","","",""
"","image-keyboard-response","146","60000","0.0-146.0","3WYP994K18D3PXZB8CV8QLTMS45Y6I","A34U4186EW0B9X","3PIOQ99R7Y8STPN46QFY0SD7JTFNU0","","406.2999999523163","img/food5.png","75","406.7999999523163","2","1","1","1","1,0.5,0,1,0.5,0,0.5,0,1","0,1,0.5,0,1,0.5,1,0.5,0","3","",""
"","html-keyboard-response","147","60301","0.0-147.0","3WYP994K18D3PXZB8CV8QLTMS45Y6I","A34U4186EW0B9X","3PIOQ99R7Y8STPN46QFY0SD7JTFNU0","","null","<img src=""img/food5.png"" style=""width:200px; border:14px solid green;"">","null","","","","","","","","","",""
"","image-keyboard-response","148","60453","0.0-148.0","3WYP994K18D3PXZB8CV8QLTMS45Y6I","A34U4186EW0B9X","3PIOQ99R7Y8STPN46QFY0SD7JTFNU0","","151.39999985694885","img/food5.png","75","151.79999995231628","2","1","1","1","1,0.5,0,1,0.5,0,0.5,0,1","0,1,0.5,0,1,0.5,1,0.5,0","3","",""
"","html-keyboard-response","149","60754","0.0-149.0","3WYP994K18D3PXZB8CV8QLTMS45Y6I","A34U4186EW0B9X","3PIOQ99R7Y8STPN46QFY0SD7JTFNU0","","null","<img src=""img/food5.png"" style=""width:200px; border:14px solid green;"">","null","","","","","","","","","",""
"","image-keyboard-response","150","61027","0.0-150.0","3WYP994K18D3PXZB8CV8QLTMS45Y6I","A34U4186EW0B9X","3PIOQ99R7Y8STPN46QFY0SD7JTFNU0","","272.69999980926514","img/food5.png","75","273.2000000476837","2","1","1","1","1,0.5,0,1,0.5,0,0.5,0,1","0,1,0.5,0,1,0.5,1,0.5,0","3","",""
"","html-keyboard-response","151","61329","0.0-151.0","3WYP994K18D3PXZB8CV8QLTMS45Y6I","A34U4186EW0B9X","3PIOQ99R7Y8STPN46QFY0SD7JTFNU0","","null","<img src=""img/food5.png"" style=""width:200px; border:14px solid green;"">","null","","","","","","","","","",""
"","image-keyboard-response","152","61478","0.0-152.0","3WYP994K18D3PXZB8CV8QLTMS45Y6I","A34U4186EW0B9X","3PIOQ99R7Y8STPN46QFY0SD7JTFNU0","","149.10000014305115","img/food1.png","75","149.70000004768372","2","1","2","1","1,0.5,0,1,0.5,0,0.5,0,1","0,1,0.5,0,1,0.5,1,0.5,0","3","",""
"","html-keyboard-response","153","61779","0.0-153.0","3WYP994K18D3PXZB8CV8QLTMS45Y6I","A34U4186EW0B9X","3PIOQ99R7Y8STPN46QFY0SD7JTFNU0","","null","<img src=""img/food1.png"" style=""width:200px; border:14px solid green;"">","null","","","","","","","","","",""
"","image-keyboard-response","154","62078","0.0-154.0","3WYP994K18D3PXZB8CV8QLTMS45Y6I","A34U4186EW0B9X","3PIOQ99R7Y8STPN46QFY0SD7JTFNU0","","298.60000014305115","img/food3.png","75","299","2","0","3","1","1,0.5,0,1,0.5,0,0.5,0,1","0,1,0.5,0,1,0.5,1,0.5,0","3","",""
"","html-keyboard-response","155","62379","0.0-155.0","3WYP994K18D3PXZB8CV8QLTMS45Y6I","A34U4186EW0B9X","3PIOQ99R7Y8STPN46QFY0SD7JTFNU0","","null","<img src=""img/food3.png"" style=""width:200px;border:14px solid red;"">","null","","","","","","","","","",""
"","image-keyboard-response","156","62386","0.0-156.0","3WYP994K18D3PXZB8CV8QLTMS45Y6I","A34U4186EW0B9X","3PIOQ99R7Y8STPN46QFY0SD7JTFNU0","","6","img/food5.png","75","6.200000047683716","2","1","1","1","1,0.5,0,1,0.5,0,0.5,0,1","0,1,0.5,0,1,0.5,1,0.5,0","3","",""
"","html-keyboard-response","157","62687","0.0-157.0","3WYP994K18D3PXZB8CV8QLTMS45Y6I","A34U4186EW0B9X","3PIOQ99R7Y8STPN46QFY0SD7JTFNU0","","null","<img src=""img/food5.png"" style=""width:200px; border:14px solid green;"">","null","","","","","","","","","",""
"","image-keyboard-response","158","62900","0.0-158.0","3WYP994K18D3PXZB8CV8QLTMS45Y6I","A34U4186EW0B9X","3PIOQ99R7Y8STPN46QFY0SD7JTFNU0","","212.39999985694885","img/food1.png","75","212.80000019073486","2","1","2","1","1,0.5,0,1,0.5,0,0.5,0,1","0,1,0.5,0,1,0.5,1,0.5,0","3","",""
"","html-keyboard-response","159","63200","0.0-159.0","3WYP994K18D3PXZB8CV8QLTMS45Y6I","A34U4186EW0B9X","3PIOQ99R7Y8STPN46QFY0SD7JTFNU0","","null","<img src=""img/food1.png"" style=""width:200px; border:14px solid green;"">","null","","","","","","","","","",""
"","image-keyboard-response","160","63441","0.0-160.0","3WYP994K18D3PXZB8CV8QLTMS45Y6I","A34U4186EW0B9X","3PIOQ99R7Y8STPN46QFY0SD7JTFNU0","","239.80000019073486","img/food3.png","75","240.29999995231628","2","0","3","1","1,0.5,0,1,0.5,0,0.5,0,1","0,1,0.5,0,1,0.5,1,0.5,0","3","",""
"","html-keyboard-response","161","63742","0.0-161.0","3WYP994K18D3PXZB8CV8QLTMS45Y6I","A34U4186EW0B9X","3PIOQ99R7Y8STPN46QFY0SD7JTFNU0","","null","<img src=""img/food3.png"" style=""width:200px;border:14px solid red;"">","null","","","","","","","","","",""
"","image-keyboard-response","162","63779","0.0-162.0","3WYP994K18D3PXZB8CV8QLTMS45Y6I","A34U4186EW0B9X","3PIOQ99R7Y8STPN46QFY0SD7JTFNU0","","36.09999990463257","img/food1.png","75","36.59999990463257","2","1","2","1","1,0.5,0,1,0.5,0,0.5,0,1","0,1,0.5,0,1,0.5,1,0.5,0","3","",""
"","html-keyboard-response","163","64079","0.0-163.0","3WYP994K18D3PXZB8CV8QLTMS45Y6I","A34U4186EW0B9X","3PIOQ99R7Y8STPN46QFY0SD7JTFNU0","","null","<img src=""img/food1.png"" style=""width:200px; border:14px solid green;"">","null","","","","","","","","","",""
"","image-keyboard-response","164","64280","0.0-164.0","3WYP994K18D3PXZB8CV8QLTMS45Y6I","A34U4186EW0B9X","3PIOQ99R7Y8STPN46QFY0SD7JTFNU0","","199.79999995231628","img/food1.png","75","200.10000014305115","2","1","2","1","1,0.5,0,1,0.5,0,0.5,0,1","0,1,0.5,0,1,0.5,1,0.5,0","3","",""
"","html-keyboard-response","165","64581","0.0-165.0","3WYP994K18D3PXZB8CV8QLTMS45Y6I","A34U4186EW0B9X","3PIOQ99R7Y8STPN46QFY0SD7JTFNU0","","null","<img src=""img/food1.png"" style=""width:200px; border:14px solid green;"">","null","","","","","","","","","",""
"","image-keyboard-response","166","64833","0.0-166.0","3WYP994K18D3PXZB8CV8QLTMS45Y6I","A34U4186EW0B9X","3PIOQ99R7Y8STPN46QFY0SD7JTFNU0","","251.09999990463257","img/food1.png","75","251.5","2","1","2","1","1,0.5,0,1,0.5,0,0.5,0,1","0,1,0.5,0,1,0.5,1,0.5,0","3","",""
"","html-keyboard-response","167","65134","0.0-167.0","3WYP994K18D3PXZB8CV8QLTMS45Y6I","A34U4186EW0B9X","3PIOQ99R7Y8STPN46QFY0SD7JTFNU0","","null","<img src=""img/food1.png"" style=""width:200px; border:14px solid green;"">","null","","","","","","","","","",""
"","image-keyboard-response","168","65143","0.0-168.0","3WYP994K18D3PXZB8CV8QLTMS45Y6I","A34U4186EW0B9X","3PIOQ99R7Y8STPN46QFY0SD7JTFNU0","","8.200000047683716","img/food5.png","75","8.5","2","1","1","1","1,0.5,0,1,0.5,0,0.5,0,1","0,1,0.5,0,1,0.5,1,0.5,0","3","",""
"","html-keyboard-response","169","65444","0.0-169.0","3WYP994K18D3PXZB8CV8QLTMS45Y6I","A34U4186EW0B9X","3PIOQ99R7Y8STPN46QFY0SD7JTFNU0","","null","<img src=""img/food5.png"" style=""width:200px; border:14px solid green;"">","null","","","","","","","","","",""
"","image-keyboard-response","170","66084","0.0-170.0","3WYP994K18D3PXZB8CV8QLTMS45Y6I","A34U4186EW0B9X","3PIOQ99R7Y8STPN46QFY0SD7JTFNU0","","639.3999998569489","img/food3.png","75","639.9000000953674","2","1","3","1","1,0.5,0,1,0.5,0,0.5,0,1","0,1,0.5,0,1,0.5,1,0.5,0","3","",""
"","html-keyboard-response","171","66385","0.0-171.0","3WYP994K18D3PXZB8CV8QLTMS45Y6I","A34U4186EW0B9X","3PIOQ99R7Y8STPN46QFY0SD7JTFNU0","","null","<img src=""img/food3.png"" style=""width:200px; border:14px solid green;"">","null","","","","","","","","","",""
"","image-keyboard-response","172","66517","0.0-172.0","3WYP994K18D3PXZB8CV8QLTMS45Y6I","A34U4186EW0B9X","3PIOQ99R7Y8STPN46QFY0SD7JTFNU0","","131.20000004768372","img/food1.png","75","131.79999995231628","2","1","2","1","1,0.5,0,1,0.5,0,0.5,0,1","0,1,0.5,0,1,0.5,1,0.5,0","3","",""
"","html-keyboard-response","173","66818","0.0-173.0","3WYP994K18D3PXZB8CV8QLTMS45Y6I","A34U4186EW0B9X","3PIOQ99R7Y8STPN46QFY0SD7JTFNU0","","null","<img src=""img/food1.png"" style=""width:200px; border:14px solid green;"">","null","","","","","","","","","",""
"","image-keyboard-response","174","67013","0.0-174.0","3WYP994K18D3PXZB8CV8QLTMS45Y6I","A34U4186EW0B9X","3PIOQ99R7Y8STPN46QFY0SD7JTFNU0","","194.59999990463257","img/food3.png","75","194.80000019073486","2","1","3","1","1,0.5,0,1,0.5,0,0.5,0,1","0,1,0.5,0,1,0.5,1,0.5,0","3","",""
"","html-keyboard-response","175","67314","0.0-175.0","3WYP994K18D3PXZB8CV8QLTMS45Y6I","A34U4186EW0B9X","3PIOQ99R7Y8STPN46QFY0SD7JTFNU0","","null","<img src=""img/food3.png"" style=""width:200px; border:14px solid green;"">","null","","","","","","","","","",""
"","image-keyboard-response","176","67325","0.0-176.0","3WYP994K18D3PXZB8CV8QLTMS45Y6I","A34U4186EW0B9X","3PIOQ99R7Y8STPN46QFY0SD7JTFNU0","","11","img/food5.png","75","11.399999856948853","2","1","1","1","1,0.5,0,1,0.5,0,0.5,0,1","0,1,0.5,0,1,0.5,1,0.5,0","3","",""
"","html-keyboard-response","177","67626","0.0-177.0","3WYP994K18D3PXZB8CV8QLTMS45Y6I","A34U4186EW0B9X","3PIOQ99R7Y8STPN46QFY0SD7JTFNU0","","null","<img src=""img/food5.png"" style=""width:200px; border:14px solid green;"">","null","","","","","","","","","",""
"","image-keyboard-response","178","67914","0.0-178.0","3WYP994K18D3PXZB8CV8QLTMS45Y6I","A34U4186EW0B9X","3PIOQ99R7Y8STPN46QFY0SD7JTFNU0","","287.5","img/food3.png","75","288","2","1","3","1","1,0.5,0,1,0.5,0,0.5,0,1","0,1,0.5,0,1,0.5,1,0.5,0","3","",""
"","html-keyboard-response","179","68215","0.0-179.0","3WYP994K18D3PXZB8CV8QLTMS45Y6I","A34U4186EW0B9X","3PIOQ99R7Y8STPN46QFY0SD7JTFNU0","","null","<img src=""img/food3.png"" style=""width:200px; border:14px solid green;"">","null","","","","","","","","","",""
"","image-keyboard-response","180","68495","0.0-180.0","3WYP994K18D3PXZB8CV8QLTMS45Y6I","A34U4186EW0B9X","3PIOQ99R7Y8STPN46QFY0SD7JTFNU0","","279.7999999523163","img/food1.png","75","280.19999980926514","2","1","2","1","1,0.5,0,1,0.5,0,0.5,0,1","0,1,0.5,0,1,0.5,1,0.5,0","3","",""
"","html-keyboard-response","181","68797","0.0-181.0","3WYP994K18D3PXZB8CV8QLTMS45Y6I","A34U4186EW0B9X","3PIOQ99R7Y8STPN46QFY0SD7JTFNU0","","null","<img src=""img/food1.png"" style=""width:200px; border:14px solid green;"">","null","","","","","","","","","",""
"","html-keyboard-response","182","74616","0.0-182.0","3WYP994K18D3PXZB8CV8QLTMS45Y6I","A34U4186EW0B9X","3PIOQ99R7Y8STPN46QFY0SD7JTFNU0","","","","","","","","","","","","","",""
"","instructions","183","93237","0.0-183.0","3WYP994K18D3PXZB8CV8QLTMS45Y6I","A34U4186EW0B9X","3PIOQ99R7Y8STPN46QFY0SD7JTFNU0","[{""page_index"":0,""viewing_time"":17289.599999904633},{""page_index"":1,""viewing_time"":1331}]","18620.799999952316","","","","","","","","","","","",""
"","image-keyboard-response","184","93685","0.0-184.0","3WYP994K18D3PXZB8CV8QLTMS45Y6I","A34U4186EW0B9X","3PIOQ99R7Y8STPN46QFY0SD7JTFNU0","","447.7000000476837","img/food4.png","74","448.2999999523163","1","0","3","2","1,0.5,0,1,0.5,0,0.5,0,1","0.5,0,1,0.5,0,1,0,1,0.5","2","false",""
"","html-keyboard-response","185","93986","0.0-185.0","3WYP994K18D3PXZB8CV8QLTMS45Y6I","A34U4186EW0B9X","3PIOQ99R7Y8STPN46QFY0SD7JTFNU0","","null","<img src=""img/food4.png"" style=""width:200px;border:14px solid red;"">","null","","","","","","","","","",""
"","image-keyboard-response","186","94142","0.0-187.0","3WYP994K18D3PXZB8CV8QLTMS45Y6I","A34U4186EW0B9X","3PIOQ99R7Y8STPN46QFY0SD7JTFNU0","","155.5","img/food6.png","75","155.89999985694885","2","0","2","2","1,0.5,0,1,0.5,0,0.5,0,1","0.5,0,1,0.5,0,1,0,1,0.5","2","false",""
"","html-keyboard-response","187","94444","0.0-188.0","3WYP994K18D3PXZB8CV8QLTMS45Y6I","A34U4186EW0B9X","3PIOQ99R7Y8STPN46QFY0SD7JTFNU0","","null","<img src=""img/food6.png"" style=""width:200px;border:14px solid red;"">","null","","","","","","","","","",""
"","image-keyboard-response","188","94640","0.0-190.0","3WYP994K18D3PXZB8CV8QLTMS45Y6I","A34U4186EW0B9X","3PIOQ99R7Y8STPN46QFY0SD7JTFNU0","","196","img/food6.png","76","196.39999985694885","3","1","2","2","1,0.5,0,1,0.5,0,0.5,0,1","0.5,0,1,0.5,0,1,0,1,0.5","2","false",""
"","html-keyboard-response","189","94941","0.0-191.0","3WYP994K18D3PXZB8CV8QLTMS45Y6I","A34U4186EW0B9X","3PIOQ99R7Y8STPN46QFY0SD7JTFNU0","","null","<img src=""img/food6.png"" style=""width:200px; border:14px solid green;"">","null","","","","","","","","","",""
"","image-keyboard-response","190","95176","0.0-193.0","3WYP994K18D3PXZB8CV8QLTMS45Y6I","A34U4186EW0B9X","3PIOQ99R7Y8STPN46QFY0SD7JTFNU0","","234.29999995231628","img/food4.png","76","234.90000009536743","3","0","3","2","1,0.5,0,1,0.5,0,0.5,0,1","0.5,0,1,0.5,0,1,0,1,0.5","2","false",""
"","html-keyboard-response","191","95477","0.0-194.0","3WYP994K18D3PXZB8CV8QLTMS45Y6I","A34U4186EW0B9X","3PIOQ99R7Y8STPN46QFY0SD7JTFNU0","","null","<img src=""img/food4.png"" style=""width:200px;border:14px solid red;"">","null","","","","","","","","","",""
"","image-keyboard-response","192","95730","0.0-196.0","3WYP994K18D3PXZB8CV8QLTMS45Y6I","A34U4186EW0B9X","3PIOQ99R7Y8STPN46QFY0SD7JTFNU0","","252.70000004768372","img/food2.png","76","253.10000014305115","3","1","1","2","1,0.5,0,1,0.5,0,0.5,0,1","0.5,0,1,0.5,0,1,0,1,0.5","2","false",""
"","html-keyboard-response","193","96032","0.0-197.0","3WYP994K18D3PXZB8CV8QLTMS45Y6I","A34U4186EW0B9X","3PIOQ99R7Y8STPN46QFY0SD7JTFNU0","","null","<img src=""img/food2.png"" style=""width:200px; border:14px solid green;"">","null","","","","","","","","","",""
"","image-keyboard-response","194","96211","0.0-199.0","3WYP994K18D3PXZB8CV8QLTMS45Y6I","A34U4186EW0B9X","3PIOQ99R7Y8STPN46QFY0SD7JTFNU0","","178.79999995231628","img/food6.png","76","179.29999995231628","3","1","2","2","1,0.5,0,1,0.5,0,0.5,0,1","0.5,0,1,0.5,0,1,0,1,0.5","2","false",""
"","html-keyboard-response","195","96513","0.0-200.0","3WYP994K18D3PXZB8CV8QLTMS45Y6I","A34U4186EW0B9X","3PIOQ99R7Y8STPN46QFY0SD7JTFNU0","","null","<img src=""img/food6.png"" style=""width:200px; border:14px solid green;"">","null","","","","","","","","","",""
"","image-keyboard-response","196","96693","0.0-202.0","3WYP994K18D3PXZB8CV8QLTMS45Y6I","A34U4186EW0B9X","3PIOQ99R7Y8STPN46QFY0SD7JTFNU0","","179.30000019073486","img/food6.png","76","179.79999995231628","3","1","2","2","1,0.5,0,1,0.5,0,0.5,0,1","0.5,0,1,0.5,0,1,0,1,0.5","2","false",""
"","html-keyboard-response","197","96993","0.0-203.0","3WYP994K18D3PXZB8CV8QLTMS45Y6I","A34U4186EW0B9X","3PIOQ99R7Y8STPN46QFY0SD7JTFNU0","","null","<img src=""img/food6.png"" style=""width:200px; border:14px solid green;"">","null","","","","","","","","","",""
"","image-keyboard-response","198","97103","0.0-205.0","3WYP994K18D3PXZB8CV8QLTMS45Y6I","A34U4186EW0B9X","3PIOQ99R7Y8STPN46QFY0SD7JTFNU0","","108.80000019073486","img/food4.png","76","109.20000004768372","3","1","3","2","1,0.5,0,1,0.5,0,0.5,0,1","0.5,0,1,0.5,0,1,0,1,0.5","2","false",""
"","html-keyboard-response","199","97404","0.0-206.0","3WYP994K18D3PXZB8CV8QLTMS45Y6I","A34U4186EW0B9X","3PIOQ99R7Y8STPN46QFY0SD7JTFNU0","","null","<img src=""img/food4.png"" style=""width:200px; border:14px solid green;"">","null","","","","","","","","","",""
"","image-keyboard-response","200","97519","0.0-208.0","3WYP994K18D3PXZB8CV8QLTMS45Y6I","A34U4186EW0B9X","3PIOQ99R7Y8STPN46QFY0SD7JTFNU0","","114.20000004768372","img/food2.png","76","114.59999990463257","3","1","1","2","1,0.5,0,1,0.5,0,0.5,0,1","0.5,0,1,0.5,0,1,0,1,0.5","2","false",""
"","html-keyboard-response","201","97820","0.0-209.0","3WYP994K18D3PXZB8CV8QLTMS45Y6I","A34U4186EW0B9X","3PIOQ99R7Y8STPN46QFY0SD7JTFNU0","","null","<img src=""img/food2.png"" style=""width:200px; border:14px solid green;"">","null","","","","","","","","","",""
"","image-keyboard-response","202","97929","0.0-211.0","3WYP994K18D3PXZB8CV8QLTMS45Y6I","A34U4186EW0B9X","3PIOQ99R7Y8STPN46QFY0SD7JTFNU0","","108.40000009536743","img/food4.png","76","108.89999985694885","3","0","3","2","1,0.5,0,1,0.5,0,0.5,0,1","0.5,0,1,0.5,0,1,0,1,0.5","2","false",""
"","html-keyboard-response","203","98230","0.0-212.0","3WYP994K18D3PXZB8CV8QLTMS45Y6I","A34U4186EW0B9X","3PIOQ99R7Y8STPN46QFY0SD7JTFNU0","","null","<img src=""img/food4.png"" style=""width:200px;border:14px solid red;"">","null","","","","","","","","","",""
"","image-keyboard-response","204","98272","0.0-214.0","3WYP994K18D3PXZB8CV8QLTMS45Y6I","A34U4186EW0B9X","3PIOQ99R7Y8STPN46QFY0SD7JTFNU0","","41","img/food4.png","76","41.299999952316284","3","0","3","2","1,0.5,0,1,0.5,0,0.5,0,1","0.5,0,1,0.5,0,1,0,1,0.5","2","false",""
"","html-keyboard-response","205","98573","0.0-215.0","3WYP994K18D3PXZB8CV8QLTMS45Y6I","A34U4186EW0B9X","3PIOQ99R7Y8STPN46QFY0SD7JTFNU0","","null","<img src=""img/food4.png"" style=""width:200px;border:14px solid red;"">","null","","","","","","","","","",""
"","image-keyboard-response","206","99095","0.0-217.0","3WYP994K18D3PXZB8CV8QLTMS45Y6I","A34U4186EW0B9X","3PIOQ99R7Y8STPN46QFY0SD7JTFNU0","","521.0999999046326","img/food6.png","76","521.3999998569489","3","1","2","2","1,0.5,0,1,0.5,0,0.5,0,1","0.5,0,1,0.5,0,1,0,1,0.5","2","false",""
"","html-keyboard-response","207","99396","0.0-218.0","3WYP994K18D3PXZB8CV8QLTMS45Y6I","A34U4186EW0B9X","3PIOQ99R7Y8STPN46QFY0SD7JTFNU0","","null","<img src=""img/food6.png"" style=""width:200px; border:14px solid green;"">","null","","","","","","","","","",""
"","image-keyboard-response","208","99485","0.0-220.0","3WYP994K18D3PXZB8CV8QLTMS45Y6I","A34U4186EW0B9X","3PIOQ99R7Y8STPN46QFY0SD7JTFNU0","","88.19999980926514","img/food4.png","76","88.70000004768372","3","0","3","2","1,0.5,0,1,0.5,0,0.5,0,1","0.5,0,1,0.5,0,1,0,1,0.5","2","false",""
"","html-keyboard-response","209","99785","0.0-221.0","3WYP994K18D3PXZB8CV8QLTMS45Y6I","A34U4186EW0B9X","3PIOQ99R7Y8STPN46QFY0SD7JTFNU0","","null","<img src=""img/food4.png"" style=""width:200px;border:14px solid red;"">","null","","","","","","","","","",""
"","image-keyboard-response","210","100071","0.0-223.0","3WYP994K18D3PXZB8CV8QLTMS45Y6I","A34U4186EW0B9X","3PIOQ99R7Y8STPN46QFY0SD7JTFNU0","","284.89999985694885","img/food4.png","76","285.5","3","0","3","2","1,0.5,0,1,0.5,0,0.5,0,1","0.5,0,1,0.5,0,1,0,1,0.5","2","false",""
"","html-keyboard-response","211","100372","0.0-224.0","3WYP994K18D3PXZB8CV8QLTMS45Y6I","A34U4186EW0B9X","3PIOQ99R7Y8STPN46QFY0SD7JTFNU0","","null","<img src=""img/food4.png"" style=""width:200px;border:14px solid red;"">","null","","","","","","","","","",""
"","image-keyboard-response","212","100733","0.0-226.0","3WYP994K18D3PXZB8CV8QLTMS45Y6I","A34U4186EW0B9X","3PIOQ99R7Y8STPN46QFY0SD7JTFNU0","","360.59999990463257","img/food4.png","76","361","3","1","3","2","1,0.5,0,1,0.5,0,0.5,0,1","0.5,0,1,0.5,0,1,0,1,0.5","2","false",""
"","html-keyboard-response","213","101034","0.0-227.0","3WYP994K18D3PXZB8CV8QLTMS45Y6I","A34U4186EW0B9X","3PIOQ99R7Y8STPN46QFY0SD7JTFNU0","","null","<img src=""img/food4.png"" style=""width:200px; border:14px solid green;"">","null","","","","","","","","","",""
"","image-keyboard-response","214","101189","0.0-229.0","3WYP994K18D3PXZB8CV8QLTMS45Y6I","A34U4186EW0B9X","3PIOQ99R7Y8STPN46QFY0SD7JTFNU0","","154.29999995231628","img/food4.png","76","154.79999995231628","3","0","3","2","1,0.5,0,1,0.5,0,0.5,0,1","0.5,0,1,0.5,0,1,0,1,0.5","2","false",""
"","html-keyboard-response","215","101497","0.0-230.0","3WYP994K18D3PXZB8CV8QLTMS45Y6I","A34U4186EW0B9X","3PIOQ99R7Y8STPN46QFY0SD7JTFNU0","","null","<img src=""img/food4.png"" style=""width:200px;border:14px solid red;"">","null","","","","","","","","","",""
"","image-keyboard-response","216","102215","0.0-232.0","3WYP994K18D3PXZB8CV8QLTMS45Y6I","A34U4186EW0B9X","3PIOQ99R7Y8STPN46QFY0SD7JTFNU0","","717.9000000953674","img/food6.png","75","718.4000000953674","2","0","2","2","1,0.5,0,1,0.5,0,0.5,0,1","0.5,0,1,0.5,0,1,0,1,0.5","2","false",""
"","html-keyboard-response","217","102516","0.0-233.0","3WYP994K18D3PXZB8CV8QLTMS45Y6I","A34U4186EW0B9X","3PIOQ99R7Y8STPN46QFY0SD7JTFNU0","","null","<img src=""img/food6.png"" style=""width:200px;border:14px solid red;"">","null","","","","","","","","","",""
"","image-keyboard-response","218","102742","0.0-235.0","3WYP994K18D3PXZB8CV8QLTMS45Y6I","A34U4186EW0B9X","3PIOQ99R7Y8STPN46QFY0SD7JTFNU0","","225.09999990463257","img/food6.png","76","225.79999995231628","3","1","2","2","1,0.5,0,1,0.5,0,0.5,0,1","0.5,0,1,0.5,0,1,0,1,0.5","2","false",""
"","html-keyboard-response","219","103044","0.0-236.0","3WYP994K18D3PXZB8CV8QLTMS45Y6I","A34U4186EW0B9X","3PIOQ99R7Y8STPN46QFY0SD7JTFNU0","","null","<img src=""img/food6.png"" style=""width:200px; border:14px solid green;"">","null","","","","","","","","","",""
"","image-keyboard-response","220","103342","0.0-238.0","3WYP994K18D3PXZB8CV8QLTMS45Y6I","A34U4186EW0B9X","3PIOQ99R7Y8STPN46QFY0SD7JTFNU0","","297.7999999523163","img/food2.png","74","298.2000000476837","1","1","1","2","1,0.5,0,1,0.5,0,0.5,0,1","0.5,0,1,0.5,0,1,0,1,0.5","2","false",""
"","html-keyboard-response","221","103644","0.0-239.0","3WYP994K18D3PXZB8CV8QLTMS45Y6I","A34U4186EW0B9X","3PIOQ99R7Y8STPN46QFY0SD7JTFNU0","","null","<img src=""img/food2.png"" style=""width:200px; border:14px solid green;"">","null","","","","","","","","","",""
"","image-keyboard-response","222","103882","0.0-241.0","3WYP994K18D3PXZB8CV8QLTMS45Y6I","A34U4186EW0B9X","3PIOQ99R7Y8STPN46QFY0SD7JTFNU0","","237.89999985694885","img/food6.png","74","238.29999995231628","1","0","2","2","1,0.5,0,1,0.5,0,0.5,0,1","0.5,0,1,0.5,0,1,0,1,0.5","2","false",""
"","html-keyboard-response","223","104183","0.0-242.0","3WYP994K18D3PXZB8CV8QLTMS45Y6I","A34U4186EW0B9X","3PIOQ99R7Y8STPN46QFY0SD7JTFNU0","","null","<img src=""img/food6.png"" style=""width:200px;border:14px solid red;"">","null","","","","","","","","","",""
"","image-keyboard-response","224","104352","0.0-244.0","3WYP994K18D3PXZB8CV8QLTMS45Y6I","A34U4186EW0B9X","3PIOQ99R7Y8STPN46QFY0SD7JTFNU0","","168.40000009536743","img/food2.png","76","168.90000009536743","3","1","1","2","1,0.5,0,1,0.5,0,0.5,0,1","0.5,0,1,0.5,0,1,0,1,0.5","2","false",""
"","html-keyboard-response","225","104654","0.0-245.0","3WYP994K18D3PXZB8CV8QLTMS45Y6I","A34U4186EW0B9X","3PIOQ99R7Y8STPN46QFY0SD7JTFNU0","","null","<img src=""img/food2.png"" style=""width:200px; border:14px solid green;"">","null","","","","","","","","","",""
"","image-keyboard-response","226","104904","0.0-247.0","3WYP994K18D3PXZB8CV8QLTMS45Y6I","A34U4186EW0B9X","3PIOQ99R7Y8STPN46QFY0SD7JTFNU0","","249","img/food4.png","76","249.40000009536743","3","0","3","2","1,0.5,0,1,0.5,0,0.5,0,1","0.5,0,1,0.5,0,1,0,1,0.5","2","false",""
"","html-keyboard-response","227","105205","0.0-248.0","3WYP994K18D3PXZB8CV8QLTMS45Y6I","A34U4186EW0B9X","3PIOQ99R7Y8STPN46QFY0SD7JTFNU0","","null","<img src=""img/food4.png"" style=""width:200px;border:14px solid red;"">","null","","","","","","","","","",""
"","image-keyboard-response","228","105600","0.0-250.0","3WYP994K18D3PXZB8CV8QLTMS45Y6I","A34U4186EW0B9X","3PIOQ99R7Y8STPN46QFY0SD7JTFNU0","","394.59999990463257","img/food4.png","76","394.89999985694885","3","1","3","2","1,0.5,0,1,0.5,0,0.5,0,1","0.5,0,1,0.5,0,1,0,1,0.5","2","false",""
"","html-keyboard-response","229","105901","0.0-251.0","3WYP994K18D3PXZB8CV8QLTMS45Y6I","A34U4186EW0B9X","3PIOQ99R7Y8STPN46QFY0SD7JTFNU0","","null","<img src=""img/food4.png"" style=""width:200px; border:14px solid green;"">","null","","","","","","","","","",""
"","image-keyboard-response","230","106160","0.0-253.0","3WYP994K18D3PXZB8CV8QLTMS45Y6I","A34U4186EW0B9X","3PIOQ99R7Y8STPN46QFY0SD7JTFNU0","","258.40000009536743","img/food2.png","76","258.89999985694885","3","1","1","2","1,0.5,0,1,0.5,0,0.5,0,1","0.5,0,1,0.5,0,1,0,1,0.5","2","false",""
"","html-keyboard-response","231","106466","0.0-254.0","3WYP994K18D3PXZB8CV8QLTMS45Y6I","A34U4186EW0B9X","3PIOQ99R7Y8STPN46QFY0SD7JTFNU0","","null","<img src=""img/food2.png"" style=""width:200px; border:14px solid green;"">","null","","","","","","","","","",""
"","image-keyboard-response","232","106652","0.0-256.0","3WYP994K18D3PXZB8CV8QLTMS45Y6I","A34U4186EW0B9X","3PIOQ99R7Y8STPN46QFY0SD7JTFNU0","","184.59999990463257","img/food4.png","76","185.09999990463257","3","1","3","2","1,0.5,0,1,0.5,0,0.5,0,1","0.5,0,1,0.5,0,1,0,1,0.5","2","false",""
"","html-keyboard-response","233","106953","0.0-257.0","3WYP994K18D3PXZB8CV8QLTMS45Y6I","A34U4186EW0B9X","3PIOQ99R7Y8STPN46QFY0SD7JTFNU0","","null","<img src=""img/food4.png"" style=""width:200px; border:14px solid green;"">","null","","","","","","","","","",""
"","image-keyboard-response","234","107191","0.0-259.0","3WYP994K18D3PXZB8CV8QLTMS45Y6I","A34U4186EW0B9X","3PIOQ99R7Y8STPN46QFY0SD7JTFNU0","","236.79999995231628","img/food6.png","76","237.29999995231628","3","1","2","2","1,0.5,0,1,0.5,0,0.5,0,1","0.5,0,1,0.5,0,1,0,1,0.5","2","false",""
"","html-keyboard-response","235","107492","0.0-260.0","3WYP994K18D3PXZB8CV8QLTMS45Y6I","A34U4186EW0B9X","3PIOQ99R7Y8STPN46QFY0SD7JTFNU0","","null","<img src=""img/food6.png"" style=""width:200px; border:14px solid green;"">","null","","","","","","","","","",""
"","image-keyboard-response","236","107607","0.0-262.0","3WYP994K18D3PXZB8CV8QLTMS45Y6I","A34U4186EW0B9X","3PIOQ99R7Y8STPN46QFY0SD7JTFNU0","","114.5","img/food2.png","76","114.90000009536743","3","1","1","2","1,0.5,0,1,0.5,0,0.5,0,1","0.5,0,1,0.5,0,1,0,1,0.5","2","false",""
"","html-keyboard-response","237","107908","0.0-263.0","3WYP994K18D3PXZB8CV8QLTMS45Y6I","A34U4186EW0B9X","3PIOQ99R7Y8STPN46QFY0SD7JTFNU0","","null","<img src=""img/food2.png"" style=""width:200px; border:14px solid green;"">","null","","","","","","","","","",""
"","image-keyboard-response","238","108085","0.0-265.0","3WYP994K18D3PXZB8CV8QLTMS45Y6I","A34U4186EW0B9X","3PIOQ99R7Y8STPN46QFY0SD7JTFNU0","","176","img/food6.png","76","176.5","3","1","2","2","1,0.5,0,1,0.5,0,0.5,0,1","0.5,0,1,0.5,0,1,0,1,0.5","2","false",""
"","html-keyboard-response","239","108386","0.0-266.0","3WYP994K18D3PXZB8CV8QLTMS45Y6I","A34U4186EW0B9X","3PIOQ99R7Y8STPN46QFY0SD7JTFNU0","","null","<img src=""img/food6.png"" style=""width:200px; border:14px solid green;"">","null","","","","","","","","","",""
"","image-keyboard-response","240","108546","0.0-268.0","3WYP994K18D3PXZB8CV8QLTMS45Y6I","A34U4186EW0B9X","3PIOQ99R7Y8STPN46QFY0SD7JTFNU0","","159.39999985694885","img/food2.png","76","159.80000019073486","3","1","1","2","1,0.5,0,1,0.5,0,0.5,0,1","0.5,0,1,0.5,0,1,0,1,0.5","2","false",""
"","html-keyboard-response","241","108847","0.0-269.0","3WYP994K18D3PXZB8CV8QLTMS45Y6I","A34U4186EW0B9X","3PIOQ99R7Y8STPN46QFY0SD7JTFNU0","","null","<img src=""img/food2.png"" style=""width:200px; border:14px solid green;"">","null","","","","","","","","","",""
"","image-keyboard-response","242","108924","0.0-271.0","3WYP994K18D3PXZB8CV8QLTMS45Y6I","A34U4186EW0B9X","3PIOQ99R7Y8STPN46QFY0SD7JTFNU0","","76.5","img/food4.png","76","76.80000019073486","3","0","3","2","1,0.5,0,1,0.5,0,0.5,0,1","0.5,0,1,0.5,0,1,0,1,0.5","2","false",""
"","html-keyboard-response","243","109225","0.0-272.0","3WYP994K18D3PXZB8CV8QLTMS45Y6I","A34U4186EW0B9X","3PIOQ99R7Y8STPN46QFY0SD7JTFNU0","","null","<img src=""img/food4.png"" style=""width:200px;border:14px solid red;"">","null","","","","","","","","","",""
"","image-keyboard-response","244","109497","0.0-274.0","3WYP994K18D3PXZB8CV8QLTMS45Y6I","A34U4186EW0B9X","3PIOQ99R7Y8STPN46QFY0SD7JTFNU0","","271.5","img/food4.png","76","271.90000009536743","3","1","3","2","1,0.5,0,1,0.5,0,0.5,0,1","0.5,0,1,0.5,0,1,0,1,0.5","2","false",""
"","html-keyboard-response","245","109798","0.0-275.0","3WYP994K18D3PXZB8CV8QLTMS45Y6I","A34U4186EW0B9X","3PIOQ99R7Y8STPN46QFY0SD7JTFNU0","","null","<img src=""img/food4.png"" style=""width:200px; border:14px solid green;"">","null","","","","","","","","","",""
"","image-keyboard-response","246","109944","0.0-277.0","3WYP994K18D3PXZB8CV8QLTMS45Y6I","A34U4186EW0B9X","3PIOQ99R7Y8STPN46QFY0SD7JTFNU0","","145.80000019073486","img/food4.png","76","146.09999990463257","3","0","3","2","1,0.5,0,1,0.5,0,0.5,0,1","0.5,0,1,0.5,0,1,0,1,0.5","2","false",""
"","html-keyboard-response","247","110245","0.0-278.0","3WYP994K18D3PXZB8CV8QLTMS45Y6I","A34U4186EW0B9X","3PIOQ99R7Y8STPN46QFY0SD7JTFNU0","","null","<img src=""img/food4.png"" style=""width:200px;border:14px solid red;"">","null","","","","","","","","","",""
"","image-keyboard-response","248","110481","0.0-280.0","3WYP994K18D3PXZB8CV8QLTMS45Y6I","A34U4186EW0B9X","3PIOQ99R7Y8STPN46QFY0SD7JTFNU0","","235.09999990463257","img/food2.png","76","235.70000004768372","3","1","1","2","1,0.5,0,1,0.5,0,0.5,0,1","0.5,0,1,0.5,0,1,0,1,0.5","2","false",""
"","html-keyboard-response","249","110782","0.0-281.0","3WYP994K18D3PXZB8CV8QLTMS45Y6I","A34U4186EW0B9X","3PIOQ99R7Y8STPN46QFY0SD7JTFNU0","","null","<img src=""img/food2.png"" style=""width:200px; border:14px solid green;"">","null","","","","","","","","","",""
"","image-keyboard-response","250","110943","0.0-283.0","3WYP994K18D3PXZB8CV8QLTMS45Y6I","A34U4186EW0B9X","3PIOQ99R7Y8STPN46QFY0SD7JTFNU0","","160.20000004768372","img/food6.png","76","160.79999995231628","3","1","2","2","1,0.5,0,1,0.5,0,0.5,0,1","0.5,0,1,0.5,0,1,0,1,0.5","2","false",""
"","html-keyboard-response","251","111244","0.0-284.0","3WYP994K18D3PXZB8CV8QLTMS45Y6I","A34U4186EW0B9X","3PIOQ99R7Y8STPN46QFY0SD7JTFNU0","","null","<img src=""img/food6.png"" style=""width:200px; border:14px solid green;"">","null","","","","","","","","","",""
"","image-keyboard-response","252","111439","0.0-286.0","3WYP994K18D3PXZB8CV8QLTMS45Y6I","A34U4186EW0B9X","3PIOQ99R7Y8STPN46QFY0SD7JTFNU0","","194.59999990463257","img/food4.png","76","195.20000004768372","3","0","3","2","1,0.5,0,1,0.5,0,0.5,0,1","0.5,0,1,0.5,0,1,0,1,0.5","2","false",""
"","html-keyboard-response","253","111740","0.0-287.0","3WYP994K18D3PXZB8CV8QLTMS45Y6I","A34U4186EW0B9X","3PIOQ99R7Y8STPN46QFY0SD7JTFNU0","","null","<img src=""img/food4.png"" style=""width:200px;border:14px solid red;"">","null","","","","","","","","","",""
"","image-keyboard-response","254","112039","0.0-289.0","3WYP994K18D3PXZB8CV8QLTMS45Y6I","A34U4186EW0B9X","3PIOQ99R7Y8STPN46QFY0SD7JTFNU0","","298.40000009536743","img/food4.png","76","298.7000000476837","3","0","3","2","1,0.5,0,1,0.5,0,0.5,0,1","0.5,0,1,0.5,0,1,0,1,0.5","2","false",""
"","html-keyboard-response","255","112340","0.0-290.0","3WYP994K18D3PXZB8CV8QLTMS45Y6I","A34U4186EW0B9X","3PIOQ99R7Y8STPN46QFY0SD7JTFNU0","","null","<img src=""img/food4.png"" style=""width:200px;border:14px solid red;"">","null","","","","","","","","","",""
"","image-keyboard-response","256","112622","0.0-292.0","3WYP994K18D3PXZB8CV8QLTMS45Y6I","A34U4186EW0B9X","3PIOQ99R7Y8STPN46QFY0SD7JTFNU0","","280.7999999523163","img/food4.png","76","281.2000000476837","3","1","3","2","1,0.5,0,1,0.5,0,0.5,0,1","0.5,0,1,0.5,0,1,0,1,0.5","2","false",""
"","html-keyboard-response","257","112923","0.0-293.0","3WYP994K18D3PXZB8CV8QLTMS45Y6I","A34U4186EW0B9X","3PIOQ99R7Y8STPN46QFY0SD7JTFNU0","","null","<img src=""img/food4.png"" style=""width:200px; border:14px solid green;"">","null","","","","","","","","","",""
"","image-keyboard-response","258","113080","0.0-295.0","3WYP994K18D3PXZB8CV8QLTMS45Y6I","A34U4186EW0B9X","3PIOQ99R7Y8STPN46QFY0SD7JTFNU0","","156.79999995231628","img/food2.png","76","157.30000019073486","3","1","1","2","1,0.5,0,1,0.5,0,0.5,0,1","0.5,0,1,0.5,0,1,0,1,0.5","2","false",""
"","html-keyboard-response","259","113381","0.0-296.0","3WYP994K18D3PXZB8CV8QLTMS45Y6I","A34U4186EW0B9X","3PIOQ99R7Y8STPN46QFY0SD7JTFNU0","","null","<img src=""img/food2.png"" style=""width:200px; border:14px solid green;"">","null","","","","","","","","","",""
"","image-keyboard-response","260","113668","0.0-298.0","3WYP994K18D3PXZB8CV8QLTMS45Y6I","A34U4186EW0B9X","3PIOQ99R7Y8STPN46QFY0SD7JTFNU0","","286","img/food2.png","76","286.40000009536743","3","1","1","2","1,0.5,0,1,0.5,0,0.5,0,1","0.5,0,1,0.5,0,1,0,1,0.5","2","false",""
"","html-keyboard-response","261","113969","0.0-299.0","3WYP994K18D3PXZB8CV8QLTMS45Y6I","A34U4186EW0B9X","3PIOQ99R7Y8STPN46QFY0SD7JTFNU0","","null","<img src=""img/food2.png"" style=""width:200px; border:14px solid green;"">","null","","","","","","","","","",""
"","image-keyboard-response","262","114231","0.0-301.0","3WYP994K18D3PXZB8CV8QLTMS45Y6I","A34U4186EW0B9X","3PIOQ99R7Y8STPN46QFY0SD7JTFNU0","","260.5","img/food6.png","76","260.90000009536743","3","1","2","2","1,0.5,0,1,0.5,0,0.5,0,1","0.5,0,1,0.5,0,1,0,1,0.5","2","false",""
"","html-keyboard-response","263","114532","0.0-302.0","3WYP994K18D3PXZB8CV8QLTMS45Y6I","A34U4186EW0B9X","3PIOQ99R7Y8STPN46QFY0SD7JTFNU0","","null","<img src=""img/food6.png"" style=""width:200px; border:14px solid green;"">","null","","","","","","","","","",""
"","image-keyboard-response","264","114931","0.0-304.0","3WYP994K18D3PXZB8CV8QLTMS45Y6I","A34U4186EW0B9X","3PIOQ99R7Y8STPN46QFY0SD7JTFNU0","","397.80000019073486","img/food2.png","76","398.39999985694885","3","1","1","2","1,0.5,0,1,0.5,0,0.5,0,1","0.5,0,1,0.5,0,1,0,1,0.5","2","false",""
"","html-keyboard-response","265","115232","0.0-305.0","3WYP994K18D3PXZB8CV8QLTMS45Y6I","A34U4186EW0B9X","3PIOQ99R7Y8STPN46QFY0SD7JTFNU0","","null","<img src=""img/food2.png"" style=""width:200px; border:14px solid green;"">","null","","","","","","","","","",""
"","image-keyboard-response","266","115276","0.0-307.0","3WYP994K18D3PXZB8CV8QLTMS45Y6I","A34U4186EW0B9X","3PIOQ99R7Y8STPN46QFY0SD7JTFNU0","","42.89999985694885","img/food4.png","76","43.40000009536743","3","1","3","2","1,0.5,0,1,0.5,0,0.5,0,1","0.5,0,1,0.5,0,1,0,1,0.5","2","false",""
"","html-keyboard-response","267","115577","0.0-308.0","3WYP994K18D3PXZB8CV8QLTMS45Y6I","A34U4186EW0B9X","3PIOQ99R7Y8STPN46QFY0SD7JTFNU0","","null","<img src=""img/food4.png"" style=""width:200px; border:14px solid green;"">","null","","","","","","","","","",""
"","image-keyboard-response","268","116113","0.0-310.0","3WYP994K18D3PXZB8CV8QLTMS45Y6I","A34U4186EW0B9X","3PIOQ99R7Y8STPN46QFY0SD7JTFNU0","","535.7000000476837","img/food4.png","76","536.2000000476837","3","1","3","2","1,0.5,0,1,0.5,0,0.5,0,1","0.5,0,1,0.5,0,1,0,1,0.5","2","false",""
"","html-keyboard-response","269","116414","0.0-311.0","3WYP994K18D3PXZB8CV8QLTMS45Y6I","A34U4186EW0B9X","3PIOQ99R7Y8STPN46QFY0SD7JTFNU0","","null","<img src=""img/food4.png"" style=""width:200px; border:14px solid green;"">","null","","","","","","","","","",""
"","image-keyboard-response","270","116836","0.0-313.0","3WYP994K18D3PXZB8CV8QLTMS45Y6I","A34U4186EW0B9X","3PIOQ99R7Y8STPN46QFY0SD7JTFNU0","","421.40000009536743","img/food2.png","76","421.90000009536743","3","1","1","2","1,0.5,0,1,0.5,0,0.5,0,1","0.5,0,1,0.5,0,1,0,1,0.5","2","false",""
"","html-keyboard-response","271","117147","0.0-314.0","3WYP994K18D3PXZB8CV8QLTMS45Y6I","A34U4186EW0B9X","3PIOQ99R7Y8STPN46QFY0SD7JTFNU0","","null","<img src=""img/food2.png"" style=""width:200px; border:14px solid green;"">","null","","","","","","","","","",""
"","image-keyboard-response","272","117548","0.0-316.0","3WYP994K18D3PXZB8CV8QLTMS45Y6I","A34U4186EW0B9X","3PIOQ99R7Y8STPN46QFY0SD7JTFNU0","","400.2999999523163","img/food2.png","76","400.90000009536743","3","1","1","2","1,0.5,0,1,0.5,0,0.5,0,1","0.5,0,1,0.5,0,1,0,1,0.5","2","false",""
"","html-keyboard-response","273","117849","0.0-317.0","3WYP994K18D3PXZB8CV8QLTMS45Y6I","A34U4186EW0B9X","3PIOQ99R7Y8STPN46QFY0SD7JTFNU0","","null","<img src=""img/food2.png"" style=""width:200px; border:14px solid green;"">","null","","","","","","","","","",""
"","image-keyboard-response","274","118276","0.0-319.0","3WYP994K18D3PXZB8CV8QLTMS45Y6I","A34U4186EW0B9X","3PIOQ99R7Y8STPN46QFY0SD7JTFNU0","","426.5","img/food6.png","76","427","3","1","2","2","1,0.5,0,1,0.5,0,0.5,0,1","0.5,0,1,0.5,0,1,0,1,0.5","2","false",""
"","html-keyboard-response","275","118577","0.0-320.0","3WYP994K18D3PXZB8CV8QLTMS45Y6I","A34U4186EW0B9X","3PIOQ99R7Y8STPN46QFY0SD7JTFNU0","","null","<img src=""img/food6.png"" style=""width:200px; border:14px solid green;"">","null","","","","","","","","","",""
"","image-keyboard-response","276","118892","0.0-322.0","3WYP994K18D3PXZB8CV8QLTMS45Y6I","A34U4186EW0B9X","3PIOQ99R7Y8STPN46QFY0SD7JTFNU0","","314.89999985694885","img/food6.png","76","315.2999999523163","3","1","2","2","1,0.5,0,1,0.5,0,0.5,0,1","0.5,0,1,0.5,0,1,0,1,0.5","2","false",""
"","html-keyboard-response","277","119194","0.0-323.0","3WYP994K18D3PXZB8CV8QLTMS45Y6I","A34U4186EW0B9X","3PIOQ99R7Y8STPN46QFY0SD7JTFNU0","","null","<img src=""img/food6.png"" style=""width:200px; border:14px solid green;"">","null","","","","","","","","","",""
"","image-keyboard-response","278","119530","0.0-325.0","3WYP994K18D3PXZB8CV8QLTMS45Y6I","A34U4186EW0B9X","3PIOQ99R7Y8STPN46QFY0SD7JTFNU0","","336","img/food6.png","76","336.5","3","1","2","2","1,0.5,0,1,0.5,0,0.5,0,1","0.5,0,1,0.5,0,1,0,1,0.5","2","false",""
"","html-keyboard-response","279","119831","0.0-326.0","3WYP994K18D3PXZB8CV8QLTMS45Y6I","A34U4186EW0B9X","3PIOQ99R7Y8STPN46QFY0SD7JTFNU0","","null","<img src=""img/food6.png"" style=""width:200px; border:14px solid green;"">","null","","","","","","","","","",""
"","image-keyboard-response","280","120374","0.0-328.0","3WYP994K18D3PXZB8CV8QLTMS45Y6I","A34U4186EW0B9X","3PIOQ99R7Y8STPN46QFY0SD7JTFNU0","","542.0999999046326","img/food2.png","76","542.7000000476837","3","1","1","2","1,0.5,0,1,0.5,0,0.5,0,1","0.5,0,1,0.5,0,1,0,1,0.5","2","false",""
"","html-keyboard-response","281","120675","0.0-329.0","3WYP994K18D3PXZB8CV8QLTMS45Y6I","A34U4186EW0B9X","3PIOQ99R7Y8STPN46QFY0SD7JTFNU0","","null","<img src=""img/food2.png"" style=""width:200px; border:14px solid green;"">","null","","","","","","","","","",""
"","image-keyboard-response","282","120851","0.0-331.0","3WYP994K18D3PXZB8CV8QLTMS45Y6I","A34U4186EW0B9X","3PIOQ99R7Y8STPN46QFY0SD7JTFNU0","","175.39999985694885","img/food2.png","76","175.89999985694885","3","1","1","2","1,0.5,0,1,0.5,0,0.5,0,1","0.5,0,1,0.5,0,1,0,1,0.5","2","false",""
"","html-keyboard-response","283","121152","0.0-332.0","3WYP994K18D3PXZB8CV8QLTMS45Y6I","A34U4186EW0B9X","3PIOQ99R7Y8STPN46QFY0SD7JTFNU0","","null","<img src=""img/food2.png"" style=""width:200px; border:14px solid green;"">","null","","","","","","","","","",""
"","image-keyboard-response","284","121434","0.0-334.0","3WYP994K18D3PXZB8CV8QLTMS45Y6I","A34U4186EW0B9X","3PIOQ99R7Y8STPN46QFY0SD7JTFNU0","","281.2999999523163","img/food2.png","76","281.7999999523163","3","1","1","2","1,0.5,0,1,0.5,0,0.5,0,1","0.5,0,1,0.5,0,1,0,1,0.5","2","false",""
"","html-keyboard-response","285","121735","0.0-335.0","3WYP994K18D3PXZB8CV8QLTMS45Y6I","A34U4186EW0B9X","3PIOQ99R7Y8STPN46QFY0SD7JTFNU0","","null","<img src=""img/food2.png"" style=""width:200px; border:14px solid green;"">","null","","","","","","","","","",""
"","image-keyboard-response","286","122040","0.0-337.0","3WYP994K18D3PXZB8CV8QLTMS45Y6I","A34U4186EW0B9X","3PIOQ99R7Y8STPN46QFY0SD7JTFNU0","","304.59999990463257","img/food4.png","76","305","3","0","3","2","1,0.5,0,1,0.5,0,0.5,0,1","0.5,0,1,0.5,0,1,0,1,0.5","2","false",""
"","html-keyboard-response","287","122341","0.0-338.0","3WYP994K18D3PXZB8CV8QLTMS45Y6I","A34U4186EW0B9X","3PIOQ99R7Y8STPN46QFY0SD7JTFNU0","","null","<img src=""img/food4.png"" style=""width:200px;border:14px solid red;"">","null","","","","","","","","","",""
"","image-keyboard-response","288","122713","0.0-340.0","3WYP994K18D3PXZB8CV8QLTMS45Y6I","A34U4186EW0B9X","3PIOQ99R7Y8STPN46QFY0SD7JTFNU0","","371.5","img/food6.png","76","372.5","3","1","2","2","1,0.5,0,1,0.5,0,0.5,0,1","0.5,0,1,0.5,0,1,0,1,0.5","2","false",""
"","html-keyboard-response","289","123015","0.0-341.0","3WYP994K18D3PXZB8CV8QLTMS45Y6I","A34U4186EW0B9X","3PIOQ99R7Y8STPN46QFY0SD7JTFNU0","","null","<img src=""img/food6.png"" style=""width:200px; border:14px solid green;"">","null","","","","","","","","","",""
"","image-keyboard-response","290","123287","0.0-343.0","3WYP994K18D3PXZB8CV8QLTMS45Y6I","A34U4186EW0B9X","3PIOQ99R7Y8STPN46QFY0SD7JTFNU0","","271.5","img/food2.png","76","271.89999985694885","3","1","1","2","1,0.5,0,1,0.5,0,0.5,0,1","0.5,0,1,0.5,0,1,0,1,0.5","2","false",""
"","html-keyboard-response","291","123588","0.0-344.0","3WYP994K18D3PXZB8CV8QLTMS45Y6I","A34U4186EW0B9X","3PIOQ99R7Y8STPN46QFY0SD7JTFNU0","","null","<img src=""img/food2.png"" style=""width:200px; border:14px solid green;"">","null","","","","","","","","","",""
"","image-keyboard-response","292","124016","0.0-346.0","3WYP994K18D3PXZB8CV8QLTMS45Y6I","A34U4186EW0B9X","3PIOQ99R7Y8STPN46QFY0SD7JTFNU0","","427.89999985694885","img/food4.png","76","428.2999999523163","3","0","3","2","1,0.5,0,1,0.5,0,0.5,0,1","0.5,0,1,0.5,0,1,0,1,0.5","2","false",""
"","html-keyboard-response","293","124317","0.0-347.0","3WYP994K18D3PXZB8CV8QLTMS45Y6I","A34U4186EW0B9X","3PIOQ99R7Y8STPN46QFY0SD7JTFNU0","","null","<img src=""img/food4.png"" style=""width:200px;border:14px solid red;"">","null","","","","","","","","","",""
"","image-keyboard-response","294","124677","0.0-349.0","3WYP994K18D3PXZB8CV8QLTMS45Y6I","A34U4186EW0B9X","3PIOQ99R7Y8STPN46QFY0SD7JTFNU0","","359.09999990463257","img/food4.png","76","359.7000000476837","3","0","3","2","1,0.5,0,1,0.5,0,0.5,0,1","0.5,0,1,0.5,0,1,0,1,0.5","2","false",""
"","html-keyboard-response","295","124979","0.0-350.0","3WYP994K18D3PXZB8CV8QLTMS45Y6I","A34U4186EW0B9X","3PIOQ99R7Y8STPN46QFY0SD7JTFNU0","","null","<img src=""img/food4.png"" style=""width:200px;border:14px solid red;"">","null","","","","","","","","","",""
"","image-keyboard-response","296","125401","0.0-352.0","3WYP994K18D3PXZB8CV8QLTMS45Y6I","A34U4186EW0B9X","3PIOQ99R7Y8STPN46QFY0SD7JTFNU0","","422.10000014305115","img/food2.png","76","422.5","3","1","1","2","1,0.5,0,1,0.5,0,0.5,0,1","0.5,0,1,0.5,0,1,0,1,0.5","2","false",""
"","html-keyboard-response","297","125703","0.0-353.0","3WYP994K18D3PXZB8CV8QLTMS45Y6I","A34U4186EW0B9X","3PIOQ99R7Y8STPN46QFY0SD7JTFNU0","","null","<img src=""img/food2.png"" style=""width:200px; border:14px solid green;"">","null","","","","","","","","","",""
"","image-keyboard-response","298","126006","0.0-355.0","3WYP994K18D3PXZB8CV8QLTMS45Y6I","A34U4186EW0B9X","3PIOQ99R7Y8STPN46QFY0SD7JTFNU0","","302.7999999523163","img/food2.png","76","303.40000009536743","3","1","1","2","1,0.5,0,1,0.5,0,0.5,0,1","0.5,0,1,0.5,0,1,0,1,0.5","2","false",""
"","html-keyboard-response","299","126308","0.0-356.0","3WYP994K18D3PXZB8CV8QLTMS45Y6I","A34U4186EW0B9X","3PIOQ99R7Y8STPN46QFY0SD7JTFNU0","","null","<img src=""img/food2.png"" style=""width:200px; border:14px solid green;"">","null","","","","","","","","","",""
"","image-keyboard-response","300","126588","0.0-358.0","3WYP994K18D3PXZB8CV8QLTMS45Y6I","A34U4186EW0B9X","3PIOQ99R7Y8STPN46QFY0SD7JTFNU0","","280.2999999523163","img/food4.png","76","280.69999980926514","3","1","3","2","1,0.5,0,1,0.5,0,0.5,0,1","0.5,0,1,0.5,0,1,0,1,0.5","2","false",""
"","html-keyboard-response","301","126889","0.0-359.0","3WYP994K18D3PXZB8CV8QLTMS45Y6I","A34U4186EW0B9X","3PIOQ99R7Y8STPN46QFY0SD7JTFNU0","","null","<img src=""img/food4.png"" style=""width:200px; border:14px solid green;"">","null","","","","","","","","","",""
"","image-keyboard-response","302","127138","0.0-361.0","3WYP994K18D3PXZB8CV8QLTMS45Y6I","A34U4186EW0B9X","3PIOQ99R7Y8STPN46QFY0SD7JTFNU0","","248.30000019073486","img/food6.png","76","248.89999985694885","3","1","2","2","1,0.5,0,1,0.5,0,0.5,0,1","0.5,0,1,0.5,0,1,0,1,0.5","2","false",""
"","html-keyboard-response","303","127439","0.0-362.0","3WYP994K18D3PXZB8CV8QLTMS45Y6I","A34U4186EW0B9X","3PIOQ99R7Y8STPN46QFY0SD7JTFNU0","","null","<img src=""img/food6.png"" style=""width:200px; border:14px solid green;"">","null","","","","","","","","","",""
"","image-keyboard-response","304","127641","0.0-364.0","3WYP994K18D3PXZB8CV8QLTMS45Y6I","A34U4186EW0B9X","3PIOQ99R7Y8STPN46QFY0SD7JTFNU0","","201.70000004768372","img/food6.png","76","202.10000014305115","3","1","2","2","1,0.5,0,1,0.5,0,0.5,0,1","0.5,0,1,0.5,0,1,0,1,0.5","2","false",""
"","html-keyboard-response","305","127943","0.0-365.0","3WYP994K18D3PXZB8CV8QLTMS45Y6I","A34U4186EW0B9X","3PIOQ99R7Y8STPN46QFY0SD7JTFNU0","","null","<img src=""img/food6.png"" style=""width:200px; border:14px solid green;"">","null","","","","","","","","","",""
"","image-keyboard-response","306","128013","0.0-367.0","3WYP994K18D3PXZB8CV8QLTMS45Y6I","A34U4186EW0B9X","3PIOQ99R7Y8STPN46QFY0SD7JTFNU0","","69.90000009536743","img/food6.png","76","70.29999995231628","3","1","2","2","1,0.5,0,1,0.5,0,0.5,0,1","0.5,0,1,0.5,0,1,0,1,0.5","2","false",""
"","html-keyboard-response","307","128315","0.0-368.0","3WYP994K18D3PXZB8CV8QLTMS45Y6I","A34U4186EW0B9X","3PIOQ99R7Y8STPN46QFY0SD7JTFNU0","","null","<img src=""img/food6.png"" style=""width:200px; border:14px solid green;"">","null","","","","","","","","","",""
"","image-keyboard-response","308","128733","0.0-370.0","3WYP994K18D3PXZB8CV8QLTMS45Y6I","A34U4186EW0B9X","3PIOQ99R7Y8STPN46QFY0SD7JTFNU0","","417.5","img/food2.png","76","418.10000014305115","3","1","1","2","1,0.5,0,1,0.5,0,0.5,0,1","0.5,0,1,0.5,0,1,0,1,0.5","2","false",""
"","html-keyboard-response","309","129034","0.0-371.0","3WYP994K18D3PXZB8CV8QLTMS45Y6I","A34U4186EW0B9X","3PIOQ99R7Y8STPN46QFY0SD7JTFNU0","","null","<img src=""img/food2.png"" style=""width:200px; border:14px solid green;"">","null","","","","","","","","","",""
"","image-keyboard-response","310","129208","0.0-373.0","3WYP994K18D3PXZB8CV8QLTMS45Y6I","A34U4186EW0B9X","3PIOQ99R7Y8STPN46QFY0SD7JTFNU0","","173.40000009536743","img/food2.png","76","173.79999995231628","3","1","1","2","1,0.5,0,1,0.5,0,0.5,0,1","0.5,0,1,0.5,0,1,0,1,0.5","2","false",""
"","html-keyboard-response","311","129508","0.0-374.0","3WYP994K18D3PXZB8CV8QLTMS45Y6I","A34U4186EW0B9X","3PIOQ99R7Y8STPN46QFY0SD7JTFNU0","","null","<img src=""img/food2.png"" style=""width:200px; border:14px solid green;"">","null","","","","","","","","","",""
"","image-keyboard-response","312","129807","0.0-376.0","3WYP994K18D3PXZB8CV8QLTMS45Y6I","A34U4186EW0B9X","3PIOQ99R7Y8STPN46QFY0SD7JTFNU0","","297.5","img/food6.png","76","298","3","1","2","2","1,0.5,0,1,0.5,0,0.5,0,1","0.5,0,1,0.5,0,1,0,1,0.5","2","false",""
"","html-keyboard-response","313","130107","0.0-377.0","3WYP994K18D3PXZB8CV8QLTMS45Y6I","A34U4186EW0B9X","3PIOQ99R7Y8STPN46QFY0SD7JTFNU0","","null","<img src=""img/food6.png"" style=""width:200px; border:14px solid green;"">","null","","","","","","","","","",""
"","image-keyboard-response","314","130284","0.0-379.0","3WYP994K18D3PXZB8CV8QLTMS45Y6I","A34U4186EW0B9X","3PIOQ99R7Y8STPN46QFY0SD7JTFNU0","","175.70000004768372","img/food6.png","76","176.29999995231628","3","1","2","2","1,0.5,0,1,0.5,0,0.5,0,1","0.5,0,1,0.5,0,1,0,1,0.5","2","false",""
"","html-keyboard-response","315","130585","0.0-380.0","3WYP994K18D3PXZB8CV8QLTMS45Y6I","A34U4186EW0B9X","3PIOQ99R7Y8STPN46QFY0SD7JTFNU0","","null","<img src=""img/food6.png"" style=""width:200px; border:14px solid green;"">","null","","","","","","","","","",""
"","image-keyboard-response","316","130751","0.0-382.0","3WYP994K18D3PXZB8CV8QLTMS45Y6I","A34U4186EW0B9X","3PIOQ99R7Y8STPN46QFY0SD7JTFNU0","","165.10000014305115","img/food4.png","76","165.5","3","1","3","2","1,0.5,0,1,0.5,0,0.5,0,1","0.5,0,1,0.5,0,1,0,1,0.5","2","false",""
"","html-keyboard-response","317","131052","0.0-383.0","3WYP994K18D3PXZB8CV8QLTMS45Y6I","A34U4186EW0B9X","3PIOQ99R7Y8STPN46QFY0SD7JTFNU0","","null","<img src=""img/food4.png"" style=""width:200px; border:14px solid green;"">","null","","","","","","","","","",""
"","image-keyboard-response","318","131243","0.0-385.0","3WYP994K18D3PXZB8CV8QLTMS45Y6I","A34U4186EW0B9X","3PIOQ99R7Y8STPN46QFY0SD7JTFNU0","","190.40000009536743","img/food2.png","76","190.70000004768372","3","1","1","2","1,0.5,0,1,0.5,0,0.5,0,1","0.5,0,1,0.5,0,1,0,1,0.5","2","false",""
"","html-keyboard-response","319","131544","0.0-386.0","3WYP994K18D3PXZB8CV8QLTMS45Y6I","A34U4186EW0B9X","3PIOQ99R7Y8STPN46QFY0SD7JTFNU0","","null","<img src=""img/food2.png"" style=""width:200px; border:14px solid green;"">","null","","","","","","","","","",""
"","image-keyboard-response","320","131760","0.0-388.0","3WYP994K18D3PXZB8CV8QLTMS45Y6I","A34U4186EW0B9X","3PIOQ99R7Y8STPN46QFY0SD7JTFNU0","","214.70000004768372","img/food6.png","76","215.29999995231628","3","1","2","2","1,0.5,0,1,0.5,0,0.5,0,1","0.5,0,1,0.5,0,1,0,1,0.5","2","false",""
"","html-keyboard-response","321","132061","0.0-389.0","3WYP994K18D3PXZB8CV8QLTMS45Y6I","A34U4186EW0B9X","3PIOQ99R7Y8STPN46QFY0SD7JTFNU0","","null","<img src=""img/food6.png"" style=""width:200px; border:14px solid green;"">","null","","","","","","","","","",""
"","image-keyboard-response","322","132210","0.0-391.0","3WYP994K18D3PXZB8CV8QLTMS45Y6I","A34U4186EW0B9X","3PIOQ99R7Y8STPN46QFY0SD7JTFNU0","","148.19999980926514","img/food2.png","76","148.70000004768372","3","1","1","2","1,0.5,0,1,0.5,0,0.5,0,1","0.5,0,1,0.5,0,1,0,1,0.5","2","false",""
"","html-keyboard-response","323","132511","0.0-392.0","3WYP994K18D3PXZB8CV8QLTMS45Y6I","A34U4186EW0B9X","3PIOQ99R7Y8STPN46QFY0SD7JTFNU0","","null","<img src=""img/food2.png"" style=""width:200px; border:14px solid green;"">","null","","","","","","","","","",""
"","image-keyboard-response","324","132696","0.0-394.0","3WYP994K18D3PXZB8CV8QLTMS45Y6I","A34U4186EW0B9X","3PIOQ99R7Y8STPN46QFY0SD7JTFNU0","","184.39999985694885","img/food6.png","76","185","3","1","2","2","1,0.5,0,1,0.5,0,0.5,0,1","0.5,0,1,0.5,0,1,0,1,0.5","2","false",""
"","html-keyboard-response","325","132998","0.0-395.0","3WYP994K18D3PXZB8CV8QLTMS45Y6I","A34U4186EW0B9X","3PIOQ99R7Y8STPN46QFY0SD7JTFNU0","","null","<img src=""img/food6.png"" style=""width:200px; border:14px solid green;"">","null","","","","","","","","","",""
"","image-keyboard-response","326","133219","0.0-397.0","3WYP994K18D3PXZB8CV8QLTMS45Y6I","A34U4186EW0B9X","3PIOQ99R7Y8STPN46QFY0SD7JTFNU0","","221.09999990463257","img/food6.png","76","221.40000009536743","3","1","2","2","1,0.5,0,1,0.5,0,0.5,0,1","0.5,0,1,0.5,0,1,0,1,0.5","2","false",""
"","html-keyboard-response","327","133520","0.0-398.0","3WYP994K18D3PXZB8CV8QLTMS45Y6I","A34U4186EW0B9X","3PIOQ99R7Y8STPN46QFY0SD7JTFNU0","","null","<img src=""img/food6.png"" style=""width:200px; border:14px solid green;"">","null","","","","","","","","","",""
"","image-keyboard-response","328","133700","0.0-400.0","3WYP994K18D3PXZB8CV8QLTMS45Y6I","A34U4186EW0B9X","3PIOQ99R7Y8STPN46QFY0SD7JTFNU0","","179.29999995231628","img/food6.png","76","179.79999995231628","3","1","2","2","1,0.5,0,1,0.5,0,0.5,0,1","0.5,0,1,0.5,0,1,0,1,0.5","2","false",""
"","html-keyboard-response","329","134001","0.0-401.0","3WYP994K18D3PXZB8CV8QLTMS45Y6I","A34U4186EW0B9X","3PIOQ99R7Y8STPN46QFY0SD7JTFNU0","","null","<img src=""img/food6.png"" style=""width:200px; border:14px solid green;"">","null","","","","","","","","","",""
"","image-keyboard-response","330","134316","0.0-403.0","3WYP994K18D3PXZB8CV8QLTMS45Y6I","A34U4186EW0B9X","3PIOQ99R7Y8STPN46QFY0SD7JTFNU0","","314.7999999523163","img/food6.png","76","315.2999999523163","3","1","2","2","1,0.5,0,1,0.5,0,0.5,0,1","0.5,0,1,0.5,0,1,0,1,0.5","2","false",""
"","html-keyboard-response","331","134618","0.0-404.0","3WYP994K18D3PXZB8CV8QLTMS45Y6I","A34U4186EW0B9X","3PIOQ99R7Y8STPN46QFY0SD7JTFNU0","","null","<img src=""img/food6.png"" style=""width:200px; border:14px solid green;"">","null","","","","","","","","","",""
"","image-keyboard-response","332","134818","0.0-406.0","3WYP994K18D3PXZB8CV8QLTMS45Y6I","A34U4186EW0B9X","3PIOQ99R7Y8STPN46QFY0SD7JTFNU0","","199.79999995231628","img/food4.png","76","200.20000004768372","3","1","3","2","1,0.5,0,1,0.5,0,0.5,0,1","0.5,0,1,0.5,0,1,0,1,0.5","2","false",""
"","html-keyboard-response","333","135119","0.0-407.0","3WYP994K18D3PXZB8CV8QLTMS45Y6I","A34U4186EW0B9X","3PIOQ99R7Y8STPN46QFY0SD7JTFNU0","","null","<img src=""img/food4.png"" style=""width:200px; border:14px solid green;"">","null","","","","","","","","","",""
"","image-keyboard-response","334","135271","0.0-409.0","3WYP994K18D3PXZB8CV8QLTMS45Y6I","A34U4186EW0B9X","3PIOQ99R7Y8STPN46QFY0SD7JTFNU0","","151.5","img/food2.png","76","151.89999985694885","3","1","1","2","1,0.5,0,1,0.5,0,0.5,0,1","0.5,0,1,0.5,0,1,0,1,0.5","2","false",""
"","html-keyboard-response","335","135572","0.0-410.0","3WYP994K18D3PXZB8CV8QLTMS45Y6I","A34U4186EW0B9X","3PIOQ99R7Y8STPN46QFY0SD7JTFNU0","","null","<img src=""img/food2.png"" style=""width:200px; border:14px solid green;"">","null","","","","","","","","","",""
"","image-keyboard-response","336","135644","0.0-412.0","3WYP994K18D3PXZB8CV8QLTMS45Y6I","A34U4186EW0B9X","3PIOQ99R7Y8STPN46QFY0SD7JTFNU0","","71.30000019073486","img/food2.png","76","71.70000004768372","3","1","1","2","1,0.5,0,1,0.5,0,0.5,0,1","0.5,0,1,0.5,0,1,0,1,0.5","2","false",""
"","html-keyboard-response","337","135945","0.0-413.0","3WYP994K18D3PXZB8CV8QLTMS45Y6I","A34U4186EW0B9X","3PIOQ99R7Y8STPN46QFY0SD7JTFNU0","","null","<img src=""img/food2.png"" style=""width:200px; border:14px solid green;"">","null","","","","","","","","","",""
"","image-keyboard-response","338","136092","0.0-415.0","3WYP994K18D3PXZB8CV8QLTMS45Y6I","A34U4186EW0B9X","3PIOQ99R7Y8STPN46QFY0SD7JTFNU0","","146.5","img/food4.png","76","146.79999995231628","3","1","3","2","1,0.5,0,1,0.5,0,0.5,0,1","0.5,0,1,0.5,0,1,0,1,0.5","2","false",""
"","html-keyboard-response","339","136394","0.0-416.0","3WYP994K18D3PXZB8CV8QLTMS45Y6I","A34U4186EW0B9X","3PIOQ99R7Y8STPN46QFY0SD7JTFNU0","","null","<img src=""img/food4.png"" style=""width:200px; border:14px solid green;"">","null","","","","","","","","","",""
"","image-keyboard-response","340","136506","0.0-418.0","3WYP994K18D3PXZB8CV8QLTMS45Y6I","A34U4186EW0B9X","3PIOQ99R7Y8STPN46QFY0SD7JTFNU0","","110.60000014305115","img/food4.png","76","111","3","1","3","2","1,0.5,0,1,0.5,0,0.5,0,1","0.5,0,1,0.5,0,1,0,1,0.5","2","false",""
"","html-keyboard-response","341","136807","0.0-419.0","3WYP994K18D3PXZB8CV8QLTMS45Y6I","A34U4186EW0B9X","3PIOQ99R7Y8STPN46QFY0SD7JTFNU0","","null","<img src=""img/food4.png"" style=""width:200px; border:14px solid green;"">","null","","","","","","","","","",""
"","image-keyboard-response","342","136972","0.0-421.0","3WYP994K18D3PXZB8CV8QLTMS45Y6I","A34U4186EW0B9X","3PIOQ99R7Y8STPN46QFY0SD7JTFNU0","","165.09999990463257","img/food2.png","76","165.59999990463257","3","1","1","2","1,0.5,0,1,0.5,0,0.5,0,1","0.5,0,1,0.5,0,1,0,1,0.5","2","false",""
"","html-keyboard-response","343","137273","0.0-422.0","3WYP994K18D3PXZB8CV8QLTMS45Y6I","A34U4186EW0B9X","3PIOQ99R7Y8STPN46QFY0SD7JTFNU0","","null","<img src=""img/food2.png"" style=""width:200px; border:14px solid green;"">","null","","","","","","","","","",""
"","image-keyboard-response","344","137479","0.0-424.0","3WYP994K18D3PXZB8CV8QLTMS45Y6I","A34U4186EW0B9X","3PIOQ99R7Y8STPN46QFY0SD7JTFNU0","","204.79999995231628","img/food4.png","76","205.20000004768372","3","1","3","2","1,0.5,0,1,0.5,0,0.5,0,1","0.5,0,1,0.5,0,1,0,1,0.5","2","false",""
"","html-keyboard-response","345","137780","0.0-425.0","3WYP994K18D3PXZB8CV8QLTMS45Y6I","A34U4186EW0B9X","3PIOQ99R7Y8STPN46QFY0SD7JTFNU0","","null","<img src=""img/food4.png"" style=""width:200px; border:14px solid green;"">","null","","","","","","","","","",""
"","image-keyboard-response","346","138186","0.0-427.0","3WYP994K18D3PXZB8CV8QLTMS45Y6I","A34U4186EW0B9X","3PIOQ99R7Y8STPN46QFY0SD7JTFNU0","","405.10000014305115","img/food2.png","76","405.60000014305115","3","1","1","2","1,0.5,0,1,0.5,0,0.5,0,1","0.5,0,1,0.5,0,1,0,1,0.5","2","false",""
"","html-keyboard-response","347","138487","0.0-428.0","3WYP994K18D3PXZB8CV8QLTMS45Y6I","A34U4186EW0B9X","3PIOQ99R7Y8STPN46QFY0SD7JTFNU0","","null","<img src=""img/food2.png"" style=""width:200px; border:14px solid green;"">","null","","","","","","","","","",""
"","image-keyboard-response","348","138796","0.0-430.0","3WYP994K18D3PXZB8CV8QLTMS45Y6I","A34U4186EW0B9X","3PIOQ99R7Y8STPN46QFY0SD7JTFNU0","","308.30000019073486","img/food6.png","76","308.7999999523163","3","1","2","2","1,0.5,0,1,0.5,0,0.5,0,1","0.5,0,1,0.5,0,1,0,1,0.5","2","false",""
"","html-keyboard-response","349","139097","0.0-431.0","3WYP994K18D3PXZB8CV8QLTMS45Y6I","A34U4186EW0B9X","3PIOQ99R7Y8STPN46QFY0SD7JTFNU0","","null","<img src=""img/food6.png"" style=""width:200px; border:14px solid green;"">","null","","","","","","","","","",""
"","image-keyboard-response","350","139347","0.0-433.0","3WYP994K18D3PXZB8CV8QLTMS45Y6I","A34U4186EW0B9X","3PIOQ99R7Y8STPN46QFY0SD7JTFNU0","","249.5","img/food2.png","76","249.90000009536743","3","1","1","2","1,0.5,0,1,0.5,0,0.5,0,1","0.5,0,1,0.5,0,1,0,1,0.5","2","false",""
"","html-keyboard-response","351","139648","0.0-434.0","3WYP994K18D3PXZB8CV8QLTMS45Y6I","A34U4186EW0B9X","3PIOQ99R7Y8STPN46QFY0SD7JTFNU0","","null","<img src=""img/food2.png"" style=""width:200px; border:14px solid green;"">","null","","","","","","","","","",""
"","image-keyboard-response","352","139856","0.0-436.0","3WYP994K18D3PXZB8CV8QLTMS45Y6I","A34U4186EW0B9X","3PIOQ99R7Y8STPN46QFY0SD7JTFNU0","","207.79999995231628","img/food6.png","76","208.29999995231628","3","1","2","2","1,0.5,0,1,0.5,0,0.5,0,1","0.5,0,1,0.5,0,1,0,1,0.5","2","false",""
"","html-keyboard-response","353","140173","0.0-437.0","3WYP994K18D3PXZB8CV8QLTMS45Y6I","A34U4186EW0B9X","3PIOQ99R7Y8STPN46QFY0SD7JTFNU0","","null","<img src=""img/food6.png"" style=""width:200px; border:14px solid green;"">","null","","","","","","","","","",""
"","image-keyboard-response","354","140375","0.0-439.0","3WYP994K18D3PXZB8CV8QLTMS45Y6I","A34U4186EW0B9X","3PIOQ99R7Y8STPN46QFY0SD7JTFNU0","","201.20000004768372","img/food2.png","76","201.60000014305115","3","1","1","2","1,0.5,0,1,0.5,0,0.5,0,1","0.5,0,1,0.5,0,1,0,1,0.5","2","false",""
"","html-keyboard-response","355","140676","0.0-440.0","3WYP994K18D3PXZB8CV8QLTMS45Y6I","A34U4186EW0B9X","3PIOQ99R7Y8STPN46QFY0SD7JTFNU0","","null","<img src=""img/food2.png"" style=""width:200px; border:14px solid green;"">","null","","","","","","","","","",""
"","image-keyboard-response","356","141137","0.0-442.0","3WYP994K18D3PXZB8CV8QLTMS45Y6I","A34U4186EW0B9X","3PIOQ99R7Y8STPN46QFY0SD7JTFNU0","","460.59999990463257","img/food6.png","76","461","3","1","2","2","1,0.5,0,1,0.5,0,0.5,0,1","0.5,0,1,0.5,0,1,0,1,0.5","2","false",""
"","html-keyboard-response","357","141438","0.0-443.0","3WYP994K18D3PXZB8CV8QLTMS45Y6I","A34U4186EW0B9X","3PIOQ99R7Y8STPN46QFY0SD7JTFNU0","","null","<img src=""img/food6.png"" style=""width:200px; border:14px solid green;"">","null","","","","","","","","","",""
"","image-keyboard-response","358","141614","0.0-445.0","3WYP994K18D3PXZB8CV8QLTMS45Y6I","A34U4186EW0B9X","3PIOQ99R7Y8STPN46QFY0SD7JTFNU0","","175.59999990463257","img/food2.png","76","176","3","1","1","2","1,0.5,0,1,0.5,0,0.5,0,1","0.5,0,1,0.5,0,1,0,1,0.5","2","false",""
"","html-keyboard-response","359","141916","0.0-446.0","3WYP994K18D3PXZB8CV8QLTMS45Y6I","A34U4186EW0B9X","3PIOQ99R7Y8STPN46QFY0SD7JTFNU0","","null","<img src=""img/food2.png"" style=""width:200px; border:14px solid green;"">","null","","","","","","","","","",""
"","image-keyboard-response","360","142375","0.0-448.0","3WYP994K18D3PXZB8CV8QLTMS45Y6I","A34U4186EW0B9X","3PIOQ99R7Y8STPN46QFY0SD7JTFNU0","","458.7999999523163","img/food6.png","76","459.40000009536743","3","1","2","2","1,0.5,0,1,0.5,0,0.5,0,1","0.5,0,1,0.5,0,1,0,1,0.5","2","false",""
"","html-keyboard-response","361","142677","0.0-449.0","3WYP994K18D3PXZB8CV8QLTMS45Y6I","A34U4186EW0B9X","3PIOQ99R7Y8STPN46QFY0SD7JTFNU0","","null","<img src=""img/food6.png"" style=""width:200px; border:14px solid green;"">","null","","","","","","","","","",""
"","image-keyboard-response","362","142974","0.0-451.0","3WYP994K18D3PXZB8CV8QLTMS45Y6I","A34U4186EW0B9X","3PIOQ99R7Y8STPN46QFY0SD7JTFNU0","","296.7000000476837","img/food4.png","76","297.2000000476837","3","0","3","2","1,0.5,0,1,0.5,0,0.5,0,1","0.5,0,1,0.5,0,1,0,1,0.5","2","false",""
"","html-keyboard-response","363","143276","0.0-452.0","3WYP994K18D3PXZB8CV8QLTMS45Y6I","A34U4186EW0B9X","3PIOQ99R7Y8STPN46QFY0SD7JTFNU0","","null","<img src=""img/food4.png"" style=""width:200px;border:14px solid red;"">","null","","","","","","","","","",""
"","instructions","364","147653","0.0-454.0","3WYP994K18D3PXZB8CV8QLTMS45Y6I","A34U4186EW0B9X","3PIOQ99R7Y8STPN46QFY0SD7JTFNU0","[{""page_index"":0,""viewing_time"":4376.700000047684}]","4376.899999856949","","","","","","","","","","","",""
"","survey-text","365","155089","0.0-455.0","3WYP994K18D3PXZB8CV8QLTMS45Y6I","A34U4186EW0B9X","3PIOQ99R7Y8STPN46QFY0SD7JTFNU0","","7434.199999809265","","","","","","","","","","","","{""Q0"":""A34U4186EW0B9X""}"
