"success","trial_type","trial_index","time_elapsed","internal_node_id","assignmentID","mturkID","hitID","view_history","rt","stimulus","key_press","reactionTime","a","r","s","cond","reward_cond","reward_cond_actual","reward_matrix_idx","warning","responses"
"true","fullscreen","0","12988","0.0-0.0","3UN61F00HXBY9SNBPYT9QJMPTKER5O","A34YDGVZKRJ0LZ","3D1UCPY6GGVNRONHL4UEVMXCHLT38H","","","","","","","","","","","","","",""
"","instructions","1","46788","0.0-1.0","3UN61F00HXBY9SNBPYT9QJMPTKER5O","A34YDGVZKRJ0LZ","3D1UCPY6GGVNRONHL4UEVMXCHLT38H","[{""page_index"":0,""viewing_time"":6127.100000023842},{""page_index"":1,""viewing_time"":7499.799999982119},{""page_index"":2,""viewing_time"":2157.0999999940395},{""page_index"":3,""viewing_time"":3809.4000000059605},{""page_index"":4,""viewing_time"":3904.9000000059605},{""page_index"":5,""viewing_time"":3382.5},{""page_index"":6,""viewing_time"":6917.5999999940395}]","33798.80000001192","","","","","","","","","","","",""
"","image-keyboard-response","2","48611","0.0-2.0","3UN61F00HXBY9SNBPYT9QJMPTKER5O","A34YDGVZKRJ0LZ","3D1UCPY6GGVNRONHL4UEVMXCHLT38H","","1822.5","img/food5.png","74","1823.4000000059605","1","1","3","1","1,0.5,0,1,0.5,0,0.5,0,1","0,1,0.5,0,1,0.5,1,0.5,0","3","",""
"","html-keyboard-response","3","48914","0.0-3.0","3UN61F00HXBY9SNBPYT9QJMPTKER5O","A34YDGVZKRJ0LZ","3D1UCPY6GGVNRONHL4UEVMXCHLT38H","","null","<img src=""img/food5.png"" style=""width:200px; border:14px solid green;"">","null","","","","","","","","","",""
"","image-keyboard-response","4","49422","0.0-4.0","3UN61F00HXBY9SNBPYT9QJMPTKER5O","A34YDGVZKRJ0LZ","3D1UCPY6GGVNRONHL4UEVMXCHLT38H","","507","img/food5.png","74","507.89999997615814","1","1","3","1","1,0.5,0,1,0.5,0,0.5,0,1","0,1,0.5,0,1,0.5,1,0.5,0","3","",""
"","html-keyboard-response","5","49724","0.0-5.0","3UN61F00HXBY9SNBPYT9QJMPTKER5O","A34YDGVZKRJ0LZ","3D1UCPY6GGVNRONHL4UEVMXCHLT38H","","null","<img src=""img/food5.png"" style=""width:200px; border:14px solid green;"">","null","","","","","","","","","",""
"","image-keyboard-response","6","50266","0.0-6.0","3UN61F00HXBY9SNBPYT9QJMPTKER5O","A34YDGVZKRJ0LZ","3D1UCPY6GGVNRONHL4UEVMXCHLT38H","","541.0999999940395","img/food2.png","75","541.8000000119209","2","1","1","1","1,0.5,0,1,0.5,0,0.5,0,1","0,1,0.5,0,1,0.5,1,0.5,0","3","",""
"","html-keyboard-response","7","50568","0.0-7.0","3UN61F00HXBY9SNBPYT9QJMPTKER5O","A34YDGVZKRJ0LZ","3D1UCPY6GGVNRONHL4UEVMXCHLT38H","","null","<img src=""img/food2.png"" style=""width:200px; border:14px solid green;"">","null","","","","","","","","","",""
"","image-keyboard-response","8","51361","0.0-8.0","3UN61F00HXBY9SNBPYT9QJMPTKER5O","A34YDGVZKRJ0LZ","3D1UCPY6GGVNRONHL4UEVMXCHLT38H","","792.0999999940395","img/food3.png","76","793","3","0","2","1","1,0.5,0,1,0.5,0,0.5,0,1","0,1,0.5,0,1,0.5,1,0.5,0","3","",""
"","html-keyboard-response","9","51664","0.0-9.0","3UN61F00HXBY9SNBPYT9QJMPTKER5O","A34YDGVZKRJ0LZ","3D1UCPY6GGVNRONHL4UEVMXCHLT38H","","null","<img src=""img/food3.png"" style=""width:200px;border:14px solid red;"">","null","","","","","","","","","",""
"","image-keyboard-response","10","52483","0.0-10.0","3UN61F00HXBY9SNBPYT9QJMPTKER5O","A34YDGVZKRJ0LZ","3D1UCPY6GGVNRONHL4UEVMXCHLT38H","","818.2000000178814","img/food5.png","74","819","1","1","3","1","1,0.5,0,1,0.5,0,0.5,0,1","0,1,0.5,0,1,0.5,1,0.5,0","3","",""
"","html-keyboard-response","11","52785","0.0-11.0","3UN61F00HXBY9SNBPYT9QJMPTKER5O","A34YDGVZKRJ0LZ","3D1UCPY6GGVNRONHL4UEVMXCHLT38H","","null","<img src=""img/food5.png"" style=""width:200px; border:14px solid green;"">","null","","","","","","","","","",""
"","image-keyboard-response","12","53353","0.0-12.0","3UN61F00HXBY9SNBPYT9QJMPTKER5O","A34YDGVZKRJ0LZ","3D1UCPY6GGVNRONHL4UEVMXCHLT38H","","567.7000000178814","img/food2.png","75","568.3000000119209","2","1","1","1","1,0.5,0,1,0.5,0,0.5,0,1","0,1,0.5,0,1,0.5,1,0.5,0","3","",""
"","html-keyboard-response","13","53655","0.0-13.0","3UN61F00HXBY9SNBPYT9QJMPTKER5O","A34YDGVZKRJ0LZ","3D1UCPY6GGVNRONHL4UEVMXCHLT38H","","null","<img src=""img/food2.png"" style=""width:200px; border:14px solid green;"">","null","","","","","","","","","",""
"","image-keyboard-response","14","54268","0.0-14.0","3UN61F00HXBY9SNBPYT9QJMPTKER5O","A34YDGVZKRJ0LZ","3D1UCPY6GGVNRONHL4UEVMXCHLT38H","","612.4000000059605","img/food3.png","76","612.8999999761581","3","1","2","1","1,0.5,0,1,0.5,0,0.5,0,1","0,1,0.5,0,1,0.5,1,0.5,0","3","",""
"","html-keyboard-response","15","54569","0.0-15.0","3UN61F00HXBY9SNBPYT9QJMPTKER5O","A34YDGVZKRJ0LZ","3D1UCPY6GGVNRONHL4UEVMXCHLT38H","","null","<img src=""img/food3.png"" style=""width:200px; border:14px solid green;"">","null","","","","","","","","","",""
"","image-keyboard-response","16","55038","0.0-16.0","3UN61F00HXBY9SNBPYT9QJMPTKER5O","A34YDGVZKRJ0LZ","3D1UCPY6GGVNRONHL4UEVMXCHLT38H","","467.5","img/food3.png","76","468.5","3","1","2","1","1,0.5,0,1,0.5,0,0.5,0,1","0,1,0.5,0,1,0.5,1,0.5,0","3","",""
"","html-keyboard-response","17","55340","0.0-17.0","3UN61F00HXBY9SNBPYT9QJMPTKER5O","A34YDGVZKRJ0LZ","3D1UCPY6GGVNRONHL4UEVMXCHLT38H","","null","<img src=""img/food3.png"" style=""width:200px; border:14px solid green;"">","null","","","","","","","","","",""
"","image-keyboard-response","18","55708","0.0-18.0","3UN61F00HXBY9SNBPYT9QJMPTKER5O","A34YDGVZKRJ0LZ","3D1UCPY6GGVNRONHL4UEVMXCHLT38H","","367.09999999403954","img/food3.png","76","367.80000001192093","3","1","2","1","1,0.5,0,1,0.5,0,0.5,0,1","0,1,0.5,0,1,0.5,1,0.5,0","3","",""
"","html-keyboard-response","19","56010","0.0-19.0","3UN61F00HXBY9SNBPYT9QJMPTKER5O","A34YDGVZKRJ0LZ","3D1UCPY6GGVNRONHL4UEVMXCHLT38H","","null","<img src=""img/food3.png"" style=""width:200px; border:14px solid green;"">","null","","","","","","","","","",""
"","image-keyboard-response","20","57486","0.0-20.0","3UN61F00HXBY9SNBPYT9QJMPTKER5O","A34YDGVZKRJ0LZ","3D1UCPY6GGVNRONHL4UEVMXCHLT38H","","1475.5","img/food5.png","74","1476.5","1","1","3","1","1,0.5,0,1,0.5,0,0.5,0,1","0,1,0.5,0,1,0.5,1,0.5,0","3","",""
"","html-keyboard-response","21","57787","0.0-21.0","3UN61F00HXBY9SNBPYT9QJMPTKER5O","A34YDGVZKRJ0LZ","3D1UCPY6GGVNRONHL4UEVMXCHLT38H","","null","<img src=""img/food5.png"" style=""width:200px; border:14px solid green;"">","null","","","","","","","","","",""
"","image-keyboard-response","22","58475","0.0-22.0","3UN61F00HXBY9SNBPYT9QJMPTKER5O","A34YDGVZKRJ0LZ","3D1UCPY6GGVNRONHL4UEVMXCHLT38H","","687","img/food2.png","75","687.7999999821186","2","1","1","1","1,0.5,0,1,0.5,0,0.5,0,1","0,1,0.5,0,1,0.5,1,0.5,0","3","",""
"","html-keyboard-response","23","58778","0.0-23.0","3UN61F00HXBY9SNBPYT9QJMPTKER5O","A34YDGVZKRJ0LZ","3D1UCPY6GGVNRONHL4UEVMXCHLT38H","","null","<img src=""img/food2.png"" style=""width:200px; border:14px solid green;"">","null","","","","","","","","","",""
"","image-keyboard-response","24","59522","0.0-24.0","3UN61F00HXBY9SNBPYT9QJMPTKER5O","A34YDGVZKRJ0LZ","3D1UCPY6GGVNRONHL4UEVMXCHLT38H","","743.2999999821186","img/food5.png","76","744.1000000238419","3","0","3","1","1,0.5,0,1,0.5,0,0.5,0,1","0,1,0.5,0,1,0.5,1,0.5,0","3","",""
"","html-keyboard-response","25","59824","0.0-25.0","3UN61F00HXBY9SNBPYT9QJMPTKER5O","A34YDGVZKRJ0LZ","3D1UCPY6GGVNRONHL4UEVMXCHLT38H","","null","<img src=""img/food5.png"" style=""width:200px;border:14px solid red;"">","null","","","","","","","","","",""
"","image-keyboard-response","26","60203","0.0-26.0","3UN61F00HXBY9SNBPYT9QJMPTKER5O","A34YDGVZKRJ0LZ","3D1UCPY6GGVNRONHL4UEVMXCHLT38H","","378.40000000596046","img/food5.png","74","379","1","1","3","1","1,0.5,0,1,0.5,0,0.5,0,1","0,1,0.5,0,1,0.5,1,0.5,0","3","",""
"","html-keyboard-response","27","60505","0.0-27.0","3UN61F00HXBY9SNBPYT9QJMPTKER5O","A34YDGVZKRJ0LZ","3D1UCPY6GGVNRONHL4UEVMXCHLT38H","","null","<img src=""img/food5.png"" style=""width:200px; border:14px solid green;"">","null","","","","","","","","","",""
"","image-keyboard-response","28","60921","0.0-28.0","3UN61F00HXBY9SNBPYT9QJMPTKER5O","A34YDGVZKRJ0LZ","3D1UCPY6GGVNRONHL4UEVMXCHLT38H","","414.90000000596046","img/food5.png","74","415.7999999821186","1","1","3","1","1,0.5,0,1,0.5,0,0.5,0,1","0,1,0.5,0,1,0.5,1,0.5,0","3","",""
"","html-keyboard-response","29","61223","0.0-29.0","3UN61F00HXBY9SNBPYT9QJMPTKER5O","A34YDGVZKRJ0LZ","3D1UCPY6GGVNRONHL4UEVMXCHLT38H","","null","<img src=""img/food5.png"" style=""width:200px; border:14px solid green;"">","null","","","","","","","","","",""
"","image-keyboard-response","30","61780","0.0-30.0","3UN61F00HXBY9SNBPYT9QJMPTKER5O","A34YDGVZKRJ0LZ","3D1UCPY6GGVNRONHL4UEVMXCHLT38H","","555.6999999880791","img/food2.png","75","556.6000000238419","2","1","1","1","1,0.5,0,1,0.5,0,0.5,0,1","0,1,0.5,0,1,0.5,1,0.5,0","3","",""
"","html-keyboard-response","31","62082","0.0-31.0","3UN61F00HXBY9SNBPYT9QJMPTKER5O","A34YDGVZKRJ0LZ","3D1UCPY6GGVNRONHL4UEVMXCHLT38H","","null","<img src=""img/food2.png"" style=""width:200px; border:14px solid green;"">","null","","","","","","","","","",""
"","image-keyboard-response","32","62803","0.0-32.0","3UN61F00HXBY9SNBPYT9QJMPTKER5O","A34YDGVZKRJ0LZ","3D1UCPY6GGVNRONHL4UEVMXCHLT38H","","719.8000000119209","img/food3.png","76","720.8000000119209","3","1","2","1","1,0.5,0,1,0.5,0,0.5,0,1","0,1,0.5,0,1,0.5,1,0.5,0","3","",""
"","html-keyboard-response","33","63104","0.0-33.0","3UN61F00HXBY9SNBPYT9QJMPTKER5O","A34YDGVZKRJ0LZ","3D1UCPY6GGVNRONHL4UEVMXCHLT38H","","null","<img src=""img/food3.png"" style=""width:200px; border:14px solid green;"">","null","","","","","","","","","",""
"","image-keyboard-response","34","63448","0.0-34.0","3UN61F00HXBY9SNBPYT9QJMPTKER5O","A34YDGVZKRJ0LZ","3D1UCPY6GGVNRONHL4UEVMXCHLT38H","","343","img/food3.png","76","343.5","3","0","2","1","1,0.5,0,1,0.5,0,0.5,0,1","0,1,0.5,0,1,0.5,1,0.5,0","3","",""
"","html-keyboard-response","35","63749","0.0-35.0","3UN61F00HXBY9SNBPYT9QJMPTKER5O","A34YDGVZKRJ0LZ","3D1UCPY6GGVNRONHL4UEVMXCHLT38H","","null","<img src=""img/food3.png"" style=""width:200px;border:14px solid red;"">","null","","","","","","","","","",""
"","image-keyboard-response","36","64292","0.0-36.0","3UN61F00HXBY9SNBPYT9QJMPTKER5O","A34YDGVZKRJ0LZ","3D1UCPY6GGVNRONHL4UEVMXCHLT38H","","541.2999999821186","img/food3.png","76","542","3","0","2","1","1,0.5,0,1,0.5,0,0.5,0,1","0,1,0.5,0,1,0.5,1,0.5,0","3","",""
"","html-keyboard-response","37","64604","0.0-37.0","3UN61F00HXBY9SNBPYT9QJMPTKER5O","A34YDGVZKRJ0LZ","3D1UCPY6GGVNRONHL4UEVMXCHLT38H","","null","<img src=""img/food3.png"" style=""width:200px;border:14px solid red;"">","null","","","","","","","","","",""
"","image-keyboard-response","38","65082","0.0-38.0","3UN61F00HXBY9SNBPYT9QJMPTKER5O","A34YDGVZKRJ0LZ","3D1UCPY6GGVNRONHL4UEVMXCHLT38H","","477.19999998807907","img/food3.png","76","478","3","1","2","1","1,0.5,0,1,0.5,0,0.5,0,1","0,1,0.5,0,1,0.5,1,0.5,0","3","",""
"","html-keyboard-response","39","65384","0.0-39.0","3UN61F00HXBY9SNBPYT9QJMPTKER5O","A34YDGVZKRJ0LZ","3D1UCPY6GGVNRONHL4UEVMXCHLT38H","","null","<img src=""img/food3.png"" style=""width:200px; border:14px solid green;"">","null","","","","","","","","","",""
"","image-keyboard-response","40","67385","0.0-40.0","3UN61F00HXBY9SNBPYT9QJMPTKER5O","A34YDGVZKRJ0LZ","3D1UCPY6GGVNRONHL4UEVMXCHLT38H","","","img/food2.png","","2000.6000000238419","-1","0","1","1","1,0.5,0,1,0.5,0,0.5,0,1","0,1,0.5,0,1,0.5,1,0.5,0","3","",""
"","html-keyboard-response","41","67685","0.0-41.0","3UN61F00HXBY9SNBPYT9QJMPTKER5O","A34YDGVZKRJ0LZ","3D1UCPY6GGVNRONHL4UEVMXCHLT38H","","null","<img src=""img/food2.png"" style=""width:200px;border:14px solid red;"">","null","","","","","","","","","",""
"","image-keyboard-response","42","68776","0.0-42.0","3UN61F00HXBY9SNBPYT9QJMPTKER5O","A34YDGVZKRJ0LZ","3D1UCPY6GGVNRONHL4UEVMXCHLT38H","","1090.5","img/food5.png","74","1091","1","1","3","1","1,0.5,0,1,0.5,0,0.5,0,1","0,1,0.5,0,1,0.5,1,0.5,0","3","",""
"","html-keyboard-response","43","69078","0.0-43.0","3UN61F00HXBY9SNBPYT9QJMPTKER5O","A34YDGVZKRJ0LZ","3D1UCPY6GGVNRONHL4UEVMXCHLT38H","","null","<img src=""img/food5.png"" style=""width:200px; border:14px solid green;"">","null","","","","","","","","","",""
"","image-keyboard-response","44","69727","0.0-44.0","3UN61F00HXBY9SNBPYT9QJMPTKER5O","A34YDGVZKRJ0LZ","3D1UCPY6GGVNRONHL4UEVMXCHLT38H","","648.7000000178814","img/food2.png","75","649.5","2","1","1","1","1,0.5,0,1,0.5,0,0.5,0,1","0,1,0.5,0,1,0.5,1,0.5,0","3","",""
"","html-keyboard-response","45","70029","0.0-45.0","3UN61F00HXBY9SNBPYT9QJMPTKER5O","A34YDGVZKRJ0LZ","3D1UCPY6GGVNRONHL4UEVMXCHLT38H","","null","<img src=""img/food2.png"" style=""width:200px; border:14px solid green;"">","null","","","","","","","","","",""
"","image-keyboard-response","46","70666","0.0-46.0","3UN61F00HXBY9SNBPYT9QJMPTKER5O","A34YDGVZKRJ0LZ","3D1UCPY6GGVNRONHL4UEVMXCHLT38H","","635.5999999940395","img/food3.png","76","636.0999999940395","3","0","2","1","1,0.5,0,1,0.5,0,0.5,0,1","0,1,0.5,0,1,0.5,1,0.5,0","3","",""
"","html-keyboard-response","47","70967","0.0-47.0","3UN61F00HXBY9SNBPYT9QJMPTKER5O","A34YDGVZKRJ0LZ","3D1UCPY6GGVNRONHL4UEVMXCHLT38H","","null","<img src=""img/food3.png"" style=""width:200px;border:14px solid red;"">","null","","","","","","","","","",""
"","image-keyboard-response","48","71921","0.0-48.0","3UN61F00HXBY9SNBPYT9QJMPTKER5O","A34YDGVZKRJ0LZ","3D1UCPY6GGVNRONHL4UEVMXCHLT38H","","953","img/food5.png","74","953.6000000238419","1","1","3","1","1,0.5,0,1,0.5,0,0.5,0,1","0,1,0.5,0,1,0.5,1,0.5,0","3","",""
"","html-keyboard-response","49","72223","0.0-49.0","3UN61F00HXBY9SNBPYT9QJMPTKER5O","A34YDGVZKRJ0LZ","3D1UCPY6GGVNRONHL4UEVMXCHLT38H","","null","<img src=""img/food5.png"" style=""width:200px; border:14px solid green;"">","null","","","","","","","","","",""
"","image-keyboard-response","50","72894","0.0-50.0","3UN61F00HXBY9SNBPYT9QJMPTKER5O","A34YDGVZKRJ0LZ","3D1UCPY6GGVNRONHL4UEVMXCHLT38H","","670.0999999940395","img/food5.png","74","670.7000000178814","1","1","3","1","1,0.5,0,1,0.5,0,0.5,0,1","0,1,0.5,0,1,0.5,1,0.5,0","3","",""
"","html-keyboard-response","51","73195","0.0-51.0","3UN61F00HXBY9SNBPYT9QJMPTKER5O","A34YDGVZKRJ0LZ","3D1UCPY6GGVNRONHL4UEVMXCHLT38H","","null","<img src=""img/food5.png"" style=""width:200px; border:14px solid green;"">","null","","","","","","","","","",""
"","image-keyboard-response","52","73823","0.0-52.0","3UN61F00HXBY9SNBPYT9QJMPTKER5O","A34YDGVZKRJ0LZ","3D1UCPY6GGVNRONHL4UEVMXCHLT38H","","627.3000000119209","img/food2.png","75","627.8999999761581","2","1","1","1","1,0.5,0,1,0.5,0,0.5,0,1","0,1,0.5,0,1,0.5,1,0.5,0","3","",""
"","html-keyboard-response","53","74126","0.0-53.0","3UN61F00HXBY9SNBPYT9QJMPTKER5O","A34YDGVZKRJ0LZ","3D1UCPY6GGVNRONHL4UEVMXCHLT38H","","null","<img src=""img/food2.png"" style=""width:200px; border:14px solid green;"">","null","","","","","","","","","",""
"","image-keyboard-response","54","75231","0.0-54.0","3UN61F00HXBY9SNBPYT9QJMPTKER5O","A34YDGVZKRJ0LZ","3D1UCPY6GGVNRONHL4UEVMXCHLT38H","","1104.4000000059605","img/food5.png","74","1105","1","1","3","1","1,0.5,0,1,0.5,0,0.5,0,1","0,1,0.5,0,1,0.5,1,0.5,0","3","",""
"","html-keyboard-response","55","75533","0.0-55.0","3UN61F00HXBY9SNBPYT9QJMPTKER5O","A34YDGVZKRJ0LZ","3D1UCPY6GGVNRONHL4UEVMXCHLT38H","","null","<img src=""img/food5.png"" style=""width:200px; border:14px solid green;"">","null","","","","","","","","","",""
"","image-keyboard-response","56","75939","0.0-56.0","3UN61F00HXBY9SNBPYT9QJMPTKER5O","A34YDGVZKRJ0LZ","3D1UCPY6GGVNRONHL4UEVMXCHLT38H","","406.10000002384186","img/food5.png","74","406.59999999403954","1","1","3","1","1,0.5,0,1,0.5,0,0.5,0,1","0,1,0.5,0,1,0.5,1,0.5,0","3","",""
"","html-keyboard-response","57","76241","0.0-57.0","3UN61F00HXBY9SNBPYT9QJMPTKER5O","A34YDGVZKRJ0LZ","3D1UCPY6GGVNRONHL4UEVMXCHLT38H","","null","<img src=""img/food5.png"" style=""width:200px; border:14px solid green;"">","null","","","","","","","","","",""
"","image-keyboard-response","58","76638","0.0-58.0","3UN61F00HXBY9SNBPYT9QJMPTKER5O","A34YDGVZKRJ0LZ","3D1UCPY6GGVNRONHL4UEVMXCHLT38H","","396.30000001192093","img/food5.png","74","397.09999999403954","1","1","3","1","1,0.5,0,1,0.5,0,0.5,0,1","0,1,0.5,0,1,0.5,1,0.5,0","3","",""
"","html-keyboard-response","59","76939","0.0-59.0","3UN61F00HXBY9SNBPYT9QJMPTKER5O","A34YDGVZKRJ0LZ","3D1UCPY6GGVNRONHL4UEVMXCHLT38H","","null","<img src=""img/food5.png"" style=""width:200px; border:14px solid green;"">","null","","","","","","","","","",""
"","image-keyboard-response","60","77847","0.0-60.0","3UN61F00HXBY9SNBPYT9QJMPTKER5O","A34YDGVZKRJ0LZ","3D1UCPY6GGVNRONHL4UEVMXCHLT38H","","907.3000000119209","img/food3.png","76","907.9000000059605","3","1","2","1","1,0.5,0,1,0.5,0,0.5,0,1","0,1,0.5,0,1,0.5,1,0.5,0","3","",""
"","html-keyboard-response","61","78149","0.0-61.0","3UN61F00HXBY9SNBPYT9QJMPTKER5O","A34YDGVZKRJ0LZ","3D1UCPY6GGVNRONHL4UEVMXCHLT38H","","null","<img src=""img/food3.png"" style=""width:200px; border:14px solid green;"">","null","","","","","","","","","",""
"","image-keyboard-response","62","78986","0.0-62.0","3UN61F00HXBY9SNBPYT9QJMPTKER5O","A34YDGVZKRJ0LZ","3D1UCPY6GGVNRONHL4UEVMXCHLT38H","","836.5","img/food5.png","74","837.5","1","1","3","1","1,0.5,0,1,0.5,0,0.5,0,1","0,1,0.5,0,1,0.5,1,0.5,0","3","",""
"","html-keyboard-response","63","79288","0.0-63.0","3UN61F00HXBY9SNBPYT9QJMPTKER5O","A34YDGVZKRJ0LZ","3D1UCPY6GGVNRONHL4UEVMXCHLT38H","","null","<img src=""img/food5.png"" style=""width:200px; border:14px solid green;"">","null","","","","","","","","","",""
"","image-keyboard-response","64","80176","0.0-64.0","3UN61F00HXBY9SNBPYT9QJMPTKER5O","A34YDGVZKRJ0LZ","3D1UCPY6GGVNRONHL4UEVMXCHLT38H","","887.1000000238419","img/food2.png","75","887.6999999880791","2","1","1","1","1,0.5,0,1,0.5,0,0.5,0,1","0,1,0.5,0,1,0.5,1,0.5,0","3","",""
"","html-keyboard-response","65","80483","0.0-65.0","3UN61F00HXBY9SNBPYT9QJMPTKER5O","A34YDGVZKRJ0LZ","3D1UCPY6GGVNRONHL4UEVMXCHLT38H","","null","<img src=""img/food2.png"" style=""width:200px; border:14px solid green;"">","null","","","","","","","","","",""
"","image-keyboard-response","66","81306","0.0-66.0","3UN61F00HXBY9SNBPYT9QJMPTKER5O","A34YDGVZKRJ0LZ","3D1UCPY6GGVNRONHL4UEVMXCHLT38H","","822.5","img/food3.png","76","823.1999999880791","3","0","2","1","1,0.5,0,1,0.5,0,0.5,0,1","0,1,0.5,0,1,0.5,1,0.5,0","3","",""
"","html-keyboard-response","67","81608","0.0-67.0","3UN61F00HXBY9SNBPYT9QJMPTKER5O","A34YDGVZKRJ0LZ","3D1UCPY6GGVNRONHL4UEVMXCHLT38H","","null","<img src=""img/food3.png"" style=""width:200px;border:14px solid red;"">","null","","","","","","","","","",""
"","image-keyboard-response","68","82036","0.0-68.0","3UN61F00HXBY9SNBPYT9QJMPTKER5O","A34YDGVZKRJ0LZ","3D1UCPY6GGVNRONHL4UEVMXCHLT38H","","427.09999999403954","img/food3.png","76","427.80000001192093","3","1","2","1","1,0.5,0,1,0.5,0,0.5,0,1","0,1,0.5,0,1,0.5,1,0.5,0","3","",""
"","html-keyboard-response","69","82337","0.0-69.0","3UN61F00HXBY9SNBPYT9QJMPTKER5O","A34YDGVZKRJ0LZ","3D1UCPY6GGVNRONHL4UEVMXCHLT38H","","null","<img src=""img/food3.png"" style=""width:200px; border:14px solid green;"">","null","","","","","","","","","",""
"","image-keyboard-response","70","82746","0.0-70.0","3UN61F00HXBY9SNBPYT9QJMPTKER5O","A34YDGVZKRJ0LZ","3D1UCPY6GGVNRONHL4UEVMXCHLT38H","","407.59999999403954","img/food3.png","76","408.5","3","1","2","1","1,0.5,0,1,0.5,0,0.5,0,1","0,1,0.5,0,1,0.5,1,0.5,0","3","",""
"","html-keyboard-response","71","83048","0.0-71.0","3UN61F00HXBY9SNBPYT9QJMPTKER5O","A34YDGVZKRJ0LZ","3D1UCPY6GGVNRONHL4UEVMXCHLT38H","","null","<img src=""img/food3.png"" style=""width:200px; border:14px solid green;"">","null","","","","","","","","","",""
"","image-keyboard-response","72","83450","0.0-72.0","3UN61F00HXBY9SNBPYT9QJMPTKER5O","A34YDGVZKRJ0LZ","3D1UCPY6GGVNRONHL4UEVMXCHLT38H","","401.19999998807907","img/food3.png","76","402","3","1","2","1","1,0.5,0,1,0.5,0,0.5,0,1","0,1,0.5,0,1,0.5,1,0.5,0","3","",""
"","html-keyboard-response","73","83765","0.0-73.0","3UN61F00HXBY9SNBPYT9QJMPTKER5O","A34YDGVZKRJ0LZ","3D1UCPY6GGVNRONHL4UEVMXCHLT38H","","null","<img src=""img/food3.png"" style=""width:200px; border:14px solid green;"">","null","","","","","","","","","",""
"","image-keyboard-response","74","84782","0.0-74.0","3UN61F00HXBY9SNBPYT9QJMPTKER5O","A34YDGVZKRJ0LZ","3D1UCPY6GGVNRONHL4UEVMXCHLT38H","","1015.6999999880791","img/food2.png","75","1016.5999999940395","2","1","1","1","1,0.5,0,1,0.5,0,0.5,0,1","0,1,0.5,0,1,0.5,1,0.5,0","3","",""
"","html-keyboard-response","75","85083","0.0-75.0","3UN61F00HXBY9SNBPYT9QJMPTKER5O","A34YDGVZKRJ0LZ","3D1UCPY6GGVNRONHL4UEVMXCHLT38H","","null","<img src=""img/food2.png"" style=""width:200px; border:14px solid green;"">","null","","","","","","","","","",""
"","image-keyboard-response","76","85467","0.0-76.0","3UN61F00HXBY9SNBPYT9QJMPTKER5O","A34YDGVZKRJ0LZ","3D1UCPY6GGVNRONHL4UEVMXCHLT38H","","382.69999998807907","img/food2.png","75","383.30000001192093","2","1","1","1","1,0.5,0,1,0.5,0,0.5,0,1","0,1,0.5,0,1,0.5,1,0.5,0","3","",""
"","html-keyboard-response","77","85768","0.0-77.0","3UN61F00HXBY9SNBPYT9QJMPTKER5O","A34YDGVZKRJ0LZ","3D1UCPY6GGVNRONHL4UEVMXCHLT38H","","null","<img src=""img/food2.png"" style=""width:200px; border:14px solid green;"">","null","","","","","","","","","",""
"","image-keyboard-response","78","86540","0.0-78.0","3UN61F00HXBY9SNBPYT9QJMPTKER5O","A34YDGVZKRJ0LZ","3D1UCPY6GGVNRONHL4UEVMXCHLT38H","","770.9000000059605","img/food5.png","74","771.5999999940395","1","1","3","1","1,0.5,0,1,0.5,0,0.5,0,1","0,1,0.5,0,1,0.5,1,0.5,0","3","",""
"","html-keyboard-response","79","86843","0.0-79.0","3UN61F00HXBY9SNBPYT9QJMPTKER5O","A34YDGVZKRJ0LZ","3D1UCPY6GGVNRONHL4UEVMXCHLT38H","","null","<img src=""img/food5.png"" style=""width:200px; border:14px solid green;"">","null","","","","","","","","","",""
"","image-keyboard-response","80","87204","0.0-80.0","3UN61F00HXBY9SNBPYT9QJMPTKER5O","A34YDGVZKRJ0LZ","3D1UCPY6GGVNRONHL4UEVMXCHLT38H","","360.5","img/food5.png","74","361.09999999403954","1","1","3","1","1,0.5,0,1,0.5,0,0.5,0,1","0,1,0.5,0,1,0.5,1,0.5,0","3","",""
"","html-keyboard-response","81","87505","0.0-81.0","3UN61F00HXBY9SNBPYT9QJMPTKER5O","A34YDGVZKRJ0LZ","3D1UCPY6GGVNRONHL4UEVMXCHLT38H","","null","<img src=""img/food5.png"" style=""width:200px; border:14px solid green;"">","null","","","","","","","","","",""
"","image-keyboard-response","82","88342","0.0-82.0","3UN61F00HXBY9SNBPYT9QJMPTKER5O","A34YDGVZKRJ0LZ","3D1UCPY6GGVNRONHL4UEVMXCHLT38H","","836.5999999940395","img/food3.png","76","837.1999999880791","3","1","2","1","1,0.5,0,1,0.5,0,0.5,0,1","0,1,0.5,0,1,0.5,1,0.5,0","3","",""
"","html-keyboard-response","83","88645","0.0-83.0","3UN61F00HXBY9SNBPYT9QJMPTKER5O","A34YDGVZKRJ0LZ","3D1UCPY6GGVNRONHL4UEVMXCHLT38H","","null","<img src=""img/food3.png"" style=""width:200px; border:14px solid green;"">","null","","","","","","","","","",""
"","image-keyboard-response","84","88987","0.0-84.0","3UN61F00HXBY9SNBPYT9QJMPTKER5O","A34YDGVZKRJ0LZ","3D1UCPY6GGVNRONHL4UEVMXCHLT38H","","341.60000002384186","img/food3.png","76","342.5","3","0","2","1","1,0.5,0,1,0.5,0,0.5,0,1","0,1,0.5,0,1,0.5,1,0.5,0","3","",""
"","html-keyboard-response","85","89289","0.0-85.0","3UN61F00HXBY9SNBPYT9QJMPTKER5O","A34YDGVZKRJ0LZ","3D1UCPY6GGVNRONHL4UEVMXCHLT38H","","null","<img src=""img/food3.png"" style=""width:200px;border:14px solid red;"">","null","","","","","","","","","",""
"","image-keyboard-response","86","89902","0.0-86.0","3UN61F00HXBY9SNBPYT9QJMPTKER5O","A34YDGVZKRJ0LZ","3D1UCPY6GGVNRONHL4UEVMXCHLT38H","","611.9000000059605","img/food3.png","76","612.5999999940395","3","0","2","1","1,0.5,0,1,0.5,0,0.5,0,1","0,1,0.5,0,1,0.5,1,0.5,0","3","",""
"","html-keyboard-response","87","90203","0.0-87.0","3UN61F00HXBY9SNBPYT9QJMPTKER5O","A34YDGVZKRJ0LZ","3D1UCPY6GGVNRONHL4UEVMXCHLT38H","","null","<img src=""img/food3.png"" style=""width:200px;border:14px solid red;"">","null","","","","","","","","","",""
"","image-keyboard-response","88","90618","0.0-88.0","3UN61F00HXBY9SNBPYT9QJMPTKER5O","A34YDGVZKRJ0LZ","3D1UCPY6GGVNRONHL4UEVMXCHLT38H","","414.10000002384186","img/food3.png","76","414.90000000596046","3","1","2","1","1,0.5,0,1,0.5,0,0.5,0,1","0,1,0.5,0,1,0.5,1,0.5,0","3","",""
"","html-keyboard-response","89","90921","0.0-89.0","3UN61F00HXBY9SNBPYT9QJMPTKER5O","A34YDGVZKRJ0LZ","3D1UCPY6GGVNRONHL4UEVMXCHLT38H","","null","<img src=""img/food3.png"" style=""width:200px; border:14px solid green;"">","null","","","","","","","","","",""
"","image-keyboard-response","90","91692","0.0-90.0","3UN61F00HXBY9SNBPYT9QJMPTKER5O","A34YDGVZKRJ0LZ","3D1UCPY6GGVNRONHL4UEVMXCHLT38H","","770.0999999940395","img/food5.png","74","771","1","1","3","1","1,0.5,0,1,0.5,0,0.5,0,1","0,1,0.5,0,1,0.5,1,0.5,0","3","",""
"","html-keyboard-response","91","91993","0.0-91.0","3UN61F00HXBY9SNBPYT9QJMPTKER5O","A34YDGVZKRJ0LZ","3D1UCPY6GGVNRONHL4UEVMXCHLT38H","","null","<img src=""img/food5.png"" style=""width:200px; border:14px solid green;"">","null","","","","","","","","","",""
"","image-keyboard-response","92","92306","0.0-92.0","3UN61F00HXBY9SNBPYT9QJMPTKER5O","A34YDGVZKRJ0LZ","3D1UCPY6GGVNRONHL4UEVMXCHLT38H","","311.40000000596046","img/food5.png","74","312.09999999403954","1","1","3","1","1,0.5,0,1,0.5,0,0.5,0,1","0,1,0.5,0,1,0.5,1,0.5,0","3","",""
"","html-keyboard-response","93","92608","0.0-93.0","3UN61F00HXBY9SNBPYT9QJMPTKER5O","A34YDGVZKRJ0LZ","3D1UCPY6GGVNRONHL4UEVMXCHLT38H","","null","<img src=""img/food5.png"" style=""width:200px; border:14px solid green;"">","null","","","","","","","","","",""
"","image-keyboard-response","94","93367","0.0-94.0","3UN61F00HXBY9SNBPYT9QJMPTKER5O","A34YDGVZKRJ0LZ","3D1UCPY6GGVNRONHL4UEVMXCHLT38H","","757.2999999821186","img/food2.png","75","758","2","1","1","1","1,0.5,0,1,0.5,0,0.5,0,1","0,1,0.5,0,1,0.5,1,0.5,0","3","",""
"","html-keyboard-response","95","93669","0.0-95.0","3UN61F00HXBY9SNBPYT9QJMPTKER5O","A34YDGVZKRJ0LZ","3D1UCPY6GGVNRONHL4UEVMXCHLT38H","","null","<img src=""img/food2.png"" style=""width:200px; border:14px solid green;"">","null","","","","","","","","","",""
"","image-keyboard-response","96","94463","0.0-96.0","3UN61F00HXBY9SNBPYT9QJMPTKER5O","A34YDGVZKRJ0LZ","3D1UCPY6GGVNRONHL4UEVMXCHLT38H","","793.3000000119209","img/food3.png","76","794","3","0","2","1","1,0.5,0,1,0.5,0,0.5,0,1","0,1,0.5,0,1,0.5,1,0.5,0","3","",""
"","html-keyboard-response","97","94765","0.0-97.0","3UN61F00HXBY9SNBPYT9QJMPTKER5O","A34YDGVZKRJ0LZ","3D1UCPY6GGVNRONHL4UEVMXCHLT38H","","null","<img src=""img/food3.png"" style=""width:200px;border:14px solid red;"">","null","","","","","","","","","",""
"","image-keyboard-response","98","95060","0.0-98.0","3UN61F00HXBY9SNBPYT9QJMPTKER5O","A34YDGVZKRJ0LZ","3D1UCPY6GGVNRONHL4UEVMXCHLT38H","","294.30000001192093","img/food3.png","76","295.2999999821186","3","1","2","1","1,0.5,0,1,0.5,0,0.5,0,1","0,1,0.5,0,1,0.5,1,0.5,0","3","",""
"","html-keyboard-response","99","95362","0.0-99.0","3UN61F00HXBY9SNBPYT9QJMPTKER5O","A34YDGVZKRJ0LZ","3D1UCPY6GGVNRONHL4UEVMXCHLT38H","","null","<img src=""img/food3.png"" style=""width:200px; border:14px solid green;"">","null","","","","","","","","","",""
"","image-keyboard-response","100","96122","0.0-100.0","3UN61F00HXBY9SNBPYT9QJMPTKER5O","A34YDGVZKRJ0LZ","3D1UCPY6GGVNRONHL4UEVMXCHLT38H","","759.3000000119209","img/food5.png","74","760","1","1","3","1","1,0.5,0,1,0.5,0,0.5,0,1","0,1,0.5,0,1,0.5,1,0.5,0","3","",""
"","html-keyboard-response","101","96424","0.0-101.0","3UN61F00HXBY9SNBPYT9QJMPTKER5O","A34YDGVZKRJ0LZ","3D1UCPY6GGVNRONHL4UEVMXCHLT38H","","null","<img src=""img/food5.png"" style=""width:200px; border:14px solid green;"">","null","","","","","","","","","",""
"","image-keyboard-response","102","97065","0.0-102.0","3UN61F00HXBY9SNBPYT9QJMPTKER5O","A34YDGVZKRJ0LZ","3D1UCPY6GGVNRONHL4UEVMXCHLT38H","","640.2999999821186","img/food2.png","75","641.4000000059605","2","1","1","1","1,0.5,0,1,0.5,0,0.5,0,1","0,1,0.5,0,1,0.5,1,0.5,0","3","",""
"","html-keyboard-response","103","97367","0.0-103.0","3UN61F00HXBY9SNBPYT9QJMPTKER5O","A34YDGVZKRJ0LZ","3D1UCPY6GGVNRONHL4UEVMXCHLT38H","","null","<img src=""img/food2.png"" style=""width:200px; border:14px solid green;"">","null","","","","","","","","","",""
"","image-keyboard-response","104","97772","0.0-104.0","3UN61F00HXBY9SNBPYT9QJMPTKER5O","A34YDGVZKRJ0LZ","3D1UCPY6GGVNRONHL4UEVMXCHLT38H","","403.09999999403954","img/food2.png","75","403.89999997615814","2","1","1","1","1,0.5,0,1,0.5,0,0.5,0,1","0,1,0.5,0,1,0.5,1,0.5,0","3","",""
"","html-keyboard-response","105","98073","0.0-105.0","3UN61F00HXBY9SNBPYT9QJMPTKER5O","A34YDGVZKRJ0LZ","3D1UCPY6GGVNRONHL4UEVMXCHLT38H","","null","<img src=""img/food2.png"" style=""width:200px; border:14px solid green;"">","null","","","","","","","","","",""
"","image-keyboard-response","106","99011","0.0-106.0","3UN61F00HXBY9SNBPYT9QJMPTKER5O","A34YDGVZKRJ0LZ","3D1UCPY6GGVNRONHL4UEVMXCHLT38H","","936.5","img/food5.png","74","938.4000000059605","1","1","3","1","1,0.5,0,1,0.5,0,0.5,0,1","0,1,0.5,0,1,0.5,1,0.5,0","3","",""
"","html-keyboard-response","107","99314","0.0-107.0","3UN61F00HXBY9SNBPYT9QJMPTKER5O","A34YDGVZKRJ0LZ","3D1UCPY6GGVNRONHL4UEVMXCHLT38H","","null","<img src=""img/food5.png"" style=""width:200px; border:14px solid green;"">","null","","","","","","","","","",""
"","image-keyboard-response","108","100779","0.0-108.0","3UN61F00HXBY9SNBPYT9QJMPTKER5O","A34YDGVZKRJ0LZ","3D1UCPY6GGVNRONHL4UEVMXCHLT38H","","1464.2999999821186","img/food3.png","76","1465.0999999940395","3","0","2","1","1,0.5,0,1,0.5,0,0.5,0,1","0,1,0.5,0,1,0.5,1,0.5,0","3","",""
"","html-keyboard-response","109","101081","0.0-109.0","3UN61F00HXBY9SNBPYT9QJMPTKER5O","A34YDGVZKRJ0LZ","3D1UCPY6GGVNRONHL4UEVMXCHLT38H","","null","<img src=""img/food3.png"" style=""width:200px;border:14px solid red;"">","null","","","","","","","","","",""
"","image-keyboard-response","110","101394","0.0-110.0","3UN61F00HXBY9SNBPYT9QJMPTKER5O","A34YDGVZKRJ0LZ","3D1UCPY6GGVNRONHL4UEVMXCHLT38H","","312","img/food3.png","76","312.89999997615814","3","1","2","1","1,0.5,0,1,0.5,0,0.5,0,1","0,1,0.5,0,1,0.5,1,0.5,0","3","",""
"","html-keyboard-response","111","101696","0.0-111.0","3UN61F00HXBY9SNBPYT9QJMPTKER5O","A34YDGVZKRJ0LZ","3D1UCPY6GGVNRONHL4UEVMXCHLT38H","","null","<img src=""img/food3.png"" style=""width:200px; border:14px solid green;"">","null","","","","","","","","","",""
"","image-keyboard-response","112","102440","0.0-112.0","3UN61F00HXBY9SNBPYT9QJMPTKER5O","A34YDGVZKRJ0LZ","3D1UCPY6GGVNRONHL4UEVMXCHLT38H","","743","img/food2.png","75","743.8000000119209","2","1","1","1","1,0.5,0,1,0.5,0,0.5,0,1","0,1,0.5,0,1,0.5,1,0.5,0","3","",""
"","html-keyboard-response","113","102742","0.0-113.0","3UN61F00HXBY9SNBPYT9QJMPTKER5O","A34YDGVZKRJ0LZ","3D1UCPY6GGVNRONHL4UEVMXCHLT38H","","null","<img src=""img/food2.png"" style=""width:200px; border:14px solid green;"">","null","","","","","","","","","",""
"","image-keyboard-response","114","103094","0.0-114.0","3UN61F00HXBY9SNBPYT9QJMPTKER5O","A34YDGVZKRJ0LZ","3D1UCPY6GGVNRONHL4UEVMXCHLT38H","","352.09999999403954","img/food2.png","75","352.89999997615814","2","1","1","1","1,0.5,0,1,0.5,0,0.5,0,1","0,1,0.5,0,1,0.5,1,0.5,0","3","",""
"","html-keyboard-response","115","103397","0.0-115.0","3UN61F00HXBY9SNBPYT9QJMPTKER5O","A34YDGVZKRJ0LZ","3D1UCPY6GGVNRONHL4UEVMXCHLT38H","","null","<img src=""img/food2.png"" style=""width:200px; border:14px solid green;"">","null","","","","","","","","","",""
"","image-keyboard-response","116","104042","0.0-116.0","3UN61F00HXBY9SNBPYT9QJMPTKER5O","A34YDGVZKRJ0LZ","3D1UCPY6GGVNRONHL4UEVMXCHLT38H","","644.9000000059605","img/food5.png","74","645.5999999940395","1","1","3","1","1,0.5,0,1,0.5,0,0.5,0,1","0,1,0.5,0,1,0.5,1,0.5,0","3","",""
"","html-keyboard-response","117","104345","0.0-117.0","3UN61F00HXBY9SNBPYT9QJMPTKER5O","A34YDGVZKRJ0LZ","3D1UCPY6GGVNRONHL4UEVMXCHLT38H","","null","<img src=""img/food5.png"" style=""width:200px; border:14px solid green;"">","null","","","","","","","","","",""
"","image-keyboard-response","118","105633","0.0-118.0","3UN61F00HXBY9SNBPYT9QJMPTKER5O","A34YDGVZKRJ0LZ","3D1UCPY6GGVNRONHL4UEVMXCHLT38H","","1287.0999999940395","img/food3.png","76","1287.7000000178814","3","1","2","1","1,0.5,0,1,0.5,0,0.5,0,1","0,1,0.5,0,1,0.5,1,0.5,0","3","",""
"","html-keyboard-response","119","105934","0.0-119.0","3UN61F00HXBY9SNBPYT9QJMPTKER5O","A34YDGVZKRJ0LZ","3D1UCPY6GGVNRONHL4UEVMXCHLT38H","","null","<img src=""img/food3.png"" style=""width:200px; border:14px solid green;"">","null","","","","","","","","","",""
"","image-keyboard-response","120","106296","0.0-120.0","3UN61F00HXBY9SNBPYT9QJMPTKER5O","A34YDGVZKRJ0LZ","3D1UCPY6GGVNRONHL4UEVMXCHLT38H","","362.10000002384186","img/food3.png","76","362.69999998807907","3","1","2","1","1,0.5,0,1,0.5,0,0.5,0,1","0,1,0.5,0,1,0.5,1,0.5,0","3","",""
"","html-keyboard-response","121","106598","0.0-121.0","3UN61F00HXBY9SNBPYT9QJMPTKER5O","A34YDGVZKRJ0LZ","3D1UCPY6GGVNRONHL4UEVMXCHLT38H","","null","<img src=""img/food3.png"" style=""width:200px; border:14px solid green;"">","null","","","","","","","","","",""
"","image-keyboard-response","122","106930","0.0-122.0","3UN61F00HXBY9SNBPYT9QJMPTKER5O","A34YDGVZKRJ0LZ","3D1UCPY6GGVNRONHL4UEVMXCHLT38H","","331.60000002384186","img/food3.png","76","332","3","0","2","1","1,0.5,0,1,0.5,0,0.5,0,1","0,1,0.5,0,1,0.5,1,0.5,0","3","",""
"","html-keyboard-response","123","107233","0.0-123.0","3UN61F00HXBY9SNBPYT9QJMPTKER5O","A34YDGVZKRJ0LZ","3D1UCPY6GGVNRONHL4UEVMXCHLT38H","","null","<img src=""img/food3.png"" style=""width:200px;border:14px solid red;"">","null","","","","","","","","","",""
"","image-keyboard-response","124","108025","0.0-124.0","3UN61F00HXBY9SNBPYT9QJMPTKER5O","A34YDGVZKRJ0LZ","3D1UCPY6GGVNRONHL4UEVMXCHLT38H","","791.2000000178814","img/food3.png","76","791.9000000059605","3","1","2","1","1,0.5,0,1,0.5,0,0.5,0,1","0,1,0.5,0,1,0.5,1,0.5,0","3","",""
"","html-keyboard-response","125","108326","0.0-125.0","3UN61F00HXBY9SNBPYT9QJMPTKER5O","A34YDGVZKRJ0LZ","3D1UCPY6GGVNRONHL4UEVMXCHLT38H","","null","<img src=""img/food3.png"" style=""width:200px; border:14px solid green;"">","null","","","","","","","","","",""
"","image-keyboard-response","126","108696","0.0-126.0","3UN61F00HXBY9SNBPYT9QJMPTKER5O","A34YDGVZKRJ0LZ","3D1UCPY6GGVNRONHL4UEVMXCHLT38H","","368.90000000596046","img/food3.png","76","369.80000001192093","3","1","2","1","1,0.5,0,1,0.5,0,0.5,0,1","0,1,0.5,0,1,0.5,1,0.5,0","3","",""
"","html-keyboard-response","127","108998","0.0-127.0","3UN61F00HXBY9SNBPYT9QJMPTKER5O","A34YDGVZKRJ0LZ","3D1UCPY6GGVNRONHL4UEVMXCHLT38H","","null","<img src=""img/food3.png"" style=""width:200px; border:14px solid green;"">","null","","","","","","","","","",""
"","image-keyboard-response","128","109847","0.0-128.0","3UN61F00HXBY9SNBPYT9QJMPTKER5O","A34YDGVZKRJ0LZ","3D1UCPY6GGVNRONHL4UEVMXCHLT38H","","848.3000000119209","img/food5.png","74","849.0999999940395","1","1","3","1","1,0.5,0,1,0.5,0,0.5,0,1","0,1,0.5,0,1,0.5,1,0.5,0","3","",""
"","html-keyboard-response","129","110149","0.0-129.0","3UN61F00HXBY9SNBPYT9QJMPTKER5O","A34YDGVZKRJ0LZ","3D1UCPY6GGVNRONHL4UEVMXCHLT38H","","null","<img src=""img/food5.png"" style=""width:200px; border:14px solid green;"">","null","","","","","","","","","",""
"","image-keyboard-response","130","110817","0.0-130.0","3UN61F00HXBY9SNBPYT9QJMPTKER5O","A34YDGVZKRJ0LZ","3D1UCPY6GGVNRONHL4UEVMXCHLT38H","","666.4000000059605","img/food2.png","75","667","2","1","1","1","1,0.5,0,1,0.5,0,0.5,0,1","0,1,0.5,0,1,0.5,1,0.5,0","3","",""
"","html-keyboard-response","131","111118","0.0-131.0","3UN61F00HXBY9SNBPYT9QJMPTKER5O","A34YDGVZKRJ0LZ","3D1UCPY6GGVNRONHL4UEVMXCHLT38H","","null","<img src=""img/food2.png"" style=""width:200px; border:14px solid green;"">","null","","","","","","","","","",""
"","image-keyboard-response","132","111491","0.0-132.0","3UN61F00HXBY9SNBPYT9QJMPTKER5O","A34YDGVZKRJ0LZ","3D1UCPY6GGVNRONHL4UEVMXCHLT38H","","372","img/food2.png","75","372.59999999403954","2","1","1","1","1,0.5,0,1,0.5,0,0.5,0,1","0,1,0.5,0,1,0.5,1,0.5,0","3","",""
"","html-keyboard-response","133","111793","0.0-133.0","3UN61F00HXBY9SNBPYT9QJMPTKER5O","A34YDGVZKRJ0LZ","3D1UCPY6GGVNRONHL4UEVMXCHLT38H","","null","<img src=""img/food2.png"" style=""width:200px; border:14px solid green;"">","null","","","","","","","","","",""
"","image-keyboard-response","134","112623","0.0-134.0","3UN61F00HXBY9SNBPYT9QJMPTKER5O","A34YDGVZKRJ0LZ","3D1UCPY6GGVNRONHL4UEVMXCHLT38H","","829.6000000238419","img/food5.png","74","830.1999999880791","1","1","3","1","1,0.5,0,1,0.5,0,0.5,0,1","0,1,0.5,0,1,0.5,1,0.5,0","3","",""
"","html-keyboard-response","135","112924","0.0-135.0","3UN61F00HXBY9SNBPYT9QJMPTKER5O","A34YDGVZKRJ0LZ","3D1UCPY6GGVNRONHL4UEVMXCHLT38H","","null","<img src=""img/food5.png"" style=""width:200px; border:14px solid green;"">","null","","","","","","","","","",""
"","image-keyboard-response","136","113528","0.0-136.0","3UN61F00HXBY9SNBPYT9QJMPTKER5O","A34YDGVZKRJ0LZ","3D1UCPY6GGVNRONHL4UEVMXCHLT38H","","602.5999999940395","img/food2.png","75","603.3000000119209","2","1","1","1","1,0.5,0,1,0.5,0,0.5,0,1","0,1,0.5,0,1,0.5,1,0.5,0","3","",""
"","html-keyboard-response","137","113829","0.0-137.0","3UN61F00HXBY9SNBPYT9QJMPTKER5O","A34YDGVZKRJ0LZ","3D1UCPY6GGVNRONHL4UEVMXCHLT38H","","null","<img src=""img/food2.png"" style=""width:200px; border:14px solid green;"">","null","","","","","","","","","",""
"","image-keyboard-response","138","114262","0.0-138.0","3UN61F00HXBY9SNBPYT9QJMPTKER5O","A34YDGVZKRJ0LZ","3D1UCPY6GGVNRONHL4UEVMXCHLT38H","","431.40000000596046","img/food2.png","75","432.19999998807907","2","1","1","1","1,0.5,0,1,0.5,0,0.5,0,1","0,1,0.5,0,1,0.5,1,0.5,0","3","",""
"","html-keyboard-response","139","114564","0.0-139.0","3UN61F00HXBY9SNBPYT9QJMPTKER5O","A34YDGVZKRJ0LZ","3D1UCPY6GGVNRONHL4UEVMXCHLT38H","","null","<img src=""img/food2.png"" style=""width:200px; border:14px solid green;"">","null","","","","","","","","","",""
"","image-keyboard-response","140","115157","0.0-140.0","3UN61F00HXBY9SNBPYT9QJMPTKER5O","A34YDGVZKRJ0LZ","3D1UCPY6GGVNRONHL4UEVMXCHLT38H","","591.7000000178814","img/food5.png","74","592.4000000059605","1","1","3","1","1,0.5,0,1,0.5,0,0.5,0,1","0,1,0.5,0,1,0.5,1,0.5,0","3","",""
"","html-keyboard-response","141","115459","0.0-141.0","3UN61F00HXBY9SNBPYT9QJMPTKER5O","A34YDGVZKRJ0LZ","3D1UCPY6GGVNRONHL4UEVMXCHLT38H","","null","<img src=""img/food5.png"" style=""width:200px; border:14px solid green;"">","null","","","","","","","","","",""
"","image-keyboard-response","142","115763","0.0-142.0","3UN61F00HXBY9SNBPYT9QJMPTKER5O","A34YDGVZKRJ0LZ","3D1UCPY6GGVNRONHL4UEVMXCHLT38H","","302.59999999403954","img/food5.png","74","303.10000002384186","1","1","3","1","1,0.5,0,1,0.5,0,0.5,0,1","0,1,0.5,0,1,0.5,1,0.5,0","3","",""
"","html-keyboard-response","143","116065","0.0-143.0","3UN61F00HXBY9SNBPYT9QJMPTKER5O","A34YDGVZKRJ0LZ","3D1UCPY6GGVNRONHL4UEVMXCHLT38H","","null","<img src=""img/food5.png"" style=""width:200px; border:14px solid green;"">","null","","","","","","","","","",""
"","image-keyboard-response","144","116636","0.0-144.0","3UN61F00HXBY9SNBPYT9QJMPTKER5O","A34YDGVZKRJ0LZ","3D1UCPY6GGVNRONHL4UEVMXCHLT38H","","570.5","img/food2.png","75","571.1999999880791","2","1","1","1","1,0.5,0,1,0.5,0,0.5,0,1","0,1,0.5,0,1,0.5,1,0.5,0","3","",""
"","html-keyboard-response","145","116937","0.0-145.0","3UN61F00HXBY9SNBPYT9QJMPTKER5O","A34YDGVZKRJ0LZ","3D1UCPY6GGVNRONHL4UEVMXCHLT38H","","null","<img src=""img/food2.png"" style=""width:200px; border:14px solid green;"">","null","","","","","","","","","",""
"","image-keyboard-response","146","117273","0.0-146.0","3UN61F00HXBY9SNBPYT9QJMPTKER5O","A34YDGVZKRJ0LZ","3D1UCPY6GGVNRONHL4UEVMXCHLT38H","","334.80000001192093","img/food2.png","75","335.5","2","1","1","1","1,0.5,0,1,0.5,0,0.5,0,1","0,1,0.5,0,1,0.5,1,0.5,0","3","",""
"","html-keyboard-response","147","117574","0.0-147.0","3UN61F00HXBY9SNBPYT9QJMPTKER5O","A34YDGVZKRJ0LZ","3D1UCPY6GGVNRONHL4UEVMXCHLT38H","","null","<img src=""img/food2.png"" style=""width:200px; border:14px solid green;"">","null","","","","","","","","","",""
"","image-keyboard-response","148","117933","0.0-148.0","3UN61F00HXBY9SNBPYT9QJMPTKER5O","A34YDGVZKRJ0LZ","3D1UCPY6GGVNRONHL4UEVMXCHLT38H","","358.40000000596046","img/food2.png","75","359.10000002384186","2","1","1","1","1,0.5,0,1,0.5,0,0.5,0,1","0,1,0.5,0,1,0.5,1,0.5,0","3","",""
"","html-keyboard-response","149","118235","0.0-149.0","3UN61F00HXBY9SNBPYT9QJMPTKER5O","A34YDGVZKRJ0LZ","3D1UCPY6GGVNRONHL4UEVMXCHLT38H","","null","<img src=""img/food2.png"" style=""width:200px; border:14px solid green;"">","null","","","","","","","","","",""
"","image-keyboard-response","150","118943","0.0-150.0","3UN61F00HXBY9SNBPYT9QJMPTKER5O","A34YDGVZKRJ0LZ","3D1UCPY6GGVNRONHL4UEVMXCHLT38H","","707.3000000119209","img/food3.png","76","707.9000000059605","3","0","2","1","1,0.5,0,1,0.5,0,0.5,0,1","0,1,0.5,0,1,0.5,1,0.5,0","3","",""
"","html-keyboard-response","151","119245","0.0-151.0","3UN61F00HXBY9SNBPYT9QJMPTKER5O","A34YDGVZKRJ0LZ","3D1UCPY6GGVNRONHL4UEVMXCHLT38H","","null","<img src=""img/food3.png"" style=""width:200px;border:14px solid red;"">","null","","","","","","","","","",""
"","image-keyboard-response","152","120083","0.0-152.0","3UN61F00HXBY9SNBPYT9QJMPTKER5O","A34YDGVZKRJ0LZ","3D1UCPY6GGVNRONHL4UEVMXCHLT38H","","836.2000000178814","img/food2.png","75","836.8000000119209","2","1","1","1","1,0.5,0,1,0.5,0,0.5,0,1","0,1,0.5,0,1,0.5,1,0.5,0","3","",""
"","html-keyboard-response","153","120384","0.0-153.0","3UN61F00HXBY9SNBPYT9QJMPTKER5O","A34YDGVZKRJ0LZ","3D1UCPY6GGVNRONHL4UEVMXCHLT38H","","null","<img src=""img/food2.png"" style=""width:200px; border:14px solid green;"">","null","","","","","","","","","",""
"","image-keyboard-response","154","120732","0.0-154.0","3UN61F00HXBY9SNBPYT9QJMPTKER5O","A34YDGVZKRJ0LZ","3D1UCPY6GGVNRONHL4UEVMXCHLT38H","","346.30000001192093","img/food2.png","75","347","2","1","1","1","1,0.5,0,1,0.5,0,0.5,0,1","0,1,0.5,0,1,0.5,1,0.5,0","3","",""
"","html-keyboard-response","155","121033","0.0-155.0","3UN61F00HXBY9SNBPYT9QJMPTKER5O","A34YDGVZKRJ0LZ","3D1UCPY6GGVNRONHL4UEVMXCHLT38H","","null","<img src=""img/food2.png"" style=""width:200px; border:14px solid green;"">","null","","","","","","","","","",""
"","image-keyboard-response","156","121630","0.0-156.0","3UN61F00HXBY9SNBPYT9QJMPTKER5O","A34YDGVZKRJ0LZ","3D1UCPY6GGVNRONHL4UEVMXCHLT38H","","596.0999999940395","img/food5.png","74","596.7000000178814","1","1","3","1","1,0.5,0,1,0.5,0,0.5,0,1","0,1,0.5,0,1,0.5,1,0.5,0","3","",""
"","html-keyboard-response","157","121932","0.0-157.0","3UN61F00HXBY9SNBPYT9QJMPTKER5O","A34YDGVZKRJ0LZ","3D1UCPY6GGVNRONHL4UEVMXCHLT38H","","null","<img src=""img/food5.png"" style=""width:200px; border:14px solid green;"">","null","","","","","","","","","",""
"","image-keyboard-response","158","122251","0.0-158.0","3UN61F00HXBY9SNBPYT9QJMPTKER5O","A34YDGVZKRJ0LZ","3D1UCPY6GGVNRONHL4UEVMXCHLT38H","","317.5","img/food5.png","74","318.5","1","1","3","1","1,0.5,0,1,0.5,0,0.5,0,1","0,1,0.5,0,1,0.5,1,0.5,0","3","",""
"","html-keyboard-response","159","122553","0.0-159.0","3UN61F00HXBY9SNBPYT9QJMPTKER5O","A34YDGVZKRJ0LZ","3D1UCPY6GGVNRONHL4UEVMXCHLT38H","","null","<img src=""img/food5.png"" style=""width:200px; border:14px solid green;"">","null","","","","","","","","","",""
"","image-keyboard-response","160","123184","0.0-160.0","3UN61F00HXBY9SNBPYT9QJMPTKER5O","A34YDGVZKRJ0LZ","3D1UCPY6GGVNRONHL4UEVMXCHLT38H","","630.6000000238419","img/food2.png","75","631.3000000119209","2","1","1","1","1,0.5,0,1,0.5,0,0.5,0,1","0,1,0.5,0,1,0.5,1,0.5,0","3","",""
"","html-keyboard-response","161","123486","0.0-161.0","3UN61F00HXBY9SNBPYT9QJMPTKER5O","A34YDGVZKRJ0LZ","3D1UCPY6GGVNRONHL4UEVMXCHLT38H","","null","<img src=""img/food2.png"" style=""width:200px; border:14px solid green;"">","null","","","","","","","","","",""
"","image-keyboard-response","162","124353","0.0-162.0","3UN61F00HXBY9SNBPYT9QJMPTKER5O","A34YDGVZKRJ0LZ","3D1UCPY6GGVNRONHL4UEVMXCHLT38H","","866.2000000178814","img/food5.png","74","867","1","1","3","1","1,0.5,0,1,0.5,0,0.5,0,1","0,1,0.5,0,1,0.5,1,0.5,0","3","",""
"","html-keyboard-response","163","124654","0.0-163.0","3UN61F00HXBY9SNBPYT9QJMPTKER5O","A34YDGVZKRJ0LZ","3D1UCPY6GGVNRONHL4UEVMXCHLT38H","","null","<img src=""img/food5.png"" style=""width:200px; border:14px solid green;"">","null","","","","","","","","","",""
"","image-keyboard-response","164","125277","0.0-164.0","3UN61F00HXBY9SNBPYT9QJMPTKER5O","A34YDGVZKRJ0LZ","3D1UCPY6GGVNRONHL4UEVMXCHLT38H","","622.5999999940395","img/food2.png","75","623.2000000178814","2","1","1","1","1,0.5,0,1,0.5,0,0.5,0,1","0,1,0.5,0,1,0.5,1,0.5,0","3","",""
"","html-keyboard-response","165","125594","0.0-165.0","3UN61F00HXBY9SNBPYT9QJMPTKER5O","A34YDGVZKRJ0LZ","3D1UCPY6GGVNRONHL4UEVMXCHLT38H","","null","<img src=""img/food2.png"" style=""width:200px; border:14px solid green;"">","null","","","","","","","","","",""
"","image-keyboard-response","166","126008","0.0-166.0","3UN61F00HXBY9SNBPYT9QJMPTKER5O","A34YDGVZKRJ0LZ","3D1UCPY6GGVNRONHL4UEVMXCHLT38H","","412.19999998807907","img/food2.png","75","413","2","1","1","1","1,0.5,0,1,0.5,0,0.5,0,1","0,1,0.5,0,1,0.5,1,0.5,0","3","",""
"","html-keyboard-response","167","126309","0.0-167.0","3UN61F00HXBY9SNBPYT9QJMPTKER5O","A34YDGVZKRJ0LZ","3D1UCPY6GGVNRONHL4UEVMXCHLT38H","","null","<img src=""img/food2.png"" style=""width:200px; border:14px solid green;"">","null","","","","","","","","","",""
"","image-keyboard-response","168","126637","0.0-168.0","3UN61F00HXBY9SNBPYT9QJMPTKER5O","A34YDGVZKRJ0LZ","3D1UCPY6GGVNRONHL4UEVMXCHLT38H","","327.09999999403954","img/food2.png","75","327.69999998807907","2","1","1","1","1,0.5,0,1,0.5,0,0.5,0,1","0,1,0.5,0,1,0.5,1,0.5,0","3","",""
"","html-keyboard-response","169","126939","0.0-169.0","3UN61F00HXBY9SNBPYT9QJMPTKER5O","A34YDGVZKRJ0LZ","3D1UCPY6GGVNRONHL4UEVMXCHLT38H","","null","<img src=""img/food2.png"" style=""width:200px; border:14px solid green;"">","null","","","","","","","","","",""
"","image-keyboard-response","170","127296","0.0-170.0","3UN61F00HXBY9SNBPYT9QJMPTKER5O","A34YDGVZKRJ0LZ","3D1UCPY6GGVNRONHL4UEVMXCHLT38H","","356.59999999403954","img/food2.png","75","357.2000000178814","2","1","1","1","1,0.5,0,1,0.5,0,0.5,0,1","0,1,0.5,0,1,0.5,1,0.5,0","3","",""
"","html-keyboard-response","171","127598","0.0-171.0","3UN61F00HXBY9SNBPYT9QJMPTKER5O","A34YDGVZKRJ0LZ","3D1UCPY6GGVNRONHL4UEVMXCHLT38H","","null","<img src=""img/food2.png"" style=""width:200px; border:14px solid green;"">","null","","","","","","","","","",""
"","image-keyboard-response","172","128236","0.0-172.0","3UN61F00HXBY9SNBPYT9QJMPTKER5O","A34YDGVZKRJ0LZ","3D1UCPY6GGVNRONHL4UEVMXCHLT38H","","637.1000000238419","img/food5.png","74","637.7000000178814","1","1","3","1","1,0.5,0,1,0.5,0,0.5,0,1","0,1,0.5,0,1,0.5,1,0.5,0","3","",""
"","html-keyboard-response","173","128538","0.0-173.0","3UN61F00HXBY9SNBPYT9QJMPTKER5O","A34YDGVZKRJ0LZ","3D1UCPY6GGVNRONHL4UEVMXCHLT38H","","null","<img src=""img/food5.png"" style=""width:200px; border:14px solid green;"">","null","","","","","","","","","",""
"","image-keyboard-response","174","128801","0.0-174.0","3UN61F00HXBY9SNBPYT9QJMPTKER5O","A34YDGVZKRJ0LZ","3D1UCPY6GGVNRONHL4UEVMXCHLT38H","","262.19999998807907","img/food2.png","74","263.30000001192093","1","0","1","1","1,0.5,0,1,0.5,0,0.5,0,1","0,1,0.5,0,1,0.5,1,0.5,0","3","",""
"","html-keyboard-response","175","129103","0.0-175.0","3UN61F00HXBY9SNBPYT9QJMPTKER5O","A34YDGVZKRJ0LZ","3D1UCPY6GGVNRONHL4UEVMXCHLT38H","","null","<img src=""img/food2.png"" style=""width:200px;border:14px solid red;"">","null","","","","","","","","","",""
"","image-keyboard-response","176","129884","0.0-176.0","3UN61F00HXBY9SNBPYT9QJMPTKER5O","A34YDGVZKRJ0LZ","3D1UCPY6GGVNRONHL4UEVMXCHLT38H","","780.5999999940395","img/food5.png","74","781.4000000059605","1","1","3","1","1,0.5,0,1,0.5,0,0.5,0,1","0,1,0.5,0,1,0.5,1,0.5,0","3","",""
"","html-keyboard-response","177","130186","0.0-177.0","3UN61F00HXBY9SNBPYT9QJMPTKER5O","A34YDGVZKRJ0LZ","3D1UCPY6GGVNRONHL4UEVMXCHLT38H","","null","<img src=""img/food5.png"" style=""width:200px; border:14px solid green;"">","null","","","","","","","","","",""
"","image-keyboard-response","178","130851","0.0-178.0","3UN61F00HXBY9SNBPYT9QJMPTKER5O","A34YDGVZKRJ0LZ","3D1UCPY6GGVNRONHL4UEVMXCHLT38H","","663.7000000178814","img/food3.png","76","664.1999999880791","3","1","2","1","1,0.5,0,1,0.5,0,0.5,0,1","0,1,0.5,0,1,0.5,1,0.5,0","3","",""
"","html-keyboard-response","179","131152","0.0-179.0","3UN61F00HXBY9SNBPYT9QJMPTKER5O","A34YDGVZKRJ0LZ","3D1UCPY6GGVNRONHL4UEVMXCHLT38H","","null","<img src=""img/food3.png"" style=""width:200px; border:14px solid green;"">","null","","","","","","","","","",""
"","image-keyboard-response","180","131478","0.0-180.0","3UN61F00HXBY9SNBPYT9QJMPTKER5O","A34YDGVZKRJ0LZ","3D1UCPY6GGVNRONHL4UEVMXCHLT38H","","325.19999998807907","img/food3.png","76","325.89999997615814","3","0","2","1","1,0.5,0,1,0.5,0,0.5,0,1","0,1,0.5,0,1,0.5,1,0.5,0","3","",""
"","html-keyboard-response","181","131779","0.0-181.0","3UN61F00HXBY9SNBPYT9QJMPTKER5O","A34YDGVZKRJ0LZ","3D1UCPY6GGVNRONHL4UEVMXCHLT38H","","null","<img src=""img/food3.png"" style=""width:200px;border:14px solid red;"">","null","","","","","","","","","",""
"","html-keyboard-response","182","134738","0.0-182.0","3UN61F00HXBY9SNBPYT9QJMPTKER5O","A34YDGVZKRJ0LZ","3D1UCPY6GGVNRONHL4UEVMXCHLT38H","","","","","","","","","","","","","",""
"","instructions","183","147668","0.0-183.0","3UN61F00HXBY9SNBPYT9QJMPTKER5O","A34YDGVZKRJ0LZ","3D1UCPY6GGVNRONHL4UEVMXCHLT38H","[{""page_index"":0,""viewing_time"":11320.300000011921},{""page_index"":1,""viewing_time"":1608.199999988079}]","12928.800000011921","","","","","","","","","","","",""
"","image-keyboard-response","184","148670","0.0-184.0","3UN61F00HXBY9SNBPYT9QJMPTKER5O","A34YDGVZKRJ0LZ","3D1UCPY6GGVNRONHL4UEVMXCHLT38H","","","img/food4.png","","1002.2000000178814","-1","0","1","2","1,0.5,0,1,0.5,0,0.5,0,1","0,1,0.5,0,1,0.5,1,0.5,0","3","true",""
"","html-keyboard-response","185","148972","0.0-185.0","3UN61F00HXBY9SNBPYT9QJMPTKER5O","A34YDGVZKRJ0LZ","3D1UCPY6GGVNRONHL4UEVMXCHLT38H","","null","<img src=""img/food4.png"" style=""width:200px;border:14px solid red;"">","null","","","","","","","","","",""
"","html-keyboard-response","186","152978","0.0-186.0-0.0","3UN61F00HXBY9SNBPYT9QJMPTKER5O","A34YDGVZKRJ0LZ","3D1UCPY6GGVNRONHL4UEVMXCHLT38H","","","","","","","","","","","","","",""
"","image-keyboard-response","187","153481","0.0-187.0","3UN61F00HXBY9SNBPYT9QJMPTKER5O","A34YDGVZKRJ0LZ","3D1UCPY6GGVNRONHL4UEVMXCHLT38H","","502.30000001192093","img/food1.png","74","503.19999998807907","1","1","3","2","1,0.5,0,1,0.5,0,0.5,0,1","0,1,0.5,0,1,0.5,1,0.5,0","3","false",""
"","html-keyboard-response","188","153782","0.0-188.0","3UN61F00HXBY9SNBPYT9QJMPTKER5O","A34YDGVZKRJ0LZ","3D1UCPY6GGVNRONHL4UEVMXCHLT38H","","null","<img src=""img/food1.png"" style=""width:200px; border:14px solid green;"">","null","","","","","","","","","",""
"","image-keyboard-response","189","154366","0.0-190.0","3UN61F00HXBY9SNBPYT9QJMPTKER5O","A34YDGVZKRJ0LZ","3D1UCPY6GGVNRONHL4UEVMXCHLT38H","","583","img/food4.png","75","583.4000000059605","2","1","1","2","1,0.5,0,1,0.5,0,0.5,0,1","0,1,0.5,0,1,0.5,1,0.5,0","3","false",""
"","html-keyboard-response","190","154668","0.0-191.0","3UN61F00HXBY9SNBPYT9QJMPTKER5O","A34YDGVZKRJ0LZ","3D1UCPY6GGVNRONHL4UEVMXCHLT38H","","null","<img src=""img/food4.png"" style=""width:200px; border:14px solid green;"">","null","","","","","","","","","",""
"","image-keyboard-response","191","155255","0.0-193.0","3UN61F00HXBY9SNBPYT9QJMPTKER5O","A34YDGVZKRJ0LZ","3D1UCPY6GGVNRONHL4UEVMXCHLT38H","","586.4000000059605","img/food6.png","76","586.8000000119209","3","0","2","2","1,0.5,0,1,0.5,0,0.5,0,1","0,1,0.5,0,1,0.5,1,0.5,0","3","false",""
"","html-keyboard-response","192","155558","0.0-194.0","3UN61F00HXBY9SNBPYT9QJMPTKER5O","A34YDGVZKRJ0LZ","3D1UCPY6GGVNRONHL4UEVMXCHLT38H","","null","<img src=""img/food6.png"" style=""width:200px;border:14px solid red;"">","null","","","","","","","","","",""
"","image-keyboard-response","193","156241","0.0-196.0","3UN61F00HXBY9SNBPYT9QJMPTKER5O","A34YDGVZKRJ0LZ","3D1UCPY6GGVNRONHL4UEVMXCHLT38H","","682.3000000119209","img/food4.png","75","683.0999999940395","2","1","1","2","1,0.5,0,1,0.5,0,0.5,0,1","0,1,0.5,0,1,0.5,1,0.5,0","3","false",""
"","html-keyboard-response","194","156543","0.0-197.0","3UN61F00HXBY9SNBPYT9QJMPTKER5O","A34YDGVZKRJ0LZ","3D1UCPY6GGVNRONHL4UEVMXCHLT38H","","null","<img src=""img/food4.png"" style=""width:200px; border:14px solid green;"">","null","","","","","","","","","",""
"","image-keyboard-response","195","157072","0.0-199.0","3UN61F00HXBY9SNBPYT9QJMPTKER5O","A34YDGVZKRJ0LZ","3D1UCPY6GGVNRONHL4UEVMXCHLT38H","","528.6000000238419","img/food4.png","75","529.3000000119209","2","1","1","2","1,0.5,0,1,0.5,0,0.5,0,1","0,1,0.5,0,1,0.5,1,0.5,0","3","false",""
"","html-keyboard-response","196","157373","0.0-200.0","3UN61F00HXBY9SNBPYT9QJMPTKER5O","A34YDGVZKRJ0LZ","3D1UCPY6GGVNRONHL4UEVMXCHLT38H","","null","<img src=""img/food4.png"" style=""width:200px; border:14px solid green;"">","null","","","","","","","","","",""
"","image-keyboard-response","197","157972","0.0-202.0","3UN61F00HXBY9SNBPYT9QJMPTKER5O","A34YDGVZKRJ0LZ","3D1UCPY6GGVNRONHL4UEVMXCHLT38H","","597.6999999880791","img/food1.png","74","598.3000000119209","1","1","3","2","1,0.5,0,1,0.5,0,0.5,0,1","0,1,0.5,0,1,0.5,1,0.5,0","3","false",""
"","html-keyboard-response","198","158274","0.0-203.0","3UN61F00HXBY9SNBPYT9QJMPTKER5O","A34YDGVZKRJ0LZ","3D1UCPY6GGVNRONHL4UEVMXCHLT38H","","null","<img src=""img/food1.png"" style=""width:200px; border:14px solid green;"">","null","","","","","","","","","",""
"","image-keyboard-response","199","158919","0.0-205.0","3UN61F00HXBY9SNBPYT9QJMPTKER5O","A34YDGVZKRJ0LZ","3D1UCPY6GGVNRONHL4UEVMXCHLT38H","","643.5","img/food6.png","76","644.0999999940395","3","1","2","2","1,0.5,0,1,0.5,0,0.5,0,1","0,1,0.5,0,1,0.5,1,0.5,0","3","false",""
"","html-keyboard-response","200","159220","0.0-206.0","3UN61F00HXBY9SNBPYT9QJMPTKER5O","A34YDGVZKRJ0LZ","3D1UCPY6GGVNRONHL4UEVMXCHLT38H","","null","<img src=""img/food6.png"" style=""width:200px; border:14px solid green;"">","null","","","","","","","","","",""
"","image-keyboard-response","201","159930","0.0-208.0","3UN61F00HXBY9SNBPYT9QJMPTKER5O","A34YDGVZKRJ0LZ","3D1UCPY6GGVNRONHL4UEVMXCHLT38H","","709.0999999940395","img/food4.png","75","709.6999999880791","2","1","1","2","1,0.5,0,1,0.5,0,0.5,0,1","0,1,0.5,0,1,0.5,1,0.5,0","3","false",""
"","html-keyboard-response","202","160232","0.0-209.0","3UN61F00HXBY9SNBPYT9QJMPTKER5O","A34YDGVZKRJ0LZ","3D1UCPY6GGVNRONHL4UEVMXCHLT38H","","null","<img src=""img/food4.png"" style=""width:200px; border:14px solid green;"">","null","","","","","","","","","",""
"","image-keyboard-response","203","160567","0.0-211.0","3UN61F00HXBY9SNBPYT9QJMPTKER5O","A34YDGVZKRJ0LZ","3D1UCPY6GGVNRONHL4UEVMXCHLT38H","","333.89999997615814","img/food4.png","75","334.5","2","1","1","2","1,0.5,0,1,0.5,0,0.5,0,1","0,1,0.5,0,1,0.5,1,0.5,0","3","false",""
"","html-keyboard-response","204","160869","0.0-212.0","3UN61F00HXBY9SNBPYT9QJMPTKER5O","A34YDGVZKRJ0LZ","3D1UCPY6GGVNRONHL4UEVMXCHLT38H","","null","<img src=""img/food4.png"" style=""width:200px; border:14px solid green;"">","null","","","","","","","","","",""
"","image-keyboard-response","205","161444","0.0-214.0","3UN61F00HXBY9SNBPYT9QJMPTKER5O","A34YDGVZKRJ0LZ","3D1UCPY6GGVNRONHL4UEVMXCHLT38H","","574.6999999880791","img/food6.png","74","575.2000000178814","1","0","2","2","1,0.5,0,1,0.5,0,0.5,0,1","0,1,0.5,0,1,0.5,1,0.5,0","3","false",""
"","html-keyboard-response","206","161746","0.0-215.0","3UN61F00HXBY9SNBPYT9QJMPTKER5O","A34YDGVZKRJ0LZ","3D1UCPY6GGVNRONHL4UEVMXCHLT38H","","null","<img src=""img/food6.png"" style=""width:200px;border:14px solid red;"">","null","","","","","","","","","",""
"","image-keyboard-response","207","162054","0.0-217.0","3UN61F00HXBY9SNBPYT9QJMPTKER5O","A34YDGVZKRJ0LZ","3D1UCPY6GGVNRONHL4UEVMXCHLT38H","","306.59999999403954","img/food6.png","76","307.19999998807907","3","0","2","2","1,0.5,0,1,0.5,0,0.5,0,1","0,1,0.5,0,1,0.5,1,0.5,0","3","false",""
"","html-keyboard-response","208","162357","0.0-218.0","3UN61F00HXBY9SNBPYT9QJMPTKER5O","A34YDGVZKRJ0LZ","3D1UCPY6GGVNRONHL4UEVMXCHLT38H","","null","<img src=""img/food6.png"" style=""width:200px;border:14px solid red;"">","null","","","","","","","","","",""
"","image-keyboard-response","209","163002","0.0-220.0","3UN61F00HXBY9SNBPYT9QJMPTKER5O","A34YDGVZKRJ0LZ","3D1UCPY6GGVNRONHL4UEVMXCHLT38H","","644.5999999940395","img/food4.png","75","645.4000000059605","2","1","1","2","1,0.5,0,1,0.5,0,0.5,0,1","0,1,0.5,0,1,0.5,1,0.5,0","3","false",""
"","html-keyboard-response","210","163304","0.0-221.0","3UN61F00HXBY9SNBPYT9QJMPTKER5O","A34YDGVZKRJ0LZ","3D1UCPY6GGVNRONHL4UEVMXCHLT38H","","null","<img src=""img/food4.png"" style=""width:200px; border:14px solid green;"">","null","","","","","","","","","",""
"","image-keyboard-response","211","163629","0.0-223.0","3UN61F00HXBY9SNBPYT9QJMPTKER5O","A34YDGVZKRJ0LZ","3D1UCPY6GGVNRONHL4UEVMXCHLT38H","","323.60000002384186","img/food4.png","75","324.30000001192093","2","1","1","2","1,0.5,0,1,0.5,0,0.5,0,1","0,1,0.5,0,1,0.5,1,0.5,0","3","false",""
"","html-keyboard-response","212","163931","0.0-224.0","3UN61F00HXBY9SNBPYT9QJMPTKER5O","A34YDGVZKRJ0LZ","3D1UCPY6GGVNRONHL4UEVMXCHLT38H","","null","<img src=""img/food4.png"" style=""width:200px; border:14px solid green;"">","null","","","","","","","","","",""
"","image-keyboard-response","213","164267","0.0-226.0","3UN61F00HXBY9SNBPYT9QJMPTKER5O","A34YDGVZKRJ0LZ","3D1UCPY6GGVNRONHL4UEVMXCHLT38H","","335.7999999821186","img/food4.png","75","336.40000000596046","2","1","1","2","1,0.5,0,1,0.5,0,0.5,0,1","0,1,0.5,0,1,0.5,1,0.5,0","3","false",""
"","html-keyboard-response","214","164570","0.0-227.0","3UN61F00HXBY9SNBPYT9QJMPTKER5O","A34YDGVZKRJ0LZ","3D1UCPY6GGVNRONHL4UEVMXCHLT38H","","null","<img src=""img/food4.png"" style=""width:200px; border:14px solid green;"">","null","","","","","","","","","",""
"","image-keyboard-response","215","164895","0.0-229.0","3UN61F00HXBY9SNBPYT9QJMPTKER5O","A34YDGVZKRJ0LZ","3D1UCPY6GGVNRONHL4UEVMXCHLT38H","","323.80000001192093","img/food4.png","75","324.40000000596046","2","1","1","2","1,0.5,0,1,0.5,0,0.5,0,1","0,1,0.5,0,1,0.5,1,0.5,0","3","false",""
"","html-keyboard-response","216","165202","0.0-230.0","3UN61F00HXBY9SNBPYT9QJMPTKER5O","A34YDGVZKRJ0LZ","3D1UCPY6GGVNRONHL4UEVMXCHLT38H","","null","<img src=""img/food4.png"" style=""width:200px; border:14px solid green;"">","null","","","","","","","","","",""
"","image-keyboard-response","217","165916","0.0-232.0","3UN61F00HXBY9SNBPYT9QJMPTKER5O","A34YDGVZKRJ0LZ","3D1UCPY6GGVNRONHL4UEVMXCHLT38H","","712.6999999880791","img/food6.png","76","713.3000000119209","3","1","2","2","1,0.5,0,1,0.5,0,0.5,0,1","0,1,0.5,0,1,0.5,1,0.5,0","3","false",""
"","html-keyboard-response","218","166217","0.0-233.0","3UN61F00HXBY9SNBPYT9QJMPTKER5O","A34YDGVZKRJ0LZ","3D1UCPY6GGVNRONHL4UEVMXCHLT38H","","null","<img src=""img/food6.png"" style=""width:200px; border:14px solid green;"">","null","","","","","","","","","",""
"","image-keyboard-response","219","166477","0.0-235.0","3UN61F00HXBY9SNBPYT9QJMPTKER5O","A34YDGVZKRJ0LZ","3D1UCPY6GGVNRONHL4UEVMXCHLT38H","","258.80000001192093","img/food6.png","76","259.5","3","1","2","2","1,0.5,0,1,0.5,0,0.5,0,1","0,1,0.5,0,1,0.5,1,0.5,0","3","false",""
"","html-keyboard-response","220","166778","0.0-236.0","3UN61F00HXBY9SNBPYT9QJMPTKER5O","A34YDGVZKRJ0LZ","3D1UCPY6GGVNRONHL4UEVMXCHLT38H","","null","<img src=""img/food6.png"" style=""width:200px; border:14px solid green;"">","null","","","","","","","","","",""
"","image-keyboard-response","221","167088","0.0-238.0","3UN61F00HXBY9SNBPYT9QJMPTKER5O","A34YDGVZKRJ0LZ","3D1UCPY6GGVNRONHL4UEVMXCHLT38H","","309.30000001192093","img/food6.png","76","310","3","1","2","2","1,0.5,0,1,0.5,0,0.5,0,1","0,1,0.5,0,1,0.5,1,0.5,0","3","false",""
"","html-keyboard-response","222","167390","0.0-239.0","3UN61F00HXBY9SNBPYT9QJMPTKER5O","A34YDGVZKRJ0LZ","3D1UCPY6GGVNRONHL4UEVMXCHLT38H","","null","<img src=""img/food6.png"" style=""width:200px; border:14px solid green;"">","null","","","","","","","","","",""
"","image-keyboard-response","223","167639","0.0-241.0","3UN61F00HXBY9SNBPYT9QJMPTKER5O","A34YDGVZKRJ0LZ","3D1UCPY6GGVNRONHL4UEVMXCHLT38H","","248.5","img/food6.png","76","249","3","1","2","2","1,0.5,0,1,0.5,0,0.5,0,1","0,1,0.5,0,1,0.5,1,0.5,0","3","false",""
"","html-keyboard-response","224","167942","0.0-242.0","3UN61F00HXBY9SNBPYT9QJMPTKER5O","A34YDGVZKRJ0LZ","3D1UCPY6GGVNRONHL4UEVMXCHLT38H","","null","<img src=""img/food6.png"" style=""width:200px; border:14px solid green;"">","null","","","","","","","","","",""
"","image-keyboard-response","225","168262","0.0-244.0","3UN61F00HXBY9SNBPYT9QJMPTKER5O","A34YDGVZKRJ0LZ","3D1UCPY6GGVNRONHL4UEVMXCHLT38H","","319.69999998807907","img/food6.png","76","320.40000000596046","3","1","2","2","1,0.5,0,1,0.5,0,0.5,0,1","0,1,0.5,0,1,0.5,1,0.5,0","3","false",""
"","html-keyboard-response","226","168565","0.0-245.0","3UN61F00HXBY9SNBPYT9QJMPTKER5O","A34YDGVZKRJ0LZ","3D1UCPY6GGVNRONHL4UEVMXCHLT38H","","null","<img src=""img/food6.png"" style=""width:200px; border:14px solid green;"">","null","","","","","","","","","",""
"","image-keyboard-response","227","169243","0.0-247.0","3UN61F00HXBY9SNBPYT9QJMPTKER5O","A34YDGVZKRJ0LZ","3D1UCPY6GGVNRONHL4UEVMXCHLT38H","","677.5999999940395","img/food1.png","74","678.0999999940395","1","1","3","2","1,0.5,0,1,0.5,0,0.5,0,1","0,1,0.5,0,1,0.5,1,0.5,0","3","false",""
"","html-keyboard-response","228","169545","0.0-248.0","3UN61F00HXBY9SNBPYT9QJMPTKER5O","A34YDGVZKRJ0LZ","3D1UCPY6GGVNRONHL4UEVMXCHLT38H","","null","<img src=""img/food1.png"" style=""width:200px; border:14px solid green;"">","null","","","","","","","","","",""
"","image-keyboard-response","229","169855","0.0-250.0","3UN61F00HXBY9SNBPYT9QJMPTKER5O","A34YDGVZKRJ0LZ","3D1UCPY6GGVNRONHL4UEVMXCHLT38H","","308.7999999821186","img/food1.png","74","309.5","1","1","3","2","1,0.5,0,1,0.5,0,0.5,0,1","0,1,0.5,0,1,0.5,1,0.5,0","3","false",""
"","html-keyboard-response","230","170156","0.0-251.0","3UN61F00HXBY9SNBPYT9QJMPTKER5O","A34YDGVZKRJ0LZ","3D1UCPY6GGVNRONHL4UEVMXCHLT38H","","null","<img src=""img/food1.png"" style=""width:200px; border:14px solid green;"">","null","","","","","","","","","",""
"","image-keyboard-response","231","170443","0.0-253.0","3UN61F00HXBY9SNBPYT9QJMPTKER5O","A34YDGVZKRJ0LZ","3D1UCPY6GGVNRONHL4UEVMXCHLT38H","","286.5","img/food1.png","74","287.2000000178814","1","1","3","2","1,0.5,0,1,0.5,0,0.5,0,1","0,1,0.5,0,1,0.5,1,0.5,0","3","false",""
"","html-keyboard-response","232","170745","0.0-254.0","3UN61F00HXBY9SNBPYT9QJMPTKER5O","A34YDGVZKRJ0LZ","3D1UCPY6GGVNRONHL4UEVMXCHLT38H","","null","<img src=""img/food1.png"" style=""width:200px; border:14px solid green;"">","null","","","","","","","","","",""
"","image-keyboard-response","233","171325","0.0-256.0","3UN61F00HXBY9SNBPYT9QJMPTKER5O","A34YDGVZKRJ0LZ","3D1UCPY6GGVNRONHL4UEVMXCHLT38H","","579.3999999761581","img/food4.png","75","579.9000000059605","2","1","1","2","1,0.5,0,1,0.5,0,0.5,0,1","0,1,0.5,0,1,0.5,1,0.5,0","3","false",""
"","html-keyboard-response","234","171627","0.0-257.0","3UN61F00HXBY9SNBPYT9QJMPTKER5O","A34YDGVZKRJ0LZ","3D1UCPY6GGVNRONHL4UEVMXCHLT38H","","null","<img src=""img/food4.png"" style=""width:200px; border:14px solid green;"">","null","","","","","","","","","",""
"","image-keyboard-response","235","171917","0.0-259.0","3UN61F00HXBY9SNBPYT9QJMPTKER5O","A34YDGVZKRJ0LZ","3D1UCPY6GGVNRONHL4UEVMXCHLT38H","","288.80000001192093","img/food4.png","75","289.59999999403954","2","1","1","2","1,0.5,0,1,0.5,0,0.5,0,1","0,1,0.5,0,1,0.5,1,0.5,0","3","false",""
"","html-keyboard-response","236","172218","0.0-260.0","3UN61F00HXBY9SNBPYT9QJMPTKER5O","A34YDGVZKRJ0LZ","3D1UCPY6GGVNRONHL4UEVMXCHLT38H","","null","<img src=""img/food4.png"" style=""width:200px; border:14px solid green;"">","null","","","","","","","","","",""
"","image-keyboard-response","237","172947","0.0-262.0","3UN61F00HXBY9SNBPYT9QJMPTKER5O","A34YDGVZKRJ0LZ","3D1UCPY6GGVNRONHL4UEVMXCHLT38H","","727.5999999940395","img/food1.png","74","728.5","1","1","3","2","1,0.5,0,1,0.5,0,0.5,0,1","0,1,0.5,0,1,0.5,1,0.5,0","3","false",""
"","html-keyboard-response","238","173248","0.0-263.0","3UN61F00HXBY9SNBPYT9QJMPTKER5O","A34YDGVZKRJ0LZ","3D1UCPY6GGVNRONHL4UEVMXCHLT38H","","null","<img src=""img/food1.png"" style=""width:200px; border:14px solid green;"">","null","","","","","","","","","",""
"","image-keyboard-response","239","173905","0.0-265.0","3UN61F00HXBY9SNBPYT9QJMPTKER5O","A34YDGVZKRJ0LZ","3D1UCPY6GGVNRONHL4UEVMXCHLT38H","","655.2999999821186","img/food4.png","75","656","2","1","1","2","1,0.5,0,1,0.5,0,0.5,0,1","0,1,0.5,0,1,0.5,1,0.5,0","3","false",""
"","html-keyboard-response","240","174206","0.0-266.0","3UN61F00HXBY9SNBPYT9QJMPTKER5O","A34YDGVZKRJ0LZ","3D1UCPY6GGVNRONHL4UEVMXCHLT38H","","null","<img src=""img/food4.png"" style=""width:200px; border:14px solid green;"">","null","","","","","","","","","",""
"","image-keyboard-response","241","174748","0.0-268.0","3UN61F00HXBY9SNBPYT9QJMPTKER5O","A34YDGVZKRJ0LZ","3D1UCPY6GGVNRONHL4UEVMXCHLT38H","","540.4000000059605","img/food1.png","74","541.1999999880791","1","1","3","2","1,0.5,0,1,0.5,0,0.5,0,1","0,1,0.5,0,1,0.5,1,0.5,0","3","false",""
"","html-keyboard-response","242","175055","0.0-269.0","3UN61F00HXBY9SNBPYT9QJMPTKER5O","A34YDGVZKRJ0LZ","3D1UCPY6GGVNRONHL4UEVMXCHLT38H","","null","<img src=""img/food1.png"" style=""width:200px; border:14px solid green;"">","null","","","","","","","","","",""
"","image-keyboard-response","243","175456","0.0-271.0","3UN61F00HXBY9SNBPYT9QJMPTKER5O","A34YDGVZKRJ0LZ","3D1UCPY6GGVNRONHL4UEVMXCHLT38H","","400.5","img/food4.png","75","401","2","1","1","2","1,0.5,0,1,0.5,0,0.5,0,1","0,1,0.5,0,1,0.5,1,0.5,0","3","false",""
"","html-keyboard-response","244","175758","0.0-272.0","3UN61F00HXBY9SNBPYT9QJMPTKER5O","A34YDGVZKRJ0LZ","3D1UCPY6GGVNRONHL4UEVMXCHLT38H","","null","<img src=""img/food4.png"" style=""width:200px; border:14px solid green;"">","null","","","","","","","","","",""
"","image-keyboard-response","245","176303","0.0-274.0","3UN61F00HXBY9SNBPYT9QJMPTKER5O","A34YDGVZKRJ0LZ","3D1UCPY6GGVNRONHL4UEVMXCHLT38H","","544.3000000119209","img/food1.png","74","545","1","1","3","2","1,0.5,0,1,0.5,0,0.5,0,1","0,1,0.5,0,1,0.5,1,0.5,0","3","false",""
"","html-keyboard-response","246","176606","0.0-275.0","3UN61F00HXBY9SNBPYT9QJMPTKER5O","A34YDGVZKRJ0LZ","3D1UCPY6GGVNRONHL4UEVMXCHLT38H","","null","<img src=""img/food1.png"" style=""width:200px; border:14px solid green;"">","null","","","","","","","","","",""
"","image-keyboard-response","247","177021","0.0-277.0","3UN61F00HXBY9SNBPYT9QJMPTKER5O","A34YDGVZKRJ0LZ","3D1UCPY6GGVNRONHL4UEVMXCHLT38H","","413.7000000178814","img/food4.png","75","414.19999998807907","2","1","1","2","1,0.5,0,1,0.5,0,0.5,0,1","0,1,0.5,0,1,0.5,1,0.5,0","3","false",""
"","html-keyboard-response","248","177322","0.0-278.0","3UN61F00HXBY9SNBPYT9QJMPTKER5O","A34YDGVZKRJ0LZ","3D1UCPY6GGVNRONHL4UEVMXCHLT38H","","null","<img src=""img/food4.png"" style=""width:200px; border:14px solid green;"">","null","","","","","","","","","",""
"","image-keyboard-response","249","177877","0.0-280.0","3UN61F00HXBY9SNBPYT9QJMPTKER5O","A34YDGVZKRJ0LZ","3D1UCPY6GGVNRONHL4UEVMXCHLT38H","","553.1000000238419","img/food6.png","76","553.6999999880791","3","0","2","2","1,0.5,0,1,0.5,0,0.5,0,1","0,1,0.5,0,1,0.5,1,0.5,0","3","false",""
"","html-keyboard-response","250","178179","0.0-281.0","3UN61F00HXBY9SNBPYT9QJMPTKER5O","A34YDGVZKRJ0LZ","3D1UCPY6GGVNRONHL4UEVMXCHLT38H","","null","<img src=""img/food6.png"" style=""width:200px;border:14px solid red;"">","null","","","","","","","","","",""
"","image-keyboard-response","251","179120","0.0-283.0","3UN61F00HXBY9SNBPYT9QJMPTKER5O","A34YDGVZKRJ0LZ","3D1UCPY6GGVNRONHL4UEVMXCHLT38H","","939.6999999880791","img/food1.png","74","940.4000000059605","1","1","3","2","1,0.5,0,1,0.5,0,0.5,0,1","0,1,0.5,0,1,0.5,1,0.5,0","3","false",""
"","html-keyboard-response","252","179421","0.0-284.0","3UN61F00HXBY9SNBPYT9QJMPTKER5O","A34YDGVZKRJ0LZ","3D1UCPY6GGVNRONHL4UEVMXCHLT38H","","null","<img src=""img/food1.png"" style=""width:200px; border:14px solid green;"">","null","","","","","","","","","",""
"","image-keyboard-response","253","179766","0.0-286.0","3UN61F00HXBY9SNBPYT9QJMPTKER5O","A34YDGVZKRJ0LZ","3D1UCPY6GGVNRONHL4UEVMXCHLT38H","","344.2999999821186","img/food1.png","74","345","1","1","3","2","1,0.5,0,1,0.5,0,0.5,0,1","0,1,0.5,0,1,0.5,1,0.5,0","3","false",""
"","html-keyboard-response","254","180069","0.0-287.0","3UN61F00HXBY9SNBPYT9QJMPTKER5O","A34YDGVZKRJ0LZ","3D1UCPY6GGVNRONHL4UEVMXCHLT38H","","null","<img src=""img/food1.png"" style=""width:200px; border:14px solid green;"">","null","","","","","","","","","",""
"","image-keyboard-response","255","180813","0.0-289.0","3UN61F00HXBY9SNBPYT9QJMPTKER5O","A34YDGVZKRJ0LZ","3D1UCPY6GGVNRONHL4UEVMXCHLT38H","","743.2000000178814","img/food6.png","76","743.9000000059605","3","1","2","2","1,0.5,0,1,0.5,0,0.5,0,1","0,1,0.5,0,1,0.5,1,0.5,0","3","false",""
"","html-keyboard-response","256","181115","0.0-290.0","3UN61F00HXBY9SNBPYT9QJMPTKER5O","A34YDGVZKRJ0LZ","3D1UCPY6GGVNRONHL4UEVMXCHLT38H","","null","<img src=""img/food6.png"" style=""width:200px; border:14px solid green;"">","null","","","","","","","","","",""
"","image-keyboard-response","257","181412","0.0-292.0","3UN61F00HXBY9SNBPYT9QJMPTKER5O","A34YDGVZKRJ0LZ","3D1UCPY6GGVNRONHL4UEVMXCHLT38H","","296.5","img/food6.png","76","297.30000001192093","3","0","2","2","1,0.5,0,1,0.5,0,0.5,0,1","0,1,0.5,0,1,0.5,1,0.5,0","3","false",""
"","html-keyboard-response","258","181715","0.0-293.0","3UN61F00HXBY9SNBPYT9QJMPTKER5O","A34YDGVZKRJ0LZ","3D1UCPY6GGVNRONHL4UEVMXCHLT38H","","null","<img src=""img/food6.png"" style=""width:200px;border:14px solid red;"">","null","","","","","","","","","",""
"","image-keyboard-response","259","182494","0.0-295.0","3UN61F00HXBY9SNBPYT9QJMPTKER5O","A34YDGVZKRJ0LZ","3D1UCPY6GGVNRONHL4UEVMXCHLT38H","","778","img/food1.png","74","778.5999999940395","1","1","3","2","1,0.5,0,1,0.5,0,0.5,0,1","0,1,0.5,0,1,0.5,1,0.5,0","3","false",""
"","html-keyboard-response","260","182796","0.0-296.0","3UN61F00HXBY9SNBPYT9QJMPTKER5O","A34YDGVZKRJ0LZ","3D1UCPY6GGVNRONHL4UEVMXCHLT38H","","null","<img src=""img/food1.png"" style=""width:200px; border:14px solid green;"">","null","","","","","","","","","",""
"","image-keyboard-response","261","183462","0.0-298.0","3UN61F00HXBY9SNBPYT9QJMPTKER5O","A34YDGVZKRJ0LZ","3D1UCPY6GGVNRONHL4UEVMXCHLT38H","","665.2000000178814","img/food6.png","76","665.9000000059605","3","1","2","2","1,0.5,0,1,0.5,0,0.5,0,1","0,1,0.5,0,1,0.5,1,0.5,0","3","false",""
"","html-keyboard-response","262","183763","0.0-299.0","3UN61F00HXBY9SNBPYT9QJMPTKER5O","A34YDGVZKRJ0LZ","3D1UCPY6GGVNRONHL4UEVMXCHLT38H","","null","<img src=""img/food6.png"" style=""width:200px; border:14px solid green;"">","null","","","","","","","","","",""
"","image-keyboard-response","263","184258","0.0-301.0","3UN61F00HXBY9SNBPYT9QJMPTKER5O","A34YDGVZKRJ0LZ","3D1UCPY6GGVNRONHL4UEVMXCHLT38H","","494.2999999821186","img/food1.png","74","495","1","1","3","2","1,0.5,0,1,0.5,0,0.5,0,1","0,1,0.5,0,1,0.5,1,0.5,0","3","false",""
"","html-keyboard-response","264","184560","0.0-302.0","3UN61F00HXBY9SNBPYT9QJMPTKER5O","A34YDGVZKRJ0LZ","3D1UCPY6GGVNRONHL4UEVMXCHLT38H","","null","<img src=""img/food1.png"" style=""width:200px; border:14px solid green;"">","null","","","","","","","","","",""
"","image-keyboard-response","265","185018","0.0-304.0","3UN61F00HXBY9SNBPYT9QJMPTKER5O","A34YDGVZKRJ0LZ","3D1UCPY6GGVNRONHL4UEVMXCHLT38H","","456","img/food1.png","74","456.69999998807907","1","1","3","2","1,0.5,0,1,0.5,0,0.5,0,1","0,1,0.5,0,1,0.5,1,0.5,0","3","false",""
"","html-keyboard-response","266","185322","0.0-305.0","3UN61F00HXBY9SNBPYT9QJMPTKER5O","A34YDGVZKRJ0LZ","3D1UCPY6GGVNRONHL4UEVMXCHLT38H","","null","<img src=""img/food1.png"" style=""width:200px; border:14px solid green;"">","null","","","","","","","","","",""
"","image-keyboard-response","267","185864","0.0-307.0","3UN61F00HXBY9SNBPYT9QJMPTKER5O","A34YDGVZKRJ0LZ","3D1UCPY6GGVNRONHL4UEVMXCHLT38H","","541.3000000119209","img/food6.png","76","541.8999999761581","3","1","2","2","1,0.5,0,1,0.5,0,0.5,0,1","0,1,0.5,0,1,0.5,1,0.5,0","3","false",""
"","html-keyboard-response","268","186167","0.0-308.0","3UN61F00HXBY9SNBPYT9QJMPTKER5O","A34YDGVZKRJ0LZ","3D1UCPY6GGVNRONHL4UEVMXCHLT38H","","null","<img src=""img/food6.png"" style=""width:200px; border:14px solid green;"">","null","","","","","","","","","",""
"","image-keyboard-response","269","186984","0.0-310.0","3UN61F00HXBY9SNBPYT9QJMPTKER5O","A34YDGVZKRJ0LZ","3D1UCPY6GGVNRONHL4UEVMXCHLT38H","","816.1999999880791","img/food1.png","74","816.8000000119209","1","1","3","2","1,0.5,0,1,0.5,0,0.5,0,1","0,1,0.5,0,1,0.5,1,0.5,0","3","false",""
"","html-keyboard-response","270","187285","0.0-311.0","3UN61F00HXBY9SNBPYT9QJMPTKER5O","A34YDGVZKRJ0LZ","3D1UCPY6GGVNRONHL4UEVMXCHLT38H","","null","<img src=""img/food1.png"" style=""width:200px; border:14px solid green;"">","null","","","","","","","","","",""
"","image-keyboard-response","271","187791","0.0-313.0","3UN61F00HXBY9SNBPYT9QJMPTKER5O","A34YDGVZKRJ0LZ","3D1UCPY6GGVNRONHL4UEVMXCHLT38H","","505.5","img/food4.png","75","506.10000002384186","2","1","1","2","1,0.5,0,1,0.5,0,0.5,0,1","0,1,0.5,0,1,0.5,1,0.5,0","3","false",""
"","html-keyboard-response","272","188093","0.0-314.0","3UN61F00HXBY9SNBPYT9QJMPTKER5O","A34YDGVZKRJ0LZ","3D1UCPY6GGVNRONHL4UEVMXCHLT38H","","null","<img src=""img/food4.png"" style=""width:200px; border:14px solid green;"">","null","","","","","","","","","",""
"","image-keyboard-response","273","188466","0.0-316.0","3UN61F00HXBY9SNBPYT9QJMPTKER5O","A34YDGVZKRJ0LZ","3D1UCPY6GGVNRONHL4UEVMXCHLT38H","","371.80000001192093","img/food4.png","75","372.40000000596046","2","1","1","2","1,0.5,0,1,0.5,0,0.5,0,1","0,1,0.5,0,1,0.5,1,0.5,0","3","false",""
"","html-keyboard-response","274","188768","0.0-317.0","3UN61F00HXBY9SNBPYT9QJMPTKER5O","A34YDGVZKRJ0LZ","3D1UCPY6GGVNRONHL4UEVMXCHLT38H","","null","<img src=""img/food4.png"" style=""width:200px; border:14px solid green;"">","null","","","","","","","","","",""
"","image-keyboard-response","275","189309","0.0-319.0","3UN61F00HXBY9SNBPYT9QJMPTKER5O","A34YDGVZKRJ0LZ","3D1UCPY6GGVNRONHL4UEVMXCHLT38H","","540.5999999940395","img/food1.png","74","541.3000000119209","1","1","3","2","1,0.5,0,1,0.5,0,0.5,0,1","0,1,0.5,0,1,0.5,1,0.5,0","3","false",""
"","html-keyboard-response","276","189623","0.0-320.0","3UN61F00HXBY9SNBPYT9QJMPTKER5O","A34YDGVZKRJ0LZ","3D1UCPY6GGVNRONHL4UEVMXCHLT38H","","null","<img src=""img/food1.png"" style=""width:200px; border:14px solid green;"">","null","","","","","","","","","",""
"","image-keyboard-response","277","190249","0.0-322.0","3UN61F00HXBY9SNBPYT9QJMPTKER5O","A34YDGVZKRJ0LZ","3D1UCPY6GGVNRONHL4UEVMXCHLT38H","","624.9000000059605","img/food6.png","76","625.5999999940395","3","1","2","2","1,0.5,0,1,0.5,0,0.5,0,1","0,1,0.5,0,1,0.5,1,0.5,0","3","false",""
"","html-keyboard-response","278","190551","0.0-323.0","3UN61F00HXBY9SNBPYT9QJMPTKER5O","A34YDGVZKRJ0LZ","3D1UCPY6GGVNRONHL4UEVMXCHLT38H","","null","<img src=""img/food6.png"" style=""width:200px; border:14px solid green;"">","null","","","","","","","","","",""
"","image-keyboard-response","279","191186","0.0-325.0","3UN61F00HXBY9SNBPYT9QJMPTKER5O","A34YDGVZKRJ0LZ","3D1UCPY6GGVNRONHL4UEVMXCHLT38H","","633.9000000059605","img/food1.png","74","634.5999999940395","1","1","3","2","1,0.5,0,1,0.5,0,0.5,0,1","0,1,0.5,0,1,0.5,1,0.5,0","3","false",""
"","html-keyboard-response","280","191488","0.0-326.0","3UN61F00HXBY9SNBPYT9QJMPTKER5O","A34YDGVZKRJ0LZ","3D1UCPY6GGVNRONHL4UEVMXCHLT38H","","null","<img src=""img/food1.png"" style=""width:200px; border:14px solid green;"">","null","","","","","","","","","",""
"","image-keyboard-response","281","192042","0.0-328.0","3UN61F00HXBY9SNBPYT9QJMPTKER5O","A34YDGVZKRJ0LZ","3D1UCPY6GGVNRONHL4UEVMXCHLT38H","","553","img/food6.png","76","553.7000000178814","3","1","2","2","1,0.5,0,1,0.5,0,0.5,0,1","0,1,0.5,0,1,0.5,1,0.5,0","3","false",""
"","html-keyboard-response","282","192343","0.0-329.0","3UN61F00HXBY9SNBPYT9QJMPTKER5O","A34YDGVZKRJ0LZ","3D1UCPY6GGVNRONHL4UEVMXCHLT38H","","null","<img src=""img/food6.png"" style=""width:200px; border:14px solid green;"">","null","","","","","","","","","",""
"","image-keyboard-response","283","192793","0.0-331.0","3UN61F00HXBY9SNBPYT9QJMPTKER5O","A34YDGVZKRJ0LZ","3D1UCPY6GGVNRONHL4UEVMXCHLT38H","","448.30000001192093","img/food6.png","76","449.2000000178814","3","1","2","2","1,0.5,0,1,0.5,0,0.5,0,1","0,1,0.5,0,1,0.5,1,0.5,0","3","false",""
"","html-keyboard-response","284","193095","0.0-332.0","3UN61F00HXBY9SNBPYT9QJMPTKER5O","A34YDGVZKRJ0LZ","3D1UCPY6GGVNRONHL4UEVMXCHLT38H","","null","<img src=""img/food6.png"" style=""width:200px; border:14px solid green;"">","null","","","","","","","","","",""
"","image-keyboard-response","285","193756","0.0-334.0","3UN61F00HXBY9SNBPYT9QJMPTKER5O","A34YDGVZKRJ0LZ","3D1UCPY6GGVNRONHL4UEVMXCHLT38H","","660.1999999880791","img/food4.png","75","660.8000000119209","2","1","1","2","1,0.5,0,1,0.5,0,0.5,0,1","0,1,0.5,0,1,0.5,1,0.5,0","3","false",""
"","html-keyboard-response","286","194057","0.0-335.0","3UN61F00HXBY9SNBPYT9QJMPTKER5O","A34YDGVZKRJ0LZ","3D1UCPY6GGVNRONHL4UEVMXCHLT38H","","null","<img src=""img/food4.png"" style=""width:200px; border:14px solid green;"">","null","","","","","","","","","",""
"","image-keyboard-response","287","194473","0.0-337.0","3UN61F00HXBY9SNBPYT9QJMPTKER5O","A34YDGVZKRJ0LZ","3D1UCPY6GGVNRONHL4UEVMXCHLT38H","","414.90000000596046","img/food4.png","75","415.7000000178814","2","1","1","2","1,0.5,0,1,0.5,0,0.5,0,1","0,1,0.5,0,1,0.5,1,0.5,0","3","false",""
"","html-keyboard-response","288","194775","0.0-338.0","3UN61F00HXBY9SNBPYT9QJMPTKER5O","A34YDGVZKRJ0LZ","3D1UCPY6GGVNRONHL4UEVMXCHLT38H","","null","<img src=""img/food4.png"" style=""width:200px; border:14px solid green;"">","null","","","","","","","","","",""
"","image-keyboard-response","289","195407","0.0-340.0","3UN61F00HXBY9SNBPYT9QJMPTKER5O","A34YDGVZKRJ0LZ","3D1UCPY6GGVNRONHL4UEVMXCHLT38H","","631.1999999880791","img/food6.png","76","632","3","0","2","2","1,0.5,0,1,0.5,0,0.5,0,1","0,1,0.5,0,1,0.5,1,0.5,0","3","false",""
"","html-keyboard-response","290","195709","0.0-341.0","3UN61F00HXBY9SNBPYT9QJMPTKER5O","A34YDGVZKRJ0LZ","3D1UCPY6GGVNRONHL4UEVMXCHLT38H","","null","<img src=""img/food6.png"" style=""width:200px;border:14px solid red;"">","null","","","","","","","","","",""
"","image-keyboard-response","291","196367","0.0-343.0","3UN61F00HXBY9SNBPYT9QJMPTKER5O","A34YDGVZKRJ0LZ","3D1UCPY6GGVNRONHL4UEVMXCHLT38H","","657.0999999940395","img/food4.png","75","657.9000000059605","2","1","1","2","1,0.5,0,1,0.5,0,0.5,0,1","0,1,0.5,0,1,0.5,1,0.5,0","3","false",""
"","html-keyboard-response","292","196669","0.0-344.0","3UN61F00HXBY9SNBPYT9QJMPTKER5O","A34YDGVZKRJ0LZ","3D1UCPY6GGVNRONHL4UEVMXCHLT38H","","null","<img src=""img/food4.png"" style=""width:200px; border:14px solid green;"">","null","","","","","","","","","",""
"","image-keyboard-response","293","197232","0.0-346.0","3UN61F00HXBY9SNBPYT9QJMPTKER5O","A34YDGVZKRJ0LZ","3D1UCPY6GGVNRONHL4UEVMXCHLT38H","","561.5999999940395","img/food6.png","76","562.3999999761581","3","1","2","2","1,0.5,0,1,0.5,0,0.5,0,1","0,1,0.5,0,1,0.5,1,0.5,0","3","false",""
"","html-keyboard-response","294","197533","0.0-347.0","3UN61F00HXBY9SNBPYT9QJMPTKER5O","A34YDGVZKRJ0LZ","3D1UCPY6GGVNRONHL4UEVMXCHLT38H","","null","<img src=""img/food6.png"" style=""width:200px; border:14px solid green;"">","null","","","","","","","","","",""
"","image-keyboard-response","295","197902","0.0-349.0","3UN61F00HXBY9SNBPYT9QJMPTKER5O","A34YDGVZKRJ0LZ","3D1UCPY6GGVNRONHL4UEVMXCHLT38H","","367.80000001192093","img/food6.png","76","368.40000000596046","3","0","2","2","1,0.5,0,1,0.5,0,0.5,0,1","0,1,0.5,0,1,0.5,1,0.5,0","3","false",""
"","html-keyboard-response","296","198204","0.0-350.0","3UN61F00HXBY9SNBPYT9QJMPTKER5O","A34YDGVZKRJ0LZ","3D1UCPY6GGVNRONHL4UEVMXCHLT38H","","null","<img src=""img/food6.png"" style=""width:200px;border:14px solid red;"">","null","","","","","","","","","",""
"","image-keyboard-response","297","198838","0.0-352.0","3UN61F00HXBY9SNBPYT9QJMPTKER5O","A34YDGVZKRJ0LZ","3D1UCPY6GGVNRONHL4UEVMXCHLT38H","","633.1999999880791","img/food1.png","74","633.9000000059605","1","1","3","2","1,0.5,0,1,0.5,0,0.5,0,1","0,1,0.5,0,1,0.5,1,0.5,0","3","false",""
"","html-keyboard-response","298","199140","0.0-353.0","3UN61F00HXBY9SNBPYT9QJMPTKER5O","A34YDGVZKRJ0LZ","3D1UCPY6GGVNRONHL4UEVMXCHLT38H","","null","<img src=""img/food1.png"" style=""width:200px; border:14px solid green;"">","null","","","","","","","","","",""
"","image-keyboard-response","299","199449","0.0-355.0","3UN61F00HXBY9SNBPYT9QJMPTKER5O","A34YDGVZKRJ0LZ","3D1UCPY6GGVNRONHL4UEVMXCHLT38H","","308.7000000178814","img/food1.png","74","309.19999998807907","1","1","3","2","1,0.5,0,1,0.5,0,0.5,0,1","0,1,0.5,0,1,0.5,1,0.5,0","3","false",""
"","html-keyboard-response","300","199750","0.0-356.0","3UN61F00HXBY9SNBPYT9QJMPTKER5O","A34YDGVZKRJ0LZ","3D1UCPY6GGVNRONHL4UEVMXCHLT38H","","null","<img src=""img/food1.png"" style=""width:200px; border:14px solid green;"">","null","","","","","","","","","",""
"","image-keyboard-response","301","200087","0.0-358.0","3UN61F00HXBY9SNBPYT9QJMPTKER5O","A34YDGVZKRJ0LZ","3D1UCPY6GGVNRONHL4UEVMXCHLT38H","","335.40000000596046","img/food1.png","74","336.10000002384186","1","1","3","2","1,0.5,0,1,0.5,0,0.5,0,1","0,1,0.5,0,1,0.5,1,0.5,0","3","false",""
"","html-keyboard-response","302","200388","0.0-359.0","3UN61F00HXBY9SNBPYT9QJMPTKER5O","A34YDGVZKRJ0LZ","3D1UCPY6GGVNRONHL4UEVMXCHLT38H","","null","<img src=""img/food1.png"" style=""width:200px; border:14px solid green;"">","null","","","","","","","","","",""
"","image-keyboard-response","303","200708","0.0-361.0","3UN61F00HXBY9SNBPYT9QJMPTKER5O","A34YDGVZKRJ0LZ","3D1UCPY6GGVNRONHL4UEVMXCHLT38H","","318.80000001192093","img/food1.png","74","319.39999997615814","1","1","3","2","1,0.5,0,1,0.5,0,0.5,0,1","0,1,0.5,0,1,0.5,1,0.5,0","3","false",""
"","html-keyboard-response","304","201010","0.0-362.0","3UN61F00HXBY9SNBPYT9QJMPTKER5O","A34YDGVZKRJ0LZ","3D1UCPY6GGVNRONHL4UEVMXCHLT38H","","null","<img src=""img/food1.png"" style=""width:200px; border:14px solid green;"">","null","","","","","","","","","",""
"","image-keyboard-response","305","201349","0.0-364.0","3UN61F00HXBY9SNBPYT9QJMPTKER5O","A34YDGVZKRJ0LZ","3D1UCPY6GGVNRONHL4UEVMXCHLT38H","","337.60000002384186","img/food1.png","74","338.2999999821186","1","1","3","2","1,0.5,0,1,0.5,0,0.5,0,1","0,1,0.5,0,1,0.5,1,0.5,0","3","false",""
"","html-keyboard-response","306","201662","0.0-365.0","3UN61F00HXBY9SNBPYT9QJMPTKER5O","A34YDGVZKRJ0LZ","3D1UCPY6GGVNRONHL4UEVMXCHLT38H","","null","<img src=""img/food1.png"" style=""width:200px; border:14px solid green;"">","null","","","","","","","","","",""
"","image-keyboard-response","307","202312","0.0-367.0","3UN61F00HXBY9SNBPYT9QJMPTKER5O","A34YDGVZKRJ0LZ","3D1UCPY6GGVNRONHL4UEVMXCHLT38H","","649","img/food6.png","76","649.9000000059605","3","0","2","2","1,0.5,0,1,0.5,0,0.5,0,1","0,1,0.5,0,1,0.5,1,0.5,0","3","false",""
"","html-keyboard-response","308","202615","0.0-368.0","3UN61F00HXBY9SNBPYT9QJMPTKER5O","A34YDGVZKRJ0LZ","3D1UCPY6GGVNRONHL4UEVMXCHLT38H","","null","<img src=""img/food6.png"" style=""width:200px;border:14px solid red;"">","null","","","","","","","","","",""
"","image-keyboard-response","309","202789","0.0-370.0","3UN61F00HXBY9SNBPYT9QJMPTKER5O","A34YDGVZKRJ0LZ","3D1UCPY6GGVNRONHL4UEVMXCHLT38H","","173.2000000178814","img/food4.png","76","174.09999999403954","3","0","1","2","1,0.5,0,1,0.5,0,0.5,0,1","0,1,0.5,0,1,0.5,1,0.5,0","3","false",""
"","html-keyboard-response","310","203091","0.0-371.0","3UN61F00HXBY9SNBPYT9QJMPTKER5O","A34YDGVZKRJ0LZ","3D1UCPY6GGVNRONHL4UEVMXCHLT38H","","null","<img src=""img/food4.png"" style=""width:200px;border:14px solid red;"">","null","","","","","","","","","",""
"","image-keyboard-response","311","203538","0.0-373.0","3UN61F00HXBY9SNBPYT9QJMPTKER5O","A34YDGVZKRJ0LZ","3D1UCPY6GGVNRONHL4UEVMXCHLT38H","","445","img/food6.png","75","445.69999998807907","2","1","2","2","1,0.5,0,1,0.5,0,0.5,0,1","0,1,0.5,0,1,0.5,1,0.5,0","3","false",""
"","html-keyboard-response","312","203839","0.0-374.0","3UN61F00HXBY9SNBPYT9QJMPTKER5O","A34YDGVZKRJ0LZ","3D1UCPY6GGVNRONHL4UEVMXCHLT38H","","null","<img src=""img/food6.png"" style=""width:200px; border:14px solid green;"">","null","","","","","","","","","",""
"","image-keyboard-response","313","204067","0.0-376.0","3UN61F00HXBY9SNBPYT9QJMPTKER5O","A34YDGVZKRJ0LZ","3D1UCPY6GGVNRONHL4UEVMXCHLT38H","","227.09999999403954","img/food6.png","76","227.7999999821186","3","0","2","2","1,0.5,0,1,0.5,0,0.5,0,1","0,1,0.5,0,1,0.5,1,0.5,0","3","false",""
"","html-keyboard-response","314","204368","0.0-377.0","3UN61F00HXBY9SNBPYT9QJMPTKER5O","A34YDGVZKRJ0LZ","3D1UCPY6GGVNRONHL4UEVMXCHLT38H","","null","<img src=""img/food6.png"" style=""width:200px;border:14px solid red;"">","null","","","","","","","","","",""
"","image-keyboard-response","315","205116","0.0-379.0","3UN61F00HXBY9SNBPYT9QJMPTKER5O","A34YDGVZKRJ0LZ","3D1UCPY6GGVNRONHL4UEVMXCHLT38H","","747.3000000119209","img/food1.png","74","747.8000000119209","1","1","3","2","1,0.5,0,1,0.5,0,0.5,0,1","0,1,0.5,0,1,0.5,1,0.5,0","3","false",""
"","html-keyboard-response","316","205430","0.0-380.0","3UN61F00HXBY9SNBPYT9QJMPTKER5O","A34YDGVZKRJ0LZ","3D1UCPY6GGVNRONHL4UEVMXCHLT38H","","null","<img src=""img/food1.png"" style=""width:200px; border:14px solid green;"">","null","","","","","","","","","",""
"","image-keyboard-response","317","206085","0.0-382.0","3UN61F00HXBY9SNBPYT9QJMPTKER5O","A34YDGVZKRJ0LZ","3D1UCPY6GGVNRONHL4UEVMXCHLT38H","","653.3000000119209","img/food4.png","75","654.0999999940395","2","1","1","2","1,0.5,0,1,0.5,0,0.5,0,1","0,1,0.5,0,1,0.5,1,0.5,0","3","false",""
"","html-keyboard-response","318","206387","0.0-383.0","3UN61F00HXBY9SNBPYT9QJMPTKER5O","A34YDGVZKRJ0LZ","3D1UCPY6GGVNRONHL4UEVMXCHLT38H","","null","<img src=""img/food4.png"" style=""width:200px; border:14px solid green;"">","null","","","","","","","","","",""
"","image-keyboard-response","319","206892","0.0-385.0","3UN61F00HXBY9SNBPYT9QJMPTKER5O","A34YDGVZKRJ0LZ","3D1UCPY6GGVNRONHL4UEVMXCHLT38H","","505","img/food6.png","76","505.59999999403954","3","0","2","2","1,0.5,0,1,0.5,0,0.5,0,1","0,1,0.5,0,1,0.5,1,0.5,0","3","false",""
"","html-keyboard-response","320","207208","0.0-386.0","3UN61F00HXBY9SNBPYT9QJMPTKER5O","A34YDGVZKRJ0LZ","3D1UCPY6GGVNRONHL4UEVMXCHLT38H","","null","<img src=""img/food6.png"" style=""width:200px;border:14px solid red;"">","null","","","","","","","","","",""
"","image-keyboard-response","321","207597","0.0-388.0","3UN61F00HXBY9SNBPYT9QJMPTKER5O","A34YDGVZKRJ0LZ","3D1UCPY6GGVNRONHL4UEVMXCHLT38H","","388.59999999403954","img/food6.png","76","389.2999999821186","3","0","2","2","1,0.5,0,1,0.5,0,0.5,0,1","0,1,0.5,0,1,0.5,1,0.5,0","3","false",""
"","html-keyboard-response","322","207900","0.0-389.0","3UN61F00HXBY9SNBPYT9QJMPTKER5O","A34YDGVZKRJ0LZ","3D1UCPY6GGVNRONHL4UEVMXCHLT38H","","null","<img src=""img/food6.png"" style=""width:200px;border:14px solid red;"">","null","","","","","","","","","",""
"","image-keyboard-response","323","208556","0.0-391.0","3UN61F00HXBY9SNBPYT9QJMPTKER5O","A34YDGVZKRJ0LZ","3D1UCPY6GGVNRONHL4UEVMXCHLT38H","","654.8000000119209","img/food1.png","74","655.5","1","1","3","2","1,0.5,0,1,0.5,0,0.5,0,1","0,1,0.5,0,1,0.5,1,0.5,0","3","false",""
"","html-keyboard-response","324","208857","0.0-392.0","3UN61F00HXBY9SNBPYT9QJMPTKER5O","A34YDGVZKRJ0LZ","3D1UCPY6GGVNRONHL4UEVMXCHLT38H","","null","<img src=""img/food1.png"" style=""width:200px; border:14px solid green;"">","null","","","","","","","","","",""
"","image-keyboard-response","325","209699","0.0-394.0","3UN61F00HXBY9SNBPYT9QJMPTKER5O","A34YDGVZKRJ0LZ","3D1UCPY6GGVNRONHL4UEVMXCHLT38H","","840.9000000059605","img/food4.png","75","841.6999999880791","2","1","1","2","1,0.5,0,1,0.5,0,0.5,0,1","0,1,0.5,0,1,0.5,1,0.5,0","3","false",""
"","html-keyboard-response","326","210000","0.0-395.0","3UN61F00HXBY9SNBPYT9QJMPTKER5O","A34YDGVZKRJ0LZ","3D1UCPY6GGVNRONHL4UEVMXCHLT38H","","null","<img src=""img/food4.png"" style=""width:200px; border:14px solid green;"">","null","","","","","","","","","",""
"","image-keyboard-response","327","210546","0.0-397.0","3UN61F00HXBY9SNBPYT9QJMPTKER5O","A34YDGVZKRJ0LZ","3D1UCPY6GGVNRONHL4UEVMXCHLT38H","","544.6000000238419","img/food1.png","76","545.2999999821186","3","0","3","2","1,0.5,0,1,0.5,0,0.5,0,1","0,1,0.5,0,1,0.5,1,0.5,0","3","false",""
"","html-keyboard-response","328","210847","0.0-398.0","3UN61F00HXBY9SNBPYT9QJMPTKER5O","A34YDGVZKRJ0LZ","3D1UCPY6GGVNRONHL4UEVMXCHLT38H","","null","<img src=""img/food1.png"" style=""width:200px;border:14px solid red;"">","null","","","","","","","","","",""
"","image-keyboard-response","329","211366","0.0-400.0","3UN61F00HXBY9SNBPYT9QJMPTKER5O","A34YDGVZKRJ0LZ","3D1UCPY6GGVNRONHL4UEVMXCHLT38H","","518","img/food1.png","74","518.7000000178814","1","1","3","2","1,0.5,0,1,0.5,0,0.5,0,1","0,1,0.5,0,1,0.5,1,0.5,0","3","false",""
"","html-keyboard-response","330","211667","0.0-401.0","3UN61F00HXBY9SNBPYT9QJMPTKER5O","A34YDGVZKRJ0LZ","3D1UCPY6GGVNRONHL4UEVMXCHLT38H","","null","<img src=""img/food1.png"" style=""width:200px; border:14px solid green;"">","null","","","","","","","","","",""
"","image-keyboard-response","331","212226","0.0-403.0","3UN61F00HXBY9SNBPYT9QJMPTKER5O","A34YDGVZKRJ0LZ","3D1UCPY6GGVNRONHL4UEVMXCHLT38H","","557.8000000119209","img/food6.png","76","558.5","3","0","2","2","1,0.5,0,1,0.5,0,0.5,0,1","0,1,0.5,0,1,0.5,1,0.5,0","3","false",""
"","html-keyboard-response","332","212528","0.0-404.0","3UN61F00HXBY9SNBPYT9QJMPTKER5O","A34YDGVZKRJ0LZ","3D1UCPY6GGVNRONHL4UEVMXCHLT38H","","null","<img src=""img/food6.png"" style=""width:200px;border:14px solid red;"">","null","","","","","","","","","",""
"","image-keyboard-response","333","213184","0.0-406.0","3UN61F00HXBY9SNBPYT9QJMPTKER5O","A34YDGVZKRJ0LZ","3D1UCPY6GGVNRONHL4UEVMXCHLT38H","","655.1999999880791","img/food4.png","75","656","2","1","1","2","1,0.5,0,1,0.5,0,0.5,0,1","0,1,0.5,0,1,0.5,1,0.5,0","3","false",""
"","html-keyboard-response","334","213486","0.0-407.0","3UN61F00HXBY9SNBPYT9QJMPTKER5O","A34YDGVZKRJ0LZ","3D1UCPY6GGVNRONHL4UEVMXCHLT38H","","null","<img src=""img/food4.png"" style=""width:200px; border:14px solid green;"">","null","","","","","","","","","",""
"","image-keyboard-response","335","213856","0.0-409.0","3UN61F00HXBY9SNBPYT9QJMPTKER5O","A34YDGVZKRJ0LZ","3D1UCPY6GGVNRONHL4UEVMXCHLT38H","","369.2999999821186","img/food4.png","75","370.10000002384186","2","1","1","2","1,0.5,0,1,0.5,0,0.5,0,1","0,1,0.5,0,1,0.5,1,0.5,0","3","false",""
"","html-keyboard-response","336","214158","0.0-410.0","3UN61F00HXBY9SNBPYT9QJMPTKER5O","A34YDGVZKRJ0LZ","3D1UCPY6GGVNRONHL4UEVMXCHLT38H","","null","<img src=""img/food4.png"" style=""width:200px; border:14px solid green;"">","null","","","","","","","","","",""
"","image-keyboard-response","337","214809","0.0-412.0","3UN61F00HXBY9SNBPYT9QJMPTKER5O","A34YDGVZKRJ0LZ","3D1UCPY6GGVNRONHL4UEVMXCHLT38H","","650.2999999821186","img/food6.png","76","650.9000000059605","3","1","2","2","1,0.5,0,1,0.5,0,0.5,0,1","0,1,0.5,0,1,0.5,1,0.5,0","3","false",""
"","html-keyboard-response","338","215110","0.0-413.0","3UN61F00HXBY9SNBPYT9QJMPTKER5O","A34YDGVZKRJ0LZ","3D1UCPY6GGVNRONHL4UEVMXCHLT38H","","null","<img src=""img/food6.png"" style=""width:200px; border:14px solid green;"">","null","","","","","","","","","",""
"","image-keyboard-response","339","215802","0.0-415.0","3UN61F00HXBY9SNBPYT9QJMPTKER5O","A34YDGVZKRJ0LZ","3D1UCPY6GGVNRONHL4UEVMXCHLT38H","","690.5","img/food1.png","74","691.0999999940395","1","1","3","2","1,0.5,0,1,0.5,0,0.5,0,1","0,1,0.5,0,1,0.5,1,0.5,0","3","false",""
"","html-keyboard-response","340","216104","0.0-416.0","3UN61F00HXBY9SNBPYT9QJMPTKER5O","A34YDGVZKRJ0LZ","3D1UCPY6GGVNRONHL4UEVMXCHLT38H","","null","<img src=""img/food1.png"" style=""width:200px; border:14px solid green;"">","null","","","","","","","","","",""
"","image-keyboard-response","341","216833","0.0-418.0","3UN61F00HXBY9SNBPYT9QJMPTKER5O","A34YDGVZKRJ0LZ","3D1UCPY6GGVNRONHL4UEVMXCHLT38H","","729","img/food4.png","75","729.6999999880791","2","1","1","2","1,0.5,0,1,0.5,0,0.5,0,1","0,1,0.5,0,1,0.5,1,0.5,0","3","false",""
"","html-keyboard-response","342","217135","0.0-419.0","3UN61F00HXBY9SNBPYT9QJMPTKER5O","A34YDGVZKRJ0LZ","3D1UCPY6GGVNRONHL4UEVMXCHLT38H","","null","<img src=""img/food4.png"" style=""width:200px; border:14px solid green;"">","null","","","","","","","","","",""
"","image-keyboard-response","343","217991","0.0-421.0","3UN61F00HXBY9SNBPYT9QJMPTKER5O","A34YDGVZKRJ0LZ","3D1UCPY6GGVNRONHL4UEVMXCHLT38H","","854.8000000119209","img/food6.png","76","855.5","3","0","2","2","1,0.5,0,1,0.5,0,0.5,0,1","0,1,0.5,0,1,0.5,1,0.5,0","3","false",""
"","html-keyboard-response","344","218292","0.0-422.0","3UN61F00HXBY9SNBPYT9QJMPTKER5O","A34YDGVZKRJ0LZ","3D1UCPY6GGVNRONHL4UEVMXCHLT38H","","null","<img src=""img/food6.png"" style=""width:200px;border:14px solid red;"">","null","","","","","","","","","",""
"","image-keyboard-response","345","219048","0.0-424.0","3UN61F00HXBY9SNBPYT9QJMPTKER5O","A34YDGVZKRJ0LZ","3D1UCPY6GGVNRONHL4UEVMXCHLT38H","","755.1999999880791","img/food1.png","74","755.9000000059605","1","1","3","2","1,0.5,0,1,0.5,0,0.5,0,1","0,1,0.5,0,1,0.5,1,0.5,0","3","false",""
"","html-keyboard-response","346","219350","0.0-425.0","3UN61F00HXBY9SNBPYT9QJMPTKER5O","A34YDGVZKRJ0LZ","3D1UCPY6GGVNRONHL4UEVMXCHLT38H","","null","<img src=""img/food1.png"" style=""width:200px; border:14px solid green;"">","null","","","","","","","","","",""
"","image-keyboard-response","347","219757","0.0-427.0","3UN61F00HXBY9SNBPYT9QJMPTKER5O","A34YDGVZKRJ0LZ","3D1UCPY6GGVNRONHL4UEVMXCHLT38H","","405.59999999403954","img/food1.png","74","406.2000000178814","1","1","3","2","1,0.5,0,1,0.5,0,0.5,0,1","0,1,0.5,0,1,0.5,1,0.5,0","3","false",""
"","html-keyboard-response","348","220066","0.0-428.0","3UN61F00HXBY9SNBPYT9QJMPTKER5O","A34YDGVZKRJ0LZ","3D1UCPY6GGVNRONHL4UEVMXCHLT38H","","null","<img src=""img/food1.png"" style=""width:200px; border:14px solid green;"">","null","","","","","","","","","",""
"","image-keyboard-response","349","220548","0.0-430.0","3UN61F00HXBY9SNBPYT9QJMPTKER5O","A34YDGVZKRJ0LZ","3D1UCPY6GGVNRONHL4UEVMXCHLT38H","","481.2999999821186","img/food4.png","75","482.09999999403954","2","1","1","2","1,0.5,0,1,0.5,0,0.5,0,1","0,1,0.5,0,1,0.5,1,0.5,0","3","false",""
"","html-keyboard-response","350","220851","0.0-431.0","3UN61F00HXBY9SNBPYT9QJMPTKER5O","A34YDGVZKRJ0LZ","3D1UCPY6GGVNRONHL4UEVMXCHLT38H","","null","<img src=""img/food4.png"" style=""width:200px; border:14px solid green;"">","null","","","","","","","","","",""
"","image-keyboard-response","351","221482","0.0-433.0","3UN61F00HXBY9SNBPYT9QJMPTKER5O","A34YDGVZKRJ0LZ","3D1UCPY6GGVNRONHL4UEVMXCHLT38H","","630","img/food6.png","76","630.7000000178814","3","0","2","2","1,0.5,0,1,0.5,0,0.5,0,1","0,1,0.5,0,1,0.5,1,0.5,0","3","false",""
"","html-keyboard-response","352","221784","0.0-434.0","3UN61F00HXBY9SNBPYT9QJMPTKER5O","A34YDGVZKRJ0LZ","3D1UCPY6GGVNRONHL4UEVMXCHLT38H","","null","<img src=""img/food6.png"" style=""width:200px;border:14px solid red;"">","null","","","","","","","","","",""
"","image-keyboard-response","353","222467","0.0-436.0","3UN61F00HXBY9SNBPYT9QJMPTKER5O","A34YDGVZKRJ0LZ","3D1UCPY6GGVNRONHL4UEVMXCHLT38H","","682.2999999821186","img/food1.png","74","682.9000000059605","1","1","3","2","1,0.5,0,1,0.5,0,0.5,0,1","0,1,0.5,0,1,0.5,1,0.5,0","3","false",""
"","html-keyboard-response","354","222769","0.0-437.0","3UN61F00HXBY9SNBPYT9QJMPTKER5O","A34YDGVZKRJ0LZ","3D1UCPY6GGVNRONHL4UEVMXCHLT38H","","null","<img src=""img/food1.png"" style=""width:200px; border:14px solid green;"">","null","","","","","","","","","",""
"","image-keyboard-response","355","223333","0.0-439.0","3UN61F00HXBY9SNBPYT9QJMPTKER5O","A34YDGVZKRJ0LZ","3D1UCPY6GGVNRONHL4UEVMXCHLT38H","","562.5","img/food4.png","75","563.1999999880791","2","1","1","2","1,0.5,0,1,0.5,0,0.5,0,1","0,1,0.5,0,1,0.5,1,0.5,0","3","false",""
"","html-keyboard-response","356","223634","0.0-440.0","3UN61F00HXBY9SNBPYT9QJMPTKER5O","A34YDGVZKRJ0LZ","3D1UCPY6GGVNRONHL4UEVMXCHLT38H","","null","<img src=""img/food4.png"" style=""width:200px; border:14px solid green;"">","null","","","","","","","","","",""
"","image-keyboard-response","357","224036","0.0-442.0","3UN61F00HXBY9SNBPYT9QJMPTKER5O","A34YDGVZKRJ0LZ","3D1UCPY6GGVNRONHL4UEVMXCHLT38H","","400.80000001192093","img/food4.png","75","401.59999999403954","2","1","1","2","1,0.5,0,1,0.5,0,0.5,0,1","0,1,0.5,0,1,0.5,1,0.5,0","3","false",""
"","html-keyboard-response","358","224337","0.0-443.0","3UN61F00HXBY9SNBPYT9QJMPTKER5O","A34YDGVZKRJ0LZ","3D1UCPY6GGVNRONHL4UEVMXCHLT38H","","null","<img src=""img/food4.png"" style=""width:200px; border:14px solid green;"">","null","","","","","","","","","",""
"","image-keyboard-response","359","224670","0.0-445.0","3UN61F00HXBY9SNBPYT9QJMPTKER5O","A34YDGVZKRJ0LZ","3D1UCPY6GGVNRONHL4UEVMXCHLT38H","","332.09999999403954","img/food4.png","75","332.7000000178814","2","1","1","2","1,0.5,0,1,0.5,0,0.5,0,1","0,1,0.5,0,1,0.5,1,0.5,0","3","false",""
"","html-keyboard-response","360","224972","0.0-446.0","3UN61F00HXBY9SNBPYT9QJMPTKER5O","A34YDGVZKRJ0LZ","3D1UCPY6GGVNRONHL4UEVMXCHLT38H","","null","<img src=""img/food4.png"" style=""width:200px; border:14px solid green;"">","null","","","","","","","","","",""
"","image-keyboard-response","361","225813","0.0-448.0","3UN61F00HXBY9SNBPYT9QJMPTKER5O","A34YDGVZKRJ0LZ","3D1UCPY6GGVNRONHL4UEVMXCHLT38H","","840","img/food1.png","74","841.0999999940395","1","1","3","2","1,0.5,0,1,0.5,0,0.5,0,1","0,1,0.5,0,1,0.5,1,0.5,0","3","false",""
"","html-keyboard-response","362","226116","0.0-449.0","3UN61F00HXBY9SNBPYT9QJMPTKER5O","A34YDGVZKRJ0LZ","3D1UCPY6GGVNRONHL4UEVMXCHLT38H","","null","<img src=""img/food1.png"" style=""width:200px; border:14px solid green;"">","null","","","","","","","","","",""
"","image-keyboard-response","363","226776","0.0-451.0","3UN61F00HXBY9SNBPYT9QJMPTKER5O","A34YDGVZKRJ0LZ","3D1UCPY6GGVNRONHL4UEVMXCHLT38H","","659.9000000059605","img/food6.png","76","660.3999999761581","3","0","2","2","1,0.5,0,1,0.5,0,0.5,0,1","0,1,0.5,0,1,0.5,1,0.5,0","3","false",""
"","html-keyboard-response","364","227078","0.0-452.0","3UN61F00HXBY9SNBPYT9QJMPTKER5O","A34YDGVZKRJ0LZ","3D1UCPY6GGVNRONHL4UEVMXCHLT38H","","null","<img src=""img/food6.png"" style=""width:200px;border:14px solid red;"">","null","","","","","","","","","",""
"","instructions","365","231189","0.0-454.0","3UN61F00HXBY9SNBPYT9QJMPTKER5O","A34YDGVZKRJ0LZ","3D1UCPY6GGVNRONHL4UEVMXCHLT38H","[{""page_index"":0,""viewing_time"":4110.299999982119}]","4110.5999999940395","","","","","","","","","","","",""
"","survey-text","366","321473","0.0-455.0","3UN61F00HXBY9SNBPYT9QJMPTKER5O","A34YDGVZKRJ0LZ","3D1UCPY6GGVNRONHL4UEVMXCHLT38H","","90281.29999998212","","","","","","","","","","","","{""Q0"":""A34YDGVZKRJL0Z""}"
