"success","trial_type","trial_index","time_elapsed","internal_node_id","assignmentID","mturkID","hitID","view_history","rt","stimulus","key_press","reactionTime","a","r","warning","s","cond","reward_cond","reward_cond_actual","reward_matrix_idx","responses"
"true","fullscreen","0","2660","0.0-0.0","3KJYX6QCMAXY9YJDNK2DSQUXWZDVJE","A36FBIDN58N139","3FVBZG9CLJ0K37PD5L6161S4HTM0HN","","","","","","","","","","","","","",""
"","instructions","1","24534","0.0-1.0","3KJYX6QCMAXY9YJDNK2DSQUXWZDVJE","A36FBIDN58N139","3FVBZG9CLJ0K37PD5L6161S4HTM0HN","[{""page_index"":0,""viewing_time"":3150.6999999284744},{""page_index"":1,""viewing_time"":2403.2000000476837},{""page_index"":2,""viewing_time"":1860.3999999761581},{""page_index"":3,""viewing_time"":5052},{""page_index"":4,""viewing_time"":2082.2000000476837},{""page_index"":5,""viewing_time"":5663.600000023842},{""page_index"":6,""viewing_time"":1658.1999999284744}]","21870.5","","","","","","","","","","","",""
"","instructions","2","39515","0.0-2.0","3KJYX6QCMAXY9YJDNK2DSQUXWZDVJE","A36FBIDN58N139","3FVBZG9CLJ0K37PD5L6161S4HTM0HN","[{""page_index"":0,""viewing_time"":13911.5},{""page_index"":1,""viewing_time"":1069.6999999284744}]","14981.399999976158","","","","","","","","","","","",""
"","image-keyboard-response","3","40043","0.0-3.0","3KJYX6QCMAXY9YJDNK2DSQUXWZDVJE","A36FBIDN58N139","3FVBZG9CLJ0K37PD5L6161S4HTM0HN","","526.3000000715256","img/food2.png","74","528.2000000476837","1","0","false","1","2","1,0.5,0,1,0.5,0,0.5,0,1","0.5,0,1,0.5,0,1,0,1,0.5","2",""
"","html-keyboard-response","4","40348","0.0-4.0","3KJYX6QCMAXY9YJDNK2DSQUXWZDVJE","A36FBIDN58N139","3FVBZG9CLJ0K37PD5L6161S4HTM0HN","","null","<img src=""img/food2.png"" style=""width:200px;border:14px solid red;"">","null","","","","","","","","","",""
"","image-keyboard-response","5","41349","0.0-6.0","3KJYX6QCMAXY9YJDNK2DSQUXWZDVJE","A36FBIDN58N139","3FVBZG9CLJ0K37PD5L6161S4HTM0HN","","","img/food3.png","","1000.8999999761581","-1","0","true","2","2","1,0.5,0,1,0.5,0,0.5,0,1","0.5,0,1,0.5,0,1,0,1,0.5","2",""
"","html-keyboard-response","6","41651","0.0-7.0","3KJYX6QCMAXY9YJDNK2DSQUXWZDVJE","A36FBIDN58N139","3FVBZG9CLJ0K37PD5L6161S4HTM0HN","","null","<img src=""img/food3.png"" style=""width:200px;border:14px solid red;"">","null","","","","","","","","","",""
"","html-keyboard-response","7","46309","0.0-8.0-0.0","3KJYX6QCMAXY9YJDNK2DSQUXWZDVJE","A36FBIDN58N139","3FVBZG9CLJ0K37PD5L6161S4HTM0HN","","","","","","","","","","","","","",""
"","image-keyboard-response","8","46795","0.0-9.0","3KJYX6QCMAXY9YJDNK2DSQUXWZDVJE","A36FBIDN58N139","3FVBZG9CLJ0K37PD5L6161S4HTM0HN","","484.89999997615814","img/food3.png","74","485.89999997615814","1","1","false","2","2","1,0.5,0,1,0.5,0,0.5,0,1","0.5,0,1,0.5,0,1,0,1,0.5","2",""
"","html-keyboard-response","9","47098","0.0-10.0","3KJYX6QCMAXY9YJDNK2DSQUXWZDVJE","A36FBIDN58N139","3FVBZG9CLJ0K37PD5L6161S4HTM0HN","","null","<img src=""img/food3.png"" style=""width:200px; border:14px solid green;"">","null","","","","","","","","","",""
"","image-keyboard-response","10","47874","0.0-12.0","3KJYX6QCMAXY9YJDNK2DSQUXWZDVJE","A36FBIDN58N139","3FVBZG9CLJ0K37PD5L6161S4HTM0HN","","774.1000000238419","img/food5.png","75","775.8000000715256","2","1","false","3","2","1,0.5,0,1,0.5,0,0.5,0,1","0.5,0,1,0.5,0,1,0,1,0.5","2",""
"","html-keyboard-response","11","48177","0.0-13.0","3KJYX6QCMAXY9YJDNK2DSQUXWZDVJE","A36FBIDN58N139","3FVBZG9CLJ0K37PD5L6161S4HTM0HN","","null","<img src=""img/food5.png"" style=""width:200px; border:14px solid green;"">","null","","","","","","","","","",""
"","image-keyboard-response","12","48586","0.0-15.0","3KJYX6QCMAXY9YJDNK2DSQUXWZDVJE","A36FBIDN58N139","3FVBZG9CLJ0K37PD5L6161S4HTM0HN","","408.2000000476837","img/food5.png","75","409.2999999523163","2","1","false","3","2","1,0.5,0,1,0.5,0,0.5,0,1","0.5,0,1,0.5,0,1,0,1,0.5","2",""
"","html-keyboard-response","13","48889","0.0-16.0","3KJYX6QCMAXY9YJDNK2DSQUXWZDVJE","A36FBIDN58N139","3FVBZG9CLJ0K37PD5L6161S4HTM0HN","","null","<img src=""img/food5.png"" style=""width:200px; border:14px solid green;"">","null","","","","","","","","","",""
"","image-keyboard-response","14","49098","0.0-18.0","3KJYX6QCMAXY9YJDNK2DSQUXWZDVJE","A36FBIDN58N139","3FVBZG9CLJ0K37PD5L6161S4HTM0HN","","207.80000007152557","img/food2.png","75","208.79999995231628","2","0","false","1","2","1,0.5,0,1,0.5,0,0.5,0,1","0.5,0,1,0.5,0,1,0,1,0.5","2",""
"","html-keyboard-response","15","49400","0.0-19.0","3KJYX6QCMAXY9YJDNK2DSQUXWZDVJE","A36FBIDN58N139","3FVBZG9CLJ0K37PD5L6161S4HTM0HN","","null","<img src=""img/food2.png"" style=""width:200px;border:14px solid red;"">","null","","","","","","","","","",""
"","image-keyboard-response","16","50226","0.0-21.0","3KJYX6QCMAXY9YJDNK2DSQUXWZDVJE","A36FBIDN58N139","3FVBZG9CLJ0K37PD5L6161S4HTM0HN","","823.7999999523163","img/food3.png","76","825.3999999761581","3","1","false","2","2","1,0.5,0,1,0.5,0,0.5,0,1","0.5,0,1,0.5,0,1,0,1,0.5","2",""
"","html-keyboard-response","17","50529","0.0-22.0","3KJYX6QCMAXY9YJDNK2DSQUXWZDVJE","A36FBIDN58N139","3FVBZG9CLJ0K37PD5L6161S4HTM0HN","","null","<img src=""img/food3.png"" style=""width:200px; border:14px solid green;"">","null","","","","","","","","","",""
"","image-keyboard-response","18","50793","0.0-24.0","3KJYX6QCMAXY9YJDNK2DSQUXWZDVJE","A36FBIDN58N139","3FVBZG9CLJ0K37PD5L6161S4HTM0HN","","261.60000002384186","img/food3.png","76","263.2000000476837","3","1","false","2","2","1,0.5,0,1,0.5,0,0.5,0,1","0.5,0,1,0.5,0,1,0,1,0.5","2",""
"","html-keyboard-response","19","51095","0.0-25.0","3KJYX6QCMAXY9YJDNK2DSQUXWZDVJE","A36FBIDN58N139","3FVBZG9CLJ0K37PD5L6161S4HTM0HN","","null","<img src=""img/food3.png"" style=""width:200px; border:14px solid green;"">","null","","","","","","","","","",""
"","image-keyboard-response","20","51289","0.0-27.0","3KJYX6QCMAXY9YJDNK2DSQUXWZDVJE","A36FBIDN58N139","3FVBZG9CLJ0K37PD5L6161S4HTM0HN","","193.20000004768372","img/food2.png","76","194","3","1","false","1","2","1,0.5,0,1,0.5,0,0.5,0,1","0.5,0,1,0.5,0,1,0,1,0.5","2",""
"","html-keyboard-response","21","51591","0.0-28.0","3KJYX6QCMAXY9YJDNK2DSQUXWZDVJE","A36FBIDN58N139","3FVBZG9CLJ0K37PD5L6161S4HTM0HN","","null","<img src=""img/food2.png"" style=""width:200px; border:14px solid green;"">","null","","","","","","","","","",""
"","image-keyboard-response","22","52074","0.0-30.0","3KJYX6QCMAXY9YJDNK2DSQUXWZDVJE","A36FBIDN58N139","3FVBZG9CLJ0K37PD5L6161S4HTM0HN","","482.09999990463257","img/food2.png","76","483.10000002384186","3","1","false","1","2","1,0.5,0,1,0.5,0,0.5,0,1","0.5,0,1,0.5,0,1,0,1,0.5","2",""
"","html-keyboard-response","23","52377","0.0-31.0","3KJYX6QCMAXY9YJDNK2DSQUXWZDVJE","A36FBIDN58N139","3FVBZG9CLJ0K37PD5L6161S4HTM0HN","","null","<img src=""img/food2.png"" style=""width:200px; border:14px solid green;"">","null","","","","","","","","","",""
"","image-keyboard-response","24","52618","0.0-33.0","3KJYX6QCMAXY9YJDNK2DSQUXWZDVJE","A36FBIDN58N139","3FVBZG9CLJ0K37PD5L6161S4HTM0HN","","238.69999992847443","img/food2.png","76","240.5","3","1","false","1","2","1,0.5,0,1,0.5,0,0.5,0,1","0.5,0,1,0.5,0,1,0,1,0.5","2",""
"","html-keyboard-response","25","52921","0.0-34.0","3KJYX6QCMAXY9YJDNK2DSQUXWZDVJE","A36FBIDN58N139","3FVBZG9CLJ0K37PD5L6161S4HTM0HN","","null","<img src=""img/food2.png"" style=""width:200px; border:14px solid green;"">","null","","","","","","","","","",""
"","image-keyboard-response","26","53146","0.0-36.0","3KJYX6QCMAXY9YJDNK2DSQUXWZDVJE","A36FBIDN58N139","3FVBZG9CLJ0K37PD5L6161S4HTM0HN","","224.30000007152557","img/food2.png","76","225.19999992847443","3","1","false","1","2","1,0.5,0,1,0.5,0,0.5,0,1","0.5,0,1,0.5,0,1,0,1,0.5","2",""
"","html-keyboard-response","27","53448","0.0-37.0","3KJYX6QCMAXY9YJDNK2DSQUXWZDVJE","A36FBIDN58N139","3FVBZG9CLJ0K37PD5L6161S4HTM0HN","","null","<img src=""img/food2.png"" style=""width:200px; border:14px solid green;"">","null","","","","","","","","","",""
"","image-keyboard-response","28","53641","0.0-39.0","3KJYX6QCMAXY9YJDNK2DSQUXWZDVJE","A36FBIDN58N139","3FVBZG9CLJ0K37PD5L6161S4HTM0HN","","192.19999992847443","img/food3.png","76","192.80000007152557","3","1","false","2","2","1,0.5,0,1,0.5,0,0.5,0,1","0.5,0,1,0.5,0,1,0,1,0.5","2",""
"","html-keyboard-response","29","53942","0.0-40.0","3KJYX6QCMAXY9YJDNK2DSQUXWZDVJE","A36FBIDN58N139","3FVBZG9CLJ0K37PD5L6161S4HTM0HN","","null","<img src=""img/food3.png"" style=""width:200px; border:14px solid green;"">","null","","","","","","","","","",""
"","image-keyboard-response","30","54698","0.0-42.0","3KJYX6QCMAXY9YJDNK2DSQUXWZDVJE","A36FBIDN58N139","3FVBZG9CLJ0K37PD5L6161S4HTM0HN","","753.6000000238419","img/food5.png","75","755.5","2","1","false","3","2","1,0.5,0,1,0.5,0,0.5,0,1","0.5,0,1,0.5,0,1,0,1,0.5","2",""
"","html-keyboard-response","31","55001","0.0-43.0","3KJYX6QCMAXY9YJDNK2DSQUXWZDVJE","A36FBIDN58N139","3FVBZG9CLJ0K37PD5L6161S4HTM0HN","","null","<img src=""img/food5.png"" style=""width:200px; border:14px solid green;"">","null","","","","","","","","","",""
"","image-keyboard-response","32","55226","0.0-45.0","3KJYX6QCMAXY9YJDNK2DSQUXWZDVJE","A36FBIDN58N139","3FVBZG9CLJ0K37PD5L6161S4HTM0HN","","222.80000007152557","img/food5.png","75","224.40000009536743","2","1","false","3","2","1,0.5,0,1,0.5,0,0.5,0,1","0.5,0,1,0.5,0,1,0,1,0.5","2",""
"","html-keyboard-response","33","55528","0.0-46.0","3KJYX6QCMAXY9YJDNK2DSQUXWZDVJE","A36FBIDN58N139","3FVBZG9CLJ0K37PD5L6161S4HTM0HN","","null","<img src=""img/food5.png"" style=""width:200px; border:14px solid green;"">","null","","","","","","","","","",""
"","image-keyboard-response","34","56218","0.0-48.0","3KJYX6QCMAXY9YJDNK2DSQUXWZDVJE","A36FBIDN58N139","3FVBZG9CLJ0K37PD5L6161S4HTM0HN","","687.2999999523163","img/food3.png","76","688.8999999761581","3","1","false","2","2","1,0.5,0,1,0.5,0,0.5,0,1","0.5,0,1,0.5,0,1,0,1,0.5","2",""
"","html-keyboard-response","35","56520","0.0-49.0","3KJYX6QCMAXY9YJDNK2DSQUXWZDVJE","A36FBIDN58N139","3FVBZG9CLJ0K37PD5L6161S4HTM0HN","","null","<img src=""img/food3.png"" style=""width:200px; border:14px solid green;"">","null","","","","","","","","","",""
"","image-keyboard-response","36","56730","0.0-51.0","3KJYX6QCMAXY9YJDNK2DSQUXWZDVJE","A36FBIDN58N139","3FVBZG9CLJ0K37PD5L6161S4HTM0HN","","207.60000002384186","img/food3.png","76","209.39999997615814","3","1","false","2","2","1,0.5,0,1,0.5,0,0.5,0,1","0.5,0,1,0.5,0,1,0,1,0.5","2",""
"","html-keyboard-response","37","57033","0.0-52.0","3KJYX6QCMAXY9YJDNK2DSQUXWZDVJE","A36FBIDN58N139","3FVBZG9CLJ0K37PD5L6161S4HTM0HN","","null","<img src=""img/food3.png"" style=""width:200px; border:14px solid green;"">","null","","","","","","","","","",""
"","image-keyboard-response","38","57169","0.0-54.0","3KJYX6QCMAXY9YJDNK2DSQUXWZDVJE","A36FBIDN58N139","3FVBZG9CLJ0K37PD5L6161S4HTM0HN","","134","img/food2.png","76","135.20000004768372","3","1","false","1","2","1,0.5,0,1,0.5,0,0.5,0,1","0.5,0,1,0.5,0,1,0,1,0.5","2",""
"","html-keyboard-response","39","57470","0.0-55.0","3KJYX6QCMAXY9YJDNK2DSQUXWZDVJE","A36FBIDN58N139","3FVBZG9CLJ0K37PD5L6161S4HTM0HN","","null","<img src=""img/food2.png"" style=""width:200px; border:14px solid green;"">","null","","","","","","","","","",""
"","image-keyboard-response","40","58018","0.0-57.0","3KJYX6QCMAXY9YJDNK2DSQUXWZDVJE","A36FBIDN58N139","3FVBZG9CLJ0K37PD5L6161S4HTM0HN","","547","img/food3.png","76","548","3","1","false","2","2","1,0.5,0,1,0.5,0,0.5,0,1","0.5,0,1,0.5,0,1,0,1,0.5","2",""
"","html-keyboard-response","41","58321","0.0-58.0","3KJYX6QCMAXY9YJDNK2DSQUXWZDVJE","A36FBIDN58N139","3FVBZG9CLJ0K37PD5L6161S4HTM0HN","","null","<img src=""img/food3.png"" style=""width:200px; border:14px solid green;"">","null","","","","","","","","","",""
"","image-keyboard-response","42","58858","0.0-60.0","3KJYX6QCMAXY9YJDNK2DSQUXWZDVJE","A36FBIDN58N139","3FVBZG9CLJ0K37PD5L6161S4HTM0HN","","535.6000000238419","img/food5.png","75","537.2000000476837","2","1","false","3","2","1,0.5,0,1,0.5,0,0.5,0,1","0.5,0,1,0.5,0,1,0,1,0.5","2",""
"","html-keyboard-response","43","59161","0.0-61.0","3KJYX6QCMAXY9YJDNK2DSQUXWZDVJE","A36FBIDN58N139","3FVBZG9CLJ0K37PD5L6161S4HTM0HN","","null","<img src=""img/food5.png"" style=""width:200px; border:14px solid green;"">","null","","","","","","","","","",""
"","image-keyboard-response","44","59394","0.0-63.0","3KJYX6QCMAXY9YJDNK2DSQUXWZDVJE","A36FBIDN58N139","3FVBZG9CLJ0K37PD5L6161S4HTM0HN","","232.29999995231628","img/food5.png","75","233.09999990463257","2","1","false","3","2","1,0.5,0,1,0.5,0,0.5,0,1","0.5,0,1,0.5,0,1,0,1,0.5","2",""
"","html-keyboard-response","45","59697","0.0-64.0","3KJYX6QCMAXY9YJDNK2DSQUXWZDVJE","A36FBIDN58N139","3FVBZG9CLJ0K37PD5L6161S4HTM0HN","","null","<img src=""img/food5.png"" style=""width:200px; border:14px solid green;"">","null","","","","","","","","","",""
"","image-keyboard-response","46","60281","0.0-66.0","3KJYX6QCMAXY9YJDNK2DSQUXWZDVJE","A36FBIDN58N139","3FVBZG9CLJ0K37PD5L6161S4HTM0HN","","582.1000000238419","img/food2.png","76","583.3999999761581","3","1","false","1","2","1,0.5,0,1,0.5,0,0.5,0,1","0.5,0,1,0.5,0,1,0,1,0.5","2",""
"","html-keyboard-response","47","60582","0.0-67.0","3KJYX6QCMAXY9YJDNK2DSQUXWZDVJE","A36FBIDN58N139","3FVBZG9CLJ0K37PD5L6161S4HTM0HN","","null","<img src=""img/food2.png"" style=""width:200px; border:14px solid green;"">","null","","","","","","","","","",""
"","image-keyboard-response","48","60809","0.0-69.0","3KJYX6QCMAXY9YJDNK2DSQUXWZDVJE","A36FBIDN58N139","3FVBZG9CLJ0K37PD5L6161S4HTM0HN","","224.79999995231628","img/food2.png","76","226.19999992847443","3","1","false","1","2","1,0.5,0,1,0.5,0,0.5,0,1","0.5,0,1,0.5,0,1,0,1,0.5","2",""
"","html-keyboard-response","49","61111","0.0-70.0","3KJYX6QCMAXY9YJDNK2DSQUXWZDVJE","A36FBIDN58N139","3FVBZG9CLJ0K37PD5L6161S4HTM0HN","","null","<img src=""img/food2.png"" style=""width:200px; border:14px solid green;"">","null","","","","","","","","","",""
"","image-keyboard-response","50","61602","0.0-72.0","3KJYX6QCMAXY9YJDNK2DSQUXWZDVJE","A36FBIDN58N139","3FVBZG9CLJ0K37PD5L6161S4HTM0HN","","488.90000009536743","img/food5.png","75","490.7999999523163","2","1","false","3","2","1,0.5,0,1,0.5,0,0.5,0,1","0.5,0,1,0.5,0,1,0,1,0.5","2",""
"","html-keyboard-response","51","61904","0.0-73.0","3KJYX6QCMAXY9YJDNK2DSQUXWZDVJE","A36FBIDN58N139","3FVBZG9CLJ0K37PD5L6161S4HTM0HN","","null","<img src=""img/food5.png"" style=""width:200px; border:14px solid green;"">","null","","","","","","","","","",""
"","image-keyboard-response","52","62466","0.0-75.0","3KJYX6QCMAXY9YJDNK2DSQUXWZDVJE","A36FBIDN58N139","3FVBZG9CLJ0K37PD5L6161S4HTM0HN","","559.5","img/food3.png","76","561.1000000238419","3","1","false","2","2","1,0.5,0,1,0.5,0,0.5,0,1","0.5,0,1,0.5,0,1,0,1,0.5","2",""
"","html-keyboard-response","53","62769","0.0-76.0","3KJYX6QCMAXY9YJDNK2DSQUXWZDVJE","A36FBIDN58N139","3FVBZG9CLJ0K37PD5L6161S4HTM0HN","","null","<img src=""img/food3.png"" style=""width:200px; border:14px solid green;"">","null","","","","","","","","","",""
"","image-keyboard-response","54","62995","0.0-78.0","3KJYX6QCMAXY9YJDNK2DSQUXWZDVJE","A36FBIDN58N139","3FVBZG9CLJ0K37PD5L6161S4HTM0HN","","224.39999997615814","img/food3.png","76","225.69999992847443","3","1","false","2","2","1,0.5,0,1,0.5,0,0.5,0,1","0.5,0,1,0.5,0,1,0,1,0.5","2",""
"","html-keyboard-response","55","63297","0.0-79.0","3KJYX6QCMAXY9YJDNK2DSQUXWZDVJE","A36FBIDN58N139","3FVBZG9CLJ0K37PD5L6161S4HTM0HN","","null","<img src=""img/food3.png"" style=""width:200px; border:14px solid green;"">","null","","","","","","","","","",""
"","image-keyboard-response","56","63778","0.0-81.0","3KJYX6QCMAXY9YJDNK2DSQUXWZDVJE","A36FBIDN58N139","3FVBZG9CLJ0K37PD5L6161S4HTM0HN","","479.10000002384186","img/food5.png","75","480.8000000715256","2","1","false","3","2","1,0.5,0,1,0.5,0,0.5,0,1","0.5,0,1,0.5,0,1,0,1,0.5","2",""
"","html-keyboard-response","57","64081","0.0-82.0","3KJYX6QCMAXY9YJDNK2DSQUXWZDVJE","A36FBIDN58N139","3FVBZG9CLJ0K37PD5L6161S4HTM0HN","","null","<img src=""img/food5.png"" style=""width:200px; border:14px solid green;"">","null","","","","","","","","","",""
"","image-keyboard-response","58","64562","0.0-84.0","3KJYX6QCMAXY9YJDNK2DSQUXWZDVJE","A36FBIDN58N139","3FVBZG9CLJ0K37PD5L6161S4HTM0HN","","479.39999997615814","img/food3.png","76","481.2000000476837","3","1","false","2","2","1,0.5,0,1,0.5,0,0.5,0,1","0.5,0,1,0.5,0,1,0,1,0.5","2",""
"","html-keyboard-response","59","64866","0.0-85.0","3KJYX6QCMAXY9YJDNK2DSQUXWZDVJE","A36FBIDN58N139","3FVBZG9CLJ0K37PD5L6161S4HTM0HN","","null","<img src=""img/food3.png"" style=""width:200px; border:14px solid green;"">","null","","","","","","","","","",""
"","image-keyboard-response","60","65298","0.0-87.0","3KJYX6QCMAXY9YJDNK2DSQUXWZDVJE","A36FBIDN58N139","3FVBZG9CLJ0K37PD5L6161S4HTM0HN","","431.5","img/food5.png","75","432.39999997615814","2","1","false","3","2","1,0.5,0,1,0.5,0,0.5,0,1","0.5,0,1,0.5,0,1,0,1,0.5","2",""
"","html-keyboard-response","61","65601","0.0-88.0","3KJYX6QCMAXY9YJDNK2DSQUXWZDVJE","A36FBIDN58N139","3FVBZG9CLJ0K37PD5L6161S4HTM0HN","","null","<img src=""img/food5.png"" style=""width:200px; border:14px solid green;"">","null","","","","","","","","","",""
"","image-keyboard-response","62","65905","0.0-90.0","3KJYX6QCMAXY9YJDNK2DSQUXWZDVJE","A36FBIDN58N139","3FVBZG9CLJ0K37PD5L6161S4HTM0HN","","302.09999990463257","img/food5.png","75","303.2000000476837","2","1","false","3","2","1,0.5,0,1,0.5,0,0.5,0,1","0.5,0,1,0.5,0,1,0,1,0.5","2",""
"","html-keyboard-response","63","66207","0.0-91.0","3KJYX6QCMAXY9YJDNK2DSQUXWZDVJE","A36FBIDN58N139","3FVBZG9CLJ0K37PD5L6161S4HTM0HN","","null","<img src=""img/food5.png"" style=""width:200px; border:14px solid green;"">","null","","","","","","","","","",""
"","image-keyboard-response","64","66682","0.0-93.0","3KJYX6QCMAXY9YJDNK2DSQUXWZDVJE","A36FBIDN58N139","3FVBZG9CLJ0K37PD5L6161S4HTM0HN","","474","img/food3.png","76","475.10000002384186","3","1","false","2","2","1,0.5,0,1,0.5,0,0.5,0,1","0.5,0,1,0.5,0,1,0,1,0.5","2",""
"","html-keyboard-response","65","66986","0.0-94.0","3KJYX6QCMAXY9YJDNK2DSQUXWZDVJE","A36FBIDN58N139","3FVBZG9CLJ0K37PD5L6161S4HTM0HN","","null","<img src=""img/food3.png"" style=""width:200px; border:14px solid green;"">","null","","","","","","","","","",""
"","image-keyboard-response","66","67473","0.0-96.0","3KJYX6QCMAXY9YJDNK2DSQUXWZDVJE","A36FBIDN58N139","3FVBZG9CLJ0K37PD5L6161S4HTM0HN","","485.39999997615814","img/food5.png","75","486.60000002384186","2","1","false","3","2","1,0.5,0,1,0.5,0,0.5,0,1","0.5,0,1,0.5,0,1,0,1,0.5","2",""
"","html-keyboard-response","67","67774","0.0-97.0","3KJYX6QCMAXY9YJDNK2DSQUXWZDVJE","A36FBIDN58N139","3FVBZG9CLJ0K37PD5L6161S4HTM0HN","","null","<img src=""img/food5.png"" style=""width:200px; border:14px solid green;"">","null","","","","","","","","","",""
"","image-keyboard-response","68","68370","0.0-99.0","3KJYX6QCMAXY9YJDNK2DSQUXWZDVJE","A36FBIDN58N139","3FVBZG9CLJ0K37PD5L6161S4HTM0HN","","595","img/food2.png","76","595.7999999523163","3","1","false","1","2","1,0.5,0,1,0.5,0,0.5,0,1","0.5,0,1,0.5,0,1,0,1,0.5","2",""
"","html-keyboard-response","69","68673","0.0-100.0","3KJYX6QCMAXY9YJDNK2DSQUXWZDVJE","A36FBIDN58N139","3FVBZG9CLJ0K37PD5L6161S4HTM0HN","","null","<img src=""img/food2.png"" style=""width:200px; border:14px solid green;"">","null","","","","","","","","","",""
"","image-keyboard-response","70","69323","0.0-102.0","3KJYX6QCMAXY9YJDNK2DSQUXWZDVJE","A36FBIDN58N139","3FVBZG9CLJ0K37PD5L6161S4HTM0HN","","647.3000000715256","img/food5.png","75","648.8000000715256","2","1","false","3","2","1,0.5,0,1,0.5,0,0.5,0,1","0.5,0,1,0.5,0,1,0,1,0.5","2",""
"","html-keyboard-response","71","69625","0.0-103.0","3KJYX6QCMAXY9YJDNK2DSQUXWZDVJE","A36FBIDN58N139","3FVBZG9CLJ0K37PD5L6161S4HTM0HN","","null","<img src=""img/food5.png"" style=""width:200px; border:14px solid green;"">","null","","","","","","","","","",""
"","image-keyboard-response","72","69897","0.0-105.0","3KJYX6QCMAXY9YJDNK2DSQUXWZDVJE","A36FBIDN58N139","3FVBZG9CLJ0K37PD5L6161S4HTM0HN","","270.60000002384186","img/food5.png","75","271.1999999284744","2","1","false","3","2","1,0.5,0,1,0.5,0,0.5,0,1","0.5,0,1,0.5,0,1,0,1,0.5","2",""
"","html-keyboard-response","73","70199","0.0-106.0","3KJYX6QCMAXY9YJDNK2DSQUXWZDVJE","A36FBIDN58N139","3FVBZG9CLJ0K37PD5L6161S4HTM0HN","","null","<img src=""img/food5.png"" style=""width:200px; border:14px solid green;"">","null","","","","","","","","","",""
"","image-keyboard-response","74","70674","0.0-108.0","3KJYX6QCMAXY9YJDNK2DSQUXWZDVJE","A36FBIDN58N139","3FVBZG9CLJ0K37PD5L6161S4HTM0HN","","474.09999990463257","img/food3.png","76","475.10000002384186","3","1","false","2","2","1,0.5,0,1,0.5,0,0.5,0,1","0.5,0,1,0.5,0,1,0,1,0.5","2",""
"","html-keyboard-response","75","70977","0.0-109.0","3KJYX6QCMAXY9YJDNK2DSQUXWZDVJE","A36FBIDN58N139","3FVBZG9CLJ0K37PD5L6161S4HTM0HN","","null","<img src=""img/food3.png"" style=""width:200px; border:14px solid green;"">","null","","","","","","","","","",""
"","image-keyboard-response","76","71242","0.0-111.0","3KJYX6QCMAXY9YJDNK2DSQUXWZDVJE","A36FBIDN58N139","3FVBZG9CLJ0K37PD5L6161S4HTM0HN","","263.39999997615814","img/food3.png","76","265.10000002384186","3","1","false","2","2","1,0.5,0,1,0.5,0,0.5,0,1","0.5,0,1,0.5,0,1,0,1,0.5","2",""
"","html-keyboard-response","77","71545","0.0-112.0","3KJYX6QCMAXY9YJDNK2DSQUXWZDVJE","A36FBIDN58N139","3FVBZG9CLJ0K37PD5L6161S4HTM0HN","","null","<img src=""img/food3.png"" style=""width:200px; border:14px solid green;"">","null","","","","","","","","","",""
"","image-keyboard-response","78","71795","0.0-114.0","3KJYX6QCMAXY9YJDNK2DSQUXWZDVJE","A36FBIDN58N139","3FVBZG9CLJ0K37PD5L6161S4HTM0HN","","249.10000002384186","img/food3.png","76","250","3","1","false","2","2","1,0.5,0,1,0.5,0,0.5,0,1","0.5,0,1,0.5,0,1,0,1,0.5","2",""
"","html-keyboard-response","79","72098","0.0-115.0","3KJYX6QCMAXY9YJDNK2DSQUXWZDVJE","A36FBIDN58N139","3FVBZG9CLJ0K37PD5L6161S4HTM0HN","","null","<img src=""img/food3.png"" style=""width:200px; border:14px solid green;"">","null","","","","","","","","","",""
"","image-keyboard-response","80","72610","0.0-117.0","3KJYX6QCMAXY9YJDNK2DSQUXWZDVJE","A36FBIDN58N139","3FVBZG9CLJ0K37PD5L6161S4HTM0HN","","510.10000002384186","img/food5.png","75","511.6999999284744","2","1","false","3","2","1,0.5,0,1,0.5,0,0.5,0,1","0.5,0,1,0.5,0,1,0,1,0.5","2",""
"","html-keyboard-response","81","72913","0.0-118.0","3KJYX6QCMAXY9YJDNK2DSQUXWZDVJE","A36FBIDN58N139","3FVBZG9CLJ0K37PD5L6161S4HTM0HN","","null","<img src=""img/food5.png"" style=""width:200px; border:14px solid green;"">","null","","","","","","","","","",""
"","image-keyboard-response","82","73386","0.0-120.0","3KJYX6QCMAXY9YJDNK2DSQUXWZDVJE","A36FBIDN58N139","3FVBZG9CLJ0K37PD5L6161S4HTM0HN","","470.5","img/food3.png","76","472.09999990463257","3","1","false","2","2","1,0.5,0,1,0.5,0,0.5,0,1","0.5,0,1,0.5,0,1,0,1,0.5","2",""
"","html-keyboard-response","83","73689","0.0-121.0","3KJYX6QCMAXY9YJDNK2DSQUXWZDVJE","A36FBIDN58N139","3FVBZG9CLJ0K37PD5L6161S4HTM0HN","","null","<img src=""img/food3.png"" style=""width:200px; border:14px solid green;"">","null","","","","","","","","","",""
"","image-keyboard-response","84","73945","0.0-123.0","3KJYX6QCMAXY9YJDNK2DSQUXWZDVJE","A36FBIDN58N139","3FVBZG9CLJ0K37PD5L6161S4HTM0HN","","253.5","img/food3.png","76","254.90000009536743","3","1","false","2","2","1,0.5,0,1,0.5,0,0.5,0,1","0.5,0,1,0.5,0,1,0,1,0.5","2",""
"","html-keyboard-response","85","74247","0.0-124.0","3KJYX6QCMAXY9YJDNK2DSQUXWZDVJE","A36FBIDN58N139","3FVBZG9CLJ0K37PD5L6161S4HTM0HN","","null","<img src=""img/food3.png"" style=""width:200px; border:14px solid green;"">","null","","","","","","","","","",""
"","image-keyboard-response","86","74466","0.0-126.0","3KJYX6QCMAXY9YJDNK2DSQUXWZDVJE","A36FBIDN58N139","3FVBZG9CLJ0K37PD5L6161S4HTM0HN","","217.39999997615814","img/food3.png","76","218.89999997615814","3","1","false","2","2","1,0.5,0,1,0.5,0,0.5,0,1","0.5,0,1,0.5,0,1,0,1,0.5","2",""
"","html-keyboard-response","87","74770","0.0-127.0","3KJYX6QCMAXY9YJDNK2DSQUXWZDVJE","A36FBIDN58N139","3FVBZG9CLJ0K37PD5L6161S4HTM0HN","","null","<img src=""img/food3.png"" style=""width:200px; border:14px solid green;"">","null","","","","","","","","","",""
"","image-keyboard-response","88","75250","0.0-129.0","3KJYX6QCMAXY9YJDNK2DSQUXWZDVJE","A36FBIDN58N139","3FVBZG9CLJ0K37PD5L6161S4HTM0HN","","479.39999997615814","img/food2.png","75","480.2999999523163","2","0","false","1","2","1,0.5,0,1,0.5,0,0.5,0,1","0.5,0,1,0.5,0,1,0,1,0.5","2",""
"","html-keyboard-response","89","75552","0.0-130.0","3KJYX6QCMAXY9YJDNK2DSQUXWZDVJE","A36FBIDN58N139","3FVBZG9CLJ0K37PD5L6161S4HTM0HN","","null","<img src=""img/food2.png"" style=""width:200px;border:14px solid red;"">","null","","","","","","","","","",""
"","image-keyboard-response","90","76443","0.0-132.0","3KJYX6QCMAXY9YJDNK2DSQUXWZDVJE","A36FBIDN58N139","3FVBZG9CLJ0K37PD5L6161S4HTM0HN","","889.3999999761581","img/food5.png","75","890.2999999523163","2","1","false","3","2","1,0.5,0,1,0.5,0,0.5,0,1","0.5,0,1,0.5,0,1,0,1,0.5","2",""
"","html-keyboard-response","91","76745","0.0-133.0","3KJYX6QCMAXY9YJDNK2DSQUXWZDVJE","A36FBIDN58N139","3FVBZG9CLJ0K37PD5L6161S4HTM0HN","","null","<img src=""img/food5.png"" style=""width:200px; border:14px solid green;"">","null","","","","","","","","","",""
"","image-keyboard-response","92","77282","0.0-135.0","3KJYX6QCMAXY9YJDNK2DSQUXWZDVJE","A36FBIDN58N139","3FVBZG9CLJ0K37PD5L6161S4HTM0HN","","536.2000000476837","img/food2.png","76","536.8999999761581","3","1","false","1","2","1,0.5,0,1,0.5,0,0.5,0,1","0.5,0,1,0.5,0,1,0,1,0.5","2",""
"","html-keyboard-response","93","77585","0.0-136.0","3KJYX6QCMAXY9YJDNK2DSQUXWZDVJE","A36FBIDN58N139","3FVBZG9CLJ0K37PD5L6161S4HTM0HN","","null","<img src=""img/food2.png"" style=""width:200px; border:14px solid green;"">","null","","","","","","","","","",""
"","image-keyboard-response","94","77746","0.0-138.0","3KJYX6QCMAXY9YJDNK2DSQUXWZDVJE","A36FBIDN58N139","3FVBZG9CLJ0K37PD5L6161S4HTM0HN","","159.20000004768372","img/food5.png","76","160.69999992847443","3","1","false","3","2","1,0.5,0,1,0.5,0,0.5,0,1","0.5,0,1,0.5,0,1,0,1,0.5","2",""
"","html-keyboard-response","95","78048","0.0-139.0","3KJYX6QCMAXY9YJDNK2DSQUXWZDVJE","A36FBIDN58N139","3FVBZG9CLJ0K37PD5L6161S4HTM0HN","","null","<img src=""img/food5.png"" style=""width:200px; border:14px solid green;"">","null","","","","","","","","","",""
"","image-keyboard-response","96","78706","0.0-141.0","3KJYX6QCMAXY9YJDNK2DSQUXWZDVJE","A36FBIDN58N139","3FVBZG9CLJ0K37PD5L6161S4HTM0HN","","656.3999999761581","img/food2.png","76","657.5","3","1","false","1","2","1,0.5,0,1,0.5,0,0.5,0,1","0.5,0,1,0.5,0,1,0,1,0.5","2",""
"","html-keyboard-response","97","79009","0.0-142.0","3KJYX6QCMAXY9YJDNK2DSQUXWZDVJE","A36FBIDN58N139","3FVBZG9CLJ0K37PD5L6161S4HTM0HN","","null","<img src=""img/food2.png"" style=""width:200px; border:14px solid green;"">","null","","","","","","","","","",""
"","image-keyboard-response","98","79993","0.0-144.0","3KJYX6QCMAXY9YJDNK2DSQUXWZDVJE","A36FBIDN58N139","3FVBZG9CLJ0K37PD5L6161S4HTM0HN","","983.1999999284744","img/food5.png","75","984.1000000238419","2","1","false","3","2","1,0.5,0,1,0.5,0,0.5,0,1","0.5,0,1,0.5,0,1,0,1,0.5","2",""
"","html-keyboard-response","99","80294","0.0-145.0","3KJYX6QCMAXY9YJDNK2DSQUXWZDVJE","A36FBIDN58N139","3FVBZG9CLJ0K37PD5L6161S4HTM0HN","","null","<img src=""img/food5.png"" style=""width:200px; border:14px solid green;"">","null","","","","","","","","","",""
"","image-keyboard-response","100","80866","0.0-147.0","3KJYX6QCMAXY9YJDNK2DSQUXWZDVJE","A36FBIDN58N139","3FVBZG9CLJ0K37PD5L6161S4HTM0HN","","569.8999999761581","img/food2.png","76","571.2000000476837","3","1","false","1","2","1,0.5,0,1,0.5,0,0.5,0,1","0.5,0,1,0.5,0,1,0,1,0.5","2",""
"","html-keyboard-response","101","81169","0.0-148.0","3KJYX6QCMAXY9YJDNK2DSQUXWZDVJE","A36FBIDN58N139","3FVBZG9CLJ0K37PD5L6161S4HTM0HN","","null","<img src=""img/food2.png"" style=""width:200px; border:14px solid green;"">","null","","","","","","","","","",""
"","image-keyboard-response","102","81786","0.0-150.0","3KJYX6QCMAXY9YJDNK2DSQUXWZDVJE","A36FBIDN58N139","3FVBZG9CLJ0K37PD5L6161S4HTM0HN","","616.3999999761581","img/food5.png","75","617.2999999523163","2","1","false","3","2","1,0.5,0,1,0.5,0,0.5,0,1","0.5,0,1,0.5,0,1,0,1,0.5","2",""
"","html-keyboard-response","103","82088","0.0-151.0","3KJYX6QCMAXY9YJDNK2DSQUXWZDVJE","A36FBIDN58N139","3FVBZG9CLJ0K37PD5L6161S4HTM0HN","","null","<img src=""img/food5.png"" style=""width:200px; border:14px solid green;"">","null","","","","","","","","","",""
"","image-keyboard-response","104","82362","0.0-153.0","3KJYX6QCMAXY9YJDNK2DSQUXWZDVJE","A36FBIDN58N139","3FVBZG9CLJ0K37PD5L6161S4HTM0HN","","271.89999997615814","img/food5.png","75","273.2999999523163","2","1","false","3","2","1,0.5,0,1,0.5,0,0.5,0,1","0.5,0,1,0.5,0,1,0,1,0.5","2",""
"","html-keyboard-response","105","82664","0.0-154.0","3KJYX6QCMAXY9YJDNK2DSQUXWZDVJE","A36FBIDN58N139","3FVBZG9CLJ0K37PD5L6161S4HTM0HN","","null","<img src=""img/food5.png"" style=""width:200px; border:14px solid green;"">","null","","","","","","","","","",""
"","image-keyboard-response","106","83274","0.0-156.0","3KJYX6QCMAXY9YJDNK2DSQUXWZDVJE","A36FBIDN58N139","3FVBZG9CLJ0K37PD5L6161S4HTM0HN","","607.4000000953674","img/food3.png","76","609.0999999046326","3","1","false","2","2","1,0.5,0,1,0.5,0,0.5,0,1","0.5,0,1,0.5,0,1,0,1,0.5","2",""
"","html-keyboard-response","107","83577","0.0-157.0","3KJYX6QCMAXY9YJDNK2DSQUXWZDVJE","A36FBIDN58N139","3FVBZG9CLJ0K37PD5L6161S4HTM0HN","","null","<img src=""img/food3.png"" style=""width:200px; border:14px solid green;"">","null","","","","","","","","","",""
"","image-keyboard-response","108","84217","0.0-159.0","3KJYX6QCMAXY9YJDNK2DSQUXWZDVJE","A36FBIDN58N139","3FVBZG9CLJ0K37PD5L6161S4HTM0HN","","638.6000000238419","img/food5.png","75","639.8000000715256","2","1","false","3","2","1,0.5,0,1,0.5,0,0.5,0,1","0.5,0,1,0.5,0,1,0,1,0.5","2",""
"","html-keyboard-response","109","84519","0.0-160.0","3KJYX6QCMAXY9YJDNK2DSQUXWZDVJE","A36FBIDN58N139","3FVBZG9CLJ0K37PD5L6161S4HTM0HN","","null","<img src=""img/food5.png"" style=""width:200px; border:14px solid green;"">","null","","","","","","","","","",""
"","image-keyboard-response","110","85050","0.0-162.0","3KJYX6QCMAXY9YJDNK2DSQUXWZDVJE","A36FBIDN58N139","3FVBZG9CLJ0K37PD5L6161S4HTM0HN","","529.3999999761581","img/food2.png","76","531","3","1","false","1","2","1,0.5,0,1,0.5,0,0.5,0,1","0.5,0,1,0.5,0,1,0,1,0.5","2",""
"","html-keyboard-response","111","85353","0.0-163.0","3KJYX6QCMAXY9YJDNK2DSQUXWZDVJE","A36FBIDN58N139","3FVBZG9CLJ0K37PD5L6161S4HTM0HN","","null","<img src=""img/food2.png"" style=""width:200px; border:14px solid green;"">","null","","","","","","","","","",""
"","image-keyboard-response","112","85898","0.0-165.0","3KJYX6QCMAXY9YJDNK2DSQUXWZDVJE","A36FBIDN58N139","3FVBZG9CLJ0K37PD5L6161S4HTM0HN","","542.8999999761581","img/food5.png","75","544.3999999761581","2","1","false","3","2","1,0.5,0,1,0.5,0,0.5,0,1","0.5,0,1,0.5,0,1,0,1,0.5","2",""
"","html-keyboard-response","113","86200","0.0-166.0","3KJYX6QCMAXY9YJDNK2DSQUXWZDVJE","A36FBIDN58N139","3FVBZG9CLJ0K37PD5L6161S4HTM0HN","","null","<img src=""img/food5.png"" style=""width:200px; border:14px solid green;"">","null","","","","","","","","","",""
"","image-keyboard-response","114","86801","0.0-168.0","3KJYX6QCMAXY9YJDNK2DSQUXWZDVJE","A36FBIDN58N139","3FVBZG9CLJ0K37PD5L6161S4HTM0HN","","599.6000000238419","img/food2.png","76","600.2999999523163","3","1","false","1","2","1,0.5,0,1,0.5,0,0.5,0,1","0.5,0,1,0.5,0,1,0,1,0.5","2",""
"","html-keyboard-response","115","87102","0.0-169.0","3KJYX6QCMAXY9YJDNK2DSQUXWZDVJE","A36FBIDN58N139","3FVBZG9CLJ0K37PD5L6161S4HTM0HN","","null","<img src=""img/food2.png"" style=""width:200px; border:14px solid green;"">","null","","","","","","","","","",""
"","image-keyboard-response","116","87370","0.0-171.0","3KJYX6QCMAXY9YJDNK2DSQUXWZDVJE","A36FBIDN58N139","3FVBZG9CLJ0K37PD5L6161S4HTM0HN","","266.7999999523163","img/food2.png","76","267.7999999523163","3","1","false","1","2","1,0.5,0,1,0.5,0,0.5,0,1","0.5,0,1,0.5,0,1,0,1,0.5","2",""
"","html-keyboard-response","117","87673","0.0-172.0","3KJYX6QCMAXY9YJDNK2DSQUXWZDVJE","A36FBIDN58N139","3FVBZG9CLJ0K37PD5L6161S4HTM0HN","","null","<img src=""img/food2.png"" style=""width:200px; border:14px solid green;"">","null","","","","","","","","","",""
"","image-keyboard-response","118","87906","0.0-174.0","3KJYX6QCMAXY9YJDNK2DSQUXWZDVJE","A36FBIDN58N139","3FVBZG9CLJ0K37PD5L6161S4HTM0HN","","232.39999997615814","img/food2.png","76","233.29999995231628","3","1","false","1","2","1,0.5,0,1,0.5,0,0.5,0,1","0.5,0,1,0.5,0,1,0,1,0.5","2",""
"","html-keyboard-response","119","88208","0.0-175.0","3KJYX6QCMAXY9YJDNK2DSQUXWZDVJE","A36FBIDN58N139","3FVBZG9CLJ0K37PD5L6161S4HTM0HN","","null","<img src=""img/food2.png"" style=""width:200px; border:14px solid green;"">","null","","","","","","","","","",""
"","image-keyboard-response","120","88746","0.0-177.0","3KJYX6QCMAXY9YJDNK2DSQUXWZDVJE","A36FBIDN58N139","3FVBZG9CLJ0K37PD5L6161S4HTM0HN","","536.7999999523163","img/food3.png","76","537.8999999761581","3","1","false","2","2","1,0.5,0,1,0.5,0,0.5,0,1","0.5,0,1,0.5,0,1,0,1,0.5","2",""
"","html-keyboard-response","121","89049","0.0-178.0","3KJYX6QCMAXY9YJDNK2DSQUXWZDVJE","A36FBIDN58N139","3FVBZG9CLJ0K37PD5L6161S4HTM0HN","","null","<img src=""img/food3.png"" style=""width:200px; border:14px solid green;"">","null","","","","","","","","","",""
"","image-keyboard-response","122","89290","0.0-180.0","3KJYX6QCMAXY9YJDNK2DSQUXWZDVJE","A36FBIDN58N139","3FVBZG9CLJ0K37PD5L6161S4HTM0HN","","238.80000007152557","img/food3.png","76","240.5","3","1","false","2","2","1,0.5,0,1,0.5,0,0.5,0,1","0.5,0,1,0.5,0,1,0,1,0.5","2",""
"","html-keyboard-response","123","89593","0.0-181.0","3KJYX6QCMAXY9YJDNK2DSQUXWZDVJE","A36FBIDN58N139","3FVBZG9CLJ0K37PD5L6161S4HTM0HN","","null","<img src=""img/food3.png"" style=""width:200px; border:14px solid green;"">","null","","","","","","","","","",""
"","image-keyboard-response","124","89953","0.0-183.0","3KJYX6QCMAXY9YJDNK2DSQUXWZDVJE","A36FBIDN58N139","3FVBZG9CLJ0K37PD5L6161S4HTM0HN","","359.60000002384186","img/food5.png","76","360.39999997615814","3","1","false","3","2","1,0.5,0,1,0.5,0,0.5,0,1","0.5,0,1,0.5,0,1,0,1,0.5","2",""
"","html-keyboard-response","125","90256","0.0-184.0","3KJYX6QCMAXY9YJDNK2DSQUXWZDVJE","A36FBIDN58N139","3FVBZG9CLJ0K37PD5L6161S4HTM0HN","","null","<img src=""img/food5.png"" style=""width:200px; border:14px solid green;"">","null","","","","","","","","","",""
"","image-keyboard-response","126","90817","0.0-186.0","3KJYX6QCMAXY9YJDNK2DSQUXWZDVJE","A36FBIDN58N139","3FVBZG9CLJ0K37PD5L6161S4HTM0HN","","559.7000000476837","img/food5.png","75","560.8000000715256","2","1","false","3","2","1,0.5,0,1,0.5,0,0.5,0,1","0.5,0,1,0.5,0,1,0,1,0.5","2",""
"","html-keyboard-response","127","91119","0.0-187.0","3KJYX6QCMAXY9YJDNK2DSQUXWZDVJE","A36FBIDN58N139","3FVBZG9CLJ0K37PD5L6161S4HTM0HN","","null","<img src=""img/food5.png"" style=""width:200px; border:14px solid green;"">","null","","","","","","","","","",""
"","image-keyboard-response","128","91713","0.0-189.0","3KJYX6QCMAXY9YJDNK2DSQUXWZDVJE","A36FBIDN58N139","3FVBZG9CLJ0K37PD5L6161S4HTM0HN","","592.3999999761581","img/food3.png","76","593.6000000238419","3","1","false","2","2","1,0.5,0,1,0.5,0,0.5,0,1","0.5,0,1,0.5,0,1,0,1,0.5","2",""
"","html-keyboard-response","129","92014","0.0-190.0","3KJYX6QCMAXY9YJDNK2DSQUXWZDVJE","A36FBIDN58N139","3FVBZG9CLJ0K37PD5L6161S4HTM0HN","","null","<img src=""img/food3.png"" style=""width:200px; border:14px solid green;"">","null","","","","","","","","","",""
"","image-keyboard-response","130","92627","0.0-192.0","3KJYX6QCMAXY9YJDNK2DSQUXWZDVJE","A36FBIDN58N139","3FVBZG9CLJ0K37PD5L6161S4HTM0HN","","610.5","img/food2.png","76","612.1000000238419","3","1","false","1","2","1,0.5,0,1,0.5,0,0.5,0,1","0.5,0,1,0.5,0,1,0,1,0.5","2",""
"","html-keyboard-response","131","92929","0.0-193.0","3KJYX6QCMAXY9YJDNK2DSQUXWZDVJE","A36FBIDN58N139","3FVBZG9CLJ0K37PD5L6161S4HTM0HN","","null","<img src=""img/food2.png"" style=""width:200px; border:14px solid green;"">","null","","","","","","","","","",""
"","image-keyboard-response","132","93177","0.0-195.0","3KJYX6QCMAXY9YJDNK2DSQUXWZDVJE","A36FBIDN58N139","3FVBZG9CLJ0K37PD5L6161S4HTM0HN","","245.80000007152557","img/food2.png","76","247.20000004768372","3","1","false","1","2","1,0.5,0,1,0.5,0,0.5,0,1","0.5,0,1,0.5,0,1,0,1,0.5","2",""
"","html-keyboard-response","133","93479","0.0-196.0","3KJYX6QCMAXY9YJDNK2DSQUXWZDVJE","A36FBIDN58N139","3FVBZG9CLJ0K37PD5L6161S4HTM0HN","","null","<img src=""img/food2.png"" style=""width:200px; border:14px solid green;"">","null","","","","","","","","","",""
"","image-keyboard-response","134","94185","0.0-198.0","3KJYX6QCMAXY9YJDNK2DSQUXWZDVJE","A36FBIDN58N139","3FVBZG9CLJ0K37PD5L6161S4HTM0HN","","705.3999999761581","img/food5.png","75","705.8999999761581","2","1","false","3","2","1,0.5,0,1,0.5,0,0.5,0,1","0.5,0,1,0.5,0,1,0,1,0.5","2",""
"","html-keyboard-response","135","94486","0.0-199.0","3KJYX6QCMAXY9YJDNK2DSQUXWZDVJE","A36FBIDN58N139","3FVBZG9CLJ0K37PD5L6161S4HTM0HN","","null","<img src=""img/food5.png"" style=""width:200px; border:14px solid green;"">","null","","","","","","","","","",""
"","image-keyboard-response","136","94698","0.0-201.0","3KJYX6QCMAXY9YJDNK2DSQUXWZDVJE","A36FBIDN58N139","3FVBZG9CLJ0K37PD5L6161S4HTM0HN","","209.89999997615814","img/food5.png","75","211.5","2","1","false","3","2","1,0.5,0,1,0.5,0,0.5,0,1","0.5,0,1,0.5,0,1,0,1,0.5","2",""
"","html-keyboard-response","137","95001","0.0-202.0","3KJYX6QCMAXY9YJDNK2DSQUXWZDVJE","A36FBIDN58N139","3FVBZG9CLJ0K37PD5L6161S4HTM0HN","","null","<img src=""img/food5.png"" style=""width:200px; border:14px solid green;"">","null","","","","","","","","","",""
"","image-keyboard-response","138","95490","0.0-204.0","3KJYX6QCMAXY9YJDNK2DSQUXWZDVJE","A36FBIDN58N139","3FVBZG9CLJ0K37PD5L6161S4HTM0HN","","487","img/food3.png","76","488.1999999284744","3","1","false","2","2","1,0.5,0,1,0.5,0,0.5,0,1","0.5,0,1,0.5,0,1,0,1,0.5","2",""
"","html-keyboard-response","139","95791","0.0-205.0","3KJYX6QCMAXY9YJDNK2DSQUXWZDVJE","A36FBIDN58N139","3FVBZG9CLJ0K37PD5L6161S4HTM0HN","","null","<img src=""img/food3.png"" style=""width:200px; border:14px solid green;"">","null","","","","","","","","","",""
"","image-keyboard-response","140","96625","0.0-207.0","3KJYX6QCMAXY9YJDNK2DSQUXWZDVJE","A36FBIDN58N139","3FVBZG9CLJ0K37PD5L6161S4HTM0HN","","832.4000000953674","img/food2.png","76","833.0999999046326","3","1","false","1","2","1,0.5,0,1,0.5,0,0.5,0,1","0.5,0,1,0.5,0,1,0,1,0.5","2",""
"","html-keyboard-response","141","96926","0.0-208.0","3KJYX6QCMAXY9YJDNK2DSQUXWZDVJE","A36FBIDN58N139","3FVBZG9CLJ0K37PD5L6161S4HTM0HN","","null","<img src=""img/food2.png"" style=""width:200px; border:14px solid green;"">","null","","","","","","","","","",""
"","image-keyboard-response","142","97402","0.0-210.0","3KJYX6QCMAXY9YJDNK2DSQUXWZDVJE","A36FBIDN58N139","3FVBZG9CLJ0K37PD5L6161S4HTM0HN","","473.5","img/food3.png","76","475.1999999284744","3","1","false","2","2","1,0.5,0,1,0.5,0,0.5,0,1","0.5,0,1,0.5,0,1,0,1,0.5","2",""
"","html-keyboard-response","143","97705","0.0-211.0","3KJYX6QCMAXY9YJDNK2DSQUXWZDVJE","A36FBIDN58N139","3FVBZG9CLJ0K37PD5L6161S4HTM0HN","","null","<img src=""img/food3.png"" style=""width:200px; border:14px solid green;"">","null","","","","","","","","","",""
"","image-keyboard-response","144","97985","0.0-213.0","3KJYX6QCMAXY9YJDNK2DSQUXWZDVJE","A36FBIDN58N139","3FVBZG9CLJ0K37PD5L6161S4HTM0HN","","278","img/food2.png","76","279.2000000476837","3","1","false","1","2","1,0.5,0,1,0.5,0,0.5,0,1","0.5,0,1,0.5,0,1,0,1,0.5","2",""
"","html-keyboard-response","145","98287","0.0-214.0","3KJYX6QCMAXY9YJDNK2DSQUXWZDVJE","A36FBIDN58N139","3FVBZG9CLJ0K37PD5L6161S4HTM0HN","","null","<img src=""img/food2.png"" style=""width:200px; border:14px solid green;"">","null","","","","","","","","","",""
"","image-keyboard-response","146","98594","0.0-216.0","3KJYX6QCMAXY9YJDNK2DSQUXWZDVJE","A36FBIDN58N139","3FVBZG9CLJ0K37PD5L6161S4HTM0HN","","305","img/food3.png","76","306.6999999284744","3","1","false","2","2","1,0.5,0,1,0.5,0,0.5,0,1","0.5,0,1,0.5,0,1,0,1,0.5","2",""
"","html-keyboard-response","147","98897","0.0-217.0","3KJYX6QCMAXY9YJDNK2DSQUXWZDVJE","A36FBIDN58N139","3FVBZG9CLJ0K37PD5L6161S4HTM0HN","","null","<img src=""img/food3.png"" style=""width:200px; border:14px solid green;"">","null","","","","","","","","","",""
"","image-keyboard-response","148","99307","0.0-219.0","3KJYX6QCMAXY9YJDNK2DSQUXWZDVJE","A36FBIDN58N139","3FVBZG9CLJ0K37PD5L6161S4HTM0HN","","407.5","img/food5.png","76","409","3","0","false","3","2","1,0.5,0,1,0.5,0,0.5,0,1","0.5,0,1,0.5,0,1,0,1,0.5","2",""
"","html-keyboard-response","149","99608","0.0-220.0","3KJYX6QCMAXY9YJDNK2DSQUXWZDVJE","A36FBIDN58N139","3FVBZG9CLJ0K37PD5L6161S4HTM0HN","","null","<img src=""img/food5.png"" style=""width:200px;border:14px solid red;"">","null","","","","","","","","","",""
"","image-keyboard-response","150","100289","0.0-222.0","3KJYX6QCMAXY9YJDNK2DSQUXWZDVJE","A36FBIDN58N139","3FVBZG9CLJ0K37PD5L6161S4HTM0HN","","679.5","img/food3.png","76","680","3","1","false","2","2","1,0.5,0,1,0.5,0,0.5,0,1","0.5,0,1,0.5,0,1,0,1,0.5","2",""
"","html-keyboard-response","151","100591","0.0-223.0","3KJYX6QCMAXY9YJDNK2DSQUXWZDVJE","A36FBIDN58N139","3FVBZG9CLJ0K37PD5L6161S4HTM0HN","","null","<img src=""img/food3.png"" style=""width:200px; border:14px solid green;"">","null","","","","","","","","","",""
"","image-keyboard-response","152","101122","0.0-225.0","3KJYX6QCMAXY9YJDNK2DSQUXWZDVJE","A36FBIDN58N139","3FVBZG9CLJ0K37PD5L6161S4HTM0HN","","529.8000000715256","img/food2.png","76","531.4000000953674","3","1","false","1","2","1,0.5,0,1,0.5,0,0.5,0,1","0.5,0,1,0.5,0,1,0,1,0.5","2",""
"","html-keyboard-response","153","101425","0.0-226.0","3KJYX6QCMAXY9YJDNK2DSQUXWZDVJE","A36FBIDN58N139","3FVBZG9CLJ0K37PD5L6161S4HTM0HN","","null","<img src=""img/food2.png"" style=""width:200px; border:14px solid green;"">","null","","","","","","","","","",""
"","image-keyboard-response","154","101737","0.0-228.0","3KJYX6QCMAXY9YJDNK2DSQUXWZDVJE","A36FBIDN58N139","3FVBZG9CLJ0K37PD5L6161S4HTM0HN","","310.1999999284744","img/food2.png","76","311.5","3","1","false","1","2","1,0.5,0,1,0.5,0,0.5,0,1","0.5,0,1,0.5,0,1,0,1,0.5","2",""
"","html-keyboard-response","155","102039","0.0-229.0","3KJYX6QCMAXY9YJDNK2DSQUXWZDVJE","A36FBIDN58N139","3FVBZG9CLJ0K37PD5L6161S4HTM0HN","","null","<img src=""img/food2.png"" style=""width:200px; border:14px solid green;"">","null","","","","","","","","","",""
"","image-keyboard-response","156","102282","0.0-231.0","3KJYX6QCMAXY9YJDNK2DSQUXWZDVJE","A36FBIDN58N139","3FVBZG9CLJ0K37PD5L6161S4HTM0HN","","241.29999995231628","img/food2.png","76","242.89999997615814","3","1","false","1","2","1,0.5,0,1,0.5,0,0.5,0,1","0.5,0,1,0.5,0,1,0,1,0.5","2",""
"","html-keyboard-response","157","102585","0.0-232.0","3KJYX6QCMAXY9YJDNK2DSQUXWZDVJE","A36FBIDN58N139","3FVBZG9CLJ0K37PD5L6161S4HTM0HN","","null","<img src=""img/food2.png"" style=""width:200px; border:14px solid green;"">","null","","","","","","","","","",""
"","image-keyboard-response","158","103081","0.0-234.0","3KJYX6QCMAXY9YJDNK2DSQUXWZDVJE","A36FBIDN58N139","3FVBZG9CLJ0K37PD5L6161S4HTM0HN","","494","img/food5.png","75","495.10000002384186","2","1","false","3","2","1,0.5,0,1,0.5,0,0.5,0,1","0.5,0,1,0.5,0,1,0,1,0.5","2",""
"","html-keyboard-response","159","103383","0.0-235.0","3KJYX6QCMAXY9YJDNK2DSQUXWZDVJE","A36FBIDN58N139","3FVBZG9CLJ0K37PD5L6161S4HTM0HN","","null","<img src=""img/food5.png"" style=""width:200px; border:14px solid green;"">","null","","","","","","","","","",""
"","image-keyboard-response","160","103866","0.0-237.0","3KJYX6QCMAXY9YJDNK2DSQUXWZDVJE","A36FBIDN58N139","3FVBZG9CLJ0K37PD5L6161S4HTM0HN","","481","img/food3.png","76","482.59999990463257","3","1","false","2","2","1,0.5,0,1,0.5,0,0.5,0,1","0.5,0,1,0.5,0,1,0,1,0.5","2",""
"","html-keyboard-response","161","104168","0.0-238.0","3KJYX6QCMAXY9YJDNK2DSQUXWZDVJE","A36FBIDN58N139","3FVBZG9CLJ0K37PD5L6161S4HTM0HN","","null","<img src=""img/food3.png"" style=""width:200px; border:14px solid green;"">","null","","","","","","","","","",""
"","image-keyboard-response","162","104570","0.0-240.0","3KJYX6QCMAXY9YJDNK2DSQUXWZDVJE","A36FBIDN58N139","3FVBZG9CLJ0K37PD5L6161S4HTM0HN","","401.10000002384186","img/food2.png","76","402.10000002384186","3","1","false","1","2","1,0.5,0,1,0.5,0,0.5,0,1","0.5,0,1,0.5,0,1,0,1,0.5","2",""
"","html-keyboard-response","163","104872","0.0-241.0","3KJYX6QCMAXY9YJDNK2DSQUXWZDVJE","A36FBIDN58N139","3FVBZG9CLJ0K37PD5L6161S4HTM0HN","","null","<img src=""img/food2.png"" style=""width:200px; border:14px solid green;"">","null","","","","","","","","","",""
"","image-keyboard-response","164","105585","0.0-243.0","3KJYX6QCMAXY9YJDNK2DSQUXWZDVJE","A36FBIDN58N139","3FVBZG9CLJ0K37PD5L6161S4HTM0HN","","710.7000000476837","img/food3.png","76","711.8000000715256","3","1","false","2","2","1,0.5,0,1,0.5,0,0.5,0,1","0.5,0,1,0.5,0,1,0,1,0.5","2",""
"","html-keyboard-response","165","105887","0.0-244.0","3KJYX6QCMAXY9YJDNK2DSQUXWZDVJE","A36FBIDN58N139","3FVBZG9CLJ0K37PD5L6161S4HTM0HN","","null","<img src=""img/food3.png"" style=""width:200px; border:14px solid green;"">","null","","","","","","","","","",""
"","image-keyboard-response","166","106314","0.0-246.0","3KJYX6QCMAXY9YJDNK2DSQUXWZDVJE","A36FBIDN58N139","3FVBZG9CLJ0K37PD5L6161S4HTM0HN","","425.2000000476837","img/food2.png","76","426.89999997615814","3","1","false","1","2","1,0.5,0,1,0.5,0,0.5,0,1","0.5,0,1,0.5,0,1,0,1,0.5","2",""
"","html-keyboard-response","167","106617","0.0-247.0","3KJYX6QCMAXY9YJDNK2DSQUXWZDVJE","A36FBIDN58N139","3FVBZG9CLJ0K37PD5L6161S4HTM0HN","","null","<img src=""img/food2.png"" style=""width:200px; border:14px solid green;"">","null","","","","","","","","","",""
"","image-keyboard-response","168","107186","0.0-249.0","3KJYX6QCMAXY9YJDNK2DSQUXWZDVJE","A36FBIDN58N139","3FVBZG9CLJ0K37PD5L6161S4HTM0HN","","566.3999999761581","img/food5.png","75","568.1000000238419","2","1","false","3","2","1,0.5,0,1,0.5,0,0.5,0,1","0.5,0,1,0.5,0,1,0,1,0.5","2",""
"","html-keyboard-response","169","107488","0.0-250.0","3KJYX6QCMAXY9YJDNK2DSQUXWZDVJE","A36FBIDN58N139","3FVBZG9CLJ0K37PD5L6161S4HTM0HN","","null","<img src=""img/food5.png"" style=""width:200px; border:14px solid green;"">","null","","","","","","","","","",""
"","image-keyboard-response","170","107777","0.0-252.0","3KJYX6QCMAXY9YJDNK2DSQUXWZDVJE","A36FBIDN58N139","3FVBZG9CLJ0K37PD5L6161S4HTM0HN","","288.09999990463257","img/food5.png","75","288.7000000476837","2","1","false","3","2","1,0.5,0,1,0.5,0,0.5,0,1","0.5,0,1,0.5,0,1,0,1,0.5","2",""
"","html-keyboard-response","171","108079","0.0-253.0","3KJYX6QCMAXY9YJDNK2DSQUXWZDVJE","A36FBIDN58N139","3FVBZG9CLJ0K37PD5L6161S4HTM0HN","","null","<img src=""img/food5.png"" style=""width:200px; border:14px solid green;"">","null","","","","","","","","","",""
"","image-keyboard-response","172","108545","0.0-255.0","3KJYX6QCMAXY9YJDNK2DSQUXWZDVJE","A36FBIDN58N139","3FVBZG9CLJ0K37PD5L6161S4HTM0HN","","463.59999990463257","img/food3.png","76","464.89999997615814","3","1","false","2","2","1,0.5,0,1,0.5,0,0.5,0,1","0.5,0,1,0.5,0,1,0,1,0.5","2",""
"","html-keyboard-response","173","108846","0.0-256.0","3KJYX6QCMAXY9YJDNK2DSQUXWZDVJE","A36FBIDN58N139","3FVBZG9CLJ0K37PD5L6161S4HTM0HN","","null","<img src=""img/food3.png"" style=""width:200px; border:14px solid green;"">","null","","","","","","","","","",""
"","image-keyboard-response","174","109226","0.0-258.0","3KJYX6QCMAXY9YJDNK2DSQUXWZDVJE","A36FBIDN58N139","3FVBZG9CLJ0K37PD5L6161S4HTM0HN","","377.6999999284744","img/food2.png","76","379.2999999523163","3","1","false","1","2","1,0.5,0,1,0.5,0,0.5,0,1","0.5,0,1,0.5,0,1,0,1,0.5","2",""
"","html-keyboard-response","175","109528","0.0-259.0","3KJYX6QCMAXY9YJDNK2DSQUXWZDVJE","A36FBIDN58N139","3FVBZG9CLJ0K37PD5L6161S4HTM0HN","","null","<img src=""img/food2.png"" style=""width:200px; border:14px solid green;"">","null","","","","","","","","","",""
"","image-keyboard-response","176","109994","0.0-261.0","3KJYX6QCMAXY9YJDNK2DSQUXWZDVJE","A36FBIDN58N139","3FVBZG9CLJ0K37PD5L6161S4HTM0HN","","463.10000002384186","img/food5.png","76","465","3","0","false","3","2","1,0.5,0,1,0.5,0,0.5,0,1","0.5,0,1,0.5,0,1,0,1,0.5","2",""
"","html-keyboard-response","177","110298","0.0-262.0","3KJYX6QCMAXY9YJDNK2DSQUXWZDVJE","A36FBIDN58N139","3FVBZG9CLJ0K37PD5L6161S4HTM0HN","","null","<img src=""img/food5.png"" style=""width:200px;border:14px solid red;"">","null","","","","","","","","","",""
"","image-keyboard-response","178","110882","0.0-264.0","3KJYX6QCMAXY9YJDNK2DSQUXWZDVJE","A36FBIDN58N139","3FVBZG9CLJ0K37PD5L6161S4HTM0HN","","583.6999999284744","img/food2.png","76","584.6000000238419","3","1","false","1","2","1,0.5,0,1,0.5,0,0.5,0,1","0.5,0,1,0.5,0,1,0,1,0.5","2",""
"","html-keyboard-response","179","111184","0.0-265.0","3KJYX6QCMAXY9YJDNK2DSQUXWZDVJE","A36FBIDN58N139","3FVBZG9CLJ0K37PD5L6161S4HTM0HN","","null","<img src=""img/food2.png"" style=""width:200px; border:14px solid green;"">","null","","","","","","","","","",""
"","image-keyboard-response","180","111433","0.0-267.0","3KJYX6QCMAXY9YJDNK2DSQUXWZDVJE","A36FBIDN58N139","3FVBZG9CLJ0K37PD5L6161S4HTM0HN","","246.79999995231628","img/food2.png","76","248.09999990463257","3","1","false","1","2","1,0.5,0,1,0.5,0,0.5,0,1","0.5,0,1,0.5,0,1,0,1,0.5","2",""
"","html-keyboard-response","181","111734","0.0-268.0","3KJYX6QCMAXY9YJDNK2DSQUXWZDVJE","A36FBIDN58N139","3FVBZG9CLJ0K37PD5L6161S4HTM0HN","","null","<img src=""img/food2.png"" style=""width:200px; border:14px solid green;"">","null","","","","","","","","","",""
"","image-keyboard-response","182","111906","0.0-270.0","3KJYX6QCMAXY9YJDNK2DSQUXWZDVJE","A36FBIDN58N139","3FVBZG9CLJ0K37PD5L6161S4HTM0HN","","170.79999995231628","img/food3.png","76","171.60000002384186","3","1","false","2","2","1,0.5,0,1,0.5,0,0.5,0,1","0.5,0,1,0.5,0,1,0,1,0.5","2",""
"","html-keyboard-response","183","112209","0.0-271.0","3KJYX6QCMAXY9YJDNK2DSQUXWZDVJE","A36FBIDN58N139","3FVBZG9CLJ0K37PD5L6161S4HTM0HN","","null","<img src=""img/food3.png"" style=""width:200px; border:14px solid green;"">","null","","","","","","","","","",""
"","instructions","184","117304","0.0-273.0","3KJYX6QCMAXY9YJDNK2DSQUXWZDVJE","A36FBIDN58N139","3FVBZG9CLJ0K37PD5L6161S4HTM0HN","[{""page_index"":0,""viewing_time"":3953.7000000476837},{""page_index"":1,""viewing_time"":1140.2999999523163}]","5094.200000047684","","","","","","","","","","","",""
"","image-keyboard-response","185","119041","0.0-274.0","3KJYX6QCMAXY9YJDNK2DSQUXWZDVJE","A36FBIDN58N139","3FVBZG9CLJ0K37PD5L6161S4HTM0HN","","1736.8000000715256","img/food4.png","74","1737.6000000238419","1","0","","1","1","1,0.5,0,1,0.5,0,0.5,0,1","0,1,0.5,0,1,0.5,1,0.5,0","3",""
"","html-keyboard-response","186","119344","0.0-275.0","3KJYX6QCMAXY9YJDNK2DSQUXWZDVJE","A36FBIDN58N139","3FVBZG9CLJ0K37PD5L6161S4HTM0HN","","null","<img src=""img/food4.png"" style=""width:200px;border:14px solid red;"">","null","","","","","","","","","",""
"","image-keyboard-response","187","121274","0.0-276.0","3KJYX6QCMAXY9YJDNK2DSQUXWZDVJE","A36FBIDN58N139","3FVBZG9CLJ0K37PD5L6161S4HTM0HN","","1928.5","img/food4.png","75","1930.0999999046326","2","1","","1","1","1,0.5,0,1,0.5,0,0.5,0,1","0,1,0.5,0,1,0.5,1,0.5,0","3",""
"","html-keyboard-response","188","121577","0.0-277.0","3KJYX6QCMAXY9YJDNK2DSQUXWZDVJE","A36FBIDN58N139","3FVBZG9CLJ0K37PD5L6161S4HTM0HN","","null","<img src=""img/food4.png"" style=""width:200px; border:14px solid green;"">","null","","","","","","","","","",""
"","image-keyboard-response","189","123771","0.0-278.0","3KJYX6QCMAXY9YJDNK2DSQUXWZDVJE","A36FBIDN58N139","3FVBZG9CLJ0K37PD5L6161S4HTM0HN","","2192.5999999046326","img/food1.png","74","2193.7000000476837","1","0","","2","1","1,0.5,0,1,0.5,0,0.5,0,1","0,1,0.5,0,1,0.5,1,0.5,0","3",""
"","html-keyboard-response","190","124073","0.0-279.0","3KJYX6QCMAXY9YJDNK2DSQUXWZDVJE","A36FBIDN58N139","3FVBZG9CLJ0K37PD5L6161S4HTM0HN","","null","<img src=""img/food1.png"" style=""width:200px;border:14px solid red;"">","null","","","","","","","","","",""
"","image-keyboard-response","191","125778","0.0-280.0","3KJYX6QCMAXY9YJDNK2DSQUXWZDVJE","A36FBIDN58N139","3FVBZG9CLJ0K37PD5L6161S4HTM0HN","","1703.6999999284744","img/food6.png","74","1704.3999999761581","1","1","","3","1","1,0.5,0,1,0.5,0,0.5,0,1","0,1,0.5,0,1,0.5,1,0.5,0","3",""
"","html-keyboard-response","192","126082","0.0-281.0","3KJYX6QCMAXY9YJDNK2DSQUXWZDVJE","A36FBIDN58N139","3FVBZG9CLJ0K37PD5L6161S4HTM0HN","","null","<img src=""img/food6.png"" style=""width:200px; border:14px solid green;"">","null","","","","","","","","","",""
"","image-keyboard-response","193","127465","0.0-282.0","3KJYX6QCMAXY9YJDNK2DSQUXWZDVJE","A36FBIDN58N139","3FVBZG9CLJ0K37PD5L6161S4HTM0HN","","1381.5","img/food1.png","76","1382.8999999761581","3","1","","2","1","1,0.5,0,1,0.5,0,0.5,0,1","0,1,0.5,0,1,0.5,1,0.5,0","3",""
"","html-keyboard-response","194","127767","0.0-283.0","3KJYX6QCMAXY9YJDNK2DSQUXWZDVJE","A36FBIDN58N139","3FVBZG9CLJ0K37PD5L6161S4HTM0HN","","null","<img src=""img/food1.png"" style=""width:200px; border:14px solid green;"">","null","","","","","","","","","",""
"","image-keyboard-response","195","128930","0.0-284.0","3KJYX6QCMAXY9YJDNK2DSQUXWZDVJE","A36FBIDN58N139","3FVBZG9CLJ0K37PD5L6161S4HTM0HN","","1162.0999999046326","img/food6.png","74","1163.2999999523163","1","1","","3","1","1,0.5,0,1,0.5,0,0.5,0,1","0,1,0.5,0,1,0.5,1,0.5,0","3",""
"","html-keyboard-response","196","129233","0.0-285.0","3KJYX6QCMAXY9YJDNK2DSQUXWZDVJE","A36FBIDN58N139","3FVBZG9CLJ0K37PD5L6161S4HTM0HN","","null","<img src=""img/food6.png"" style=""width:200px; border:14px solid green;"">","null","","","","","","","","","",""
"","image-keyboard-response","197","129945","0.0-286.0","3KJYX6QCMAXY9YJDNK2DSQUXWZDVJE","A36FBIDN58N139","3FVBZG9CLJ0K37PD5L6161S4HTM0HN","","711.5","img/food6.png","74","712.2999999523163","1","1","","3","1","1,0.5,0,1,0.5,0,0.5,0,1","0,1,0.5,0,1,0.5,1,0.5,0","3",""
"","html-keyboard-response","198","130247","0.0-287.0","3KJYX6QCMAXY9YJDNK2DSQUXWZDVJE","A36FBIDN58N139","3FVBZG9CLJ0K37PD5L6161S4HTM0HN","","null","<img src=""img/food6.png"" style=""width:200px; border:14px solid green;"">","null","","","","","","","","","",""
"","image-keyboard-response","199","130633","0.0-288.0","3KJYX6QCMAXY9YJDNK2DSQUXWZDVJE","A36FBIDN58N139","3FVBZG9CLJ0K37PD5L6161S4HTM0HN","","384.7999999523163","img/food6.png","74","385.60000002384186","1","1","","3","1","1,0.5,0,1,0.5,0,0.5,0,1","0,1,0.5,0,1,0.5,1,0.5,0","3",""
"","html-keyboard-response","200","130935","0.0-289.0","3KJYX6QCMAXY9YJDNK2DSQUXWZDVJE","A36FBIDN58N139","3FVBZG9CLJ0K37PD5L6161S4HTM0HN","","null","<img src=""img/food6.png"" style=""width:200px; border:14px solid green;"">","null","","","","","","","","","",""
"","image-keyboard-response","201","132137","0.0-290.0","3KJYX6QCMAXY9YJDNK2DSQUXWZDVJE","A36FBIDN58N139","3FVBZG9CLJ0K37PD5L6161S4HTM0HN","","1200.2999999523163","img/food1.png","76","1201.7000000476837","3","0","","2","1","1,0.5,0,1,0.5,0,0.5,0,1","0,1,0.5,0,1,0.5,1,0.5,0","3",""
"","html-keyboard-response","202","132439","0.0-291.0","3KJYX6QCMAXY9YJDNK2DSQUXWZDVJE","A36FBIDN58N139","3FVBZG9CLJ0K37PD5L6161S4HTM0HN","","null","<img src=""img/food1.png"" style=""width:200px;border:14px solid red;"">","null","","","","","","","","","",""
"","image-keyboard-response","203","134241","0.0-292.0","3KJYX6QCMAXY9YJDNK2DSQUXWZDVJE","A36FBIDN58N139","3FVBZG9CLJ0K37PD5L6161S4HTM0HN","","1799.5999999046326","img/food1.png","76","1800.8999999761581","3","1","","2","1","1,0.5,0,1,0.5,0,0.5,0,1","0,1,0.5,0,1,0.5,1,0.5,0","3",""
"","html-keyboard-response","204","134543","0.0-293.0","3KJYX6QCMAXY9YJDNK2DSQUXWZDVJE","A36FBIDN58N139","3FVBZG9CLJ0K37PD5L6161S4HTM0HN","","null","<img src=""img/food1.png"" style=""width:200px; border:14px solid green;"">","null","","","","","","","","","",""
"","image-keyboard-response","205","134883","0.0-294.0","3KJYX6QCMAXY9YJDNK2DSQUXWZDVJE","A36FBIDN58N139","3FVBZG9CLJ0K37PD5L6161S4HTM0HN","","337.3000000715256","img/food1.png","76","338.8000000715256","3","0","","2","1","1,0.5,0,1,0.5,0,0.5,0,1","0,1,0.5,0,1,0.5,1,0.5,0","3",""
"","html-keyboard-response","206","135185","0.0-295.0","3KJYX6QCMAXY9YJDNK2DSQUXWZDVJE","A36FBIDN58N139","3FVBZG9CLJ0K37PD5L6161S4HTM0HN","","null","<img src=""img/food1.png"" style=""width:200px;border:14px solid red;"">","null","","","","","","","","","",""
"","image-keyboard-response","207","135602","0.0-296.0","3KJYX6QCMAXY9YJDNK2DSQUXWZDVJE","A36FBIDN58N139","3FVBZG9CLJ0K37PD5L6161S4HTM0HN","","415","img/food1.png","76","416.89999997615814","3","1","","2","1","1,0.5,0,1,0.5,0,0.5,0,1","0,1,0.5,0,1,0.5,1,0.5,0","3",""
"","html-keyboard-response","208","135904","0.0-297.0","3KJYX6QCMAXY9YJDNK2DSQUXWZDVJE","A36FBIDN58N139","3FVBZG9CLJ0K37PD5L6161S4HTM0HN","","null","<img src=""img/food1.png"" style=""width:200px; border:14px solid green;"">","null","","","","","","","","","",""
"","image-keyboard-response","209","137298","0.0-298.0","3KJYX6QCMAXY9YJDNK2DSQUXWZDVJE","A36FBIDN58N139","3FVBZG9CLJ0K37PD5L6161S4HTM0HN","","1391.7999999523163","img/food6.png","74","1393.5","1","1","","3","1","1,0.5,0,1,0.5,0,0.5,0,1","0,1,0.5,0,1,0.5,1,0.5,0","3",""
"","html-keyboard-response","210","137602","0.0-299.0","3KJYX6QCMAXY9YJDNK2DSQUXWZDVJE","A36FBIDN58N139","3FVBZG9CLJ0K37PD5L6161S4HTM0HN","","null","<img src=""img/food6.png"" style=""width:200px; border:14px solid green;"">","null","","","","","","","","","",""
"","image-keyboard-response","211","138826","0.0-300.0","3KJYX6QCMAXY9YJDNK2DSQUXWZDVJE","A36FBIDN58N139","3FVBZG9CLJ0K37PD5L6161S4HTM0HN","","1222.5","img/food4.png","75","1224.2000000476837","2","1","","1","1","1,0.5,0,1,0.5,0,0.5,0,1","0,1,0.5,0,1,0.5,1,0.5,0","3",""
"","html-keyboard-response","212","139129","0.0-301.0","3KJYX6QCMAXY9YJDNK2DSQUXWZDVJE","A36FBIDN58N139","3FVBZG9CLJ0K37PD5L6161S4HTM0HN","","null","<img src=""img/food4.png"" style=""width:200px; border:14px solid green;"">","null","","","","","","","","","",""
"","image-keyboard-response","213","139930","0.0-302.0","3KJYX6QCMAXY9YJDNK2DSQUXWZDVJE","A36FBIDN58N139","3FVBZG9CLJ0K37PD5L6161S4HTM0HN","","799.6000000238419","img/food6.png","74","801.2999999523163","1","1","","3","1","1,0.5,0,1,0.5,0,0.5,0,1","0,1,0.5,0,1,0.5,1,0.5,0","3",""
"","html-keyboard-response","214","140233","0.0-303.0","3KJYX6QCMAXY9YJDNK2DSQUXWZDVJE","A36FBIDN58N139","3FVBZG9CLJ0K37PD5L6161S4HTM0HN","","null","<img src=""img/food6.png"" style=""width:200px; border:14px solid green;"">","null","","","","","","","","","",""
"","image-keyboard-response","215","141306","0.0-304.0","3KJYX6QCMAXY9YJDNK2DSQUXWZDVJE","A36FBIDN58N139","3FVBZG9CLJ0K37PD5L6161S4HTM0HN","","1071.0999999046326","img/food1.png","76","1072.6999999284744","3","1","","2","1","1,0.5,0,1,0.5,0,0.5,0,1","0,1,0.5,0,1,0.5,1,0.5,0","3",""
"","html-keyboard-response","216","141609","0.0-305.0","3KJYX6QCMAXY9YJDNK2DSQUXWZDVJE","A36FBIDN58N139","3FVBZG9CLJ0K37PD5L6161S4HTM0HN","","null","<img src=""img/food1.png"" style=""width:200px; border:14px solid green;"">","null","","","","","","","","","",""
"","image-keyboard-response","217","142258","0.0-306.0","3KJYX6QCMAXY9YJDNK2DSQUXWZDVJE","A36FBIDN58N139","3FVBZG9CLJ0K37PD5L6161S4HTM0HN","","647.3999999761581","img/food6.png","74","648.8999999761581","1","1","","3","1","1,0.5,0,1,0.5,0,0.5,0,1","0,1,0.5,0,1,0.5,1,0.5,0","3",""
"","html-keyboard-response","218","142561","0.0-307.0","3KJYX6QCMAXY9YJDNK2DSQUXWZDVJE","A36FBIDN58N139","3FVBZG9CLJ0K37PD5L6161S4HTM0HN","","null","<img src=""img/food6.png"" style=""width:200px; border:14px solid green;"">","null","","","","","","","","","",""
"","image-keyboard-response","219","142866","0.0-308.0","3KJYX6QCMAXY9YJDNK2DSQUXWZDVJE","A36FBIDN58N139","3FVBZG9CLJ0K37PD5L6161S4HTM0HN","","303.2999999523163","img/food6.png","74","305.10000002384186","1","1","","3","1","1,0.5,0,1,0.5,0,0.5,0,1","0,1,0.5,0,1,0.5,1,0.5,0","3",""
"","html-keyboard-response","220","143170","0.0-309.0","3KJYX6QCMAXY9YJDNK2DSQUXWZDVJE","A36FBIDN58N139","3FVBZG9CLJ0K37PD5L6161S4HTM0HN","","null","<img src=""img/food6.png"" style=""width:200px; border:14px solid green;"">","null","","","","","","","","","",""
"","image-keyboard-response","221","143714","0.0-310.0","3KJYX6QCMAXY9YJDNK2DSQUXWZDVJE","A36FBIDN58N139","3FVBZG9CLJ0K37PD5L6161S4HTM0HN","","542.5999999046326","img/food1.png","76","544.1999999284744","3","0","","2","1","1,0.5,0,1,0.5,0,0.5,0,1","0,1,0.5,0,1,0.5,1,0.5,0","3",""
"","html-keyboard-response","222","144017","0.0-311.0","3KJYX6QCMAXY9YJDNK2DSQUXWZDVJE","A36FBIDN58N139","3FVBZG9CLJ0K37PD5L6161S4HTM0HN","","null","<img src=""img/food1.png"" style=""width:200px;border:14px solid red;"">","null","","","","","","","","","",""
"","image-keyboard-response","223","145011","0.0-312.0","3KJYX6QCMAXY9YJDNK2DSQUXWZDVJE","A36FBIDN58N139","3FVBZG9CLJ0K37PD5L6161S4HTM0HN","","992.3000000715256","img/food4.png","75","993.2999999523163","2","1","","1","1","1,0.5,0,1,0.5,0,0.5,0,1","0,1,0.5,0,1,0.5,1,0.5,0","3",""
"","html-keyboard-response","224","145313","0.0-313.0","3KJYX6QCMAXY9YJDNK2DSQUXWZDVJE","A36FBIDN58N139","3FVBZG9CLJ0K37PD5L6161S4HTM0HN","","null","<img src=""img/food4.png"" style=""width:200px; border:14px solid green;"">","null","","","","","","","","","",""
"","image-keyboard-response","225","146058","0.0-314.0","3KJYX6QCMAXY9YJDNK2DSQUXWZDVJE","A36FBIDN58N139","3FVBZG9CLJ0K37PD5L6161S4HTM0HN","","742.5","img/food6.png","74","744.1000000238419","1","1","","3","1","1,0.5,0,1,0.5,0,0.5,0,1","0,1,0.5,0,1,0.5,1,0.5,0","3",""
"","html-keyboard-response","226","146359","0.0-315.0","3KJYX6QCMAXY9YJDNK2DSQUXWZDVJE","A36FBIDN58N139","3FVBZG9CLJ0K37PD5L6161S4HTM0HN","","null","<img src=""img/food6.png"" style=""width:200px; border:14px solid green;"">","null","","","","","","","","","",""
"","image-keyboard-response","227","147219","0.0-316.0","3KJYX6QCMAXY9YJDNK2DSQUXWZDVJE","A36FBIDN58N139","3FVBZG9CLJ0K37PD5L6161S4HTM0HN","","858.3999999761581","img/food1.png","76","859.7999999523163","3","1","","2","1","1,0.5,0,1,0.5,0,0.5,0,1","0,1,0.5,0,1,0.5,1,0.5,0","3",""
"","html-keyboard-response","228","147521","0.0-317.0","3KJYX6QCMAXY9YJDNK2DSQUXWZDVJE","A36FBIDN58N139","3FVBZG9CLJ0K37PD5L6161S4HTM0HN","","null","<img src=""img/food1.png"" style=""width:200px; border:14px solid green;"">","null","","","","","","","","","",""
"","image-keyboard-response","229","147817","0.0-318.0","3KJYX6QCMAXY9YJDNK2DSQUXWZDVJE","A36FBIDN58N139","3FVBZG9CLJ0K37PD5L6161S4HTM0HN","","293.5","img/food1.png","76","295","3","0","","2","1","1,0.5,0,1,0.5,0,0.5,0,1","0,1,0.5,0,1,0.5,1,0.5,0","3",""
"","html-keyboard-response","230","148118","0.0-319.0","3KJYX6QCMAXY9YJDNK2DSQUXWZDVJE","A36FBIDN58N139","3FVBZG9CLJ0K37PD5L6161S4HTM0HN","","null","<img src=""img/food1.png"" style=""width:200px;border:14px solid red;"">","null","","","","","","","","","",""
"","image-keyboard-response","231","148514","0.0-320.0","3KJYX6QCMAXY9YJDNK2DSQUXWZDVJE","A36FBIDN58N139","3FVBZG9CLJ0K37PD5L6161S4HTM0HN","","394.1999999284744","img/food1.png","76","395.6999999284744","3","1","","2","1","1,0.5,0,1,0.5,0,0.5,0,1","0,1,0.5,0,1,0.5,1,0.5,0","3",""
"","html-keyboard-response","232","148817","0.0-321.0","3KJYX6QCMAXY9YJDNK2DSQUXWZDVJE","A36FBIDN58N139","3FVBZG9CLJ0K37PD5L6161S4HTM0HN","","null","<img src=""img/food1.png"" style=""width:200px; border:14px solid green;"">","null","","","","","","","","","",""
"","image-keyboard-response","233","149714","0.0-322.0","3KJYX6QCMAXY9YJDNK2DSQUXWZDVJE","A36FBIDN58N139","3FVBZG9CLJ0K37PD5L6161S4HTM0HN","","895.7999999523163","img/food4.png","75","897.1999999284744","2","1","","1","1","1,0.5,0,1,0.5,0,0.5,0,1","0,1,0.5,0,1,0.5,1,0.5,0","3",""
"","html-keyboard-response","234","150017","0.0-323.0","3KJYX6QCMAXY9YJDNK2DSQUXWZDVJE","A36FBIDN58N139","3FVBZG9CLJ0K37PD5L6161S4HTM0HN","","null","<img src=""img/food4.png"" style=""width:200px; border:14px solid green;"">","null","","","","","","","","","",""
"","image-keyboard-response","235","150665","0.0-324.0","3KJYX6QCMAXY9YJDNK2DSQUXWZDVJE","A36FBIDN58N139","3FVBZG9CLJ0K37PD5L6161S4HTM0HN","","647","img/food6.png","74","647.7000000476837","1","1","","3","1","1,0.5,0,1,0.5,0,0.5,0,1","0,1,0.5,0,1,0.5,1,0.5,0","3",""
"","html-keyboard-response","236","150967","0.0-325.0","3KJYX6QCMAXY9YJDNK2DSQUXWZDVJE","A36FBIDN58N139","3FVBZG9CLJ0K37PD5L6161S4HTM0HN","","null","<img src=""img/food6.png"" style=""width:200px; border:14px solid green;"">","null","","","","","","","","","",""
"","image-keyboard-response","237","151748","0.0-326.0","3KJYX6QCMAXY9YJDNK2DSQUXWZDVJE","A36FBIDN58N139","3FVBZG9CLJ0K37PD5L6161S4HTM0HN","","779.2000000476837","img/food1.png","76","780.8999999761581","3","1","","2","1","1,0.5,0,1,0.5,0,0.5,0,1","0,1,0.5,0,1,0.5,1,0.5,0","3",""
"","html-keyboard-response","238","152051","0.0-327.0","3KJYX6QCMAXY9YJDNK2DSQUXWZDVJE","A36FBIDN58N139","3FVBZG9CLJ0K37PD5L6161S4HTM0HN","","null","<img src=""img/food1.png"" style=""width:200px; border:14px solid green;"">","null","","","","","","","","","",""
"","image-keyboard-response","239","152370","0.0-328.0","3KJYX6QCMAXY9YJDNK2DSQUXWZDVJE","A36FBIDN58N139","3FVBZG9CLJ0K37PD5L6161S4HTM0HN","","317","img/food1.png","76","318.60000002384186","3","1","","2","1","1,0.5,0,1,0.5,0,0.5,0,1","0,1,0.5,0,1,0.5,1,0.5,0","3",""
"","html-keyboard-response","240","152672","0.0-329.0","3KJYX6QCMAXY9YJDNK2DSQUXWZDVJE","A36FBIDN58N139","3FVBZG9CLJ0K37PD5L6161S4HTM0HN","","null","<img src=""img/food1.png"" style=""width:200px; border:14px solid green;"">","null","","","","","","","","","",""
"","image-keyboard-response","241","153329","0.0-330.0","3KJYX6QCMAXY9YJDNK2DSQUXWZDVJE","A36FBIDN58N139","3FVBZG9CLJ0K37PD5L6161S4HTM0HN","","655","img/food6.png","74","656.4000000953674","1","1","","3","1","1,0.5,0,1,0.5,0,0.5,0,1","0,1,0.5,0,1,0.5,1,0.5,0","3",""
"","html-keyboard-response","242","153631","0.0-331.0","3KJYX6QCMAXY9YJDNK2DSQUXWZDVJE","A36FBIDN58N139","3FVBZG9CLJ0K37PD5L6161S4HTM0HN","","null","<img src=""img/food6.png"" style=""width:200px; border:14px solid green;"">","null","","","","","","","","","",""
"","image-keyboard-response","243","154210","0.0-332.0","3KJYX6QCMAXY9YJDNK2DSQUXWZDVJE","A36FBIDN58N139","3FVBZG9CLJ0K37PD5L6161S4HTM0HN","","577.2999999523163","img/food1.png","76","578.8999999761581","3","0","","2","1","1,0.5,0,1,0.5,0,0.5,0,1","0,1,0.5,0,1,0.5,1,0.5,0","3",""
"","html-keyboard-response","244","154514","0.0-333.0","3KJYX6QCMAXY9YJDNK2DSQUXWZDVJE","A36FBIDN58N139","3FVBZG9CLJ0K37PD5L6161S4HTM0HN","","null","<img src=""img/food1.png"" style=""width:200px;border:14px solid red;"">","null","","","","","","","","","",""
"","image-keyboard-response","245","155219","0.0-334.0","3KJYX6QCMAXY9YJDNK2DSQUXWZDVJE","A36FBIDN58N139","3FVBZG9CLJ0K37PD5L6161S4HTM0HN","","702.9000000953674","img/food6.png","74","704.3999999761581","1","1","","3","1","1,0.5,0,1,0.5,0,0.5,0,1","0,1,0.5,0,1,0.5,1,0.5,0","3",""
"","html-keyboard-response","246","155521","0.0-335.0","3KJYX6QCMAXY9YJDNK2DSQUXWZDVJE","A36FBIDN58N139","3FVBZG9CLJ0K37PD5L6161S4HTM0HN","","null","<img src=""img/food6.png"" style=""width:200px; border:14px solid green;"">","null","","","","","","","","","",""
"","image-keyboard-response","247","155826","0.0-336.0","3KJYX6QCMAXY9YJDNK2DSQUXWZDVJE","A36FBIDN58N139","3FVBZG9CLJ0K37PD5L6161S4HTM0HN","","304.10000002384186","img/food6.png","74","305.1999999284744","1","1","","3","1","1,0.5,0,1,0.5,0,0.5,0,1","0,1,0.5,0,1,0.5,1,0.5,0","3",""
"","html-keyboard-response","248","156127","0.0-337.0","3KJYX6QCMAXY9YJDNK2DSQUXWZDVJE","A36FBIDN58N139","3FVBZG9CLJ0K37PD5L6161S4HTM0HN","","null","<img src=""img/food6.png"" style=""width:200px; border:14px solid green;"">","null","","","","","","","","","",""
"","image-keyboard-response","249","157033","0.0-338.0","3KJYX6QCMAXY9YJDNK2DSQUXWZDVJE","A36FBIDN58N139","3FVBZG9CLJ0K37PD5L6161S4HTM0HN","","903.7999999523163","img/food4.png","75","905.1000000238419","2","1","","1","1","1,0.5,0,1,0.5,0,0.5,0,1","0,1,0.5,0,1,0.5,1,0.5,0","3",""
"","html-keyboard-response","250","157335","0.0-339.0","3KJYX6QCMAXY9YJDNK2DSQUXWZDVJE","A36FBIDN58N139","3FVBZG9CLJ0K37PD5L6161S4HTM0HN","","null","<img src=""img/food4.png"" style=""width:200px; border:14px solid green;"">","null","","","","","","","","","",""
"","image-keyboard-response","251","157650","0.0-340.0","3KJYX6QCMAXY9YJDNK2DSQUXWZDVJE","A36FBIDN58N139","3FVBZG9CLJ0K37PD5L6161S4HTM0HN","","313.10000002384186","img/food4.png","75","314.6999999284744","2","1","","1","1","1,0.5,0,1,0.5,0,0.5,0,1","0,1,0.5,0,1,0.5,1,0.5,0","3",""
"","html-keyboard-response","252","157953","0.0-341.0","3KJYX6QCMAXY9YJDNK2DSQUXWZDVJE","A36FBIDN58N139","3FVBZG9CLJ0K37PD5L6161S4HTM0HN","","null","<img src=""img/food4.png"" style=""width:200px; border:14px solid green;"">","null","","","","","","","","","",""
"","image-keyboard-response","253","158466","0.0-342.0","3KJYX6QCMAXY9YJDNK2DSQUXWZDVJE","A36FBIDN58N139","3FVBZG9CLJ0K37PD5L6161S4HTM0HN","","512.2999999523163","img/food6.png","74","513.2999999523163","1","1","","3","1","1,0.5,0,1,0.5,0,0.5,0,1","0,1,0.5,0,1,0.5,1,0.5,0","3",""
"","html-keyboard-response","254","158769","0.0-343.0","3KJYX6QCMAXY9YJDNK2DSQUXWZDVJE","A36FBIDN58N139","3FVBZG9CLJ0K37PD5L6161S4HTM0HN","","null","<img src=""img/food6.png"" style=""width:200px; border:14px solid green;"">","null","","","","","","","","","",""
"","image-keyboard-response","255","159034","0.0-344.0","3KJYX6QCMAXY9YJDNK2DSQUXWZDVJE","A36FBIDN58N139","3FVBZG9CLJ0K37PD5L6161S4HTM0HN","","264.59999990463257","img/food6.png","74","265.60000002384186","1","1","","3","1","1,0.5,0,1,0.5,0,0.5,0,1","0,1,0.5,0,1,0.5,1,0.5,0","3",""
"","html-keyboard-response","256","159337","0.0-345.0","3KJYX6QCMAXY9YJDNK2DSQUXWZDVJE","A36FBIDN58N139","3FVBZG9CLJ0K37PD5L6161S4HTM0HN","","null","<img src=""img/food6.png"" style=""width:200px; border:14px solid green;"">","null","","","","","","","","","",""
"","image-keyboard-response","257","159961","0.0-346.0","3KJYX6QCMAXY9YJDNK2DSQUXWZDVJE","A36FBIDN58N139","3FVBZG9CLJ0K37PD5L6161S4HTM0HN","","622.8000000715256","img/food1.png","76","623.4000000953674","3","1","","2","1","1,0.5,0,1,0.5,0,0.5,0,1","0,1,0.5,0,1,0.5,1,0.5,0","3",""
"","html-keyboard-response","258","160262","0.0-347.0","3KJYX6QCMAXY9YJDNK2DSQUXWZDVJE","A36FBIDN58N139","3FVBZG9CLJ0K37PD5L6161S4HTM0HN","","null","<img src=""img/food1.png"" style=""width:200px; border:14px solid green;"">","null","","","","","","","","","",""
"","image-keyboard-response","259","160954","0.0-348.0","3KJYX6QCMAXY9YJDNK2DSQUXWZDVJE","A36FBIDN58N139","3FVBZG9CLJ0K37PD5L6161S4HTM0HN","","690.1999999284744","img/food4.png","75","691.6999999284744","2","1","","1","1","1,0.5,0,1,0.5,0,0.5,0,1","0,1,0.5,0,1,0.5,1,0.5,0","3",""
"","html-keyboard-response","260","161257","0.0-349.0","3KJYX6QCMAXY9YJDNK2DSQUXWZDVJE","A36FBIDN58N139","3FVBZG9CLJ0K37PD5L6161S4HTM0HN","","null","<img src=""img/food4.png"" style=""width:200px; border:14px solid green;"">","null","","","","","","","","","",""
"","image-keyboard-response","261","161546","0.0-350.0","3KJYX6QCMAXY9YJDNK2DSQUXWZDVJE","A36FBIDN58N139","3FVBZG9CLJ0K37PD5L6161S4HTM0HN","","287.1999999284744","img/food4.png","75","288.89999997615814","2","1","","1","1","1,0.5,0,1,0.5,0,0.5,0,1","0,1,0.5,0,1,0.5,1,0.5,0","3",""
"","html-keyboard-response","262","161849","0.0-351.0","3KJYX6QCMAXY9YJDNK2DSQUXWZDVJE","A36FBIDN58N139","3FVBZG9CLJ0K37PD5L6161S4HTM0HN","","null","<img src=""img/food4.png"" style=""width:200px; border:14px solid green;"">","null","","","","","","","","","",""
"","image-keyboard-response","263","162418","0.0-352.0","3KJYX6QCMAXY9YJDNK2DSQUXWZDVJE","A36FBIDN58N139","3FVBZG9CLJ0K37PD5L6161S4HTM0HN","","566.8999999761581","img/food6.png","74","568.5","1","1","","3","1","1,0.5,0,1,0.5,0,0.5,0,1","0,1,0.5,0,1,0.5,1,0.5,0","3",""
"","html-keyboard-response","264","162720","0.0-353.0","3KJYX6QCMAXY9YJDNK2DSQUXWZDVJE","A36FBIDN58N139","3FVBZG9CLJ0K37PD5L6161S4HTM0HN","","null","<img src=""img/food6.png"" style=""width:200px; border:14px solid green;"">","null","","","","","","","","","",""
"","image-keyboard-response","265","162994","0.0-354.0","3KJYX6QCMAXY9YJDNK2DSQUXWZDVJE","A36FBIDN58N139","3FVBZG9CLJ0K37PD5L6161S4HTM0HN","","271.90000009536743","img/food6.png","74","273.7000000476837","1","1","","3","1","1,0.5,0,1,0.5,0,0.5,0,1","0,1,0.5,0,1,0.5,1,0.5,0","3",""
"","html-keyboard-response","266","163297","0.0-355.0","3KJYX6QCMAXY9YJDNK2DSQUXWZDVJE","A36FBIDN58N139","3FVBZG9CLJ0K37PD5L6161S4HTM0HN","","null","<img src=""img/food6.png"" style=""width:200px; border:14px solid green;"">","null","","","","","","","","","",""
"","image-keyboard-response","267","163594","0.0-356.0","3KJYX6QCMAXY9YJDNK2DSQUXWZDVJE","A36FBIDN58N139","3FVBZG9CLJ0K37PD5L6161S4HTM0HN","","295.09999990463257","img/food6.png","74","296.60000002384186","1","1","","3","1","1,0.5,0,1,0.5,0,0.5,0,1","0,1,0.5,0,1,0.5,1,0.5,0","3",""
"","html-keyboard-response","268","163898","0.0-357.0","3KJYX6QCMAXY9YJDNK2DSQUXWZDVJE","A36FBIDN58N139","3FVBZG9CLJ0K37PD5L6161S4HTM0HN","","null","<img src=""img/food6.png"" style=""width:200px; border:14px solid green;"">","null","","","","","","","","","",""
"","image-keyboard-response","269","164473","0.0-358.0","3KJYX6QCMAXY9YJDNK2DSQUXWZDVJE","A36FBIDN58N139","3FVBZG9CLJ0K37PD5L6161S4HTM0HN","","573.5999999046326","img/food4.png","75","574.7999999523163","2","1","","1","1","1,0.5,0,1,0.5,0,0.5,0,1","0,1,0.5,0,1,0.5,1,0.5,0","3",""
"","html-keyboard-response","270","164774","0.0-359.0","3KJYX6QCMAXY9YJDNK2DSQUXWZDVJE","A36FBIDN58N139","3FVBZG9CLJ0K37PD5L6161S4HTM0HN","","null","<img src=""img/food4.png"" style=""width:200px; border:14px solid green;"">","null","","","","","","","","","",""
"","image-keyboard-response","271","165675","0.0-360.0","3KJYX6QCMAXY9YJDNK2DSQUXWZDVJE","A36FBIDN58N139","3FVBZG9CLJ0K37PD5L6161S4HTM0HN","","899.3000000715256","img/food1.png","76","900.1999999284744","3","1","","2","1","1,0.5,0,1,0.5,0,0.5,0,1","0,1,0.5,0,1,0.5,1,0.5,0","3",""
"","html-keyboard-response","272","165977","0.0-361.0","3KJYX6QCMAXY9YJDNK2DSQUXWZDVJE","A36FBIDN58N139","3FVBZG9CLJ0K37PD5L6161S4HTM0HN","","null","<img src=""img/food1.png"" style=""width:200px; border:14px solid green;"">","null","","","","","","","","","",""
"","image-keyboard-response","273","166218","0.0-362.0","3KJYX6QCMAXY9YJDNK2DSQUXWZDVJE","A36FBIDN58N139","3FVBZG9CLJ0K37PD5L6161S4HTM0HN","","239","img/food1.png","76","240.60000002384186","3","1","","2","1","1,0.5,0,1,0.5,0,0.5,0,1","0,1,0.5,0,1,0.5,1,0.5,0","3",""
"","html-keyboard-response","274","166521","0.0-363.0","3KJYX6QCMAXY9YJDNK2DSQUXWZDVJE","A36FBIDN58N139","3FVBZG9CLJ0K37PD5L6161S4HTM0HN","","null","<img src=""img/food1.png"" style=""width:200px; border:14px solid green;"">","null","","","","","","","","","",""
"","image-keyboard-response","275","167194","0.0-364.0","3KJYX6QCMAXY9YJDNK2DSQUXWZDVJE","A36FBIDN58N139","3FVBZG9CLJ0K37PD5L6161S4HTM0HN","","671.3999999761581","img/food4.png","75","673","2","1","","1","1","1,0.5,0,1,0.5,0,0.5,0,1","0,1,0.5,0,1,0.5,1,0.5,0","3",""
"","html-keyboard-response","276","167497","0.0-365.0","3KJYX6QCMAXY9YJDNK2DSQUXWZDVJE","A36FBIDN58N139","3FVBZG9CLJ0K37PD5L6161S4HTM0HN","","null","<img src=""img/food4.png"" style=""width:200px; border:14px solid green;"">","null","","","","","","","","","",""
"","image-keyboard-response","277","168153","0.0-366.0","3KJYX6QCMAXY9YJDNK2DSQUXWZDVJE","A36FBIDN58N139","3FVBZG9CLJ0K37PD5L6161S4HTM0HN","","655.3999999761581","img/food1.png","76","656.2000000476837","3","0","","2","1","1,0.5,0,1,0.5,0,0.5,0,1","0,1,0.5,0,1,0.5,1,0.5,0","3",""
"","html-keyboard-response","278","168455","0.0-367.0","3KJYX6QCMAXY9YJDNK2DSQUXWZDVJE","A36FBIDN58N139","3FVBZG9CLJ0K37PD5L6161S4HTM0HN","","null","<img src=""img/food1.png"" style=""width:200px;border:14px solid red;"">","null","","","","","","","","","",""
"","image-keyboard-response","279","169911","0.0-368.0","3KJYX6QCMAXY9YJDNK2DSQUXWZDVJE","A36FBIDN58N139","3FVBZG9CLJ0K37PD5L6161S4HTM0HN","","1453.7999999523163","img/food4.png","75","1455.0999999046326","2","1","","1","1","1,0.5,0,1,0.5,0,0.5,0,1","0,1,0.5,0,1,0.5,1,0.5,0","3",""
"","html-keyboard-response","280","170212","0.0-369.0","3KJYX6QCMAXY9YJDNK2DSQUXWZDVJE","A36FBIDN58N139","3FVBZG9CLJ0K37PD5L6161S4HTM0HN","","null","<img src=""img/food4.png"" style=""width:200px; border:14px solid green;"">","null","","","","","","","","","",""
"","image-keyboard-response","281","170458","0.0-370.0","3KJYX6QCMAXY9YJDNK2DSQUXWZDVJE","A36FBIDN58N139","3FVBZG9CLJ0K37PD5L6161S4HTM0HN","","243.80000007152557","img/food4.png","75","245.60000002384186","2","1","","1","1","1,0.5,0,1,0.5,0,0.5,0,1","0,1,0.5,0,1,0.5,1,0.5,0","3",""
"","html-keyboard-response","282","170760","0.0-371.0","3KJYX6QCMAXY9YJDNK2DSQUXWZDVJE","A36FBIDN58N139","3FVBZG9CLJ0K37PD5L6161S4HTM0HN","","null","<img src=""img/food4.png"" style=""width:200px; border:14px solid green;"">","null","","","","","","","","","",""
"","image-keyboard-response","283","171322","0.0-372.0","3KJYX6QCMAXY9YJDNK2DSQUXWZDVJE","A36FBIDN58N139","3FVBZG9CLJ0K37PD5L6161S4HTM0HN","","561","img/food1.png","76","561.8999999761581","3","1","","2","1","1,0.5,0,1,0.5,0,0.5,0,1","0,1,0.5,0,1,0.5,1,0.5,0","3",""
"","html-keyboard-response","284","171624","0.0-373.0","3KJYX6QCMAXY9YJDNK2DSQUXWZDVJE","A36FBIDN58N139","3FVBZG9CLJ0K37PD5L6161S4HTM0HN","","null","<img src=""img/food1.png"" style=""width:200px; border:14px solid green;"">","null","","","","","","","","","",""
"","image-keyboard-response","285","172162","0.0-374.0","3KJYX6QCMAXY9YJDNK2DSQUXWZDVJE","A36FBIDN58N139","3FVBZG9CLJ0K37PD5L6161S4HTM0HN","","536.2000000476837","img/food6.png","74","537.1000000238419","1","1","","3","1","1,0.5,0,1,0.5,0,0.5,0,1","0,1,0.5,0,1,0.5,1,0.5,0","3",""
"","html-keyboard-response","286","172463","0.0-375.0","3KJYX6QCMAXY9YJDNK2DSQUXWZDVJE","A36FBIDN58N139","3FVBZG9CLJ0K37PD5L6161S4HTM0HN","","null","<img src=""img/food6.png"" style=""width:200px; border:14px solid green;"">","null","","","","","","","","","",""
"","image-keyboard-response","287","172754","0.0-376.0","3KJYX6QCMAXY9YJDNK2DSQUXWZDVJE","A36FBIDN58N139","3FVBZG9CLJ0K37PD5L6161S4HTM0HN","","288.2999999523163","img/food6.png","74","289.60000002384186","1","1","","3","1","1,0.5,0,1,0.5,0,0.5,0,1","0,1,0.5,0,1,0.5,1,0.5,0","3",""
"","html-keyboard-response","288","173056","0.0-377.0","3KJYX6QCMAXY9YJDNK2DSQUXWZDVJE","A36FBIDN58N139","3FVBZG9CLJ0K37PD5L6161S4HTM0HN","","null","<img src=""img/food6.png"" style=""width:200px; border:14px solid green;"">","null","","","","","","","","","",""
"","image-keyboard-response","289","173690","0.0-378.0","3KJYX6QCMAXY9YJDNK2DSQUXWZDVJE","A36FBIDN58N139","3FVBZG9CLJ0K37PD5L6161S4HTM0HN","","632.0999999046326","img/food4.png","75","633.7999999523163","2","1","","1","1","1,0.5,0,1,0.5,0,0.5,0,1","0,1,0.5,0,1,0.5,1,0.5,0","3",""
"","html-keyboard-response","290","173994","0.0-379.0","3KJYX6QCMAXY9YJDNK2DSQUXWZDVJE","A36FBIDN58N139","3FVBZG9CLJ0K37PD5L6161S4HTM0HN","","null","<img src=""img/food4.png"" style=""width:200px; border:14px solid green;"">","null","","","","","","","","","",""
"","image-keyboard-response","291","174282","0.0-380.0","3KJYX6QCMAXY9YJDNK2DSQUXWZDVJE","A36FBIDN58N139","3FVBZG9CLJ0K37PD5L6161S4HTM0HN","","285","img/food4.png","75","286","2","1","","1","1","1,0.5,0,1,0.5,0,0.5,0,1","0,1,0.5,0,1,0.5,1,0.5,0","3",""
"","html-keyboard-response","292","174585","0.0-381.0","3KJYX6QCMAXY9YJDNK2DSQUXWZDVJE","A36FBIDN58N139","3FVBZG9CLJ0K37PD5L6161S4HTM0HN","","null","<img src=""img/food4.png"" style=""width:200px; border:14px solid green;"">","null","","","","","","","","","",""
"","image-keyboard-response","293","174842","0.0-382.0","3KJYX6QCMAXY9YJDNK2DSQUXWZDVJE","A36FBIDN58N139","3FVBZG9CLJ0K37PD5L6161S4HTM0HN","","255.59999990463257","img/food4.png","75","257.1999999284744","2","1","","1","1","1,0.5,0,1,0.5,0,0.5,0,1","0,1,0.5,0,1,0.5,1,0.5,0","3",""
"","html-keyboard-response","294","175145","0.0-383.0","3KJYX6QCMAXY9YJDNK2DSQUXWZDVJE","A36FBIDN58N139","3FVBZG9CLJ0K37PD5L6161S4HTM0HN","","null","<img src=""img/food4.png"" style=""width:200px; border:14px solid green;"">","null","","","","","","","","","",""
"","image-keyboard-response","295","175657","0.0-384.0","3KJYX6QCMAXY9YJDNK2DSQUXWZDVJE","A36FBIDN58N139","3FVBZG9CLJ0K37PD5L6161S4HTM0HN","","510.10000002384186","img/food1.png","76","511.2999999523163","3","1","","2","1","1,0.5,0,1,0.5,0,0.5,0,1","0,1,0.5,0,1,0.5,1,0.5,0","3",""
"","html-keyboard-response","296","175958","0.0-385.0","3KJYX6QCMAXY9YJDNK2DSQUXWZDVJE","A36FBIDN58N139","3FVBZG9CLJ0K37PD5L6161S4HTM0HN","","null","<img src=""img/food1.png"" style=""width:200px; border:14px solid green;"">","null","","","","","","","","","",""
"","image-keyboard-response","297","176579","0.0-386.0","3KJYX6QCMAXY9YJDNK2DSQUXWZDVJE","A36FBIDN58N139","3FVBZG9CLJ0K37PD5L6161S4HTM0HN","","619","img/food4.png","75","620.1999999284744","2","1","","1","1","1,0.5,0,1,0.5,0,0.5,0,1","0,1,0.5,0,1,0.5,1,0.5,0","3",""
"","html-keyboard-response","298","176882","0.0-387.0","3KJYX6QCMAXY9YJDNK2DSQUXWZDVJE","A36FBIDN58N139","3FVBZG9CLJ0K37PD5L6161S4HTM0HN","","null","<img src=""img/food4.png"" style=""width:200px; border:14px solid green;"">","null","","","","","","","","","",""
"","image-keyboard-response","299","177428","0.0-388.0","3KJYX6QCMAXY9YJDNK2DSQUXWZDVJE","A36FBIDN58N139","3FVBZG9CLJ0K37PD5L6161S4HTM0HN","","544","img/food1.png","76","546","3","0","","2","1","1,0.5,0,1,0.5,0,0.5,0,1","0,1,0.5,0,1,0.5,1,0.5,0","3",""
"","html-keyboard-response","300","177731","0.0-389.0","3KJYX6QCMAXY9YJDNK2DSQUXWZDVJE","A36FBIDN58N139","3FVBZG9CLJ0K37PD5L6161S4HTM0HN","","null","<img src=""img/food1.png"" style=""width:200px;border:14px solid red;"">","null","","","","","","","","","",""
"","image-keyboard-response","301","178531","0.0-390.0","3KJYX6QCMAXY9YJDNK2DSQUXWZDVJE","A36FBIDN58N139","3FVBZG9CLJ0K37PD5L6161S4HTM0HN","","798.5","img/food4.png","75","799.3999999761581","2","1","","1","1","1,0.5,0,1,0.5,0,0.5,0,1","0,1,0.5,0,1,0.5,1,0.5,0","3",""
"","html-keyboard-response","302","178834","0.0-391.0","3KJYX6QCMAXY9YJDNK2DSQUXWZDVJE","A36FBIDN58N139","3FVBZG9CLJ0K37PD5L6161S4HTM0HN","","null","<img src=""img/food4.png"" style=""width:200px; border:14px solid green;"">","null","","","","","","","","","",""
"","image-keyboard-response","303","179122","0.0-392.0","3KJYX6QCMAXY9YJDNK2DSQUXWZDVJE","A36FBIDN58N139","3FVBZG9CLJ0K37PD5L6161S4HTM0HN","","286.5","img/food4.png","75","287.89999997615814","2","1","","1","1","1,0.5,0,1,0.5,0,0.5,0,1","0,1,0.5,0,1,0.5,1,0.5,0","3",""
"","html-keyboard-response","304","179425","0.0-393.0","3KJYX6QCMAXY9YJDNK2DSQUXWZDVJE","A36FBIDN58N139","3FVBZG9CLJ0K37PD5L6161S4HTM0HN","","null","<img src=""img/food4.png"" style=""width:200px; border:14px solid green;"">","null","","","","","","","","","",""
"","image-keyboard-response","305","179698","0.0-394.0","3KJYX6QCMAXY9YJDNK2DSQUXWZDVJE","A36FBIDN58N139","3FVBZG9CLJ0K37PD5L6161S4HTM0HN","","271.2000000476837","img/food4.png","75","272.7999999523163","2","1","","1","1","1,0.5,0,1,0.5,0,0.5,0,1","0,1,0.5,0,1,0.5,1,0.5,0","3",""
"","html-keyboard-response","306","180001","0.0-395.0","3KJYX6QCMAXY9YJDNK2DSQUXWZDVJE","A36FBIDN58N139","3FVBZG9CLJ0K37PD5L6161S4HTM0HN","","null","<img src=""img/food4.png"" style=""width:200px; border:14px solid green;"">","null","","","","","","","","","",""
"","image-keyboard-response","307","180602","0.0-396.0","3KJYX6QCMAXY9YJDNK2DSQUXWZDVJE","A36FBIDN58N139","3FVBZG9CLJ0K37PD5L6161S4HTM0HN","","599.8999999761581","img/food1.png","76","601.3000000715256","3","0","","2","1","1,0.5,0,1,0.5,0,0.5,0,1","0,1,0.5,0,1,0.5,1,0.5,0","3",""
"","html-keyboard-response","308","180905","0.0-397.0","3KJYX6QCMAXY9YJDNK2DSQUXWZDVJE","A36FBIDN58N139","3FVBZG9CLJ0K37PD5L6161S4HTM0HN","","null","<img src=""img/food1.png"" style=""width:200px;border:14px solid red;"">","null","","","","","","","","","",""
"","image-keyboard-response","309","181506","0.0-398.0","3KJYX6QCMAXY9YJDNK2DSQUXWZDVJE","A36FBIDN58N139","3FVBZG9CLJ0K37PD5L6161S4HTM0HN","","598.6000000238419","img/food4.png","75","600.3000000715256","2","1","","1","1","1,0.5,0,1,0.5,0,0.5,0,1","0,1,0.5,0,1,0.5,1,0.5,0","3",""
"","html-keyboard-response","310","181809","0.0-399.0","3KJYX6QCMAXY9YJDNK2DSQUXWZDVJE","A36FBIDN58N139","3FVBZG9CLJ0K37PD5L6161S4HTM0HN","","null","<img src=""img/food4.png"" style=""width:200px; border:14px solid green;"">","null","","","","","","","","","",""
"","image-keyboard-response","311","182058","0.0-400.0","3KJYX6QCMAXY9YJDNK2DSQUXWZDVJE","A36FBIDN58N139","3FVBZG9CLJ0K37PD5L6161S4HTM0HN","","247.60000002384186","img/food4.png","75","248.79999995231628","2","1","","1","1","1,0.5,0,1,0.5,0,0.5,0,1","0,1,0.5,0,1,0.5,1,0.5,0","3",""
"","html-keyboard-response","312","182361","0.0-401.0","3KJYX6QCMAXY9YJDNK2DSQUXWZDVJE","A36FBIDN58N139","3FVBZG9CLJ0K37PD5L6161S4HTM0HN","","null","<img src=""img/food4.png"" style=""width:200px; border:14px solid green;"">","null","","","","","","","","","",""
"","image-keyboard-response","313","182890","0.0-402.0","3KJYX6QCMAXY9YJDNK2DSQUXWZDVJE","A36FBIDN58N139","3FVBZG9CLJ0K37PD5L6161S4HTM0HN","","527.5","img/food6.png","74","529.1999999284744","1","1","","3","1","1,0.5,0,1,0.5,0,0.5,0,1","0,1,0.5,0,1,0.5,1,0.5,0","3",""
"","html-keyboard-response","314","183193","0.0-403.0","3KJYX6QCMAXY9YJDNK2DSQUXWZDVJE","A36FBIDN58N139","3FVBZG9CLJ0K37PD5L6161S4HTM0HN","","null","<img src=""img/food6.png"" style=""width:200px; border:14px solid green;"">","null","","","","","","","","","",""
"","image-keyboard-response","315","183722","0.0-404.0","3KJYX6QCMAXY9YJDNK2DSQUXWZDVJE","A36FBIDN58N139","3FVBZG9CLJ0K37PD5L6161S4HTM0HN","","527.7000000476837","img/food4.png","75","528.7999999523163","2","1","","1","1","1,0.5,0,1,0.5,0,0.5,0,1","0,1,0.5,0,1,0.5,1,0.5,0","3",""
"","html-keyboard-response","316","184025","0.0-405.0","3KJYX6QCMAXY9YJDNK2DSQUXWZDVJE","A36FBIDN58N139","3FVBZG9CLJ0K37PD5L6161S4HTM0HN","","null","<img src=""img/food4.png"" style=""width:200px; border:14px solid green;"">","null","","","","","","","","","",""
"","image-keyboard-response","317","184282","0.0-406.0","3KJYX6QCMAXY9YJDNK2DSQUXWZDVJE","A36FBIDN58N139","3FVBZG9CLJ0K37PD5L6161S4HTM0HN","","255.20000004768372","img/food4.png","75","256.89999997615814","2","1","","1","1","1,0.5,0,1,0.5,0,0.5,0,1","0,1,0.5,0,1,0.5,1,0.5,0","3",""
"","html-keyboard-response","318","184585","0.0-407.0","3KJYX6QCMAXY9YJDNK2DSQUXWZDVJE","A36FBIDN58N139","3FVBZG9CLJ0K37PD5L6161S4HTM0HN","","null","<img src=""img/food4.png"" style=""width:200px; border:14px solid green;"">","null","","","","","","","","","",""
"","image-keyboard-response","319","185195","0.0-408.0","3KJYX6QCMAXY9YJDNK2DSQUXWZDVJE","A36FBIDN58N139","3FVBZG9CLJ0K37PD5L6161S4HTM0HN","","608.1999999284744","img/food6.png","74","609.8999999761581","1","1","","3","1","1,0.5,0,1,0.5,0,0.5,0,1","0,1,0.5,0,1,0.5,1,0.5,0","3",""
"","html-keyboard-response","320","185498","0.0-409.0","3KJYX6QCMAXY9YJDNK2DSQUXWZDVJE","A36FBIDN58N139","3FVBZG9CLJ0K37PD5L6161S4HTM0HN","","null","<img src=""img/food6.png"" style=""width:200px; border:14px solid green;"">","null","","","","","","","","","",""
"","image-keyboard-response","321","185873","0.0-410.0","3KJYX6QCMAXY9YJDNK2DSQUXWZDVJE","A36FBIDN58N139","3FVBZG9CLJ0K37PD5L6161S4HTM0HN","","374.7000000476837","img/food6.png","74","375.5","1","1","","3","1","1,0.5,0,1,0.5,0,0.5,0,1","0,1,0.5,0,1,0.5,1,0.5,0","3",""
"","html-keyboard-response","322","186174","0.0-411.0","3KJYX6QCMAXY9YJDNK2DSQUXWZDVJE","A36FBIDN58N139","3FVBZG9CLJ0K37PD5L6161S4HTM0HN","","null","<img src=""img/food6.png"" style=""width:200px; border:14px solid green;"">","null","","","","","","","","","",""
"","image-keyboard-response","323","186450","0.0-412.0","3KJYX6QCMAXY9YJDNK2DSQUXWZDVJE","A36FBIDN58N139","3FVBZG9CLJ0K37PD5L6161S4HTM0HN","","275.09999990463257","img/food6.png","74","276","1","1","","3","1","1,0.5,0,1,0.5,0,0.5,0,1","0,1,0.5,0,1,0.5,1,0.5,0","3",""
"","html-keyboard-response","324","186752","0.0-413.0","3KJYX6QCMAXY9YJDNK2DSQUXWZDVJE","A36FBIDN58N139","3FVBZG9CLJ0K37PD5L6161S4HTM0HN","","null","<img src=""img/food6.png"" style=""width:200px; border:14px solid green;"">","null","","","","","","","","","",""
"","image-keyboard-response","325","187371","0.0-414.0","3KJYX6QCMAXY9YJDNK2DSQUXWZDVJE","A36FBIDN58N139","3FVBZG9CLJ0K37PD5L6161S4HTM0HN","","616.6000000238419","img/food4.png","75","617.8999999761581","2","1","","1","1","1,0.5,0,1,0.5,0,0.5,0,1","0,1,0.5,0,1,0.5,1,0.5,0","3",""
"","html-keyboard-response","326","187673","0.0-415.0","3KJYX6QCMAXY9YJDNK2DSQUXWZDVJE","A36FBIDN58N139","3FVBZG9CLJ0K37PD5L6161S4HTM0HN","","null","<img src=""img/food4.png"" style=""width:200px; border:14px solid green;"">","null","","","","","","","","","",""
"","image-keyboard-response","327","188201","0.0-416.0","3KJYX6QCMAXY9YJDNK2DSQUXWZDVJE","A36FBIDN58N139","3FVBZG9CLJ0K37PD5L6161S4HTM0HN","","526.3000000715256","img/food6.png","74","527.6000000238419","1","1","","3","1","1,0.5,0,1,0.5,0,0.5,0,1","0,1,0.5,0,1,0.5,1,0.5,0","3",""
"","html-keyboard-response","328","188505","0.0-417.0","3KJYX6QCMAXY9YJDNK2DSQUXWZDVJE","A36FBIDN58N139","3FVBZG9CLJ0K37PD5L6161S4HTM0HN","","null","<img src=""img/food6.png"" style=""width:200px; border:14px solid green;"">","null","","","","","","","","","",""
"","image-keyboard-response","329","188834","0.0-418.0","3KJYX6QCMAXY9YJDNK2DSQUXWZDVJE","A36FBIDN58N139","3FVBZG9CLJ0K37PD5L6161S4HTM0HN","","327.59999990463257","img/food6.png","74","329","1","1","","3","1","1,0.5,0,1,0.5,0,0.5,0,1","0,1,0.5,0,1,0.5,1,0.5,0","3",""
"","html-keyboard-response","330","189137","0.0-419.0","3KJYX6QCMAXY9YJDNK2DSQUXWZDVJE","A36FBIDN58N139","3FVBZG9CLJ0K37PD5L6161S4HTM0HN","","null","<img src=""img/food6.png"" style=""width:200px; border:14px solid green;"">","null","","","","","","","","","",""
"","image-keyboard-response","331","189777","0.0-420.0","3KJYX6QCMAXY9YJDNK2DSQUXWZDVJE","A36FBIDN58N139","3FVBZG9CLJ0K37PD5L6161S4HTM0HN","","638.1000000238419","img/food1.png","76","639.4000000953674","3","1","","2","1","1,0.5,0,1,0.5,0,0.5,0,1","0,1,0.5,0,1,0.5,1,0.5,0","3",""
"","html-keyboard-response","332","190079","0.0-421.0","3KJYX6QCMAXY9YJDNK2DSQUXWZDVJE","A36FBIDN58N139","3FVBZG9CLJ0K37PD5L6161S4HTM0HN","","null","<img src=""img/food1.png"" style=""width:200px; border:14px solid green;"">","null","","","","","","","","","",""
"","image-keyboard-response","333","190313","0.0-422.0","3KJYX6QCMAXY9YJDNK2DSQUXWZDVJE","A36FBIDN58N139","3FVBZG9CLJ0K37PD5L6161S4HTM0HN","","232.20000004768372","img/food1.png","76","233.60000002384186","3","1","","2","1","1,0.5,0,1,0.5,0,0.5,0,1","0,1,0.5,0,1,0.5,1,0.5,0","3",""
"","html-keyboard-response","334","190615","0.0-423.0","3KJYX6QCMAXY9YJDNK2DSQUXWZDVJE","A36FBIDN58N139","3FVBZG9CLJ0K37PD5L6161S4HTM0HN","","null","<img src=""img/food1.png"" style=""width:200px; border:14px solid green;"">","null","","","","","","","","","",""
"","image-keyboard-response","335","191250","0.0-424.0","3KJYX6QCMAXY9YJDNK2DSQUXWZDVJE","A36FBIDN58N139","3FVBZG9CLJ0K37PD5L6161S4HTM0HN","","633.8999999761581","img/food4.png","75","634.7999999523163","2","1","","1","1","1,0.5,0,1,0.5,0,0.5,0,1","0,1,0.5,0,1,0.5,1,0.5,0","3",""
"","html-keyboard-response","336","191553","0.0-425.0","3KJYX6QCMAXY9YJDNK2DSQUXWZDVJE","A36FBIDN58N139","3FVBZG9CLJ0K37PD5L6161S4HTM0HN","","null","<img src=""img/food4.png"" style=""width:200px; border:14px solid green;"">","null","","","","","","","","","",""
"","image-keyboard-response","337","192089","0.0-426.0","3KJYX6QCMAXY9YJDNK2DSQUXWZDVJE","A36FBIDN58N139","3FVBZG9CLJ0K37PD5L6161S4HTM0HN","","534.3999999761581","img/food6.png","74","535.5","1","1","","3","1","1,0.5,0,1,0.5,0,0.5,0,1","0,1,0.5,0,1,0.5,1,0.5,0","3",""
"","html-keyboard-response","338","192390","0.0-427.0","3KJYX6QCMAXY9YJDNK2DSQUXWZDVJE","A36FBIDN58N139","3FVBZG9CLJ0K37PD5L6161S4HTM0HN","","null","<img src=""img/food6.png"" style=""width:200px; border:14px solid green;"">","null","","","","","","","","","",""
"","image-keyboard-response","339","193146","0.0-428.0","3KJYX6QCMAXY9YJDNK2DSQUXWZDVJE","A36FBIDN58N139","3FVBZG9CLJ0K37PD5L6161S4HTM0HN","","754","img/food1.png","76","755.5","3","1","","2","1","1,0.5,0,1,0.5,0,0.5,0,1","0,1,0.5,0,1,0.5,1,0.5,0","3",""
"","html-keyboard-response","340","193449","0.0-429.0","3KJYX6QCMAXY9YJDNK2DSQUXWZDVJE","A36FBIDN58N139","3FVBZG9CLJ0K37PD5L6161S4HTM0HN","","null","<img src=""img/food1.png"" style=""width:200px; border:14px solid green;"">","null","","","","","","","","","",""
"","image-keyboard-response","341","194105","0.0-430.0","3KJYX6QCMAXY9YJDNK2DSQUXWZDVJE","A36FBIDN58N139","3FVBZG9CLJ0K37PD5L6161S4HTM0HN","","655.5999999046326","img/food4.png","74","656.1000000238419","1","0","","1","1","1,0.5,0,1,0.5,0,0.5,0,1","0,1,0.5,0,1,0.5,1,0.5,0","3",""
"","html-keyboard-response","342","194407","0.0-431.0","3KJYX6QCMAXY9YJDNK2DSQUXWZDVJE","A36FBIDN58N139","3FVBZG9CLJ0K37PD5L6161S4HTM0HN","","null","<img src=""img/food4.png"" style=""width:200px;border:14px solid red;"">","null","","","","","","","","","",""
"","image-keyboard-response","343","197873","0.0-432.0","3KJYX6QCMAXY9YJDNK2DSQUXWZDVJE","A36FBIDN58N139","3FVBZG9CLJ0K37PD5L6161S4HTM0HN","","3464.5","img/food1.png","76","3465.7000000476837","3","0","","2","1","1,0.5,0,1,0.5,0,0.5,0,1","0,1,0.5,0,1,0.5,1,0.5,0","3",""
"","html-keyboard-response","344","198174","0.0-433.0","3KJYX6QCMAXY9YJDNK2DSQUXWZDVJE","A36FBIDN58N139","3FVBZG9CLJ0K37PD5L6161S4HTM0HN","","null","<img src=""img/food1.png"" style=""width:200px;border:14px solid red;"">","null","","","","","","","","","",""
"","image-keyboard-response","345","198858","0.0-434.0","3KJYX6QCMAXY9YJDNK2DSQUXWZDVJE","A36FBIDN58N139","3FVBZG9CLJ0K37PD5L6161S4HTM0HN","","683.6999999284744","img/food6.png","74","684.6000000238419","1","1","","3","1","1,0.5,0,1,0.5,0,0.5,0,1","0,1,0.5,0,1,0.5,1,0.5,0","3",""
"","html-keyboard-response","346","199161","0.0-435.0","3KJYX6QCMAXY9YJDNK2DSQUXWZDVJE","A36FBIDN58N139","3FVBZG9CLJ0K37PD5L6161S4HTM0HN","","null","<img src=""img/food6.png"" style=""width:200px; border:14px solid green;"">","null","","","","","","","","","",""
"","image-keyboard-response","347","200458","0.0-436.0","3KJYX6QCMAXY9YJDNK2DSQUXWZDVJE","A36FBIDN58N139","3FVBZG9CLJ0K37PD5L6161S4HTM0HN","","1295.1999999284744","img/food1.png","76","1296.7999999523163","3","1","","2","1","1,0.5,0,1,0.5,0,0.5,0,1","0,1,0.5,0,1,0.5,1,0.5,0","3",""
"","html-keyboard-response","348","200760","0.0-437.0","3KJYX6QCMAXY9YJDNK2DSQUXWZDVJE","A36FBIDN58N139","3FVBZG9CLJ0K37PD5L6161S4HTM0HN","","null","<img src=""img/food1.png"" style=""width:200px; border:14px solid green;"">","null","","","","","","","","","",""
"","image-keyboard-response","349","201026","0.0-438.0","3KJYX6QCMAXY9YJDNK2DSQUXWZDVJE","A36FBIDN58N139","3FVBZG9CLJ0K37PD5L6161S4HTM0HN","","263.89999997615814","img/food1.png","76","265.39999997615814","3","1","","2","1","1,0.5,0,1,0.5,0,0.5,0,1","0,1,0.5,0,1,0.5,1,0.5,0","3",""
"","html-keyboard-response","350","201329","0.0-439.0","3KJYX6QCMAXY9YJDNK2DSQUXWZDVJE","A36FBIDN58N139","3FVBZG9CLJ0K37PD5L6161S4HTM0HN","","null","<img src=""img/food1.png"" style=""width:200px; border:14px solid green;"">","null","","","","","","","","","",""
"","image-keyboard-response","351","201921","0.0-440.0","3KJYX6QCMAXY9YJDNK2DSQUXWZDVJE","A36FBIDN58N139","3FVBZG9CLJ0K37PD5L6161S4HTM0HN","","590","img/food6.png","74","591.3000000715256","1","1","","3","1","1,0.5,0,1,0.5,0,0.5,0,1","0,1,0.5,0,1,0.5,1,0.5,0","3",""
"","html-keyboard-response","352","202222","0.0-441.0","3KJYX6QCMAXY9YJDNK2DSQUXWZDVJE","A36FBIDN58N139","3FVBZG9CLJ0K37PD5L6161S4HTM0HN","","null","<img src=""img/food6.png"" style=""width:200px; border:14px solid green;"">","null","","","","","","","","","",""
"","image-keyboard-response","353","202866","0.0-442.0","3KJYX6QCMAXY9YJDNK2DSQUXWZDVJE","A36FBIDN58N139","3FVBZG9CLJ0K37PD5L6161S4HTM0HN","","641.7999999523163","img/food4.png","75","643.6000000238419","2","1","","1","1","1,0.5,0,1,0.5,0,0.5,0,1","0,1,0.5,0,1,0.5,1,0.5,0","3",""
"","html-keyboard-response","354","203169","0.0-443.0","3KJYX6QCMAXY9YJDNK2DSQUXWZDVJE","A36FBIDN58N139","3FVBZG9CLJ0K37PD5L6161S4HTM0HN","","null","<img src=""img/food4.png"" style=""width:200px; border:14px solid green;"">","null","","","","","","","","","",""
"","image-keyboard-response","355","203465","0.0-444.0","3KJYX6QCMAXY9YJDNK2DSQUXWZDVJE","A36FBIDN58N139","3FVBZG9CLJ0K37PD5L6161S4HTM0HN","","293.39999997615814","img/food4.png","75","295","2","1","","1","1","1,0.5,0,1,0.5,0,0.5,0,1","0,1,0.5,0,1,0.5,1,0.5,0","3",""
"","html-keyboard-response","356","203767","0.0-445.0","3KJYX6QCMAXY9YJDNK2DSQUXWZDVJE","A36FBIDN58N139","3FVBZG9CLJ0K37PD5L6161S4HTM0HN","","null","<img src=""img/food4.png"" style=""width:200px; border:14px solid green;"">","null","","","","","","","","","",""
"","image-keyboard-response","357","204386","0.0-446.0","3KJYX6QCMAXY9YJDNK2DSQUXWZDVJE","A36FBIDN58N139","3FVBZG9CLJ0K37PD5L6161S4HTM0HN","","618.5","img/food1.png","76","619.5","3","1","","2","1","1,0.5,0,1,0.5,0,0.5,0,1","0,1,0.5,0,1,0.5,1,0.5,0","3",""
"","html-keyboard-response","358","204689","0.0-447.0","3KJYX6QCMAXY9YJDNK2DSQUXWZDVJE","A36FBIDN58N139","3FVBZG9CLJ0K37PD5L6161S4HTM0HN","","null","<img src=""img/food1.png"" style=""width:200px; border:14px solid green;"">","null","","","","","","","","","",""
"","image-keyboard-response","359","205289","0.0-448.0","3KJYX6QCMAXY9YJDNK2DSQUXWZDVJE","A36FBIDN58N139","3FVBZG9CLJ0K37PD5L6161S4HTM0HN","","597.8999999761581","img/food6.png","74","599.2999999523163","1","1","","3","1","1,0.5,0,1,0.5,0,0.5,0,1","0,1,0.5,0,1,0.5,1,0.5,0","3",""
"","html-keyboard-response","360","205590","0.0-449.0","3KJYX6QCMAXY9YJDNK2DSQUXWZDVJE","A36FBIDN58N139","3FVBZG9CLJ0K37PD5L6161S4HTM0HN","","null","<img src=""img/food6.png"" style=""width:200px; border:14px solid green;"">","null","","","","","","","","","",""
"","image-keyboard-response","361","206169","0.0-450.0","3KJYX6QCMAXY9YJDNK2DSQUXWZDVJE","A36FBIDN58N139","3FVBZG9CLJ0K37PD5L6161S4HTM0HN","","577.4000000953674","img/food4.png","75","578.7000000476837","2","1","","1","1","1,0.5,0,1,0.5,0,0.5,0,1","0,1,0.5,0,1,0.5,1,0.5,0","3",""
"","html-keyboard-response","362","206470","0.0-451.0","3KJYX6QCMAXY9YJDNK2DSQUXWZDVJE","A36FBIDN58N139","3FVBZG9CLJ0K37PD5L6161S4HTM0HN","","null","<img src=""img/food4.png"" style=""width:200px; border:14px solid green;"">","null","","","","","","","","","",""
"","image-keyboard-response","363","207106","0.0-452.0","3KJYX6QCMAXY9YJDNK2DSQUXWZDVJE","A36FBIDN58N139","3FVBZG9CLJ0K37PD5L6161S4HTM0HN","","633.8999999761581","img/food1.png","76","635.5","3","0","","2","1","1,0.5,0,1,0.5,0,0.5,0,1","0,1,0.5,0,1,0.5,1,0.5,0","3",""
"","html-keyboard-response","364","207409","0.0-453.0","3KJYX6QCMAXY9YJDNK2DSQUXWZDVJE","A36FBIDN58N139","3FVBZG9CLJ0K37PD5L6161S4HTM0HN","","null","<img src=""img/food1.png"" style=""width:200px;border:14px solid red;"">","null","","","","","","","","","",""
"","html-keyboard-response","365","210545","0.0-454.0","3KJYX6QCMAXY9YJDNK2DSQUXWZDVJE","A36FBIDN58N139","3FVBZG9CLJ0K37PD5L6161S4HTM0HN","","","","","","","","","","","","","",""
"","instructions","366","215708","0.0-455.0","3KJYX6QCMAXY9YJDNK2DSQUXWZDVJE","A36FBIDN58N139","3FVBZG9CLJ0K37PD5L6161S4HTM0HN","[{""page_index"":0,""viewing_time"":5161.700000047684}]","5161.900000095367","","","","","","","","","","","",""
"","survey-text","367","220892","0.0-456.0","3KJYX6QCMAXY9YJDNK2DSQUXWZDVJE","A36FBIDN58N139","3FVBZG9CLJ0K37PD5L6161S4HTM0HN","","5182","","","","","","","","","","","","{""Q0"":""A36FBIDN58N139""}"
