"success","trial_type","trial_index","time_elapsed","internal_node_id","assignmentID","mturkID","hitID","view_history","rt","stimulus","key_press","reactionTime","a","r","warning","s","cond","reward_cond","reward_cond_actual","reward_matrix_idx","responses"
"true","fullscreen","0","3097","0.0-0.0","3UOUJI6MTE0ZR3Z2ZY79ND0TTMUUXF","A36W9YOEXLJLBT","3HUR21WDDUBEMSLDIXZW1FAIHW8YX3","","","","","","","","","","","","","",""
"","instructions","1","11745","0.0-1.0","3UOUJI6MTE0ZR3Z2ZY79ND0TTMUUXF","A36W9YOEXLJLBT","3HUR21WDDUBEMSLDIXZW1FAIHW8YX3","[{""page_index"":0,""viewing_time"":2035.0999999996275},{""page_index"":1,""viewing_time"":1525},{""page_index"":2,""viewing_time"":965.3000000007451},{""page_index"":3,""viewing_time"":943.1999999992549},{""page_index"":4,""viewing_time"":696},{""page_index"":5,""viewing_time"":1411.5},{""page_index"":6,""viewing_time"":1071.0999999996275}]","8647.599999999627","","","","","","","","","","","",""
"","instructions","2","20403","0.0-2.0","3UOUJI6MTE0ZR3Z2ZY79ND0TTMUUXF","A36W9YOEXLJLBT","3HUR21WDDUBEMSLDIXZW1FAIHW8YX3","[{""page_index"":0,""viewing_time"":7911.4000000003725},{""page_index"":1,""viewing_time"":745.5}]","8657.199999999255","","","","","","","","","","","",""
"","image-keyboard-response","3","21310","0.0-3.0","3UOUJI6MTE0ZR3Z2ZY79ND0TTMUUXF","A36W9YOEXLJLBT","3HUR21WDDUBEMSLDIXZW1FAIHW8YX3","","906.5","img/food4.png","74","907.2999999988824","1","0","false","1","2","1,0.5,0,1,0.5,0,0.5,0,1","0,1,0.5,0,1,0.5,1,0.5,0","3",""
"","html-keyboard-response","4","21625","0.0-4.0","3UOUJI6MTE0ZR3Z2ZY79ND0TTMUUXF","A36W9YOEXLJLBT","3HUR21WDDUBEMSLDIXZW1FAIHW8YX3","","null","<img src=""img/food4.png"" style=""width:200px;border:14px solid red;"">","null","","","","","","","","","",""
"","image-keyboard-response","5","22142","0.0-6.0","3UOUJI6MTE0ZR3Z2ZY79ND0TTMUUXF","A36W9YOEXLJLBT","3HUR21WDDUBEMSLDIXZW1FAIHW8YX3","","515.8000000007451","img/food4.png","75","516.4000000003725","2","1","false","1","2","1,0.5,0,1,0.5,0,0.5,0,1","0,1,0.5,0,1,0.5,1,0.5,0","3",""
"","html-keyboard-response","6","22453","0.0-7.0","3UOUJI6MTE0ZR3Z2ZY79ND0TTMUUXF","A36W9YOEXLJLBT","3HUR21WDDUBEMSLDIXZW1FAIHW8YX3","","null","<img src=""img/food4.png"" style=""width:200px; border:14px solid green;"">","null","","","","","","","","","",""
"","image-keyboard-response","7","23117","0.0-9.0","3UOUJI6MTE0ZR3Z2ZY79ND0TTMUUXF","A36W9YOEXLJLBT","3HUR21WDDUBEMSLDIXZW1FAIHW8YX3","","663.5","img/food1.png","76","664","3","0","false","3","2","1,0.5,0,1,0.5,0,0.5,0,1","0,1,0.5,0,1,0.5,1,0.5,0","3",""
"","html-keyboard-response","8","23422","0.0-10.0","3UOUJI6MTE0ZR3Z2ZY79ND0TTMUUXF","A36W9YOEXLJLBT","3HUR21WDDUBEMSLDIXZW1FAIHW8YX3","","null","<img src=""img/food1.png"" style=""width:200px;border:14px solid red;"">","null","","","","","","","","","",""
"","image-keyboard-response","9","24141","0.0-12.0","3UOUJI6MTE0ZR3Z2ZY79ND0TTMUUXF","A36W9YOEXLJLBT","3HUR21WDDUBEMSLDIXZW1FAIHW8YX3","","718.6000000014901","img/food4.png","75","719.1999999992549","2","1","false","1","2","1,0.5,0,1,0.5,0,0.5,0,1","0,1,0.5,0,1,0.5,1,0.5,0","3",""
"","html-keyboard-response","10","24454","0.0-13.0","3UOUJI6MTE0ZR3Z2ZY79ND0TTMUUXF","A36W9YOEXLJLBT","3HUR21WDDUBEMSLDIXZW1FAIHW8YX3","","null","<img src=""img/food4.png"" style=""width:200px; border:14px solid green;"">","null","","","","","","","","","",""
"","image-keyboard-response","11","25130","0.0-15.0","3UOUJI6MTE0ZR3Z2ZY79ND0TTMUUXF","A36W9YOEXLJLBT","3HUR21WDDUBEMSLDIXZW1FAIHW8YX3","","675.5","img/food1.png","76","676.1000000014901","3","0","false","3","2","1,0.5,0,1,0.5,0,0.5,0,1","0,1,0.5,0,1,0.5,1,0.5,0","3",""
"","html-keyboard-response","12","25439","0.0-16.0","3UOUJI6MTE0ZR3Z2ZY79ND0TTMUUXF","A36W9YOEXLJLBT","3HUR21WDDUBEMSLDIXZW1FAIHW8YX3","","null","<img src=""img/food1.png"" style=""width:200px;border:14px solid red;"">","null","","","","","","","","","",""
"","image-keyboard-response","13","25834","0.0-18.0","3UOUJI6MTE0ZR3Z2ZY79ND0TTMUUXF","A36W9YOEXLJLBT","3HUR21WDDUBEMSLDIXZW1FAIHW8YX3","","394.2999999988824","img/food1.png","74","394.90000000037253","1","1","false","3","2","1,0.5,0,1,0.5,0,0.5,0,1","0,1,0.5,0,1,0.5,1,0.5,0","3",""
"","html-keyboard-response","14","26143","0.0-19.0","3UOUJI6MTE0ZR3Z2ZY79ND0TTMUUXF","A36W9YOEXLJLBT","3HUR21WDDUBEMSLDIXZW1FAIHW8YX3","","null","<img src=""img/food1.png"" style=""width:200px; border:14px solid green;"">","null","","","","","","","","","",""
"","image-keyboard-response","15","26636","0.0-21.0","3UOUJI6MTE0ZR3Z2ZY79ND0TTMUUXF","A36W9YOEXLJLBT","3HUR21WDDUBEMSLDIXZW1FAIHW8YX3","","491.59999999962747","img/food1.png","74","492.2000000011176","1","1","false","3","2","1,0.5,0,1,0.5,0,0.5,0,1","0,1,0.5,0,1,0.5,1,0.5,0","3",""
"","html-keyboard-response","16","26944","0.0-22.0","3UOUJI6MTE0ZR3Z2ZY79ND0TTMUUXF","A36W9YOEXLJLBT","3HUR21WDDUBEMSLDIXZW1FAIHW8YX3","","null","<img src=""img/food1.png"" style=""width:200px; border:14px solid green;"">","null","","","","","","","","","",""
"","image-keyboard-response","17","27754","0.0-24.0","3UOUJI6MTE0ZR3Z2ZY79ND0TTMUUXF","A36W9YOEXLJLBT","3HUR21WDDUBEMSLDIXZW1FAIHW8YX3","","808.6999999992549","img/food3.png","76","809.3000000007451","3","0","false","2","2","1,0.5,0,1,0.5,0,0.5,0,1","0,1,0.5,0,1,0.5,1,0.5,0","3",""
"","html-keyboard-response","18","28060","0.0-25.0","3UOUJI6MTE0ZR3Z2ZY79ND0TTMUUXF","A36W9YOEXLJLBT","3HUR21WDDUBEMSLDIXZW1FAIHW8YX3","","null","<img src=""img/food3.png"" style=""width:200px;border:14px solid red;"">","null","","","","","","","","","",""
"","image-keyboard-response","19","28314","0.0-27.0","3UOUJI6MTE0ZR3Z2ZY79ND0TTMUUXF","A36W9YOEXLJLBT","3HUR21WDDUBEMSLDIXZW1FAIHW8YX3","","252.59999999962747","img/food3.png","76","252.90000000037253","3","0","false","2","2","1,0.5,0,1,0.5,0,0.5,0,1","0,1,0.5,0,1,0.5,1,0.5,0","3",""
"","html-keyboard-response","20","28622","0.0-28.0","3UOUJI6MTE0ZR3Z2ZY79ND0TTMUUXF","A36W9YOEXLJLBT","3HUR21WDDUBEMSLDIXZW1FAIHW8YX3","","null","<img src=""img/food3.png"" style=""width:200px;border:14px solid red;"">","null","","","","","","","","","",""
"","image-keyboard-response","21","28858","0.0-30.0","3UOUJI6MTE0ZR3Z2ZY79ND0TTMUUXF","A36W9YOEXLJLBT","3HUR21WDDUBEMSLDIXZW1FAIHW8YX3","","234.5","img/food4.png","75","235.10000000149012","2","1","false","1","2","1,0.5,0,1,0.5,0,0.5,0,1","0,1,0.5,0,1,0.5,1,0.5,0","3",""
"","html-keyboard-response","22","29168","0.0-31.0","3UOUJI6MTE0ZR3Z2ZY79ND0TTMUUXF","A36W9YOEXLJLBT","3HUR21WDDUBEMSLDIXZW1FAIHW8YX3","","null","<img src=""img/food4.png"" style=""width:200px; border:14px solid green;"">","null","","","","","","","","","",""
"","image-keyboard-response","23","29609","0.0-33.0","3UOUJI6MTE0ZR3Z2ZY79ND0TTMUUXF","A36W9YOEXLJLBT","3HUR21WDDUBEMSLDIXZW1FAIHW8YX3","","439.80000000074506","img/food4.png","75","440.19999999925494","2","1","false","1","2","1,0.5,0,1,0.5,0,0.5,0,1","0,1,0.5,0,1,0.5,1,0.5,0","3",""
"","html-keyboard-response","24","29910","0.0-34.0","3UOUJI6MTE0ZR3Z2ZY79ND0TTMUUXF","A36W9YOEXLJLBT","3HUR21WDDUBEMSLDIXZW1FAIHW8YX3","","null","<img src=""img/food4.png"" style=""width:200px; border:14px solid green;"">","null","","","","","","","","","",""
"","image-keyboard-response","25","30407","0.0-36.0","3UOUJI6MTE0ZR3Z2ZY79ND0TTMUUXF","A36W9YOEXLJLBT","3HUR21WDDUBEMSLDIXZW1FAIHW8YX3","","496.3999999985099","img/food3.png","75","497.09999999962747","2","1","false","2","2","1,0.5,0,1,0.5,0,0.5,0,1","0,1,0.5,0,1,0.5,1,0.5,0","3",""
"","html-keyboard-response","26","30709","0.0-37.0","3UOUJI6MTE0ZR3Z2ZY79ND0TTMUUXF","A36W9YOEXLJLBT","3HUR21WDDUBEMSLDIXZW1FAIHW8YX3","","null","<img src=""img/food3.png"" style=""width:200px; border:14px solid green;"">","null","","","","","","","","","",""
"","image-keyboard-response","27","31161","0.0-39.0","3UOUJI6MTE0ZR3Z2ZY79ND0TTMUUXF","A36W9YOEXLJLBT","3HUR21WDDUBEMSLDIXZW1FAIHW8YX3","","451.09999999962747","img/food4.png","75","451.7000000011176","2","1","false","1","2","1,0.5,0,1,0.5,0,0.5,0,1","0,1,0.5,0,1,0.5,1,0.5,0","3",""
"","html-keyboard-response","28","31462","0.0-40.0","3UOUJI6MTE0ZR3Z2ZY79ND0TTMUUXF","A36W9YOEXLJLBT","3HUR21WDDUBEMSLDIXZW1FAIHW8YX3","","null","<img src=""img/food4.png"" style=""width:200px; border:14px solid green;"">","null","","","","","","","","","",""
"","image-keyboard-response","29","31975","0.0-42.0","3UOUJI6MTE0ZR3Z2ZY79ND0TTMUUXF","A36W9YOEXLJLBT","3HUR21WDDUBEMSLDIXZW1FAIHW8YX3","","512.4000000003725","img/food3.png","75","512.7999999988824","2","1","false","2","2","1,0.5,0,1,0.5,0,0.5,0,1","0,1,0.5,0,1,0.5,1,0.5,0","3",""
"","html-keyboard-response","30","32291","0.0-43.0","3UOUJI6MTE0ZR3Z2ZY79ND0TTMUUXF","A36W9YOEXLJLBT","3HUR21WDDUBEMSLDIXZW1FAIHW8YX3","","null","<img src=""img/food3.png"" style=""width:200px; border:14px solid green;"">","null","","","","","","","","","",""
"","image-keyboard-response","31","32728","0.0-45.0","3UOUJI6MTE0ZR3Z2ZY79ND0TTMUUXF","A36W9YOEXLJLBT","3HUR21WDDUBEMSLDIXZW1FAIHW8YX3","","435.19999999925494","img/food4.png","75","435.80000000074506","2","1","false","1","2","1,0.5,0,1,0.5,0,0.5,0,1","0,1,0.5,0,1,0.5,1,0.5,0","3",""
"","html-keyboard-response","32","33029","0.0-46.0","3UOUJI6MTE0ZR3Z2ZY79ND0TTMUUXF","A36W9YOEXLJLBT","3HUR21WDDUBEMSLDIXZW1FAIHW8YX3","","null","<img src=""img/food4.png"" style=""width:200px; border:14px solid green;"">","null","","","","","","","","","",""
"","image-keyboard-response","33","33511","0.0-48.0","3UOUJI6MTE0ZR3Z2ZY79ND0TTMUUXF","A36W9YOEXLJLBT","3HUR21WDDUBEMSLDIXZW1FAIHW8YX3","","482.19999999925494","img/food3.png","75","482.59999999962747","2","1","false","2","2","1,0.5,0,1,0.5,0,0.5,0,1","0,1,0.5,0,1,0.5,1,0.5,0","3",""
"","html-keyboard-response","34","33813","0.0-49.0","3UOUJI6MTE0ZR3Z2ZY79ND0TTMUUXF","A36W9YOEXLJLBT","3HUR21WDDUBEMSLDIXZW1FAIHW8YX3","","null","<img src=""img/food3.png"" style=""width:200px; border:14px solid green;"">","null","","","","","","","","","",""
"","image-keyboard-response","35","34295","0.0-51.0","3UOUJI6MTE0ZR3Z2ZY79ND0TTMUUXF","A36W9YOEXLJLBT","3HUR21WDDUBEMSLDIXZW1FAIHW8YX3","","482","img/food4.png","75","482.5","2","1","false","1","2","1,0.5,0,1,0.5,0,0.5,0,1","0,1,0.5,0,1,0.5,1,0.5,0","3",""
"","html-keyboard-response","36","34596","0.0-52.0","3UOUJI6MTE0ZR3Z2ZY79ND0TTMUUXF","A36W9YOEXLJLBT","3HUR21WDDUBEMSLDIXZW1FAIHW8YX3","","null","<img src=""img/food4.png"" style=""width:200px; border:14px solid green;"">","null","","","","","","","","","",""
"","image-keyboard-response","37","35063","0.0-54.0","3UOUJI6MTE0ZR3Z2ZY79ND0TTMUUXF","A36W9YOEXLJLBT","3HUR21WDDUBEMSLDIXZW1FAIHW8YX3","","466.5","img/food1.png","74","467","1","1","false","3","2","1,0.5,0,1,0.5,0,0.5,0,1","0,1,0.5,0,1,0.5,1,0.5,0","3",""
"","html-keyboard-response","38","35364","0.0-55.0","3UOUJI6MTE0ZR3Z2ZY79ND0TTMUUXF","A36W9YOEXLJLBT","3HUR21WDDUBEMSLDIXZW1FAIHW8YX3","","null","<img src=""img/food1.png"" style=""width:200px; border:14px solid green;"">","null","","","","","","","","","",""
"","image-keyboard-response","39","36135","0.0-57.0","3UOUJI6MTE0ZR3Z2ZY79ND0TTMUUXF","A36W9YOEXLJLBT","3HUR21WDDUBEMSLDIXZW1FAIHW8YX3","","769.9000000003725","img/food3.png","75","770.5","2","1","false","2","2","1,0.5,0,1,0.5,0,0.5,0,1","0,1,0.5,0,1,0.5,1,0.5,0","3",""
"","html-keyboard-response","40","36437","0.0-58.0","3UOUJI6MTE0ZR3Z2ZY79ND0TTMUUXF","A36W9YOEXLJLBT","3HUR21WDDUBEMSLDIXZW1FAIHW8YX3","","null","<img src=""img/food3.png"" style=""width:200px; border:14px solid green;"">","null","","","","","","","","","",""
"","image-keyboard-response","41","36886","0.0-60.0","3UOUJI6MTE0ZR3Z2ZY79ND0TTMUUXF","A36W9YOEXLJLBT","3HUR21WDDUBEMSLDIXZW1FAIHW8YX3","","448.8999999985099","img/food1.png","75","449.5","2","0","false","3","2","1,0.5,0,1,0.5,0,0.5,0,1","0,1,0.5,0,1,0.5,1,0.5,0","3",""
"","html-keyboard-response","42","37188","0.0-61.0","3UOUJI6MTE0ZR3Z2ZY79ND0TTMUUXF","A36W9YOEXLJLBT","3HUR21WDDUBEMSLDIXZW1FAIHW8YX3","","null","<img src=""img/food1.png"" style=""width:200px;border:14px solid red;"">","null","","","","","","","","","",""
"","image-keyboard-response","43","37703","0.0-63.0","3UOUJI6MTE0ZR3Z2ZY79ND0TTMUUXF","A36W9YOEXLJLBT","3HUR21WDDUBEMSLDIXZW1FAIHW8YX3","","514.4000000003725","img/food4.png","75","514.8000000007451","2","1","false","1","2","1,0.5,0,1,0.5,0,0.5,0,1","0,1,0.5,0,1,0.5,1,0.5,0","3",""
"","html-keyboard-response","44","38004","0.0-64.0","3UOUJI6MTE0ZR3Z2ZY79ND0TTMUUXF","A36W9YOEXLJLBT","3HUR21WDDUBEMSLDIXZW1FAIHW8YX3","","null","<img src=""img/food4.png"" style=""width:200px; border:14px solid green;"">","null","","","","","","","","","",""
"","image-keyboard-response","45","38581","0.0-66.0","3UOUJI6MTE0ZR3Z2ZY79ND0TTMUUXF","A36W9YOEXLJLBT","3HUR21WDDUBEMSLDIXZW1FAIHW8YX3","","576.7999999988824","img/food1.png","74","577.1999999992549","1","1","false","3","2","1,0.5,0,1,0.5,0,0.5,0,1","0,1,0.5,0,1,0.5,1,0.5,0","3",""
"","html-keyboard-response","46","38882","0.0-67.0","3UOUJI6MTE0ZR3Z2ZY79ND0TTMUUXF","A36W9YOEXLJLBT","3HUR21WDDUBEMSLDIXZW1FAIHW8YX3","","null","<img src=""img/food1.png"" style=""width:200px; border:14px solid green;"">","null","","","","","","","","","",""
"","image-keyboard-response","47","39397","0.0-69.0","3UOUJI6MTE0ZR3Z2ZY79ND0TTMUUXF","A36W9YOEXLJLBT","3HUR21WDDUBEMSLDIXZW1FAIHW8YX3","","514","img/food3.png","76","514.6000000014901","3","1","false","2","2","1,0.5,0,1,0.5,0,0.5,0,1","0,1,0.5,0,1,0.5,1,0.5,0","3",""
"","html-keyboard-response","48","39699","0.0-70.0","3UOUJI6MTE0ZR3Z2ZY79ND0TTMUUXF","A36W9YOEXLJLBT","3HUR21WDDUBEMSLDIXZW1FAIHW8YX3","","null","<img src=""img/food3.png"" style=""width:200px; border:14px solid green;"">","null","","","","","","","","","",""
"","image-keyboard-response","49","40196","0.0-72.0","3UOUJI6MTE0ZR3Z2ZY79ND0TTMUUXF","A36W9YOEXLJLBT","3HUR21WDDUBEMSLDIXZW1FAIHW8YX3","","496.40000000037253","img/food3.png","76","496.8999999985099","3","1","false","2","2","1,0.5,0,1,0.5,0,0.5,0,1","0,1,0.5,0,1,0.5,1,0.5,0","3",""
"","html-keyboard-response","50","40498","0.0-73.0","3UOUJI6MTE0ZR3Z2ZY79ND0TTMUUXF","A36W9YOEXLJLBT","3HUR21WDDUBEMSLDIXZW1FAIHW8YX3","","null","<img src=""img/food3.png"" style=""width:200px; border:14px solid green;"">","null","","","","","","","","","",""
"","image-keyboard-response","51","41014","0.0-75.0","3UOUJI6MTE0ZR3Z2ZY79ND0TTMUUXF","A36W9YOEXLJLBT","3HUR21WDDUBEMSLDIXZW1FAIHW8YX3","","514.8000000007451","img/food4.png","75","515.4000000003725","2","1","false","1","2","1,0.5,0,1,0.5,0,0.5,0,1","0,1,0.5,0,1,0.5,1,0.5,0","3",""
"","html-keyboard-response","52","41314","0.0-76.0","3UOUJI6MTE0ZR3Z2ZY79ND0TTMUUXF","A36W9YOEXLJLBT","3HUR21WDDUBEMSLDIXZW1FAIHW8YX3","","null","<img src=""img/food4.png"" style=""width:200px; border:14px solid green;"">","null","","","","","","","","","",""
"","image-keyboard-response","53","41764","0.0-78.0","3UOUJI6MTE0ZR3Z2ZY79ND0TTMUUXF","A36W9YOEXLJLBT","3HUR21WDDUBEMSLDIXZW1FAIHW8YX3","","449.30000000074506","img/food1.png","74","450.09999999962747","1","1","false","3","2","1,0.5,0,1,0.5,0,0.5,0,1","0,1,0.5,0,1,0.5,1,0.5,0","3",""
"","html-keyboard-response","54","42065","0.0-79.0","3UOUJI6MTE0ZR3Z2ZY79ND0TTMUUXF","A36W9YOEXLJLBT","3HUR21WDDUBEMSLDIXZW1FAIHW8YX3","","null","<img src=""img/food1.png"" style=""width:200px; border:14px solid green;"">","null","","","","","","","","","",""
"","image-keyboard-response","55","42436","0.0-81.0","3UOUJI6MTE0ZR3Z2ZY79ND0TTMUUXF","A36W9YOEXLJLBT","3HUR21WDDUBEMSLDIXZW1FAIHW8YX3","","369.5","img/food1.png","74","370.1000000014901","1","1","false","3","2","1,0.5,0,1,0.5,0,0.5,0,1","0,1,0.5,0,1,0.5,1,0.5,0","3",""
"","html-keyboard-response","56","42737","0.0-82.0","3UOUJI6MTE0ZR3Z2ZY79ND0TTMUUXF","A36W9YOEXLJLBT","3HUR21WDDUBEMSLDIXZW1FAIHW8YX3","","null","<img src=""img/food1.png"" style=""width:200px; border:14px solid green;"">","null","","","","","","","","","",""
"","image-keyboard-response","57","43156","0.0-84.0","3UOUJI6MTE0ZR3Z2ZY79ND0TTMUUXF","A36W9YOEXLJLBT","3HUR21WDDUBEMSLDIXZW1FAIHW8YX3","","418.5","img/food4.png","76","419.09999999962747","3","1","false","1","2","1,0.5,0,1,0.5,0,0.5,0,1","0,1,0.5,0,1,0.5,1,0.5,0","3",""
"","html-keyboard-response","58","43458","0.0-85.0","3UOUJI6MTE0ZR3Z2ZY79ND0TTMUUXF","A36W9YOEXLJLBT","3HUR21WDDUBEMSLDIXZW1FAIHW8YX3","","null","<img src=""img/food4.png"" style=""width:200px; border:14px solid green;"">","null","","","","","","","","","",""
"","image-keyboard-response","59","43828","0.0-87.0","3UOUJI6MTE0ZR3Z2ZY79ND0TTMUUXF","A36W9YOEXLJLBT","3HUR21WDDUBEMSLDIXZW1FAIHW8YX3","","369.80000000074506","img/food3.png","75","370.2999999988824","2","1","false","2","2","1,0.5,0,1,0.5,0,0.5,0,1","0,1,0.5,0,1,0.5,1,0.5,0","3",""
"","html-keyboard-response","60","44130","0.0-88.0","3UOUJI6MTE0ZR3Z2ZY79ND0TTMUUXF","A36W9YOEXLJLBT","3HUR21WDDUBEMSLDIXZW1FAIHW8YX3","","null","<img src=""img/food3.png"" style=""width:200px; border:14px solid green;"">","null","","","","","","","","","",""
"","image-keyboard-response","61","44596","0.0-90.0","3UOUJI6MTE0ZR3Z2ZY79ND0TTMUUXF","A36W9YOEXLJLBT","3HUR21WDDUBEMSLDIXZW1FAIHW8YX3","","464.30000000074506","img/food4.png","76","465","3","0","false","1","2","1,0.5,0,1,0.5,0,0.5,0,1","0,1,0.5,0,1,0.5,1,0.5,0","3",""
"","html-keyboard-response","62","44898","0.0-91.0","3UOUJI6MTE0ZR3Z2ZY79ND0TTMUUXF","A36W9YOEXLJLBT","3HUR21WDDUBEMSLDIXZW1FAIHW8YX3","","null","<img src=""img/food4.png"" style=""width:200px;border:14px solid red;"">","null","","","","","","","","","",""
"","image-keyboard-response","63","45899","0.0-93.0","3UOUJI6MTE0ZR3Z2ZY79ND0TTMUUXF","A36W9YOEXLJLBT","3HUR21WDDUBEMSLDIXZW1FAIHW8YX3","","","img/food1.png","","1000.8000000007451","-1","0","true","3","2","1,0.5,0,1,0.5,0,0.5,0,1","0,1,0.5,0,1,0.5,1,0.5,0","3",""
"","html-keyboard-response","64","46200","0.0-94.0","3UOUJI6MTE0ZR3Z2ZY79ND0TTMUUXF","A36W9YOEXLJLBT","3HUR21WDDUBEMSLDIXZW1FAIHW8YX3","","null","<img src=""img/food1.png"" style=""width:200px;border:14px solid red;"">","null","","","","","","","","","",""
"","html-keyboard-response","65","52010","0.0-95.0-0.0","3UOUJI6MTE0ZR3Z2ZY79ND0TTMUUXF","A36W9YOEXLJLBT","3HUR21WDDUBEMSLDIXZW1FAIHW8YX3","","","","","","","","","","","","","",""
"","image-keyboard-response","66","52784","0.0-96.0","3UOUJI6MTE0ZR3Z2ZY79ND0TTMUUXF","A36W9YOEXLJLBT","3HUR21WDDUBEMSLDIXZW1FAIHW8YX3","","773.6999999992549","img/food3.png","74","774.3000000007451","1","0","false","2","2","1,0.5,0,1,0.5,0,0.5,0,1","0,1,0.5,0,1,0.5,1,0.5,0","3",""
"","html-keyboard-response","67","53085","0.0-97.0","3UOUJI6MTE0ZR3Z2ZY79ND0TTMUUXF","A36W9YOEXLJLBT","3HUR21WDDUBEMSLDIXZW1FAIHW8YX3","","null","<img src=""img/food3.png"" style=""width:200px;border:14px solid red;"">","null","","","","","","","","","",""
"","image-keyboard-response","68","53504","0.0-99.0","3UOUJI6MTE0ZR3Z2ZY79ND0TTMUUXF","A36W9YOEXLJLBT","3HUR21WDDUBEMSLDIXZW1FAIHW8YX3","","417.7999999988824","img/food1.png","75","418.5","2","1","false","3","2","1,0.5,0,1,0.5,0,0.5,0,1","0,1,0.5,0,1,0.5,1,0.5,0","3",""
"","html-keyboard-response","69","53810","0.0-100.0","3UOUJI6MTE0ZR3Z2ZY79ND0TTMUUXF","A36W9YOEXLJLBT","3HUR21WDDUBEMSLDIXZW1FAIHW8YX3","","null","<img src=""img/food1.png"" style=""width:200px; border:14px solid green;"">","null","","","","","","","","","",""
"","image-keyboard-response","70","54574","0.0-102.0","3UOUJI6MTE0ZR3Z2ZY79ND0TTMUUXF","A36W9YOEXLJLBT","3HUR21WDDUBEMSLDIXZW1FAIHW8YX3","","763.7000000011176","img/food4.png","74","764.0999999996275","1","0","false","1","2","1,0.5,0,1,0.5,0,0.5,0,1","0,1,0.5,0,1,0.5,1,0.5,0","3",""
"","html-keyboard-response","71","54889","0.0-103.0","3UOUJI6MTE0ZR3Z2ZY79ND0TTMUUXF","A36W9YOEXLJLBT","3HUR21WDDUBEMSLDIXZW1FAIHW8YX3","","null","<img src=""img/food4.png"" style=""width:200px;border:14px solid red;"">","null","","","","","","","","","",""
"","image-keyboard-response","72","55890","0.0-105.0","3UOUJI6MTE0ZR3Z2ZY79ND0TTMUUXF","A36W9YOEXLJLBT","3HUR21WDDUBEMSLDIXZW1FAIHW8YX3","","","img/food3.png","","1000.7999999988824","-1","0","true","2","2","1,0.5,0,1,0.5,0,0.5,0,1","0,1,0.5,0,1,0.5,1,0.5,0","3",""
"","html-keyboard-response","73","56191","0.0-106.0","3UOUJI6MTE0ZR3Z2ZY79ND0TTMUUXF","A36W9YOEXLJLBT","3HUR21WDDUBEMSLDIXZW1FAIHW8YX3","","null","<img src=""img/food3.png"" style=""width:200px;border:14px solid red;"">","null","","","","","","","","","",""
"","html-keyboard-response","74","58950","0.0-107.0-0.0","3UOUJI6MTE0ZR3Z2ZY79ND0TTMUUXF","A36W9YOEXLJLBT","3HUR21WDDUBEMSLDIXZW1FAIHW8YX3","","","","","","","","","","","","","",""
"","image-keyboard-response","75","59229","0.0-108.0","3UOUJI6MTE0ZR3Z2ZY79ND0TTMUUXF","A36W9YOEXLJLBT","3HUR21WDDUBEMSLDIXZW1FAIHW8YX3","","278.7000000011176","img/food1.png","76","279.2999999988824","3","0","false","3","2","1,0.5,0,1,0.5,0,0.5,0,1","0,1,0.5,0,1,0.5,1,0.5,0","3",""
"","html-keyboard-response","76","59530","0.0-109.0","3UOUJI6MTE0ZR3Z2ZY79ND0TTMUUXF","A36W9YOEXLJLBT","3HUR21WDDUBEMSLDIXZW1FAIHW8YX3","","null","<img src=""img/food1.png"" style=""width:200px;border:14px solid red;"">","null","","","","","","","","","",""
"","image-keyboard-response","77","59660","0.0-111.0","3UOUJI6MTE0ZR3Z2ZY79ND0TTMUUXF","A36W9YOEXLJLBT","3HUR21WDDUBEMSLDIXZW1FAIHW8YX3","","129.59999999962747","img/food3.png","75","130.09999999962747","2","1","false","2","2","1,0.5,0,1,0.5,0,0.5,0,1","0,1,0.5,0,1,0.5,1,0.5,0","3",""
"","html-keyboard-response","78","59962","0.0-112.0","3UOUJI6MTE0ZR3Z2ZY79ND0TTMUUXF","A36W9YOEXLJLBT","3HUR21WDDUBEMSLDIXZW1FAIHW8YX3","","null","<img src=""img/food3.png"" style=""width:200px; border:14px solid green;"">","null","","","","","","","","","",""
"","image-keyboard-response","79","60187","0.0-114.0","3UOUJI6MTE0ZR3Z2ZY79ND0TTMUUXF","A36W9YOEXLJLBT","3HUR21WDDUBEMSLDIXZW1FAIHW8YX3","","224.59999999962747","img/food3.png","74","225.10000000149012","1","0","false","2","2","1,0.5,0,1,0.5,0,0.5,0,1","0,1,0.5,0,1,0.5,1,0.5,0","3",""
"","html-keyboard-response","80","60489","0.0-115.0","3UOUJI6MTE0ZR3Z2ZY79ND0TTMUUXF","A36W9YOEXLJLBT","3HUR21WDDUBEMSLDIXZW1FAIHW8YX3","","null","<img src=""img/food3.png"" style=""width:200px;border:14px solid red;"">","null","","","","","","","","","",""
"","image-keyboard-response","81","60635","0.0-117.0","3UOUJI6MTE0ZR3Z2ZY79ND0TTMUUXF","A36W9YOEXLJLBT","3HUR21WDDUBEMSLDIXZW1FAIHW8YX3","","145.59999999962747","img/food4.png","75","146.2999999988824","2","1","false","1","2","1,0.5,0,1,0.5,0,0.5,0,1","0,1,0.5,0,1,0.5,1,0.5,0","3",""
"","html-keyboard-response","82","60936","0.0-118.0","3UOUJI6MTE0ZR3Z2ZY79ND0TTMUUXF","A36W9YOEXLJLBT","3HUR21WDDUBEMSLDIXZW1FAIHW8YX3","","null","<img src=""img/food4.png"" style=""width:200px; border:14px solid green;"">","null","","","","","","","","","",""
"","image-keyboard-response","83","61164","0.0-120.0","3UOUJI6MTE0ZR3Z2ZY79ND0TTMUUXF","A36W9YOEXLJLBT","3HUR21WDDUBEMSLDIXZW1FAIHW8YX3","","227.2999999988824","img/food4.png","75","227.80000000074506","2","1","false","1","2","1,0.5,0,1,0.5,0,0.5,0,1","0,1,0.5,0,1,0.5,1,0.5,0","3",""
"","html-keyboard-response","84","61466","0.0-121.0","3UOUJI6MTE0ZR3Z2ZY79ND0TTMUUXF","A36W9YOEXLJLBT","3HUR21WDDUBEMSLDIXZW1FAIHW8YX3","","null","<img src=""img/food4.png"" style=""width:200px; border:14px solid green;"">","null","","","","","","","","","",""
"","image-keyboard-response","85","61596","0.0-123.0","3UOUJI6MTE0ZR3Z2ZY79ND0TTMUUXF","A36W9YOEXLJLBT","3HUR21WDDUBEMSLDIXZW1FAIHW8YX3","","129.5","img/food3.png","75","130.09999999962747","2","1","false","2","2","1,0.5,0,1,0.5,0,0.5,0,1","0,1,0.5,0,1,0.5,1,0.5,0","3",""
"","html-keyboard-response","86","61897","0.0-124.0","3UOUJI6MTE0ZR3Z2ZY79ND0TTMUUXF","A36W9YOEXLJLBT","3HUR21WDDUBEMSLDIXZW1FAIHW8YX3","","null","<img src=""img/food3.png"" style=""width:200px; border:14px solid green;"">","null","","","","","","","","","",""
"","image-keyboard-response","87","62252","0.0-126.0","3UOUJI6MTE0ZR3Z2ZY79ND0TTMUUXF","A36W9YOEXLJLBT","3HUR21WDDUBEMSLDIXZW1FAIHW8YX3","","353.5","img/food1.png","75","354.09999999962747","2","1","false","3","2","1,0.5,0,1,0.5,0,0.5,0,1","0,1,0.5,0,1,0.5,1,0.5,0","3",""
"","html-keyboard-response","88","62554","0.0-127.0","3UOUJI6MTE0ZR3Z2ZY79ND0TTMUUXF","A36W9YOEXLJLBT","3HUR21WDDUBEMSLDIXZW1FAIHW8YX3","","null","<img src=""img/food1.png"" style=""width:200px; border:14px solid green;"">","null","","","","","","","","","",""
"","image-keyboard-response","89","62763","0.0-129.0","3UOUJI6MTE0ZR3Z2ZY79ND0TTMUUXF","A36W9YOEXLJLBT","3HUR21WDDUBEMSLDIXZW1FAIHW8YX3","","208.19999999925494","img/food3.png","75","208.7000000011176","2","1","false","2","2","1,0.5,0,1,0.5,0,0.5,0,1","0,1,0.5,0,1,0.5,1,0.5,0","3",""
"","html-keyboard-response","90","63064","0.0-130.0","3UOUJI6MTE0ZR3Z2ZY79ND0TTMUUXF","A36W9YOEXLJLBT","3HUR21WDDUBEMSLDIXZW1FAIHW8YX3","","null","<img src=""img/food3.png"" style=""width:200px; border:14px solid green;"">","null","","","","","","","","","",""
"","image-keyboard-response","91","63244","0.0-132.0","3UOUJI6MTE0ZR3Z2ZY79ND0TTMUUXF","A36W9YOEXLJLBT","3HUR21WDDUBEMSLDIXZW1FAIHW8YX3","","178.69999999925494","img/food1.png","75","179.30000000074506","2","1","false","3","2","1,0.5,0,1,0.5,0,0.5,0,1","0,1,0.5,0,1,0.5,1,0.5,0","3",""
"","html-keyboard-response","92","63545","0.0-133.0","3UOUJI6MTE0ZR3Z2ZY79ND0TTMUUXF","A36W9YOEXLJLBT","3HUR21WDDUBEMSLDIXZW1FAIHW8YX3","","null","<img src=""img/food1.png"" style=""width:200px; border:14px solid green;"">","null","","","","","","","","","",""
"","image-keyboard-response","93","63692","0.0-135.0","3UOUJI6MTE0ZR3Z2ZY79ND0TTMUUXF","A36W9YOEXLJLBT","3HUR21WDDUBEMSLDIXZW1FAIHW8YX3","","145.80000000074506","img/food1.png","75","146.5","2","0","false","3","2","1,0.5,0,1,0.5,0,0.5,0,1","0,1,0.5,0,1,0.5,1,0.5,0","3",""
"","html-keyboard-response","94","64004","0.0-136.0","3UOUJI6MTE0ZR3Z2ZY79ND0TTMUUXF","A36W9YOEXLJLBT","3HUR21WDDUBEMSLDIXZW1FAIHW8YX3","","null","<img src=""img/food1.png"" style=""width:200px;border:14px solid red;"">","null","","","","","","","","","",""
"","image-keyboard-response","95","64156","0.0-138.0","3UOUJI6MTE0ZR3Z2ZY79ND0TTMUUXF","A36W9YOEXLJLBT","3HUR21WDDUBEMSLDIXZW1FAIHW8YX3","","151.59999999962747","img/food4.png","75","152.30000000074506","2","1","false","1","2","1,0.5,0,1,0.5,0,0.5,0,1","0,1,0.5,0,1,0.5,1,0.5,0","3",""
"","html-keyboard-response","96","64458","0.0-139.0","3UOUJI6MTE0ZR3Z2ZY79ND0TTMUUXF","A36W9YOEXLJLBT","3HUR21WDDUBEMSLDIXZW1FAIHW8YX3","","null","<img src=""img/food4.png"" style=""width:200px; border:14px solid green;"">","null","","","","","","","","","",""
"","image-keyboard-response","97","64668","0.0-141.0","3UOUJI6MTE0ZR3Z2ZY79ND0TTMUUXF","A36W9YOEXLJLBT","3HUR21WDDUBEMSLDIXZW1FAIHW8YX3","","209.09999999962747","img/food1.png","75","209.59999999962747","2","0","false","3","2","1,0.5,0,1,0.5,0,0.5,0,1","0,1,0.5,0,1,0.5,1,0.5,0","3",""
"","html-keyboard-response","98","64970","0.0-142.0","3UOUJI6MTE0ZR3Z2ZY79ND0TTMUUXF","A36W9YOEXLJLBT","3HUR21WDDUBEMSLDIXZW1FAIHW8YX3","","null","<img src=""img/food1.png"" style=""width:200px;border:14px solid red;"">","null","","","","","","","","","",""
"","image-keyboard-response","99","65260","0.0-144.0","3UOUJI6MTE0ZR3Z2ZY79ND0TTMUUXF","A36W9YOEXLJLBT","3HUR21WDDUBEMSLDIXZW1FAIHW8YX3","","288.80000000074506","img/food3.png","75","289.2999999988824","2","1","false","2","2","1,0.5,0,1,0.5,0,0.5,0,1","0,1,0.5,0,1,0.5,1,0.5,0","3",""
"","html-keyboard-response","100","65562","0.0-145.0","3UOUJI6MTE0ZR3Z2ZY79ND0TTMUUXF","A36W9YOEXLJLBT","3HUR21WDDUBEMSLDIXZW1FAIHW8YX3","","null","<img src=""img/food3.png"" style=""width:200px; border:14px solid green;"">","null","","","","","","","","","",""
"","image-keyboard-response","101","65676","0.0-147.0","3UOUJI6MTE0ZR3Z2ZY79ND0TTMUUXF","A36W9YOEXLJLBT","3HUR21WDDUBEMSLDIXZW1FAIHW8YX3","","113.5","img/food1.png","75","114","2","1","false","3","2","1,0.5,0,1,0.5,0,0.5,0,1","0,1,0.5,0,1,0.5,1,0.5,0","3",""
"","html-keyboard-response","102","65977","0.0-148.0","3UOUJI6MTE0ZR3Z2ZY79ND0TTMUUXF","A36W9YOEXLJLBT","3HUR21WDDUBEMSLDIXZW1FAIHW8YX3","","null","<img src=""img/food1.png"" style=""width:200px; border:14px solid green;"">","null","","","","","","","","","",""
"","image-keyboard-response","103","66091","0.0-150.0","3UOUJI6MTE0ZR3Z2ZY79ND0TTMUUXF","A36W9YOEXLJLBT","3HUR21WDDUBEMSLDIXZW1FAIHW8YX3","","113.30000000074506","img/food4.png","75","113.59999999962747","2","1","false","1","2","1,0.5,0,1,0.5,0,0.5,0,1","0,1,0.5,0,1,0.5,1,0.5,0","3",""
"","html-keyboard-response","104","66392","0.0-151.0","3UOUJI6MTE0ZR3Z2ZY79ND0TTMUUXF","A36W9YOEXLJLBT","3HUR21WDDUBEMSLDIXZW1FAIHW8YX3","","null","<img src=""img/food4.png"" style=""width:200px; border:14px solid green;"">","null","","","","","","","","","",""
"","image-keyboard-response","105","66603","0.0-153.0","3UOUJI6MTE0ZR3Z2ZY79ND0TTMUUXF","A36W9YOEXLJLBT","3HUR21WDDUBEMSLDIXZW1FAIHW8YX3","","209.69999999925494","img/food1.png","75","210.30000000074506","2","0","false","3","2","1,0.5,0,1,0.5,0,0.5,0,1","0,1,0.5,0,1,0.5,1,0.5,0","3",""
"","html-keyboard-response","106","66904","0.0-154.0","3UOUJI6MTE0ZR3Z2ZY79ND0TTMUUXF","A36W9YOEXLJLBT","3HUR21WDDUBEMSLDIXZW1FAIHW8YX3","","null","<img src=""img/food1.png"" style=""width:200px;border:14px solid red;"">","null","","","","","","","","","",""
"","image-keyboard-response","107","67098","0.0-156.0","3UOUJI6MTE0ZR3Z2ZY79ND0TTMUUXF","A36W9YOEXLJLBT","3HUR21WDDUBEMSLDIXZW1FAIHW8YX3","","193.40000000037253","img/food3.png","75","194.10000000149012","2","1","false","2","2","1,0.5,0,1,0.5,0,0.5,0,1","0,1,0.5,0,1,0.5,1,0.5,0","3",""
"","html-keyboard-response","108","67400","0.0-157.0","3UOUJI6MTE0ZR3Z2ZY79ND0TTMUUXF","A36W9YOEXLJLBT","3HUR21WDDUBEMSLDIXZW1FAIHW8YX3","","null","<img src=""img/food3.png"" style=""width:200px; border:14px solid green;"">","null","","","","","","","","","",""
"","image-keyboard-response","109","67530","0.0-159.0","3UOUJI6MTE0ZR3Z2ZY79ND0TTMUUXF","A36W9YOEXLJLBT","3HUR21WDDUBEMSLDIXZW1FAIHW8YX3","","130","img/food3.png","74","130.60000000149012","1","0","false","2","2","1,0.5,0,1,0.5,0,0.5,0,1","0,1,0.5,0,1,0.5,1,0.5,0","3",""
"","html-keyboard-response","110","67833","0.0-160.0","3UOUJI6MTE0ZR3Z2ZY79ND0TTMUUXF","A36W9YOEXLJLBT","3HUR21WDDUBEMSLDIXZW1FAIHW8YX3","","null","<img src=""img/food3.png"" style=""width:200px;border:14px solid red;"">","null","","","","","","","","","",""
"","image-keyboard-response","111","68138","0.0-162.0","3UOUJI6MTE0ZR3Z2ZY79ND0TTMUUXF","A36W9YOEXLJLBT","3HUR21WDDUBEMSLDIXZW1FAIHW8YX3","","304.80000000074506","img/food3.png","75","305.3999999985099","2","1","false","2","2","1,0.5,0,1,0.5,0,0.5,0,1","0,1,0.5,0,1,0.5,1,0.5,0","3",""
"","html-keyboard-response","112","68440","0.0-163.0","3UOUJI6MTE0ZR3Z2ZY79ND0TTMUUXF","A36W9YOEXLJLBT","3HUR21WDDUBEMSLDIXZW1FAIHW8YX3","","null","<img src=""img/food3.png"" style=""width:200px; border:14px solid green;"">","null","","","","","","","","","",""
"","image-keyboard-response","113","68602","0.0-165.0","3UOUJI6MTE0ZR3Z2ZY79ND0TTMUUXF","A36W9YOEXLJLBT","3HUR21WDDUBEMSLDIXZW1FAIHW8YX3","","162","img/food4.png","75","162.59999999962747","2","1","false","1","2","1,0.5,0,1,0.5,0,0.5,0,1","0,1,0.5,0,1,0.5,1,0.5,0","3",""
"","html-keyboard-response","114","68904","0.0-166.0","3UOUJI6MTE0ZR3Z2ZY79ND0TTMUUXF","A36W9YOEXLJLBT","3HUR21WDDUBEMSLDIXZW1FAIHW8YX3","","null","<img src=""img/food4.png"" style=""width:200px; border:14px solid green;"">","null","","","","","","","","","",""
"","image-keyboard-response","115","69033","0.0-168.0","3UOUJI6MTE0ZR3Z2ZY79ND0TTMUUXF","A36W9YOEXLJLBT","3HUR21WDDUBEMSLDIXZW1FAIHW8YX3","","128.2999999988824","img/food3.png","76","129.09999999962747","3","1","false","2","2","1,0.5,0,1,0.5,0,0.5,0,1","0,1,0.5,0,1,0.5,1,0.5,0","3",""
"","html-keyboard-response","116","69335","0.0-169.0","3UOUJI6MTE0ZR3Z2ZY79ND0TTMUUXF","A36W9YOEXLJLBT","3HUR21WDDUBEMSLDIXZW1FAIHW8YX3","","null","<img src=""img/food3.png"" style=""width:200px; border:14px solid green;"">","null","","","","","","","","","",""
"","image-keyboard-response","117","69402","0.0-171.0","3UOUJI6MTE0ZR3Z2ZY79ND0TTMUUXF","A36W9YOEXLJLBT","3HUR21WDDUBEMSLDIXZW1FAIHW8YX3","","66.39999999850988","img/food4.png","75","66.90000000037253","2","1","false","1","2","1,0.5,0,1,0.5,0,0.5,0,1","0,1,0.5,0,1,0.5,1,0.5,0","3",""
"","html-keyboard-response","118","69703","0.0-172.0","3UOUJI6MTE0ZR3Z2ZY79ND0TTMUUXF","A36W9YOEXLJLBT","3HUR21WDDUBEMSLDIXZW1FAIHW8YX3","","null","<img src=""img/food4.png"" style=""width:200px; border:14px solid green;"">","null","","","","","","","","","",""
"","image-keyboard-response","119","69850","0.0-174.0","3UOUJI6MTE0ZR3Z2ZY79ND0TTMUUXF","A36W9YOEXLJLBT","3HUR21WDDUBEMSLDIXZW1FAIHW8YX3","","145.7000000011176","img/food1.png","76","146.40000000037253","3","0","false","3","2","1,0.5,0,1,0.5,0,0.5,0,1","0,1,0.5,0,1,0.5,1,0.5,0","3",""
"","html-keyboard-response","120","70150","0.0-175.0","3UOUJI6MTE0ZR3Z2ZY79ND0TTMUUXF","A36W9YOEXLJLBT","3HUR21WDDUBEMSLDIXZW1FAIHW8YX3","","null","<img src=""img/food1.png"" style=""width:200px;border:14px solid red;"">","null","","","","","","","","","",""
"","image-keyboard-response","121","70250","0.0-177.0","3UOUJI6MTE0ZR3Z2ZY79ND0TTMUUXF","A36W9YOEXLJLBT","3HUR21WDDUBEMSLDIXZW1FAIHW8YX3","","98.59999999962747","img/food4.png","75","99.09999999962747","2","1","false","1","2","1,0.5,0,1,0.5,0,0.5,0,1","0,1,0.5,0,1,0.5,1,0.5,0","3",""
"","html-keyboard-response","122","70551","0.0-178.0","3UOUJI6MTE0ZR3Z2ZY79ND0TTMUUXF","A36W9YOEXLJLBT","3HUR21WDDUBEMSLDIXZW1FAIHW8YX3","","null","<img src=""img/food4.png"" style=""width:200px; border:14px solid green;"">","null","","","","","","","","","",""
"","image-keyboard-response","123","70649","0.0-180.0","3UOUJI6MTE0ZR3Z2ZY79ND0TTMUUXF","A36W9YOEXLJLBT","3HUR21WDDUBEMSLDIXZW1FAIHW8YX3","","97.89999999850988","img/food1.png","74","98.5","1","1","false","3","2","1,0.5,0,1,0.5,0,0.5,0,1","0,1,0.5,0,1,0.5,1,0.5,0","3",""
"","html-keyboard-response","124","70951","0.0-181.0","3UOUJI6MTE0ZR3Z2ZY79ND0TTMUUXF","A36W9YOEXLJLBT","3HUR21WDDUBEMSLDIXZW1FAIHW8YX3","","null","<img src=""img/food1.png"" style=""width:200px; border:14px solid green;"">","null","","","","","","","","","",""
"","image-keyboard-response","125","71049","0.0-183.0","3UOUJI6MTE0ZR3Z2ZY79ND0TTMUUXF","A36W9YOEXLJLBT","3HUR21WDDUBEMSLDIXZW1FAIHW8YX3","","98","img/food3.png","74","98.70000000111759","1","0","false","2","2","1,0.5,0,1,0.5,0,0.5,0,1","0,1,0.5,0,1,0.5,1,0.5,0","3",""
"","html-keyboard-response","126","71351","0.0-184.0","3UOUJI6MTE0ZR3Z2ZY79ND0TTMUUXF","A36W9YOEXLJLBT","3HUR21WDDUBEMSLDIXZW1FAIHW8YX3","","null","<img src=""img/food3.png"" style=""width:200px;border:14px solid red;"">","null","","","","","","","","","",""
"","image-keyboard-response","127","71434","0.0-186.0","3UOUJI6MTE0ZR3Z2ZY79ND0TTMUUXF","A36W9YOEXLJLBT","3HUR21WDDUBEMSLDIXZW1FAIHW8YX3","","82.69999999925494","img/food3.png","75","83.10000000149012","2","1","false","2","2","1,0.5,0,1,0.5,0,0.5,0,1","0,1,0.5,0,1,0.5,1,0.5,0","3",""
"","html-keyboard-response","128","71736","0.0-187.0","3UOUJI6MTE0ZR3Z2ZY79ND0TTMUUXF","A36W9YOEXLJLBT","3HUR21WDDUBEMSLDIXZW1FAIHW8YX3","","null","<img src=""img/food3.png"" style=""width:200px; border:14px solid green;"">","null","","","","","","","","","",""
"","image-keyboard-response","129","71897","0.0-189.0","3UOUJI6MTE0ZR3Z2ZY79ND0TTMUUXF","A36W9YOEXLJLBT","3HUR21WDDUBEMSLDIXZW1FAIHW8YX3","","160.09999999962747","img/food3.png","75","160.7999999988824","2","1","false","2","2","1,0.5,0,1,0.5,0,0.5,0,1","0,1,0.5,0,1,0.5,1,0.5,0","3",""
"","html-keyboard-response","130","72207","0.0-190.0","3UOUJI6MTE0ZR3Z2ZY79ND0TTMUUXF","A36W9YOEXLJLBT","3HUR21WDDUBEMSLDIXZW1FAIHW8YX3","","null","<img src=""img/food3.png"" style=""width:200px; border:14px solid green;"">","null","","","","","","","","","",""
"","image-keyboard-response","131","72282","0.0-192.0","3UOUJI6MTE0ZR3Z2ZY79ND0TTMUUXF","A36W9YOEXLJLBT","3HUR21WDDUBEMSLDIXZW1FAIHW8YX3","","74.30000000074506","img/food1.png","76","74.79999999888241","3","0","false","3","2","1,0.5,0,1,0.5,0,0.5,0,1","0,1,0.5,0,1,0.5,1,0.5,0","3",""
"","html-keyboard-response","132","72596","0.0-193.0","3UOUJI6MTE0ZR3Z2ZY79ND0TTMUUXF","A36W9YOEXLJLBT","3HUR21WDDUBEMSLDIXZW1FAIHW8YX3","","null","<img src=""img/food1.png"" style=""width:200px;border:14px solid red;"">","null","","","","","","","","","",""
"","image-keyboard-response","133","72810","0.0-195.0","3UOUJI6MTE0ZR3Z2ZY79ND0TTMUUXF","A36W9YOEXLJLBT","3HUR21WDDUBEMSLDIXZW1FAIHW8YX3","","213","img/food1.png","74","213.60000000149012","1","1","false","3","2","1,0.5,0,1,0.5,0,0.5,0,1","0,1,0.5,0,1,0.5,1,0.5,0","3",""
"","html-keyboard-response","134","73111","0.0-196.0","3UOUJI6MTE0ZR3Z2ZY79ND0TTMUUXF","A36W9YOEXLJLBT","3HUR21WDDUBEMSLDIXZW1FAIHW8YX3","","null","<img src=""img/food1.png"" style=""width:200px; border:14px solid green;"">","null","","","","","","","","","",""
"","image-keyboard-response","135","73305","0.0-198.0","3UOUJI6MTE0ZR3Z2ZY79ND0TTMUUXF","A36W9YOEXLJLBT","3HUR21WDDUBEMSLDIXZW1FAIHW8YX3","","193.2999999988824","img/food4.png","74","193.7000000011176","1","0","false","1","2","1,0.5,0,1,0.5,0,0.5,0,1","0,1,0.5,0,1,0.5,1,0.5,0","3",""
"","html-keyboard-response","136","73615","0.0-199.0","3UOUJI6MTE0ZR3Z2ZY79ND0TTMUUXF","A36W9YOEXLJLBT","3HUR21WDDUBEMSLDIXZW1FAIHW8YX3","","null","<img src=""img/food4.png"" style=""width:200px;border:14px solid red;"">","null","","","","","","","","","",""
"","image-keyboard-response","137","73736","0.0-201.0","3UOUJI6MTE0ZR3Z2ZY79ND0TTMUUXF","A36W9YOEXLJLBT","3HUR21WDDUBEMSLDIXZW1FAIHW8YX3","","120.80000000074506","img/food1.png","75","121.29999999888241","2","1","false","3","2","1,0.5,0,1,0.5,0,0.5,0,1","0,1,0.5,0,1,0.5,1,0.5,0","3",""
"","html-keyboard-response","138","74038","0.0-202.0","3UOUJI6MTE0ZR3Z2ZY79ND0TTMUUXF","A36W9YOEXLJLBT","3HUR21WDDUBEMSLDIXZW1FAIHW8YX3","","null","<img src=""img/food1.png"" style=""width:200px; border:14px solid green;"">","null","","","","","","","","","",""
"","image-keyboard-response","139","74104","0.0-204.0","3UOUJI6MTE0ZR3Z2ZY79ND0TTMUUXF","A36W9YOEXLJLBT","3HUR21WDDUBEMSLDIXZW1FAIHW8YX3","","65.90000000037253","img/food1.png","75","66.5","2","0","false","3","2","1,0.5,0,1,0.5,0,0.5,0,1","0,1,0.5,0,1,0.5,1,0.5,0","3",""
"","html-keyboard-response","140","74405","0.0-205.0","3UOUJI6MTE0ZR3Z2ZY79ND0TTMUUXF","A36W9YOEXLJLBT","3HUR21WDDUBEMSLDIXZW1FAIHW8YX3","","null","<img src=""img/food1.png"" style=""width:200px;border:14px solid red;"">","null","","","","","","","","","",""
"","image-keyboard-response","141","74535","0.0-207.0","3UOUJI6MTE0ZR3Z2ZY79ND0TTMUUXF","A36W9YOEXLJLBT","3HUR21WDDUBEMSLDIXZW1FAIHW8YX3","","129.2000000011176","img/food1.png","74","130","1","1","false","3","2","1,0.5,0,1,0.5,0,0.5,0,1","0,1,0.5,0,1,0.5,1,0.5,0","3",""
"","html-keyboard-response","142","74837","0.0-208.0","3UOUJI6MTE0ZR3Z2ZY79ND0TTMUUXF","A36W9YOEXLJLBT","3HUR21WDDUBEMSLDIXZW1FAIHW8YX3","","null","<img src=""img/food1.png"" style=""width:200px; border:14px solid green;"">","null","","","","","","","","","",""
"","image-keyboard-response","143","74950","0.0-210.0","3UOUJI6MTE0ZR3Z2ZY79ND0TTMUUXF","A36W9YOEXLJLBT","3HUR21WDDUBEMSLDIXZW1FAIHW8YX3","","112.80000000074506","img/food4.png","75","113.30000000074506","2","1","false","1","2","1,0.5,0,1,0.5,0,0.5,0,1","0,1,0.5,0,1,0.5,1,0.5,0","3",""
"","html-keyboard-response","144","75252","0.0-211.0","3UOUJI6MTE0ZR3Z2ZY79ND0TTMUUXF","A36W9YOEXLJLBT","3HUR21WDDUBEMSLDIXZW1FAIHW8YX3","","null","<img src=""img/food4.png"" style=""width:200px; border:14px solid green;"">","null","","","","","","","","","",""
"","image-keyboard-response","145","75463","0.0-213.0","3UOUJI6MTE0ZR3Z2ZY79ND0TTMUUXF","A36W9YOEXLJLBT","3HUR21WDDUBEMSLDIXZW1FAIHW8YX3","","209.80000000074506","img/food1.png","75","210.40000000037253","2","1","false","3","2","1,0.5,0,1,0.5,0,0.5,0,1","0,1,0.5,0,1,0.5,1,0.5,0","3",""
"","html-keyboard-response","146","75764","0.0-214.0","3UOUJI6MTE0ZR3Z2ZY79ND0TTMUUXF","A36W9YOEXLJLBT","3HUR21WDDUBEMSLDIXZW1FAIHW8YX3","","null","<img src=""img/food1.png"" style=""width:200px; border:14px solid green;"">","null","","","","","","","","","",""
"","image-keyboard-response","147","75893","0.0-216.0","3UOUJI6MTE0ZR3Z2ZY79ND0TTMUUXF","A36W9YOEXLJLBT","3HUR21WDDUBEMSLDIXZW1FAIHW8YX3","","128.80000000074506","img/food4.png","75","129.30000000074506","2","1","false","1","2","1,0.5,0,1,0.5,0,0.5,0,1","0,1,0.5,0,1,0.5,1,0.5,0","3",""
"","html-keyboard-response","148","76194","0.0-217.0","3UOUJI6MTE0ZR3Z2ZY79ND0TTMUUXF","A36W9YOEXLJLBT","3HUR21WDDUBEMSLDIXZW1FAIHW8YX3","","null","<img src=""img/food4.png"" style=""width:200px; border:14px solid green;"">","null","","","","","","","","","",""
"","image-keyboard-response","149","76261","0.0-219.0","3UOUJI6MTE0ZR3Z2ZY79ND0TTMUUXF","A36W9YOEXLJLBT","3HUR21WDDUBEMSLDIXZW1FAIHW8YX3","","65.90000000037253","img/food3.png","74","66.5","1","0","false","2","2","1,0.5,0,1,0.5,0,0.5,0,1","0,1,0.5,0,1,0.5,1,0.5,0","3",""
"","html-keyboard-response","150","76563","0.0-220.0","3UOUJI6MTE0ZR3Z2ZY79ND0TTMUUXF","A36W9YOEXLJLBT","3HUR21WDDUBEMSLDIXZW1FAIHW8YX3","","null","<img src=""img/food3.png"" style=""width:200px;border:14px solid red;"">","null","","","","","","","","","",""
"","image-keyboard-response","151","76660","0.0-222.0","3UOUJI6MTE0ZR3Z2ZY79ND0TTMUUXF","A36W9YOEXLJLBT","3HUR21WDDUBEMSLDIXZW1FAIHW8YX3","","97","img/food3.png","75","97.69999999925494","2","1","false","2","2","1,0.5,0,1,0.5,0,0.5,0,1","0,1,0.5,0,1,0.5,1,0.5,0","3",""
"","html-keyboard-response","152","76962","0.0-223.0","3UOUJI6MTE0ZR3Z2ZY79ND0TTMUUXF","A36W9YOEXLJLBT","3HUR21WDDUBEMSLDIXZW1FAIHW8YX3","","null","<img src=""img/food3.png"" style=""width:200px; border:14px solid green;"">","null","","","","","","","","","",""
"","image-keyboard-response","153","77075","0.0-225.0","3UOUJI6MTE0ZR3Z2ZY79ND0TTMUUXF","A36W9YOEXLJLBT","3HUR21WDDUBEMSLDIXZW1FAIHW8YX3","","113.09999999962747","img/food4.png","75","113.5","2","1","false","1","2","1,0.5,0,1,0.5,0,0.5,0,1","0,1,0.5,0,1,0.5,1,0.5,0","3",""
"","html-keyboard-response","154","77377","0.0-226.0","3UOUJI6MTE0ZR3Z2ZY79ND0TTMUUXF","A36W9YOEXLJLBT","3HUR21WDDUBEMSLDIXZW1FAIHW8YX3","","null","<img src=""img/food4.png"" style=""width:200px; border:14px solid green;"">","null","","","","","","","","","",""
"","image-keyboard-response","155","77491","0.0-228.0","3UOUJI6MTE0ZR3Z2ZY79ND0TTMUUXF","A36W9YOEXLJLBT","3HUR21WDDUBEMSLDIXZW1FAIHW8YX3","","113.89999999850988","img/food3.png","76","114.40000000037253","3","0","false","2","2","1,0.5,0,1,0.5,0,0.5,0,1","0,1,0.5,0,1,0.5,1,0.5,0","3",""
"","html-keyboard-response","156","77793","0.0-229.0","3UOUJI6MTE0ZR3Z2ZY79ND0TTMUUXF","A36W9YOEXLJLBT","3HUR21WDDUBEMSLDIXZW1FAIHW8YX3","","null","<img src=""img/food3.png"" style=""width:200px;border:14px solid red;"">","null","","","","","","","","","",""
"","image-keyboard-response","157","77891","0.0-231.0","3UOUJI6MTE0ZR3Z2ZY79ND0TTMUUXF","A36W9YOEXLJLBT","3HUR21WDDUBEMSLDIXZW1FAIHW8YX3","","96.59999999962747","img/food4.png","75","97.09999999962747","2","1","false","1","2","1,0.5,0,1,0.5,0,0.5,0,1","0,1,0.5,0,1,0.5,1,0.5,0","3",""
"","html-keyboard-response","158","78193","0.0-232.0","3UOUJI6MTE0ZR3Z2ZY79ND0TTMUUXF","A36W9YOEXLJLBT","3HUR21WDDUBEMSLDIXZW1FAIHW8YX3","","null","<img src=""img/food4.png"" style=""width:200px; border:14px solid green;"">","null","","","","","","","","","",""
"","image-keyboard-response","159","78355","0.0-234.0","3UOUJI6MTE0ZR3Z2ZY79ND0TTMUUXF","A36W9YOEXLJLBT","3HUR21WDDUBEMSLDIXZW1FAIHW8YX3","","161.30000000074506","img/food1.png","75","161.69999999925494","2","1","false","3","2","1,0.5,0,1,0.5,0,0.5,0,1","0,1,0.5,0,1,0.5,1,0.5,0","3",""
"","html-keyboard-response","160","78657","0.0-235.0","3UOUJI6MTE0ZR3Z2ZY79ND0TTMUUXF","A36W9YOEXLJLBT","3HUR21WDDUBEMSLDIXZW1FAIHW8YX3","","null","<img src=""img/food1.png"" style=""width:200px; border:14px solid green;"">","null","","","","","","","","","",""
"","image-keyboard-response","161","78691","0.0-237.0","3UOUJI6MTE0ZR3Z2ZY79ND0TTMUUXF","A36W9YOEXLJLBT","3HUR21WDDUBEMSLDIXZW1FAIHW8YX3","","33.5","img/food4.png","74","34.19999999925494","1","0","false","1","2","1,0.5,0,1,0.5,0,0.5,0,1","0,1,0.5,0,1,0.5,1,0.5,0","3",""
"","html-keyboard-response","162","78993","0.0-238.0","3UOUJI6MTE0ZR3Z2ZY79ND0TTMUUXF","A36W9YOEXLJLBT","3HUR21WDDUBEMSLDIXZW1FAIHW8YX3","","null","<img src=""img/food4.png"" style=""width:200px;border:14px solid red;"">","null","","","","","","","","","",""
"","image-keyboard-response","163","79202","0.0-240.0","3UOUJI6MTE0ZR3Z2ZY79ND0TTMUUXF","A36W9YOEXLJLBT","3HUR21WDDUBEMSLDIXZW1FAIHW8YX3","","207.80000000074506","img/food4.png","75","208.5","2","1","false","1","2","1,0.5,0,1,0.5,0,0.5,0,1","0,1,0.5,0,1,0.5,1,0.5,0","3",""
"","html-keyboard-response","164","79503","0.0-241.0","3UOUJI6MTE0ZR3Z2ZY79ND0TTMUUXF","A36W9YOEXLJLBT","3HUR21WDDUBEMSLDIXZW1FAIHW8YX3","","null","<img src=""img/food4.png"" style=""width:200px; border:14px solid green;"">","null","","","","","","","","","",""
"","image-keyboard-response","165","79698","0.0-243.0","3UOUJI6MTE0ZR3Z2ZY79ND0TTMUUXF","A36W9YOEXLJLBT","3HUR21WDDUBEMSLDIXZW1FAIHW8YX3","","193.7000000011176","img/food3.png","75","194.40000000037253","2","1","false","2","2","1,0.5,0,1,0.5,0,0.5,0,1","0,1,0.5,0,1,0.5,1,0.5,0","3",""
"","html-keyboard-response","166","79998","0.0-244.0","3UOUJI6MTE0ZR3Z2ZY79ND0TTMUUXF","A36W9YOEXLJLBT","3HUR21WDDUBEMSLDIXZW1FAIHW8YX3","","null","<img src=""img/food3.png"" style=""width:200px; border:14px solid green;"">","null","","","","","","","","","",""
"","image-keyboard-response","167","80194","0.0-246.0","3UOUJI6MTE0ZR3Z2ZY79ND0TTMUUXF","A36W9YOEXLJLBT","3HUR21WDDUBEMSLDIXZW1FAIHW8YX3","","194.5","img/food4.png","75","195","2","1","false","1","2","1,0.5,0,1,0.5,0,0.5,0,1","0,1,0.5,0,1,0.5,1,0.5,0","3",""
"","html-keyboard-response","168","80495","0.0-247.0","3UOUJI6MTE0ZR3Z2ZY79ND0TTMUUXF","A36W9YOEXLJLBT","3HUR21WDDUBEMSLDIXZW1FAIHW8YX3","","null","<img src=""img/food4.png"" style=""width:200px; border:14px solid green;"">","null","","","","","","","","","",""
"","image-keyboard-response","169","80594","0.0-249.0","3UOUJI6MTE0ZR3Z2ZY79ND0TTMUUXF","A36W9YOEXLJLBT","3HUR21WDDUBEMSLDIXZW1FAIHW8YX3","","98.70000000111759","img/food3.png","75","99.29999999888241","2","1","false","2","2","1,0.5,0,1,0.5,0,0.5,0,1","0,1,0.5,0,1,0.5,1,0.5,0","3",""
"","html-keyboard-response","170","80896","0.0-250.0","3UOUJI6MTE0ZR3Z2ZY79ND0TTMUUXF","A36W9YOEXLJLBT","3HUR21WDDUBEMSLDIXZW1FAIHW8YX3","","null","<img src=""img/food3.png"" style=""width:200px; border:14px solid green;"">","null","","","","","","","","","",""
"","image-keyboard-response","171","81010","0.0-252.0","3UOUJI6MTE0ZR3Z2ZY79ND0TTMUUXF","A36W9YOEXLJLBT","3HUR21WDDUBEMSLDIXZW1FAIHW8YX3","","113.5","img/food3.png","75","114","2","1","false","2","2","1,0.5,0,1,0.5,0,0.5,0,1","0,1,0.5,0,1,0.5,1,0.5,0","3",""
"","html-keyboard-response","172","81311","0.0-253.0","3UOUJI6MTE0ZR3Z2ZY79ND0TTMUUXF","A36W9YOEXLJLBT","3HUR21WDDUBEMSLDIXZW1FAIHW8YX3","","null","<img src=""img/food3.png"" style=""width:200px; border:14px solid green;"">","null","","","","","","","","","",""
"","image-keyboard-response","173","81345","0.0-255.0","3UOUJI6MTE0ZR3Z2ZY79ND0TTMUUXF","A36W9YOEXLJLBT","3HUR21WDDUBEMSLDIXZW1FAIHW8YX3","","32.59999999962747","img/food4.png","75","33.09999999962747","2","1","false","1","2","1,0.5,0,1,0.5,0,0.5,0,1","0,1,0.5,0,1,0.5,1,0.5,0","3",""
"","html-keyboard-response","174","81646","0.0-256.0","3UOUJI6MTE0ZR3Z2ZY79ND0TTMUUXF","A36W9YOEXLJLBT","3HUR21WDDUBEMSLDIXZW1FAIHW8YX3","","null","<img src=""img/food4.png"" style=""width:200px; border:14px solid green;"">","null","","","","","","","","","",""
"","image-keyboard-response","175","81761","0.0-258.0","3UOUJI6MTE0ZR3Z2ZY79ND0TTMUUXF","A36W9YOEXLJLBT","3HUR21WDDUBEMSLDIXZW1FAIHW8YX3","","114","img/food1.png","75","114.59999999962747","2","1","false","3","2","1,0.5,0,1,0.5,0,0.5,0,1","0,1,0.5,0,1,0.5,1,0.5,0","3",""
"","html-keyboard-response","176","82063","0.0-259.0","3UOUJI6MTE0ZR3Z2ZY79ND0TTMUUXF","A36W9YOEXLJLBT","3HUR21WDDUBEMSLDIXZW1FAIHW8YX3","","null","<img src=""img/food1.png"" style=""width:200px; border:14px solid green;"">","null","","","","","","","","","",""
"","image-keyboard-response","177","82144","0.0-261.0","3UOUJI6MTE0ZR3Z2ZY79ND0TTMUUXF","A36W9YOEXLJLBT","3HUR21WDDUBEMSLDIXZW1FAIHW8YX3","","80.69999999925494","img/food4.png","75","81.30000000074506","2","1","false","1","2","1,0.5,0,1,0.5,0,0.5,0,1","0,1,0.5,0,1,0.5,1,0.5,0","3",""
"","html-keyboard-response","178","82445","0.0-262.0","3UOUJI6MTE0ZR3Z2ZY79ND0TTMUUXF","A36W9YOEXLJLBT","3HUR21WDDUBEMSLDIXZW1FAIHW8YX3","","null","<img src=""img/food4.png"" style=""width:200px; border:14px solid green;"">","null","","","","","","","","","",""
"","image-keyboard-response","179","82561","0.0-264.0","3UOUJI6MTE0ZR3Z2ZY79ND0TTMUUXF","A36W9YOEXLJLBT","3HUR21WDDUBEMSLDIXZW1FAIHW8YX3","","115.60000000149012","img/food3.png","75","116.30000000074506","2","1","false","2","2","1,0.5,0,1,0.5,0,0.5,0,1","0,1,0.5,0,1,0.5,1,0.5,0","3",""
"","html-keyboard-response","180","82863","0.0-265.0","3UOUJI6MTE0ZR3Z2ZY79ND0TTMUUXF","A36W9YOEXLJLBT","3HUR21WDDUBEMSLDIXZW1FAIHW8YX3","","null","<img src=""img/food3.png"" style=""width:200px; border:14px solid green;"">","null","","","","","","","","","",""
"","image-keyboard-response","181","83315","0.0-267.0","3UOUJI6MTE0ZR3Z2ZY79ND0TTMUUXF","A36W9YOEXLJLBT","3HUR21WDDUBEMSLDIXZW1FAIHW8YX3","","451.19999999925494","img/food1.png","76","451.69999999925494","3","0","false","3","2","1,0.5,0,1,0.5,0,0.5,0,1","0,1,0.5,0,1,0.5,1,0.5,0","3",""
"","html-keyboard-response","182","83617","0.0-268.0","3UOUJI6MTE0ZR3Z2ZY79ND0TTMUUXF","A36W9YOEXLJLBT","3HUR21WDDUBEMSLDIXZW1FAIHW8YX3","","null","<img src=""img/food1.png"" style=""width:200px;border:14px solid red;"">","null","","","","","","","","","",""
"","image-keyboard-response","183","83858","0.0-270.0","3UOUJI6MTE0ZR3Z2ZY79ND0TTMUUXF","A36W9YOEXLJLBT","3HUR21WDDUBEMSLDIXZW1FAIHW8YX3","","240.89999999850988","img/food1.png","75","241.40000000037253","2","0","false","3","2","1,0.5,0,1,0.5,0,0.5,0,1","0,1,0.5,0,1,0.5,1,0.5,0","3",""
"","html-keyboard-response","184","84160","0.0-271.0","3UOUJI6MTE0ZR3Z2ZY79ND0TTMUUXF","A36W9YOEXLJLBT","3HUR21WDDUBEMSLDIXZW1FAIHW8YX3","","null","<img src=""img/food1.png"" style=""width:200px;border:14px solid red;"">","null","","","","","","","","","",""
"","instructions","185","93745","0.0-273.0","3UOUJI6MTE0ZR3Z2ZY79ND0TTMUUXF","A36W9YOEXLJLBT","3HUR21WDDUBEMSLDIXZW1FAIHW8YX3","[{""page_index"":0,""viewing_time"":7883},{""page_index"":1,""viewing_time"":1701.199999999255}]","9584.400000000373","","","","","","","","","","","",""
"","image-keyboard-response","186","94625","0.0-274.0","3UOUJI6MTE0ZR3Z2ZY79ND0TTMUUXF","A36W9YOEXLJLBT","3HUR21WDDUBEMSLDIXZW1FAIHW8YX3","","879.4000000003725","img/food6.png","76","880.1000000014901","3","1","","3","1","1,0.5,0,1,0.5,0,0.5,0,1","1,0.5,0,1,0.5,0,0.5,0,1","1",""
"","html-keyboard-response","187","94926","0.0-275.0","3UOUJI6MTE0ZR3Z2ZY79ND0TTMUUXF","A36W9YOEXLJLBT","3HUR21WDDUBEMSLDIXZW1FAIHW8YX3","","null","<img src=""img/food6.png"" style=""width:200px; border:14px solid green;"">","null","","","","","","","","","",""
"","image-keyboard-response","188","95263","0.0-276.0","3UOUJI6MTE0ZR3Z2ZY79ND0TTMUUXF","A36W9YOEXLJLBT","3HUR21WDDUBEMSLDIXZW1FAIHW8YX3","","336.6000000014901","img/food6.png","76","337.09999999962747","3","1","","3","1","1,0.5,0,1,0.5,0,0.5,0,1","1,0.5,0,1,0.5,0,0.5,0,1","1",""
"","html-keyboard-response","189","95565","0.0-277.0","3UOUJI6MTE0ZR3Z2ZY79ND0TTMUUXF","A36W9YOEXLJLBT","3HUR21WDDUBEMSLDIXZW1FAIHW8YX3","","null","<img src=""img/food6.png"" style=""width:200px; border:14px solid green;"">","null","","","","","","","","","",""
"","image-keyboard-response","190","96080","0.0-278.0","3UOUJI6MTE0ZR3Z2ZY79ND0TTMUUXF","A36W9YOEXLJLBT","3HUR21WDDUBEMSLDIXZW1FAIHW8YX3","","514.3999999985099","img/food2.png","75","515.0999999996275","2","0","","1","1","1,0.5,0,1,0.5,0,0.5,0,1","1,0.5,0,1,0.5,0,0.5,0,1","1",""
"","html-keyboard-response","191","96384","0.0-279.0","3UOUJI6MTE0ZR3Z2ZY79ND0TTMUUXF","A36W9YOEXLJLBT","3HUR21WDDUBEMSLDIXZW1FAIHW8YX3","","null","<img src=""img/food2.png"" style=""width:200px;border:14px solid red;"">","null","","","","","","","","","",""
"","image-keyboard-response","192","98143","0.0-280.0","3UOUJI6MTE0ZR3Z2ZY79ND0TTMUUXF","A36W9YOEXLJLBT","3HUR21WDDUBEMSLDIXZW1FAIHW8YX3","","1758.7000000011176","img/food2.png","74","1759.2999999988824","1","1","","1","1","1,0.5,0,1,0.5,0,0.5,0,1","1,0.5,0,1,0.5,0,0.5,0,1","1",""
"","html-keyboard-response","193","98446","0.0-281.0","3UOUJI6MTE0ZR3Z2ZY79ND0TTMUUXF","A36W9YOEXLJLBT","3HUR21WDDUBEMSLDIXZW1FAIHW8YX3","","null","<img src=""img/food2.png"" style=""width:200px; border:14px solid green;"">","null","","","","","","","","","",""
"","image-keyboard-response","194","98975","0.0-282.0","3UOUJI6MTE0ZR3Z2ZY79ND0TTMUUXF","A36W9YOEXLJLBT","3HUR21WDDUBEMSLDIXZW1FAIHW8YX3","","528.4000000003725","img/food2.png","74","529","1","1","","1","1","1,0.5,0,1,0.5,0,0.5,0,1","1,0.5,0,1,0.5,0,0.5,0,1","1",""
"","html-keyboard-response","195","99276","0.0-283.0","3UOUJI6MTE0ZR3Z2ZY79ND0TTMUUXF","A36W9YOEXLJLBT","3HUR21WDDUBEMSLDIXZW1FAIHW8YX3","","null","<img src=""img/food2.png"" style=""width:200px; border:14px solid green;"">","null","","","","","","","","","",""
"","image-keyboard-response","196","99775","0.0-284.0","3UOUJI6MTE0ZR3Z2ZY79ND0TTMUUXF","A36W9YOEXLJLBT","3HUR21WDDUBEMSLDIXZW1FAIHW8YX3","","498.19999999925494","img/food2.png","74","498.90000000037253","1","1","","1","1","1,0.5,0,1,0.5,0,0.5,0,1","1,0.5,0,1,0.5,0,0.5,0,1","1",""
"","html-keyboard-response","197","100078","0.0-285.0","3UOUJI6MTE0ZR3Z2ZY79ND0TTMUUXF","A36W9YOEXLJLBT","3HUR21WDDUBEMSLDIXZW1FAIHW8YX3","","null","<img src=""img/food2.png"" style=""width:200px; border:14px solid green;"">","null","","","","","","","","","",""
"","image-keyboard-response","198","100687","0.0-286.0","3UOUJI6MTE0ZR3Z2ZY79ND0TTMUUXF","A36W9YOEXLJLBT","3HUR21WDDUBEMSLDIXZW1FAIHW8YX3","","609","img/food6.png","76","609.5","3","1","","3","1","1,0.5,0,1,0.5,0,0.5,0,1","1,0.5,0,1,0.5,0,0.5,0,1","1",""
"","html-keyboard-response","199","100989","0.0-287.0","3UOUJI6MTE0ZR3Z2ZY79ND0TTMUUXF","A36W9YOEXLJLBT","3HUR21WDDUBEMSLDIXZW1FAIHW8YX3","","null","<img src=""img/food6.png"" style=""width:200px; border:14px solid green;"">","null","","","","","","","","","",""
"","image-keyboard-response","200","101600","0.0-288.0","3UOUJI6MTE0ZR3Z2ZY79ND0TTMUUXF","A36W9YOEXLJLBT","3HUR21WDDUBEMSLDIXZW1FAIHW8YX3","","611","img/food2.png","74","611.5","1","1","","1","1","1,0.5,0,1,0.5,0,0.5,0,1","1,0.5,0,1,0.5,0,0.5,0,1","1",""
"","html-keyboard-response","201","101901","0.0-289.0","3UOUJI6MTE0ZR3Z2ZY79ND0TTMUUXF","A36W9YOEXLJLBT","3HUR21WDDUBEMSLDIXZW1FAIHW8YX3","","null","<img src=""img/food2.png"" style=""width:200px; border:14px solid green;"">","null","","","","","","","","","",""
"","image-keyboard-response","202","102448","0.0-290.0","3UOUJI6MTE0ZR3Z2ZY79ND0TTMUUXF","A36W9YOEXLJLBT","3HUR21WDDUBEMSLDIXZW1FAIHW8YX3","","545.8000000007451","img/food5.png","75","546.2999999988824","2","1","","2","1","1,0.5,0,1,0.5,0,0.5,0,1","1,0.5,0,1,0.5,0,0.5,0,1","1",""
"","html-keyboard-response","203","102749","0.0-291.0","3UOUJI6MTE0ZR3Z2ZY79ND0TTMUUXF","A36W9YOEXLJLBT","3HUR21WDDUBEMSLDIXZW1FAIHW8YX3","","null","<img src=""img/food5.png"" style=""width:200px; border:14px solid green;"">","null","","","","","","","","","",""
"","image-keyboard-response","204","103087","0.0-292.0","3UOUJI6MTE0ZR3Z2ZY79ND0TTMUUXF","A36W9YOEXLJLBT","3HUR21WDDUBEMSLDIXZW1FAIHW8YX3","","336.90000000037253","img/food5.png","75","337.3999999985099","2","1","","2","1","1,0.5,0,1,0.5,0,0.5,0,1","1,0.5,0,1,0.5,0,0.5,0,1","1",""
"","html-keyboard-response","205","103389","0.0-293.0","3UOUJI6MTE0ZR3Z2ZY79ND0TTMUUXF","A36W9YOEXLJLBT","3HUR21WDDUBEMSLDIXZW1FAIHW8YX3","","null","<img src=""img/food5.png"" style=""width:200px; border:14px solid green;"">","null","","","","","","","","","",""
"","image-keyboard-response","206","103661","0.0-294.0","3UOUJI6MTE0ZR3Z2ZY79ND0TTMUUXF","A36W9YOEXLJLBT","3HUR21WDDUBEMSLDIXZW1FAIHW8YX3","","271.7000000011176","img/food5.png","75","272.19999999925494","2","0","","2","1","1,0.5,0,1,0.5,0,0.5,0,1","1,0.5,0,1,0.5,0,0.5,0,1","1",""
"","html-keyboard-response","207","103963","0.0-295.0","3UOUJI6MTE0ZR3Z2ZY79ND0TTMUUXF","A36W9YOEXLJLBT","3HUR21WDDUBEMSLDIXZW1FAIHW8YX3","","null","<img src=""img/food5.png"" style=""width:200px;border:14px solid red;"">","null","","","","","","","","","",""
"","image-keyboard-response","208","104846","0.0-296.0","3UOUJI6MTE0ZR3Z2ZY79ND0TTMUUXF","A36W9YOEXLJLBT","3HUR21WDDUBEMSLDIXZW1FAIHW8YX3","","882.9000000003725","img/food6.png","74","883.4000000003725","1","0","","3","1","1,0.5,0,1,0.5,0,0.5,0,1","1,0.5,0,1,0.5,0,0.5,0,1","1",""
"","html-keyboard-response","209","105148","0.0-297.0","3UOUJI6MTE0ZR3Z2ZY79ND0TTMUUXF","A36W9YOEXLJLBT","3HUR21WDDUBEMSLDIXZW1FAIHW8YX3","","null","<img src=""img/food6.png"" style=""width:200px;border:14px solid red;"">","null","","","","","","","","","",""
"","image-keyboard-response","210","106222","0.0-298.0","3UOUJI6MTE0ZR3Z2ZY79ND0TTMUUXF","A36W9YOEXLJLBT","3HUR21WDDUBEMSLDIXZW1FAIHW8YX3","","1073.0999999996275","img/food6.png","74","1073.7000000011176","1","0","","3","1","1,0.5,0,1,0.5,0,0.5,0,1","1,0.5,0,1,0.5,0,0.5,0,1","1",""
"","html-keyboard-response","211","106523","0.0-299.0","3UOUJI6MTE0ZR3Z2ZY79ND0TTMUUXF","A36W9YOEXLJLBT","3HUR21WDDUBEMSLDIXZW1FAIHW8YX3","","null","<img src=""img/food6.png"" style=""width:200px;border:14px solid red;"">","null","","","","","","","","","",""
"","image-keyboard-response","212","106717","0.0-300.0","3UOUJI6MTE0ZR3Z2ZY79ND0TTMUUXF","A36W9YOEXLJLBT","3HUR21WDDUBEMSLDIXZW1FAIHW8YX3","","193.80000000074506","img/food5.png","76","194.2999999988824","3","0","","2","1","1,0.5,0,1,0.5,0,0.5,0,1","1,0.5,0,1,0.5,0,0.5,0,1","1",""
"","html-keyboard-response","213","107019","0.0-301.0","3UOUJI6MTE0ZR3Z2ZY79ND0TTMUUXF","A36W9YOEXLJLBT","3HUR21WDDUBEMSLDIXZW1FAIHW8YX3","","null","<img src=""img/food5.png"" style=""width:200px;border:14px solid red;"">","null","","","","","","","","","",""
"","image-keyboard-response","214","107310","0.0-302.0","3UOUJI6MTE0ZR3Z2ZY79ND0TTMUUXF","A36W9YOEXLJLBT","3HUR21WDDUBEMSLDIXZW1FAIHW8YX3","","291.09999999962747","img/food5.png","75","291.5","2","0","","2","1","1,0.5,0,1,0.5,0,0.5,0,1","1,0.5,0,1,0.5,0,0.5,0,1","1",""
"","html-keyboard-response","215","107611","0.0-303.0","3UOUJI6MTE0ZR3Z2ZY79ND0TTMUUXF","A36W9YOEXLJLBT","3HUR21WDDUBEMSLDIXZW1FAIHW8YX3","","null","<img src=""img/food5.png"" style=""width:200px;border:14px solid red;"">","null","","","","","","","","","",""
"","image-keyboard-response","216","107773","0.0-304.0","3UOUJI6MTE0ZR3Z2ZY79ND0TTMUUXF","A36W9YOEXLJLBT","3HUR21WDDUBEMSLDIXZW1FAIHW8YX3","","160.7000000011176","img/food5.png","75","161.30000000074506","2","1","","2","1","1,0.5,0,1,0.5,0,0.5,0,1","1,0.5,0,1,0.5,0,0.5,0,1","1",""
"","html-keyboard-response","217","108074","0.0-305.0","3UOUJI6MTE0ZR3Z2ZY79ND0TTMUUXF","A36W9YOEXLJLBT","3HUR21WDDUBEMSLDIXZW1FAIHW8YX3","","null","<img src=""img/food5.png"" style=""width:200px; border:14px solid green;"">","null","","","","","","","","","",""
"","image-keyboard-response","218","108653","0.0-306.0","3UOUJI6MTE0ZR3Z2ZY79ND0TTMUUXF","A36W9YOEXLJLBT","3HUR21WDDUBEMSLDIXZW1FAIHW8YX3","","578.3000000007451","img/food2.png","76","578.7999999988824","3","0","","1","1","1,0.5,0,1,0.5,0,0.5,0,1","1,0.5,0,1,0.5,0,0.5,0,1","1",""
"","html-keyboard-response","219","108961","0.0-307.0","3UOUJI6MTE0ZR3Z2ZY79ND0TTMUUXF","A36W9YOEXLJLBT","3HUR21WDDUBEMSLDIXZW1FAIHW8YX3","","null","<img src=""img/food2.png"" style=""width:200px;border:14px solid red;"">","null","","","","","","","","","",""
"","image-keyboard-response","220","109244","0.0-308.0","3UOUJI6MTE0ZR3Z2ZY79ND0TTMUUXF","A36W9YOEXLJLBT","3HUR21WDDUBEMSLDIXZW1FAIHW8YX3","","281.80000000074506","img/food2.png","76","282.5","3","0","","1","1","1,0.5,0,1,0.5,0,0.5,0,1","1,0.5,0,1,0.5,0,0.5,0,1","1",""
"","html-keyboard-response","221","109545","0.0-309.0","3UOUJI6MTE0ZR3Z2ZY79ND0TTMUUXF","A36W9YOEXLJLBT","3HUR21WDDUBEMSLDIXZW1FAIHW8YX3","","null","<img src=""img/food2.png"" style=""width:200px;border:14px solid red;"">","null","","","","","","","","","",""
"","image-keyboard-response","222","110252","0.0-310.0","3UOUJI6MTE0ZR3Z2ZY79ND0TTMUUXF","A36W9YOEXLJLBT","3HUR21WDDUBEMSLDIXZW1FAIHW8YX3","","706.3999999985099","img/food6.png","75","706.8000000007451","2","0","","3","1","1,0.5,0,1,0.5,0,0.5,0,1","1,0.5,0,1,0.5,0,0.5,0,1","1",""
"","html-keyboard-response","223","110554","0.0-311.0","3UOUJI6MTE0ZR3Z2ZY79ND0TTMUUXF","A36W9YOEXLJLBT","3HUR21WDDUBEMSLDIXZW1FAIHW8YX3","","null","<img src=""img/food6.png"" style=""width:200px;border:14px solid red;"">","null","","","","","","","","","",""
"","image-keyboard-response","224","111148","0.0-312.0","3UOUJI6MTE0ZR3Z2ZY79ND0TTMUUXF","A36W9YOEXLJLBT","3HUR21WDDUBEMSLDIXZW1FAIHW8YX3","","593.5","img/food2.png","76","594.1000000014901","3","0","","1","1","1,0.5,0,1,0.5,0,0.5,0,1","1,0.5,0,1,0.5,0,0.5,0,1","1",""
"","html-keyboard-response","225","111449","0.0-313.0","3UOUJI6MTE0ZR3Z2ZY79ND0TTMUUXF","A36W9YOEXLJLBT","3HUR21WDDUBEMSLDIXZW1FAIHW8YX3","","null","<img src=""img/food2.png"" style=""width:200px;border:14px solid red;"">","null","","","","","","","","","",""
"","image-keyboard-response","226","113852","0.0-314.0","3UOUJI6MTE0ZR3Z2ZY79ND0TTMUUXF","A36W9YOEXLJLBT","3HUR21WDDUBEMSLDIXZW1FAIHW8YX3","","2402","img/food6.png","76","2402.5","3","1","","3","1","1,0.5,0,1,0.5,0,0.5,0,1","1,0.5,0,1,0.5,0,0.5,0,1","1",""
"","html-keyboard-response","227","114153","0.0-315.0","3UOUJI6MTE0ZR3Z2ZY79ND0TTMUUXF","A36W9YOEXLJLBT","3HUR21WDDUBEMSLDIXZW1FAIHW8YX3","","null","<img src=""img/food6.png"" style=""width:200px; border:14px solid green;"">","null","","","","","","","","","",""
"","image-keyboard-response","228","114908","0.0-316.0","3UOUJI6MTE0ZR3Z2ZY79ND0TTMUUXF","A36W9YOEXLJLBT","3HUR21WDDUBEMSLDIXZW1FAIHW8YX3","","753.7000000011176","img/food6.png","76","754.3000000007451","3","1","","3","1","1,0.5,0,1,0.5,0,0.5,0,1","1,0.5,0,1,0.5,0,0.5,0,1","1",""
"","html-keyboard-response","229","115209","0.0-317.0","3UOUJI6MTE0ZR3Z2ZY79ND0TTMUUXF","A36W9YOEXLJLBT","3HUR21WDDUBEMSLDIXZW1FAIHW8YX3","","null","<img src=""img/food6.png"" style=""width:200px; border:14px solid green;"">","null","","","","","","","","","",""
"","image-keyboard-response","230","116410","0.0-318.0","3UOUJI6MTE0ZR3Z2ZY79ND0TTMUUXF","A36W9YOEXLJLBT","3HUR21WDDUBEMSLDIXZW1FAIHW8YX3","","1200","img/food2.png","74","1200.699999999255","1","1","","1","1","1,0.5,0,1,0.5,0,0.5,0,1","1,0.5,0,1,0.5,0,0.5,0,1","1",""
"","html-keyboard-response","231","116711","0.0-319.0","3UOUJI6MTE0ZR3Z2ZY79ND0TTMUUXF","A36W9YOEXLJLBT","3HUR21WDDUBEMSLDIXZW1FAIHW8YX3","","null","<img src=""img/food2.png"" style=""width:200px; border:14px solid green;"">","null","","","","","","","","","",""
"","image-keyboard-response","232","117432","0.0-320.0","3UOUJI6MTE0ZR3Z2ZY79ND0TTMUUXF","A36W9YOEXLJLBT","3HUR21WDDUBEMSLDIXZW1FAIHW8YX3","","720.1999999992549","img/food6.png","76","720.9000000003725","3","1","","3","1","1,0.5,0,1,0.5,0,0.5,0,1","1,0.5,0,1,0.5,0,0.5,0,1","1",""
"","html-keyboard-response","233","117740","0.0-321.0","3UOUJI6MTE0ZR3Z2ZY79ND0TTMUUXF","A36W9YOEXLJLBT","3HUR21WDDUBEMSLDIXZW1FAIHW8YX3","","null","<img src=""img/food6.png"" style=""width:200px; border:14px solid green;"">","null","","","","","","","","","",""
"","image-keyboard-response","234","118327","0.0-322.0","3UOUJI6MTE0ZR3Z2ZY79ND0TTMUUXF","A36W9YOEXLJLBT","3HUR21WDDUBEMSLDIXZW1FAIHW8YX3","","586.7999999988824","img/food5.png","75","587.2000000011176","2","0","","2","1","1,0.5,0,1,0.5,0,0.5,0,1","1,0.5,0,1,0.5,0,0.5,0,1","1",""
"","html-keyboard-response","235","118629","0.0-323.0","3UOUJI6MTE0ZR3Z2ZY79ND0TTMUUXF","A36W9YOEXLJLBT","3HUR21WDDUBEMSLDIXZW1FAIHW8YX3","","null","<img src=""img/food5.png"" style=""width:200px;border:14px solid red;"">","null","","","","","","","","","",""
"","image-keyboard-response","236","119462","0.0-324.0","3UOUJI6MTE0ZR3Z2ZY79ND0TTMUUXF","A36W9YOEXLJLBT","3HUR21WDDUBEMSLDIXZW1FAIHW8YX3","","832.9000000003725","img/food2.png","74","833.5","1","1","","1","1","1,0.5,0,1,0.5,0,0.5,0,1","1,0.5,0,1,0.5,0,0.5,0,1","1",""
"","html-keyboard-response","237","119764","0.0-325.0","3UOUJI6MTE0ZR3Z2ZY79ND0TTMUUXF","A36W9YOEXLJLBT","3HUR21WDDUBEMSLDIXZW1FAIHW8YX3","","null","<img src=""img/food2.png"" style=""width:200px; border:14px solid green;"">","null","","","","","","","","","",""
"","image-keyboard-response","238","120406","0.0-326.0","3UOUJI6MTE0ZR3Z2ZY79ND0TTMUUXF","A36W9YOEXLJLBT","3HUR21WDDUBEMSLDIXZW1FAIHW8YX3","","640.9000000003725","img/food6.png","76","641.5","3","1","","3","1","1,0.5,0,1,0.5,0,0.5,0,1","1,0.5,0,1,0.5,0,0.5,0,1","1",""
"","html-keyboard-response","239","120707","0.0-327.0","3UOUJI6MTE0ZR3Z2ZY79ND0TTMUUXF","A36W9YOEXLJLBT","3HUR21WDDUBEMSLDIXZW1FAIHW8YX3","","null","<img src=""img/food6.png"" style=""width:200px; border:14px solid green;"">","null","","","","","","","","","",""
"","image-keyboard-response","240","121684","0.0-328.0","3UOUJI6MTE0ZR3Z2ZY79ND0TTMUUXF","A36W9YOEXLJLBT","3HUR21WDDUBEMSLDIXZW1FAIHW8YX3","","976.0999999996275","img/food5.png","75","976.4000000003725","2","1","","2","1","1,0.5,0,1,0.5,0,0.5,0,1","1,0.5,0,1,0.5,0,0.5,0,1","1",""
"","html-keyboard-response","241","121987","0.0-329.0","3UOUJI6MTE0ZR3Z2ZY79ND0TTMUUXF","A36W9YOEXLJLBT","3HUR21WDDUBEMSLDIXZW1FAIHW8YX3","","null","<img src=""img/food5.png"" style=""width:200px; border:14px solid green;"">","null","","","","","","","","","",""
"","image-keyboard-response","242","122724","0.0-330.0","3UOUJI6MTE0ZR3Z2ZY79ND0TTMUUXF","A36W9YOEXLJLBT","3HUR21WDDUBEMSLDIXZW1FAIHW8YX3","","736.3000000007451","img/food6.png","74","736.8000000007451","1","1","","3","1","1,0.5,0,1,0.5,0,0.5,0,1","1,0.5,0,1,0.5,0,0.5,0,1","1",""
"","html-keyboard-response","243","123026","0.0-331.0","3UOUJI6MTE0ZR3Z2ZY79ND0TTMUUXF","A36W9YOEXLJLBT","3HUR21WDDUBEMSLDIXZW1FAIHW8YX3","","null","<img src=""img/food6.png"" style=""width:200px; border:14px solid green;"">","null","","","","","","","","","",""
"","image-keyboard-response","244","123652","0.0-332.0","3UOUJI6MTE0ZR3Z2ZY79ND0TTMUUXF","A36W9YOEXLJLBT","3HUR21WDDUBEMSLDIXZW1FAIHW8YX3","","625.3000000007451","img/food5.png","76","625.8000000007451","3","0","","2","1","1,0.5,0,1,0.5,0,0.5,0,1","1,0.5,0,1,0.5,0,0.5,0,1","1",""
"","html-keyboard-response","245","123962","0.0-333.0","3UOUJI6MTE0ZR3Z2ZY79ND0TTMUUXF","A36W9YOEXLJLBT","3HUR21WDDUBEMSLDIXZW1FAIHW8YX3","","null","<img src=""img/food5.png"" style=""width:200px;border:14px solid red;"">","null","","","","","","","","","",""
"","image-keyboard-response","246","125124","0.0-334.0","3UOUJI6MTE0ZR3Z2ZY79ND0TTMUUXF","A36W9YOEXLJLBT","3HUR21WDDUBEMSLDIXZW1FAIHW8YX3","","1161.9000000003725","img/food6.png","74","1162.3999999985099","1","0","","3","1","1,0.5,0,1,0.5,0,0.5,0,1","1,0.5,0,1,0.5,0,0.5,0,1","1",""
"","html-keyboard-response","247","125426","0.0-335.0","3UOUJI6MTE0ZR3Z2ZY79ND0TTMUUXF","A36W9YOEXLJLBT","3HUR21WDDUBEMSLDIXZW1FAIHW8YX3","","null","<img src=""img/food6.png"" style=""width:200px;border:14px solid red;"">","null","","","","","","","","","",""
"","image-keyboard-response","248","126003","0.0-336.0","3UOUJI6MTE0ZR3Z2ZY79ND0TTMUUXF","A36W9YOEXLJLBT","3HUR21WDDUBEMSLDIXZW1FAIHW8YX3","","576.1999999992549","img/food6.png","74","576.8000000007451","1","1","","3","1","1,0.5,0,1,0.5,0,0.5,0,1","1,0.5,0,1,0.5,0,0.5,0,1","1",""
"","html-keyboard-response","249","126307","0.0-337.0","3UOUJI6MTE0ZR3Z2ZY79ND0TTMUUXF","A36W9YOEXLJLBT","3HUR21WDDUBEMSLDIXZW1FAIHW8YX3","","null","<img src=""img/food6.png"" style=""width:200px; border:14px solid green;"">","null","","","","","","","","","",""
"","image-keyboard-response","250","126770","0.0-338.0","3UOUJI6MTE0ZR3Z2ZY79ND0TTMUUXF","A36W9YOEXLJLBT","3HUR21WDDUBEMSLDIXZW1FAIHW8YX3","","462","img/food6.png","74","462.5","1","1","","3","1","1,0.5,0,1,0.5,0,0.5,0,1","1,0.5,0,1,0.5,0,0.5,0,1","1",""
"","html-keyboard-response","251","127071","0.0-339.0","3UOUJI6MTE0ZR3Z2ZY79ND0TTMUUXF","A36W9YOEXLJLBT","3HUR21WDDUBEMSLDIXZW1FAIHW8YX3","","null","<img src=""img/food6.png"" style=""width:200px; border:14px solid green;"">","null","","","","","","","","","",""
"","image-keyboard-response","252","127618","0.0-340.0","3UOUJI6MTE0ZR3Z2ZY79ND0TTMUUXF","A36W9YOEXLJLBT","3HUR21WDDUBEMSLDIXZW1FAIHW8YX3","","546.3999999985099","img/food2.png","76","546.8000000007451","3","0","","1","1","1,0.5,0,1,0.5,0,0.5,0,1","1,0.5,0,1,0.5,0,0.5,0,1","1",""
"","html-keyboard-response","253","127920","0.0-341.0","3UOUJI6MTE0ZR3Z2ZY79ND0TTMUUXF","A36W9YOEXLJLBT","3HUR21WDDUBEMSLDIXZW1FAIHW8YX3","","null","<img src=""img/food2.png"" style=""width:200px;border:14px solid red;"">","null","","","","","","","","","",""
"","image-keyboard-response","254","129218","0.0-342.0","3UOUJI6MTE0ZR3Z2ZY79ND0TTMUUXF","A36W9YOEXLJLBT","3HUR21WDDUBEMSLDIXZW1FAIHW8YX3","","1297.0999999996275","img/food5.png","75","1297.7000000011176","2","1","","2","1","1,0.5,0,1,0.5,0,0.5,0,1","1,0.5,0,1,0.5,0,0.5,0,1","1",""
"","html-keyboard-response","255","129519","0.0-343.0","3UOUJI6MTE0ZR3Z2ZY79ND0TTMUUXF","A36W9YOEXLJLBT","3HUR21WDDUBEMSLDIXZW1FAIHW8YX3","","null","<img src=""img/food5.png"" style=""width:200px; border:14px solid green;"">","null","","","","","","","","","",""
"","image-keyboard-response","256","130321","0.0-344.0","3UOUJI6MTE0ZR3Z2ZY79ND0TTMUUXF","A36W9YOEXLJLBT","3HUR21WDDUBEMSLDIXZW1FAIHW8YX3","","801.5","img/food2.png","74","801.7999999988824","1","1","","1","1","1,0.5,0,1,0.5,0,0.5,0,1","1,0.5,0,1,0.5,0,0.5,0,1","1",""
"","html-keyboard-response","257","130622","0.0-345.0","3UOUJI6MTE0ZR3Z2ZY79ND0TTMUUXF","A36W9YOEXLJLBT","3HUR21WDDUBEMSLDIXZW1FAIHW8YX3","","null","<img src=""img/food2.png"" style=""width:200px; border:14px solid green;"">","null","","","","","","","","","",""
"","image-keyboard-response","258","131008","0.0-346.0","3UOUJI6MTE0ZR3Z2ZY79ND0TTMUUXF","A36W9YOEXLJLBT","3HUR21WDDUBEMSLDIXZW1FAIHW8YX3","","385.1000000014901","img/food2.png","74","385.5","1","1","","1","1","1,0.5,0,1,0.5,0,0.5,0,1","1,0.5,0,1,0.5,0,0.5,0,1","1",""
"","html-keyboard-response","259","131309","0.0-347.0","3UOUJI6MTE0ZR3Z2ZY79ND0TTMUUXF","A36W9YOEXLJLBT","3HUR21WDDUBEMSLDIXZW1FAIHW8YX3","","null","<img src=""img/food2.png"" style=""width:200px; border:14px solid green;"">","null","","","","","","","","","",""
"","image-keyboard-response","260","132224","0.0-348.0","3UOUJI6MTE0ZR3Z2ZY79ND0TTMUUXF","A36W9YOEXLJLBT","3HUR21WDDUBEMSLDIXZW1FAIHW8YX3","","914.2999999988824","img/food5.png","75","914.8000000007451","2","1","","2","1","1,0.5,0,1,0.5,0,0.5,0,1","1,0.5,0,1,0.5,0,0.5,0,1","1",""
"","html-keyboard-response","261","132535","0.0-349.0","3UOUJI6MTE0ZR3Z2ZY79ND0TTMUUXF","A36W9YOEXLJLBT","3HUR21WDDUBEMSLDIXZW1FAIHW8YX3","","null","<img src=""img/food5.png"" style=""width:200px; border:14px solid green;"">","null","","","","","","","","","",""
"","image-keyboard-response","262","133584","0.0-350.0","3UOUJI6MTE0ZR3Z2ZY79ND0TTMUUXF","A36W9YOEXLJLBT","3HUR21WDDUBEMSLDIXZW1FAIHW8YX3","","1047.5999999996275","img/food6.png","76","1048.300000000745","3","1","","3","1","1,0.5,0,1,0.5,0,0.5,0,1","1,0.5,0,1,0.5,0,0.5,0,1","1",""
"","html-keyboard-response","263","133885","0.0-351.0","3UOUJI6MTE0ZR3Z2ZY79ND0TTMUUXF","A36W9YOEXLJLBT","3HUR21WDDUBEMSLDIXZW1FAIHW8YX3","","null","<img src=""img/food6.png"" style=""width:200px; border:14px solid green;"">","null","","","","","","","","","",""
"","image-keyboard-response","264","134318","0.0-352.0","3UOUJI6MTE0ZR3Z2ZY79ND0TTMUUXF","A36W9YOEXLJLBT","3HUR21WDDUBEMSLDIXZW1FAIHW8YX3","","432.7999999988824","img/food6.png","76","433.30000000074506","3","1","","3","1","1,0.5,0,1,0.5,0,0.5,0,1","1,0.5,0,1,0.5,0,0.5,0,1","1",""
"","html-keyboard-response","265","134620","0.0-353.0","3UOUJI6MTE0ZR3Z2ZY79ND0TTMUUXF","A36W9YOEXLJLBT","3HUR21WDDUBEMSLDIXZW1FAIHW8YX3","","null","<img src=""img/food6.png"" style=""width:200px; border:14px solid green;"">","null","","","","","","","","","",""
"","image-keyboard-response","266","135246","0.0-354.0","3UOUJI6MTE0ZR3Z2ZY79ND0TTMUUXF","A36W9YOEXLJLBT","3HUR21WDDUBEMSLDIXZW1FAIHW8YX3","","625.6999999992549","img/food2.png","74","626.1999999992549","1","1","","1","1","1,0.5,0,1,0.5,0,0.5,0,1","1,0.5,0,1,0.5,0,0.5,0,1","1",""
"","html-keyboard-response","267","135548","0.0-355.0","3UOUJI6MTE0ZR3Z2ZY79ND0TTMUUXF","A36W9YOEXLJLBT","3HUR21WDDUBEMSLDIXZW1FAIHW8YX3","","null","<img src=""img/food2.png"" style=""width:200px; border:14px solid green;"">","null","","","","","","","","","",""
"","image-keyboard-response","268","136127","0.0-356.0","3UOUJI6MTE0ZR3Z2ZY79ND0TTMUUXF","A36W9YOEXLJLBT","3HUR21WDDUBEMSLDIXZW1FAIHW8YX3","","577.9000000003725","img/food6.png","76","578.3000000007451","3","1","","3","1","1,0.5,0,1,0.5,0,0.5,0,1","1,0.5,0,1,0.5,0,0.5,0,1","1",""
"","html-keyboard-response","269","136428","0.0-357.0","3UOUJI6MTE0ZR3Z2ZY79ND0TTMUUXF","A36W9YOEXLJLBT","3HUR21WDDUBEMSLDIXZW1FAIHW8YX3","","null","<img src=""img/food6.png"" style=""width:200px; border:14px solid green;"">","null","","","","","","","","","",""
"","image-keyboard-response","270","136798","0.0-358.0","3UOUJI6MTE0ZR3Z2ZY79ND0TTMUUXF","A36W9YOEXLJLBT","3HUR21WDDUBEMSLDIXZW1FAIHW8YX3","","369.6000000014901","img/food6.png","76","370.09999999962747","3","1","","3","1","1,0.5,0,1,0.5,0,0.5,0,1","1,0.5,0,1,0.5,0,0.5,0,1","1",""
"","html-keyboard-response","271","137100","0.0-359.0","3UOUJI6MTE0ZR3Z2ZY79ND0TTMUUXF","A36W9YOEXLJLBT","3HUR21WDDUBEMSLDIXZW1FAIHW8YX3","","null","<img src=""img/food6.png"" style=""width:200px; border:14px solid green;"">","null","","","","","","","","","",""
"","image-keyboard-response","272","137598","0.0-360.0","3UOUJI6MTE0ZR3Z2ZY79ND0TTMUUXF","A36W9YOEXLJLBT","3HUR21WDDUBEMSLDIXZW1FAIHW8YX3","","497","img/food2.png","74","497.7000000011176","1","1","","1","1","1,0.5,0,1,0.5,0,0.5,0,1","1,0.5,0,1,0.5,0,0.5,0,1","1",""
"","html-keyboard-response","273","137898","0.0-361.0","3UOUJI6MTE0ZR3Z2ZY79ND0TTMUUXF","A36W9YOEXLJLBT","3HUR21WDDUBEMSLDIXZW1FAIHW8YX3","","null","<img src=""img/food2.png"" style=""width:200px; border:14px solid green;"">","null","","","","","","","","","",""
"","image-keyboard-response","274","138350","0.0-362.0","3UOUJI6MTE0ZR3Z2ZY79ND0TTMUUXF","A36W9YOEXLJLBT","3HUR21WDDUBEMSLDIXZW1FAIHW8YX3","","451.09999999962747","img/food6.png","76","451.69999999925494","3","1","","3","1","1,0.5,0,1,0.5,0,0.5,0,1","1,0.5,0,1,0.5,0,0.5,0,1","1",""
"","html-keyboard-response","275","138652","0.0-363.0","3UOUJI6MTE0ZR3Z2ZY79ND0TTMUUXF","A36W9YOEXLJLBT","3HUR21WDDUBEMSLDIXZW1FAIHW8YX3","","null","<img src=""img/food6.png"" style=""width:200px; border:14px solid green;"">","null","","","","","","","","","",""
"","image-keyboard-response","276","139071","0.0-364.0","3UOUJI6MTE0ZR3Z2ZY79ND0TTMUUXF","A36W9YOEXLJLBT","3HUR21WDDUBEMSLDIXZW1FAIHW8YX3","","418.5","img/food2.png","74","419.09999999962747","1","1","","1","1","1,0.5,0,1,0.5,0,0.5,0,1","1,0.5,0,1,0.5,0,0.5,0,1","1",""
"","html-keyboard-response","277","139372","0.0-365.0","3UOUJI6MTE0ZR3Z2ZY79ND0TTMUUXF","A36W9YOEXLJLBT","3HUR21WDDUBEMSLDIXZW1FAIHW8YX3","","null","<img src=""img/food2.png"" style=""width:200px; border:14px solid green;"">","null","","","","","","","","","",""
"","image-keyboard-response","278","139949","0.0-366.0","3UOUJI6MTE0ZR3Z2ZY79ND0TTMUUXF","A36W9YOEXLJLBT","3HUR21WDDUBEMSLDIXZW1FAIHW8YX3","","576.5","img/food5.png","75","577","2","1","","2","1","1,0.5,0,1,0.5,0,0.5,0,1","1,0.5,0,1,0.5,0,0.5,0,1","1",""
"","html-keyboard-response","279","140251","0.0-367.0","3UOUJI6MTE0ZR3Z2ZY79ND0TTMUUXF","A36W9YOEXLJLBT","3HUR21WDDUBEMSLDIXZW1FAIHW8YX3","","null","<img src=""img/food5.png"" style=""width:200px; border:14px solid green;"">","null","","","","","","","","","",""
"","image-keyboard-response","280","140813","0.0-368.0","3UOUJI6MTE0ZR3Z2ZY79ND0TTMUUXF","A36W9YOEXLJLBT","3HUR21WDDUBEMSLDIXZW1FAIHW8YX3","","561.6999999992549","img/food2.png","74","562.2000000011176","1","1","","1","1","1,0.5,0,1,0.5,0,0.5,0,1","1,0.5,0,1,0.5,0,0.5,0,1","1",""
"","html-keyboard-response","281","141115","0.0-369.0","3UOUJI6MTE0ZR3Z2ZY79ND0TTMUUXF","A36W9YOEXLJLBT","3HUR21WDDUBEMSLDIXZW1FAIHW8YX3","","null","<img src=""img/food2.png"" style=""width:200px; border:14px solid green;"">","null","","","","","","","","","",""
"","image-keyboard-response","282","141452","0.0-370.0","3UOUJI6MTE0ZR3Z2ZY79ND0TTMUUXF","A36W9YOEXLJLBT","3HUR21WDDUBEMSLDIXZW1FAIHW8YX3","","337.2000000011176","img/food2.png","74","337.7999999988824","1","1","","1","1","1,0.5,0,1,0.5,0,0.5,0,1","1,0.5,0,1,0.5,0,0.5,0,1","1",""
"","html-keyboard-response","283","141755","0.0-371.0","3UOUJI6MTE0ZR3Z2ZY79ND0TTMUUXF","A36W9YOEXLJLBT","3HUR21WDDUBEMSLDIXZW1FAIHW8YX3","","null","<img src=""img/food2.png"" style=""width:200px; border:14px solid green;"">","null","","","","","","","","","",""
"","image-keyboard-response","284","142107","0.0-372.0","3UOUJI6MTE0ZR3Z2ZY79ND0TTMUUXF","A36W9YOEXLJLBT","3HUR21WDDUBEMSLDIXZW1FAIHW8YX3","","351.40000000037253","img/food2.png","74","352","1","1","","1","1","1,0.5,0,1,0.5,0,0.5,0,1","1,0.5,0,1,0.5,0,0.5,0,1","1",""
"","html-keyboard-response","285","142408","0.0-373.0","3UOUJI6MTE0ZR3Z2ZY79ND0TTMUUXF","A36W9YOEXLJLBT","3HUR21WDDUBEMSLDIXZW1FAIHW8YX3","","null","<img src=""img/food2.png"" style=""width:200px; border:14px solid green;"">","null","","","","","","","","","",""
"","image-keyboard-response","286","142715","0.0-374.0","3UOUJI6MTE0ZR3Z2ZY79ND0TTMUUXF","A36W9YOEXLJLBT","3HUR21WDDUBEMSLDIXZW1FAIHW8YX3","","306.6000000014901","img/food2.png","74","306.90000000037253","1","1","","1","1","1,0.5,0,1,0.5,0,0.5,0,1","1,0.5,0,1,0.5,0,0.5,0,1","1",""
"","html-keyboard-response","287","143016","0.0-375.0","3UOUJI6MTE0ZR3Z2ZY79ND0TTMUUXF","A36W9YOEXLJLBT","3HUR21WDDUBEMSLDIXZW1FAIHW8YX3","","null","<img src=""img/food2.png"" style=""width:200px; border:14px solid green;"">","null","","","","","","","","","",""
"","image-keyboard-response","288","143339","0.0-376.0","3UOUJI6MTE0ZR3Z2ZY79ND0TTMUUXF","A36W9YOEXLJLBT","3HUR21WDDUBEMSLDIXZW1FAIHW8YX3","","322.09999999962747","img/food2.png","74","322.6000000014901","1","1","","1","1","1,0.5,0,1,0.5,0,0.5,0,1","1,0.5,0,1,0.5,0,0.5,0,1","1",""
"","html-keyboard-response","289","143641","0.0-377.0","3UOUJI6MTE0ZR3Z2ZY79ND0TTMUUXF","A36W9YOEXLJLBT","3HUR21WDDUBEMSLDIXZW1FAIHW8YX3","","null","<img src=""img/food2.png"" style=""width:200px; border:14px solid green;"">","null","","","","","","","","","",""
"","image-keyboard-response","290","144027","0.0-378.0","3UOUJI6MTE0ZR3Z2ZY79ND0TTMUUXF","A36W9YOEXLJLBT","3HUR21WDDUBEMSLDIXZW1FAIHW8YX3","","385","img/food5.png","75","385.5","2","0","","2","1","1,0.5,0,1,0.5,0,0.5,0,1","1,0.5,0,1,0.5,0,0.5,0,1","1",""
"","html-keyboard-response","291","144329","0.0-379.0","3UOUJI6MTE0ZR3Z2ZY79ND0TTMUUXF","A36W9YOEXLJLBT","3HUR21WDDUBEMSLDIXZW1FAIHW8YX3","","null","<img src=""img/food5.png"" style=""width:200px;border:14px solid red;"">","null","","","","","","","","","",""
"","image-keyboard-response","292","145929","0.0-380.0","3UOUJI6MTE0ZR3Z2ZY79ND0TTMUUXF","A36W9YOEXLJLBT","3HUR21WDDUBEMSLDIXZW1FAIHW8YX3","","1599.199999999255","img/food6.png","76","1599.800000000745","3","1","","3","1","1,0.5,0,1,0.5,0,0.5,0,1","1,0.5,0,1,0.5,0,0.5,0,1","1",""
"","html-keyboard-response","293","146231","0.0-381.0","3UOUJI6MTE0ZR3Z2ZY79ND0TTMUUXF","A36W9YOEXLJLBT","3HUR21WDDUBEMSLDIXZW1FAIHW8YX3","","null","<img src=""img/food6.png"" style=""width:200px; border:14px solid green;"">","null","","","","","","","","","",""
"","image-keyboard-response","294","146537","0.0-382.0","3UOUJI6MTE0ZR3Z2ZY79ND0TTMUUXF","A36W9YOEXLJLBT","3HUR21WDDUBEMSLDIXZW1FAIHW8YX3","","305.30000000074506","img/food6.png","76","306","3","1","","3","1","1,0.5,0,1,0.5,0,0.5,0,1","1,0.5,0,1,0.5,0,0.5,0,1","1",""
"","html-keyboard-response","295","146838","0.0-383.0","3UOUJI6MTE0ZR3Z2ZY79ND0TTMUUXF","A36W9YOEXLJLBT","3HUR21WDDUBEMSLDIXZW1FAIHW8YX3","","null","<img src=""img/food6.png"" style=""width:200px; border:14px solid green;"">","null","","","","","","","","","",""
"","image-keyboard-response","296","147496","0.0-384.0","3UOUJI6MTE0ZR3Z2ZY79ND0TTMUUXF","A36W9YOEXLJLBT","3HUR21WDDUBEMSLDIXZW1FAIHW8YX3","","657.4000000003725","img/food5.png","75","657.7999999988824","2","0","","2","1","1,0.5,0,1,0.5,0,0.5,0,1","1,0.5,0,1,0.5,0,0.5,0,1","1",""
"","html-keyboard-response","297","147798","0.0-385.0","3UOUJI6MTE0ZR3Z2ZY79ND0TTMUUXF","A36W9YOEXLJLBT","3HUR21WDDUBEMSLDIXZW1FAIHW8YX3","","null","<img src=""img/food5.png"" style=""width:200px;border:14px solid red;"">","null","","","","","","","","","",""
"","image-keyboard-response","298","148503","0.0-386.0","3UOUJI6MTE0ZR3Z2ZY79ND0TTMUUXF","A36W9YOEXLJLBT","3HUR21WDDUBEMSLDIXZW1FAIHW8YX3","","704.8000000007451","img/food5.png","75","705.3999999985099","2","0","","2","1","1,0.5,0,1,0.5,0,0.5,0,1","1,0.5,0,1,0.5,0,0.5,0,1","1",""
"","html-keyboard-response","299","148805","0.0-387.0","3UOUJI6MTE0ZR3Z2ZY79ND0TTMUUXF","A36W9YOEXLJLBT","3HUR21WDDUBEMSLDIXZW1FAIHW8YX3","","null","<img src=""img/food5.png"" style=""width:200px;border:14px solid red;"">","null","","","","","","","","","",""
"","image-keyboard-response","300","149014","0.0-388.0","3UOUJI6MTE0ZR3Z2ZY79ND0TTMUUXF","A36W9YOEXLJLBT","3HUR21WDDUBEMSLDIXZW1FAIHW8YX3","","208","img/food5.png","75","208.69999999925494","2","1","","2","1","1,0.5,0,1,0.5,0,0.5,0,1","1,0.5,0,1,0.5,0,0.5,0,1","1",""
"","html-keyboard-response","301","149321","0.0-389.0","3UOUJI6MTE0ZR3Z2ZY79ND0TTMUUXF","A36W9YOEXLJLBT","3HUR21WDDUBEMSLDIXZW1FAIHW8YX3","","null","<img src=""img/food5.png"" style=""width:200px; border:14px solid green;"">","null","","","","","","","","","",""
"","image-keyboard-response","302","150069","0.0-390.0","3UOUJI6MTE0ZR3Z2ZY79ND0TTMUUXF","A36W9YOEXLJLBT","3HUR21WDDUBEMSLDIXZW1FAIHW8YX3","","747.1999999992549","img/food6.png","76","747.8999999985099","3","1","","3","1","1,0.5,0,1,0.5,0,0.5,0,1","1,0.5,0,1,0.5,0,0.5,0,1","1",""
"","html-keyboard-response","303","150370","0.0-391.0","3UOUJI6MTE0ZR3Z2ZY79ND0TTMUUXF","A36W9YOEXLJLBT","3HUR21WDDUBEMSLDIXZW1FAIHW8YX3","","null","<img src=""img/food6.png"" style=""width:200px; border:14px solid green;"">","null","","","","","","","","","",""
"","image-keyboard-response","304","151013","0.0-392.0","3UOUJI6MTE0ZR3Z2ZY79ND0TTMUUXF","A36W9YOEXLJLBT","3HUR21WDDUBEMSLDIXZW1FAIHW8YX3","","642.5","img/food5.png","75","643.2999999988824","2","0","","2","1","1,0.5,0,1,0.5,0,0.5,0,1","1,0.5,0,1,0.5,0,0.5,0,1","1",""
"","html-keyboard-response","305","151315","0.0-393.0","3UOUJI6MTE0ZR3Z2ZY79ND0TTMUUXF","A36W9YOEXLJLBT","3HUR21WDDUBEMSLDIXZW1FAIHW8YX3","","null","<img src=""img/food5.png"" style=""width:200px;border:14px solid red;"">","null","","","","","","","","","",""
"","image-keyboard-response","306","152167","0.0-394.0","3UOUJI6MTE0ZR3Z2ZY79ND0TTMUUXF","A36W9YOEXLJLBT","3HUR21WDDUBEMSLDIXZW1FAIHW8YX3","","850.5999999996275","img/food6.png","76","851.0999999996275","3","1","","3","1","1,0.5,0,1,0.5,0,0.5,0,1","1,0.5,0,1,0.5,0,0.5,0,1","1",""
"","html-keyboard-response","307","152468","0.0-395.0","3UOUJI6MTE0ZR3Z2ZY79ND0TTMUUXF","A36W9YOEXLJLBT","3HUR21WDDUBEMSLDIXZW1FAIHW8YX3","","null","<img src=""img/food6.png"" style=""width:200px; border:14px solid green;"">","null","","","","","","","","","",""
"","image-keyboard-response","308","152887","0.0-396.0","3UOUJI6MTE0ZR3Z2ZY79ND0TTMUUXF","A36W9YOEXLJLBT","3HUR21WDDUBEMSLDIXZW1FAIHW8YX3","","418.5","img/food6.png","76","419","3","1","","3","1","1,0.5,0,1,0.5,0,0.5,0,1","1,0.5,0,1,0.5,0,0.5,0,1","1",""
"","html-keyboard-response","309","153188","0.0-397.0","3UOUJI6MTE0ZR3Z2ZY79ND0TTMUUXF","A36W9YOEXLJLBT","3HUR21WDDUBEMSLDIXZW1FAIHW8YX3","","null","<img src=""img/food6.png"" style=""width:200px; border:14px solid green;"">","null","","","","","","","","","",""
"","image-keyboard-response","310","153558","0.0-398.0","3UOUJI6MTE0ZR3Z2ZY79ND0TTMUUXF","A36W9YOEXLJLBT","3HUR21WDDUBEMSLDIXZW1FAIHW8YX3","","369.6000000014901","img/food5.png","75","370","2","1","","2","1","1,0.5,0,1,0.5,0,0.5,0,1","1,0.5,0,1,0.5,0,0.5,0,1","1",""
"","html-keyboard-response","311","153859","0.0-399.0","3UOUJI6MTE0ZR3Z2ZY79ND0TTMUUXF","A36W9YOEXLJLBT","3HUR21WDDUBEMSLDIXZW1FAIHW8YX3","","null","<img src=""img/food5.png"" style=""width:200px; border:14px solid green;"">","null","","","","","","","","","",""
"","image-keyboard-response","312","154149","0.0-400.0","3UOUJI6MTE0ZR3Z2ZY79ND0TTMUUXF","A36W9YOEXLJLBT","3HUR21WDDUBEMSLDIXZW1FAIHW8YX3","","289.5","img/food5.png","75","290","2","1","","2","1","1,0.5,0,1,0.5,0,0.5,0,1","1,0.5,0,1,0.5,0,0.5,0,1","1",""
"","html-keyboard-response","313","154451","0.0-401.0","3UOUJI6MTE0ZR3Z2ZY79ND0TTMUUXF","A36W9YOEXLJLBT","3HUR21WDDUBEMSLDIXZW1FAIHW8YX3","","null","<img src=""img/food5.png"" style=""width:200px; border:14px solid green;"">","null","","","","","","","","","",""
"","image-keyboard-response","314","154756","0.0-402.0","3UOUJI6MTE0ZR3Z2ZY79ND0TTMUUXF","A36W9YOEXLJLBT","3HUR21WDDUBEMSLDIXZW1FAIHW8YX3","","304.69999999925494","img/food5.png","75","305.09999999962747","2","1","","2","1","1,0.5,0,1,0.5,0,0.5,0,1","1,0.5,0,1,0.5,0,0.5,0,1","1",""
"","html-keyboard-response","315","155057","0.0-403.0","3UOUJI6MTE0ZR3Z2ZY79ND0TTMUUXF","A36W9YOEXLJLBT","3HUR21WDDUBEMSLDIXZW1FAIHW8YX3","","null","<img src=""img/food5.png"" style=""width:200px; border:14px solid green;"">","null","","","","","","","","","",""
"","image-keyboard-response","316","155331","0.0-404.0","3UOUJI6MTE0ZR3Z2ZY79ND0TTMUUXF","A36W9YOEXLJLBT","3HUR21WDDUBEMSLDIXZW1FAIHW8YX3","","272.7999999988824","img/food5.png","75","273.30000000074506","2","0","","2","1","1,0.5,0,1,0.5,0,0.5,0,1","1,0.5,0,1,0.5,0,0.5,0,1","1",""
"","html-keyboard-response","317","155632","0.0-405.0","3UOUJI6MTE0ZR3Z2ZY79ND0TTMUUXF","A36W9YOEXLJLBT","3HUR21WDDUBEMSLDIXZW1FAIHW8YX3","","null","<img src=""img/food5.png"" style=""width:200px;border:14px solid red;"">","null","","","","","","","","","",""
"","image-keyboard-response","318","156195","0.0-406.0","3UOUJI6MTE0ZR3Z2ZY79ND0TTMUUXF","A36W9YOEXLJLBT","3HUR21WDDUBEMSLDIXZW1FAIHW8YX3","","562.5999999996275","img/food5.png","75","563.5","2","0","","2","1","1,0.5,0,1,0.5,0,0.5,0,1","1,0.5,0,1,0.5,0,0.5,0,1","1",""
"","html-keyboard-response","319","156498","0.0-407.0","3UOUJI6MTE0ZR3Z2ZY79ND0TTMUUXF","A36W9YOEXLJLBT","3HUR21WDDUBEMSLDIXZW1FAIHW8YX3","","null","<img src=""img/food5.png"" style=""width:200px;border:14px solid red;"">","null","","","","","","","","","",""
"","image-keyboard-response","320","157122","0.0-408.0","3UOUJI6MTE0ZR3Z2ZY79ND0TTMUUXF","A36W9YOEXLJLBT","3HUR21WDDUBEMSLDIXZW1FAIHW8YX3","","623.7999999988824","img/food2.png","75","624.4000000003725","2","0","","1","1","1,0.5,0,1,0.5,0,0.5,0,1","1,0.5,0,1,0.5,0,0.5,0,1","1",""
"","html-keyboard-response","321","157425","0.0-409.0","3UOUJI6MTE0ZR3Z2ZY79ND0TTMUUXF","A36W9YOEXLJLBT","3HUR21WDDUBEMSLDIXZW1FAIHW8YX3","","null","<img src=""img/food2.png"" style=""width:200px;border:14px solid red;"">","null","","","","","","","","","",""
"","image-keyboard-response","322","157970","0.0-410.0","3UOUJI6MTE0ZR3Z2ZY79ND0TTMUUXF","A36W9YOEXLJLBT","3HUR21WDDUBEMSLDIXZW1FAIHW8YX3","","544.8000000007451","img/food5.png","75","545.5","2","0","","2","1","1,0.5,0,1,0.5,0,0.5,0,1","1,0.5,0,1,0.5,0,0.5,0,1","1",""
"","html-keyboard-response","323","158273","0.0-411.0","3UOUJI6MTE0ZR3Z2ZY79ND0TTMUUXF","A36W9YOEXLJLBT","3HUR21WDDUBEMSLDIXZW1FAIHW8YX3","","null","<img src=""img/food5.png"" style=""width:200px;border:14px solid red;"">","null","","","","","","","","","",""
"","image-keyboard-response","324","158785","0.0-412.0","3UOUJI6MTE0ZR3Z2ZY79ND0TTMUUXF","A36W9YOEXLJLBT","3HUR21WDDUBEMSLDIXZW1FAIHW8YX3","","511.7999999988824","img/food2.png","74","512.1999999992549","1","1","","1","1","1,0.5,0,1,0.5,0,0.5,0,1","1,0.5,0,1,0.5,0,0.5,0,1","1",""
"","html-keyboard-response","325","159087","0.0-413.0","3UOUJI6MTE0ZR3Z2ZY79ND0TTMUUXF","A36W9YOEXLJLBT","3HUR21WDDUBEMSLDIXZW1FAIHW8YX3","","null","<img src=""img/food2.png"" style=""width:200px; border:14px solid green;"">","null","","","","","","","","","",""
"","image-keyboard-response","326","159602","0.0-414.0","3UOUJI6MTE0ZR3Z2ZY79ND0TTMUUXF","A36W9YOEXLJLBT","3HUR21WDDUBEMSLDIXZW1FAIHW8YX3","","514.2000000011176","img/food5.png","75","514.8000000007451","2","1","","2","1","1,0.5,0,1,0.5,0,0.5,0,1","1,0.5,0,1,0.5,0,0.5,0,1","1",""
"","html-keyboard-response","327","159903","0.0-415.0","3UOUJI6MTE0ZR3Z2ZY79ND0TTMUUXF","A36W9YOEXLJLBT","3HUR21WDDUBEMSLDIXZW1FAIHW8YX3","","null","<img src=""img/food5.png"" style=""width:200px; border:14px solid green;"">","null","","","","","","","","","",""
"","image-keyboard-response","328","160451","0.0-416.0","3UOUJI6MTE0ZR3Z2ZY79ND0TTMUUXF","A36W9YOEXLJLBT","3HUR21WDDUBEMSLDIXZW1FAIHW8YX3","","547.5","img/food6.png","76","548","3","1","","3","1","1,0.5,0,1,0.5,0,0.5,0,1","1,0.5,0,1,0.5,0,0.5,0,1","1",""
"","html-keyboard-response","329","160753","0.0-417.0","3UOUJI6MTE0ZR3Z2ZY79ND0TTMUUXF","A36W9YOEXLJLBT","3HUR21WDDUBEMSLDIXZW1FAIHW8YX3","","null","<img src=""img/food6.png"" style=""width:200px; border:14px solid green;"">","null","","","","","","","","","",""
"","image-keyboard-response","330","161090","0.0-418.0","3UOUJI6MTE0ZR3Z2ZY79ND0TTMUUXF","A36W9YOEXLJLBT","3HUR21WDDUBEMSLDIXZW1FAIHW8YX3","","335.90000000037253","img/food6.png","76","336.30000000074506","3","1","","3","1","1,0.5,0,1,0.5,0,0.5,0,1","1,0.5,0,1,0.5,0,0.5,0,1","1",""
"","html-keyboard-response","331","161391","0.0-419.0","3UOUJI6MTE0ZR3Z2ZY79ND0TTMUUXF","A36W9YOEXLJLBT","3HUR21WDDUBEMSLDIXZW1FAIHW8YX3","","null","<img src=""img/food6.png"" style=""width:200px; border:14px solid green;"">","null","","","","","","","","","",""
"","image-keyboard-response","332","162001","0.0-420.0","3UOUJI6MTE0ZR3Z2ZY79ND0TTMUUXF","A36W9YOEXLJLBT","3HUR21WDDUBEMSLDIXZW1FAIHW8YX3","","609.8000000007451","img/food2.png","74","610.4000000003725","1","1","","1","1","1,0.5,0,1,0.5,0,0.5,0,1","1,0.5,0,1,0.5,0,0.5,0,1","1",""
"","html-keyboard-response","333","162303","0.0-421.0","3UOUJI6MTE0ZR3Z2ZY79ND0TTMUUXF","A36W9YOEXLJLBT","3HUR21WDDUBEMSLDIXZW1FAIHW8YX3","","null","<img src=""img/food2.png"" style=""width:200px; border:14px solid green;"">","null","","","","","","","","","",""
"","image-keyboard-response","334","162625","0.0-422.0","3UOUJI6MTE0ZR3Z2ZY79ND0TTMUUXF","A36W9YOEXLJLBT","3HUR21WDDUBEMSLDIXZW1FAIHW8YX3","","320.7999999988824","img/food2.png","74","321.2000000011176","1","1","","1","1","1,0.5,0,1,0.5,0,0.5,0,1","1,0.5,0,1,0.5,0,0.5,0,1","1",""
"","html-keyboard-response","335","162926","0.0-423.0","3UOUJI6MTE0ZR3Z2ZY79ND0TTMUUXF","A36W9YOEXLJLBT","3HUR21WDDUBEMSLDIXZW1FAIHW8YX3","","null","<img src=""img/food2.png"" style=""width:200px; border:14px solid green;"">","null","","","","","","","","","",""
"","image-keyboard-response","336","163169","0.0-424.0","3UOUJI6MTE0ZR3Z2ZY79ND0TTMUUXF","A36W9YOEXLJLBT","3HUR21WDDUBEMSLDIXZW1FAIHW8YX3","","242","img/food2.png","74","242.39999999850988","1","1","","1","1","1,0.5,0,1,0.5,0,0.5,0,1","1,0.5,0,1,0.5,0,0.5,0,1","1",""
"","html-keyboard-response","337","163470","0.0-425.0","3UOUJI6MTE0ZR3Z2ZY79ND0TTMUUXF","A36W9YOEXLJLBT","3HUR21WDDUBEMSLDIXZW1FAIHW8YX3","","null","<img src=""img/food2.png"" style=""width:200px; border:14px solid green;"">","null","","","","","","","","","",""
"","image-keyboard-response","338","163728","0.0-426.0","3UOUJI6MTE0ZR3Z2ZY79ND0TTMUUXF","A36W9YOEXLJLBT","3HUR21WDDUBEMSLDIXZW1FAIHW8YX3","","256.80000000074506","img/food2.png","74","257.40000000037253","1","1","","1","1","1,0.5,0,1,0.5,0,0.5,0,1","1,0.5,0,1,0.5,0,0.5,0,1","1",""
"","html-keyboard-response","339","164029","0.0-427.0","3UOUJI6MTE0ZR3Z2ZY79ND0TTMUUXF","A36W9YOEXLJLBT","3HUR21WDDUBEMSLDIXZW1FAIHW8YX3","","null","<img src=""img/food2.png"" style=""width:200px; border:14px solid green;"">","null","","","","","","","","","",""
"","image-keyboard-response","340","164720","0.0-428.0","3UOUJI6MTE0ZR3Z2ZY79ND0TTMUUXF","A36W9YOEXLJLBT","3HUR21WDDUBEMSLDIXZW1FAIHW8YX3","","690.2000000011176","img/food6.png","76","690.6999999992549","3","1","","3","1","1,0.5,0,1,0.5,0,0.5,0,1","1,0.5,0,1,0.5,0,0.5,0,1","1",""
"","html-keyboard-response","341","165021","0.0-429.0","3UOUJI6MTE0ZR3Z2ZY79ND0TTMUUXF","A36W9YOEXLJLBT","3HUR21WDDUBEMSLDIXZW1FAIHW8YX3","","null","<img src=""img/food6.png"" style=""width:200px; border:14px solid green;"">","null","","","","","","","","","",""
"","image-keyboard-response","342","165231","0.0-430.0","3UOUJI6MTE0ZR3Z2ZY79ND0TTMUUXF","A36W9YOEXLJLBT","3HUR21WDDUBEMSLDIXZW1FAIHW8YX3","","209.5","img/food5.png","76","209.90000000037253","3","0","","2","1","1,0.5,0,1,0.5,0,0.5,0,1","1,0.5,0,1,0.5,0,0.5,0,1","1",""
"","html-keyboard-response","343","165532","0.0-431.0","3UOUJI6MTE0ZR3Z2ZY79ND0TTMUUXF","A36W9YOEXLJLBT","3HUR21WDDUBEMSLDIXZW1FAIHW8YX3","","null","<img src=""img/food5.png"" style=""width:200px;border:14px solid red;"">","null","","","","","","","","","",""
"","image-keyboard-response","344","165950","0.0-432.0","3UOUJI6MTE0ZR3Z2ZY79ND0TTMUUXF","A36W9YOEXLJLBT","3HUR21WDDUBEMSLDIXZW1FAIHW8YX3","","417.40000000037253","img/food5.png","75","418","2","1","","2","1","1,0.5,0,1,0.5,0,0.5,0,1","1,0.5,0,1,0.5,0,0.5,0,1","1",""
"","html-keyboard-response","345","166252","0.0-433.0","3UOUJI6MTE0ZR3Z2ZY79ND0TTMUUXF","A36W9YOEXLJLBT","3HUR21WDDUBEMSLDIXZW1FAIHW8YX3","","null","<img src=""img/food5.png"" style=""width:200px; border:14px solid green;"">","null","","","","","","","","","",""
"","image-keyboard-response","346","166798","0.0-434.0","3UOUJI6MTE0ZR3Z2ZY79ND0TTMUUXF","A36W9YOEXLJLBT","3HUR21WDDUBEMSLDIXZW1FAIHW8YX3","","545.2000000011176","img/food2.png","74","545.9000000003725","1","1","","1","1","1,0.5,0,1,0.5,0,0.5,0,1","1,0.5,0,1,0.5,0,0.5,0,1","1",""
"","html-keyboard-response","347","167100","0.0-435.0","3UOUJI6MTE0ZR3Z2ZY79ND0TTMUUXF","A36W9YOEXLJLBT","3HUR21WDDUBEMSLDIXZW1FAIHW8YX3","","null","<img src=""img/food2.png"" style=""width:200px; border:14px solid green;"">","null","","","","","","","","","",""
"","image-keyboard-response","348","167375","0.0-436.0","3UOUJI6MTE0ZR3Z2ZY79ND0TTMUUXF","A36W9YOEXLJLBT","3HUR21WDDUBEMSLDIXZW1FAIHW8YX3","","274.19999999925494","img/food2.png","74","274.80000000074506","1","1","","1","1","1,0.5,0,1,0.5,0,0.5,0,1","1,0.5,0,1,0.5,0,0.5,0,1","1",""
"","html-keyboard-response","349","167675","0.0-437.0","3UOUJI6MTE0ZR3Z2ZY79ND0TTMUUXF","A36W9YOEXLJLBT","3HUR21WDDUBEMSLDIXZW1FAIHW8YX3","","null","<img src=""img/food2.png"" style=""width:200px; border:14px solid green;"">","null","","","","","","","","","",""
"","image-keyboard-response","350","167966","0.0-438.0","3UOUJI6MTE0ZR3Z2ZY79ND0TTMUUXF","A36W9YOEXLJLBT","3HUR21WDDUBEMSLDIXZW1FAIHW8YX3","","290.5","img/food2.png","74","290.8999999985099","1","1","","1","1","1,0.5,0,1,0.5,0,0.5,0,1","1,0.5,0,1,0.5,0,0.5,0,1","1",""
"","html-keyboard-response","351","168268","0.0-439.0","3UOUJI6MTE0ZR3Z2ZY79ND0TTMUUXF","A36W9YOEXLJLBT","3HUR21WDDUBEMSLDIXZW1FAIHW8YX3","","null","<img src=""img/food2.png"" style=""width:200px; border:14px solid green;"">","null","","","","","","","","","",""
"","image-keyboard-response","352","168830","0.0-440.0","3UOUJI6MTE0ZR3Z2ZY79ND0TTMUUXF","A36W9YOEXLJLBT","3HUR21WDDUBEMSLDIXZW1FAIHW8YX3","","561","img/food5.png","75","561.7000000011176","2","0","","2","1","1,0.5,0,1,0.5,0,0.5,0,1","1,0.5,0,1,0.5,0,0.5,0,1","1",""
"","html-keyboard-response","353","169131","0.0-441.0","3UOUJI6MTE0ZR3Z2ZY79ND0TTMUUXF","A36W9YOEXLJLBT","3HUR21WDDUBEMSLDIXZW1FAIHW8YX3","","null","<img src=""img/food5.png"" style=""width:200px;border:14px solid red;"">","null","","","","","","","","","",""
"","image-keyboard-response","354","169406","0.0-442.0","3UOUJI6MTE0ZR3Z2ZY79ND0TTMUUXF","A36W9YOEXLJLBT","3HUR21WDDUBEMSLDIXZW1FAIHW8YX3","","273.8999999985099","img/food5.png","75","274.5","2","1","","2","1","1,0.5,0,1,0.5,0,0.5,0,1","1,0.5,0,1,0.5,0,0.5,0,1","1",""
"","html-keyboard-response","355","169708","0.0-443.0","3UOUJI6MTE0ZR3Z2ZY79ND0TTMUUXF","A36W9YOEXLJLBT","3HUR21WDDUBEMSLDIXZW1FAIHW8YX3","","null","<img src=""img/food5.png"" style=""width:200px; border:14px solid green;"">","null","","","","","","","","","",""
"","image-keyboard-response","356","170334","0.0-444.0","3UOUJI6MTE0ZR3Z2ZY79ND0TTMUUXF","A36W9YOEXLJLBT","3HUR21WDDUBEMSLDIXZW1FAIHW8YX3","","625.6999999992549","img/food6.png","76","626.0999999996275","3","1","","3","1","1,0.5,0,1,0.5,0,0.5,0,1","1,0.5,0,1,0.5,0,0.5,0,1","1",""
"","html-keyboard-response","357","170644","0.0-445.0","3UOUJI6MTE0ZR3Z2ZY79ND0TTMUUXF","A36W9YOEXLJLBT","3HUR21WDDUBEMSLDIXZW1FAIHW8YX3","","null","<img src=""img/food6.png"" style=""width:200px; border:14px solid green;"">","null","","","","","","","","","",""
"","image-keyboard-response","358","171485","0.0-446.0","3UOUJI6MTE0ZR3Z2ZY79ND0TTMUUXF","A36W9YOEXLJLBT","3HUR21WDDUBEMSLDIXZW1FAIHW8YX3","","839.8000000007451","img/food5.png","75","840.4000000003725","2","0","","2","1","1,0.5,0,1,0.5,0,0.5,0,1","1,0.5,0,1,0.5,0,0.5,0,1","1",""
"","html-keyboard-response","359","171786","0.0-447.0","3UOUJI6MTE0ZR3Z2ZY79ND0TTMUUXF","A36W9YOEXLJLBT","3HUR21WDDUBEMSLDIXZW1FAIHW8YX3","","null","<img src=""img/food5.png"" style=""width:200px;border:14px solid red;"">","null","","","","","","","","","",""
"","image-keyboard-response","360","172621","0.0-448.0","3UOUJI6MTE0ZR3Z2ZY79ND0TTMUUXF","A36W9YOEXLJLBT","3HUR21WDDUBEMSLDIXZW1FAIHW8YX3","","834.5","img/food6.png","76","835.0999999996275","3","1","","3","1","1,0.5,0,1,0.5,0,0.5,0,1","1,0.5,0,1,0.5,0,0.5,0,1","1",""
"","html-keyboard-response","361","172923","0.0-449.0","3UOUJI6MTE0ZR3Z2ZY79ND0TTMUUXF","A36W9YOEXLJLBT","3HUR21WDDUBEMSLDIXZW1FAIHW8YX3","","null","<img src=""img/food6.png"" style=""width:200px; border:14px solid green;"">","null","","","","","","","","","",""
"","image-keyboard-response","362","173196","0.0-450.0","3UOUJI6MTE0ZR3Z2ZY79ND0TTMUUXF","A36W9YOEXLJLBT","3HUR21WDDUBEMSLDIXZW1FAIHW8YX3","","272.59999999962747","img/food6.png","76","273.09999999962747","3","1","","3","1","1,0.5,0,1,0.5,0,0.5,0,1","1,0.5,0,1,0.5,0,0.5,0,1","1",""
"","html-keyboard-response","363","173498","0.0-451.0","3UOUJI6MTE0ZR3Z2ZY79ND0TTMUUXF","A36W9YOEXLJLBT","3HUR21WDDUBEMSLDIXZW1FAIHW8YX3","","null","<img src=""img/food6.png"" style=""width:200px; border:14px solid green;"">","null","","","","","","","","","",""
"","image-keyboard-response","364","174058","0.0-452.0","3UOUJI6MTE0ZR3Z2ZY79ND0TTMUUXF","A36W9YOEXLJLBT","3HUR21WDDUBEMSLDIXZW1FAIHW8YX3","","559.4000000003725","img/food5.png","75","559.7999999988824","2","1","","2","1","1,0.5,0,1,0.5,0,0.5,0,1","1,0.5,0,1,0.5,0,0.5,0,1","1",""
"","html-keyboard-response","365","174360","0.0-453.0","3UOUJI6MTE0ZR3Z2ZY79ND0TTMUUXF","A36W9YOEXLJLBT","3HUR21WDDUBEMSLDIXZW1FAIHW8YX3","","null","<img src=""img/food5.png"" style=""width:200px; border:14px solid green;"">","null","","","","","","","","","",""
"","html-keyboard-response","366","177375","0.0-454.0","3UOUJI6MTE0ZR3Z2ZY79ND0TTMUUXF","A36W9YOEXLJLBT","3HUR21WDDUBEMSLDIXZW1FAIHW8YX3","","","","","","","","","","","","","",""
"","instructions","367","180554","0.0-455.0","3UOUJI6MTE0ZR3Z2ZY79ND0TTMUUXF","A36W9YOEXLJLBT","3HUR21WDDUBEMSLDIXZW1FAIHW8YX3","[{""page_index"":0,""viewing_time"":3177.5999999996275}]","3177.800000000745","","","","","","","","","","","",""
"","survey-text","368","189429","0.0-456.0","3UOUJI6MTE0ZR3Z2ZY79ND0TTMUUXF","A36W9YOEXLJLBT","3HUR21WDDUBEMSLDIXZW1FAIHW8YX3","","8873.300000000745","","","","","","","","","","","","{""Q0"":""A36W9YOEXLJLBT""}"
