"success","trial_type","trial_index","time_elapsed","internal_node_id","assignmentID","mturkID","hitID","view_history","rt","stimulus","key_press","reactionTime","a","r","s","cond","reward_cond","reward_cond_actual","reward_matrix_idx","warning","responses"
"true","fullscreen","0","12171","0.0-0.0","3YGXWBAF713C77USTWK4WWHPTUS4CG","A37E36IPU0BJX5","37SDSEDIN9ORHL92Y0GV7TIFJ2X187","","","","","","","","","","","","","",""
"","instructions","1","81620","0.0-1.0","3YGXWBAF713C77USTWK4WWHPTUS4CG","A37E36IPU0BJX5","37SDSEDIN9ORHL92Y0GV7TIFJ2X187","[{""page_index"":0,""viewing_time"":14302.899999976158},{""page_index"":1,""viewing_time"":4864.600000023842},{""page_index"":2,""viewing_time"":8722.699999928474},{""page_index"":3,""viewing_time"":12371},{""page_index"":4,""viewing_time"":5458.200000047684},{""page_index"":5,""viewing_time"":17981.399999976158},{""page_index"":6,""viewing_time"":5733}]","69440.19999992847","","","","","","","","","","","",""
"","image-keyboard-response","2","82791","0.0-2.0","3YGXWBAF713C77USTWK4WWHPTUS4CG","A37E36IPU0BJX5","37SDSEDIN9ORHL92Y0GV7TIFJ2X187","","1164.2999999523163","img/food3.png","74","1170.2999999523163","1","1","3","1","1,0.5,0,1,0.5,0,0.5,0,1","0,1,0.5,0,1,0.5,1,0.5,0","3","",""
"","html-keyboard-response","3","83111","0.0-3.0","3YGXWBAF713C77USTWK4WWHPTUS4CG","A37E36IPU0BJX5","37SDSEDIN9ORHL92Y0GV7TIFJ2X187","","null","<img src=""img/food3.png"" style=""width:200px; border:14px solid green;"">","null","","","","","","","","","",""
"","image-keyboard-response","4","83776","0.0-4.0","3YGXWBAF713C77USTWK4WWHPTUS4CG","A37E36IPU0BJX5","37SDSEDIN9ORHL92Y0GV7TIFJ2X187","","658.5","img/food6.png","75","664.2999999523163","2","1","2","1","1,0.5,0,1,0.5,0,0.5,0,1","0,1,0.5,0,1,0.5,1,0.5,0","3","",""
"","html-keyboard-response","5","84094","0.0-5.0","3YGXWBAF713C77USTWK4WWHPTUS4CG","A37E36IPU0BJX5","37SDSEDIN9ORHL92Y0GV7TIFJ2X187","","null","<img src=""img/food6.png"" style=""width:200px; border:14px solid green;"">","null","","","","","","","","","",""
"","image-keyboard-response","6","84823","0.0-6.0","3YGXWBAF713C77USTWK4WWHPTUS4CG","A37E36IPU0BJX5","37SDSEDIN9ORHL92Y0GV7TIFJ2X187","","725.6000000238419","img/food6.png","75","729","2","1","2","1","1,0.5,0,1,0.5,0,0.5,0,1","0,1,0.5,0,1,0.5,1,0.5,0","3","",""
"","html-keyboard-response","7","85140","0.0-7.0","3YGXWBAF713C77USTWK4WWHPTUS4CG","A37E36IPU0BJX5","37SDSEDIN9ORHL92Y0GV7TIFJ2X187","","null","<img src=""img/food6.png"" style=""width:200px; border:14px solid green;"">","null","","","","","","","","","",""
"","image-keyboard-response","8","85809","0.0-8.0","3YGXWBAF713C77USTWK4WWHPTUS4CG","A37E36IPU0BJX5","37SDSEDIN9ORHL92Y0GV7TIFJ2X187","","664.7000000476837","img/food2.png","76","668.3999999761581","3","1","1","1","1,0.5,0,1,0.5,0,0.5,0,1","0,1,0.5,0,1,0.5,1,0.5,0","3","",""
"","html-keyboard-response","9","86124","0.0-9.0","3YGXWBAF713C77USTWK4WWHPTUS4CG","A37E36IPU0BJX5","37SDSEDIN9ORHL92Y0GV7TIFJ2X187","","null","<img src=""img/food2.png"" style=""width:200px; border:14px solid green;"">","null","","","","","","","","","",""
"","image-keyboard-response","10","86607","0.0-10.0","3YGXWBAF713C77USTWK4WWHPTUS4CG","A37E36IPU0BJX5","37SDSEDIN9ORHL92Y0GV7TIFJ2X187","","478","img/food2.png","76","482.1999999284744","3","0","1","1","1,0.5,0,1,0.5,0,0.5,0,1","0,1,0.5,0,1,0.5,1,0.5,0","3","",""
"","html-keyboard-response","11","86921","0.0-11.0","3YGXWBAF713C77USTWK4WWHPTUS4CG","A37E36IPU0BJX5","37SDSEDIN9ORHL92Y0GV7TIFJ2X187","","null","<img src=""img/food2.png"" style=""width:200px;border:14px solid red;"">","null","","","","","","","","","",""
"","image-keyboard-response","12","87652","0.0-12.0","3YGXWBAF713C77USTWK4WWHPTUS4CG","A37E36IPU0BJX5","37SDSEDIN9ORHL92Y0GV7TIFJ2X187","","726.3999999761581","img/food6.png","75","729.7000000476837","2","1","2","1","1,0.5,0,1,0.5,0,0.5,0,1","0,1,0.5,0,1,0.5,1,0.5,0","3","",""
"","html-keyboard-response","13","87967","0.0-13.0","3YGXWBAF713C77USTWK4WWHPTUS4CG","A37E36IPU0BJX5","37SDSEDIN9ORHL92Y0GV7TIFJ2X187","","null","<img src=""img/food6.png"" style=""width:200px; border:14px solid green;"">","null","","","","","","","","","",""
"","image-keyboard-response","14","88584","0.0-14.0","3YGXWBAF713C77USTWK4WWHPTUS4CG","A37E36IPU0BJX5","37SDSEDIN9ORHL92Y0GV7TIFJ2X187","","612.8000000715256","img/food3.png","74","616.1000000238419","1","1","3","1","1,0.5,0,1,0.5,0,0.5,0,1","0,1,0.5,0,1,0.5,1,0.5,0","3","",""
"","html-keyboard-response","15","88889","0.0-15.0","3YGXWBAF713C77USTWK4WWHPTUS4CG","A37E36IPU0BJX5","37SDSEDIN9ORHL92Y0GV7TIFJ2X187","","null","<img src=""img/food3.png"" style=""width:200px; border:14px solid green;"">","null","","","","","","","","","",""
"","image-keyboard-response","16","89504","0.0-16.0","3YGXWBAF713C77USTWK4WWHPTUS4CG","A37E36IPU0BJX5","37SDSEDIN9ORHL92Y0GV7TIFJ2X187","","610.6000000238419","img/food6.png","75","614.2999999523163","2","1","2","1","1,0.5,0,1,0.5,0,0.5,0,1","0,1,0.5,0,1,0.5,1,0.5,0","3","",""
"","html-keyboard-response","17","89811","0.0-17.0","3YGXWBAF713C77USTWK4WWHPTUS4CG","A37E36IPU0BJX5","37SDSEDIN9ORHL92Y0GV7TIFJ2X187","","null","<img src=""img/food6.png"" style=""width:200px; border:14px solid green;"">","null","","","","","","","","","",""
"","image-keyboard-response","18","90501","0.0-18.0","3YGXWBAF713C77USTWK4WWHPTUS4CG","A37E36IPU0BJX5","37SDSEDIN9ORHL92Y0GV7TIFJ2X187","","684.7000000476837","img/food2.png","74","689.7000000476837","1","0","1","1","1,0.5,0,1,0.5,0,0.5,0,1","0,1,0.5,0,1,0.5,1,0.5,0","3","",""
"","html-keyboard-response","19","90810","0.0-19.0","3YGXWBAF713C77USTWK4WWHPTUS4CG","A37E36IPU0BJX5","37SDSEDIN9ORHL92Y0GV7TIFJ2X187","","null","<img src=""img/food2.png"" style=""width:200px;border:14px solid red;"">","null","","","","","","","","","",""
"","image-keyboard-response","20","91186","0.0-20.0","3YGXWBAF713C77USTWK4WWHPTUS4CG","A37E36IPU0BJX5","37SDSEDIN9ORHL92Y0GV7TIFJ2X187","","370.3000000715256","img/food2.png","76","375.1999999284744","3","1","1","1","1,0.5,0,1,0.5,0,0.5,0,1","0,1,0.5,0,1,0.5,1,0.5,0","3","",""
"","html-keyboard-response","21","91498","0.0-21.0","3YGXWBAF713C77USTWK4WWHPTUS4CG","A37E36IPU0BJX5","37SDSEDIN9ORHL92Y0GV7TIFJ2X187","","null","<img src=""img/food2.png"" style=""width:200px; border:14px solid green;"">","null","","","","","","","","","",""
"","image-keyboard-response","22","91883","0.0-22.0","3YGXWBAF713C77USTWK4WWHPTUS4CG","A37E36IPU0BJX5","37SDSEDIN9ORHL92Y0GV7TIFJ2X187","","380.5","img/food2.png","76","383.7999999523163","3","0","1","1","1,0.5,0,1,0.5,0,0.5,0,1","0,1,0.5,0,1,0.5,1,0.5,0","3","",""
"","html-keyboard-response","23","92200","0.0-23.0","3YGXWBAF713C77USTWK4WWHPTUS4CG","A37E36IPU0BJX5","37SDSEDIN9ORHL92Y0GV7TIFJ2X187","","null","<img src=""img/food2.png"" style=""width:200px;border:14px solid red;"">","null","","","","","","","","","",""
"","image-keyboard-response","24","92899","0.0-24.0","3YGXWBAF713C77USTWK4WWHPTUS4CG","A37E36IPU0BJX5","37SDSEDIN9ORHL92Y0GV7TIFJ2X187","","694.7000000476837","img/food3.png","75","697.8999999761581","2","1","3","1","1,0.5,0,1,0.5,0,0.5,0,1","0,1,0.5,0,1,0.5,1,0.5,0","3","",""
"","html-keyboard-response","25","93216","0.0-25.0","3YGXWBAF713C77USTWK4WWHPTUS4CG","A37E36IPU0BJX5","37SDSEDIN9ORHL92Y0GV7TIFJ2X187","","null","<img src=""img/food3.png"" style=""width:200px; border:14px solid green;"">","null","","","","","","","","","",""
"","image-keyboard-response","26","93791","0.0-26.0","3YGXWBAF713C77USTWK4WWHPTUS4CG","A37E36IPU0BJX5","37SDSEDIN9ORHL92Y0GV7TIFJ2X187","","572.2000000476837","img/food6.png","74","575.2999999523163","1","0","2","1","1,0.5,0,1,0.5,0,0.5,0,1","0,1,0.5,0,1,0.5,1,0.5,0","3","",""
"","html-keyboard-response","27","94106","0.0-27.0","3YGXWBAF713C77USTWK4WWHPTUS4CG","A37E36IPU0BJX5","37SDSEDIN9ORHL92Y0GV7TIFJ2X187","","null","<img src=""img/food6.png"" style=""width:200px;border:14px solid red;"">","null","","","","","","","","","",""
"","image-keyboard-response","28","94401","0.0-28.0","3YGXWBAF713C77USTWK4WWHPTUS4CG","A37E36IPU0BJX5","37SDSEDIN9ORHL92Y0GV7TIFJ2X187","","291","img/food6.png","75","294.5","2","1","2","1","1,0.5,0,1,0.5,0,0.5,0,1","0,1,0.5,0,1,0.5,1,0.5,0","3","",""
"","html-keyboard-response","29","94715","0.0-29.0","3YGXWBAF713C77USTWK4WWHPTUS4CG","A37E36IPU0BJX5","37SDSEDIN9ORHL92Y0GV7TIFJ2X187","","null","<img src=""img/food6.png"" style=""width:200px; border:14px solid green;"">","null","","","","","","","","","",""
"","image-keyboard-response","30","95372","0.0-30.0","3YGXWBAF713C77USTWK4WWHPTUS4CG","A37E36IPU0BJX5","37SDSEDIN9ORHL92Y0GV7TIFJ2X187","","653.2999999523163","img/food3.png","74","656.6000000238419","1","1","3","1","1,0.5,0,1,0.5,0,0.5,0,1","0,1,0.5,0,1,0.5,1,0.5,0","3","",""
"","html-keyboard-response","31","95684","0.0-31.0","3YGXWBAF713C77USTWK4WWHPTUS4CG","A37E36IPU0BJX5","37SDSEDIN9ORHL92Y0GV7TIFJ2X187","","null","<img src=""img/food3.png"" style=""width:200px; border:14px solid green;"">","null","","","","","","","","","",""
"","image-keyboard-response","32","96132","0.0-32.0","3YGXWBAF713C77USTWK4WWHPTUS4CG","A37E36IPU0BJX5","37SDSEDIN9ORHL92Y0GV7TIFJ2X187","","444.09999990463257","img/food3.png","74","447.3000000715256","1","1","3","1","1,0.5,0,1,0.5,0,0.5,0,1","0,1,0.5,0,1,0.5,1,0.5,0","3","",""
"","html-keyboard-response","33","96449","0.0-33.0","3YGXWBAF713C77USTWK4WWHPTUS4CG","A37E36IPU0BJX5","37SDSEDIN9ORHL92Y0GV7TIFJ2X187","","null","<img src=""img/food3.png"" style=""width:200px; border:14px solid green;"">","null","","","","","","","","","",""
"","image-keyboard-response","34","96763","0.0-34.0","3YGXWBAF713C77USTWK4WWHPTUS4CG","A37E36IPU0BJX5","37SDSEDIN9ORHL92Y0GV7TIFJ2X187","","309.6999999284744","img/food3.png","74","313.7000000476837","1","1","3","1","1,0.5,0,1,0.5,0,0.5,0,1","0,1,0.5,0,1,0.5,1,0.5,0","3","",""
"","html-keyboard-response","35","97074","0.0-35.0","3YGXWBAF713C77USTWK4WWHPTUS4CG","A37E36IPU0BJX5","37SDSEDIN9ORHL92Y0GV7TIFJ2X187","","null","<img src=""img/food3.png"" style=""width:200px; border:14px solid green;"">","null","","","","","","","","","",""
"","image-keyboard-response","36","97946","0.0-36.0","3YGXWBAF713C77USTWK4WWHPTUS4CG","A37E36IPU0BJX5","37SDSEDIN9ORHL92Y0GV7TIFJ2X187","","868.1000000238419","img/food2.png","76","871.8999999761581","3","1","1","1","1,0.5,0,1,0.5,0,0.5,0,1","0,1,0.5,0,1,0.5,1,0.5,0","3","",""
"","html-keyboard-response","37","98261","0.0-37.0","3YGXWBAF713C77USTWK4WWHPTUS4CG","A37E36IPU0BJX5","37SDSEDIN9ORHL92Y0GV7TIFJ2X187","","null","<img src=""img/food2.png"" style=""width:200px; border:14px solid green;"">","null","","","","","","","","","",""
"","image-keyboard-response","38","99665","0.0-38.0","3YGXWBAF713C77USTWK4WWHPTUS4CG","A37E36IPU0BJX5","37SDSEDIN9ORHL92Y0GV7TIFJ2X187","","1399.2999999523163","img/food6.png","74","1404.1000000238419","1","0","2","1","1,0.5,0,1,0.5,0,0.5,0,1","0,1,0.5,0,1,0.5,1,0.5,0","3","",""
"","html-keyboard-response","39","99980","0.0-39.0","3YGXWBAF713C77USTWK4WWHPTUS4CG","A37E36IPU0BJX5","37SDSEDIN9ORHL92Y0GV7TIFJ2X187","","null","<img src=""img/food6.png"" style=""width:200px;border:14px solid red;"">","null","","","","","","","","","",""
"","image-keyboard-response","40","100703","0.0-40.0","3YGXWBAF713C77USTWK4WWHPTUS4CG","A37E36IPU0BJX5","37SDSEDIN9ORHL92Y0GV7TIFJ2X187","","719.1999999284744","img/food2.png","76","722.2000000476837","3","1","1","1","1,0.5,0,1,0.5,0,0.5,0,1","0,1,0.5,0,1,0.5,1,0.5,0","3","",""
"","html-keyboard-response","41","101010","0.0-41.0","3YGXWBAF713C77USTWK4WWHPTUS4CG","A37E36IPU0BJX5","37SDSEDIN9ORHL92Y0GV7TIFJ2X187","","null","<img src=""img/food2.png"" style=""width:200px; border:14px solid green;"">","null","","","","","","","","","",""
"","image-keyboard-response","42","101799","0.0-42.0","3YGXWBAF713C77USTWK4WWHPTUS4CG","A37E36IPU0BJX5","37SDSEDIN9ORHL92Y0GV7TIFJ2X187","","783.8999999761581","img/food3.png","76","788.5","3","0","3","1","1,0.5,0,1,0.5,0,0.5,0,1","0,1,0.5,0,1,0.5,1,0.5,0","3","",""
"","html-keyboard-response","43","102119","0.0-43.0","3YGXWBAF713C77USTWK4WWHPTUS4CG","A37E36IPU0BJX5","37SDSEDIN9ORHL92Y0GV7TIFJ2X187","","null","<img src=""img/food3.png"" style=""width:200px;border:14px solid red;"">","null","","","","","","","","","",""
"","image-keyboard-response","44","102989","0.0-44.0","3YGXWBAF713C77USTWK4WWHPTUS4CG","A37E36IPU0BJX5","37SDSEDIN9ORHL92Y0GV7TIFJ2X187","","866.5","img/food6.png","76","869.6999999284744","3","0","2","1","1,0.5,0,1,0.5,0,0.5,0,1","0,1,0.5,0,1,0.5,1,0.5,0","3","",""
"","html-keyboard-response","45","103306","0.0-45.0","3YGXWBAF713C77USTWK4WWHPTUS4CG","A37E36IPU0BJX5","37SDSEDIN9ORHL92Y0GV7TIFJ2X187","","null","<img src=""img/food6.png"" style=""width:200px;border:14px solid red;"">","null","","","","","","","","","",""
"","image-keyboard-response","46","104032","0.0-46.0","3YGXWBAF713C77USTWK4WWHPTUS4CG","A37E36IPU0BJX5","37SDSEDIN9ORHL92Y0GV7TIFJ2X187","","722.3999999761581","img/food2.png","76","725.5","3","0","1","1","1,0.5,0,1,0.5,0,0.5,0,1","0,1,0.5,0,1,0.5,1,0.5,0","3","",""
"","html-keyboard-response","47","104353","0.0-47.0","3YGXWBAF713C77USTWK4WWHPTUS4CG","A37E36IPU0BJX5","37SDSEDIN9ORHL92Y0GV7TIFJ2X187","","null","<img src=""img/food2.png"" style=""width:200px;border:14px solid red;"">","null","","","","","","","","","",""
"","image-keyboard-response","48","104725","0.0-48.0","3YGXWBAF713C77USTWK4WWHPTUS4CG","A37E36IPU0BJX5","37SDSEDIN9ORHL92Y0GV7TIFJ2X187","","367.8000000715256","img/food2.png","75","371.2999999523163","2","1","1","1","1,0.5,0,1,0.5,0,0.5,0,1","0,1,0.5,0,1,0.5,1,0.5,0","3","",""
"","html-keyboard-response","49","105040","0.0-49.0","3YGXWBAF713C77USTWK4WWHPTUS4CG","A37E36IPU0BJX5","37SDSEDIN9ORHL92Y0GV7TIFJ2X187","","null","<img src=""img/food2.png"" style=""width:200px; border:14px solid green;"">","null","","","","","","","","","",""
"","image-keyboard-response","50","105365","0.0-50.0","3YGXWBAF713C77USTWK4WWHPTUS4CG","A37E36IPU0BJX5","37SDSEDIN9ORHL92Y0GV7TIFJ2X187","","320.8000000715256","img/food2.png","75","323.89999997615814","2","1","1","1","1,0.5,0,1,0.5,0,0.5,0,1","0,1,0.5,0,1,0.5,1,0.5,0","3","",""
"","html-keyboard-response","51","105680","0.0-51.0","3YGXWBAF713C77USTWK4WWHPTUS4CG","A37E36IPU0BJX5","37SDSEDIN9ORHL92Y0GV7TIFJ2X187","","null","<img src=""img/food2.png"" style=""width:200px; border:14px solid green;"">","null","","","","","","","","","",""
"","image-keyboard-response","52","106001","0.0-52.0","3YGXWBAF713C77USTWK4WWHPTUS4CG","A37E36IPU0BJX5","37SDSEDIN9ORHL92Y0GV7TIFJ2X187","","316.7999999523163","img/food2.png","75","320","2","1","1","1","1,0.5,0,1,0.5,0,0.5,0,1","0,1,0.5,0,1,0.5,1,0.5,0","3","",""
"","html-keyboard-response","53","106321","0.0-53.0","3YGXWBAF713C77USTWK4WWHPTUS4CG","A37E36IPU0BJX5","37SDSEDIN9ORHL92Y0GV7TIFJ2X187","","null","<img src=""img/food2.png"" style=""width:200px; border:14px solid green;"">","null","","","","","","","","","",""
"","image-keyboard-response","54","106934","0.0-54.0","3YGXWBAF713C77USTWK4WWHPTUS4CG","A37E36IPU0BJX5","37SDSEDIN9ORHL92Y0GV7TIFJ2X187","","609","img/food3.png","75","612.5","2","1","3","1","1,0.5,0,1,0.5,0,0.5,0,1","0,1,0.5,0,1,0.5,1,0.5,0","3","",""
"","html-keyboard-response","55","107243","0.0-55.0","3YGXWBAF713C77USTWK4WWHPTUS4CG","A37E36IPU0BJX5","37SDSEDIN9ORHL92Y0GV7TIFJ2X187","","null","<img src=""img/food3.png"" style=""width:200px; border:14px solid green;"">","null","","","","","","","","","",""
"","image-keyboard-response","56","107669","0.0-56.0","3YGXWBAF713C77USTWK4WWHPTUS4CG","A37E36IPU0BJX5","37SDSEDIN9ORHL92Y0GV7TIFJ2X187","","419.1999999284744","img/food2.png","75","422.5","2","1","1","1","1,0.5,0,1,0.5,0,0.5,0,1","0,1,0.5,0,1,0.5,1,0.5,0","3","",""
"","html-keyboard-response","57","107977","0.0-57.0","3YGXWBAF713C77USTWK4WWHPTUS4CG","A37E36IPU0BJX5","37SDSEDIN9ORHL92Y0GV7TIFJ2X187","","null","<img src=""img/food2.png"" style=""width:200px; border:14px solid green;"">","null","","","","","","","","","",""
"","image-keyboard-response","58","108682","0.0-58.0","3YGXWBAF713C77USTWK4WWHPTUS4CG","A37E36IPU0BJX5","37SDSEDIN9ORHL92Y0GV7TIFJ2X187","","700.4000000953674","img/food6.png","75","703.5","2","1","2","1","1,0.5,0,1,0.5,0,0.5,0,1","0,1,0.5,0,1,0.5,1,0.5,0","3","",""
"","html-keyboard-response","59","108987","0.0-59.0","3YGXWBAF713C77USTWK4WWHPTUS4CG","A37E36IPU0BJX5","37SDSEDIN9ORHL92Y0GV7TIFJ2X187","","null","<img src=""img/food6.png"" style=""width:200px; border:14px solid green;"">","null","","","","","","","","","",""
"","image-keyboard-response","60","109352","0.0-60.0","3YGXWBAF713C77USTWK4WWHPTUS4CG","A37E36IPU0BJX5","37SDSEDIN9ORHL92Y0GV7TIFJ2X187","","360.7999999523163","img/food3.png","75","364.2999999523163","2","0","3","1","1,0.5,0,1,0.5,0,0.5,0,1","0,1,0.5,0,1,0.5,1,0.5,0","3","",""
"","html-keyboard-response","61","109659","0.0-61.0","3YGXWBAF713C77USTWK4WWHPTUS4CG","A37E36IPU0BJX5","37SDSEDIN9ORHL92Y0GV7TIFJ2X187","","null","<img src=""img/food3.png"" style=""width:200px;border:14px solid red;"">","null","","","","","","","","","",""
"","image-keyboard-response","62","110023","0.0-62.0","3YGXWBAF713C77USTWK4WWHPTUS4CG","A37E36IPU0BJX5","37SDSEDIN9ORHL92Y0GV7TIFJ2X187","","358.6999999284744","img/food2.png","74","363.39999997615814","1","0","1","1","1,0.5,0,1,0.5,0,0.5,0,1","0,1,0.5,0,1,0.5,1,0.5,0","3","",""
"","html-keyboard-response","63","110330","0.0-63.0","3YGXWBAF713C77USTWK4WWHPTUS4CG","A37E36IPU0BJX5","37SDSEDIN9ORHL92Y0GV7TIFJ2X187","","null","<img src=""img/food2.png"" style=""width:200px;border:14px solid red;"">","null","","","","","","","","","",""
"","image-keyboard-response","64","110835","0.0-64.0","3YGXWBAF713C77USTWK4WWHPTUS4CG","A37E36IPU0BJX5","37SDSEDIN9ORHL92Y0GV7TIFJ2X187","","500.8000000715256","img/food6.png","76","504.59999990463257","3","0","2","1","1,0.5,0,1,0.5,0,0.5,0,1","0,1,0.5,0,1,0.5,1,0.5,0","3","",""
"","html-keyboard-response","65","111142","0.0-65.0","3YGXWBAF713C77USTWK4WWHPTUS4CG","A37E36IPU0BJX5","37SDSEDIN9ORHL92Y0GV7TIFJ2X187","","null","<img src=""img/food6.png"" style=""width:200px;border:14px solid red;"">","null","","","","","","","","","",""
"","image-keyboard-response","66","111456","0.0-66.0","3YGXWBAF713C77USTWK4WWHPTUS4CG","A37E36IPU0BJX5","37SDSEDIN9ORHL92Y0GV7TIFJ2X187","","309.2000000476837","img/food3.png","75","312.59999990463257","2","1","3","1","1,0.5,0,1,0.5,0,0.5,0,1","0,1,0.5,0,1,0.5,1,0.5,0","3","",""
"","html-keyboard-response","67","111763","0.0-67.0","3YGXWBAF713C77USTWK4WWHPTUS4CG","A37E36IPU0BJX5","37SDSEDIN9ORHL92Y0GV7TIFJ2X187","","null","<img src=""img/food3.png"" style=""width:200px; border:14px solid green;"">","null","","","","","","","","","",""
"","image-keyboard-response","68","112096","0.0-68.0","3YGXWBAF713C77USTWK4WWHPTUS4CG","A37E36IPU0BJX5","37SDSEDIN9ORHL92Y0GV7TIFJ2X187","","328.39999997615814","img/food3.png","75","331.7999999523163","2","1","3","1","1,0.5,0,1,0.5,0,0.5,0,1","0,1,0.5,0,1,0.5,1,0.5,0","3","",""
"","html-keyboard-response","69","112404","0.0-69.0","3YGXWBAF713C77USTWK4WWHPTUS4CG","A37E36IPU0BJX5","37SDSEDIN9ORHL92Y0GV7TIFJ2X187","","null","<img src=""img/food3.png"" style=""width:200px; border:14px solid green;"">","null","","","","","","","","","",""
"","image-keyboard-response","70","112916","0.0-70.0","3YGXWBAF713C77USTWK4WWHPTUS4CG","A37E36IPU0BJX5","37SDSEDIN9ORHL92Y0GV7TIFJ2X187","","508.5","img/food2.png","75","511.60000002384186","2","1","1","1","1,0.5,0,1,0.5,0,0.5,0,1","0,1,0.5,0,1,0.5,1,0.5,0","3","",""
"","html-keyboard-response","71","113232","0.0-71.0","3YGXWBAF713C77USTWK4WWHPTUS4CG","A37E36IPU0BJX5","37SDSEDIN9ORHL92Y0GV7TIFJ2X187","","null","<img src=""img/food2.png"" style=""width:200px; border:14px solid green;"">","null","","","","","","","","","",""
"","image-keyboard-response","72","113539","0.0-72.0","3YGXWBAF713C77USTWK4WWHPTUS4CG","A37E36IPU0BJX5","37SDSEDIN9ORHL92Y0GV7TIFJ2X187","","303.2999999523163","img/food3.png","75","306.39999997615814","2","0","3","1","1,0.5,0,1,0.5,0,0.5,0,1","0,1,0.5,0,1,0.5,1,0.5,0","3","",""
"","html-keyboard-response","73","113857","0.0-73.0","3YGXWBAF713C77USTWK4WWHPTUS4CG","A37E36IPU0BJX5","37SDSEDIN9ORHL92Y0GV7TIFJ2X187","","null","<img src=""img/food3.png"" style=""width:200px;border:14px solid red;"">","null","","","","","","","","","",""
"","image-keyboard-response","74","114200","0.0-74.0","3YGXWBAF713C77USTWK4WWHPTUS4CG","A37E36IPU0BJX5","37SDSEDIN9ORHL92Y0GV7TIFJ2X187","","339.5","img/food6.png","74","342.7999999523163","1","0","2","1","1,0.5,0,1,0.5,0,0.5,0,1","0,1,0.5,0,1,0.5,1,0.5,0","3","",""
"","html-keyboard-response","75","114513","0.0-75.0","3YGXWBAF713C77USTWK4WWHPTUS4CG","A37E36IPU0BJX5","37SDSEDIN9ORHL92Y0GV7TIFJ2X187","","null","<img src=""img/food6.png"" style=""width:200px;border:14px solid red;"">","null","","","","","","","","","",""
"","image-keyboard-response","76","114814","0.0-76.0","3YGXWBAF713C77USTWK4WWHPTUS4CG","A37E36IPU0BJX5","37SDSEDIN9ORHL92Y0GV7TIFJ2X187","","298.10000002384186","img/food2.png","75","301.1999999284744","2","1","1","1","1,0.5,0,1,0.5,0,0.5,0,1","0,1,0.5,0,1,0.5,1,0.5,0","3","",""
"","html-keyboard-response","77","115122","0.0-77.0","3YGXWBAF713C77USTWK4WWHPTUS4CG","A37E36IPU0BJX5","37SDSEDIN9ORHL92Y0GV7TIFJ2X187","","null","<img src=""img/food2.png"" style=""width:200px; border:14px solid green;"">","null","","","","","","","","","",""
"","image-keyboard-response","78","115464","0.0-78.0","3YGXWBAF713C77USTWK4WWHPTUS4CG","A37E36IPU0BJX5","37SDSEDIN9ORHL92Y0GV7TIFJ2X187","","338","img/food2.png","75","341.10000002384186","2","1","1","1","1,0.5,0,1,0.5,0,0.5,0,1","0,1,0.5,0,1,0.5,1,0.5,0","3","",""
"","html-keyboard-response","79","115778","0.0-79.0","3YGXWBAF713C77USTWK4WWHPTUS4CG","A37E36IPU0BJX5","37SDSEDIN9ORHL92Y0GV7TIFJ2X187","","null","<img src=""img/food2.png"" style=""width:200px; border:14px solid green;"">","null","","","","","","","","","",""
"","image-keyboard-response","80","116220","0.0-80.0","3YGXWBAF713C77USTWK4WWHPTUS4CG","A37E36IPU0BJX5","37SDSEDIN9ORHL92Y0GV7TIFJ2X187","","438.2999999523163","img/food3.png","75","441.5","2","0","3","1","1,0.5,0,1,0.5,0,0.5,0,1","0,1,0.5,0,1,0.5,1,0.5,0","3","",""
"","html-keyboard-response","81","116528","0.0-81.0","3YGXWBAF713C77USTWK4WWHPTUS4CG","A37E36IPU0BJX5","37SDSEDIN9ORHL92Y0GV7TIFJ2X187","","null","<img src=""img/food3.png"" style=""width:200px;border:14px solid red;"">","null","","","","","","","","","",""
"","image-keyboard-response","82","116835","0.0-82.0","3YGXWBAF713C77USTWK4WWHPTUS4CG","A37E36IPU0BJX5","37SDSEDIN9ORHL92Y0GV7TIFJ2X187","","303.2999999523163","img/food6.png","76","306.5","3","0","2","1","1,0.5,0,1,0.5,0,0.5,0,1","0,1,0.5,0,1,0.5,1,0.5,0","3","",""
"","html-keyboard-response","83","117169","0.0-83.0","3YGXWBAF713C77USTWK4WWHPTUS4CG","A37E36IPU0BJX5","37SDSEDIN9ORHL92Y0GV7TIFJ2X187","","null","<img src=""img/food6.png"" style=""width:200px;border:14px solid red;"">","null","","","","","","","","","",""
"","image-keyboard-response","84","117509","0.0-84.0","3YGXWBAF713C77USTWK4WWHPTUS4CG","A37E36IPU0BJX5","37SDSEDIN9ORHL92Y0GV7TIFJ2X187","","336.2000000476837","img/food6.png","75","339.7000000476837","2","1","2","1","1,0.5,0,1,0.5,0,0.5,0,1","0,1,0.5,0,1,0.5,1,0.5,0","3","",""
"","html-keyboard-response","85","117817","0.0-85.0","3YGXWBAF713C77USTWK4WWHPTUS4CG","A37E36IPU0BJX5","37SDSEDIN9ORHL92Y0GV7TIFJ2X187","","null","<img src=""img/food6.png"" style=""width:200px; border:14px solid green;"">","null","","","","","","","","","",""
"","image-keyboard-response","86","118228","0.0-86.0","3YGXWBAF713C77USTWK4WWHPTUS4CG","A37E36IPU0BJX5","37SDSEDIN9ORHL92Y0GV7TIFJ2X187","","407.2999999523163","img/food3.png","75","410.59999990463257","2","1","3","1","1,0.5,0,1,0.5,0,0.5,0,1","0,1,0.5,0,1,0.5,1,0.5,0","3","",""
"","html-keyboard-response","87","118535","0.0-87.0","3YGXWBAF713C77USTWK4WWHPTUS4CG","A37E36IPU0BJX5","37SDSEDIN9ORHL92Y0GV7TIFJ2X187","","null","<img src=""img/food3.png"" style=""width:200px; border:14px solid green;"">","null","","","","","","","","","",""
"","image-keyboard-response","88","120092","0.0-88.0","3YGXWBAF713C77USTWK4WWHPTUS4CG","A37E36IPU0BJX5","37SDSEDIN9ORHL92Y0GV7TIFJ2X187","","1552.7999999523163","img/food6.png","75","1556.2000000476837","2","1","2","1","1,0.5,0,1,0.5,0,0.5,0,1","0,1,0.5,0,1,0.5,1,0.5,0","3","",""
"","html-keyboard-response","89","120399","0.0-89.0","3YGXWBAF713C77USTWK4WWHPTUS4CG","A37E36IPU0BJX5","37SDSEDIN9ORHL92Y0GV7TIFJ2X187","","null","<img src=""img/food6.png"" style=""width:200px; border:14px solid green;"">","null","","","","","","","","","",""
"","image-keyboard-response","90","121578","0.0-90.0","3YGXWBAF713C77USTWK4WWHPTUS4CG","A37E36IPU0BJX5","37SDSEDIN9ORHL92Y0GV7TIFJ2X187","","1175","img/food3.png","75","1178.2000000476837","2","0","3","1","1,0.5,0,1,0.5,0,0.5,0,1","0,1,0.5,0,1,0.5,1,0.5,0","3","",""
"","html-keyboard-response","91","121884","0.0-91.0","3YGXWBAF713C77USTWK4WWHPTUS4CG","A37E36IPU0BJX5","37SDSEDIN9ORHL92Y0GV7TIFJ2X187","","null","<img src=""img/food3.png"" style=""width:200px;border:14px solid red;"">","null","","","","","","","","","",""
"","image-keyboard-response","92","123354","0.0-92.0","3YGXWBAF713C77USTWK4WWHPTUS4CG","A37E36IPU0BJX5","37SDSEDIN9ORHL92Y0GV7TIFJ2X187","","1466.1000000238419","img/food2.png","76","1469.5","3","1","1","1","1,0.5,0,1,0.5,0,0.5,0,1","0,1,0.5,0,1,0.5,1,0.5,0","3","",""
"","html-keyboard-response","93","123664","0.0-93.0","3YGXWBAF713C77USTWK4WWHPTUS4CG","A37E36IPU0BJX5","37SDSEDIN9ORHL92Y0GV7TIFJ2X187","","null","<img src=""img/food2.png"" style=""width:200px; border:14px solid green;"">","null","","","","","","","","","",""
"","image-keyboard-response","94","125511","0.0-94.0","3YGXWBAF713C77USTWK4WWHPTUS4CG","A37E36IPU0BJX5","37SDSEDIN9ORHL92Y0GV7TIFJ2X187","","1844","img/food3.png","76","1847","3","0","3","1","1,0.5,0,1,0.5,0,0.5,0,1","0,1,0.5,0,1,0.5,1,0.5,0","3","",""
"","html-keyboard-response","95","125819","0.0-95.0","3YGXWBAF713C77USTWK4WWHPTUS4CG","A37E36IPU0BJX5","37SDSEDIN9ORHL92Y0GV7TIFJ2X187","","null","<img src=""img/food3.png"" style=""width:200px;border:14px solid red;"">","null","","","","","","","","","",""
"","image-keyboard-response","96","126518","0.0-96.0","3YGXWBAF713C77USTWK4WWHPTUS4CG","A37E36IPU0BJX5","37SDSEDIN9ORHL92Y0GV7TIFJ2X187","","695.6000000238419","img/food3.png","75","698.6000000238419","2","1","3","1","1,0.5,0,1,0.5,0,0.5,0,1","0,1,0.5,0,1,0.5,1,0.5,0","3","",""
"","html-keyboard-response","97","126835","0.0-97.0","3YGXWBAF713C77USTWK4WWHPTUS4CG","A37E36IPU0BJX5","37SDSEDIN9ORHL92Y0GV7TIFJ2X187","","null","<img src=""img/food3.png"" style=""width:200px; border:14px solid green;"">","null","","","","","","","","","",""
"","image-keyboard-response","98","128451","0.0-98.0","3YGXWBAF713C77USTWK4WWHPTUS4CG","A37E36IPU0BJX5","37SDSEDIN9ORHL92Y0GV7TIFJ2X187","","1612.3000000715256","img/food2.png","75","1615.5999999046326","2","1","1","1","1,0.5,0,1,0.5,0,0.5,0,1","0,1,0.5,0,1,0.5,1,0.5,0","3","",""
"","html-keyboard-response","99","128756","0.0-99.0","3YGXWBAF713C77USTWK4WWHPTUS4CG","A37E36IPU0BJX5","37SDSEDIN9ORHL92Y0GV7TIFJ2X187","","null","<img src=""img/food2.png"" style=""width:200px; border:14px solid green;"">","null","","","","","","","","","",""
"","image-keyboard-response","100","130168","0.0-100.0","3YGXWBAF713C77USTWK4WWHPTUS4CG","A37E36IPU0BJX5","37SDSEDIN9ORHL92Y0GV7TIFJ2X187","","1406.6000000238419","img/food3.png","76","1411.1999999284744","3","0","3","1","1,0.5,0,1,0.5,0,0.5,0,1","0,1,0.5,0,1,0.5,1,0.5,0","3","",""
"","html-keyboard-response","101","130475","0.0-101.0","3YGXWBAF713C77USTWK4WWHPTUS4CG","A37E36IPU0BJX5","37SDSEDIN9ORHL92Y0GV7TIFJ2X187","","null","<img src=""img/food3.png"" style=""width:200px;border:14px solid red;"">","null","","","","","","","","","",""
"","image-keyboard-response","102","131130","0.0-102.0","3YGXWBAF713C77USTWK4WWHPTUS4CG","A37E36IPU0BJX5","37SDSEDIN9ORHL92Y0GV7TIFJ2X187","","651.3000000715256","img/food6.png","75","654.7000000476837","2","1","2","1","1,0.5,0,1,0.5,0,0.5,0,1","0,1,0.5,0,1,0.5,1,0.5,0","3","",""
"","html-keyboard-response","103","131444","0.0-103.0","3YGXWBAF713C77USTWK4WWHPTUS4CG","A37E36IPU0BJX5","37SDSEDIN9ORHL92Y0GV7TIFJ2X187","","null","<img src=""img/food6.png"" style=""width:200px; border:14px solid green;"">","null","","","","","","","","","",""
"","image-keyboard-response","104","132028","0.0-104.0","3YGXWBAF713C77USTWK4WWHPTUS4CG","A37E36IPU0BJX5","37SDSEDIN9ORHL92Y0GV7TIFJ2X187","","579.3000000715256","img/food6.png","75","582.7999999523163","2","1","2","1","1,0.5,0,1,0.5,0,0.5,0,1","0,1,0.5,0,1,0.5,1,0.5,0","3","",""
"","html-keyboard-response","105","132333","0.0-105.0","3YGXWBAF713C77USTWK4WWHPTUS4CG","A37E36IPU0BJX5","37SDSEDIN9ORHL92Y0GV7TIFJ2X187","","null","<img src=""img/food6.png"" style=""width:200px; border:14px solid green;"">","null","","","","","","","","","",""
"","image-keyboard-response","106","132770","0.0-106.0","3YGXWBAF713C77USTWK4WWHPTUS4CG","A37E36IPU0BJX5","37SDSEDIN9ORHL92Y0GV7TIFJ2X187","","433","img/food6.png","75","436.5","2","1","2","1","1,0.5,0,1,0.5,0,0.5,0,1","0,1,0.5,0,1,0.5,1,0.5,0","3","",""
"","html-keyboard-response","107","133083","0.0-107.0","3YGXWBAF713C77USTWK4WWHPTUS4CG","A37E36IPU0BJX5","37SDSEDIN9ORHL92Y0GV7TIFJ2X187","","null","<img src=""img/food6.png"" style=""width:200px; border:14px solid green;"">","null","","","","","","","","","",""
"","image-keyboard-response","108","134125","0.0-108.0","3YGXWBAF713C77USTWK4WWHPTUS4CG","A37E36IPU0BJX5","37SDSEDIN9ORHL92Y0GV7TIFJ2X187","","1039.1000000238419","img/food2.png","75","1042.3999999761581","2","1","1","1","1,0.5,0,1,0.5,0,0.5,0,1","0,1,0.5,0,1,0.5,1,0.5,0","3","",""
"","html-keyboard-response","109","134445","0.0-109.0","3YGXWBAF713C77USTWK4WWHPTUS4CG","A37E36IPU0BJX5","37SDSEDIN9ORHL92Y0GV7TIFJ2X187","","null","<img src=""img/food2.png"" style=""width:200px; border:14px solid green;"">","null","","","","","","","","","",""
"","image-keyboard-response","110","136094","0.0-110.0","3YGXWBAF713C77USTWK4WWHPTUS4CG","A37E36IPU0BJX5","37SDSEDIN9ORHL92Y0GV7TIFJ2X187","","1644.8999999761581","img/food6.png","74","1648.3999999761581","1","0","2","1","1,0.5,0,1,0.5,0,0.5,0,1","0,1,0.5,0,1,0.5,1,0.5,0","3","",""
"","html-keyboard-response","111","136418","0.0-111.0","3YGXWBAF713C77USTWK4WWHPTUS4CG","A37E36IPU0BJX5","37SDSEDIN9ORHL92Y0GV7TIFJ2X187","","null","<img src=""img/food6.png"" style=""width:200px;border:14px solid red;"">","null","","","","","","","","","",""
"","image-keyboard-response","112","137422","0.0-112.0","3YGXWBAF713C77USTWK4WWHPTUS4CG","A37E36IPU0BJX5","37SDSEDIN9ORHL92Y0GV7TIFJ2X187","","1000","img/food2.png","75","1002.8999999761581","2","1","1","1","1,0.5,0,1,0.5,0,0.5,0,1","0,1,0.5,0,1,0.5,1,0.5,0","3","",""
"","html-keyboard-response","113","137736","0.0-113.0","3YGXWBAF713C77USTWK4WWHPTUS4CG","A37E36IPU0BJX5","37SDSEDIN9ORHL92Y0GV7TIFJ2X187","","null","<img src=""img/food2.png"" style=""width:200px; border:14px solid green;"">","null","","","","","","","","","",""
"","image-keyboard-response","114","138117","0.0-114.0","3YGXWBAF713C77USTWK4WWHPTUS4CG","A37E36IPU0BJX5","37SDSEDIN9ORHL92Y0GV7TIFJ2X187","","377.2000000476837","img/food2.png","75","380.1999999284744","2","1","1","1","1,0.5,0,1,0.5,0,0.5,0,1","0,1,0.5,0,1,0.5,1,0.5,0","3","",""
"","html-keyboard-response","115","138437","0.0-115.0","3YGXWBAF713C77USTWK4WWHPTUS4CG","A37E36IPU0BJX5","37SDSEDIN9ORHL92Y0GV7TIFJ2X187","","null","<img src=""img/food2.png"" style=""width:200px; border:14px solid green;"">","null","","","","","","","","","",""
"","image-keyboard-response","116","139314","0.0-116.0","3YGXWBAF713C77USTWK4WWHPTUS4CG","A37E36IPU0BJX5","37SDSEDIN9ORHL92Y0GV7TIFJ2X187","","873.3999999761581","img/food6.png","76","876.3999999761581","3","1","2","1","1,0.5,0,1,0.5,0,0.5,0,1","0,1,0.5,0,1,0.5,1,0.5,0","3","",""
"","html-keyboard-response","117","139624","0.0-117.0","3YGXWBAF713C77USTWK4WWHPTUS4CG","A37E36IPU0BJX5","37SDSEDIN9ORHL92Y0GV7TIFJ2X187","","null","<img src=""img/food6.png"" style=""width:200px; border:14px solid green;"">","null","","","","","","","","","",""
"","image-keyboard-response","118","140073","0.0-118.0","3YGXWBAF713C77USTWK4WWHPTUS4CG","A37E36IPU0BJX5","37SDSEDIN9ORHL92Y0GV7TIFJ2X187","","444.59999990463257","img/food6.png","76","448.10000002384186","3","1","2","1","1,0.5,0,1,0.5,0,0.5,0,1","0,1,0.5,0,1,0.5,1,0.5,0","3","",""
"","html-keyboard-response","119","140386","0.0-119.0","3YGXWBAF713C77USTWK4WWHPTUS4CG","A37E36IPU0BJX5","37SDSEDIN9ORHL92Y0GV7TIFJ2X187","","null","<img src=""img/food6.png"" style=""width:200px; border:14px solid green;"">","null","","","","","","","","","",""
"","image-keyboard-response","120","140765","0.0-120.0","3YGXWBAF713C77USTWK4WWHPTUS4CG","A37E36IPU0BJX5","37SDSEDIN9ORHL92Y0GV7TIFJ2X187","","375.40000009536743","img/food6.png","76","378.60000002384186","3","1","2","1","1,0.5,0,1,0.5,0,0.5,0,1","0,1,0.5,0,1,0.5,1,0.5,0","3","",""
"","html-keyboard-response","121","141071","0.0-121.0","3YGXWBAF713C77USTWK4WWHPTUS4CG","A37E36IPU0BJX5","37SDSEDIN9ORHL92Y0GV7TIFJ2X187","","null","<img src=""img/food6.png"" style=""width:200px; border:14px solid green;"">","null","","","","","","","","","",""
"","image-keyboard-response","122","141650","0.0-122.0","3YGXWBAF713C77USTWK4WWHPTUS4CG","A37E36IPU0BJX5","37SDSEDIN9ORHL92Y0GV7TIFJ2X187","","573.8999999761581","img/food3.png","76","578.6000000238419","3","0","3","1","1,0.5,0,1,0.5,0,0.5,0,1","0,1,0.5,0,1,0.5,1,0.5,0","3","",""
"","html-keyboard-response","123","141955","0.0-123.0","3YGXWBAF713C77USTWK4WWHPTUS4CG","A37E36IPU0BJX5","37SDSEDIN9ORHL92Y0GV7TIFJ2X187","","null","<img src=""img/food3.png"" style=""width:200px;border:14px solid red;"">","null","","","","","","","","","",""
"","image-keyboard-response","124","142314","0.0-124.0","3YGXWBAF713C77USTWK4WWHPTUS4CG","A37E36IPU0BJX5","37SDSEDIN9ORHL92Y0GV7TIFJ2X187","","354.89999997615814","img/food3.png","75","358","2","0","3","1","1,0.5,0,1,0.5,0,0.5,0,1","0,1,0.5,0,1,0.5,1,0.5,0","3","",""
"","html-keyboard-response","125","142625","0.0-125.0","3YGXWBAF713C77USTWK4WWHPTUS4CG","A37E36IPU0BJX5","37SDSEDIN9ORHL92Y0GV7TIFJ2X187","","null","<img src=""img/food3.png"" style=""width:200px;border:14px solid red;"">","null","","","","","","","","","",""
"","image-keyboard-response","126","142996","0.0-126.0","3YGXWBAF713C77USTWK4WWHPTUS4CG","A37E36IPU0BJX5","37SDSEDIN9ORHL92Y0GV7TIFJ2X187","","367.8000000715256","img/food3.png","76","371","3","0","3","1","1,0.5,0,1,0.5,0,0.5,0,1","0,1,0.5,0,1,0.5,1,0.5,0","3","",""
"","html-keyboard-response","127","143302","0.0-127.0","3YGXWBAF713C77USTWK4WWHPTUS4CG","A37E36IPU0BJX5","37SDSEDIN9ORHL92Y0GV7TIFJ2X187","","null","<img src=""img/food3.png"" style=""width:200px;border:14px solid red;"">","null","","","","","","","","","",""
"","image-keyboard-response","128","143817","0.0-128.0","3YGXWBAF713C77USTWK4WWHPTUS4CG","A37E36IPU0BJX5","37SDSEDIN9ORHL92Y0GV7TIFJ2X187","","509.40000009536743","img/food6.png","75","514.1000000238419","2","1","2","1","1,0.5,0,1,0.5,0,0.5,0,1","0,1,0.5,0,1,0.5,1,0.5,0","3","",""
"","html-keyboard-response","129","144125","0.0-129.0","3YGXWBAF713C77USTWK4WWHPTUS4CG","A37E36IPU0BJX5","37SDSEDIN9ORHL92Y0GV7TIFJ2X187","","null","<img src=""img/food6.png"" style=""width:200px; border:14px solid green;"">","null","","","","","","","","","",""
"","image-keyboard-response","130","144516","0.0-130.0","3YGXWBAF713C77USTWK4WWHPTUS4CG","A37E36IPU0BJX5","37SDSEDIN9ORHL92Y0GV7TIFJ2X187","","388.10000002384186","img/food2.png","75","390.60000002384186","2","1","1","1","1,0.5,0,1,0.5,0,0.5,0,1","0,1,0.5,0,1,0.5,1,0.5,0","3","",""
"","html-keyboard-response","131","144823","0.0-131.0","3YGXWBAF713C77USTWK4WWHPTUS4CG","A37E36IPU0BJX5","37SDSEDIN9ORHL92Y0GV7TIFJ2X187","","null","<img src=""img/food2.png"" style=""width:200px; border:14px solid green;"">","null","","","","","","","","","",""
"","image-keyboard-response","132","145159","0.0-132.0","3YGXWBAF713C77USTWK4WWHPTUS4CG","A37E36IPU0BJX5","37SDSEDIN9ORHL92Y0GV7TIFJ2X187","","332.6999999284744","img/food2.png","75","337.60000002384186","2","1","1","1","1,0.5,0,1,0.5,0,0.5,0,1","0,1,0.5,0,1,0.5,1,0.5,0","3","",""
"","html-keyboard-response","133","145481","0.0-133.0","3YGXWBAF713C77USTWK4WWHPTUS4CG","A37E36IPU0BJX5","37SDSEDIN9ORHL92Y0GV7TIFJ2X187","","null","<img src=""img/food2.png"" style=""width:200px; border:14px solid green;"">","null","","","","","","","","","",""
"","image-keyboard-response","134","145799","0.0-134.0","3YGXWBAF713C77USTWK4WWHPTUS4CG","A37E36IPU0BJX5","37SDSEDIN9ORHL92Y0GV7TIFJ2X187","","313.1999999284744","img/food3.png","75","317.5","2","1","3","1","1,0.5,0,1,0.5,0,0.5,0,1","0,1,0.5,0,1,0.5,1,0.5,0","3","",""
"","html-keyboard-response","135","146105","0.0-135.0","3YGXWBAF713C77USTWK4WWHPTUS4CG","A37E36IPU0BJX5","37SDSEDIN9ORHL92Y0GV7TIFJ2X187","","null","<img src=""img/food3.png"" style=""width:200px; border:14px solid green;"">","null","","","","","","","","","",""
"","image-keyboard-response","136","147078","0.0-136.0","3YGXWBAF713C77USTWK4WWHPTUS4CG","A37E36IPU0BJX5","37SDSEDIN9ORHL92Y0GV7TIFJ2X187","","968.1999999284744","img/food6.png","74","971.2999999523163","1","0","2","1","1,0.5,0,1,0.5,0,0.5,0,1","0,1,0.5,0,1,0.5,1,0.5,0","3","",""
"","html-keyboard-response","137","147397","0.0-137.0","3YGXWBAF713C77USTWK4WWHPTUS4CG","A37E36IPU0BJX5","37SDSEDIN9ORHL92Y0GV7TIFJ2X187","","null","<img src=""img/food6.png"" style=""width:200px;border:14px solid red;"">","null","","","","","","","","","",""
"","image-keyboard-response","138","147773","0.0-138.0","3YGXWBAF713C77USTWK4WWHPTUS4CG","A37E36IPU0BJX5","37SDSEDIN9ORHL92Y0GV7TIFJ2X187","","371.7999999523163","img/food3.png","75","375.7999999523163","2","1","3","1","1,0.5,0,1,0.5,0,0.5,0,1","0,1,0.5,0,1,0.5,1,0.5,0","3","",""
"","html-keyboard-response","139","148084","0.0-139.0","3YGXWBAF713C77USTWK4WWHPTUS4CG","A37E36IPU0BJX5","37SDSEDIN9ORHL92Y0GV7TIFJ2X187","","null","<img src=""img/food3.png"" style=""width:200px; border:14px solid green;"">","null","","","","","","","","","",""
"","image-keyboard-response","140","150740","0.0-140.0","3YGXWBAF713C77USTWK4WWHPTUS4CG","A37E36IPU0BJX5","37SDSEDIN9ORHL92Y0GV7TIFJ2X187","","2651.5","img/food2.png","75","2655.2000000476837","2","1","1","1","1,0.5,0,1,0.5,0,0.5,0,1","0,1,0.5,0,1,0.5,1,0.5,0","3","",""
"","html-keyboard-response","141","151046","0.0-141.0","3YGXWBAF713C77USTWK4WWHPTUS4CG","A37E36IPU0BJX5","37SDSEDIN9ORHL92Y0GV7TIFJ2X187","","null","<img src=""img/food2.png"" style=""width:200px; border:14px solid green;"">","null","","","","","","","","","",""
"","image-keyboard-response","142","151861","0.0-142.0","3YGXWBAF713C77USTWK4WWHPTUS4CG","A37E36IPU0BJX5","37SDSEDIN9ORHL92Y0GV7TIFJ2X187","","811.7000000476837","img/food3.png","75","814.8999999761581","2","0","3","1","1,0.5,0,1,0.5,0,0.5,0,1","0,1,0.5,0,1,0.5,1,0.5,0","3","",""
"","html-keyboard-response","143","152170","0.0-143.0","3YGXWBAF713C77USTWK4WWHPTUS4CG","A37E36IPU0BJX5","37SDSEDIN9ORHL92Y0GV7TIFJ2X187","","null","<img src=""img/food3.png"" style=""width:200px;border:14px solid red;"">","null","","","","","","","","","",""
"","image-keyboard-response","144","153216","0.0-144.0","3YGXWBAF713C77USTWK4WWHPTUS4CG","A37E36IPU0BJX5","37SDSEDIN9ORHL92Y0GV7TIFJ2X187","","1041.2000000476837","img/food6.png","76","1044.6000000238419","3","0","2","1","1,0.5,0,1,0.5,0,0.5,0,1","0,1,0.5,0,1,0.5,1,0.5,0","3","",""
"","html-keyboard-response","145","153526","0.0-145.0","3YGXWBAF713C77USTWK4WWHPTUS4CG","A37E36IPU0BJX5","37SDSEDIN9ORHL92Y0GV7TIFJ2X187","","null","<img src=""img/food6.png"" style=""width:200px;border:14px solid red;"">","null","","","","","","","","","",""
"","image-keyboard-response","146","154450","0.0-146.0","3YGXWBAF713C77USTWK4WWHPTUS4CG","A37E36IPU0BJX5","37SDSEDIN9ORHL92Y0GV7TIFJ2X187","","919.5","img/food2.png","76","923","3","1","1","1","1,0.5,0,1,0.5,0,0.5,0,1","0,1,0.5,0,1,0.5,1,0.5,0","3","",""
"","html-keyboard-response","147","154759","0.0-147.0","3YGXWBAF713C77USTWK4WWHPTUS4CG","A37E36IPU0BJX5","37SDSEDIN9ORHL92Y0GV7TIFJ2X187","","null","<img src=""img/food2.png"" style=""width:200px; border:14px solid green;"">","null","","","","","","","","","",""
"","image-keyboard-response","148","156438","0.0-148.0","3YGXWBAF713C77USTWK4WWHPTUS4CG","A37E36IPU0BJX5","37SDSEDIN9ORHL92Y0GV7TIFJ2X187","","1674.0999999046326","img/food6.png","76","1678.2000000476837","3","0","2","1","1,0.5,0,1,0.5,0,0.5,0,1","0,1,0.5,0,1,0.5,1,0.5,0","3","",""
"","html-keyboard-response","149","156744","0.0-149.0","3YGXWBAF713C77USTWK4WWHPTUS4CG","A37E36IPU0BJX5","37SDSEDIN9ORHL92Y0GV7TIFJ2X187","","null","<img src=""img/food6.png"" style=""width:200px;border:14px solid red;"">","null","","","","","","","","","",""
"","image-keyboard-response","150","158073","0.0-150.0","3YGXWBAF713C77USTWK4WWHPTUS4CG","A37E36IPU0BJX5","37SDSEDIN9ORHL92Y0GV7TIFJ2X187","","1324.7999999523163","img/food3.png","75","1328","2","0","3","1","1,0.5,0,1,0.5,0,0.5,0,1","0,1,0.5,0,1,0.5,1,0.5,0","3","",""
"","html-keyboard-response","151","158385","0.0-151.0","3YGXWBAF713C77USTWK4WWHPTUS4CG","A37E36IPU0BJX5","37SDSEDIN9ORHL92Y0GV7TIFJ2X187","","null","<img src=""img/food3.png"" style=""width:200px;border:14px solid red;"">","null","","","","","","","","","",""
"","image-keyboard-response","152","160218","0.0-152.0","3YGXWBAF713C77USTWK4WWHPTUS4CG","A37E36IPU0BJX5","37SDSEDIN9ORHL92Y0GV7TIFJ2X187","","1825","img/food6.png","76","1828.2999999523163","3","1","2","1","1,0.5,0,1,0.5,0,0.5,0,1","0,1,0.5,0,1,0.5,1,0.5,0","3","",""
"","html-keyboard-response","153","160524","0.0-153.0","3YGXWBAF713C77USTWK4WWHPTUS4CG","A37E36IPU0BJX5","37SDSEDIN9ORHL92Y0GV7TIFJ2X187","","null","<img src=""img/food6.png"" style=""width:200px; border:14px solid green;"">","null","","","","","","","","","",""
"","image-keyboard-response","154","161645","0.0-154.0","3YGXWBAF713C77USTWK4WWHPTUS4CG","A37E36IPU0BJX5","37SDSEDIN9ORHL92Y0GV7TIFJ2X187","","1117.1000000238419","img/food3.png","75","1120.1000000238419","2","0","3","1","1,0.5,0,1,0.5,0,0.5,0,1","0,1,0.5,0,1,0.5,1,0.5,0","3","",""
"","html-keyboard-response","155","161962","0.0-155.0","3YGXWBAF713C77USTWK4WWHPTUS4CG","A37E36IPU0BJX5","37SDSEDIN9ORHL92Y0GV7TIFJ2X187","","null","<img src=""img/food3.png"" style=""width:200px;border:14px solid red;"">","null","","","","","","","","","",""
"","image-keyboard-response","156","163301","0.0-156.0","3YGXWBAF713C77USTWK4WWHPTUS4CG","A37E36IPU0BJX5","37SDSEDIN9ORHL92Y0GV7TIFJ2X187","","1335.5","img/food2.png","76","1338.5999999046326","3","1","1","1","1,0.5,0,1,0.5,0,0.5,0,1","0,1,0.5,0,1,0.5,1,0.5,0","3","",""
"","html-keyboard-response","157","163617","0.0-157.0","3YGXWBAF713C77USTWK4WWHPTUS4CG","A37E36IPU0BJX5","37SDSEDIN9ORHL92Y0GV7TIFJ2X187","","null","<img src=""img/food2.png"" style=""width:200px; border:14px solid green;"">","null","","","","","","","","","",""
"","image-keyboard-response","158","164407","0.0-158.0","3YGXWBAF713C77USTWK4WWHPTUS4CG","A37E36IPU0BJX5","37SDSEDIN9ORHL92Y0GV7TIFJ2X187","","784","img/food6.png","76","788.7000000476837","3","1","2","1","1,0.5,0,1,0.5,0,0.5,0,1","0,1,0.5,0,1,0.5,1,0.5,0","3","",""
"","html-keyboard-response","159","164726","0.0-159.0","3YGXWBAF713C77USTWK4WWHPTUS4CG","A37E36IPU0BJX5","37SDSEDIN9ORHL92Y0GV7TIFJ2X187","","null","<img src=""img/food6.png"" style=""width:200px; border:14px solid green;"">","null","","","","","","","","","",""
"","image-keyboard-response","160","165320","0.0-160.0","3YGXWBAF713C77USTWK4WWHPTUS4CG","A37E36IPU0BJX5","37SDSEDIN9ORHL92Y0GV7TIFJ2X187","","589.3999999761581","img/food2.png","76","593.2000000476837","3","0","1","1","1,0.5,0,1,0.5,0,0.5,0,1","0,1,0.5,0,1,0.5,1,0.5,0","3","",""
"","html-keyboard-response","161","165632","0.0-161.0","3YGXWBAF713C77USTWK4WWHPTUS4CG","A37E36IPU0BJX5","37SDSEDIN9ORHL92Y0GV7TIFJ2X187","","null","<img src=""img/food2.png"" style=""width:200px;border:14px solid red;"">","null","","","","","","","","","",""
"","image-keyboard-response","162","166188","0.0-162.0","3YGXWBAF713C77USTWK4WWHPTUS4CG","A37E36IPU0BJX5","37SDSEDIN9ORHL92Y0GV7TIFJ2X187","","551.8999999761581","img/food2.png","75","555.1999999284744","2","1","1","1","1,0.5,0,1,0.5,0,0.5,0,1","0,1,0.5,0,1,0.5,1,0.5,0","3","",""
"","html-keyboard-response","163","166507","0.0-163.0","3YGXWBAF713C77USTWK4WWHPTUS4CG","A37E36IPU0BJX5","37SDSEDIN9ORHL92Y0GV7TIFJ2X187","","null","<img src=""img/food2.png"" style=""width:200px; border:14px solid green;"">","null","","","","","","","","","",""
"","image-keyboard-response","164","167205","0.0-164.0","3YGXWBAF713C77USTWK4WWHPTUS4CG","A37E36IPU0BJX5","37SDSEDIN9ORHL92Y0GV7TIFJ2X187","","694.3000000715256","img/food6.png","76","697.5","3","0","2","1","1,0.5,0,1,0.5,0,0.5,0,1","0,1,0.5,0,1,0.5,1,0.5,0","3","",""
"","html-keyboard-response","165","167522","0.0-165.0","3YGXWBAF713C77USTWK4WWHPTUS4CG","A37E36IPU0BJX5","37SDSEDIN9ORHL92Y0GV7TIFJ2X187","","null","<img src=""img/food6.png"" style=""width:200px;border:14px solid red;"">","null","","","","","","","","","",""
"","image-keyboard-response","166","168182","0.0-166.0","3YGXWBAF713C77USTWK4WWHPTUS4CG","A37E36IPU0BJX5","37SDSEDIN9ORHL92Y0GV7TIFJ2X187","","655.7999999523163","img/food2.png","75","658.8000000715256","2","1","1","1","1,0.5,0,1,0.5,0,0.5,0,1","0,1,0.5,0,1,0.5,1,0.5,0","3","",""
"","html-keyboard-response","167","168491","0.0-167.0","3YGXWBAF713C77USTWK4WWHPTUS4CG","A37E36IPU0BJX5","37SDSEDIN9ORHL92Y0GV7TIFJ2X187","","null","<img src=""img/food2.png"" style=""width:200px; border:14px solid green;"">","null","","","","","","","","","",""
"","image-keyboard-response","168","169049","0.0-168.0","3YGXWBAF713C77USTWK4WWHPTUS4CG","A37E36IPU0BJX5","37SDSEDIN9ORHL92Y0GV7TIFJ2X187","","554.7999999523163","img/food2.png","75","558.0999999046326","2","1","1","1","1,0.5,0,1,0.5,0,0.5,0,1","0,1,0.5,0,1,0.5,1,0.5,0","3","",""
"","html-keyboard-response","169","169366","0.0-169.0","3YGXWBAF713C77USTWK4WWHPTUS4CG","A37E36IPU0BJX5","37SDSEDIN9ORHL92Y0GV7TIFJ2X187","","null","<img src=""img/food2.png"" style=""width:200px; border:14px solid green;"">","null","","","","","","","","","",""
"","image-keyboard-response","170","169982","0.0-170.0","3YGXWBAF713C77USTWK4WWHPTUS4CG","A37E36IPU0BJX5","37SDSEDIN9ORHL92Y0GV7TIFJ2X187","","610.7999999523163","img/food3.png","75","615.7000000476837","2","1","3","1","1,0.5,0,1,0.5,0,0.5,0,1","0,1,0.5,0,1,0.5,1,0.5,0","3","",""
"","html-keyboard-response","171","170303","0.0-171.0","3YGXWBAF713C77USTWK4WWHPTUS4CG","A37E36IPU0BJX5","37SDSEDIN9ORHL92Y0GV7TIFJ2X187","","null","<img src=""img/food3.png"" style=""width:200px; border:14px solid green;"">","null","","","","","","","","","",""
"","image-keyboard-response","172","171663","0.0-172.0","3YGXWBAF713C77USTWK4WWHPTUS4CG","A37E36IPU0BJX5","37SDSEDIN9ORHL92Y0GV7TIFJ2X187","","1355.8000000715256","img/food6.png","75","1359","2","1","2","1","1,0.5,0,1,0.5,0,0.5,0,1","0,1,0.5,0,1,0.5,1,0.5,0","3","",""
"","html-keyboard-response","173","171974","0.0-173.0","3YGXWBAF713C77USTWK4WWHPTUS4CG","A37E36IPU0BJX5","37SDSEDIN9ORHL92Y0GV7TIFJ2X187","","null","<img src=""img/food6.png"" style=""width:200px; border:14px solid green;"">","null","","","","","","","","","",""
"","image-keyboard-response","174","172562","0.0-174.0","3YGXWBAF713C77USTWK4WWHPTUS4CG","A37E36IPU0BJX5","37SDSEDIN9ORHL92Y0GV7TIFJ2X187","","584.5","img/food3.png","75","587.7000000476837","2","0","3","1","1,0.5,0,1,0.5,0,0.5,0,1","0,1,0.5,0,1,0.5,1,0.5,0","3","",""
"","html-keyboard-response","175","172880","0.0-175.0","3YGXWBAF713C77USTWK4WWHPTUS4CG","A37E36IPU0BJX5","37SDSEDIN9ORHL92Y0GV7TIFJ2X187","","null","<img src=""img/food3.png"" style=""width:200px;border:14px solid red;"">","null","","","","","","","","","",""
"","image-keyboard-response","176","173926","0.0-176.0","3YGXWBAF713C77USTWK4WWHPTUS4CG","A37E36IPU0BJX5","37SDSEDIN9ORHL92Y0GV7TIFJ2X187","","1042.6999999284744","img/food6.png","75","1045.9000000953674","2","1","2","1","1,0.5,0,1,0.5,0,0.5,0,1","0,1,0.5,0,1,0.5,1,0.5,0","3","",""
"","html-keyboard-response","177","174239","0.0-177.0","3YGXWBAF713C77USTWK4WWHPTUS4CG","A37E36IPU0BJX5","37SDSEDIN9ORHL92Y0GV7TIFJ2X187","","null","<img src=""img/food6.png"" style=""width:200px; border:14px solid green;"">","null","","","","","","","","","",""
"","image-keyboard-response","178","174753","0.0-178.0","3YGXWBAF713C77USTWK4WWHPTUS4CG","A37E36IPU0BJX5","37SDSEDIN9ORHL92Y0GV7TIFJ2X187","","510.09999990463257","img/food3.png","75","513.3999999761581","2","0","3","1","1,0.5,0,1,0.5,0,0.5,0,1","0,1,0.5,0,1,0.5,1,0.5,0","3","",""
"","html-keyboard-response","179","175067","0.0-179.0","3YGXWBAF713C77USTWK4WWHPTUS4CG","A37E36IPU0BJX5","37SDSEDIN9ORHL92Y0GV7TIFJ2X187","","null","<img src=""img/food3.png"" style=""width:200px;border:14px solid red;"">","null","","","","","","","","","",""
"","image-keyboard-response","180","175535","0.0-180.0","3YGXWBAF713C77USTWK4WWHPTUS4CG","A37E36IPU0BJX5","37SDSEDIN9ORHL92Y0GV7TIFJ2X187","","462.89999997615814","img/food3.png","76","467","3","0","3","1","1,0.5,0,1,0.5,0,0.5,0,1","0,1,0.5,0,1,0.5,1,0.5,0","3","",""
"","html-keyboard-response","181","175843","0.0-181.0","3YGXWBAF713C77USTWK4WWHPTUS4CG","A37E36IPU0BJX5","37SDSEDIN9ORHL92Y0GV7TIFJ2X187","","null","<img src=""img/food3.png"" style=""width:200px;border:14px solid red;"">","null","","","","","","","","","",""
"","html-keyboard-response","182","178871","0.0-182.0","3YGXWBAF713C77USTWK4WWHPTUS4CG","A37E36IPU0BJX5","37SDSEDIN9ORHL92Y0GV7TIFJ2X187","","","","","","","","","","","","","",""
"","instructions","183","199442","0.0-183.0","3YGXWBAF713C77USTWK4WWHPTUS4CG","A37E36IPU0BJX5","37SDSEDIN9ORHL92Y0GV7TIFJ2X187","[{""page_index"":0,""viewing_time"":18114.100000023842},{""page_index"":1,""viewing_time"":2450.7000000476837}]","20566.5","","","","","","","","","","","",""
"","image-keyboard-response","184","200317","0.0-184.0","3YGXWBAF713C77USTWK4WWHPTUS4CG","A37E36IPU0BJX5","37SDSEDIN9ORHL92Y0GV7TIFJ2X187","","865.2999999523163","img/food4.png","74","874.2000000476837","1","1","1","2","1,0.5,0,1,0.5,0,0.5,0,1","1,0.5,0,1,0.5,0,0.5,0,1","1","false",""
"","html-keyboard-response","185","200632","0.0-185.0","3YGXWBAF713C77USTWK4WWHPTUS4CG","A37E36IPU0BJX5","37SDSEDIN9ORHL92Y0GV7TIFJ2X187","","null","<img src=""img/food4.png"" style=""width:200px; border:14px solid green;"">","null","","","","","","","","","",""
"","image-keyboard-response","186","201087","0.0-187.0","3YGXWBAF713C77USTWK4WWHPTUS4CG","A37E36IPU0BJX5","37SDSEDIN9ORHL92Y0GV7TIFJ2X187","","448.60000002384186","img/food4.png","74","453.10000002384186","1","1","1","2","1,0.5,0,1,0.5,0,0.5,0,1","1,0.5,0,1,0.5,0,0.5,0,1","1","false",""
"","html-keyboard-response","187","201398","0.0-188.0","3YGXWBAF713C77USTWK4WWHPTUS4CG","A37E36IPU0BJX5","37SDSEDIN9ORHL92Y0GV7TIFJ2X187","","null","<img src=""img/food4.png"" style=""width:200px; border:14px solid green;"">","null","","","","","","","","","",""
"","image-keyboard-response","188","201953","0.0-190.0","3YGXWBAF713C77USTWK4WWHPTUS4CG","A37E36IPU0BJX5","37SDSEDIN9ORHL92Y0GV7TIFJ2X187","","548.6000000238419","img/food1.png","74","553","1","0","3","2","1,0.5,0,1,0.5,0,0.5,0,1","1,0.5,0,1,0.5,0,0.5,0,1","1","false",""
"","html-keyboard-response","189","202272","0.0-191.0","3YGXWBAF713C77USTWK4WWHPTUS4CG","A37E36IPU0BJX5","37SDSEDIN9ORHL92Y0GV7TIFJ2X187","","null","<img src=""img/food1.png"" style=""width:200px;border:14px solid red;"">","null","","","","","","","","","",""
"","image-keyboard-response","190","202558","0.0-193.0","3YGXWBAF713C77USTWK4WWHPTUS4CG","A37E36IPU0BJX5","37SDSEDIN9ORHL92Y0GV7TIFJ2X187","","280.39999997615814","img/food5.png","75","284","2","1","2","2","1,0.5,0,1,0.5,0,0.5,0,1","1,0.5,0,1,0.5,0,0.5,0,1","1","false",""
"","html-keyboard-response","191","202866","0.0-194.0","3YGXWBAF713C77USTWK4WWHPTUS4CG","A37E36IPU0BJX5","37SDSEDIN9ORHL92Y0GV7TIFJ2X187","","null","<img src=""img/food5.png"" style=""width:200px; border:14px solid green;"">","null","","","","","","","","","",""
"","image-keyboard-response","192","203137","0.0-196.0","3YGXWBAF713C77USTWK4WWHPTUS4CG","A37E36IPU0BJX5","37SDSEDIN9ORHL92Y0GV7TIFJ2X187","","266.2999999523163","img/food4.png","75","270.09999990463257","2","1","1","2","1,0.5,0,1,0.5,0,0.5,0,1","1,0.5,0,1,0.5,0,0.5,0,1","1","false",""
"","html-keyboard-response","193","203459","0.0-197.0","3YGXWBAF713C77USTWK4WWHPTUS4CG","A37E36IPU0BJX5","37SDSEDIN9ORHL92Y0GV7TIFJ2X187","","null","<img src=""img/food4.png"" style=""width:200px; border:14px solid green;"">","null","","","","","","","","","",""
"","image-keyboard-response","194","203735","0.0-199.0","3YGXWBAF713C77USTWK4WWHPTUS4CG","A37E36IPU0BJX5","37SDSEDIN9ORHL92Y0GV7TIFJ2X187","","269.90000009536743","img/food1.png","75","275.60000002384186","2","0","3","2","1,0.5,0,1,0.5,0,0.5,0,1","1,0.5,0,1,0.5,0,0.5,0,1","1","false",""
"","html-keyboard-response","195","204052","0.0-200.0","3YGXWBAF713C77USTWK4WWHPTUS4CG","A37E36IPU0BJX5","37SDSEDIN9ORHL92Y0GV7TIFJ2X187","","null","<img src=""img/food1.png"" style=""width:200px;border:14px solid red;"">","null","","","","","","","","","",""
"","image-keyboard-response","196","204320","0.0-202.0","3YGXWBAF713C77USTWK4WWHPTUS4CG","A37E36IPU0BJX5","37SDSEDIN9ORHL92Y0GV7TIFJ2X187","","262.1999999284744","img/food1.png","76","266.8000000715256","3","1","3","2","1,0.5,0,1,0.5,0,0.5,0,1","1,0.5,0,1,0.5,0,0.5,0,1","1","false",""
"","html-keyboard-response","197","204631","0.0-203.0","3YGXWBAF713C77USTWK4WWHPTUS4CG","A37E36IPU0BJX5","37SDSEDIN9ORHL92Y0GV7TIFJ2X187","","null","<img src=""img/food1.png"" style=""width:200px; border:14px solid green;"">","null","","","","","","","","","",""
"","image-keyboard-response","198","204883","0.0-205.0","3YGXWBAF713C77USTWK4WWHPTUS4CG","A37E36IPU0BJX5","37SDSEDIN9ORHL92Y0GV7TIFJ2X187","","247.20000004768372","img/food5.png","76","251","3","0","2","2","1,0.5,0,1,0.5,0,0.5,0,1","1,0.5,0,1,0.5,0,0.5,0,1","1","false",""
"","html-keyboard-response","199","205193","0.0-206.0","3YGXWBAF713C77USTWK4WWHPTUS4CG","A37E36IPU0BJX5","37SDSEDIN9ORHL92Y0GV7TIFJ2X187","","null","<img src=""img/food5.png"" style=""width:200px;border:14px solid red;"">","null","","","","","","","","","",""
"","image-keyboard-response","200","205467","0.0-208.0","3YGXWBAF713C77USTWK4WWHPTUS4CG","A37E36IPU0BJX5","37SDSEDIN9ORHL92Y0GV7TIFJ2X187","","267.7999999523163","img/food1.png","75","272.89999997615814","2","0","3","2","1,0.5,0,1,0.5,0,0.5,0,1","1,0.5,0,1,0.5,0,0.5,0,1","1","false",""
"","html-keyboard-response","201","205786","0.0-209.0","3YGXWBAF713C77USTWK4WWHPTUS4CG","A37E36IPU0BJX5","37SDSEDIN9ORHL92Y0GV7TIFJ2X187","","null","<img src=""img/food1.png"" style=""width:200px;border:14px solid red;"">","null","","","","","","","","","",""
"","image-keyboard-response","202","206079","0.0-211.0","3YGXWBAF713C77USTWK4WWHPTUS4CG","A37E36IPU0BJX5","37SDSEDIN9ORHL92Y0GV7TIFJ2X187","","285.7999999523163","img/food5.png","76","290.3000000715256","3","0","2","2","1,0.5,0,1,0.5,0,0.5,0,1","1,0.5,0,1,0.5,0,0.5,0,1","1","false",""
"","html-keyboard-response","203","206386","0.0-212.0","3YGXWBAF713C77USTWK4WWHPTUS4CG","A37E36IPU0BJX5","37SDSEDIN9ORHL92Y0GV7TIFJ2X187","","null","<img src=""img/food5.png"" style=""width:200px;border:14px solid red;"">","null","","","","","","","","","",""
"","image-keyboard-response","204","206615","0.0-214.0","3YGXWBAF713C77USTWK4WWHPTUS4CG","A37E36IPU0BJX5","37SDSEDIN9ORHL92Y0GV7TIFJ2X187","","223.39999997615814","img/food1.png","74","227.30000007152557","1","1","3","2","1,0.5,0,1,0.5,0,0.5,0,1","1,0.5,0,1,0.5,0,0.5,0,1","1","false",""
"","html-keyboard-response","205","206933","0.0-215.0","3YGXWBAF713C77USTWK4WWHPTUS4CG","A37E36IPU0BJX5","37SDSEDIN9ORHL92Y0GV7TIFJ2X187","","null","<img src=""img/food1.png"" style=""width:200px; border:14px solid green;"">","null","","","","","","","","","",""
"","image-keyboard-response","206","207217","0.0-217.0","3YGXWBAF713C77USTWK4WWHPTUS4CG","A37E36IPU0BJX5","37SDSEDIN9ORHL92Y0GV7TIFJ2X187","","277.10000002384186","img/food4.png","74","281.1999999284744","1","1","1","2","1,0.5,0,1,0.5,0,0.5,0,1","1,0.5,0,1,0.5,0,0.5,0,1","1","false",""
"","html-keyboard-response","207","207527","0.0-218.0","3YGXWBAF713C77USTWK4WWHPTUS4CG","A37E36IPU0BJX5","37SDSEDIN9ORHL92Y0GV7TIFJ2X187","","null","<img src=""img/food4.png"" style=""width:200px; border:14px solid green;"">","null","","","","","","","","","",""
"","image-keyboard-response","208","207723","0.0-220.0","3YGXWBAF713C77USTWK4WWHPTUS4CG","A37E36IPU0BJX5","37SDSEDIN9ORHL92Y0GV7TIFJ2X187","","189.39999997615814","img/food1.png","74","192.90000009536743","1","1","3","2","1,0.5,0,1,0.5,0,0.5,0,1","1,0.5,0,1,0.5,0,0.5,0,1","1","false",""
"","html-keyboard-response","209","208042","0.0-221.0","3YGXWBAF713C77USTWK4WWHPTUS4CG","A37E36IPU0BJX5","37SDSEDIN9ORHL92Y0GV7TIFJ2X187","","null","<img src=""img/food1.png"" style=""width:200px; border:14px solid green;"">","null","","","","","","","","","",""
"","image-keyboard-response","210","208242","0.0-223.0","3YGXWBAF713C77USTWK4WWHPTUS4CG","A37E36IPU0BJX5","37SDSEDIN9ORHL92Y0GV7TIFJ2X187","","193.59999990463257","img/food5.png","74","198.79999995231628","1","1","2","2","1,0.5,0,1,0.5,0,0.5,0,1","1,0.5,0,1,0.5,0,0.5,0,1","1","false",""
"","html-keyboard-response","211","208556","0.0-224.0","3YGXWBAF713C77USTWK4WWHPTUS4CG","A37E36IPU0BJX5","37SDSEDIN9ORHL92Y0GV7TIFJ2X187","","null","<img src=""img/food5.png"" style=""width:200px; border:14px solid green;"">","null","","","","","","","","","",""
"","image-keyboard-response","212","208852","0.0-226.0","3YGXWBAF713C77USTWK4WWHPTUS4CG","A37E36IPU0BJX5","37SDSEDIN9ORHL92Y0GV7TIFJ2X187","","291.5","img/food4.png","74","294.7999999523163","1","1","1","2","1,0.5,0,1,0.5,0,0.5,0,1","1,0.5,0,1,0.5,0,0.5,0,1","1","false",""
"","html-keyboard-response","213","209167","0.0-227.0","3YGXWBAF713C77USTWK4WWHPTUS4CG","A37E36IPU0BJX5","37SDSEDIN9ORHL92Y0GV7TIFJ2X187","","null","<img src=""img/food4.png"" style=""width:200px; border:14px solid green;"">","null","","","","","","","","","",""
"","image-keyboard-response","214","209462","0.0-229.0","3YGXWBAF713C77USTWK4WWHPTUS4CG","A37E36IPU0BJX5","37SDSEDIN9ORHL92Y0GV7TIFJ2X187","","288.90000009536743","img/food4.png","74","293.7000000476837","1","1","1","2","1,0.5,0,1,0.5,0,0.5,0,1","1,0.5,0,1,0.5,0,0.5,0,1","1","false",""
"","html-keyboard-response","215","209769","0.0-230.0","3YGXWBAF713C77USTWK4WWHPTUS4CG","A37E36IPU0BJX5","37SDSEDIN9ORHL92Y0GV7TIFJ2X187","","null","<img src=""img/food4.png"" style=""width:200px; border:14px solid green;"">","null","","","","","","","","","",""
"","image-keyboard-response","216","209936","0.0-232.0","3YGXWBAF713C77USTWK4WWHPTUS4CG","A37E36IPU0BJX5","37SDSEDIN9ORHL92Y0GV7TIFJ2X187","","162.70000004768372","img/food5.png","74","165.19999992847443","1","1","2","2","1,0.5,0,1,0.5,0,0.5,0,1","1,0.5,0,1,0.5,0,0.5,0,1","1","false",""
"","html-keyboard-response","217","210254","0.0-233.0","3YGXWBAF713C77USTWK4WWHPTUS4CG","A37E36IPU0BJX5","37SDSEDIN9ORHL92Y0GV7TIFJ2X187","","null","<img src=""img/food5.png"" style=""width:200px; border:14px solid green;"">","null","","","","","","","","","",""
"","image-keyboard-response","218","210494","0.0-235.0","3YGXWBAF713C77USTWK4WWHPTUS4CG","A37E36IPU0BJX5","37SDSEDIN9ORHL92Y0GV7TIFJ2X187","","234.39999997615814","img/food4.png","74","241.19999992847443","1","1","1","2","1,0.5,0,1,0.5,0,0.5,0,1","1,0.5,0,1,0.5,0,0.5,0,1","1","false",""
"","html-keyboard-response","219","210816","0.0-236.0","3YGXWBAF713C77USTWK4WWHPTUS4CG","A37E36IPU0BJX5","37SDSEDIN9ORHL92Y0GV7TIFJ2X187","","null","<img src=""img/food4.png"" style=""width:200px; border:14px solid green;"">","null","","","","","","","","","",""
"","image-keyboard-response","220","210983","0.0-238.0","3YGXWBAF713C77USTWK4WWHPTUS4CG","A37E36IPU0BJX5","37SDSEDIN9ORHL92Y0GV7TIFJ2X187","","159.80000007152557","img/food5.png","74","163.79999995231628","1","1","2","2","1,0.5,0,1,0.5,0,0.5,0,1","1,0.5,0,1,0.5,0,0.5,0,1","1","false",""
"","html-keyboard-response","221","211301","0.0-239.0","3YGXWBAF713C77USTWK4WWHPTUS4CG","A37E36IPU0BJX5","37SDSEDIN9ORHL92Y0GV7TIFJ2X187","","null","<img src=""img/food5.png"" style=""width:200px; border:14px solid green;"">","null","","","","","","","","","",""
"","image-keyboard-response","222","211456","0.0-241.0","3YGXWBAF713C77USTWK4WWHPTUS4CG","A37E36IPU0BJX5","37SDSEDIN9ORHL92Y0GV7TIFJ2X187","","150.39999997615814","img/food1.png","74","153.90000009536743","1","0","3","2","1,0.5,0,1,0.5,0,0.5,0,1","1,0.5,0,1,0.5,0,0.5,0,1","1","false",""
"","html-keyboard-response","223","211769","0.0-242.0","3YGXWBAF713C77USTWK4WWHPTUS4CG","A37E36IPU0BJX5","37SDSEDIN9ORHL92Y0GV7TIFJ2X187","","null","<img src=""img/food1.png"" style=""width:200px;border:14px solid red;"">","null","","","","","","","","","",""
"","image-keyboard-response","224","212031","0.0-244.0","3YGXWBAF713C77USTWK4WWHPTUS4CG","A37E36IPU0BJX5","37SDSEDIN9ORHL92Y0GV7TIFJ2X187","","257.2999999523163","img/food5.png","75","261.2000000476837","2","0","2","2","1,0.5,0,1,0.5,0,0.5,0,1","1,0.5,0,1,0.5,0,0.5,0,1","1","false",""
"","html-keyboard-response","225","212363","0.0-245.0","3YGXWBAF713C77USTWK4WWHPTUS4CG","A37E36IPU0BJX5","37SDSEDIN9ORHL92Y0GV7TIFJ2X187","","null","<img src=""img/food5.png"" style=""width:200px;border:14px solid red;"">","null","","","","","","","","","",""
"","image-keyboard-response","226","212516","0.0-247.0","3YGXWBAF713C77USTWK4WWHPTUS4CG","A37E36IPU0BJX5","37SDSEDIN9ORHL92Y0GV7TIFJ2X187","","147.5","img/food1.png","76","151.19999992847443","3","1","3","2","1,0.5,0,1,0.5,0,0.5,0,1","1,0.5,0,1,0.5,0,0.5,0,1","1","false",""
"","html-keyboard-response","227","212831","0.0-248.0","3YGXWBAF713C77USTWK4WWHPTUS4CG","A37E36IPU0BJX5","37SDSEDIN9ORHL92Y0GV7TIFJ2X187","","null","<img src=""img/food1.png"" style=""width:200px; border:14px solid green;"">","null","","","","","","","","","",""
"","image-keyboard-response","228","213071","0.0-250.0","3YGXWBAF713C77USTWK4WWHPTUS4CG","A37E36IPU0BJX5","37SDSEDIN9ORHL92Y0GV7TIFJ2X187","","234.5","img/food5.png","76","238.10000002384186","3","0","2","2","1,0.5,0,1,0.5,0,0.5,0,1","1,0.5,0,1,0.5,0,0.5,0,1","1","false",""
"","html-keyboard-response","229","213379","0.0-251.0","3YGXWBAF713C77USTWK4WWHPTUS4CG","A37E36IPU0BJX5","37SDSEDIN9ORHL92Y0GV7TIFJ2X187","","null","<img src=""img/food5.png"" style=""width:200px;border:14px solid red;"">","null","","","","","","","","","",""
"","image-keyboard-response","230","213629","0.0-253.0","3YGXWBAF713C77USTWK4WWHPTUS4CG","A37E36IPU0BJX5","37SDSEDIN9ORHL92Y0GV7TIFJ2X187","","245.30000007152557","img/food5.png","75","250","2","1","2","2","1,0.5,0,1,0.5,0,0.5,0,1","1,0.5,0,1,0.5,0,0.5,0,1","1","false",""
"","html-keyboard-response","231","213940","0.0-254.0","3YGXWBAF713C77USTWK4WWHPTUS4CG","A37E36IPU0BJX5","37SDSEDIN9ORHL92Y0GV7TIFJ2X187","","null","<img src=""img/food5.png"" style=""width:200px; border:14px solid green;"">","null","","","","","","","","","",""
"","image-keyboard-response","232","214191","0.0-256.0","3YGXWBAF713C77USTWK4WWHPTUS4CG","A37E36IPU0BJX5","37SDSEDIN9ORHL92Y0GV7TIFJ2X187","","243.89999997615814","img/food4.png","75","248.80000007152557","2","0","1","2","1,0.5,0,1,0.5,0,0.5,0,1","1,0.5,0,1,0.5,0,0.5,0,1","1","false",""
"","html-keyboard-response","233","214503","0.0-257.0","3YGXWBAF713C77USTWK4WWHPTUS4CG","A37E36IPU0BJX5","37SDSEDIN9ORHL92Y0GV7TIFJ2X187","","null","<img src=""img/food4.png"" style=""width:200px;border:14px solid red;"">","null","","","","","","","","","",""
"","image-keyboard-response","234","214706","0.0-259.0","3YGXWBAF713C77USTWK4WWHPTUS4CG","A37E36IPU0BJX5","37SDSEDIN9ORHL92Y0GV7TIFJ2X187","","196.20000004768372","img/food4.png","74","201.5","1","1","1","2","1,0.5,0,1,0.5,0,0.5,0,1","1,0.5,0,1,0.5,0,0.5,0,1","1","false",""
"","html-keyboard-response","235","215018","0.0-260.0","3YGXWBAF713C77USTWK4WWHPTUS4CG","A37E36IPU0BJX5","37SDSEDIN9ORHL92Y0GV7TIFJ2X187","","null","<img src=""img/food4.png"" style=""width:200px; border:14px solid green;"">","null","","","","","","","","","",""
"","image-keyboard-response","236","215257","0.0-262.0","3YGXWBAF713C77USTWK4WWHPTUS4CG","A37E36IPU0BJX5","37SDSEDIN9ORHL92Y0GV7TIFJ2X187","","233.90000009536743","img/food4.png","74","237.5","1","1","1","2","1,0.5,0,1,0.5,0,0.5,0,1","1,0.5,0,1,0.5,0,0.5,0,1","1","false",""
"","html-keyboard-response","237","215564","0.0-263.0","3YGXWBAF713C77USTWK4WWHPTUS4CG","A37E36IPU0BJX5","37SDSEDIN9ORHL92Y0GV7TIFJ2X187","","null","<img src=""img/food4.png"" style=""width:200px; border:14px solid green;"">","null","","","","","","","","","",""
"","image-keyboard-response","238","215707","0.0-265.0","3YGXWBAF713C77USTWK4WWHPTUS4CG","A37E36IPU0BJX5","37SDSEDIN9ORHL92Y0GV7TIFJ2X187","","137.09999990463257","img/food4.png","76","141.20000004768372","3","0","1","2","1,0.5,0,1,0.5,0,0.5,0,1","1,0.5,0,1,0.5,0,0.5,0,1","1","false",""
"","html-keyboard-response","239","216017","0.0-266.0","3YGXWBAF713C77USTWK4WWHPTUS4CG","A37E36IPU0BJX5","37SDSEDIN9ORHL92Y0GV7TIFJ2X187","","null","<img src=""img/food4.png"" style=""width:200px;border:14px solid red;"">","null","","","","","","","","","",""
"","image-keyboard-response","240","216208","0.0-268.0","3YGXWBAF713C77USTWK4WWHPTUS4CG","A37E36IPU0BJX5","37SDSEDIN9ORHL92Y0GV7TIFJ2X187","","185.19999992847443","img/food1.png","74","189","1","1","3","2","1,0.5,0,1,0.5,0,0.5,0,1","1,0.5,0,1,0.5,0,0.5,0,1","1","false",""
"","html-keyboard-response","241","216517","0.0-269.0","3YGXWBAF713C77USTWK4WWHPTUS4CG","A37E36IPU0BJX5","37SDSEDIN9ORHL92Y0GV7TIFJ2X187","","null","<img src=""img/food1.png"" style=""width:200px; border:14px solid green;"">","null","","","","","","","","","",""
"","image-keyboard-response","242","216686","0.0-271.0","3YGXWBAF713C77USTWK4WWHPTUS4CG","A37E36IPU0BJX5","37SDSEDIN9ORHL92Y0GV7TIFJ2X187","","163.70000004768372","img/food1.png","75","167.90000009536743","2","0","3","2","1,0.5,0,1,0.5,0,0.5,0,1","1,0.5,0,1,0.5,0,0.5,0,1","1","false",""
"","html-keyboard-response","243","217001","0.0-272.0","3YGXWBAF713C77USTWK4WWHPTUS4CG","A37E36IPU0BJX5","37SDSEDIN9ORHL92Y0GV7TIFJ2X187","","null","<img src=""img/food1.png"" style=""width:200px;border:14px solid red;"">","null","","","","","","","","","",""
"","image-keyboard-response","244","217163","0.0-274.0","3YGXWBAF713C77USTWK4WWHPTUS4CG","A37E36IPU0BJX5","37SDSEDIN9ORHL92Y0GV7TIFJ2X187","","156.60000002384186","img/food1.png","75","160.20000004768372","2","0","3","2","1,0.5,0,1,0.5,0,0.5,0,1","1,0.5,0,1,0.5,0,0.5,0,1","1","false",""
"","html-keyboard-response","245","217470","0.0-275.0","3YGXWBAF713C77USTWK4WWHPTUS4CG","A37E36IPU0BJX5","37SDSEDIN9ORHL92Y0GV7TIFJ2X187","","null","<img src=""img/food1.png"" style=""width:200px;border:14px solid red;"">","null","","","","","","","","","",""
"","image-keyboard-response","246","217584","0.0-277.0","3YGXWBAF713C77USTWK4WWHPTUS4CG","A37E36IPU0BJX5","37SDSEDIN9ORHL92Y0GV7TIFJ2X187","","108.60000002384186","img/food5.png","74","111.90000009536743","1","1","2","2","1,0.5,0,1,0.5,0,0.5,0,1","1,0.5,0,1,0.5,0,0.5,0,1","1","false",""
"","html-keyboard-response","247","217892","0.0-278.0","3YGXWBAF713C77USTWK4WWHPTUS4CG","A37E36IPU0BJX5","37SDSEDIN9ORHL92Y0GV7TIFJ2X187","","null","<img src=""img/food5.png"" style=""width:200px; border:14px solid green;"">","null","","","","","","","","","",""
"","image-keyboard-response","248","218052","0.0-280.0","3YGXWBAF713C77USTWK4WWHPTUS4CG","A37E36IPU0BJX5","37SDSEDIN9ORHL92Y0GV7TIFJ2X187","","152.89999997615814","img/food1.png","74","156.70000004768372","1","0","3","2","1,0.5,0,1,0.5,0,0.5,0,1","1,0.5,0,1,0.5,0,0.5,0,1","1","false",""
"","html-keyboard-response","249","218362","0.0-281.0","3YGXWBAF713C77USTWK4WWHPTUS4CG","A37E36IPU0BJX5","37SDSEDIN9ORHL92Y0GV7TIFJ2X187","","null","<img src=""img/food1.png"" style=""width:200px;border:14px solid red;"">","null","","","","","","","","","",""
"","image-keyboard-response","250","218551","0.0-283.0","3YGXWBAF713C77USTWK4WWHPTUS4CG","A37E36IPU0BJX5","37SDSEDIN9ORHL92Y0GV7TIFJ2X187","","185","img/food4.png","74","188.60000002384186","1","1","1","2","1,0.5,0,1,0.5,0,0.5,0,1","1,0.5,0,1,0.5,0,0.5,0,1","1","false",""
"","html-keyboard-response","251","218861","0.0-284.0","3YGXWBAF713C77USTWK4WWHPTUS4CG","A37E36IPU0BJX5","37SDSEDIN9ORHL92Y0GV7TIFJ2X187","","null","<img src=""img/food4.png"" style=""width:200px; border:14px solid green;"">","null","","","","","","","","","",""
"","image-keyboard-response","252","219081","0.0-286.0","3YGXWBAF713C77USTWK4WWHPTUS4CG","A37E36IPU0BJX5","37SDSEDIN9ORHL92Y0GV7TIFJ2X187","","215.09999990463257","img/food4.png","74","218.5","1","1","1","2","1,0.5,0,1,0.5,0,0.5,0,1","1,0.5,0,1,0.5,0,0.5,0,1","1","false",""
"","html-keyboard-response","253","219391","0.0-287.0","3YGXWBAF713C77USTWK4WWHPTUS4CG","A37E36IPU0BJX5","37SDSEDIN9ORHL92Y0GV7TIFJ2X187","","null","<img src=""img/food4.png"" style=""width:200px; border:14px solid green;"">","null","","","","","","","","","",""
"","image-keyboard-response","254","219583","0.0-289.0","3YGXWBAF713C77USTWK4WWHPTUS4CG","A37E36IPU0BJX5","37SDSEDIN9ORHL92Y0GV7TIFJ2X187","","184.89999997615814","img/food1.png","74","188.30000007152557","1","1","3","2","1,0.5,0,1,0.5,0,0.5,0,1","1,0.5,0,1,0.5,0,0.5,0,1","1","false",""
"","html-keyboard-response","255","219891","0.0-290.0","3YGXWBAF713C77USTWK4WWHPTUS4CG","A37E36IPU0BJX5","37SDSEDIN9ORHL92Y0GV7TIFJ2X187","","null","<img src=""img/food1.png"" style=""width:200px; border:14px solid green;"">","null","","","","","","","","","",""
"","image-keyboard-response","256","220098","0.0-292.0","3YGXWBAF713C77USTWK4WWHPTUS4CG","A37E36IPU0BJX5","37SDSEDIN9ORHL92Y0GV7TIFJ2X187","","199.39999997615814","img/food1.png","74","203.5","1","1","3","2","1,0.5,0,1,0.5,0,0.5,0,1","1,0.5,0,1,0.5,0,0.5,0,1","1","false",""
"","html-keyboard-response","257","220407","0.0-293.0","3YGXWBAF713C77USTWK4WWHPTUS4CG","A37E36IPU0BJX5","37SDSEDIN9ORHL92Y0GV7TIFJ2X187","","null","<img src=""img/food1.png"" style=""width:200px; border:14px solid green;"">","null","","","","","","","","","",""
"","image-keyboard-response","258","220581","0.0-295.0","3YGXWBAF713C77USTWK4WWHPTUS4CG","A37E36IPU0BJX5","37SDSEDIN9ORHL92Y0GV7TIFJ2X187","","167.70000004768372","img/food5.png","74","172.70000004768372","1","1","2","2","1,0.5,0,1,0.5,0,0.5,0,1","1,0.5,0,1,0.5,0,0.5,0,1","1","false",""
"","html-keyboard-response","259","220891","0.0-296.0","3YGXWBAF713C77USTWK4WWHPTUS4CG","A37E36IPU0BJX5","37SDSEDIN9ORHL92Y0GV7TIFJ2X187","","null","<img src=""img/food5.png"" style=""width:200px; border:14px solid green;"">","null","","","","","","","","","",""
"","image-keyboard-response","260","221121","0.0-298.0","3YGXWBAF713C77USTWK4WWHPTUS4CG","A37E36IPU0BJX5","37SDSEDIN9ORHL92Y0GV7TIFJ2X187","","223.90000009536743","img/food5.png","74","227.20000004768372","1","1","2","2","1,0.5,0,1,0.5,0,0.5,0,1","1,0.5,0,1,0.5,0,0.5,0,1","1","false",""
"","html-keyboard-response","261","221438","0.0-299.0","3YGXWBAF713C77USTWK4WWHPTUS4CG","A37E36IPU0BJX5","37SDSEDIN9ORHL92Y0GV7TIFJ2X187","","null","<img src=""img/food5.png"" style=""width:200px; border:14px solid green;"">","null","","","","","","","","","",""
"","image-keyboard-response","262","221596","0.0-301.0","3YGXWBAF713C77USTWK4WWHPTUS4CG","A37E36IPU0BJX5","37SDSEDIN9ORHL92Y0GV7TIFJ2X187","","148.60000002384186","img/food1.png","74","151.79999995231628","1","1","3","2","1,0.5,0,1,0.5,0,0.5,0,1","1,0.5,0,1,0.5,0,0.5,0,1","1","false",""
"","html-keyboard-response","263","221906","0.0-302.0","3YGXWBAF713C77USTWK4WWHPTUS4CG","A37E36IPU0BJX5","37SDSEDIN9ORHL92Y0GV7TIFJ2X187","","null","<img src=""img/food1.png"" style=""width:200px; border:14px solid green;"">","null","","","","","","","","","",""
"","image-keyboard-response","264","222170","0.0-304.0","3YGXWBAF713C77USTWK4WWHPTUS4CG","A37E36IPU0BJX5","37SDSEDIN9ORHL92Y0GV7TIFJ2X187","","256.6999999284744","img/food4.png","74","262","1","1","1","2","1,0.5,0,1,0.5,0,0.5,0,1","1,0.5,0,1,0.5,0,0.5,0,1","1","false",""
"","html-keyboard-response","265","222484","0.0-305.0","3YGXWBAF713C77USTWK4WWHPTUS4CG","A37E36IPU0BJX5","37SDSEDIN9ORHL92Y0GV7TIFJ2X187","","null","<img src=""img/food4.png"" style=""width:200px; border:14px solid green;"">","null","","","","","","","","","",""
"","image-keyboard-response","266","222634","0.0-307.0","3YGXWBAF713C77USTWK4WWHPTUS4CG","A37E36IPU0BJX5","37SDSEDIN9ORHL92Y0GV7TIFJ2X187","","144.59999990463257","img/food5.png","74","149.10000002384186","1","1","2","2","1,0.5,0,1,0.5,0,0.5,0,1","1,0.5,0,1,0.5,0,0.5,0,1","1","false",""
"","html-keyboard-response","267","222952","0.0-308.0","3YGXWBAF713C77USTWK4WWHPTUS4CG","A37E36IPU0BJX5","37SDSEDIN9ORHL92Y0GV7TIFJ2X187","","null","<img src=""img/food5.png"" style=""width:200px; border:14px solid green;"">","null","","","","","","","","","",""
"","image-keyboard-response","268","223119","0.0-310.0","3YGXWBAF713C77USTWK4WWHPTUS4CG","A37E36IPU0BJX5","37SDSEDIN9ORHL92Y0GV7TIFJ2X187","","161.39999997615814","img/food5.png","74","165","1","1","2","2","1,0.5,0,1,0.5,0,0.5,0,1","1,0.5,0,1,0.5,0,0.5,0,1","1","false",""
"","html-keyboard-response","269","223437","0.0-311.0","3YGXWBAF713C77USTWK4WWHPTUS4CG","A37E36IPU0BJX5","37SDSEDIN9ORHL92Y0GV7TIFJ2X187","","null","<img src=""img/food5.png"" style=""width:200px; border:14px solid green;"">","null","","","","","","","","","",""
"","image-keyboard-response","270","223632","0.0-313.0","3YGXWBAF713C77USTWK4WWHPTUS4CG","A37E36IPU0BJX5","37SDSEDIN9ORHL92Y0GV7TIFJ2X187","","190.29999995231628","img/food1.png","74","194.30000007152557","1","0","3","2","1,0.5,0,1,0.5,0,0.5,0,1","1,0.5,0,1,0.5,0,0.5,0,1","1","false",""
"","html-keyboard-response","271","223952","0.0-314.0","3YGXWBAF713C77USTWK4WWHPTUS4CG","A37E36IPU0BJX5","37SDSEDIN9ORHL92Y0GV7TIFJ2X187","","null","<img src=""img/food1.png"" style=""width:200px;border:14px solid red;"">","null","","","","","","","","","",""
"","image-keyboard-response","272","223999","0.0-316.0","3YGXWBAF713C77USTWK4WWHPTUS4CG","A37E36IPU0BJX5","37SDSEDIN9ORHL92Y0GV7TIFJ2X187","","40.59999990463257","img/food5.png","76","45.5","3","0","2","2","1,0.5,0,1,0.5,0,0.5,0,1","1,0.5,0,1,0.5,0,0.5,0,1","1","false",""
"","html-keyboard-response","273","224312","0.0-317.0","3YGXWBAF713C77USTWK4WWHPTUS4CG","A37E36IPU0BJX5","37SDSEDIN9ORHL92Y0GV7TIFJ2X187","","null","<img src=""img/food5.png"" style=""width:200px;border:14px solid red;"">","null","","","","","","","","","",""
"","image-keyboard-response","274","224470","0.0-319.0","3YGXWBAF713C77USTWK4WWHPTUS4CG","A37E36IPU0BJX5","37SDSEDIN9ORHL92Y0GV7TIFJ2X187","","152.39999997615814","img/food4.png","76","156.59999990463257","3","0","1","2","1,0.5,0,1,0.5,0,0.5,0,1","1,0.5,0,1,0.5,0,0.5,0,1","1","false",""
"","html-keyboard-response","275","224780","0.0-320.0","3YGXWBAF713C77USTWK4WWHPTUS4CG","A37E36IPU0BJX5","37SDSEDIN9ORHL92Y0GV7TIFJ2X187","","null","<img src=""img/food4.png"" style=""width:200px;border:14px solid red;"">","null","","","","","","","","","",""
"","image-keyboard-response","276","224934","0.0-322.0","3YGXWBAF713C77USTWK4WWHPTUS4CG","A37E36IPU0BJX5","37SDSEDIN9ORHL92Y0GV7TIFJ2X187","","148.70000004768372","img/food1.png","76","152.39999997615814","3","1","3","2","1,0.5,0,1,0.5,0,0.5,0,1","1,0.5,0,1,0.5,0,0.5,0,1","1","false",""
"","html-keyboard-response","277","225249","0.0-323.0","3YGXWBAF713C77USTWK4WWHPTUS4CG","A37E36IPU0BJX5","37SDSEDIN9ORHL92Y0GV7TIFJ2X187","","null","<img src=""img/food1.png"" style=""width:200px; border:14px solid green;"">","null","","","","","","","","","",""
"","image-keyboard-response","278","225286","0.0-325.0","3YGXWBAF713C77USTWK4WWHPTUS4CG","A37E36IPU0BJX5","37SDSEDIN9ORHL92Y0GV7TIFJ2X187","","32","img/food5.png","75","36.300000071525574","2","1","2","2","1,0.5,0,1,0.5,0,0.5,0,1","1,0.5,0,1,0.5,0,0.5,0,1","1","false",""
"","html-keyboard-response","279","225593","0.0-326.0","3YGXWBAF713C77USTWK4WWHPTUS4CG","A37E36IPU0BJX5","37SDSEDIN9ORHL92Y0GV7TIFJ2X187","","null","<img src=""img/food5.png"" style=""width:200px; border:14px solid green;"">","null","","","","","","","","","",""
"","image-keyboard-response","280","225731","0.0-328.0","3YGXWBAF713C77USTWK4WWHPTUS4CG","A37E36IPU0BJX5","37SDSEDIN9ORHL92Y0GV7TIFJ2X187","","133.5","img/food1.png","75","137.09999990463257","2","0","3","2","1,0.5,0,1,0.5,0,0.5,0,1","1,0.5,0,1,0.5,0,0.5,0,1","1","false",""
"","html-keyboard-response","281","226046","0.0-329.0","3YGXWBAF713C77USTWK4WWHPTUS4CG","A37E36IPU0BJX5","37SDSEDIN9ORHL92Y0GV7TIFJ2X187","","null","<img src=""img/food1.png"" style=""width:200px;border:14px solid red;"">","null","","","","","","","","","",""
"","image-keyboard-response","282","226147","0.0-331.0","3YGXWBAF713C77USTWK4WWHPTUS4CG","A37E36IPU0BJX5","37SDSEDIN9ORHL92Y0GV7TIFJ2X187","","95.89999997615814","img/food1.png","76","99.40000009536743","3","1","3","2","1,0.5,0,1,0.5,0,0.5,0,1","1,0.5,0,1,0.5,0,0.5,0,1","1","false",""
"","html-keyboard-response","283","226467","0.0-332.0","3YGXWBAF713C77USTWK4WWHPTUS4CG","A37E36IPU0BJX5","37SDSEDIN9ORHL92Y0GV7TIFJ2X187","","null","<img src=""img/food1.png"" style=""width:200px; border:14px solid green;"">","null","","","","","","","","","",""
"","image-keyboard-response","284","226662","0.0-334.0","3YGXWBAF713C77USTWK4WWHPTUS4CG","A37E36IPU0BJX5","37SDSEDIN9ORHL92Y0GV7TIFJ2X187","","190.10000002384186","img/food4.png","75","193.39999997615814","2","1","1","2","1,0.5,0,1,0.5,0,0.5,0,1","1,0.5,0,1,0.5,0,0.5,0,1","1","false",""
"","html-keyboard-response","285","226967","0.0-335.0","3YGXWBAF713C77USTWK4WWHPTUS4CG","A37E36IPU0BJX5","37SDSEDIN9ORHL92Y0GV7TIFJ2X187","","null","<img src=""img/food4.png"" style=""width:200px; border:14px solid green;"">","null","","","","","","","","","",""
"","image-keyboard-response","286","227029","0.0-337.0","3YGXWBAF713C77USTWK4WWHPTUS4CG","A37E36IPU0BJX5","37SDSEDIN9ORHL92Y0GV7TIFJ2X187","","57.299999952316284","img/food5.png","76","60.60000002384186","3","0","2","2","1,0.5,0,1,0.5,0,0.5,0,1","1,0.5,0,1,0.5,0,0.5,0,1","1","false",""
"","html-keyboard-response","287","227344","0.0-338.0","3YGXWBAF713C77USTWK4WWHPTUS4CG","A37E36IPU0BJX5","37SDSEDIN9ORHL92Y0GV7TIFJ2X187","","null","<img src=""img/food5.png"" style=""width:200px;border:14px solid red;"">","null","","","","","","","","","",""
"","image-keyboard-response","288","227469","0.0-340.0","3YGXWBAF713C77USTWK4WWHPTUS4CG","A37E36IPU0BJX5","37SDSEDIN9ORHL92Y0GV7TIFJ2X187","","120.69999992847443","img/food4.png","75","124.40000009536743","2","0","1","2","1,0.5,0,1,0.5,0,0.5,0,1","1,0.5,0,1,0.5,0,0.5,0,1","1","false",""
"","html-keyboard-response","289","227779","0.0-341.0","3YGXWBAF713C77USTWK4WWHPTUS4CG","A37E36IPU0BJX5","37SDSEDIN9ORHL92Y0GV7TIFJ2X187","","null","<img src=""img/food4.png"" style=""width:200px;border:14px solid red;"">","null","","","","","","","","","",""
"","image-keyboard-response","290","227947","0.0-343.0","3YGXWBAF713C77USTWK4WWHPTUS4CG","A37E36IPU0BJX5","37SDSEDIN9ORHL92Y0GV7TIFJ2X187","","162.70000004768372","img/food5.png","75","166.39999997615814","2","0","2","2","1,0.5,0,1,0.5,0,0.5,0,1","1,0.5,0,1,0.5,0,0.5,0,1","1","false",""
"","html-keyboard-response","291","228264","0.0-344.0","3YGXWBAF713C77USTWK4WWHPTUS4CG","A37E36IPU0BJX5","37SDSEDIN9ORHL92Y0GV7TIFJ2X187","","null","<img src=""img/food5.png"" style=""width:200px;border:14px solid red;"">","null","","","","","","","","","",""
"","image-keyboard-response","292","228350","0.0-346.0","3YGXWBAF713C77USTWK4WWHPTUS4CG","A37E36IPU0BJX5","37SDSEDIN9ORHL92Y0GV7TIFJ2X187","","79.10000002384186","img/food5.png","74","84","1","1","2","2","1,0.5,0,1,0.5,0,0.5,0,1","1,0.5,0,1,0.5,0,0.5,0,1","1","false",""
"","html-keyboard-response","293","228669","0.0-347.0","3YGXWBAF713C77USTWK4WWHPTUS4CG","A37E36IPU0BJX5","37SDSEDIN9ORHL92Y0GV7TIFJ2X187","","null","<img src=""img/food5.png"" style=""width:200px; border:14px solid green;"">","null","","","","","","","","","",""
"","image-keyboard-response","294","228881","0.0-349.0","3YGXWBAF713C77USTWK4WWHPTUS4CG","A37E36IPU0BJX5","37SDSEDIN9ORHL92Y0GV7TIFJ2X187","","206.60000002384186","img/food4.png","74","210.39999997615814","1","1","1","2","1,0.5,0,1,0.5,0,0.5,0,1","1,0.5,0,1,0.5,0,0.5,0,1","1","false",""
"","html-keyboard-response","295","229201","0.0-350.0","3YGXWBAF713C77USTWK4WWHPTUS4CG","A37E36IPU0BJX5","37SDSEDIN9ORHL92Y0GV7TIFJ2X187","","null","<img src=""img/food4.png"" style=""width:200px; border:14px solid green;"">","null","","","","","","","","","",""
"","image-keyboard-response","296","229387","0.0-352.0","3YGXWBAF713C77USTWK4WWHPTUS4CG","A37E36IPU0BJX5","37SDSEDIN9ORHL92Y0GV7TIFJ2X187","","180.79999995231628","img/food4.png","74","184.59999990463257","1","1","1","2","1,0.5,0,1,0.5,0,0.5,0,1","1,0.5,0,1,0.5,0,0.5,0,1","1","false",""
"","html-keyboard-response","297","229701","0.0-353.0","3YGXWBAF713C77USTWK4WWHPTUS4CG","A37E36IPU0BJX5","37SDSEDIN9ORHL92Y0GV7TIFJ2X187","","null","<img src=""img/food4.png"" style=""width:200px; border:14px solid green;"">","null","","","","","","","","","",""
"","image-keyboard-response","298","229820","0.0-355.0","3YGXWBAF713C77USTWK4WWHPTUS4CG","A37E36IPU0BJX5","37SDSEDIN9ORHL92Y0GV7TIFJ2X187","","115.40000009536743","img/food5.png","74","118.60000002384186","1","1","2","2","1,0.5,0,1,0.5,0,0.5,0,1","1,0.5,0,1,0.5,0,0.5,0,1","1","false",""
"","html-keyboard-response","299","230138","0.0-356.0","3YGXWBAF713C77USTWK4WWHPTUS4CG","A37E36IPU0BJX5","37SDSEDIN9ORHL92Y0GV7TIFJ2X187","","null","<img src=""img/food5.png"" style=""width:200px; border:14px solid green;"">","null","","","","","","","","","",""
"","image-keyboard-response","300","230264","0.0-358.0","3YGXWBAF713C77USTWK4WWHPTUS4CG","A37E36IPU0BJX5","37SDSEDIN9ORHL92Y0GV7TIFJ2X187","","120.20000004768372","img/food5.png","74","125.20000004768372","1","1","2","2","1,0.5,0,1,0.5,0,0.5,0,1","1,0.5,0,1,0.5,0,0.5,0,1","1","false",""
"","html-keyboard-response","301","230577","0.0-359.0","3YGXWBAF713C77USTWK4WWHPTUS4CG","A37E36IPU0BJX5","37SDSEDIN9ORHL92Y0GV7TIFJ2X187","","null","<img src=""img/food5.png"" style=""width:200px; border:14px solid green;"">","null","","","","","","","","","",""
"","image-keyboard-response","302","230834","0.0-361.0","3YGXWBAF713C77USTWK4WWHPTUS4CG","A37E36IPU0BJX5","37SDSEDIN9ORHL92Y0GV7TIFJ2X187","","252","img/food4.png","74","255.5","1","1","1","2","1,0.5,0,1,0.5,0,0.5,0,1","1,0.5,0,1,0.5,0,0.5,0,1","1","false",""
"","html-keyboard-response","303","231153","0.0-362.0","3YGXWBAF713C77USTWK4WWHPTUS4CG","A37E36IPU0BJX5","37SDSEDIN9ORHL92Y0GV7TIFJ2X187","","null","<img src=""img/food4.png"" style=""width:200px; border:14px solid green;"">","null","","","","","","","","","",""
"","image-keyboard-response","304","231294","0.0-364.0","3YGXWBAF713C77USTWK4WWHPTUS4CG","A37E36IPU0BJX5","37SDSEDIN9ORHL92Y0GV7TIFJ2X187","","136.20000004768372","img/food1.png","74","139.60000002384186","1","1","3","2","1,0.5,0,1,0.5,0,0.5,0,1","1,0.5,0,1,0.5,0,0.5,0,1","1","false",""
"","html-keyboard-response","305","231606","0.0-365.0","3YGXWBAF713C77USTWK4WWHPTUS4CG","A37E36IPU0BJX5","37SDSEDIN9ORHL92Y0GV7TIFJ2X187","","null","<img src=""img/food1.png"" style=""width:200px; border:14px solid green;"">","null","","","","","","","","","",""
"","image-keyboard-response","306","231748","0.0-367.0","3YGXWBAF713C77USTWK4WWHPTUS4CG","A37E36IPU0BJX5","37SDSEDIN9ORHL92Y0GV7TIFJ2X187","","134.59999990463257","img/food1.png","74","138.29999995231628","1","0","3","2","1,0.5,0,1,0.5,0,0.5,0,1","1,0.5,0,1,0.5,0,0.5,0,1","1","false",""
"","html-keyboard-response","307","232062","0.0-368.0","3YGXWBAF713C77USTWK4WWHPTUS4CG","A37E36IPU0BJX5","37SDSEDIN9ORHL92Y0GV7TIFJ2X187","","null","<img src=""img/food1.png"" style=""width:200px;border:14px solid red;"">","null","","","","","","","","","",""
"","image-keyboard-response","308","232572","0.0-370.0","3YGXWBAF713C77USTWK4WWHPTUS4CG","A37E36IPU0BJX5","37SDSEDIN9ORHL92Y0GV7TIFJ2X187","","504.59999990463257","img/food4.png","75","508.39999997615814","2","1","1","2","1,0.5,0,1,0.5,0,0.5,0,1","1,0.5,0,1,0.5,0,0.5,0,1","1","false",""
"","html-keyboard-response","309","232887","0.0-371.0","3YGXWBAF713C77USTWK4WWHPTUS4CG","A37E36IPU0BJX5","37SDSEDIN9ORHL92Y0GV7TIFJ2X187","","null","<img src=""img/food4.png"" style=""width:200px; border:14px solid green;"">","null","","","","","","","","","",""
"","image-keyboard-response","310","233186","0.0-373.0","3YGXWBAF713C77USTWK4WWHPTUS4CG","A37E36IPU0BJX5","37SDSEDIN9ORHL92Y0GV7TIFJ2X187","","294.2999999523163","img/food1.png","74","297.60000002384186","1","0","3","2","1,0.5,0,1,0.5,0,0.5,0,1","1,0.5,0,1,0.5,0,0.5,0,1","1","false",""
"","html-keyboard-response","311","233497","0.0-374.0","3YGXWBAF713C77USTWK4WWHPTUS4CG","A37E36IPU0BJX5","37SDSEDIN9ORHL92Y0GV7TIFJ2X187","","null","<img src=""img/food1.png"" style=""width:200px;border:14px solid red;"">","null","","","","","","","","","",""
"","image-keyboard-response","312","233655","0.0-376.0","3YGXWBAF713C77USTWK4WWHPTUS4CG","A37E36IPU0BJX5","37SDSEDIN9ORHL92Y0GV7TIFJ2X187","","152","img/food4.png","75","155.5","2","0","1","2","1,0.5,0,1,0.5,0,0.5,0,1","1,0.5,0,1,0.5,0,0.5,0,1","1","false",""
"","html-keyboard-response","313","233964","0.0-377.0","3YGXWBAF713C77USTWK4WWHPTUS4CG","A37E36IPU0BJX5","37SDSEDIN9ORHL92Y0GV7TIFJ2X187","","null","<img src=""img/food4.png"" style=""width:200px;border:14px solid red;"">","null","","","","","","","","","",""
"","image-keyboard-response","314","234186","0.0-379.0","3YGXWBAF713C77USTWK4WWHPTUS4CG","A37E36IPU0BJX5","37SDSEDIN9ORHL92Y0GV7TIFJ2X187","","216","img/food1.png","75","219.60000002384186","2","0","3","2","1,0.5,0,1,0.5,0,0.5,0,1","1,0.5,0,1,0.5,0,0.5,0,1","1","false",""
"","html-keyboard-response","315","234497","0.0-380.0","3YGXWBAF713C77USTWK4WWHPTUS4CG","A37E36IPU0BJX5","37SDSEDIN9ORHL92Y0GV7TIFJ2X187","","null","<img src=""img/food1.png"" style=""width:200px;border:14px solid red;"">","null","","","","","","","","","",""
"","image-keyboard-response","316","234559","0.0-382.0","3YGXWBAF713C77USTWK4WWHPTUS4CG","A37E36IPU0BJX5","37SDSEDIN9ORHL92Y0GV7TIFJ2X187","","56","img/food4.png","76","59.10000002384186","3","0","1","2","1,0.5,0,1,0.5,0,0.5,0,1","1,0.5,0,1,0.5,0,0.5,0,1","1","false",""
"","html-keyboard-response","317","234867","0.0-383.0","3YGXWBAF713C77USTWK4WWHPTUS4CG","A37E36IPU0BJX5","37SDSEDIN9ORHL92Y0GV7TIFJ2X187","","null","<img src=""img/food4.png"" style=""width:200px;border:14px solid red;"">","null","","","","","","","","","",""
"","image-keyboard-response","318","235038","0.0-385.0","3YGXWBAF713C77USTWK4WWHPTUS4CG","A37E36IPU0BJX5","37SDSEDIN9ORHL92Y0GV7TIFJ2X187","","166","img/food1.png","74","169.30000007152557","1","1","3","2","1,0.5,0,1,0.5,0,0.5,0,1","1,0.5,0,1,0.5,0,0.5,0,1","1","false",""
"","html-keyboard-response","319","235346","0.0-386.0","3YGXWBAF713C77USTWK4WWHPTUS4CG","A37E36IPU0BJX5","37SDSEDIN9ORHL92Y0GV7TIFJ2X187","","null","<img src=""img/food1.png"" style=""width:200px; border:14px solid green;"">","null","","","","","","","","","",""
"","image-keyboard-response","320","235572","0.0-388.0","3YGXWBAF713C77USTWK4WWHPTUS4CG","A37E36IPU0BJX5","37SDSEDIN9ORHL92Y0GV7TIFJ2X187","","221.20000004768372","img/food1.png","74","224.59999990463257","1","1","3","2","1,0.5,0,1,0.5,0,0.5,0,1","1,0.5,0,1,0.5,0,0.5,0,1","1","false",""
"","html-keyboard-response","321","235884","0.0-389.0","3YGXWBAF713C77USTWK4WWHPTUS4CG","A37E36IPU0BJX5","37SDSEDIN9ORHL92Y0GV7TIFJ2X187","","null","<img src=""img/food1.png"" style=""width:200px; border:14px solid green;"">","null","","","","","","","","","",""
"","image-keyboard-response","322","236012","0.0-391.0","3YGXWBAF713C77USTWK4WWHPTUS4CG","A37E36IPU0BJX5","37SDSEDIN9ORHL92Y0GV7TIFJ2X187","","122.29999995231628","img/food5.png","74","125.5","1","1","2","2","1,0.5,0,1,0.5,0,0.5,0,1","1,0.5,0,1,0.5,0,0.5,0,1","1","false",""
"","html-keyboard-response","323","236332","0.0-392.0","3YGXWBAF713C77USTWK4WWHPTUS4CG","A37E36IPU0BJX5","37SDSEDIN9ORHL92Y0GV7TIFJ2X187","","null","<img src=""img/food5.png"" style=""width:200px; border:14px solid green;"">","null","","","","","","","","","",""
"","image-keyboard-response","324","236522","0.0-394.0","3YGXWBAF713C77USTWK4WWHPTUS4CG","A37E36IPU0BJX5","37SDSEDIN9ORHL92Y0GV7TIFJ2X187","","184","img/food4.png","74","187.5","1","1","1","2","1,0.5,0,1,0.5,0,0.5,0,1","1,0.5,0,1,0.5,0,0.5,0,1","1","false",""
"","html-keyboard-response","325","236833","0.0-395.0","3YGXWBAF713C77USTWK4WWHPTUS4CG","A37E36IPU0BJX5","37SDSEDIN9ORHL92Y0GV7TIFJ2X187","","null","<img src=""img/food4.png"" style=""width:200px; border:14px solid green;"">","null","","","","","","","","","",""
"","image-keyboard-response","326","237070","0.0-397.0","3YGXWBAF713C77USTWK4WWHPTUS4CG","A37E36IPU0BJX5","37SDSEDIN9ORHL92Y0GV7TIFJ2X187","","231.80000007152557","img/food1.png","74","236.10000002384186","1","0","3","2","1,0.5,0,1,0.5,0,0.5,0,1","1,0.5,0,1,0.5,0,0.5,0,1","1","false",""
"","html-keyboard-response","327","237388","0.0-398.0","3YGXWBAF713C77USTWK4WWHPTUS4CG","A37E36IPU0BJX5","37SDSEDIN9ORHL92Y0GV7TIFJ2X187","","null","<img src=""img/food1.png"" style=""width:200px;border:14px solid red;"">","null","","","","","","","","","",""
"","image-keyboard-response","328","237691","0.0-400.0","3YGXWBAF713C77USTWK4WWHPTUS4CG","A37E36IPU0BJX5","37SDSEDIN9ORHL92Y0GV7TIFJ2X187","","295.39999997615814","img/food4.png","75","300.2000000476837","2","1","1","2","1,0.5,0,1,0.5,0,0.5,0,1","1,0.5,0,1,0.5,0,0.5,0,1","1","false",""
"","html-keyboard-response","329","238004","0.0-401.0","3YGXWBAF713C77USTWK4WWHPTUS4CG","A37E36IPU0BJX5","37SDSEDIN9ORHL92Y0GV7TIFJ2X187","","null","<img src=""img/food4.png"" style=""width:200px; border:14px solid green;"">","null","","","","","","","","","",""
"","image-keyboard-response","330","238253","0.0-403.0","3YGXWBAF713C77USTWK4WWHPTUS4CG","A37E36IPU0BJX5","37SDSEDIN9ORHL92Y0GV7TIFJ2X187","","242.5","img/food5.png","74","247.79999995231628","1","1","2","2","1,0.5,0,1,0.5,0,0.5,0,1","1,0.5,0,1,0.5,0,0.5,0,1","1","false",""
"","html-keyboard-response","331","238575","0.0-404.0","3YGXWBAF713C77USTWK4WWHPTUS4CG","A37E36IPU0BJX5","37SDSEDIN9ORHL92Y0GV7TIFJ2X187","","null","<img src=""img/food5.png"" style=""width:200px; border:14px solid green;"">","null","","","","","","","","","",""
"","image-keyboard-response","332","238771","0.0-406.0","3YGXWBAF713C77USTWK4WWHPTUS4CG","A37E36IPU0BJX5","37SDSEDIN9ORHL92Y0GV7TIFJ2X187","","190.60000002384186","img/food5.png","74","194.10000002384186","1","1","2","2","1,0.5,0,1,0.5,0,0.5,0,1","1,0.5,0,1,0.5,0,0.5,0,1","1","false",""
"","html-keyboard-response","333","239092","0.0-407.0","3YGXWBAF713C77USTWK4WWHPTUS4CG","A37E36IPU0BJX5","37SDSEDIN9ORHL92Y0GV7TIFJ2X187","","null","<img src=""img/food5.png"" style=""width:200px; border:14px solid green;"">","null","","","","","","","","","",""
"","image-keyboard-response","334","239188","0.0-409.0","3YGXWBAF713C77USTWK4WWHPTUS4CG","A37E36IPU0BJX5","37SDSEDIN9ORHL92Y0GV7TIFJ2X187","","90.80000007152557","img/food4.png","74","95.10000002384186","1","1","1","2","1,0.5,0,1,0.5,0,0.5,0,1","1,0.5,0,1,0.5,0,0.5,0,1","1","false",""
"","html-keyboard-response","335","239510","0.0-410.0","3YGXWBAF713C77USTWK4WWHPTUS4CG","A37E36IPU0BJX5","37SDSEDIN9ORHL92Y0GV7TIFJ2X187","","null","<img src=""img/food4.png"" style=""width:200px; border:14px solid green;"">","null","","","","","","","","","",""
"","image-keyboard-response","336","239939","0.0-412.0","3YGXWBAF713C77USTWK4WWHPTUS4CG","A37E36IPU0BJX5","37SDSEDIN9ORHL92Y0GV7TIFJ2X187","","422.3000000715256","img/food5.png","74","426.5","1","1","2","2","1,0.5,0,1,0.5,0,0.5,0,1","1,0.5,0,1,0.5,0,0.5,0,1","1","false",""
"","html-keyboard-response","337","240253","0.0-413.0","3YGXWBAF713C77USTWK4WWHPTUS4CG","A37E36IPU0BJX5","37SDSEDIN9ORHL92Y0GV7TIFJ2X187","","null","<img src=""img/food5.png"" style=""width:200px; border:14px solid green;"">","null","","","","","","","","","",""
"","image-keyboard-response","338","241147","0.0-415.0","3YGXWBAF713C77USTWK4WWHPTUS4CG","A37E36IPU0BJX5","37SDSEDIN9ORHL92Y0GV7TIFJ2X187","","886.5","img/food5.png","74","892","1","1","2","2","1,0.5,0,1,0.5,0,0.5,0,1","1,0.5,0,1,0.5,0,0.5,0,1","1","false",""
"","html-keyboard-response","339","241456","0.0-416.0","3YGXWBAF713C77USTWK4WWHPTUS4CG","A37E36IPU0BJX5","37SDSEDIN9ORHL92Y0GV7TIFJ2X187","","null","<img src=""img/food5.png"" style=""width:200px; border:14px solid green;"">","null","","","","","","","","","",""
"","image-keyboard-response","340","241802","0.0-418.0","3YGXWBAF713C77USTWK4WWHPTUS4CG","A37E36IPU0BJX5","37SDSEDIN9ORHL92Y0GV7TIFJ2X187","","339.60000002384186","img/food5.png","74","343.60000002384186","1","1","2","2","1,0.5,0,1,0.5,0,0.5,0,1","1,0.5,0,1,0.5,0,0.5,0,1","1","false",""
"","html-keyboard-response","341","242113","0.0-419.0","3YGXWBAF713C77USTWK4WWHPTUS4CG","A37E36IPU0BJX5","37SDSEDIN9ORHL92Y0GV7TIFJ2X187","","null","<img src=""img/food5.png"" style=""width:200px; border:14px solid green;"">","null","","","","","","","","","",""
"","image-keyboard-response","342","242436","0.0-421.0","3YGXWBAF713C77USTWK4WWHPTUS4CG","A37E36IPU0BJX5","37SDSEDIN9ORHL92Y0GV7TIFJ2X187","","316.89999997615814","img/food5.png","74","321.3000000715256","1","1","2","2","1,0.5,0,1,0.5,0,0.5,0,1","1,0.5,0,1,0.5,0,0.5,0,1","1","false",""
"","html-keyboard-response","343","242743","0.0-422.0","3YGXWBAF713C77USTWK4WWHPTUS4CG","A37E36IPU0BJX5","37SDSEDIN9ORHL92Y0GV7TIFJ2X187","","null","<img src=""img/food5.png"" style=""width:200px; border:14px solid green;"">","null","","","","","","","","","",""
"","image-keyboard-response","344","242941","0.0-424.0","3YGXWBAF713C77USTWK4WWHPTUS4CG","A37E36IPU0BJX5","37SDSEDIN9ORHL92Y0GV7TIFJ2X187","","191.59999990463257","img/food1.png","74","196.69999992847443","1","0","3","2","1,0.5,0,1,0.5,0,0.5,0,1","1,0.5,0,1,0.5,0,0.5,0,1","1","false",""
"","html-keyboard-response","345","243260","0.0-425.0","3YGXWBAF713C77USTWK4WWHPTUS4CG","A37E36IPU0BJX5","37SDSEDIN9ORHL92Y0GV7TIFJ2X187","","null","<img src=""img/food1.png"" style=""width:200px;border:14px solid red;"">","null","","","","","","","","","",""
"","image-keyboard-response","346","243521","0.0-427.0","3YGXWBAF713C77USTWK4WWHPTUS4CG","A37E36IPU0BJX5","37SDSEDIN9ORHL92Y0GV7TIFJ2X187","","254.69999992847443","img/food5.png","74","258.39999997615814","1","1","2","2","1,0.5,0,1,0.5,0,0.5,0,1","1,0.5,0,1,0.5,0,0.5,0,1","1","false",""
"","html-keyboard-response","347","243830","0.0-428.0","3YGXWBAF713C77USTWK4WWHPTUS4CG","A37E36IPU0BJX5","37SDSEDIN9ORHL92Y0GV7TIFJ2X187","","null","<img src=""img/food5.png"" style=""width:200px; border:14px solid green;"">","null","","","","","","","","","",""
"","image-keyboard-response","348","244033","0.0-430.0","3YGXWBAF713C77USTWK4WWHPTUS4CG","A37E36IPU0BJX5","37SDSEDIN9ORHL92Y0GV7TIFJ2X187","","197.79999995231628","img/food1.png","74","201.70000004768372","1","1","3","2","1,0.5,0,1,0.5,0,0.5,0,1","1,0.5,0,1,0.5,0,0.5,0,1","1","false",""
"","html-keyboard-response","349","244346","0.0-431.0","3YGXWBAF713C77USTWK4WWHPTUS4CG","A37E36IPU0BJX5","37SDSEDIN9ORHL92Y0GV7TIFJ2X187","","null","<img src=""img/food1.png"" style=""width:200px; border:14px solid green;"">","null","","","","","","","","","",""
"","image-keyboard-response","350","244515","0.0-433.0","3YGXWBAF713C77USTWK4WWHPTUS4CG","A37E36IPU0BJX5","37SDSEDIN9ORHL92Y0GV7TIFJ2X187","","166","img/food1.png","74","168.40000009536743","1","0","3","2","1,0.5,0,1,0.5,0,0.5,0,1","1,0.5,0,1,0.5,0,0.5,0,1","1","false",""
"","html-keyboard-response","351","244821","0.0-434.0","3YGXWBAF713C77USTWK4WWHPTUS4CG","A37E36IPU0BJX5","37SDSEDIN9ORHL92Y0GV7TIFJ2X187","","null","<img src=""img/food1.png"" style=""width:200px;border:14px solid red;"">","null","","","","","","","","","",""
"","image-keyboard-response","352","245067","0.0-436.0","3YGXWBAF713C77USTWK4WWHPTUS4CG","A37E36IPU0BJX5","37SDSEDIN9ORHL92Y0GV7TIFJ2X187","","241.10000002384186","img/food4.png","75","244.20000004768372","2","1","1","2","1,0.5,0,1,0.5,0,0.5,0,1","1,0.5,0,1,0.5,0,0.5,0,1","1","false",""
"","html-keyboard-response","353","245384","0.0-437.0","3YGXWBAF713C77USTWK4WWHPTUS4CG","A37E36IPU0BJX5","37SDSEDIN9ORHL92Y0GV7TIFJ2X187","","null","<img src=""img/food4.png"" style=""width:200px; border:14px solid green;"">","null","","","","","","","","","",""
"","image-keyboard-response","354","245548","0.0-439.0","3YGXWBAF713C77USTWK4WWHPTUS4CG","A37E36IPU0BJX5","37SDSEDIN9ORHL92Y0GV7TIFJ2X187","","158.40000009536743","img/food4.png","75","162.10000002384186","2","1","1","2","1,0.5,0,1,0.5,0,0.5,0,1","1,0.5,0,1,0.5,0,0.5,0,1","1","false",""
"","html-keyboard-response","355","245868","0.0-440.0","3YGXWBAF713C77USTWK4WWHPTUS4CG","A37E36IPU0BJX5","37SDSEDIN9ORHL92Y0GV7TIFJ2X187","","null","<img src=""img/food4.png"" style=""width:200px; border:14px solid green;"">","null","","","","","","","","","",""
"","image-keyboard-response","356","245987","0.0-442.0","3YGXWBAF713C77USTWK4WWHPTUS4CG","A37E36IPU0BJX5","37SDSEDIN9ORHL92Y0GV7TIFJ2X187","","113.5","img/food1.png","75","117.19999992847443","2","0","3","2","1,0.5,0,1,0.5,0,0.5,0,1","1,0.5,0,1,0.5,0,0.5,0,1","1","false",""
"","html-keyboard-response","357","246306","0.0-443.0","3YGXWBAF713C77USTWK4WWHPTUS4CG","A37E36IPU0BJX5","37SDSEDIN9ORHL92Y0GV7TIFJ2X187","","null","<img src=""img/food1.png"" style=""width:200px;border:14px solid red;"">","null","","","","","","","","","",""
"","image-keyboard-response","358","246541","0.0-445.0","3YGXWBAF713C77USTWK4WWHPTUS4CG","A37E36IPU0BJX5","37SDSEDIN9ORHL92Y0GV7TIFJ2X187","","227.20000004768372","img/food5.png","76","233.89999997615814","3","0","2","2","1,0.5,0,1,0.5,0,0.5,0,1","1,0.5,0,1,0.5,0,0.5,0,1","1","false",""
"","html-keyboard-response","359","246848","0.0-446.0","3YGXWBAF713C77USTWK4WWHPTUS4CG","A37E36IPU0BJX5","37SDSEDIN9ORHL92Y0GV7TIFJ2X187","","null","<img src=""img/food5.png"" style=""width:200px;border:14px solid red;"">","null","","","","","","","","","",""
"","image-keyboard-response","360","246982","0.0-448.0","3YGXWBAF713C77USTWK4WWHPTUS4CG","A37E36IPU0BJX5","37SDSEDIN9ORHL92Y0GV7TIFJ2X187","","128.39999997615814","img/food4.png","76","131.80000007152557","3","0","1","2","1,0.5,0,1,0.5,0,0.5,0,1","1,0.5,0,1,0.5,0,0.5,0,1","1","false",""
"","html-keyboard-response","361","247301","0.0-449.0","3YGXWBAF713C77USTWK4WWHPTUS4CG","A37E36IPU0BJX5","37SDSEDIN9ORHL92Y0GV7TIFJ2X187","","null","<img src=""img/food4.png"" style=""width:200px;border:14px solid red;"">","null","","","","","","","","","",""
"","image-keyboard-response","362","247387","0.0-451.0","3YGXWBAF713C77USTWK4WWHPTUS4CG","A37E36IPU0BJX5","37SDSEDIN9ORHL92Y0GV7TIFJ2X187","","81.19999992847443","img/food4.png","74","84.5","1","1","1","2","1,0.5,0,1,0.5,0,0.5,0,1","1,0.5,0,1,0.5,0,0.5,0,1","1","false",""
"","html-keyboard-response","363","247708","0.0-452.0","3YGXWBAF713C77USTWK4WWHPTUS4CG","A37E36IPU0BJX5","37SDSEDIN9ORHL92Y0GV7TIFJ2X187","","null","<img src=""img/food4.png"" style=""width:200px; border:14px solid green;"">","null","","","","","","","","","",""
"","instructions","364","256501","0.0-454.0","3YGXWBAF713C77USTWK4WWHPTUS4CG","A37E36IPU0BJX5","37SDSEDIN9ORHL92Y0GV7TIFJ2X187","[{""page_index"":0,""viewing_time"":8788.099999904633}]","8790.099999904633","","","","","","","","","","","",""
"","survey-text","365","262351","0.0-455.0","3YGXWBAF713C77USTWK4WWHPTUS4CG","A37E36IPU0BJX5","37SDSEDIN9ORHL92Y0GV7TIFJ2X187","","5816.199999928474","","","","","","","","","","","","{""Q0"":""A37E36IPU0BJX5""}"
